[{"start_time":1551900736034,"click_time":1551900739284,"finger_time":1551900736046,"fix_duration":1325.3883268221884,"trial":0,"RT":12,"MT":3238,"sideResp":2,"stimulus":"img/500/equaldotsize/L/10_Ratio_500_L_4_R_2.png","xmouse":[781,781,781,781,781,781,781,781,781,781,781,781,781,781,781,781,781,781,781,781,781,781,781,781,781,781,781,788,792,796,797,798,798,798,798,798,798,798,798,798,798,798,798,798,798,798,798,798,798,799,799,799,799,799,799,799,799,799,799,799,799,799,799,799,799,799,799,799,799,799,799,799,799,799,799,799,799,799,799,799,799,799,799,799,799,799,799,799,799,799,799,799,799,799,799,799,799,799,799,799,799,799,799,799,799,799,799,799,799,799,799,799,799,799,799,799,799,799,799,799,799,799,799,799,799,799,799,799,799,799,799,799,799,799,799,799,799,801,803,806,808,812,820,840,870,909,954,970,990,999,1008,1028,1040,1053,1066,1074,1084,1088,1098,1105,1112,1121,1124],"ymouse":[547,547,547,547,547,547,547,547,547,547,547,547,547,547,547,547,547,547,547,547,547,547,547,547,547,550,587,614,630,640,645,648,648,648,648,648,648,648,648,648,648,648,648,648,648,648,648,648,648,644,641,634,633,633,633,632,632,632,632,632,632,632,632,632,632,632,632,632,632,632,632,632,632,632,632,632,632,632,632,632,632,632,632,632,632,632,632,632,632,632,632,632,632,632,632,632,632,632,632,632,632,632,632,632,632,632,632,632,632,632,632,632,632,632,632,632,632,632,632,632,632,632,632,632,632,632,632,632,632,632,632,632,632,632,632,632,632,632,631,628,626,621,611,583,530,468,406,382,356,341,329,300,281,264,247,232,214,202,179,163,146,110,90],"timestamp_mouse":[11,30,50,70,89,110,129,150,171,190,210,230,249,271,290,310,331,351,371,389,409,431,450,469,490,510,530,551,569,591,611,630,649,670,690,710,730,751,770,790,811,831,851,869,890,911,931,949,969,990,1010,1030,1051,1071,1089,1111,1129,1151,1170,1190,1211,1230,1251,1270,1290,1311,1331,1351,1371,1389,1410,1430,1451,1470,1489,1510,1531,1550,1569,1590,1610,1630,1650,1670,1690,1711,1731,1750,1770,1790,1810,1831,1851,1869,1890,1909,1931,1951,1970,1990,2011,2030,2050,2070,2091,2109,2130,2151,2170,2190,2209,2230,2250,2271,2290,2309,2330,2349,2371,2390,2410,2430,2451,2470,2490,2511,2531,2550,2571,2591,2610,2629,2651,2670,2690,2710,2730,2751,2770,2790,2810,2830,2850,2870,2890,2909,2930,2950,2970,2990,3011,3030,3050,3071,3089,3110,3130,3149,3170,3190,3210,3230,3250],"xSR":741.5,"ySR":501.8,"xT1":424.9,"yT1":0,"xT2":1058.1,"yT2":0,"toosoon":0,"cond_shown":"equaldotsize","ratio_trial":500,"smaller_num":"2","larger_num":"4","correct_side":1,"subjID":"AnaSofiaMatallanaSanchez24","gender":"1","age":"11","school":"6","test":{"fix_dur":[250,1500],"timestim":300,"targets_dim":[100,100],"targets_relative_coord":[0.3,0.7],"size_stim":[880,420],"start_dim":[100,100],"size_start":[300,300],"size_fix":60,"samplingrate":20,"img_types":["equaldotsize","equaldotanddens","randomdotsizeEA"],"ratios":[250,500,750,900],"rep_conds":9,"nTrials":120,"trials_to_rest":500,"Trials_order":[87,62,97,8,17,72,83,34,95,104,42,11,24,53,44,92,109,1,113,7,103,23,38,22,111,91,108,80,93,107,18,59,99,102,48,36,25,41,5,90,40,114,15,0,26,88,28,86,43,56,39,89,35,6,75,49,33,79,76,45,37,65,85,116,57,70,64,100,63,82,50,96,117,3,81,32,101,94,2,71,55,66,61,98,67,9,21,30,106,47,54,68,16,10,78,74,14,118,31,105,27,119,112,115,29,73,69,13,58,4,20,60,52,77,12,51,110,46,19,84],"cond_shown":["equaldotsize","randomdotsizeEA","equaldotanddens","randomdotsizeEA","randomdotsizeEA","equaldotsize","randomdotsizeEA","equaldotanddens","randomdotsizeEA","randomdotsizeEA","equaldotsize","randomdotsizeEA","equaldotsize","randomdotsizeEA","randomdotsizeEA","randomdotsizeEA","equaldotanddens","equaldotanddens","randomdotsizeEA","equaldotanddens","equaldotanddens","randomdotsizeEA","randomdotsizeEA","equaldotanddens","equaldotsize","equaldotanddens","equaldotsize","randomdotsizeEA","equaldotsize","randomdotsizeEA","equaldotsize","randomdotsizeEA","equaldotsize","equaldotsize","equaldotsize","equaldotsize","equaldotanddens","randomdotsizeEA","randomdotsizeEA","equaldotsize","equaldotanddens","equaldotsize","equaldotsize","equaldotsize","randomdotsizeEA","equaldotanddens","equaldotanddens","randomdotsizeEA","equaldotanddens","randomdotsizeEA","equaldotsize","randomdotsizeEA","randomdotsizeEA","equaldotsize","equaldotsize","equaldotanddens","equaldotsize","equaldotanddens","equaldotanddens","equaldotsize","equaldotanddens","randomdotsizeEA","equaldotanddens","randomdotsizeEA","equaldotsize","equaldotanddens","equaldotanddens","equaldotanddens","equaldotsize","equaldotanddens","randomdotsizeEA","equaldotsize","equaldotsize","equaldotsize","equaldotsize","randomdotsizeEA","randomdotsizeEA","equaldotanddens","randomdotsizeEA","randomdotsizeEA","equaldotanddens","equaldotsize","equaldotanddens","randomdotsizeEA","equaldotanddens","equaldotsize","equaldotsize","equaldotsize","equaldotanddens","randomdotsizeEA","equaldotsize","randomdotsizeEA","equaldotanddens","equaldotanddens","equaldotsize","randomdotsizeEA","randomdotsizeEA","equaldotanddens","equaldotanddens","equaldotsize","equaldotsize","randomdotsizeEA","equaldotanddens","equaldotanddens","randomdotsizeEA","equaldotanddens","equaldotsize","equaldotanddens","equaldotanddens","equaldotanddens","randomdotsizeEA","equaldotsize","equaldotanddens","randomdotsizeEA","equaldotsize","equaldotsize","randomdotsizeEA","equaldotanddens","equaldotanddens","equaldotsize"],"ratio_trial":[500,250,250,750,500,250,900,900,900,750,750,900,250,500,750,750,250,250,500,750,750,900,250,900,500,750,250,750,900,900,750,900,500,750,250,250,250,500,500,750,500,750,500,250,250,500,500,250,750,750,500,500,900,750,500,250,900,750,500,900,250,500,250,750,900,900,500,500,500,900,250,250,900,500,900,750,500,900,250,900,750,750,250,250,750,900,900,750,900,900,750,750,500,900,750,250,250,900,750,900,500,900,500,750,500,250,900,250,900,500,750,250,500,500,250,500,250,900,750,250],"smaller_num":["2","5","6","18","9","3","9","18","18","9","3","18","3","2","3","3","5","3","2","6","6","18","3","18","6","6","4","15","18","18","9","18","2","3","2","4","3","9","9","3","6","6","1","3","3","4","5","3","3","15","9","9","18","12","2","2","18","3","2","18","3","5","3","3","9","9","4","2","2","9","1","2","18","9","9","3","2","18","3","18","15","6","3","4","6","18","18","9","9","18","12","3","10","18","15","1","3","9","9","9","6","9","9","3","6","4","18","3","18","9","12","3","9","3","2","2","2","18","15","3"],"larger_num":["4","20","24","24","18","12","10","20","20","12","4","20","12","4","4","4","20","12","4","8","8","20","12","20","12","8","16","20","20","20","12","20","4","4","8","16","12","18","18","4","12","8","2","12","12","8","10","12","4","20","18","18","20","16","4","8","20","4","4","20","12","10","12","4","10","10","8","4","4","10","4","8","20","18","10","4","4","20","12","20","20","8","12","16","8","20","20","12","10","20","16","4","20","20","20","4","12","10","12","10","12","10","18","4","12","16","20","12","20","18","16","12","18","6","8","4","8","20","20","12"],"correct_side":[1,2,1,1,1,2,1,1,2,2,1,2,1,1,2,2,2,1,1,1,1,1,1,2,1,1,1,1,2,2,2,1,1,2,1,1,1,2,2,2,1,1,2,1,2,1,1,1,2,2,1,2,1,2,2,1,1,1,2,2,2,1,2,2,1,2,1,2,2,2,2,2,1,2,2,2,1,1,1,1,2,1,2,2,1,2,1,2,2,1,2,2,2,1,1,2,1,2,2,2,1,2,1,2,1,2,2,2,1,2,2,1,2,2,1,1,1,1,1,2],"img_shown":["img/500/equaldotsize/L/10_Ratio_500_L_4_R_2.png","img/250/randomdotsizeEA/R/12_Ratio_250_L_5_R_20.png","img/250/equaldotanddens/L/5_Ratio_250_L_24_R_6.png","img/750/randomdotsizeEA/L/6_Ratio_750_L_24_R_18.png","img/500/randomdotsizeEA/L/4_Ratio_500_L_18_R_9.png","img/250/equaldotsize/R/4_Ratio_250_L_3_R_12.png","img/900/randomdotsizeEA/L/1_Ratio_900_L_10_R_9.png","img/900/equaldotanddens/L/4_Ratio_900_L_20_R_18.png","img/900/randomdotsizeEA/R/12_Ratio_900_L_18_R_20.png","img/750/randomdotsizeEA/R/15_Ratio_750_L_9_R_12.png","img/750/equaldotsize/L/10_Ratio_750_L_4_R_3.png","img/900/randomdotsizeEA/R/13_Ratio_900_L_18_R_20.png","img/250/equaldotsize/L/15_Ratio_250_L_12_R_3.png","img/500/randomdotsizeEA/L/5_Ratio_500_L_4_R_2.png","img/750/randomdotsizeEA/R/7_Ratio_750_L_3_R_4.png","img/750/randomdotsizeEA/R/7_Ratio_750_L_3_R_4.png","img/250/equaldotanddens/R/12_Ratio_250_L_5_R_20.png","img/250/equaldotanddens/L/15_Ratio_250_L_12_R_3.png","img/500/randomdotsizeEA/L/5_Ratio_500_L_4_R_2.png","img/750/equaldotanddens/L/14_Ratio_750_L_8_R_6.png","img/750/equaldotanddens/L/14_Ratio_750_L_8_R_6.png","img/900/randomdotsizeEA/L/2_Ratio_900_L_20_R_18.png","img/250/randomdotsizeEA/L/14_Ratio_250_L_12_R_3.png","img/900/equaldotanddens/R/13_Ratio_900_L_18_R_20.png","img/500/equaldotsize/L/13_Ratio_500_L_12_R_6.png","img/750/equaldotanddens/L/13_Ratio_750_L_8_R_6.png","img/250/equaldotsize/L/2_Ratio_250_L_16_R_4.png","img/750/randomdotsizeEA/L/1_Ratio_750_L_20_R_15.png","img/900/equaldotsize/R/14_Ratio_900_L_18_R_20.png","img/900/randomdotsizeEA/R/9_Ratio_900_L_18_R_20.png","img/750/equaldotsize/R/15_Ratio_750_L_9_R_12.png","img/900/randomdotsizeEA/L/10_Ratio_900_L_20_R_18.png","img/500/equaldotsize/L/5_Ratio_500_L_4_R_2.png","img/750/equaldotsize/R/12_Ratio_750_L_3_R_4.png","img/250/equaldotsize/L/7_Ratio_250_L_8_R_2.png","img/250/equaldotsize/L/2_Ratio_250_L_16_R_4.png","img/250/equaldotanddens/L/15_Ratio_250_L_12_R_3.png","img/500/randomdotsizeEA/R/1_Ratio_500_L_9_R_18.png","img/500/randomdotsizeEA/R/1_Ratio_500_L_9_R_18.png","img/750/equaldotsize/R/12_Ratio_750_L_3_R_4.png","img/500/equaldotanddens/L/11_Ratio_500_L_12_R_6.png","img/750/equaldotsize/L/14_Ratio_750_L_8_R_6.png","img/500/equaldotsize/R/12_Ratio_500_L_1_R_2.png","img/250/equaldotsize/L/14_Ratio_250_L_12_R_3.png","img/250/randomdotsizeEA/R/9_Ratio_250_L_3_R_12.png","img/500/equaldotanddens/L/8_Ratio_500_L_8_R_4.png","img/500/equaldotanddens/L/7_Ratio_500_L_10_R_5.png","img/250/randomdotsizeEA/L/15_Ratio_250_L_12_R_3.png","img/750/equaldotanddens/R/12_Ratio_750_L_3_R_4.png","img/750/randomdotsizeEA/R/4_Ratio_750_L_15_R_20.png","img/500/equaldotsize/L/4_Ratio_500_L_18_R_9.png","img/500/randomdotsizeEA/R/1_Ratio_500_L_9_R_18.png","img/900/randomdotsizeEA/L/2_Ratio_900_L_20_R_18.png","img/750/equaldotsize/R/11_Ratio_750_L_12_R_16.png","img/500/equaldotsize/R/9_Ratio_500_L_2_R_4.png","img/250/equaldotanddens/L/3_Ratio_250_L_8_R_2.png","img/900/equaldotsize/L/8_Ratio_900_L_20_R_18.png","img/750/equaldotanddens/L/10_Ratio_750_L_4_R_3.png","img/500/equaldotanddens/R/9_Ratio_500_L_2_R_4.png","img/900/equaldotsize/R/14_Ratio_900_L_18_R_20.png","img/250/equaldotanddens/R/11_Ratio_250_L_3_R_12.png","img/500/randomdotsizeEA/L/7_Ratio_500_L_10_R_5.png","img/250/equaldotanddens/R/4_Ratio_250_L_3_R_12.png","img/750/randomdotsizeEA/R/7_Ratio_750_L_3_R_4.png","img/900/equaldotsize/L/1_Ratio_900_L_10_R_9.png","img/900/equaldotanddens/R/6_Ratio_900_L_9_R_10.png","img/500/equaldotanddens/L/8_Ratio_500_L_8_R_4.png","img/500/equaldotanddens/R/9_Ratio_500_L_2_R_4.png","img/500/equaldotsize/R/9_Ratio_500_L_2_R_4.png","img/900/equaldotanddens/R/3_Ratio_900_L_9_R_10.png","img/250/randomdotsizeEA/R/8_Ratio_250_L_1_R_4.png","img/250/equaldotsize/R/13_Ratio_250_L_2_R_8.png","img/900/equaldotsize/L/8_Ratio_900_L_20_R_18.png","img/500/equaldotsize/R/1_Ratio_500_L_9_R_18.png","img/900/equaldotsize/R/6_Ratio_900_L_9_R_10.png","img/750/randomdotsizeEA/R/7_Ratio_750_L_3_R_4.png","img/500/randomdotsizeEA/L/10_Ratio_500_L_4_R_2.png","img/900/equaldotanddens/L/4_Ratio_900_L_20_R_18.png","img/250/randomdotsizeEA/L/14_Ratio_250_L_12_R_3.png","img/900/randomdotsizeEA/L/8_Ratio_900_L_20_R_18.png","img/750/equaldotanddens/R/4_Ratio_750_L_15_R_20.png","img/750/equaldotsize/L/13_Ratio_750_L_8_R_6.png","img/250/equaldotanddens/R/9_Ratio_250_L_3_R_12.png","img/250/randomdotsizeEA/R/10_Ratio_250_L_4_R_16.png","img/750/equaldotanddens/L/14_Ratio_750_L_8_R_6.png","img/900/equaldotsize/R/12_Ratio_900_L_18_R_20.png","img/900/equaldotsize/L/10_Ratio_900_L_20_R_18.png","img/750/equaldotsize/R/15_Ratio_750_L_9_R_12.png","img/900/equaldotanddens/R/6_Ratio_900_L_9_R_10.png","img/900/randomdotsizeEA/L/10_Ratio_900_L_20_R_18.png","img/750/equaldotsize/R/11_Ratio_750_L_12_R_16.png","img/750/randomdotsizeEA/R/7_Ratio_750_L_3_R_4.png","img/500/equaldotanddens/R/3_Ratio_500_L_10_R_20.png","img/900/equaldotanddens/L/2_Ratio_900_L_20_R_18.png","img/750/equaldotsize/L/1_Ratio_750_L_20_R_15.png","img/250/randomdotsizeEA/R/8_Ratio_250_L_1_R_4.png","img/250/randomdotsizeEA/L/14_Ratio_250_L_12_R_3.png","img/900/equaldotanddens/R/6_Ratio_900_L_9_R_10.png","img/750/equaldotanddens/R/15_Ratio_750_L_9_R_12.png","img/900/equaldotsize/R/3_Ratio_900_L_9_R_10.png","img/500/equaldotsize/L/13_Ratio_500_L_12_R_6.png","img/900/randomdotsizeEA/R/5_Ratio_900_L_9_R_10.png","img/500/equaldotanddens/L/4_Ratio_500_L_18_R_9.png","img/750/equaldotanddens/R/7_Ratio_750_L_3_R_4.png","img/500/randomdotsizeEA/L/13_Ratio_500_L_12_R_6.png","img/250/equaldotanddens/R/10_Ratio_250_L_4_R_16.png","img/900/equaldotsize/R/9_Ratio_900_L_18_R_20.png","img/250/equaldotanddens/R/4_Ratio_250_L_3_R_12.png","img/900/equaldotanddens/L/2_Ratio_900_L_20_R_18.png","img/500/equaldotanddens/R/1_Ratio_500_L_9_R_18.png","img/750/randomdotsizeEA/R/11_Ratio_750_L_12_R_16.png","img/250/equaldotsize/L/15_Ratio_250_L_12_R_3.png","img/500/equaldotanddens/R/1_Ratio_500_L_9_R_18.png","img/500/randomdotsizeEA/R/2_Ratio_500_L_3_R_6.png","img/250/equaldotsize/L/1_Ratio_250_L_8_R_2.png","img/500/equaldotsize/L/5_Ratio_500_L_4_R_2.png","img/250/randomdotsizeEA/L/1_Ratio_250_L_8_R_2.png","img/900/equaldotanddens/L/8_Ratio_900_L_20_R_18.png","img/750/equaldotanddens/L/1_Ratio_750_L_20_R_15.png","img/250/equaldotsize/R/9_Ratio_250_L_3_R_12.png"],"Rat0":[["12_Ratio_0_L_9_R_0.png","13_Ratio_0_L_6_R_0.png","5_Ratio_0_L_2_R_0.png","6_Ratio_0_L_4_R_0.png","8_Ratio_0_L_6_R_0.png"],["1_Ratio_0_L_0_R_17.png","10_Ratio_0_L_0_R_22.png","11_Ratio_0_L_0_R_1.png","14_Ratio_0_L_0_R_24.png","15_Ratio_0_L_0_R_4.png","2_Ratio_0_L_0_R_5.png","3_Ratio_0_L_0_R_17.png","4_Ratio_0_L_0_R_7.png","7_Ratio_0_L_0_R_19.png","9_Ratio_0_L_0_R_15.png"]],"Rat250":[["1_Ratio_250_L_8_R_2.png","14_Ratio_250_L_12_R_3.png","15_Ratio_250_L_12_R_3.png","2_Ratio_250_L_16_R_4.png","3_Ratio_250_L_8_R_2.png","5_Ratio_250_L_24_R_6.png","7_Ratio_250_L_8_R_2.png"],["10_Ratio_250_L_4_R_16.png","11_Ratio_250_L_3_R_12.png","12_Ratio_250_L_5_R_20.png","13_Ratio_250_L_2_R_8.png","4_Ratio_250_L_3_R_12.png","6_Ratio_250_L_6_R_24.png","8_Ratio_250_L_1_R_4.png","9_Ratio_250_L_3_R_12.png"]],"Rat500":[["10_Ratio_500_L_4_R_2.png","11_Ratio_500_L_12_R_6.png","13_Ratio_500_L_12_R_6.png","4_Ratio_500_L_18_R_9.png","5_Ratio_500_L_4_R_2.png","7_Ratio_500_L_10_R_5.png","8_Ratio_500_L_8_R_4.png"],["1_Ratio_500_L_9_R_18.png","12_Ratio_500_L_1_R_2.png","14_Ratio_500_L_5_R_10.png","15_Ratio_500_L_1_R_2.png","2_Ratio_500_L_3_R_6.png","3_Ratio_500_L_10_R_20.png","6_Ratio_500_L_9_R_18.png","9_Ratio_500_L_2_R_4.png"]],"Rat750":[["1_Ratio_750_L_20_R_15.png","10_Ratio_750_L_4_R_3.png","13_Ratio_750_L_8_R_6.png","14_Ratio_750_L_8_R_6.png","6_Ratio_750_L_24_R_18.png","8_Ratio_750_L_4_R_3.png","9_Ratio_750_L_4_R_3.png"],["11_Ratio_750_L_12_R_16.png","12_Ratio_750_L_3_R_4.png","15_Ratio_750_L_9_R_12.png","2_Ratio_750_L_6_R_8.png","3_Ratio_750_L_15_R_20.png","4_Ratio_750_L_15_R_20.png","5_Ratio_750_L_15_R_20.png","7_Ratio_750_L_3_R_4.png"]],"Rat900":[["1_Ratio_900_L_10_R_9.png","10_Ratio_900_L_20_R_18.png","2_Ratio_900_L_20_R_18.png","4_Ratio_900_L_20_R_18.png","8_Ratio_900_L_20_R_18.png"],["11_Ratio_900_L_18_R_20.png","12_Ratio_900_L_18_R_20.png","13_Ratio_900_L_18_R_20.png","14_Ratio_900_L_18_R_20.png","15_Ratio_900_L_9_R_10.png","3_Ratio_900_L_9_R_10.png","5_Ratio_900_L_9_R_10.png","6_Ratio_900_L_9_R_10.png","7_Ratio_900_L_9_R_10.png","9_Ratio_900_L_18_R_20.png"]],"Rat1000":[["10_Ratio_1000_L_16_R_16.png","11_Ratio_1000_L_6_R_6.png","12_Ratio_1000_L_14_R_14.png","13_Ratio_1000_L_20_R_20.png","15_Ratio_1000_L_15_R_15.png","2_Ratio_1000_L_17_R_17.png","4_Ratio_1000_L_9_R_9.png","5_Ratio_1000_L_6_R_6.png","6_Ratio_1000_L_19_R_19.png","8_Ratio_1000_L_14_R_14.png","9_Ratio_1000_L_25_R_25.png"],["1_Ratio_1000_L_1_R_1.png","14_Ratio_1000_L_17_R_17.png","3_Ratio_1000_L_17_R_17.png","7_Ratio_1000_L_6_R_6.png"]]}},{"start_time":1551900741629,"click_time":1551900742664,"finger_time":1551900742304,"fix_duration":1264.4573111372385,"trial":1,"RT":675,"MT":360,"sideResp":2,"stimulus":"img/250/randomdotsizeEA/R/12_Ratio_250_L_5_R_20.png","xmouse":[781,781,781,781,781,781,781,781,781,781,781,781,782,782,784,784,784,784,784,784,784,784,784,784,784,784,784,784,784,784,784,784,795,805,821,839,901,967,1001,1031,1055,1081,1087,1090,1093,1099,1110,1115,1118,1119,1120,1124],"ymouse":[614,614,614,614,614,614,614,614,614,614,614,614,613,612,612,612,612,612,612,612,612,612,612,612,612,612,612,612,612,612,612,612,588,566,544,523,478,419,384,347,315,277,264,257,248,235,200,180,154,138,123,79],"timestamp_mouse":[16,45,55,76,96,115,136,156,175,194,215,235,254,275,294,315,335,355,375,395,415,436,456,475,495,515,535,555,575,595,614,635,655,675,695,715,735,755,774,795,815,835,855,874,895,915,935,955,975,994,1016,1034],"xSR":741.5,"ySR":573.95,"xT1":424.9,"yT1":0,"xT2":1058.1,"yT2":0,"toosoon":0,"cond_shown":"randomdotsizeEA","ratio_trial":250,"smaller_num":"5","larger_num":"20","correct_side":2,"subjID":"AnaSofiaMatallanaSanchez24","gender":"1","age":"11","school":"6"},{"start_time":1551900744869,"click_time":1551900745585,"finger_time":1551900745305,"fix_duration":1404.322359475141,"trial":2,"RT":436,"MT":280,"sideResp":1,"stimulus":"img/250/equaldotanddens/L/5_Ratio_250_L_24_R_6.png","xmouse":[794,794,794,794,794,794,794,794,794,794,794,793,794,796,797,797,797,797,797,797,798,793,768,719,593,553,523,513,510,509,509,509,509,509,509,505],"ymouse":[620,620,620,620,620,620,620,620,620,620,620,620,619,616,614,614,614,614,614,614,608,559,490,402,186,76,0,0,0,0,0,0,0,0,0,39],"timestamp_mouse":[15,42,55,75,94,115,135,155,175,195,215,234,256,276,294,315,336,356,376,394,415,436,454,475,494,514,534,555,575,595,615,636,655,675,694,715],"xSR":741.5,"ySR":573.95,"xT1":424.9,"yT1":0,"xT2":1058.1,"yT2":0,"toosoon":0,"cond_shown":"equaldotanddens","ratio_trial":250,"smaller_num":"6","larger_num":"24","correct_side":1,"subjID":"AnaSofiaMatallanaSanchez24","gender":"1","age":"11","school":"6"},{"start_time":1551900747919,"click_time":1551900749084,"finger_time":1551900748444,"fix_duration":1214.7449193602545,"trial":3,"RT":525,"MT":640,"sideResp":1,"stimulus":"img/750/randomdotsizeEA/L/6_Ratio_750_L_24_R_18.png","xmouse":[774,774,774,774,774,774,774,774,774,774,774,774,774,774,774,774,774,774,774,774,774,774,774,774,777,790,806,833,876,898,921,931,936,936,936,936,936,936,936,936,936,936,930,903,881,849,790,622,525,441,398,384,380,379,379,379,383,413,429],"ymouse":[612,612,612,612,612,612,612,612,612,612,612,612,612,612,612,612,612,612,612,612,612,612,612,612,607,584,556,509,394,355,321,303,291,290,290,290,290,290,290,289,289,289,288,291,292,292,290,237,195,157,130,117,112,110,110,109,105,90,76],"timestamp_mouse":[10,31,45,65,86,104,125,146,164,186,205,225,245,266,284,305,325,344,366,385,405,425,445,466,485,506,525,545,565,585,605,626,645,665,685,705,726,745,765,786,806,826,845,864,885,906,925,945,964,984,1006,1026,1045,1065,1086,1105,1124,1145,1165],"xSR":741.5,"ySR":573.95,"xT1":424.9,"yT1":0,"xT2":1058.1,"yT2":0,"toosoon":0,"cond_shown":"randomdotsizeEA","ratio_trial":750,"smaller_num":"18","larger_num":"24","correct_side":1,"subjID":"AnaSofiaMatallanaSanchez24","gender":"1","age":"11","school":"6"},{"start_time":1551900752421,"click_time":1551900753344,"finger_time":1551900753045,"fix_duration":496.6274790365485,"trial":4,"RT":624,"MT":299,"sideResp":1,"stimulus":"img/500/randomdotsizeEA/L/4_Ratio_500_L_18_R_9.png","xmouse":[787,787,787,787,787,787,787,787,787,787,787,787,787,787,787,787,787,787,787,787,787,787,787,787,787,787,787,787,787,787,790,770,660,610,571,557,546,531,530,530,529,529,528,528,528,527,524],"ymouse":[617,617,617,617,617,617,617,617,617,617,617,617,617,617,617,617,617,617,617,617,617,617,617,617,617,617,617,617,617,618,596,490,300,219,167,143,124,97,87,78,72,70,70,70,70,67,62],"timestamp_mouse":[11,24,44,64,84,103,124,144,162,184,203,223,244,263,284,303,323,343,364,382,404,422,443,464,484,502,523,543,562,583,602,624,643,663,683,703,724,743,764,783,802,823,844,864,884,903,923],"xSR":741.5,"ySR":573.95,"xT1":424.9,"yT1":0,"xT2":1058.1,"yT2":0,"toosoon":0,"cond_shown":"randomdotsizeEA","ratio_trial":500,"smaller_num":"9","larger_num":"18","correct_side":1,"subjID":"AnaSofiaMatallanaSanchez24","gender":"1","age":"11","school":"6"},{"start_time":1551900754749,"click_time":1551900755704,"finger_time":1551900755404,"fix_duration":763.8309704586858,"trial":5,"RT":655,"MT":300,"sideResp":2,"stimulus":"img/250/equaldotsize/R/4_Ratio_250_L_3_R_12.png","xmouse":[798,798,798,798,798,798,798,798,798,798,798,798,798,798,798,798,798,798,798,798,798,798,798,798,798,798,799,800,802,803,805,832,874,911,936,965,977,986,999,1008,1026,1034,1042,1047,1050,1055,1060,1064],"ymouse":[638,638,638,638,638,638,638,638,638,638,638,638,638,638,638,638,638,638,638,638,638,638,638,638,638,638,635,631,628,627,624,587,484,393,336,271,242,216,194,175,144,135,125,120,115,109,102,95],"timestamp_mouse":[20,36,54,75,95,116,135,156,175,195,216,236,254,275,295,315,334,356,375,396,415,435,456,475,496,514,535,555,575,596,614,636,655,675,695,715,735,755,775,795,815,836,855,876,895,915,935,955],"xSR":741.5,"ySR":573.95,"xT1":424.9,"yT1":0,"xT2":1058.1,"yT2":0,"toosoon":0,"cond_shown":"equaldotsize","ratio_trial":250,"smaller_num":"3","larger_num":"12","correct_side":2,"subjID":"AnaSofiaMatallanaSanchez24","gender":"1","age":"11","school":"6"},{"start_time":1551900758647,"click_time":1551900759604,"finger_time":1551900759244,"fix_duration":882.6070416957056,"trial":6,"RT":597,"MT":360,"sideResp":1,"stimulus":"img/900/randomdotsizeEA/L/1_Ratio_900_L_10_R_9.png","xmouse":[790,790,790,790,790,790,790,790,790,790,790,790,790,790,790,790,790,790,790,790,790,787,781,778,776,776,776,776,774,770,723,693,668,641,617,583,578,561,553,547,541,540,539,537,533,524,520,513],"ymouse":[633,633,633,633,633,633,633,633,633,633,633,633,633,633,633,633,633,633,633,633,633,620,599,593,588,588,588,588,587,569,448,395,355,310,278,236,229,208,192,179,160,156,149,143,134,114,107,90],"timestamp_mouse":[31,37,57,77,97,118,138,158,177,198,216,238,258,278,296,317,338,358,378,397,417,437,457,477,498,518,537,557,577,597,616,637,658,678,697,717,738,757,777,797,816,837,857,877,898,917,937,957],"xSR":741.5,"ySR":573.95,"xT1":424.9,"yT1":0,"xT2":1058.1,"yT2":0,"toosoon":0,"cond_shown":"randomdotsizeEA","ratio_trial":900,"smaller_num":"9","larger_num":"10","correct_side":1,"subjID":"AnaSofiaMatallanaSanchez24","gender":"1","age":"11","school":"6"},{"start_time":1551900762108,"click_time":1551900763564,"finger_time":1551900762664,"fix_duration":503.00281255241885,"trial":7,"RT":556,"MT":900,"sideResp":1,"stimulus":"img/900/equaldotanddens/L/4_Ratio_900_L_20_R_18.png","xmouse":[803,803,803,803,803,803,803,803,803,803,803,803,803,803,803,803,803,803,803,803,803,803,803,803,803,804,811,828,838,841,842,842,837,836,836,836,836,836,833,825,816,809,786,734,674,607,551,504,404,383,373,371,371,371,371,371,371,373,381,390,399,407,412,417,417,417,417,418,418,420,421,424,432],"ymouse":[622,622,622,622,622,622,622,622,622,622,622,622,622,622,622,622,622,622,622,622,622,622,622,622,622,614,593,534,496,473,454,443,433,427,403,353,304,260,202,181,168,164,161,161,158,146,132,108,46,26,8,0,0,0,0,0,0,0,11,25,39,50,57,61,61,61,61,61,61,61,61,61,56],"timestamp_mouse":[17,38,56,76,95,116,137,157,177,195,217,237,257,276,297,317,337,356,377,397,417,436,456,477,497,516,536,556,576,597,616,637,656,676,696,717,735,755,775,796,815,837,855,876,896,917,936,955,976,997,1016,1037,1056,1076,1097,1117,1136,1155,1176,1196,1216,1236,1255,1276,1295,1315,1337,1356,1376,1397,1416,1437,1456],"xSR":741.5,"ySR":573.95,"xT1":424.9,"yT1":0,"xT2":1058.1,"yT2":0,"toosoon":0,"cond_shown":"equaldotanddens","ratio_trial":900,"smaller_num":"18","larger_num":"20","correct_side":1,"subjID":"AnaSofiaMatallanaSanchez24","gender":"1","age":"11","school":"6"},{"start_time":1551900765895,"click_time":1551900766864,"finger_time":1551900766484,"fix_duration":250,"trial":8,"RT":589,"MT":380,"sideResp":2,"stimulus":"img/900/randomdotsizeEA/R/12_Ratio_900_L_18_R_20.png","xmouse":[792,792,792,792,792,792,792,792,792,792,792,792,792,792,792,792,792,792,792,792,792,792,792,792,792,792,792,793,822,842,870,908,936,1003,1034,1066,1105,1148,1172,1172,1173,1173,1173,1173,1172,1169,1165,1160,1153],"ymouse":[637,637,637,637,637,637,637,637,637,637,637,637,637,637,637,637,637,637,637,637,637,637,637,637,637,637,637,635,611,593,569,537,511,437,391,338,283,223,141,120,104,94,88,79,75,73,73,71,71],"timestamp_mouse":[11,33,49,70,89,110,129,149,170,189,209,230,250,270,290,310,330,349,370,390,409,429,448,469,489,510,530,548,569,589,610,629,649,669,689,709,729,749,769,789,809,830,850,869,888,909,929,949,969],"xSR":741.5,"ySR":573.95,"xT1":424.9,"yT1":0,"xT2":1058.1,"yT2":0,"toosoon":0,"cond_shown":"randomdotsizeEA","ratio_trial":900,"smaller_num":"18","larger_num":"20","correct_side":2,"subjID":"AnaSofiaMatallanaSanchez24","gender":"1","age":"11","school":"6"},{"start_time":1551900768774,"click_time":1551900769484,"finger_time":1551900769404,"fix_duration":1268.284867230125,"trial":9,"RT":630,"MT":80,"sideResp":1,"stimulus":"img/750/randomdotsizeEA/R/15_Ratio_750_L_9_R_12.png","xmouse":[800,800,800,800,800,800,800,800,800,800,800,800,800,800,800,800,800,800,800,800,800,800,800,800,800,800,800,800,800,800,795,758,703,637,539,516],"ymouse":[631,631,631,631,631,631,631,631,631,631,631,631,631,631,631,631,631,631,631,631,631,631,631,631,631,631,631,631,631,631,628,505,376,268,101,44],"timestamp_mouse":[11,39,50,71,91,109,130,150,170,190,210,230,251,270,290,310,330,351,370,391,409,431,449,470,490,510,530,550,570,590,611,630,650,670,690,709],"xSR":741.5,"ySR":573.95,"xT1":424.9,"yT1":0,"xT2":1058.1,"yT2":0,"toosoon":0,"cond_shown":"randomdotsizeEA","ratio_trial":750,"smaller_num":"9","larger_num":"12","correct_side":2,"subjID":"AnaSofiaMatallanaSanchez24","gender":"1","age":"11","school":"6"},{"start_time":1551900770803,"click_time":1551900772124,"finger_time":1551900771564,"fix_duration":438.7987766711171,"trial":10,"RT":761,"MT":560,"sideResp":1,"stimulus":"img/750/equaldotsize/L/10_Ratio_750_L_4_R_3.png","xmouse":[795,795,795,795,795,795,795,795,795,795,795,795,795,795,795,795,795,795,795,795,795,795,795,795,795,795,795,795,795,795,795,795,795,795,795,794,791,781,733,684,627,605,586,558,548,542,538,532,530,528,528,528,528,528,528,528,528,528,528,528,528,528,528,528,527,525,517],"ymouse":[623,623,623,623,623,623,623,623,623,623,623,623,623,623,623,623,623,623,623,623,623,623,623,623,623,623,623,623,623,623,623,623,623,623,623,623,617,596,474,383,277,226,192,144,123,106,91,73,64,62,62,61,61,61,61,61,61,61,61,61,61,61,61,60,60,59,57],"timestamp_mouse":[8,21,40,61,81,101,122,142,161,182,202,221,242,262,282,302,321,342,361,381,402,421,441,462,482,501,521,541,561,582,602,621,642,661,681,702,721,741,761,782,801,822,840,860,881,901,920,941,961,981,1002,1021,1041,1062,1081,1101,1122,1140,1162,1182,1202,1221,1241,1260,1281,1302,1321],"xSR":741.5,"ySR":573.95,"xT1":424.9,"yT1":0,"xT2":1058.1,"yT2":0,"toosoon":0,"cond_shown":"equaldotsize","ratio_trial":750,"smaller_num":"3","larger_num":"4","correct_side":1,"subjID":"AnaSofiaMatallanaSanchez24","gender":"1","age":"11","school":"6"},{"start_time":1551900774280,"click_time":1551900775263,"finger_time":1551900774924,"fix_duration":1373.1922158969269,"trial":11,"RT":644,"MT":339,"sideResp":1,"stimulus":"img/900/randomdotsizeEA/R/13_Ratio_900_L_18_R_20.png","xmouse":[776,776,776,776,776,776,776,776,776,776,776,776,776,776,776,776,776,776,776,776,776,776,776,776,776,776,776,776,776,776,770,760,748,740,720,677,649,623,599,570,558,547,540,532,512,505,499,497,496,489],"ymouse":[623,623,623,623,623,623,623,623,623,623,623,623,623,623,623,623,623,623,623,623,623,623,623,623,623,623,623,623,623,623,603,576,552,531,488,407,357,320,290,239,217,201,188,173,143,132,116,108,100,74],"timestamp_mouse":[8,24,46,64,83,105,124,144,164,185,204,225,245,264,284,303,324,345,365,384,404,424,444,464,485,505,523,545,565,583,604,624,643,665,684,705,724,745,763,783,804,825,844,864,884,904,924,944,965,983],"xSR":741.5,"ySR":573.95,"xT1":424.9,"yT1":0,"xT2":1058.1,"yT2":0,"toosoon":0,"cond_shown":"randomdotsizeEA","ratio_trial":900,"smaller_num":"18","larger_num":"20","correct_side":2,"subjID":"AnaSofiaMatallanaSanchez24","gender":"1","age":"11","school":"6"},{"start_time":1551900776774,"click_time":1551900777745,"finger_time":1551900777384,"fix_duration":788.6340288807277,"trial":12,"RT":610,"MT":361,"sideResp":1,"stimulus":"img/250/equaldotsize/L/15_Ratio_250_L_12_R_3.png","xmouse":[785,785,785,785,785,785,785,785,785,785,785,785,785,785,785,785,785,785,785,785,785,785,785,785,785,785,785,785,781,774,764,753,734,700,646,629,610,597,585,571,564,557,552,548,541,540,536,531,524],"ymouse":[620,620,620,620,620,620,620,620,620,620,620,620,620,620,620,620,620,620,620,620,620,620,620,620,620,620,620,620,615,588,553,526,475,419,344,317,285,255,230,193,174,155,145,132,113,107,98,89,81],"timestamp_mouse":[11,33,49,70,91,109,130,151,170,190,210,229,250,270,290,309,330,350,370,390,410,429,450,470,490,510,530,550,569,589,609,630,649,669,689,710,730,750,769,790,810,829,851,870,890,910,931,950,971],"xSR":741.5,"ySR":573.95,"xT1":424.9,"yT1":0,"xT2":1058.1,"yT2":0,"toosoon":0,"cond_shown":"equaldotsize","ratio_trial":250,"smaller_num":"3","larger_num":"12","correct_side":1,"subjID":"AnaSofiaMatallanaSanchez24","gender":"1","age":"11","school":"6"},{"start_time":1551900779698,"click_time":1551900780524,"finger_time":1551900780364,"fix_duration":1173.9856558134288,"trial":13,"RT":666,"MT":160,"sideResp":1,"stimulus":"img/500/randomdotsizeEA/L/5_Ratio_500_L_4_R_2.png","xmouse":[776,776,776,776,776,776,776,776,776,776,776,776,776,776,776,776,776,776,776,776,776,776,776,776,776,776,776,776,776,776,776,776,776,776,775,771,760,732,637,591,551,520],"ymouse":[626,626,626,626,626,626,626,626,626,626,626,626,626,626,626,626,626,626,626,626,626,626,626,626,626,626,626,626,626,626,626,626,606,573,550,538,511,444,273,188,119,51],"timestamp_mouse":[10,34,45,66,87,107,127,146,166,186,207,227,247,267,286,307,326,346,366,387,407,427,447,467,487,507,526,547,566,586,607,625,647,666,686,706,726,746,766,785,806,826],"xSR":741.5,"ySR":573.95,"xT1":424.9,"yT1":0,"xT2":1058.1,"yT2":0,"toosoon":0,"cond_shown":"randomdotsizeEA","ratio_trial":500,"smaller_num":"2","larger_num":"4","correct_side":1,"subjID":"AnaSofiaMatallanaSanchez24","gender":"1","age":"11","school":"6"},{"start_time":1551900782029,"click_time":1551900782984,"finger_time":1551900782904,"fix_duration":623.1200950517116,"trial":14,"RT":875,"MT":80,"sideResp":2,"stimulus":"img/750/randomdotsizeEA/R/7_Ratio_750_L_3_R_4.png","xmouse":[794,794,794,794,794,794,794,794,794,794,794,794,794,794,794,794,794,794,794,794,794,794,794,794,794,794,794,794,794,794,794,794,794,794,794,794,794,794,794,794,799,801,818,846,900,962,1035,1059],"ymouse":[611,611,611,611,611,611,611,611,611,611,611,611,611,611,611,611,611,611,611,611,611,611,611,611,611,611,611,611,611,611,611,611,611,611,611,611,611,611,611,611,606,604,579,521,399,262,134,87],"timestamp_mouse":[15,36,56,75,94,116,135,155,176,195,214,236,255,276,296,314,336,356,375,395,416,436,455,474,496,516,536,555,575,596,615,635,656,675,696,716,734,756,775,795,816,835,856,875,895,915,936,955],"xSR":741.5,"ySR":573.95,"xT1":424.9,"yT1":0,"xT2":1058.1,"yT2":0,"toosoon":0,"cond_shown":"randomdotsizeEA","ratio_trial":750,"smaller_num":"3","larger_num":"4","correct_side":2,"subjID":"AnaSofiaMatallanaSanchez24","gender":"1","age":"11","school":"6"},{"start_time":1551900785152,"click_time":1551900786044,"finger_time":1551900785764,"fix_duration":1326.6347500685988,"trial":15,"RT":612,"MT":280,"sideResp":2,"stimulus":"img/750/randomdotsizeEA/R/7_Ratio_750_L_3_R_4.png","xmouse":[810,810,810,810,810,810,810,810,810,810,810,810,810,810,810,810,810,810,810,810,810,810,810,810,810,810,810,810,810,807,766,738,713,698,690,687,687,687,687,687,742,814,898,992,1074],"ymouse":[617,617,617,617,617,617,617,617,617,617,617,617,617,617,617,617,617,617,617,617,617,617,617,617,617,617,617,617,617,610,510,445,398,372,359,355,355,355,355,351,272,209,154,99,67],"timestamp_mouse":[13,32,52,72,92,112,133,153,172,192,213,231,251,272,292,312,333,351,372,392,412,432,452,472,493,512,533,552,572,592,612,631,652,673,692,712,732,752,772,792,811,831,852,873,892],"xSR":741.5,"ySR":573.95,"xT1":424.9,"yT1":0,"xT2":1058.1,"yT2":0,"toosoon":0,"cond_shown":"randomdotsizeEA","ratio_trial":750,"smaller_num":"3","larger_num":"4","correct_side":2,"subjID":"AnaSofiaMatallanaSanchez24","gender":"1","age":"11","school":"6"},{"start_time":1551900787310,"click_time":1551900788025,"finger_time":1551900787844,"fix_duration":644.4972570600504,"trial":16,"RT":534,"MT":181,"sideResp":2,"stimulus":"img/250/equaldotanddens/R/12_Ratio_250_L_5_R_20.png","xmouse":[794,794,794,794,794,794,794,794,794,794,794,794,794,794,794,794,794,794,794,794,794,794,794,794,794,797,809,849,894,937,971,1003,1065,1101,1115,1125],"ymouse":[596,596,596,596,596,596,596,596,596,596,596,596,596,596,596,596,596,596,596,596,596,596,596,596,596,590,566,470,398,335,299,262,176,128,104,84],"timestamp_mouse":[15,39,55,75,94,114,135,155,173,194,213,234,255,274,294,314,335,354,375,394,414,435,453,475,493,515,534,554,574,594,615,634,654,673,693,715],"xSR":741.5,"ySR":573.95,"xT1":424.9,"yT1":0,"xT2":1058.1,"yT2":0,"toosoon":0,"cond_shown":"equaldotanddens","ratio_trial":250,"smaller_num":"5","larger_num":"20","correct_side":2,"subjID":"AnaSofiaMatallanaSanchez24","gender":"1","age":"11","school":"6"},{"start_time":1551900790523,"click_time":1551900791549,"finger_time":1551900791008,"fix_duration":314.84324325869215,"trial":17,"RT":485,"MT":541,"sideResp":1,"stimulus":"img/250/equaldotanddens/L/15_Ratio_250_L_12_R_3.png","xmouse":[786,786,786,786,786,786,786,786,786,786,786,786,786,786,786,786,786,786,786,786,786,786,786,783,767,735,692,605,550,498,455,430,417,411,408,396,385,357,347,347,353,358,385,415,450,487,509,527,528,528,527,522],"ymouse":[632,632,632,632,632,632,632,632,632,632,632,632,632,632,632,632,632,632,632,632,632,632,632,612,506,370,247,87,25,0,0,0,0,0,0,10,24,76,114,131,142,144,154,156,156,144,131,114,108,103,97,93],"timestamp_mouse":[13,25,44,65,86,105,125,145,166,185,206,225,246,265,285,305,325,345,365,384,406,426,445,465,485,506,525,545,566,585,605,626,645,665,684,706,725,745,765,785,806,824,846,865,885,905,925,945,966,985,1006,1026],"xSR":741.5,"ySR":573.95,"xT1":424.9,"yT1":0,"xT2":1058.1,"yT2":0,"toosoon":0,"cond_shown":"equaldotanddens","ratio_trial":250,"smaller_num":"3","larger_num":"12","correct_side":1,"subjID":"AnaSofiaMatallanaSanchez24","gender":"1","age":"11","school":"6"},{"start_time":1551900794120,"click_time":1551900794967,"finger_time":1551900794808,"fix_duration":250,"trial":18,"RT":688,"MT":159,"sideResp":1,"stimulus":"img/500/randomdotsizeEA/L/5_Ratio_500_L_4_R_2.png","xmouse":[791,791,791,791,791,791,791,791,791,791,791,791,791,791,791,791,791,791,791,791,791,791,791,790,788,788,788,788,787,787,787,787,783,772,745,720,690,596,556,522,500,480,459],"ymouse":[622,622,622,622,622,622,622,622,622,622,622,622,622,622,622,622,622,622,622,622,622,622,622,621,618,617,617,616,616,616,616,616,600,577,526,485,430,282,231,193,162,136,97],"timestamp_mouse":[9,33,49,69,88,107,128,149,167,189,208,228,248,269,288,308,329,349,369,389,408,429,449,469,488,507,528,549,569,587,608,627,647,668,688,707,728,747,767,788,808,829,847],"xSR":741.5,"ySR":573.95,"xT1":424.9,"yT1":0,"xT2":1058.1,"yT2":0,"toosoon":0,"cond_shown":"randomdotsizeEA","ratio_trial":500,"smaller_num":"2","larger_num":"4","correct_side":1,"subjID":"AnaSofiaMatallanaSanchez24","gender":"1","age":"11","school":"6"},{"start_time":1551900796635,"click_time":1551900797789,"finger_time":1551900797608,"fix_duration":826.4997294495455,"trial":19,"RT":973,"MT":181,"sideResp":1,"stimulus":"img/750/equaldotanddens/L/14_Ratio_750_L_8_R_6.png","xmouse":[786,786,786,786,786,786,786,786,786,786,786,786,786,786,786,786,786,786,786,786,786,786,786,786,786,786,786,786,786,786,786,786,786,786,786,786,786,786,786,786,786,786,786,786,786,786,782,772,752,725,683,598,572,553,537,523,503,496],"ymouse":[622,622,622,622,622,622,622,622,622,622,622,622,622,622,622,622,622,622,622,622,622,622,622,622,622,622,622,622,622,622,622,622,622,622,622,622,622,622,622,622,622,622,622,622,622,622,610,579,530,458,371,241,205,175,154,135,106,95],"timestamp_mouse":[16,38,53,73,94,112,133,154,172,193,213,232,252,272,294,314,333,353,373,394,413,434,453,474,493,514,534,554,574,593,613,634,654,673,694,713,734,754,773,793,814,832,853,873,893,914,933,954,972,994,1013,1032,1052,1072,1094,1113,1133,1154],"xSR":741.5,"ySR":573.95,"xT1":424.9,"yT1":0,"xT2":1058.1,"yT2":0,"toosoon":0,"cond_shown":"equaldotanddens","ratio_trial":750,"smaller_num":"6","larger_num":"8","correct_side":1,"subjID":"AnaSofiaMatallanaSanchez24","gender":"1","age":"11","school":"6"},{"start_time":1551900798977,"click_time":1551900799948,"finger_time":1551900799648,"fix_duration":686.9491139180568,"trial":20,"RT":671,"MT":300,"sideResp":1,"stimulus":"img/750/equaldotanddens/L/14_Ratio_750_L_8_R_6.png","xmouse":[771,771,771,771,771,771,771,771,771,771,771,771,771,771,771,771,771,771,771,771,771,771,771,771,771,771,771,771,771,771,771,768,762,756,735,716,701,681,661,617,589,581,571,563,549,543,537,530,518],"ymouse":[622,622,622,622,622,622,622,622,622,622,622,622,622,622,622,622,622,622,622,622,622,622,622,622,622,622,622,622,622,622,622,608,587,567,485,444,407,363,315,227,163,137,112,91,58,47,40,33,25],"timestamp_mouse":[17,31,58,71,91,112,130,151,172,191,212,231,250,271,291,312,330,351,371,392,411,432,451,470,492,511,532,550,571,591,611,630,652,671,691,710,731,751,771,790,811,830,851,871,891,910,931,951,970],"xSR":741.5,"ySR":573.95,"xT1":424.9,"yT1":0,"xT2":1058.1,"yT2":0,"toosoon":0,"cond_shown":"equaldotanddens","ratio_trial":750,"smaller_num":"6","larger_num":"8","correct_side":1,"subjID":"AnaSofiaMatallanaSanchez24","gender":"1","age":"11","school":"6"},{"start_time":1551900801335,"click_time":1551900802448,"finger_time":1551900802147,"fix_duration":666.16103717317,"trial":21,"RT":812,"MT":301,"sideResp":2,"stimulus":"img/900/randomdotsizeEA/L/2_Ratio_900_L_20_R_18.png","xmouse":[788,788,788,788,788,788,788,788,788,788,788,788,788,788,788,788,788,788,788,788,788,788,788,788,788,788,788,788,788,788,788,788,788,788,788,788,788,788,796,821,845,888,910,933,960,973,1009,1032,1053,1070,1085,1117,1123,1124,1126,1126],"ymouse":[618,618,618,618,618,618,618,618,618,618,618,618,618,618,618,618,618,618,618,618,618,618,618,618,618,618,618,618,618,618,618,618,618,618,618,618,618,618,617,596,577,533,500,465,415,387,314,267,235,209,187,142,124,115,100,97],"timestamp_mouse":[13,39,53,73,94,113,133,154,174,192,213,233,253,274,292,314,333,353,373,393,412,433,452,473,494,512,534,554,573,593,613,632,653,673,693,713,733,752,773,793,812,833,853,873,894,913,933,952,972,993,1014,1033,1054,1073,1092,1112],"xSR":741.5,"ySR":573.95,"xT1":424.9,"yT1":0,"xT2":1058.1,"yT2":0,"toosoon":0,"cond_shown":"randomdotsizeEA","ratio_trial":900,"smaller_num":"18","larger_num":"20","correct_side":1,"subjID":"AnaSofiaMatallanaSanchez24","gender":"1","age":"11","school":"6"},{"start_time":1551900803991,"click_time":1551900804749,"finger_time":1551900804588,"fix_duration":821.5626837196154,"trial":22,"RT":597,"MT":161,"sideResp":1,"stimulus":"img/250/randomdotsizeEA/L/14_Ratio_250_L_12_R_3.png","xmouse":[784,784,784,784,784,784,784,784,784,784,784,784,784,784,784,784,784,784,784,784,784,784,784,784,784,784,784,782,774,758,704,659,621,573,555,538,527,519],"ymouse":[628,628,628,628,628,628,628,628,628,628,628,628,628,628,628,628,628,628,628,628,628,628,628,628,628,628,628,625,593,541,428,351,294,214,176,135,111,95],"timestamp_mouse":[17,39,57,77,97,117,138,157,177,197,217,238,257,278,298,317,337,356,378,398,418,438,457,478,498,517,537,556,576,597,616,637,657,677,696,717,736,758],"xSR":741.5,"ySR":573.95,"xT1":424.9,"yT1":0,"xT2":1058.1,"yT2":0,"toosoon":0,"cond_shown":"randomdotsizeEA","ratio_trial":250,"smaller_num":"3","larger_num":"12","correct_side":1,"subjID":"AnaSofiaMatallanaSanchez24","gender":"1","age":"11","school":"6"},{"start_time":1551900806926,"click_time":1551900807948,"finger_time":1551900807647,"fix_duration":1437.5320734580257,"trial":23,"RT":721,"MT":301,"sideResp":2,"stimulus":"img/900/equaldotanddens/R/13_Ratio_900_L_18_R_20.png","xmouse":[793,793,793,793,793,793,793,793,793,793,793,793,793,793,793,793,793,793,793,793,793,793,793,793,793,793,793,793,793,793,793,793,793,793,793,812,848,942,980,1016,1051,1075,1088,1090,1091,1091,1091,1090,1089,1088,1088,1088],"ymouse":[620,620,620,620,620,620,620,620,620,620,620,620,620,620,620,620,620,620,620,620,620,620,620,620,620,620,620,620,620,620,620,620,620,620,616,586,527,417,371,324,277,237,199,189,178,169,160,131,118,108,103,99],"timestamp_mouse":[15,22,42,63,83,102,123,143,161,182,202,222,243,262,282,302,322,342,362,383,403,421,443,463,482,502,522,543,563,581,601,622,643,663,681,703,721,742,762,782,802,822,842,862,881,903,922,941,962,982,1002,1022],"xSR":741.5,"ySR":573.95,"xT1":424.9,"yT1":0,"xT2":1058.1,"yT2":0,"toosoon":0,"cond_shown":"equaldotanddens","ratio_trial":900,"smaller_num":"18","larger_num":"20","correct_side":2,"subjID":"AnaSofiaMatallanaSanchez24","gender":"1","age":"11","school":"6"},{"start_time":1551900809384,"click_time":1551900810128,"finger_time":1551900809868,"fix_duration":714.6298889457746,"trial":24,"RT":484,"MT":260,"sideResp":1,"stimulus":"img/500/equaldotsize/L/13_Ratio_500_L_12_R_6.png","xmouse":[790,790,790,790,790,790,790,790,790,790,790,790,790,790,790,790,790,790,790,790,790,790,790,789,700,636,600,572,548,519,509,503,501,500,500,499,497,492],"ymouse":[612,612,612,612,612,612,612,612,612,612,612,612,612,612,612,612,612,612,612,612,612,612,612,605,493,425,368,316,269,199,178,165,155,144,131,120,103,85],"timestamp_mouse":[10,32,44,64,85,105,124,144,164,185,204,225,244,263,285,304,323,345,364,384,405,423,444,464,484,503,524,544,564,583,603,624,644,664,684,703,723,744],"xSR":741.5,"ySR":573.95,"xT1":424.9,"yT1":0,"xT2":1058.1,"yT2":0,"toosoon":0,"cond_shown":"equaldotsize","ratio_trial":500,"smaller_num":"6","larger_num":"12","correct_side":1,"subjID":"AnaSofiaMatallanaSanchez24","gender":"1","age":"11","school":"6"},{"start_time":1551900811288,"click_time":1551900812128,"finger_time":1551900811967,"fix_duration":418.63628557488164,"trial":25,"RT":679,"MT":161,"sideResp":1,"stimulus":"img/750/equaldotanddens/L/13_Ratio_750_L_8_R_6.png","xmouse":[789,789,789,789,789,789,789,789,789,789,789,789,789,789,789,789,789,789,789,789,789,789,789,789,789,789,789,789,789,789,789,789,789,785,763,742,704,682,652,588,556,524,497],"ymouse":[614,614,614,614,614,614,614,614,614,614,614,614,614,614,614,614,614,614,614,614,614,614,614,614,614,614,614,614,614,614,614,614,614,600,553,509,436,396,343,222,166,120,81],"timestamp_mouse":[1,33,40,61,81,101,121,140,159,180,200,221,240,261,281,301,320,340,359,379,401,419,439,460,480,500,520,539,560,581,599,621,640,660,679,700,720,739,760,779,799,820,840],"xSR":741.5,"ySR":573.95,"xT1":424.9,"yT1":0,"xT2":1058.1,"yT2":0,"toosoon":0,"cond_shown":"equaldotanddens","ratio_trial":750,"smaller_num":"6","larger_num":"8","correct_side":1,"subjID":"AnaSofiaMatallanaSanchez24","gender":"1","age":"11","school":"6"},{"start_time":1551900814617,"click_time":1551900815207,"finger_time":1551900815108,"fix_duration":388.32702803363475,"trial":26,"RT":491,"MT":99,"sideResp":1,"stimulus":"img/250/equaldotsize/L/2_Ratio_250_L_16_R_4.png","xmouse":[803,803,803,803,803,803,803,803,803,803,803,803,803,803,803,803,803,803,803,803,803,803,803,791,751,693,637,564,515,492],"ymouse":[630,630,630,630,630,630,630,630,630,630,630,630,630,630,630,630,630,630,630,630,630,630,629,576,469,355,266,165,100,71],"timestamp_mouse":[11,31,51,70,92,112,132,151,171,191,212,232,252,272,291,311,331,352,370,390,412,431,451,471,491,510,531,551,571,590],"xSR":741.5,"ySR":573.95,"xT1":424.9,"yT1":0,"xT2":1058.1,"yT2":0,"toosoon":0,"cond_shown":"equaldotsize","ratio_trial":250,"smaller_num":"4","larger_num":"16","correct_side":1,"subjID":"AnaSofiaMatallanaSanchez24","gender":"1","age":"11","school":"6"},{"start_time":1551900816491,"click_time":1551900817308,"finger_time":1551900817087,"fix_duration":421.59375084116647,"trial":27,"RT":596,"MT":221,"sideResp":2,"stimulus":"img/750/randomdotsizeEA/L/1_Ratio_750_L_20_R_15.png","xmouse":[785,785,785,785,785,785,785,785,785,785,785,785,785,785,785,785,785,785,785,785,785,785,785,785,785,785,786,792,819,844,884,920,955,981,1022,1046,1055,1060,1071,1078,1088],"ymouse":[633,633,633,633,633,633,633,633,633,633,633,633,633,633,633,633,633,633,633,633,633,633,633,633,633,633,632,627,589,542,472,406,345,302,231,178,157,141,114,101,88],"timestamp_mouse":[29,37,56,77,97,117,137,158,177,196,216,238,258,277,297,317,338,356,377,396,418,438,456,477,498,517,537,557,576,596,617,637,657,676,697,716,737,757,777,797,817],"xSR":741.5,"ySR":573.95,"xT1":424.9,"yT1":0,"xT2":1058.1,"yT2":0,"toosoon":0,"cond_shown":"randomdotsizeEA","ratio_trial":750,"smaller_num":"15","larger_num":"20","correct_side":1,"subjID":"AnaSofiaMatallanaSanchez24","gender":"1","age":"11","school":"6"},{"start_time":1551900819403,"click_time":1551900820148,"finger_time":1551900819988,"fix_duration":1373.720157736831,"trial":28,"RT":585,"MT":160,"sideResp":2,"stimulus":"img/900/equaldotsize/R/14_Ratio_900_L_18_R_20.png","xmouse":[787,787,787,787,787,787,787,787,787,787,787,787,787,787,787,787,787,787,787,787,787,787,787,787,787,787,787,787,802,816,867,904,951,1054,1090,1112,1122,1130],"ymouse":[614,614,614,614,614,614,614,614,614,614,614,614,614,614,614,614,614,614,614,614,614,614,614,614,614,614,614,614,589,564,472,398,320,188,151,126,108,91],"timestamp_mouse":[10,32,45,65,86,105,124,145,166,186,205,225,246,265,286,305,325,345,364,385,405,425,446,465,484,506,526,546,565,585,605,626,645,665,684,704,724,745],"xSR":741.5,"ySR":573.95,"xT1":424.9,"yT1":0,"xT2":1058.1,"yT2":0,"toosoon":0,"cond_shown":"equaldotsize","ratio_trial":900,"smaller_num":"18","larger_num":"20","correct_side":2,"subjID":"AnaSofiaMatallanaSanchez24","gender":"1","age":"11","school":"6"},{"start_time":1551900821114,"click_time":1551900821968,"finger_time":1551900821628,"fix_duration":285.80360669640805,"trial":29,"RT":514,"MT":340,"sideResp":1,"stimulus":"img/900/randomdotsizeEA/R/9_Ratio_900_L_18_R_20.png","xmouse":[795,795,795,795,795,795,795,795,795,795,795,795,795,795,795,795,795,795,795,795,795,793,790,786,771,759,749,723,697,664,636,605,567,554,536,527,520,510,509,509,509,504,452],"ymouse":[610,610,610,610,610,610,610,610,610,610,610,610,610,610,610,610,610,610,610,610,610,603,598,592,580,569,557,505,438,370,312,266,212,188,164,154,147,137,137,137,136,127,68],"timestamp_mouse":[14,46,55,74,94,115,134,154,175,194,213,233,255,273,295,314,333,355,375,394,413,434,454,475,493,514,534,554,574,594,614,635,653,674,693,715,734,754,774,793,814,834,854],"xSR":741.5,"ySR":573.95,"xT1":424.9,"yT1":0,"xT2":1058.1,"yT2":0,"toosoon":0,"cond_shown":"randomdotsizeEA","ratio_trial":900,"smaller_num":"18","larger_num":"20","correct_side":2,"subjID":"AnaSofiaMatallanaSanchez24","gender":"1","age":"11","school":"6"},{"start_time":1551900824131,"click_time":1551900825409,"finger_time":1551900824848,"fix_duration":1439.95145297682,"trial":30,"RT":717,"MT":561,"sideResp":2,"stimulus":"img/750/equaldotsize/R/15_Ratio_750_L_9_R_12.png","xmouse":[775,775,775,775,775,775,775,775,775,775,775,775,775,775,775,775,775,775,775,775,775,775,775,775,775,775,775,775,775,775,775,776,776,777,780,785,805,818,830,840,847,860,866,869,870,872,872,872,872,872,872,872,872,872,872,872,872,872,878,891,908,971,1054,1088],"ymouse":[641,641,641,641,641,641,641,641,641,641,641,641,641,641,641,641,641,641,641,641,641,641,641,641,641,641,641,641,641,641,641,639,633,613,594,565,489,457,429,407,393,364,349,342,339,336,335,335,335,335,335,335,335,335,335,335,335,335,328,314,293,204,85,14],"timestamp_mouse":[18,37,58,77,97,117,137,158,177,197,217,236,257,276,296,317,337,358,377,397,418,438,458,477,498,517,537,557,578,597,617,636,657,676,697,717,737,757,777,797,817,836,858,877,897,917,937,958,977,996,1017,1037,1057,1077,1098,1118,1137,1156,1177,1197,1217,1236,1258,1278],"xSR":741.5,"ySR":573.95,"xT1":424.9,"yT1":0,"xT2":1058.1,"yT2":0,"toosoon":0,"cond_shown":"equaldotsize","ratio_trial":750,"smaller_num":"9","larger_num":"12","correct_side":2,"subjID":"AnaSofiaMatallanaSanchez24","gender":"1","age":"11","school":"6"},{"start_time":1551900827113,"click_time":1551900828068,"finger_time":1551900827768,"fix_duration":1103.0935896088163,"trial":31,"RT":655,"MT":300,"sideResp":1,"stimulus":"img/900/randomdotsizeEA/L/10_Ratio_900_L_20_R_18.png","xmouse":[770,770,770,770,770,770,770,770,770,770,770,770,770,770,770,770,770,770,770,770,770,770,770,769,764,760,760,760,760,760,760,760,755,735,683,643,610,576,558,554,551,551,551,551,549,546,535,520],"ymouse":[635,635,635,635,635,635,635,635,635,635,635,635,635,635,635,635,635,635,635,635,635,635,635,636,637,637,637,637,637,637,632,619,505,426,271,172,91,12,0,0,0,0,0,0,0,7,21,37],"timestamp_mouse":[14,51,56,76,95,114,136,155,176,194,215,235,256,276,296,315,335,356,376,396,416,435,455,475,494,516,536,555,575,596,614,634,655,676,694,715,735,755,775,796,815,836,855,875,895,915,935,955],"xSR":741.5,"ySR":573.95,"xT1":424.9,"yT1":0,"xT2":1058.1,"yT2":0,"toosoon":0,"cond_shown":"randomdotsizeEA","ratio_trial":900,"smaller_num":"18","larger_num":"20","correct_side":1,"subjID":"AnaSofiaMatallanaSanchez24","gender":"1","age":"11","school":"6"},{"start_time":1551900830711,"click_time":1551900831568,"finger_time":1551900831268,"fix_duration":421.9937243658235,"trial":32,"RT":557,"MT":300,"sideResp":1,"stimulus":"img/500/equaldotsize/L/5_Ratio_500_L_4_R_2.png","xmouse":[782,782,782,782,782,782,782,782,782,782,782,782,782,782,782,782,782,782,782,782,782,782,782,782,782,782,780,772,761,729,691,657,608,592,573,559,545,532,529,528,527,524,505],"ymouse":[614,614,614,614,614,614,614,614,614,614,614,614,614,614,614,614,614,614,614,614,614,614,614,614,614,614,598,557,499,421,348,303,237,210,187,167,149,130,124,122,114,100,63],"timestamp_mouse":[20,36,57,77,96,118,136,158,178,198,218,238,257,277,298,318,337,357,378,398,417,438,457,477,498,518,536,557,576,598,617,637,657,677,696,716,737,757,778,797,817,836,857],"xSR":741.5,"ySR":573.95,"xT1":424.9,"yT1":0,"xT2":1058.1,"yT2":0,"toosoon":0,"cond_shown":"equaldotsize","ratio_trial":500,"smaller_num":"2","larger_num":"4","correct_side":1,"subjID":"AnaSofiaMatallanaSanchez24","gender":"1","age":"11","school":"6"},{"start_time":1551900832940,"click_time":1551900834129,"finger_time":1551900833629,"fix_duration":591.1671236104801,"trial":33,"RT":689,"MT":500,"sideResp":2,"stimulus":"img/750/equaldotsize/R/12_Ratio_750_L_3_R_4.png","xmouse":[786,786,786,785,785,785,785,785,785,785,785,785,785,785,785,785,785,785,785,785,785,785,785,785,785,785,785,785,785,785,785,785,796,819,837,854,886,905,935,960,982,1005,1010,1012,1014,1015,1017,1020,1028,1036,1045,1050,1050,1050,1051,1051,1052,1054,1058,1063],"ymouse":[618,618,618,618,618,618,619,620,620,620,621,621,621,621,621,621,621,621,621,621,621,621,621,621,621,621,621,621,621,621,621,620,608,581,559,539,497,464,399,330,261,183,164,146,135,125,93,70,45,27,19,17,17,17,17,25,41,46,52,56],"timestamp_mouse":[9,43,48,69,87,108,127,148,168,187,208,228,248,268,287,309,328,349,369,388,408,428,448,468,487,509,529,547,569,588,608,627,648,667,689,708,727,747,769,788,809,827,848,867,888,908,928,947,968,988,1008,1028,1049,1068,1088,1108,1128,1148,1168,1189],"xSR":741.5,"ySR":573.95,"xT1":424.9,"yT1":0,"xT2":1058.1,"yT2":0,"toosoon":0,"cond_shown":"equaldotsize","ratio_trial":750,"smaller_num":"3","larger_num":"4","correct_side":2,"subjID":"AnaSofiaMatallanaSanchez24","gender":"1","age":"11","school":"6"},{"start_time":1551900835453,"click_time":1551900836469,"finger_time":1551900835988,"fix_duration":484.5570612192822,"trial":34,"RT":535,"MT":481,"sideResp":1,"stimulus":"img/250/equaldotsize/L/7_Ratio_250_L_8_R_2.png","xmouse":[775,775,775,775,775,775,775,775,775,775,775,775,775,775,775,775,775,775,775,775,775,775,775,775,773,765,724,689,658,637,612,607,604,604,604,600,596,590,587,584,577,573,568,564,560,554,548,537,534,528,518],"ymouse":[622,622,622,622,622,622,622,622,622,622,622,622,622,622,622,622,622,622,622,622,622,622,622,622,622,589,468,392,334,297,250,236,228,222,214,189,172,146,134,125,107,99,93,88,85,82,82,78,78,77,72],"timestamp_mouse":[19,36,55,76,95,114,134,155,175,194,214,235,255,274,295,315,334,356,376,394,415,435,456,475,495,515,535,555,575,595,615,635,655,675,696,714,734,755,774,795,814,834,855,875,896,914,936,954,975,995,1016],"xSR":741.5,"ySR":573.95,"xT1":424.9,"yT1":0,"xT2":1058.1,"yT2":0,"toosoon":0,"cond_shown":"equaldotsize","ratio_trial":250,"smaller_num":"2","larger_num":"8","correct_side":1,"subjID":"AnaSofiaMatallanaSanchez24","gender":"1","age":"11","school":"6"},{"start_time":1551900837639,"click_time":1551900838668,"finger_time":1551900838268,"fix_duration":429.16569072379264,"trial":35,"RT":629,"MT":400,"sideResp":1,"stimulus":"img/250/equaldotsize/L/2_Ratio_250_L_16_R_4.png","xmouse":[789,789,789,789,789,789,789,789,789,789,789,789,789,789,789,789,789,789,789,789,789,789,789,789,789,789,789,789,789,789,783,763,750,740,735,732,725,720,717,712,708,697,686,673,661,645,606,586,551,520,486,426],"ymouse":[597,597,597,597,597,597,597,597,597,597,597,597,597,597,597,597,597,597,597,597,597,597,597,597,597,597,597,597,597,593,582,530,501,479,466,459,439,416,403,388,374,343,322,301,277,251,199,177,147,126,107,72],"timestamp_mouse":[10,33,49,69,90,110,129,149,170,190,210,229,250,270,289,310,329,350,369,389,409,429,450,470,488,510,529,550,568,589,609,629,649,669,688,710,728,749,769,790,809,828,850,869,889,909,928,949,968,990,1008,1029],"xSR":741.5,"ySR":573.95,"xT1":424.9,"yT1":0,"xT2":1058.1,"yT2":0,"toosoon":0,"cond_shown":"equaldotsize","ratio_trial":250,"smaller_num":"4","larger_num":"16","correct_side":1,"subjID":"AnaSofiaMatallanaSanchez24","gender":"1","age":"11","school":"6"},{"start_time":1551900841476,"click_time":1551900842309,"finger_time":1551900841868,"fix_duration":726.0267142116018,"trial":36,"RT":392,"MT":441,"sideResp":1,"stimulus":"img/250/equaldotanddens/L/15_Ratio_250_L_12_R_3.png","xmouse":[841,841,841,841,841,841,841,841,841,841,841,841,841,841,841,841,841,841,833,789,743,686,623,555,414,315,272,253,249,258,263,267,271,275,288,306,328,356,384,416,423,427],"ymouse":[622,622,622,622,622,622,622,622,622,622,622,622,622,622,622,622,622,620,603,536,487,435,388,340,246,177,136,105,82,45,38,34,30,28,26,26,32,42,51,60,61,61],"timestamp_mouse":[12,39,52,72,92,112,131,153,172,192,212,233,253,271,293,313,332,352,372,392,411,432,452,472,492,512,532,553,572,592,611,632,652,673,692,713,731,751,771,792,811,833],"xSR":741.5,"ySR":573.95,"xT1":424.9,"yT1":0,"xT2":1058.1,"yT2":0,"toosoon":0,"cond_shown":"equaldotanddens","ratio_trial":250,"smaller_num":"3","larger_num":"12","correct_side":1,"subjID":"AnaSofiaMatallanaSanchez24","gender":"1","age":"11","school":"6"},{"start_time":1551900844237,"click_time":1551900845348,"finger_time":1551900845148,"fix_duration":1068.5030810716958,"trial":37,"RT":911,"MT":200,"sideResp":2,"stimulus":"img/500/randomdotsizeEA/R/1_Ratio_500_L_9_R_18.png","xmouse":[791,791,791,791,791,791,791,791,791,791,791,791,791,791,791,791,791,791,791,791,791,791,791,791,791,791,791,791,791,791,791,791,791,791,791,791,791,791,791,791,791,791,791,805,827,894,977,991,1007,1015,1021,1032,1039,1049,1058,1069],"ymouse":[626,626,626,626,626,626,626,626,626,626,626,626,626,626,626,626,626,626,626,626,626,626,626,626,626,626,626,626,626,626,626,626,626,626,626,626,626,626,626,626,626,626,626,614,597,537,398,334,262,227,186,94,67,49,36,23],"timestamp_mouse":[12,36,51,72,91,112,131,152,171,191,210,231,250,272,291,311,331,351,370,392,411,430,451,472,490,511,531,551,570,591,611,631,652,671,691,712,730,751,770,791,810,832,850,871,891,911,931,951,970,990,1011,1030,1052,1071,1091,1111],"xSR":741.5,"ySR":573.95,"xT1":424.9,"yT1":0,"xT2":1058.1,"yT2":0,"toosoon":0,"cond_shown":"randomdotsizeEA","ratio_trial":500,"smaller_num":"9","larger_num":"18","correct_side":2,"subjID":"AnaSofiaMatallanaSanchez24","gender":"1","age":"11","school":"6"},{"start_time":1551900848202,"click_time":1551900848907,"finger_time":1551900848809,"fix_duration":732.8876117352515,"trial":38,"RT":607,"MT":98,"sideResp":2,"stimulus":"img/500/randomdotsizeEA/R/1_Ratio_500_L_9_R_18.png","xmouse":[786,786,786,786,786,786,786,786,786,786,786,786,786,786,786,786,786,786,786,786,786,786,786,786,786,786,786,786,794,814,851,905,957,1047,1080,1098],"ymouse":[605,605,605,605,605,605,605,605,605,605,605,605,605,605,605,605,605,605,605,605,605,605,605,605,605,605,605,605,603,579,530,451,370,218,145,82],"timestamp_mouse":[5,26,45,65,86,105,125,145,165,186,207,226,246,267,285,306,326,346,367,386,406,426,446,467,487,506,527,546,566,587,607,626,646,666,686,705],"xSR":741.5,"ySR":573.95,"xT1":424.9,"yT1":0,"xT2":1058.1,"yT2":0,"toosoon":0,"cond_shown":"randomdotsizeEA","ratio_trial":500,"smaller_num":"9","larger_num":"18","correct_side":2,"subjID":"AnaSofiaMatallanaSanchez24","gender":"1","age":"11","school":"6"},{"start_time":1551900850020,"click_time":1551900850989,"finger_time":1551900850869,"fix_duration":250,"trial":39,"RT":849,"MT":120,"sideResp":2,"stimulus":"img/750/equaldotsize/R/12_Ratio_750_L_3_R_4.png","xmouse":[811,811,807,807,805,805,805,805,805,805,805,805,805,805,805,805,805,805,805,805,805,805,805,805,805,805,805,805,805,805,805,805,805,805,805,805,805,805,805,805,805,811,863,892,923,963,1007,1079,1099],"ymouse":[625,625,625,625,624,624,624,624,624,624,624,624,624,624,624,624,624,624,624,624,624,624,624,624,624,624,624,624,624,624,624,624,624,624,624,624,624,624,624,624,618,606,510,459,408,341,269,136,85],"timestamp_mouse":[11,33,49,69,90,111,131,150,169,190,210,229,249,269,289,310,329,349,370,391,410,429,449,469,489,510,530,549,569,589,609,629,649,670,690,709,729,750,769,790,810,830,849,869,889,909,929,949,969],"xSR":741.5,"ySR":573.95,"xT1":424.9,"yT1":0,"xT2":1058.1,"yT2":0,"toosoon":0,"cond_shown":"equaldotsize","ratio_trial":750,"smaller_num":"3","larger_num":"4","correct_side":2,"subjID":"AnaSofiaMatallanaSanchez24","gender":"1","age":"11","school":"6"},{"start_time":1551900851941,"click_time":1551900852690,"finger_time":1551900852529,"fix_duration":250,"trial":40,"RT":588,"MT":161,"sideResp":1,"stimulus":"img/500/equaldotanddens/L/11_Ratio_500_L_12_R_6.png","xmouse":[791,791,791,791,791,791,791,791,791,791,791,791,791,791,791,791,791,791,791,791,791,791,791,791,791,791,791,791,791,788,774,711,628,563,510,477,442,435],"ymouse":[615,615,615,615,615,615,615,615,615,615,615,615,615,615,615,615,615,615,615,615,615,615,615,615,615,615,615,614,603,558,494,353,279,236,193,159,101,76],"timestamp_mouse":[9,28,49,68,88,109,128,148,168,188,208,228,249,268,290,309,328,349,368,389,408,428,448,468,489,508,528,548,569,588,609,628,648,668,688,708,728,749],"xSR":741.5,"ySR":573.95,"xT1":424.9,"yT1":0,"xT2":1058.1,"yT2":0,"toosoon":0,"cond_shown":"equaldotanddens","ratio_trial":500,"smaller_num":"6","larger_num":"12","correct_side":1,"subjID":"AnaSofiaMatallanaSanchez24","gender":"1","age":"11","school":"6"},{"start_time":1551900854281,"click_time":1551900855810,"finger_time":1551900854949,"fix_duration":991.4321919337888,"trial":41,"RT":668,"MT":861,"sideResp":1,"stimulus":"img/750/equaldotsize/L/14_Ratio_750_L_8_R_6.png","xmouse":[767,767,767,767,767,767,767,767,767,767,767,767,767,767,767,767,767,767,767,767,767,767,767,767,767,767,767,767,770,773,794,802,812,824,860,893,928,942,976,1012,1024,1030,1032,1032,1032,1032,1032,1032,1032,1032,1032,1032,1032,1032,1032,1032,1032,1029,1026,1005,972,910,842,774,687,671,660,655,650,638,621,599,579,567,548,531,512],"ymouse":[628,628,628,628,628,628,628,628,628,628,628,628,628,628,628,628,628,628,628,628,628,628,628,628,628,628,628,628,626,624,604,592,575,556,500,451,392,370,307,238,218,206,200,200,200,200,200,200,200,200,200,200,200,200,200,200,200,200,200,200,195,178,159,138,109,101,93,91,89,87,85,82,78,78,78,78,78],"timestamp_mouse":[12,28,48,68,88,108,128,148,168,189,209,229,249,268,289,308,328,349,368,388,408,428,448,469,490,508,529,549,569,591,610,629,648,668,688,708,728,749,768,788,808,829,848,868,888,908,928,948,969,988,1009,1029,1048,1068,1088,1108,1128,1148,1168,1188,1209,1228,1248,1269,1288,1308,1329,1349,1369,1389,1408,1428,1448,1468,1488,1509,1529],"xSR":741.5,"ySR":573.95,"xT1":424.9,"yT1":0,"xT2":1058.1,"yT2":0,"toosoon":0,"cond_shown":"equaldotsize","ratio_trial":750,"smaller_num":"6","larger_num":"8","correct_side":1,"subjID":"AnaSofiaMatallanaSanchez24","gender":"1","age":"11","school":"6"},{"start_time":1551900857600,"click_time":1551900858469,"finger_time":1551900858229,"fix_duration":1023.6709976550352,"trial":42,"RT":629,"MT":240,"sideResp":2,"stimulus":"img/500/equaldotsize/R/12_Ratio_500_L_1_R_2.png","xmouse":[791,791,791,791,791,791,791,791,791,791,791,791,791,791,791,791,791,791,791,791,791,791,791,791,791,791,791,791,791,791,793,811,835,877,901,926,953,979,1015,1049,1075,1094,1111,1158],"ymouse":[628,628,628,628,628,628,628,628,628,628,628,628,628,628,628,628,628,628,628,628,628,628,628,628,628,628,628,628,628,628,605,550,498,438,404,360,316,280,231,190,160,137,114,15],"timestamp_mouse":[9,30,49,69,90,109,131,150,169,190,210,229,249,269,289,309,329,353,369,392,412,430,450,470,490,509,530,549,569,590,609,629,649,670,689,709,729,750,769,789,809,830,850,869],"xSR":741.5,"ySR":573.95,"xT1":424.9,"yT1":0,"xT2":1058.1,"yT2":0,"toosoon":0,"cond_shown":"equaldotsize","ratio_trial":500,"smaller_num":"1","larger_num":"2","correct_side":2,"subjID":"AnaSofiaMatallanaSanchez24","gender":"1","age":"11","school":"6"},{"start_time":1551900860939,"click_time":1551900861690,"finger_time":1551900861410,"fix_duration":250,"trial":43,"RT":471,"MT":280,"sideResp":1,"stimulus":"img/250/equaldotsize/L/14_Ratio_250_L_12_R_3.png","xmouse":[790,790,790,790,790,790,790,790,790,790,790,790,790,790,790,790,790,790,790,790,790,790,782,755,716,672,605,589,579,572,567,559,555,550,541,529,496,483],"ymouse":[620,620,620,620,620,620,620,620,620,620,620,620,620,620,620,620,620,620,620,620,620,620,591,499,405,320,238,217,204,194,187,181,177,172,162,147,110,91],"timestamp_mouse":[11,30,50,70,90,110,130,150,171,190,210,230,250,270,290,310,330,351,370,390,410,431,450,471,490,510,531,550,571,591,610,630,650,670,690,710,731,751],"xSR":741.5,"ySR":573.95,"xT1":424.9,"yT1":0,"xT2":1058.1,"yT2":0,"toosoon":0,"cond_shown":"equaldotsize","ratio_trial":250,"smaller_num":"3","larger_num":"12","correct_side":1,"subjID":"AnaSofiaMatallanaSanchez24","gender":"1","age":"11","school":"6"},{"start_time":1551900863854,"click_time":1551900864729,"finger_time":1551900864369,"fix_duration":1484.7948807619366,"trial":44,"RT":515,"MT":360,"sideResp":2,"stimulus":"img/250/randomdotsizeEA/R/9_Ratio_250_L_3_R_12.png","xmouse":[787,787,787,787,787,787,787,787,787,787,787,787,787,787,787,787,787,787,787,787,787,787,787,797,803,842,851,870,885,902,944,958,966,968,971,980,988,993,1001,1009,1031,1042,1054,1060],"ymouse":[620,620,620,620,620,620,620,620,620,620,620,620,620,620,620,620,620,620,620,620,620,620,620,616,612,564,551,506,459,394,261,204,172,149,131,105,93,86,78,67,43,34,26,23],"timestamp_mouse":[18,36,55,75,95,115,135,156,175,195,216,237,255,276,295,316,336,356,375,396,416,435,455,475,496,515,536,556,577,595,615,635,655,675,696,715,737,756,775,795,815,836,855,875],"xSR":741.5,"ySR":573.95,"xT1":424.9,"yT1":0,"xT2":1058.1,"yT2":0,"toosoon":0,"cond_shown":"randomdotsizeEA","ratio_trial":250,"smaller_num":"3","larger_num":"12","correct_side":2,"subjID":"AnaSofiaMatallanaSanchez24","gender":"1","age":"11","school":"6"},{"start_time":1551900866024,"click_time":1551900866890,"finger_time":1551900866569,"fix_duration":732.4251852002053,"trial":45,"RT":545,"MT":321,"sideResp":1,"stimulus":"img/500/equaldotanddens/L/8_Ratio_500_L_8_R_4.png","xmouse":[787,787,787,787,787,787,787,787,787,787,787,787,787,787,787,787,787,787,787,787,787,787,787,786,785,781,773,737,701,669,636,605,575,562,550,537,525,503,500,496,495,493,487,485],"ymouse":[613,613,613,613,613,613,613,613,613,613,613,613,613,613,613,613,613,613,613,613,613,613,613,613,611,599,581,527,483,447,412,381,337,314,290,268,245,204,196,176,159,142,108,93],"timestamp_mouse":[8,30,45,65,85,106,126,145,166,185,205,225,245,265,285,306,325,347,365,386,405,425,445,466,485,506,525,545,565,585,605,625,645,665,685,705,726,745,766,785,806,825,846,866],"xSR":741.5,"ySR":573.95,"xT1":424.9,"yT1":0,"xT2":1058.1,"yT2":0,"toosoon":0,"cond_shown":"equaldotanddens","ratio_trial":500,"smaller_num":"4","larger_num":"8","correct_side":1,"subjID":"AnaSofiaMatallanaSanchez24","gender":"1","age":"11","school":"6"},{"start_time":1551900869311,"click_time":1551900869930,"finger_time":1551900869749,"fix_duration":399.9804101315022,"trial":46,"RT":438,"MT":181,"sideResp":1,"stimulus":"img/500/equaldotanddens/L/7_Ratio_500_L_10_R_5.png","xmouse":[781,781,781,781,781,781,781,781,781,781,781,781,781,781,781,781,781,781,781,781,781,782,778,718,646,610,588,574,554,545,533,516],"ymouse":[617,617,617,617,617,617,617,617,617,617,617,617,617,617,617,617,617,617,617,617,617,575,538,396,292,245,216,196,163,144,118,87],"timestamp_mouse":[2,20,39,58,80,98,118,139,158,179,200,219,238,258,279,298,320,338,359,378,399,419,438,458,478,498,518,538,558,578,598,619],"xSR":741.5,"ySR":573.95,"xT1":424.9,"yT1":0,"xT2":1058.1,"yT2":0,"toosoon":0,"cond_shown":"equaldotanddens","ratio_trial":500,"smaller_num":"5","larger_num":"10","correct_side":1,"subjID":"AnaSofiaMatallanaSanchez24","gender":"1","age":"11","school":"6"},{"start_time":1551900871053,"click_time":1551900872150,"finger_time":1551900871751,"fix_duration":543.3800892751243,"trial":47,"RT":698,"MT":399,"sideResp":1,"stimulus":"img/250/randomdotsizeEA/L/15_Ratio_250_L_12_R_3.png","xmouse":[791,791,791,791,791,791,791,791,791,791,791,791,791,791,791,791,791,791,791,791,791,791,791,791,791,791,791,791,791,791,791,791,789,784,776,737,713,706,674,674,653,647,642,636,626,607,596,591,585,579,564,553,539,529,524],"ymouse":[630,630,630,630,630,630,630,630,630,630,630,630,630,630,630,630,630,630,630,630,630,630,630,630,630,630,630,630,630,630,630,626,620,600,570,471,416,393,319,319,225,191,168,146,124,89,74,67,61,58,53,51,48,45,44],"timestamp_mouse":[18,43,56,77,97,118,136,157,176,197,216,237,256,277,297,316,336,356,376,397,417,437,457,476,498,517,537,556,578,596,617,637,657,676,698,717,736,756,776,796,816,837,856,876,896,916,936,957,976,996,1016,1037,1057,1077,1097],"xSR":741.5,"ySR":573.95,"xT1":424.9,"yT1":0,"xT2":1058.1,"yT2":0,"toosoon":0,"cond_shown":"randomdotsizeEA","ratio_trial":250,"smaller_num":"3","larger_num":"12","correct_side":1,"subjID":"AnaSofiaMatallanaSanchez24","gender":"1","age":"11","school":"6"},{"start_time":1551900873069,"click_time":1551900873829,"finger_time":1551900873669,"fix_duration":317.9857461221236,"trial":48,"RT":600,"MT":160,"sideResp":2,"stimulus":"img/750/equaldotanddens/R/12_Ratio_750_L_3_R_4.png","xmouse":[776,776,776,776,776,776,776,776,776,775,775,775,775,775,775,775,775,775,775,775,775,775,775,775,775,775,775,775,779,794,860,927,976,1021,1055,1104,1108,1111,1113],"ymouse":[610,610,610,610,610,610,610,610,610,610,610,610,610,610,610,610,610,610,610,610,610,610,610,610,610,610,610,611,609,592,498,403,312,247,200,126,115,106,96],"timestamp_mouse":[8,35,40,60,80,100,120,140,160,181,201,221,240,262,280,300,321,340,360,380,401,420,441,460,480,501,520,541,560,580,600,620,640,660,682,700,721,741,760],"xSR":741.5,"ySR":573.95,"xT1":424.9,"yT1":0,"xT2":1058.1,"yT2":0,"toosoon":0,"cond_shown":"equaldotanddens","ratio_trial":750,"smaller_num":"3","larger_num":"4","correct_side":2,"subjID":"AnaSofiaMatallanaSanchez24","gender":"1","age":"11","school":"6"},{"start_time":1551900876049,"click_time":1551900877749,"finger_time":1551900877349,"fix_duration":1459.0041478912642,"trial":49,"RT":1300,"MT":400,"sideResp":1,"stimulus":"img/750/randomdotsizeEA/R/4_Ratio_750_L_15_R_20.png","xmouse":[780,780,780,780,780,780,780,780,780,780,780,780,780,780,780,780,780,780,780,780,780,780,780,780,780,780,780,780,780,780,780,780,780,780,780,780,779,779,779,779,779,779,779,779,779,779,779,779,779,779,779,779,779,779,779,779,779,779,779,779,779,779,779,779,777,747,604,561,412,320,251,194,190,191,198,204,232,272,298,323,343,360,393,408,420,427],"ymouse":[611,611,611,611,611,611,611,611,611,611,611,611,611,611,611,611,611,611,611,611,611,611,611,611,611,611,611,611,611,611,611,611,611,611,611,611,611,611,611,611,611,611,611,611,611,611,611,611,611,611,611,611,611,611,611,611,611,611,611,611,611,611,611,609,598,557,394,347,219,159,105,47,30,16,7,2,0,9,19,25,31,36,45,49,52,55],"timestamp_mouse":[9,32,40,61,80,100,121,140,160,180,200,221,240,261,280,300,320,340,360,382,401,421,441,460,481,500,520,540,561,580,600,620,641,660,681,700,720,740,760,782,801,821,841,860,880,902,920,940,960,981,1000,1021,1040,1061,1082,1100,1120,1141,1160,1180,1201,1222,1240,1261,1281,1300,1320,1340,1360,1380,1400,1421,1440,1460,1481,1500,1520,1540,1561,1581,1601,1620,1640,1661,1681,1700],"xSR":741.5,"ySR":573.95,"xT1":424.9,"yT1":0,"xT2":1058.1,"yT2":0,"toosoon":0,"cond_shown":"randomdotsizeEA","ratio_trial":750,"smaller_num":"15","larger_num":"20","correct_side":2,"subjID":"AnaSofiaMatallanaSanchez24","gender":"1","age":"11","school":"6"},{"start_time":1551900878920,"click_time":1551900879870,"finger_time":1551900879550,"fix_duration":250,"trial":50,"RT":630,"MT":320,"sideResp":1,"stimulus":"img/500/equaldotsize/L/4_Ratio_500_L_18_R_9.png","xmouse":[781,781,781,781,781,782,782,783,783,783,783,783,783,783,783,783,783,783,783,783,783,783,783,783,783,783,783,783,783,783,782,774,692,664,597,582,579,571,567,564,561,554,547,544,541,531,525,508],"ymouse":[604,604,604,604,607,611,616,622,623,624,624,624,624,624,624,624,624,624,624,624,624,624,624,624,624,624,624,624,624,610,599,566,331,266,138,103,77,34,21,12,3,0,0,0,0,3,6,20],"timestamp_mouse":[15,38,49,69,89,109,129,149,170,190,211,230,249,269,289,310,329,349,369,391,409,430,449,470,489,509,530,551,570,589,609,630,649,671,689,709,730,749,770,790,809,829,849,869,889,910,930,950],"xSR":741.5,"ySR":573.95,"xT1":424.9,"yT1":0,"xT2":1058.1,"yT2":0,"toosoon":0,"cond_shown":"equaldotsize","ratio_trial":500,"smaller_num":"9","larger_num":"18","correct_side":1,"subjID":"AnaSofiaMatallanaSanchez24","gender":"1","age":"11","school":"6"},{"start_time":1551900883507,"click_time":1551900884351,"finger_time":1551900884089,"fix_duration":1417.7517389263605,"trial":51,"RT":582,"MT":262,"sideResp":2,"stimulus":"img/500/randomdotsizeEA/R/1_Ratio_500_L_9_R_18.png","xmouse":[798,798,798,798,798,798,798,798,798,798,798,798,798,798,798,798,798,798,798,798,798,798,798,798,798,798,798,798,818,840,877,919,959,1021,1036,1049,1058,1067,1081,1084,1087,1091,1094],"ymouse":[625,625,625,625,625,625,625,625,625,625,625,625,625,625,625,625,625,625,625,625,625,625,625,625,625,625,625,621,587,555,505,445,390,303,282,262,245,223,172,149,126,103,79],"timestamp_mouse":[2,32,42,62,83,102,122,142,162,182,202,222,242,262,282,302,324,342,362,384,403,422,444,462,483,503,522,542,562,582,602,622,642,662,682,703,723,742,762,783,802,822,844],"xSR":741.5,"ySR":573.95,"xT1":424.9,"yT1":0,"xT2":1058.1,"yT2":0,"toosoon":0,"cond_shown":"randomdotsizeEA","ratio_trial":500,"smaller_num":"9","larger_num":"18","correct_side":2,"subjID":"AnaSofiaMatallanaSanchez24","gender":"1","age":"11","school":"6"},{"start_time":1551900886427,"click_time":1551900887409,"finger_time":1551900887049,"fix_duration":1356.1863256126308,"trial":52,"RT":622,"MT":360,"sideResp":1,"stimulus":"img/900/randomdotsizeEA/L/2_Ratio_900_L_20_R_18.png","xmouse":[785,785,785,785,785,785,785,785,785,785,786,788,791,791,792,793,793,793,793,793,793,793,793,793,793,793,793,793,793,793,792,762,661,616,580,557,534,514,508,504,498,490,463,450,444,443,443,443,443,445],"ymouse":[634,634,634,634,634,634,634,634,634,634,634,633,630,629,629,629,629,629,629,629,629,629,629,629,629,629,629,629,629,624,612,554,412,357,309,276,245,213,200,192,180,167,131,115,105,102,100,100,100,97],"timestamp_mouse":[10,23,42,62,82,102,124,143,162,183,203,224,244,262,282,302,322,342,362,382,403,423,443,463,482,502,523,542,562,583,602,622,642,662,682,702,723,742,762,782,802,822,842,863,882,902,923,944,963,982],"xSR":741.5,"ySR":573.95,"xT1":424.9,"yT1":0,"xT2":1058.1,"yT2":0,"toosoon":0,"cond_shown":"randomdotsizeEA","ratio_trial":900,"smaller_num":"18","larger_num":"20","correct_side":1,"subjID":"AnaSofiaMatallanaSanchez24","gender":"1","age":"11","school":"6"},{"start_time":1551900888563,"click_time":1551900889569,"finger_time":1551900888750,"fix_duration":591.5816629696177,"trial":53,"RT":187,"MT":819,"sideResp":2,"stimulus":"img/750/equaldotsize/R/11_Ratio_750_L_12_R_16.png","xmouse":[787,787,787,787,787,788,796,816,837,847,850,850,850,850,850,850,850,850,850,850,850,850,850,850,850,850,850,850,850,850,850,850,850,850,850,850,850,850,850,850,855,955,1030,1071,1093,1117,1131,1141,1146,1149,1150],"ymouse":[622,622,622,622,622,620,605,588,577,573,571,571,571,571,571,571,571,571,571,571,571,571,571,571,571,571,571,571,571,571,571,571,571,571,571,571,571,571,571,571,559,423,329,276,249,212,190,170,150,133,99],"timestamp_mouse":[8,26,47,67,86,107,126,146,166,187,207,226,246,266,287,306,327,347,366,387,407,426,446,467,487,508,527,546,567,587,606,627,647,666,687,706,726,747,766,787,806,827,846,866,886,906,927,946,966,986,1006],"xSR":741.5,"ySR":573.95,"xT1":424.9,"yT1":0,"xT2":1058.1,"yT2":0,"toosoon":0,"cond_shown":"equaldotsize","ratio_trial":750,"smaller_num":"12","larger_num":"16","correct_side":2,"subjID":"AnaSofiaMatallanaSanchez24","gender":"1","age":"11","school":"6"},{"start_time":1551900894858,"click_time":1551900895870,"finger_time":1551900895569,"fix_duration":1186.585358113265,"trial":54,"RT":711,"MT":301,"sideResp":2,"stimulus":"img/500/equaldotsize/R/9_Ratio_500_L_2_R_4.png","xmouse":[812,811,811,810,810,810,810,810,810,810,810,810,810,810,810,810,810,810,810,810,810,810,809,809,809,809,809,809,809,809,810,810,811,811,811,811,811,810,810,806,792,784,778,775,774,794,838,931,995,1043,1107],"ymouse":[618,618,618,617,617,617,617,617,617,617,617,617,617,617,617,617,617,617,617,617,617,617,616,614,610,599,594,592,591,589,584,580,578,577,575,572,571,569,567,564,552,546,540,535,524,450,383,283,220,168,84],"timestamp_mouse":[11,42,51,71,91,111,131,151,172,192,211,232,251,271,291,311,331,351,371,391,411,431,451,471,492,511,531,552,571,591,611,631,651,671,691,711,731,751,771,791,812,832,851,871,892,911,931,951,972,991,1011],"xSR":741.5,"ySR":573.95,"xT1":424.9,"yT1":0,"xT2":1058.1,"yT2":0,"toosoon":0,"cond_shown":"equaldotsize","ratio_trial":500,"smaller_num":"2","larger_num":"4","correct_side":2,"subjID":"AnaSofiaMatallanaSanchez24","gender":"1","age":"11","school":"6"},{"start_time":1551900898161,"click_time":1551900898869,"finger_time":1551900898649,"fix_duration":1391.213225508508,"trial":55,"RT":488,"MT":220,"sideResp":1,"stimulus":"img/250/equaldotanddens/L/3_Ratio_250_L_8_R_2.png","xmouse":[814,812,809,808,807,808,811,813,814,814,814,814,814,813,812,812,812,811,810,809,807,805,799,795,791,751,719,689,663,641,586,567,536,519,504,492],"ymouse":[621,621,621,621,621,619,617,615,615,614,614,614,614,614,614,614,614,614,615,615,615,615,606,587,554,370,262,159,80,26,0,0,0,0,0,1],"timestamp_mouse":[10,37,49,68,89,108,129,148,168,189,208,229,248,269,289,309,328,349,368,389,408,429,448,469,488,508,529,548,568,588,609,628,649,668,688,708],"xSR":741.5,"ySR":573.95,"xT1":424.9,"yT1":0,"xT2":1058.1,"yT2":0,"toosoon":0,"cond_shown":"equaldotanddens","ratio_trial":250,"smaller_num":"2","larger_num":"8","correct_side":1,"subjID":"AnaSofiaMatallanaSanchez24","gender":"1","age":"11","school":"6"},{"start_time":1551900901211,"click_time":1551900902351,"finger_time":1551900901929,"fix_duration":1479.5273882959464,"trial":56,"RT":718,"MT":422,"sideResp":2,"stimulus":"img/900/equaldotsize/L/8_Ratio_900_L_20_R_18.png","xmouse":[773,773,773,773,773,773,773,773,773,773,773,773,773,773,773,773,773,773,773,773,773,773,773,773,773,773,773,773,773,773,773,773,773,782,802,816,842,938,980,1008,1023,1034,1040,1041,1041,1042,1045,1057,1065,1075,1078,1080,1095,1105,1118,1128,1133],"ymouse":[617,617,617,617,617,617,617,617,617,617,617,617,617,617,617,617,617,617,617,617,617,617,617,617,617,617,617,617,617,617,617,617,617,606,590,572,540,417,369,336,319,307,297,296,295,290,285,257,239,216,206,195,167,147,124,103,85],"timestamp_mouse":[18,40,58,78,98,118,139,160,178,199,218,238,258,280,299,318,339,358,379,399,418,438,458,479,498,519,538,559,580,598,618,639,660,678,698,718,738,758,779,798,818,838,858,878,898,918,939,958,978,998,1019,1038,1058,1078,1098,1118,1139],"xSR":741.5,"ySR":573.95,"xT1":424.9,"yT1":0,"xT2":1058.1,"yT2":0,"toosoon":0,"cond_shown":"equaldotsize","ratio_trial":900,"smaller_num":"18","larger_num":"20","correct_side":1,"subjID":"AnaSofiaMatallanaSanchez24","gender":"1","age":"11","school":"6"},{"start_time":1551900904120,"click_time":1551900905130,"finger_time":1551900904890,"fix_duration":1008.1918970629981,"trial":57,"RT":770,"MT":240,"sideResp":1,"stimulus":"img/750/equaldotanddens/L/10_Ratio_750_L_4_R_3.png","xmouse":[764,764,764,764,764,764,764,764,764,764,764,764,764,764,764,764,764,764,764,764,764,764,764,764,764,764,764,764,764,764,764,764,764,764,764,764,764,764,755,730,692,653,613,545,527,510,491,481,481,478,468],"ymouse":[607,607,607,607,607,607,607,607,607,607,607,607,607,607,607,607,607,607,607,607,607,607,607,607,607,607,607,607,607,607,607,607,607,607,607,607,607,607,528,397,267,150,66,0,0,0,0,0,0,0,7],"timestamp_mouse":[11,41,49,69,90,109,130,150,170,191,209,229,251,271,289,310,330,350,370,390,409,431,450,471,490,510,530,549,570,589,609,630,649,670,690,709,730,750,770,789,809,830,849,870,890,910,930,949,969,989,1010],"xSR":741.5,"ySR":573.95,"xT1":424.9,"yT1":0,"xT2":1058.1,"yT2":0,"toosoon":0,"cond_shown":"equaldotanddens","ratio_trial":750,"smaller_num":"3","larger_num":"4","correct_side":1,"subjID":"AnaSofiaMatallanaSanchez24","gender":"1","age":"11","school":"6"},{"start_time":1551900908426,"click_time":1551900909049,"finger_time":1551900908830,"fix_duration":1094.2795031250168,"trial":58,"RT":404,"MT":219,"sideResp":2,"stimulus":"img/500/equaldotanddens/R/9_Ratio_500_L_2_R_4.png","xmouse":[779,779,779,779,779,779,779,779,779,779,779,779,779,779,779,779,779,779,779,794,826,868,946,970,990,1003,1012,1034,1060,1075,1096,1123],"ymouse":[593,593,593,593,593,593,593,593,593,593,593,593,593,593,593,593,593,593,591,582,560,509,385,340,303,274,252,214,178,155,126,91],"timestamp_mouse":[8,23,43,64,84,103,123,143,163,184,204,223,245,263,284,303,323,343,364,383,404,423,443,463,483,503,524,543,564,583,603,623],"xSR":741.5,"ySR":573.95,"xT1":424.9,"yT1":0,"xT2":1058.1,"yT2":0,"toosoon":0,"cond_shown":"equaldotanddens","ratio_trial":500,"smaller_num":"2","larger_num":"4","correct_side":2,"subjID":"AnaSofiaMatallanaSanchez24","gender":"1","age":"11","school":"6"},{"start_time":1551900910718,"click_time":1551900912132,"finger_time":1551900911830,"fix_duration":947.7824343011371,"trial":59,"RT":1112,"MT":302,"sideResp":2,"stimulus":"img/900/equaldotsize/R/14_Ratio_900_L_18_R_20.png","xmouse":[779,779,779,779,779,779,779,779,779,779,778,778,778,778,778,778,778,778,778,778,778,778,778,778,778,778,778,778,778,778,778,778,778,778,778,778,778,778,778,778,778,778,778,778,778,778,780,782,782,782,782,782,782,782,779,775,775,805,840,874,905,930,953,965,976,988,998,1018,1031,1043,1060],"ymouse":[616,616,616,616,616,616,616,616,616,616,616,616,616,616,616,616,616,616,616,616,616,616,616,616,616,616,616,616,616,616,616,616,616,616,616,616,616,616,616,616,616,616,616,616,616,615,612,606,604,604,603,603,603,596,576,530,457,338,288,241,204,177,146,130,121,112,105,81,69,59,48],"timestamp_mouse":[12,32,53,73,93,112,132,154,173,194,213,233,252,273,293,312,334,353,373,393,413,433,452,474,493,513,534,553,574,592,612,632,654,673,694,713,733,753,773,793,814,832,852,874,894,912,932,953,973,993,1012,1034,1053,1073,1092,1112,1132,1152,1173,1192,1212,1233,1252,1272,1292,1313,1333,1352,1373,1392,1413],"xSR":741.5,"ySR":573.95,"xT1":424.9,"yT1":0,"xT2":1058.1,"yT2":0,"toosoon":0,"cond_shown":"equaldotsize","ratio_trial":900,"smaller_num":"18","larger_num":"20","correct_side":2,"subjID":"AnaSofiaMatallanaSanchez24","gender":"1","age":"11","school":"6"},{"start_time":1551900913999,"click_time":1551900914710,"finger_time":1551900914531,"fix_duration":1128.1031115415913,"trial":60,"RT":532,"MT":179,"sideResp":2,"stimulus":"img/250/equaldotanddens/R/11_Ratio_250_L_3_R_12.png","xmouse":[793,793,793,793,793,793,793,793,793,793,793,793,793,793,793,793,793,793,793,793,793,793,793,793,807,816,854,916,1038,1083,1094,1105,1115,1128,1134,1141],"ymouse":[616,616,616,616,616,616,616,616,616,616,616,616,616,616,616,616,616,616,616,616,616,616,616,616,602,591,546,466,309,242,220,195,168,127,104,82],"timestamp_mouse":[12,37,52,71,91,113,132,151,173,191,211,231,252,271,292,312,333,351,372,393,411,432,452,472,491,512,532,552,572,592,611,631,652,672,692,711],"xSR":741.5,"ySR":573.95,"xT1":424.9,"yT1":0,"xT2":1058.1,"yT2":0,"toosoon":0,"cond_shown":"equaldotanddens","ratio_trial":250,"smaller_num":"3","larger_num":"12","correct_side":2,"subjID":"AnaSofiaMatallanaSanchez24","gender":"1","age":"11","school":"6"},{"start_time":1551900915797,"click_time":1551900916410,"finger_time":1551900916270,"fix_duration":604.359452415134,"trial":61,"RT":473,"MT":140,"sideResp":1,"stimulus":"img/500/randomdotsizeEA/L/7_Ratio_500_L_10_R_5.png","xmouse":[774,774,774,774,774,774,774,774,774,774,774,774,774,774,774,774,774,774,774,774,774,774,774,759,741,718,692,661,566,526,503],"ymouse":[636,636,636,636,636,636,636,636,636,636,636,636,636,636,636,636,636,636,636,633,622,610,597,539,491,437,375,312,161,104,64],"timestamp_mouse":[13,35,53,75,94,113,133,154,173,194,213,234,253,274,293,313,333,354,375,393,413,433,454,473,494,513,533,553,573,594,613],"xSR":741.5,"ySR":573.95,"xT1":424.9,"yT1":0,"xT2":1058.1,"yT2":0,"toosoon":0,"cond_shown":"randomdotsizeEA","ratio_trial":500,"smaller_num":"5","larger_num":"10","correct_side":1,"subjID":"AnaSofiaMatallanaSanchez24","gender":"1","age":"11","school":"6"},{"start_time":1551900917381,"click_time":1551900918290,"finger_time":1551900917831,"fix_duration":250,"trial":62,"RT":450,"MT":459,"sideResp":2,"stimulus":"img/250/equaldotanddens/R/4_Ratio_250_L_3_R_12.png","xmouse":[793,792,792,792,792,792,792,792,792,792,792,792,792,792,792,792,792,792,792,792,800,823,862,915,1048,1102,1141,1165,1180,1199,1205,1211,1216,1220,1223,1223,1223,1223,1223,1214,1212,1201,1193,1181,1160,1150],"ymouse":[612,614,614,615,615,615,615,615,615,615,615,615,615,615,615,615,615,615,615,615,611,595,561,503,345,264,202,166,145,110,95,74,59,44,20,15,13,13,13,19,21,30,34,41,50,53],"timestamp_mouse":[10,37,50,70,91,109,131,150,169,190,209,229,251,269,291,309,329,350,370,390,409,429,450,469,489,510,530,550,570,589,610,629,651,669,689,710,729,750,770,789,811,830,851,869,890,909],"xSR":741.5,"ySR":573.95,"xT1":424.9,"yT1":0,"xT2":1058.1,"yT2":0,"toosoon":0,"cond_shown":"equaldotanddens","ratio_trial":250,"smaller_num":"3","larger_num":"12","correct_side":2,"subjID":"AnaSofiaMatallanaSanchez24","gender":"1","age":"11","school":"6"},{"start_time":1551900920249,"click_time":1551900921170,"finger_time":1551900921031,"fix_duration":1257.2390978224707,"trial":63,"RT":782,"MT":139,"sideResp":1,"stimulus":"img/750/randomdotsizeEA/R/7_Ratio_750_L_3_R_4.png","xmouse":[795,795,795,795,795,795,795,795,795,795,795,795,795,795,795,795,795,795,795,795,795,795,795,795,795,795,795,795,795,795,794,791,789,787,786,785,783,781,779,775,767,736,701,653,606,563,510],"ymouse":[621,621,621,621,621,621,621,621,621,621,621,621,621,621,621,621,621,621,621,621,621,621,621,621,621,621,621,621,621,621,621,618,611,608,604,603,598,595,589,573,544,433,342,254,191,147,91],"timestamp_mouse":[9,34,41,62,81,102,122,141,162,181,202,222,242,261,282,302,321,342,362,381,401,422,441,463,482,501,521,542,562,582,602,621,641,662,681,702,722,741,761,782,801,821,842,861,881,901,921],"xSR":741.5,"ySR":573.95,"xT1":424.9,"yT1":0,"xT2":1058.1,"yT2":0,"toosoon":0,"cond_shown":"randomdotsizeEA","ratio_trial":750,"smaller_num":"3","larger_num":"4","correct_side":2,"subjID":"AnaSofiaMatallanaSanchez24","gender":"1","age":"11","school":"6"},{"start_time":1551900924182,"click_time":1551900925431,"finger_time":1551900924791,"fix_duration":669.4312677748705,"trial":64,"RT":609,"MT":640,"sideResp":1,"stimulus":"img/900/equaldotsize/L/1_Ratio_900_L_10_R_9.png","xmouse":[777,777,777,777,777,777,777,779,780,782,783,783,783,784,784,784,784,784,784,784,784,784,784,786,789,790,790,790,790,789,779,775,773,773,770,770,773,784,798,866,932,946,945,934,893,880,872,866,859,838,818,805,782,741,635,588,558,540,532,532,530,526,520],"ymouse":[637,637,637,637,637,637,637,637,637,636,635,635,635,635,635,635,635,635,635,635,635,635,635,634,626,620,612,600,595,588,549,537,530,524,513,507,499,483,461,342,165,65,12,0,0,0,0,0,2,10,15,17,17,17,12,3,0,0,0,0,0,0,3],"timestamp_mouse":[18,37,48,69,89,108,130,149,168,189,208,228,249,269,289,309,330,350,368,390,408,430,449,468,490,508,528,548,570,588,609,628,649,669,689,709,729,748,768,788,809,828,848,868,888,909,928,949,968,988,1008,1029,1049,1069,1088,1108,1128,1149,1168,1189,1208,1229,1249],"xSR":741.5,"ySR":573.95,"xT1":424.9,"yT1":0,"xT2":1058.1,"yT2":0,"toosoon":0,"cond_shown":"equaldotsize","ratio_trial":900,"smaller_num":"9","larger_num":"10","correct_side":1,"subjID":"AnaSofiaMatallanaSanchez24","gender":"1","age":"11","school":"6"},{"start_time":1551900927482,"click_time":1551900928150,"finger_time":1551900928070,"fix_duration":1310.267859411448,"trial":65,"RT":588,"MT":80,"sideResp":2,"stimulus":"img/900/equaldotanddens/R/6_Ratio_900_L_9_R_10.png","xmouse":[767,767,767,767,767,767,767,767,767,767,767,767,767,767,767,767,767,767,767,767,767,767,767,767,767,767,767,770,783,899,961,1019,1050,1073],"ymouse":[628,628,628,628,628,628,628,628,628,628,628,628,628,628,628,628,628,628,628,628,628,628,628,628,628,628,628,618,584,374,264,155,78,26],"timestamp_mouse":[9,36,50,69,88,109,128,149,168,188,209,228,249,270,288,309,330,349,369,389,410,429,449,470,488,510,528,548,568,588,609,628,648,668],"xSR":741.5,"ySR":573.95,"xT1":424.9,"yT1":0,"xT2":1058.1,"yT2":0,"toosoon":0,"cond_shown":"equaldotanddens","ratio_trial":900,"smaller_num":"9","larger_num":"10","correct_side":2,"subjID":"AnaSofiaMatallanaSanchez24","gender":"1","age":"11","school":"6"},{"start_time":1551900929742,"click_time":1551900930270,"finger_time":1551900930170,"fix_duration":850.4575317622795,"trial":66,"RT":428,"MT":100,"sideResp":1,"stimulus":"img/500/equaldotanddens/L/8_Ratio_500_L_8_R_4.png","xmouse":[799,799,799,799,799,799,799,799,799,799,799,799,799,799,799,799,799,799,799,799,800,771,694,634,580,539,482],"ymouse":[618,618,618,618,618,618,618,618,618,618,618,618,618,618,618,618,618,618,618,618,617,524,363,259,173,113,33],"timestamp_mouse":[15,43,48,68,89,110,129,148,169,189,208,228,248,269,288,309,330,349,369,389,408,428,450,469,490,509,528],"xSR":741.5,"ySR":573.95,"xT1":424.9,"yT1":0,"xT2":1058.1,"yT2":0,"toosoon":0,"cond_shown":"equaldotanddens","ratio_trial":500,"smaller_num":"4","larger_num":"8","correct_side":1,"subjID":"AnaSofiaMatallanaSanchez24","gender":"1","age":"11","school":"6"},{"start_time":1551900932302,"click_time":1551900932951,"finger_time":1551900932850,"fix_duration":1469.922191743608,"trial":67,"RT":548,"MT":101,"sideResp":2,"stimulus":"img/500/equaldotanddens/R/9_Ratio_500_L_2_R_4.png","xmouse":[801,801,801,801,801,801,801,801,801,801,801,801,801,801,801,801,801,801,801,801,801,801,801,801,801,802,815,860,947,1007,1066,1087,1094],"ymouse":[616,616,616,616,616,616,616,616,616,616,616,616,616,616,616,616,616,616,616,616,616,616,616,616,616,606,574,467,277,186,123,101,89],"timestamp_mouse":[9,30,49,69,88,109,128,148,170,189,209,229,248,269,289,310,329,349,370,388,410,429,450,470,488,509,528,548,568,588,609,629,649],"xSR":741.5,"ySR":573.95,"xT1":424.9,"yT1":0,"xT2":1058.1,"yT2":0,"toosoon":0,"cond_shown":"equaldotanddens","ratio_trial":500,"smaller_num":"2","larger_num":"4","correct_side":2,"subjID":"AnaSofiaMatallanaSanchez24","gender":"1","age":"11","school":"6"},{"start_time":1551900935112,"click_time":1551900936110,"finger_time":1551900935890,"fix_duration":1419.122386112781,"trial":68,"RT":778,"MT":220,"sideResp":2,"stimulus":"img/500/equaldotsize/R/9_Ratio_500_L_2_R_4.png","xmouse":[783,783,783,783,783,783,783,783,783,783,783,783,783,783,783,783,783,783,783,783,783,783,783,783,783,783,783,783,776,775,775,775,775,775,775,775,775,775,783,811,846,886,917,965,991,1004,1013,1023,1042,1053,1059],"ymouse":[608,608,608,608,608,608,608,608,608,608,608,608,608,608,608,608,608,608,608,608,608,608,608,608,608,608,608,607,595,594,594,594,594,594,594,594,594,593,574,507,421,314,239,150,105,89,77,65,42,29,24],"timestamp_mouse":[1,20,39,59,78,100,118,139,158,180,198,219,239,258,280,298,318,340,359,379,399,419,438,460,479,498,519,539,558,578,599,618,638,660,678,699,720,739,758,778,799,819,839,859,879,898,920,939,959,979,998],"xSR":741.5,"ySR":573.95,"xT1":424.9,"yT1":0,"xT2":1058.1,"yT2":0,"toosoon":0,"cond_shown":"equaldotsize","ratio_trial":500,"smaller_num":"2","larger_num":"4","correct_side":2,"subjID":"AnaSofiaMatallanaSanchez24","gender":"1","age":"11","school":"6"},{"start_time":1551900937080,"click_time":1551900938750,"finger_time":1551900938070,"fix_duration":387.92096836646374,"trial":69,"RT":990,"MT":680,"sideResp":2,"stimulus":"img/900/equaldotanddens/R/3_Ratio_900_L_9_R_10.png","xmouse":[766,766,766,766,766,768,770,772,774,774,774,774,774,774,774,774,774,774,774,774,774,774,774,774,774,774,774,774,774,774,774,774,774,774,774,774,774,774,774,774,774,774,774,774,774,774,781,789,799,820,834,844,853,858,868,878,884,889,891,896,898,900,901,904,914,923,940,955,974,1007,1020,1030,1036,1041,1045,1046,1047,1049,1052,1059,1066,1073,1082,1090],"ymouse":[605,605,605,605,605,608,609,609,610,610,610,610,610,610,610,610,610,610,610,610,610,610,610,610,610,610,610,610,610,610,610,610,610,610,610,610,610,610,610,610,610,610,610,610,610,610,604,590,574,544,523,505,493,483,465,442,428,417,411,401,397,393,389,383,367,354,324,298,266,219,202,187,178,170,164,162,161,156,151,139,128,116,104,92],"timestamp_mouse":[10,35,52,72,90,111,130,151,170,190,211,232,250,270,291,311,332,350,371,390,410,430,451,472,491,510,530,550,571,590,611,630,652,671,692,710,731,751,770,792,810,830,851,870,890,910,931,951,970,990,1011,1031,1052,1071,1090,1110,1130,1151,1172,1190,1210,1230,1250,1270,1290,1311,1331,1350,1370,1390,1411,1430,1450,1470,1490,1510,1530,1550,1570,1590,1611,1631,1651,1670],"xSR":741.5,"ySR":573.95,"xT1":424.9,"yT1":0,"xT2":1058.1,"yT2":0,"toosoon":0,"cond_shown":"equaldotanddens","ratio_trial":900,"smaller_num":"9","larger_num":"10","correct_side":2,"subjID":"AnaSofiaMatallanaSanchez24","gender":"1","age":"11","school":"6"},{"start_time":1551900939662,"click_time":1551900940910,"finger_time":1551900940671,"fix_duration":250,"trial":70,"RT":1009,"MT":239,"sideResp":2,"stimulus":"img/250/randomdotsizeEA/R/8_Ratio_250_L_1_R_4.png","xmouse":[777,777,777,777,777,777,777,777,777,777,777,777,777,777,777,777,777,777,777,777,777,777,777,777,777,777,777,777,777,777,777,777,777,777,777,777,777,777,777,777,777,777,777,777,777,777,777,777,778,798,834,864,893,913,933,964,985,1005,1019,1031,1049,1054,1059],"ymouse":[628,628,628,628,628,628,628,628,628,628,628,628,628,628,628,628,628,628,628,628,628,628,628,628,628,628,628,628,628,628,628,628,628,628,628,628,628,628,628,628,628,628,628,628,628,628,628,628,627,590,515,453,383,315,259,198,165,141,125,105,66,50,39],"timestamp_mouse":[17,40,48,69,90,109,130,148,169,189,209,229,249,268,289,308,329,350,368,388,410,429,448,469,488,509,530,548,568,589,608,628,648,669,688,708,729,749,768,789,808,828,849,868,889,910,930,948,969,989,1009,1029,1048,1068,1090,1109,1129,1149,1169,1189,1208,1228,1248],"xSR":741.5,"ySR":573.95,"xT1":424.9,"yT1":0,"xT2":1058.1,"yT2":0,"toosoon":0,"cond_shown":"randomdotsizeEA","ratio_trial":250,"smaller_num":"1","larger_num":"4","correct_side":2,"subjID":"AnaSofiaMatallanaSanchez24","gender":"1","age":"11","school":"6"},{"start_time":1551900953581,"click_time":1551900954591,"finger_time":1551900954010,"fix_duration":570.0256873182417,"trial":71,"RT":429,"MT":581,"sideResp":2,"stimulus":"img/250/equaldotsize/R/13_Ratio_250_L_2_R_8.png","xmouse":[825,825,825,825,825,825,825,825,825,825,825,825,825,824,824,824,824,824,824,828,830,839,868,886,905,914,920,923,923,923,924,925,925,925,927,935,943,952,958,970,978,982,985,990,999,1004,1008,1014,1023,1050,1060],"ymouse":[614,614,614,614,614,614,614,614,614,614,614,614,614,614,614,614,614,612,610,602,597,573,478,392,243,178,119,66,36,0,0,0,0,0,5,16,21,25,27,29,29,28,27,25,22,21,20,20,25,38,41],"timestamp_mouse":[9,35,49,69,90,110,130,151,169,189,209,231,250,269,289,310,330,349,370,389,411,429,449,469,490,509,529,549,569,591,609,630,650,670,690,710,730,750,771,789,809,829,850,870,889,911,931,949,970,989,1010],"xSR":741.5,"ySR":573.95,"xT1":424.9,"yT1":0,"xT2":1058.1,"yT2":0,"toosoon":0,"cond_shown":"equaldotsize","ratio_trial":250,"smaller_num":"2","larger_num":"8","correct_side":2,"subjID":"AnaSofiaMatallanaSanchez24","gender":"1","age":"11","school":"6"},{"start_time":1551900955850,"click_time":1551900956770,"finger_time":1551900956650,"fix_duration":378.1572801972214,"trial":72,"RT":800,"MT":120,"sideResp":1,"stimulus":"img/900/equaldotsize/L/8_Ratio_900_L_20_R_18.png","xmouse":[772,772,772,772,772,772,772,772,772,772,772,772,772,772,772,772,772,772,772,772,772,772,772,772,772,772,768,768,768,768,768,768,768,768,768,768,768,768,767,755,733,644,591,549,509,474,443],"ymouse":[622,622,622,622,622,622,622,622,622,622,622,622,622,622,622,622,622,622,622,622,622,622,622,622,618,614,605,605,605,605,605,605,605,605,605,605,605,605,602,579,548,416,342,275,208,147,88],"timestamp_mouse":[10,33,41,61,81,100,121,140,160,180,200,221,240,262,280,302,320,341,362,380,401,422,440,461,480,501,520,540,561,580,600,622,640,661,682,701,721,742,761,781,800,820,840,860,882,901,920],"xSR":741.5,"ySR":573.95,"xT1":424.9,"yT1":0,"xT2":1058.1,"yT2":0,"toosoon":0,"cond_shown":"equaldotsize","ratio_trial":900,"smaller_num":"18","larger_num":"20","correct_side":1,"subjID":"AnaSofiaMatallanaSanchez24","gender":"1","age":"11","school":"6"},{"start_time":1551900958408,"click_time":1551900959270,"finger_time":1551900958971,"fix_duration":755.63847358569,"trial":73,"RT":563,"MT":299,"sideResp":2,"stimulus":"img/500/equaldotsize/R/1_Ratio_500_L_9_R_18.png","xmouse":[775,775,775,775,775,775,775,775,775,775,775,775,775,775,775,775,775,775,775,775,775,775,775,775,775,780,793,804,826,838,847,862,875,903,935,981,1013,1028,1046,1049,1050,1051,1053,1059],"ymouse":[599,599,599,599,599,599,599,599,599,599,599,599,599,599,599,599,599,599,599,599,599,599,599,599,598,595,587,578,549,519,495,459,424,346,285,198,127,100,65,51,44,41,38,32],"timestamp_mouse":[10,31,43,63,84,104,123,143,162,182,204,222,242,262,282,302,323,343,362,383,402,424,442,464,482,503,522,542,563,582,603,622,642,663,683,702,722,743,762,783,802,822,842,862],"xSR":741.5,"ySR":573.95,"xT1":424.9,"yT1":0,"xT2":1058.1,"yT2":0,"toosoon":0,"cond_shown":"equaldotsize","ratio_trial":500,"smaller_num":"9","larger_num":"18","correct_side":2,"subjID":"AnaSofiaMatallanaSanchez24","gender":"1","age":"11","school":"6"},{"start_time":1551900960290,"click_time":1551900961451,"finger_time":1551900960952,"fix_duration":375.6735029527979,"trial":74,"RT":662,"MT":499,"sideResp":1,"stimulus":"img/900/equaldotsize/R/6_Ratio_900_L_9_R_10.png","xmouse":[797,797,797,797,797,797,797,797,797,797,797,797,797,797,797,797,797,797,797,797,797,797,797,797,797,797,797,797,797,797,796,793,786,762,650,599,566,533,510,487,482,480,479,477,477,477,477,477,477,477,477,477,477,477,477,477,477,477,477],"ymouse":[616,616,616,616,616,616,616,616,616,616,616,616,616,616,616,616,616,616,616,616,616,616,616,616,616,616,616,616,616,616,617,613,599,556,400,343,299,259,219,169,154,139,128,123,119,118,114,110,106,104,103,103,103,103,103,103,102,100,94],"timestamp_mouse":[6,32,40,60,82,101,121,141,160,182,200,221,241,260,280,301,321,342,362,380,400,420,440,461,480,501,520,541,560,580,600,622,641,662,681,701,722,742,761,782,801,822,841,862,881,901,921,940,961,981,1000,1021,1041,1061,1082,1102,1121,1142,1161],"xSR":741.5,"ySR":573.95,"xT1":424.9,"yT1":0,"xT2":1058.1,"yT2":0,"toosoon":0,"cond_shown":"equaldotsize","ratio_trial":900,"smaller_num":"9","larger_num":"10","correct_side":2,"subjID":"AnaSofiaMatallanaSanchez24","gender":"1","age":"11","school":"6"},{"start_time":1551900963143,"click_time":1551900964151,"finger_time":1551900964050,"fix_duration":971.5147724931467,"trial":75,"RT":907,"MT":101,"sideResp":2,"stimulus":"img/750/randomdotsizeEA/R/7_Ratio_750_L_3_R_4.png","xmouse":[828,828,828,828,828,828,828,823,820,816,813,807,807,807,806,806,804,803,802,802,802,802,802,802,802,802,802,802,802,802,802,802,802,802,802,802,802,802,802,802,802,802,802,801,808,840,943,984,1024,1081,1133],"ymouse":[610,610,610,610,610,610,610,611,612,613,614,615,615,615,615,615,616,616,616,616,616,616,616,616,616,616,616,616,616,616,616,616,616,616,616,616,616,616,616,616,616,616,616,607,587,519,335,261,203,141,93],"timestamp_mouse":[10,39,47,68,88,107,127,147,168,187,208,228,247,268,287,308,328,347,368,388,407,428,448,468,488,508,527,548,569,587,609,628,647,667,688,707,729,747,768,788,807,829,848,867,887,907,927,948,967,988,1008],"xSR":741.5,"ySR":573.95,"xT1":424.9,"yT1":0,"xT2":1058.1,"yT2":0,"toosoon":0,"cond_shown":"randomdotsizeEA","ratio_trial":750,"smaller_num":"3","larger_num":"4","correct_side":2,"subjID":"AnaSofiaMatallanaSanchez24","gender":"1","age":"11","school":"6"},{"start_time":1551900965836,"click_time":1551900966590,"finger_time":1551900966371,"fix_duration":1044.6432248702665,"trial":76,"RT":535,"MT":219,"sideResp":1,"stimulus":"img/500/randomdotsizeEA/L/10_Ratio_500_L_4_R_2.png","xmouse":[791,791,791,791,791,791,791,791,791,791,791,791,791,791,791,791,791,791,791,791,791,791,791,791,791,790,740,697,677,663,651,632,624,613,600,584,525,446],"ymouse":[635,635,635,635,635,635,635,635,635,635,635,635,635,635,635,635,635,635,635,635,635,635,635,632,622,578,448,349,301,268,243,208,195,178,162,141,79,13],"timestamp_mouse":[15,36,54,76,94,115,136,154,174,195,214,235,254,276,295,314,334,356,376,395,414,436,456,474,494,515,535,555,574,595,616,635,655,674,694,715,735,754],"xSR":741.5,"ySR":573.95,"xT1":424.9,"yT1":0,"xT2":1058.1,"yT2":0,"toosoon":0,"cond_shown":"randomdotsizeEA","ratio_trial":500,"smaller_num":"2","larger_num":"4","correct_side":1,"subjID":"AnaSofiaMatallanaSanchez24","gender":"1","age":"11","school":"6"},{"start_time":1551900968514,"click_time":1551900969991,"finger_time":1551900969831,"fix_duration":1042.37717090603,"trial":77,"RT":1317,"MT":160,"sideResp":1,"stimulus":"img/900/equaldotanddens/L/4_Ratio_900_L_20_R_18.png","xmouse":[770,770,770,770,770,770,770,770,770,770,770,770,770,770,770,770,770,770,770,770,770,770,770,770,770,770,770,770,770,770,770,770,770,770,770,770,770,770,770,770,770,770,770,770,770,770,770,770,770,770,770,770,770,770,770,770,770,770,770,770,770,770,760,753,747,736,718,639,597,562,537,523,512,504],"ymouse":[631,631,631,631,631,631,631,631,631,631,631,631,631,631,631,631,631,631,631,631,631,631,631,631,631,631,631,631,631,631,631,631,631,631,631,631,631,631,631,631,631,631,631,631,631,631,631,631,631,631,631,631,631,631,631,631,631,631,631,631,631,630,630,628,624,612,582,429,357,289,227,186,117,76],"timestamp_mouse":[17,36,57,76,97,117,138,156,177,198,217,237,257,277,297,316,336,358,377,397,417,438,458,476,498,516,538,557,578,596,618,636,657,677,697,717,737,756,777,796,818,837,857,878,897,917,936,957