[{"start_time":1551899780835,"click_time":1551899794396,"finger_time":1551899780845,"fix_duration":515.433391099003,"trial":0,"RT":10,"MT":13551,"sideResp":2,"stimulus":[],"xmouse":[799,799,799,799,799,799,799,799,799,799,799,799,799,799,799,799,799,799,731,684,669,663,663,663,663,662,661,659,657,657,657,657,657,657,657,657,657,657,657,657,662,681,708,783,812,834,854,870,890,934,949,957,958,958,958,958,948,927,868,842,837,834,833,833,833,833,833,833,833,833,833,829,817,783,776,776,776,776,776,778,779,781,782,785,785,785,785,785,785,785,785,785,785,785,785,785,785,785,785,785,785,785,785,785,786,786,786,786,786,786,786,786,786,786,786,786,786,786,786,786,786,786,786,786,786,786,786,786,786,786,786,786,786,786,786,786,786,786,786,786,786,786,786,786,790,792,796,801,812,815,816,816,816,816,816,816,816,816,816,816,816,816,816,816,814,814,812,812,812,812,812,812,812,812,812,812,812,812,812,812,812,812,811,811,809,808,808,808,807,806,806,806,805,803,803,802,801,801,800,800,800,800,800,800,799,799,797,797,796,796,796,796,796,796,796,796,796,796,796,802,806,812,823,849,857,866,874,879,898,915,942,956,968,980,983,987,993,1003,1039,1050,1063,1072,1081,1092,1094,1094,1094,1094,1094,1093,1080,1067,1054,1052,1052,1052,1052,1052,1052,1052,1052,1052,1052,1052,1052,1052,1052,1052,1052,1052,1052,1052,1052,1052,1052,1052,1052,1052,1052,1052,1052,1052,1052,1052,1052,1052,1052,1052,1052,1052,1052,1052,1052,1052,1052,1052,1052,1052,1052,1052,1052,1052,1052,1052,1052,1052,1052,1052,1052,1052,1052,1052,1052,1052,1052,1052,1052,1052,1052,1052,1052,1052,1052,1052,1052,1052,1052,1052,1052,1052,1052,1052,1052,1052,1052,1052,1052,1052,1052,1052,1052,1052,1052,1052,1052,1052,1052,1052,1052,1052,1052,1052,1052,1052,1052,1052,1052,1052,1052,1052,1052,1052,1052,1052,1049,1026,961,905,863,856,850,837,810,755,746,746,746,750,774,786,787,787,787,799,803,808,811,812,812,812,812,814,824,864,878,880,881,881,881,881,881,881,881,881,881,877,869,851,821,820,820,820,820,820,820,820,821,822,822,822,822,823,830,835,835,835,835,835,835,835,836,838,838,843,846,849,851,854,857,861,864,867,872,879,882,884,889,897,922,932,940,952,961,979,985,995,1005,1012,1026,1028,1029,1029,1029,1035,1035,1035,1035,1035,1035,1035,1035,1035,1035,1026,1021,1006,990,981,980,982,984,986,988,989,989,989,990,991,992,992,992,992,992,992,992,992,992,992,992,992,992,992,992,992,992,992,992,992,992,992,992,992,992,992,992,992,992,992,988,983,979,976,976,974,970,964,957,949,941,854,820,795,777,760,759,759,759,759,759,759,759,759,759,759,759,759,759,759,759,759,759,759,759,759,759,759,759,759,759,759,759,759,759,759,759,759,759,759,759,759,759,759,759,759,759,759,759,759,759,759,759,759,759,759,759,759,759,759,759,759,759,759,759,759,759,759,763,766,776,777,777,777,777,777,777,777,777,777,774,768,768,768,768,768,768,768,768,768,768,768,768,768,768,768,768,768,768,768,768,784,851,932,975,1144,1181,1194,1197,1197,1186,1166,1153,1144,1139,1137,1137,1137,1137,1137,1137,1137,1137,1137,1137,1137,1137,1137,1136,1136,1135,1135,1135,1135,1135,1135,1135,1135,1135,1135,1135,1135,1135,1135,1135,1135,1135,1135,1135,1135,1133],"ymouse":[527,527,527,527,527,527,527,527,527,527,527,527,527,527,527,527,516,498,324,270,256,254,253,253,253,254,260,266,275,276,276,276,276,276,276,276,276,276,276,276,278,285,296,319,326,331,333,334,334,331,329,328,328,328,328,333,350,382,454,494,515,534,549,558,558,558,558,558,559,559,560,564,576,598,605,605,605,605,605,605,605,604,603,601,600,600,600,600,600,600,600,600,600,600,600,600,600,600,600,600,600,600,600,600,600,600,600,600,600,600,600,600,600,600,600,600,600,600,600,600,600,600,600,600,600,600,600,600,600,600,600,600,600,600,600,600,600,600,600,600,600,600,600,600,596,595,592,589,583,581,581,580,580,580,580,580,580,580,580,580,580,580,580,580,581,581,584,585,585,585,585,585,585,585,585,585,585,585,585,585,585,585,586,590,594,597,602,605,609,612,614,615,619,628,632,635,636,637,638,638,638,638,638,638,639,639,640,640,640,640,640,640,640,640,640,640,640,640,640,633,631,627,621,610,606,602,596,594,584,575,556,547,541,534,531,528,523,515,492,483,471,460,445,427,422,422,422,422,424,433,474,503,522,525,525,525,525,525,525,525,525,525,525,525,525,525,525,525,525,525,525,525,525,525,525,525,525,525,525,525,525,525,525,525,525,525,525,525,525,525,525,525,525,525,525,525,525,525,525,525,525,525,525,525,525,525,525,525,525,525,525,525,525,525,525,525,525,525,525,525,525,525,525,525,525,525,525,525,525,525,525,525,525,525,525,525,525,525,525,525,525,525,525,525,525,525,525,525,525,525,525,525,525,525,525,525,525,525,525,525,525,525,525,525,527,542,569,594,600,600,601,609,627,655,658,658,658,656,642,632,630,630,630,624,623,620,619,618,618,618,618,618,618,618,618,618,618,618,618,618,618,618,618,618,618,618,616,616,619,620,620,620,620,620,620,620,620,619,619,619,619,619,618,615,615,615,615,615,615,615,615,615,614,612,611,609,608,607,606,603,602,599,597,594,592,591,589,584,570,564,561,556,552,545,543,539,536,533,527,526,525,525,525,520,519,519,519,519,519,519,518,518,517,520,522,527,536,549,564,570,577,585,592,605,611,618,626,634,643,643,643,643,643,643,643,643,643,643,643,643,643,643,643,643,643,643,643,643,643,643,643,643,643,643,643,643,643,643,643,643,643,643,643,643,643,644,645,645,646,640,638,638,638,638,638,638,638,638,638,638,638,638,638,638,638,638,638,638,638,638,638,638,638,638,638,638,638,638,638,638,638,638,638,638,638,638,638,638,638,638,638,638,638,638,638,638,638,638,638,638,638,638,638,638,638,638,638,638,638,638,638,638,638,638,638,638,635,633,613,600,586,578,574,573,573,573,573,573,578,590,591,591,591,591,591,591,591,591,591,591,591,591,591,591,591,591,591,591,591,575,457,227,103,0,0,0,0,0,0,0,0,0,0,0,0,0,0,0,0,0,0,0,0,0,0,0,0,0,0,0,0,0,0,0,0,0,0,0,0,0,0,0,0,0,0,0,0,0,1],"timestamp_mouse":[10,21,40,61,80,100,121,141,160,181,199,221,241,260,279,300,320,340,359,380,400,420,439,461,481,500,520,541,560,580,599,620,641,660,680,700,720,741,760,779,800,821,840,860,880,901,920,939,960,980,999,1020,1041,1061,1081,1101,1119,1140,1160,1181,1200,1220,1240,1260,1280,1300,1321,1341,1361,1380,1400,1420,1441,1460,1480,1500,1521,1539,1560,1581,1600,1620,1639,1660,1681,1699,1720,1740,1759,1780,1801,1819,1840,1861,1881,1899,1919,1940,1959,1980,1999,2021,2041,2060,2080,2099,2119,2140,2160,2181,2201,2221,2240,2260,2280,2301,2320,2340,2360,2379,2400,2420,2441,2459,2479,2500,2520,2540,2559,2580,2600,2620,2641,2659,2680,2700,2719,2741,2759,2781,2799,2821,2839,2859,2880,2900,2920,2941,2959,2981,3000,3020,3041,3061,3079,3100,3121,3140,3159,3181,3201,3219,3241,3261,3280,3300,3320,3341,3361,3379,3400,3421,3439,3459,3481,3501,3520,3540,3559,3581,3601,3620,3640,3660,3680,3700,3720,3739,3760,3780,3799,3819,3839,3860,3880,3900,3920,3939,3960,3980,3999,4021,4041,4061,4081,4100,4119,4141,4160,4181,4200,4220,4239,4259,4280,4301,4321,4340,4359,4381,4400,4420,4440,4460,4480,4499,4519,4541,4560,4580,4599,4619,4640,4660,4679,4700,4720,4740,4760,4780,4799,4820,4840,4860,4879,4901,4920,4939,4959,4980,4999,5020,5040,5060,5080,5100,5120,5140,5160,5180,5200,5219,5240,5260,5281,5300,5320,5341,5360,5380,5400,5420,5439,5461,5480,5500,5520,5540,5560,5580,5600,5619,5640,5660,5680,5700,5719,5741,5760,5780,5801,5819,5840,5860,5880,5900,5920,5941,5960,5980,5999,6020,6040,6061,6080,6100,6121,6140,6161,6180,6200,6219,6239,6260,6280,6301,6321,6340,6360,6381,6399,6420,6439,6460,6480,6501,6520,6541,6560,6580,6600,6620,6640,6660,6680,6699,6721,6740,6760,6781,6800,6820,6841,6860,6879,6900,6920,6941,6960,6980,7001,7020,7040,7060,7081,7100,7120,7140,7160,7180,7201,7219,7240,7260,7280,7301,7320,7341,7361,7380,7400,7419,7440,7460,7481,7500,7520,7540,7559,7580,7601,7620,7640,7659,7679,7701,7720,7740,7761,7780,7800,7821,7840,7860,7880,7900,7920,7940,7960,7980,8000,8021,8041,8059,8079,8100,8120,8141,8160,8180,8199,8219,8241,8261,8279,8300,8321,8340,8361,8381,8401,8420,8440,8460,8480,8501,8519,8539,8559,8580,8601,8621,8640,8660,8680,8701,8720,8741,8760,8779,8800,8820,8840,8860,8880,8900,8920,8940,8960,8980,9000,9019,9040,9060,9081,9100,9120,9140,9160,9180,9200,9220,9240,9260,9280,9301,9320,9340,9360,9380,9399,9420,9440,9460,9481,9499,9520,9541,9560,9579,9599,9620,9640,9660,9679,9700,9719,9741,9760,9780,9800,9820,9839,9860,9879,9899,9920,9940,9960,9981,10000,10020,10040,10060,10080,10100,10120,10139,10160,10181,10201,10220,10241,10260,10281,10300,10320,10340,10360,10379,10399,10419,10441,10459,10479,10500,10520,10540,10559,10580,10600,10620,10639,10660,10680,10700,10720,10741,10760,10779,10801,10821,10840,10860,10881,10900,10921,10940,10960,10981,10999,11020,11041,11061,11079,11100,11120,11140,11161,11181,11200,11219,11241,11261,11279,11301,11319,11341,11360,11380,11401,11419,11441,11461,11480,11500,11520,11541,11560,11580,11601,11621,11641,11661,11680,11701,11720,11739,11759,11780,11799,11821,11840,11860,11880,11901,11920,11939,11959,11981,12000,12020,12039,12060,12080,12100,12119,12140,12160,12181,12199,12220,12239,12260,12279,12300,12321,12340,12359,12381,12400,12420,12439,12460,12479,12501,12519,12539,12561,12580,12600,12620,12640,12660,12680,12700,12720,12740,12760,12781,12799,12820,12841,12861,12880,12901,12920,12940,12960,12981,13000,13020,13040,13060,13081,13100,13119,13140,13159,13181,13200,13220,13240,13260,13281,13300,13321,13340,13359,13379,13399,13419,13441,13460,13480,13500,13520,13540,13560],"xSR":741.5,"ySR":501.8,"xT1":424.9,"yT1":0,"xT2":1058.1,"yT2":0,"toosoon":0,"cond_shown":"Incongruent","ratio_trial":300,"L_num":3,"L_den":6,"R_num":4,"R_den":20,"correct_side":1,"subjID":"AnaSofiaMatallanaSanchez24","gender":"1","age":"11","school":"6","test":{"fix_dur":[250,1500],"timestim":1000,"targets_dim":[100,100],"targets_relative_coord":[0.3,0.7],"size_stim":[880,420],"start_dim":[100,100],"size_start":[300,300],"size_fix":60,"samplingrate":20,"img_types":["Congruent","Incongruent"],"ratios":[100,200,300],"rep_conds":19,"nTrials":120,"trials_to_rest":500,"Trials_order":[5,37,54,57,24,78,31,72,48,18,102,62,20,13,104,68,98,88,99,51,116,56,15,95,22,109,74,6,79,114,83,94,96,49,7,41,101,44,118,3,69,34,45,14,50,11,38,89,32,46,40,60,108,27,17,82,67,52,90,76,65,10,61,2,119,85,111,55,47,92,75,71,64,63,84,0,21,9,59,1,107,100,43,12,19,23,26,106,112,35,91,115,39,77,81,29,16,58,28,105,97,8,93,25,36,4,110,103,113,80,117,42,70,86,33,30,66,53,73,87],"cond_shown":["Incongruent","Incongruent","Congruent","Incongruent","Congruent","Congruent","Incongruent","Congruent","Congruent","Congruent","Congruent","Congruent","Congruent","Incongruent","Congruent","Congruent","Congruent","Congruent","Incongruent","Incongruent","Congruent","Congruent","Incongruent","Incongruent","Congruent","Incongruent","Congruent","Congruent","Incongruent","Congruent","Incongruent","Congruent","Congruent","Incongruent","Incongruent","Incongruent","Incongruent","Congruent","Congruent","Incongruent","Incongruent","Congruent","Incongruent","Congruent","Congruent","Incongruent","Congruent","Incongruent","Congruent","Congruent","Congruent","Congruent","Congruent","Incongruent","Incongruent","Congruent","Incongruent","Congruent","Congruent","Congruent","Incongruent","Congruent","Incongruent","Congruent","Incongruent","Incongruent","Incongruent","Incongruent","Incongruent","Congruent","Incongruent","Incongruent","Congruent","Incongruent","Congruent","Congruent","Incongruent","Incongruent","Incongruent","Incongruent","Incongruent","Congruent","Incongruent","Congruent","Incongruent","Incongruent","Congruent","Congruent","Congruent","Incongruent","Incongruent","Incongruent","Incongruent","Incongruent","Incongruent","Incongruent","Congruent","Congruent","Congruent","Incongruent","Incongruent","Congruent","Incongruent","Incongruent","Congruent","Congruent","Congruent","Incongruent","Incongruent","Congruent","Incongruent","Congruent","Congruent","Congruent","Incongruent","Congruent","Congruent","Incongruent","Incongruent","Incongruent"],"ratio_trial":[300,100,100,200,100,100,100,100,100,100,100,200,200,100,200,200,200,300,200,200,200,200,200,300,300,100,200,100,100,100,300,300,100,100,100,300,300,200,300,200,200,300,200,200,200,300,200,300,200,300,300,100,100,200,300,300,100,300,100,300,300,300,100,200,300,100,200,100,300,200,200,300,300,200,100,100,200,200,300,100,300,300,100,100,100,300,200,300,300,300,100,100,200,300,200,300,300,300,300,200,100,200,200,100,100,300,200,100,300,200,200,100,300,200,200,100,100,300,100,200],"left_num":[3,8,4,7,1,7,9,6,7,11,12,9,1,13,13,7,11,4,4,11,20,16,1,3,18,12,9,3,8,6,3,1,15,13,8,4,3,3,24,4,4,8,4,9,20,2,13,13,3,4,11,11,7,7,4,3,17,20,10,2,13,24,9,6,13,6,3,3,13,3,7,8,5,7,3,12,1,1,4,11,4,1,4,6,12,4,12,1,24,3,3,12,4,4,7,13,11,3,1,7,1,21,1,8,11,20,7,9,4,5,1,7,12,3,3,11,11,1,2,14],"right_num":[4,6,6,6,3,15,20,5,9,6,13,13,21,12,14,2,3,13,14,3,9,9,2,4,9,9,13,4,6,15,4,3,13,12,1,2,4,14,2,14,6,1,6,13,9,6,14,12,7,2,2,4,15,8,2,11,10,14,3,10,12,2,13,3,12,7,1,11,12,7,12,14,7,14,4,13,2,2,8,9,2,11,8,15,2,6,6,3,2,4,4,9,6,2,14,12,2,2,8,8,8,2,3,6,6,13,18,14,2,14,3,15,2,9,11,6,4,3,6,12],"left_den":[6,16,8,15,2,14,10,20,14,22,30,30,2,26,26,21,22,20,6,20,25,30,3,6,20,24,30,20,16,12,6,5,25,26,20,20,6,6,30,6,5,16,5,30,25,4,26,26,10,5,22,22,14,10,20,12,30,25,25,20,26,30,15,15,26,10,10,5,26,10,10,10,25,10,20,30,3,3,5,22,20,5,8,12,30,5,15,5,30,6,6,24,5,20,10,26,22,6,30,10,2,30,2,16,22,25,15,15,20,10,2,14,24,12,4,22,22,2,4,30],"right_den":[20,10,10,9,5,25,25,25,15,15,26,26,30,20,20,15,10,26,30,4,15,27,15,20,15,15,26,16,10,25,20,6,26,20,2,4,20,20,4,30,10,5,10,26,15,30,20,15,14,4,10,10,25,16,4,20,15,28,10,25,15,4,26,15,15,14,2,22,15,14,24,28,14,28,16,26,15,15,16,15,4,22,20,25,4,12,10,6,4,20,10,15,10,4,28,15,10,10,24,16,20,4,10,10,15,26,27,28,4,20,10,25,10,20,20,15,10,15,15,18],"correct_side":[1,2,2,2,2,2,1,1,2,1,2,2,2,2,2,1,1,2,1,2,1,1,1,1,1,2,2,2,2,2,1,2,1,2,2,2,1,2,1,1,1,1,1,2,1,1,2,2,2,1,1,1,2,1,2,2,2,1,1,2,2,1,1,1,2,1,2,1,2,2,1,1,2,1,2,2,1,1,1,2,2,2,1,2,2,1,1,2,1,1,1,2,1,2,1,2,1,1,2,1,1,1,1,2,1,1,2,1,2,2,1,2,1,2,1,1,1,1,1,2],"img_shown":["img2/300/Incongruent/L/I_Dist_300_LN_3_LD_6_RN_4_RD_20_0.png","img2/100/Incongruent/R/I_Dist_100_LN_8_LD_16_RN_6_RD_10_1.png","img2/100/Congruent/R/C_Dist_100_LN_4_LD_8_RN_6_RD_10_1.png","img2/200/Incongruent/R/I_Dist_200_LN_7_LD_15_RN_6_RD_9_1.png","img2/100/Congruent/R/C_Dist_100_LN_1_LD_2_RN_3_RD_5_1.png","img2/100/Congruent/R/C_Dist_100_LN_7_LD_14_RN_15_RD_25_1.png","img2/100/Incongruent/L/I_Dist_100_LN_9_LD_10_RN_20_RD_25_0.png","img2/100/Congruent/L/C_Dist_100_LN_6_LD_20_RN_5_RD_25_0.png","img2/100/Congruent/R/C_Dist_100_LN_7_LD_14_RN_9_RD_15_1.png","img2/100/Congruent/L/C_Dist_100_LN_11_LD_22_RN_6_RD_15_0.png","img2/100/Congruent/R/C_Dist_100_LN_12_LD_30_RN_13_RD_26_1.png","img2/200/Congruent/R/C_Dist_200_LN_9_LD_30_RN_13_RD_26_1.png","img2/200/Congruent/R/C_Dist_200_LN_1_LD_2_RN_21_RD_30_1.png","img2/100/Incongruent/R/I_Dist_100_LN_13_LD_26_RN_12_RD_20_1.png","img2/200/Congruent/R/C_Dist_200_LN_13_LD_26_RN_14_RD_20_1.png","img2/200/Congruent/L/C_Dist_200_LN_7_LD_21_RN_2_RD_15_0.png","img2/200/Congruent/L/C_Dist_200_LN_11_LD_22_RN_3_RD_10_0.png","img2/300/Congruent/R/C_Dist_300_LN_4_LD_20_RN_13_RD_26_1.png","img2/200/Incongruent/L/I_Dist_200_LN_4_LD_6_RN_14_RD_30_0.png","img2/200/Incongruent/R/I_Dist_200_LN_11_LD_20_RN_3_RD_4_1.png","img2/200/Congruent/L/C_Dist_200_LN_20_LD_25_RN_9_RD_15_0.png","img2/200/Congruent/L/C_Dist_200_LN_16_LD_30_RN_9_RD_27_0.png","img2/200/Incongruent/L/I_Dist_200_LN_1_LD_3_RN_2_RD_15_0.png","img2/300/Incongruent/L/I_Dist_300_LN_3_LD_6_RN_4_RD_20_0.png","img2/300/Congruent/L/C_Dist_300_LN_18_LD_20_RN_9_RD_15_0.png","img2/100/Incongruent/R/I_Dist_100_LN_12_LD_24_RN_9_RD_15_1.png","img2/200/Congruent/R/C_Dist_200_LN_9_LD_30_RN_13_RD_26_1.png","img2/100/Congruent/R/C_Dist_100_LN_3_LD_20_RN_4_RD_16_1.png","img2/100/Incongruent/R/I_Dist_100_LN_8_LD_16_RN_6_RD_10_1.png","img2/100/Congruent/R/C_Dist_100_LN_6_LD_12_RN_15_RD_25_1.png","img2/300/Incongruent/L/I_Dist_300_LN_3_LD_6_RN_4_RD_20_0.png","img2/300/Congruent/R/C_Dist_300_LN_1_LD_5_RN_3_RD_6_1.png","img2/100/Congruent/L/C_Dist_100_LN_15_LD_25_RN_13_RD_26_0.png","img2/100/Incongruent/R/I_Dist_100_LN_13_LD_26_RN_12_RD_20_1.png","img2/100/Incongruent/R/I_Dist_100_LN_8_LD_20_RN_1_RD_2_1.png","img2/300/Incongruent/R/I_Dist_300_LN_4_LD_20_RN_2_RD_4_1.png","img2/300/Incongruent/L/I_Dist_300_LN_3_LD_6_RN_4_RD_20_0.png","img2/200/Congruent/R/C_Dist_200_LN_3_LD_6_RN_14_RD_20_1.png","img2/300/Congruent/L/C_Dist_300_LN_24_LD_30_RN_2_RD_4_0.png","img2/200/Incongruent/L/I_Dist_200_LN_4_LD_6_RN_14_RD_30_0.png","img2/200/Incongruent/L/I_Dist_200_LN_4_LD_5_RN_6_RD_10_0.png","img2/300/Congruent/L/C_Dist_300_LN_8_LD_16_RN_1_RD_5_0.png","img2/200/Incongruent/L/I_Dist_200_LN_4_LD_5_RN_6_RD_10_0.png","img2/200/Congruent/R/C_Dist_200_LN_9_LD_30_RN_13_RD_26_1.png","img2/200/Congruent/L/C_Dist_200_LN_20_LD_25_RN_9_RD_15_0.png","img2/300/Incongruent/L/I_Dist_300_LN_2_LD_4_RN_6_RD_30_0.png","img2/200/Congruent/R/C_Dist_200_LN_13_LD_26_RN_14_RD_20_1.png","img2/300/Incongruent/R/I_Dist_300_LN_13_LD_26_RN_12_RD_15_1.png","img2/200/Congruent/R/C_Dist_200_LN_3_LD_10_RN_7_RD_14_1.png","img2/300/Congruent/L/C_Dist_300_LN_4_LD_5_RN_2_RD_4_0.png","img2/300/Congruent/L/C_Dist_300_LN_11_LD_22_RN_2_RD_10_0.png","img2/100/Congruent/L/C_Dist_100_LN_11_LD_22_RN_4_RD_10_0.png","img2/100/Congruent/R/C_Dist_100_LN_7_LD_14_RN_15_RD_25_1.png","img2/200/Incongruent/L/I_Dist_200_LN_7_LD_10_RN_8_RD_16_0.png","img2/300/Incongruent/R/I_Dist_300_LN_4_LD_20_RN_2_RD_4_1.png","img2/300/Congruent/R/C_Dist_300_LN_3_LD_12_RN_11_RD_20_1.png","img2/100/Incongruent/R/I_Dist_100_LN_17_LD_30_RN_10_RD_15_1.png","img2/300/Congruent/L/C_Dist_300_LN_20_LD_25_RN_14_RD_28_0.png","img2/100/Congruent/L/C_Dist_100_LN_10_LD_25_RN_3_RD_10_0.png","img2/300/Congruent/R/C_Dist_300_LN_2_LD_20_RN_10_RD_25_1.png","img2/300/Incongruent/R/I_Dist_300_LN_13_LD_26_RN_12_RD_15_1.png","img2/300/Congruent/L/C_Dist_300_LN_24_LD_30_RN_2_RD_4_0.png","img2/100/Incongruent/L/I_Dist_100_LN_9_LD_15_RN_13_RD_26_0.png","img2/200/Congruent/L/C_Dist_200_LN_6_LD_15_RN_3_RD_15_0.png","img2/300/Incongruent/R/I_Dist_300_LN_13_LD_26_RN_12_RD_15_1.png","img2/100/Incongruent/L/I_Dist_100_LN_6_LD_10_RN_7_RD_14_0.png","img2/200/Incongruent/R/I_Dist_200_LN_3_LD_10_RN_1_RD_2_1.png","img2/100/Incongruent/L/I_Dist_100_LN_3_LD_5_RN_11_RD_22_0.png","img2/300/Incongruent/R/I_Dist_300_LN_13_LD_26_RN_12_RD_15_1.png","img2/200/Congruent/R/C_Dist_200_LN_3_LD_10_RN_7_RD_14_1.png","img2/200/Incongruent/L/I_Dist_200_LN_7_LD_10_RN_12_RD_24_0.png","img2/300/Incongruent/L/I_Dist_300_LN_8_LD_10_RN_14_RD_28_0.png","img2/300/Congruent/R/C_Dist_300_LN_5_LD_25_RN_7_RD_14_1.png","img2/200/Incongruent/L/I_Dist_200_LN_7_LD_10_RN_14_RD_28_0.png","img2/100/Congruent/R/C_Dist_100_LN_3_LD_20_RN_4_RD_16_1.png","img2/100/Congruent/R/C_Dist_100_LN_12_LD_30_RN_13_RD_26_1.png","img2/200/Incongruent/L/I_Dist_200_LN_1_LD_3_RN_2_RD_15_0.png","img2/200/Incongruent/L/I_Dist_200_LN_1_LD_3_RN_2_RD_15_0.png","img2/300/Incongruent/L/I_Dist_300_LN_4_LD_5_RN_8_RD_16_0.png","img2/100/Incongruent/R/I_Dist_100_LN_11_LD_22_RN_9_RD_15_1.png","img2/300/Incongruent/R/I_Dist_300_LN_4_LD_20_RN_2_RD_4_1.png","img2/300/Congruent/R/C_Dist_300_LN_1_LD_5_RN_11_RD_22_1.png","img2/100/Incongruent/L/I_Dist_100_LN_4_LD_8_RN_8_RD_20_0.png","img2/100/Congruent/R/C_Dist_100_LN_6_LD_12_RN_15_RD_25_1.png","img2/100/Incongruent/R/I_Dist_100_LN_12_LD_30_RN_2_RD_4_1.png","img2/300/Incongruent/L/I_Dist_300_LN_4_LD_5_RN_6_RD_12_0.png","img2/200/Congruent/L/C_Dist_200_LN_12_LD_15_RN_6_RD_10_0.png","img2/300/Congruent/R/C_Dist_300_LN_1_LD_5_RN_3_RD_6_1.png","img2/300/Congruent/L/C_Dist_300_LN_24_LD_30_RN_2_RD_4_0.png","img2/300/Incongruent/L/I_Dist_300_LN_3_LD_6_RN_4_RD_20_0.png","img2/100/Incongruent/L/I_Dist_100_LN_3_LD_6_RN_4_RD_10_0.png","img2/100/Incongruent/R/I_Dist_100_LN_12_LD_24_RN_9_RD_15_1.png","img2/200/Incongruent/L/I_Dist_200_LN_4_LD_5_RN_6_RD_10_0.png","img2/300/Incongruent/R/I_Dist_300_LN_4_LD_20_RN_2_RD_4_1.png","img2/200/Incongruent/L/I_Dist_200_LN_7_LD_10_RN_14_RD_28_0.png","img2/300/Incongruent/R/I_Dist_300_LN_13_LD_26_RN_12_RD_15_1.png","img2/300/Congruent/L/C_Dist_300_LN_11_LD_22_RN_2_RD_10_0.png","img2/300/Congruent/L/C_Dist_300_LN_3_LD_6_RN_2_RD_10_0.png","img2/300/Congruent/R/C_Dist_300_LN_1_LD_30_RN_8_RD_24_1.png","img2/200/Incongruent/L/I_Dist_200_LN_7_LD_10_RN_8_RD_16_0.png","img2/100/Incongruent/L/I_Dist_100_LN_1_LD_2_RN_8_RD_20_0.png","img2/200/Congruent/L/C_Dist_200_LN_21_LD_30_RN_2_RD_4_0.png","img2/200/Incongruent/L/I_Dist_200_LN_1_LD_2_RN_3_RD_10_0.png","img2/100/Incongruent/R/I_Dist_100_LN_8_LD_16_RN_6_RD_10_1.png","img2/100/Congruent/L/C_Dist_100_LN_11_LD_22_RN_6_RD_15_0.png","img2/300/Congruent/L/C_Dist_300_LN_20_LD_25_RN_13_RD_26_0.png","img2/200/Congruent/R/C_Dist_200_LN_7_LD_15_RN_18_RD_27_1.png","img2/100/Incongruent/L/I_Dist_100_LN_9_LD_15_RN_14_RD_28_0.png","img2/300/Incongruent/R/I_Dist_300_LN_4_LD_20_RN_2_RD_4_1.png","img2/200/Congruent/R/C_Dist_200_LN_5_LD_10_RN_14_RD_20_1.png","img2/200/Incongruent/L/I_Dist_200_LN_1_LD_2_RN_3_RD_10_0.png","img2/100/Congruent/R/C_Dist_100_LN_7_LD_14_RN_15_RD_25_1.png","img2/300/Congruent/L/C_Dist_300_LN_12_LD_24_RN_2_RD_10_0.png","img2/200/Congruent/R/C_Dist_200_LN_3_LD_12_RN_9_RD_20_1.png","img2/200/Incongruent/L/I_Dist_200_LN_3_LD_4_RN_11_RD_20_0.png","img2/100/Congruent/L/C_Dist_100_LN_11_LD_22_RN_6_RD_15_0.png","img2/100/Congruent/L/C_Dist_100_LN_11_LD_22_RN_4_RD_10_0.png","img2/300/Incongruent/L/I_Dist_300_LN_1_LD_2_RN_3_RD_15_0.png","img2/100/Incongruent/L/I_Dist_100_LN_2_LD_4_RN_6_RD_15_0.png","img2/200/Incongruent/R/I_Dist_200_LN_14_LD_30_RN_12_RD_18_1.png"],"dist100_C":[["C_Dist_100_LN_10_LD_25_RN_3_RD_10_0.png","C_Dist_100_LN_11_LD_22_RN_4_RD_10_0.png","C_Dist_100_LN_11_LD_22_RN_6_RD_15_0.png","C_Dist_100_LN_15_LD_25_RN_13_RD_26_0.png","C_Dist_100_LN_3_LD_6_RN_2_RD_5_0.png","C_Dist_100_LN_6_LD_20_RN_5_RD_25_0.png","C_Dist_100_LN_8_LD_16_RN_2_RD_5_0.png","C_Dist_100_LN_9_LD_15_RN_8_RD_16_0.png"],["C_Dist_100_LN_1_LD_2_RN_18_RD_30_1.png","C_Dist_100_LN_1_LD_2_RN_3_RD_5_1.png","C_Dist_100_LN_12_LD_30_RN_13_RD_26_1.png","C_Dist_100_LN_2_LD_5_RN_11_RD_22_1.png","C_Dist_100_LN_2_LD_5_RN_6_RD_12_1.png","C_Dist_100_LN_3_LD_20_RN_4_RD_16_1.png","C_Dist_100_LN_4_LD_10_RN_15_RD_30_1.png","C_Dist_100_LN_4_LD_8_RN_6_RD_10_1.png","C_Dist_100_LN_6_LD_12_RN_15_RD_25_1.png","C_Dist_100_LN_7_LD_14_RN_15_RD_25_1.png","C_Dist_100_LN_7_LD_14_RN_9_RD_15_1.png"]],"dist100_I":[["I_Dist_100_LN_1_LD_2_RN_8_RD_20_0.png","I_Dist_100_LN_2_LD_4_RN_6_RD_15_0.png","I_Dist_100_LN_2_LD_4_RN_8_RD_20_0.png","I_Dist_100_LN_3_LD_5_RN_11_RD_22_0.png","I_Dist_100_LN_3_LD_5_RN_8_RD_16_0.png","I_Dist_100_LN_3_LD_6_RN_4_RD_10_0.png","I_Dist_100_LN_3_LD_9_RN_7_RD_30_0.png","I_Dist_100_LN_4_LD_8_RN_8_RD_20_0.png","I_Dist_100_LN_6_LD_10_RN_11_RD_22_0.png","I_Dist_100_LN_6_LD_10_RN_13_RD_26_0.png","I_Dist_100_LN_6_LD_10_RN_7_RD_14_0.png","I_Dist_100_LN_9_LD_10_RN_20_RD_25_0.png","I_Dist_100_LN_9_LD_15_RN_13_RD_26_0.png","I_Dist_100_LN_9_LD_15_RN_14_RD_28_0.png"],["I_Dist_100_LN_10_LD_25_RN_8_RD_16_1.png","I_Dist_100_LN_10_LD_25_RN_9_RD_18_1.png","I_Dist_100_LN_11_LD_22_RN_9_RD_15_1.png","I_Dist_100_LN_12_LD_24_RN_9_RD_15_1.png","I_Dist_100_LN_12_LD_30_RN_2_RD_4_1.png","I_Dist_100_LN_13_LD_26_RN_12_RD_20_1.png","I_Dist_100_LN_13_LD_26_RN_6_RD_10_1.png","I_Dist_100_LN_17_LD_30_RN_10_RD_15_1.png","I_Dist_100_LN_6_LD_12_RN_3_RD_5_1.png","I_Dist_100_LN_8_LD_16_RN_6_RD_10_1.png","I_Dist_100_LN_8_LD_20_RN_1_RD_2_1.png","I_Dist_100_LN_9_LD_18_RN_6_RD_10_1.png"]],"dist100_S":[["E_Dist_100_LN_2_LD_12_RN_2_RD_30_0.png","E_Dist_100_LN_6_LD_10_RN_6_RD_12_0.png"],["E_Dist_100_LN_6_LD_12_RN_6_RD_10_1.png"]],"dist200_C":[["C_Dist_200_LN_11_LD_22_RN_3_RD_10_0.png","C_Dist_200_LN_12_LD_15_RN_6_RD_10_0.png","C_Dist_200_LN_12_LD_20_RN_6_RD_15_0.png","C_Dist_200_LN_14_LD_28_RN_6_RD_20_0.png","C_Dist_200_LN_15_LD_25_RN_4_RD_10_0.png","C_Dist_200_LN_16_LD_20_RN_12_RD_20_0.png","C_Dist_200_LN_16_LD_30_RN_9_RD_27_0.png","C_Dist_200_LN_20_LD_25_RN_9_RD_15_0.png","C_Dist_200_LN_21_LD_30_RN_2_RD_4_0.png","C_Dist_200_LN_4_LD_10_RN_3_RD_15_0.png","C_Dist_200_LN_4_LD_8_RN_3_RD_10_0.png","C_Dist_200_LN_6_LD_15_RN_3_RD_15_0.png","C_Dist_200_LN_7_LD_21_RN_2_RD_15_0.png","C_Dist_200_LN_8_LD_15_RN_2_RD_6_0.png","C_Dist_200_LN_8_LD_15_RN_3_RD_9_0.png","C_Dist_200_LN_8_LD_15_RN_7_RD_21_0.png","C_Dist_200_LN_9_LD_20_RN_4_RD_16_0.png"],["C_Dist_200_LN_1_LD_2_RN_21_RD_30_1.png","C_Dist_200_LN_13_LD_26_RN_14_RD_20_1.png","C_Dist_200_LN_3_LD_10_RN_11_RD_22_1.png","C_Dist_200_LN_3_LD_10_RN_14_RD_28_1.png","C_Dist_200_LN_3_LD_10_RN_7_RD_14_1.png","C_Dist_200_LN_3_LD_12_RN_9_RD_20_1.png","C_Dist_200_LN_3_LD_6_RN_14_RD_20_1.png","C_Dist_200_LN_5_LD_10_RN_14_RD_20_1.png","C_Dist_200_LN_6_LD_12_RN_7_RD_10_1.png","C_Dist_200_LN_6_LD_20_RN_11_RD_22_1.png","C_Dist_200_LN_7_LD_15_RN_18_RD_27_1.png","C_Dist_200_LN_9_LD_30_RN_13_RD_26_1.png"]],"dist200_I":[["I_Dist_200_LN_1_LD_2_RN_3_RD_10_0.png","I_Dist_200_LN_1_LD_3_RN_2_RD_15_0.png","I_Dist_200_LN_3_LD_4_RN_11_RD_20_0.png","I_Dist_200_LN_4_LD_5_RN_6_RD_10_0.png","I_Dist_200_LN_4_LD_6_RN_14_RD_30_0.png","I_Dist_200_LN_7_LD_10_RN_12_RD_24_0.png","I_Dist_200_LN_7_LD_10_RN_14_RD_28_0.png","I_Dist_200_LN_7_LD_10_RN_8_RD_16_0.png"],["I_Dist_200_LN_11_LD_20_RN_3_RD_4_1.png","I_Dist_200_LN_14_LD_30_RN_12_RD_18_1.png","I_Dist_200_LN_14_LD_30_RN_6_RD_9_1.png","I_Dist_200_LN_3_LD_10_RN_1_RD_2_1.png","I_Dist_200_LN_4_LD_30_RN_1_RD_3_1.png","I_Dist_200_LN_6_LD_20_RN_3_RD_6_1.png","I_Dist_200_LN_7_LD_15_RN_4_RD_6_1.png","I_Dist_200_LN_7_LD_15_RN_6_RD_9_1.png","I_Dist_200_LN_9_LD_15_RN_8_RD_10_1.png"]],"dist200_S":[["E_Dist_200_LN_3_LD_6_RN_3_RD_10_0.png"],["E_Dist_200_LN_3_LD_10_RN_3_RD_6_1.png"]],"dist300_C":[["C_Dist_300_LN_11_LD_22_RN_1_RD_5_0.png","C_Dist_300_LN_11_LD_22_RN_2_RD_10_0.png","C_Dist_300_LN_11_LD_22_RN_4_RD_20_0.png","C_Dist_300_LN_12_LD_24_RN_2_RD_10_0.png","C_Dist_300_LN_18_LD_20_RN_9_RD_15_0.png","C_Dist_300_LN_20_LD_25_RN_13_RD_26_0.png","C_Dist_300_LN_20_LD_25_RN_14_RD_28_0.png","C_Dist_300_LN_20_LD_25_RN_5_RD_10_0.png","C_Dist_300_LN_20_LD_25_RN_8_RD_16_0.png","C_Dist_300_LN_20_LD_25_RN_9_RD_18_0.png","C_Dist_300_LN_24_LD_30_RN_2_RD_4_0.png","C_Dist_300_LN_24_LD_30_RN_8_RD_16_0.png","C_Dist_300_LN_3_LD_6_RN_2_RD_10_0.png","C_Dist_300_LN_4_LD_10_RN_1_RD_10_0.png","C_Dist_300_LN_4_LD_5_RN_2_RD_4_0.png","C_Dist_300_LN_8_LD_16_RN_1_RD_5_0.png","C_Dist_300_LN_9_LD_10_RN_3_RD_5_0.png"],["C_Dist_300_LN_1_LD_20_RN_7_RD_20_1.png","C_Dist_300_LN_1_LD_3_RN_19_RD_30_1.png","C_Dist_300_LN_1_LD_30_RN_8_RD_24_1.png","C_Dist_300_LN_1_LD_5_RN_11_RD_22_1.png","C_Dist_300_LN_1_LD_5_RN_3_RD_6_1.png","C_Dist_300_LN_1_LD_5_RN_6_RD_12_1.png","C_Dist_300_LN_2_LD_10_RN_12_RD_24_1.png","C_Dist_300_LN_2_LD_20_RN_10_RD_25_1.png","C_Dist_300_LN_3_LD_12_RN_11_RD_20_1.png","C_Dist_300_LN_3_LD_6_RN_4_RD_5_1.png","C_Dist_300_LN_4_LD_20_RN_13_RD_26_1.png","C_Dist_300_LN_5_LD_25_RN_6_RD_12_1.png","C_Dist_300_LN_5_LD_25_RN_7_RD_14_1.png","C_Dist_300_LN_7_LD_14_RN_20_RD_25_1.png","C_Dist_300_LN_8_LD_15_RN_10_RD_12_1.png"]],"dist300_I":[["I_Dist_300_LN_1_LD_2_RN_2_RD_10_0.png","I_Dist_300_LN_1_LD_2_RN_3_RD_15_0.png","I_Dist_300_LN_2_LD_4_RN_6_RD_30_0.png","I_Dist_300_LN_3_LD_6_RN_4_RD_20_0.png","I_Dist_300_LN_4_LD_5_RN_6_RD_12_0.png","I_Dist_300_LN_4_LD_5_RN_8_RD_16_0.png","I_Dist_300_LN_7_LD_10_RN_8_RD_20_0.png","I_Dist_300_LN_8_LD_10_RN_14_RD_28_0.png","I_Dist_300_LN_8_LD_10_RN_9_RD_18_0.png"],["I_Dist_300_LN_13_LD_26_RN_12_RD_15_1.png","I_Dist_300_LN_4_LD_20_RN_2_RD_4_1.png"]],"dist300_S":[["E_Dist_300_LN_9_LD_12_RN_9_RD_20_0.png"],["E_Dist_300_LN_18_LD_30_RN_18_RD_20_1.png","E_Dist_300_LN_3_LD_10_RN_3_RD_5_1.png","E_Dist_300_LN_9_LD_20_RN_9_RD_12_1.png"]],"dist500_C":[["C_Dist_500_LN_10_LD_13_RN_7_RD_26_0.png","C_Dist_500_LN_10_LD_15_RN_4_RD_24_0.png","C_Dist_500_LN_12_LD_16_RN_3_RD_12_0.png","C_Dist_500_LN_12_LD_18_RN_4_RD_24_0.png","C_Dist_500_LN_15_LD_18_RN_5_RD_15_0.png","C_Dist_500_LN_15_LD_20_RN_1_RD_4_0.png","C_Dist_500_LN_18_LD_27_RN_1_RD_6_0.png","C_Dist_500_LN_20_LD_24_RN_1_RD_3_0.png","C_Dist_500_LN_20_LD_24_RN_3_RD_9_0.png","C_Dist_500_LN_20_LD_24_RN_7_RD_21_0.png","C_Dist_500_LN_20_LD_28_RN_3_RD_14_0.png","C_Dist_500_LN_21_LD_28_RN_6_RD_24_0.png","C_Dist_500_LN_22_LD_28_RN_2_RD_7_0.png","C_Dist_500_LN_25_LD_30_RN_9_RD_27_0.png","C_Dist_500_LN_4_LD_6_RN_1_RD_6_0.png","C_Dist_500_LN_5_LD_6_RN_2_RD_6_0.png","C_Dist_500_LN_6_LD_9_RN_1_RD_6_0.png","C_Dist_500_LN_7_LD_10_RN_1_RD_5_0.png","C_Dist_500_LN_8_LD_12_RN_1_RD_6_0.png","C_Dist_500_LN_8_LD_12_RN_4_RD_24_0.png"],["C_Dist_500_LN_1_LD_4_RN_12_RD_16_1.png","C_Dist_500_LN_1_LD_4_RN_9_RD_12_1.png","C_Dist_500_LN_1_LD_9_RN_11_RD_18_1.png","C_Dist_500_LN_10_LD_24_RN_22_RD_24_1.png","C_Dist_500_LN_2_LD_12_RN_10_RD_15_1.png","C_Dist_500_LN_2_LD_12_RN_12_RD_18_1.png","C_Dist_500_LN_2_LD_12_RN_4_RD_6_1.png","C_Dist_500_LN_2_LD_24_RN_7_RD_12_1.png","C_Dist_500_LN_2_LD_5_RN_18_RD_20_1.png","C_Dist_500_LN_2_LD_5_RN_9_RD_10_1.png","C_Dist_500_LN_2_LD_8_RN_12_RD_16_1.png","C_Dist_500_LN_2_LD_8_RN_21_RD_28_1.png","C_Dist_500_LN_3_LD_10_RN_4_RD_5_1.png","C_Dist_500_LN_3_LD_12_RN_15_RD_20_1.png","C_Dist_500_LN_3_LD_30_RN_6_RD_10_1.png","C_Dist_500_LN_3_LD_8_RN_14_RD_16_1.png","C_Dist_500_LN_4_LD_16_RN_15_RD_20_1.png","C_Dist_500_LN_4_LD_24_RN_12_RD_18_1.png","C_Dist_500_LN_5_LD_14_RN_6_RD_7_1.png","C_Dist_500_LN_7_LD_21_RN_20_RD_24_1.png","C_Dist_500_LN_7_LD_28_RN_12_RD_16_1.png","C_Dist_500_LN_7_LD_28_RN_9_RD_12_1.png","C_Dist_500_LN_9_LD_27_RN_20_RD_24_1.png"]],"dist500_I":[["I_Dist_500_LN_2_LD_3_RN_4_RD_24_0.png","I_Dist_500_LN_5_LD_6_RN_6_RD_18_0.png","I_Dist_500_LN_7_LD_8_RN_9_RD_24_0.png"],["I_Dist_500_LN_7_LD_21_RN_5_RD_6_1.png"]],"dist500_S":[["E_Dist_500_LN_6_LD_8_RN_6_RD_24_0.png"],["E_Dist_500_LN_2_LD_12_RN_2_RD_3_1.png","E_Dist_500_LN_6_LD_24_RN_6_RD_8_1.png"]]}},{"start_time":1551899798710,"click_time":1551899800115,"finger_time":1551899799456,"fix_duration":1014.7638690941053,"trial":1,"RT":746,"MT":659,"sideResp":1,"stimulus":[],"xmouse":[768,768,768,768,768,768,768,768,768,768,768,768,768,768,769,770,771,771,771,772,772,772,772,772,772,772,772,772,772,772,772,772,771,770,769,761,752,737,717,677,664,656,652,650,650,650,650,650,650,650,650,652,658,667,694,724,740,748,752,752,753,755,757,758,765,766,743,712,656,524,483],"ymouse":[636,636,636,636,636,636,636,636,636,636,636,636,636,636,636,635,635,635,635,634,634,634,634,634,634,634,634,634,634,633,632,630,628,627,624,609,595,570,541,489,470,457,450,447,447,447,447,447,447,447,451,474,487,499,530,567,584,593,595,595,595,595,595,594,567,502,436,373,294,138,98],"timestamp_mouse":[11,30,44,65,85,105,125,145,164,185,205,224,245,264,286,305,325,345,365,385,405,425,446,466,484,505,524,545,566,585,605,626,645,664,684,705,725,745,765,784,805,826,845,864,885,905,925,945,965,985,1005,1025,1045,1065,1085,1104,1124,1145,1165,1184,1205,1224,1245,1264,1285,1306,1324,1345,1364,1385,1405],"xSR":741.5,"ySR":573.95,"xT1":424.9,"yT1":0,"xT2":1058.1,"yT2":0,"toosoon":0,"cond_shown":"Incongruent","ratio_trial":100,"L_num":8,"L_den":16,"R_num":6,"R_den":10,"correct_side":2,"subjID":"AnaSofiaMatallanaSanchez24","gender":"1","school":"6","age":"11"},{"start_time":1551899802081,"click_time":1551899805955,"finger_time":1551899804196,"fix_duration":785.7396281935913,"trial":2,"RT":2115,"MT":1759,"sideResp":2,"stimulus":[],"xmouse":[808,808,808,808,808,808,808,808,808,808,808,808,808,808,808,808,808,808,808,808,808,808,808,808,808,808,808,808,808,808,808,808,808,808,808,808,808,808,808,808,808,808,808,808,808,808,808,808,808,808,808,808,808,808,808,808,808,808,808,808,808,808,808,808,808,808,808,808,808,808,808,808,808,808,808,808,808,808,808,808,808,808,808,808,808,808,808,808,808,808,808,808,808,808,808,808,808,808,808,808,808,813,825,832,836,840,840,840,840,840,840,840,840,840,840,840,840,840,840,840,840,840,840,840,840,840,840,840,840,840,840,840,840,840,840,840,840,840,840,840,840,840,840,840,840,840,840,840,840,840,840,840,840,840,840,840,840,840,840,840,840,840,840,840,840,840,840,840,840,840,840,840,840,840,840,840,840,840,840,840,840,840,840,840,840,840,840,857,887,917,1005,1047,1063,1067],"ymouse":[602,602,602,602,602,602,602,602,602,602,602,602,602,602,602,602,602,602,602,602,602,602,602,602,602,602,602,602,602,602,602,602,602,602,602,602,602,602,602,602,602,602,602,602,602,602,602,602,602,602,602,602,602,602,602,602,602,602,602,602,602,602,602,602,602,602,602,602,602,602,602,602,602,602,602,602,602,602,602,602,602,602,602,602,602,602,602,602,602,602,602,602,602,602,602,602,602,602,602,602,602,600,591,580,574,569,569,569,569,569,569,569,569,569,569,569,569,569,569,569,569,569,569,569,569,569,569,569,569,569,569,569,569,569,569,569,569,569,569,569,569,569,569,569,569,569,569,569,569,569,569,569,569,569,569,569,569,569,569,569,569,569,569,569,569,569,569,569,569,569,569,569,569,569,569,569,569,569,569,569,569,569,569,569,569,569,569,556,522,464,280,178,111,75],"timestamp_mouse":[14,34,55,74,94,114,134,153,174,195,214,235,254,273,294,315,333,355,373,394,414,433,454,475,493,515,535,553,574,594,614,634,653,673,694,714,733,754,774,794,814,834,854,873,894,914,935,955,974,993,1013,1034,1054,1073,1093,1115,1133,1153,1174,1194,1215,1235,1255,1274,1293,1314,1334,1354,1374,1393,1413,1435,1453,1473,1493,1514,1534,1554,1574,1594,1614,1635,1655,1674,1694,1713,1734,1754,1774,1794,1814,1833,1854,1873,1894,1914,1934,1954,1974,1994,2013,2033,2054,2075,2094,2115,2134,2154,2174,2194,2215,2234,2255,2273,2295,2314,2334,2354,2375,2394,2414,2434,2454,2474,2493,2514,2534,2554,2573,2594,2614,2635,2653,2674,2695,2714,2735,2753,2775,2794,2814,2834,2854,2874,2895,2915,2933,2954,2973,2995,3015,3034,3054,3074,3093,3114,3135,3154,3173,3194,3215,3234,3254,3273,3295,3314,3334,3353,3374,3395,3414,3433,3454,3473,3494,3514,3534,3554,3574,3594,3613,3634,3655,3674,3694,3714,3733,3753,3774,3793,3814,3833,3854,3874],"xSR":741.5,"ySR":573.95,"xT1":424.9,"yT1":0,"xT2":1058.1,"yT2":0,"toosoon":0,"cond_shown":"Congruent","ratio_trial":100,"L_num":4,"L_den":8,"R_num":6,"R_den":10,"correct_side":2,"subjID":"AnaSofiaMatallanaSanchez24","gender":"1","school":"6","age":"11"},{"start_time":1551899807808,"click_time":1551899813535,"finger_time":1551899813234,"fix_duration":712.4893646832612,"trial":3,"RT":5426,"MT":301,"sideResp":2,"stimulus":[],"xmouse":[800,800,800,800,800,800,800,800,800,800,800,800,800,800,800,800,800,800,800,800,800,800,800,800,800,800,800,800,800,800,800,800,800,800,800,800,800,800,800,800,800,800,800,800,800,800,800,800,800,800,800,800,800,800,800,800,800,800,800,800,800,800,800,800,800,800,800,800,800,800,800,800,800,800,800,800,800,800,800,800,800,800,800,800,800,800,800,800,800,800,800,800,800,800,800,800,800,800,800,800,800,800,800,800,800,800,800,800,800,800,800,800,800,800,800,800,800,800,800,800,800,800,800,800,800,800,800,800,800,800,800,800,800,800,800,800,800,800,800,800,800,800,800,800,800,800,800,800,800,800,800,800,800,800,800,800,800,800,800,800,800,800,800,800,800,800,800,800,800,800,800,800,800,800,800,800,800,800,800,800,800,800,800,800,800,800,800,800,800,800,800,800,800,800,800,800,800,800,800,800,800,800,800,800,800,800,800,800,800,800,800,800,800,800,800,800,800,800,800,800,800,800,800,800,800,800,800,800,800,800,800,800,800,800,800,800,800,800,800,800,800,800,800,800,800,800,800,800,800,800,800,800,800,800,800,800,800,800,800,800,800,800,800,800,800,800,800,800,800,799,808,825,859,919,998,1004,1010,1011,1013,1016,1018,1022,1025,1027,1037,1045,1060],"ymouse":[616,616,616,616,616,616,616,616,616,616,616,616,616,616,616,616,616,616,616,616,616,616,616,616,616,616,616,616,616,616,616,616,616,616,616,616,616,616,616,616,616,616,616,616,616,616,616,616,616,616,616,616,616,616,616,616,616,616,616,616,616,616,616,616,616,616,616,616,616,616,616,616,616,616,616,616,616,616,616,616,616,616,616,616,616,616,616,616,616,616,616,616,616,616,616,616,616,616,616,616,616,616,616,616,616,616,616,616,616,616,616,616,616,616,616,616,616,616,616,616,616,616,616,616,616,616,616,616,616,616,616,616,616,616,616,616,616,616,616,616,616,616,616,616,616,616,616,616,616,616,616,616,616,616,616,616,616,616,616,616,616,616,616,616,616,616,616,616,616,616,616,616,616,616,616,616,616,616,616,616,616,616,616,616,616,616,616,616,616,616,616,616,616,616,616,616,616,616,616,616,616,616,616,616,616,616,616,616,616,616,616,616,616,616,616,616,616,616,616,616,616,616,616,616,616,616,616,616,616,616,616,616,616,616,616,616,616,616,616,616,616,616,616,616,616,616,616,616,616,616,616,616,616,616,616,616,616,616,616,616,616,616,616,616,616,616,616,616,616,615,587,542,451,322,151,136,121,118,116,112,110,108,106,106,103,103,98],"timestamp_mouse":[11,33,47,67,87,108,127,147,168,186,207,226,247,268,287,306,327,348,368,388,406,432,447,467,487,507,526,547,567,587,607,627,647,667,687,707,728,748,767,787,808,827,847,867,887,906,928,947,967,988,1006,1027,1047,1067,1087,1108,1127,1147,1167,1186,1207,1226,1247,1267,1287,1306,1326,1348,1366,1386,1407,1427,1447,1467,1488,1507,1528,1548,1567,1587,1606,1627,1647,1668,1687,1707,1726,1747,1768,1788,1807,1827,1846,1867,1886,1906,1928,1947,1968,1987,2007,2026,2046,2068,2086,2107,2127,2147,2167,2187,2206,2228,2246,2266,2288,2308,2327,2347,2367,2387,2406,2426,2448,2466,2487,2508,2526,2548,2566,2588,2607,2627,2647,2667,2688,2706,2727,2747,2767,2787,2807,2826,2848,2868,2888,2907,2927,2947,2966,2987,3006,3028,3048,3067,3088,3108,3127,3146,3168,3188,3206,3227,3248,3267,3287,3308,3326,3347,3368,3387,3408,3428,3446,3466,3486,3507,3528,3547,3567,3587,3608,3628,3646,3668,3688,3708,3727,3748,3767,3787,3808,3828,3846,3868,3888,3906,3928,3946,3967,3987,4008,4027,4048,4066,4087,4107,4127,4147,4167,4186,4208,4228,4247,4267,4288,4307,4326,4347,4368,4387,4407,4427,4448,4466,4487,4507,4527,4547,4568,4587,4608,4628,4648,4666,4686,4707,4727,4746,4768,4786,4807,4826,4847,4867,4887,4907,4928,4947,4968,4987,5008,5027,5046,5066,5087,5107,5127,5146,5168,5188,5206,5226,5248,5267,5286,5308,5327,5346,5367,5387,5407,5426,5446,5467,5487,5507,5526,5547,5567,5587,5607,5626,5648,5667,5687,5707,5727],"xSR":741.5,"ySR":573.95,"xT1":424.9,"yT1":0,"xT2":1058.1,"yT2":0,"toosoon":0,"cond_shown":"Incongruent","ratio_trial":200,"L_num":7,"L_den":15,"R_num":6,"R_den":9,"correct_side":2,"subjID":"AnaSofiaMatallanaSanchez24","gender":"1","school":"6","age":"11"},{"start_time":1551899814806,"click_time":1551899816516,"finger_time":1551899816175,"fix_duration":250,"trial":4,"RT":1369,"MT":341,"sideResp":2,"stimulus":[],"xmouse":[802,802,802,802,802,802,802,802,802,802,802,802,802,802,802,802,802,801,801,801,801,801,801,801,801,801,801,801,801,801,801,801,801,801,801,801,801,801,801,801,801,801,801,801,801,801,801,801,801,801,801,801,801,801,801,801,801,801,801,801,802,804,804,804,804,805,807,810,815,842,865,888,923,952,995,1005,1015,1025,1035,1045,1051,1058,1069,1078,1087,1092],"ymouse":[593,593,593,593,593,593,593,593,593,593,593,593,593,593,593,593,593,593,593,593,593,593,593,593,593,593,593,593,593,593,593,593,593,593,593,593,593,593,593,593,593,593,593,593,593,593,593,593,593,593,593,593,593,593,593,593,593,593,593,593,591,588,588,588,587,586,583,579,570,514,474,437,375,322,239,213,191,175,160,146,139,133,123,114,102,95],"timestamp_mouse":[10,37,49,69,89,109,130,148,170,190,210,229,248,269,290,308,329,349,368,388,409,430,448,468,489,508,530,549,568,589,609,629,649,668,688,709,729,748,769,790,810,830,848,869,889,908,930,949,970,988,1008,1029,1049,1069,1090,1110,1129,1150,1169,1188,1209,1230,1249,1270,1289,1309,1328,1348,1369,1388,1410,1428,1448,1469,1489,1508,1529,1549,1570,1588,1609,1629,1649,1670,1688,1710],"xSR":741.5,"ySR":573.95,"xT1":424.9,"yT1":0,"xT2":1058.1,"yT2":0,"toosoon":0,"cond_shown":"Congruent","ratio_trial":100,"L_num":1,"L_den":2,"R_num":3,"R_den":5,"correct_side":2,"subjID":"AnaSofiaMatallanaSanchez24","gender":"1","school":"6","age":"11"},{"start_time":1551899818496,"click_time":1551899819435,"finger_time":1551899819254,"fix_duration":999.5224712185824,"trial":5,"RT":758,"MT":181,"sideResp":2,"stimulus":[],"xmouse":[793,793,793,793,793,793,793,793,793,793,793,793,793,793,793,793,793,793,793,793,793,793,793,793,793,793,793,792,792,792,792,792,792,792,793,797,802,804,811,822,881,920,960,996,1032,1091,1099,1107],"ymouse":[602,602,602,602,602,602,602,602,602,602,602,602,602,602,602,602,602,602,602,602,602,602,602,602,602,602,602,602,602,602,602,602,602,601,600,593,586,581,570,553,465,410,352,296,232,122,102,85],"timestamp_mouse":[2,35,39,59,80,98,118,140,159,179,199,219,240,259,279,300,318,340,358,380,399,419,438,459,480,498,519,540,559,580,599,618,639,658,678,699,718,738,758,779,799,818,839,859,880,898,920,939],"xSR":741.5,"ySR":573.95,"xT1":424.9,"yT1":0,"xT2":1058.1,"yT2":0,"toosoon":0,"cond_shown":"Congruent","ratio_trial":100,"L_num":7,"L_den":14,"R_num":15,"R_den":25,"correct_side":2,"subjID":"AnaSofiaMatallanaSanchez24","gender":"1","school":"6","age":"11"},{"start_time":1551899820687,"click_time":1551899821675,"finger_time":1551899821255,"fix_duration":250,"trial":6,"RT":568,"MT":420,"sideResp":2,"stimulus":[],"xmouse":[803,803,803,803,803,803,803,803,803,803,803,803,803,803,803,803,803,803,803,803,803,803,803,803,803,802,811,827,858,888,901,915,927,941,963,977,988,996,1002,1020,1026,1032,1036,1043,1050,1050,1050,1053,1082],"ymouse":[597,597,597,597,597,597,597,597,597,597,597,597,597,597,597,597,597,597,597,597,597,597,597,597,597,595,577,554,496,423,386,349,319,289,241,208,186,171,157,131,123,116,110,104,98,98,98,96,80],"timestamp_mouse":[8,48,68,89,107,128,147,167,188,209,228,249,268,287,309,329,349,369,387,409,429,449,469,489,508,528,547,568,588,608,629,648,668,688,708,729,748,768,788,807,829,848,868,888,907,928,948,967,988],"xSR":741.5,"ySR":573.95,"xT1":424.9,"yT1":0,"xT2":1058.1,"yT2":0,"toosoon":0,"cond_shown":"Incongruent","ratio_trial":100,"L_num":9,"L_den":10,"R_num":20,"R_den":25,"correct_side":1,"subjID":"AnaSofiaMatallanaSanchez24","gender":"1","school":"6","age":"11"},{"start_time":1551899824487,"click_time":1551899826735,"finger_time":1551899826416,"fix_duration":250,"trial":7,"RT":1929,"MT":319,"sideResp":2,"stimulus":[],"xmouse":[789,789,789,789,789,789,789,789,789,789,789,789,789,789,789,789,789,789,789,789,789,789,789,789,789,789,789,789,789,789,789,789,789,789,789,789,789,789,789,789,789,789,789,789,789,789,789,789,789,789,789,789,789,789,789,789,789,789,789,789,789,789,789,789,789,789,789,789,789,789,789,789,789,789,789,789,789,789,789,789,789,789,789,789,789,789,789,789,789,789,789,789,789,789,798,839,887,944,1003,1060,1182,1233,1261,1274,1283,1287,1287,1287,1278,1262,1182,1160,1151],"ymouse":[611,611,611,611,611,611,611,611,611,611,611,611,611,611,611,611,611,611,611,611,611,611,611,611,611,611,611,611,611,611,611,611,611,611,611,611,611,611,611,611,611,611,611,611,611,611,611,611,611,611,611,611,611,611,611,611,611,611,611,611,611,611,611,611,611,611,611,611,611,611,611,611,611,611,611,611,611,611,611,611,611,611,611,611,611,611,611,611,611,611,611,611,611,611,604,577,538,488,423,339,118,39,0,0,0,0,0,0,0,5,33,40,43],"timestamp_mouse":[11,38,48,68,89,109,128,149,167,188,208,228,249,267,287,308,328,349,367,388,409,429,448,469,487,508,528,547,569,588,608,628,647,667,688,707,728,749,767,788,808,828,848,867,888,908,927,949,967,987,1008,1029,1048,1067,1087,1108,1128,1147,1169,1189,1208,1228,1248,1267,1289,1307,1328,1348,1369,1387,1407,1429,1448,1469,1487,1508,1528,1549,1568,1589,1607,1627,1648,1668,1689,1709,1728,1747,1768,1789,1808,1829,1847,1869,1888,1907,1929,1948,1969,1987,2007,2027,2048,2068,2089,2107,2128,2149,2169,2187,2207,2227,2248],"xSR":741.5,"ySR":573.95,"xT1":424.9,"yT1":0,"xT2":1058.1,"yT2":0,"toosoon":0,"cond_shown":"Congruent","ratio_trial":100,"L_num":6,"L_den":20,"R_num":5,"R_den":25,"correct_side":1,"subjID":"AnaSofiaMatallanaSanchez24","gender":"1","school":"6","age":"11"},{"start_time":1551899828528,"click_time":1551899829695,"finger_time":1551899829535,"fix_duration":632.4007706896733,"trial":8,"RT":1007,"MT":160,"sideResp":2,"stimulus":[],"xmouse":[778,778,778,778,778,778,778,778,778,778,778,778,778,778,778,778,778,778,778,778,778,778,778,778,778,778,778,778,778,778,778,778,778,778,778,778,778,778,778,778,778,778,778,778,778,778,778,778,778,785,789,801,824,910,972,1003,1027,1047,1078],"ymouse":[583,583,583,583,583,583,583,583,583,583,583,583,583,583,583,583,583,583,583,583,583,583,583,583,583,583,583,583,583,583,583,583,583,583,583,583,583,583,583,583,583,583,583,583,583,583,583,583,583,576,570,556,533,434,339,276,217,169,90],"timestamp_mouse":[11,32,48,68,87,108,127,147,166,187,206,227,247,267,287,307,326,348,367,387,408,427,447,467,488,508,527,546,568,586,608,628,646,667,687,707,728,747,767,787,808,826,848,867,886,908,927,948,968,986,1007,1026,1048,1067,1087,1107,1127,1146,1167],"xSR":741.5,"ySR":573.95,"xT1":424.9,"yT1":0,"xT2":1058.1,"yT2":0,"toosoon":0,"cond_shown":"Congruent","ratio_trial":100,"L_num":7,"L_den":14,"R_num":9,"R_den":15,"correct_side":2,"subjID":"AnaSofiaMatallanaSanchez24","gender":"1","school":"6","age":"11"},{"start_time":1551899832166,"click_time":1551899834075,"finger_time":1551899833535,"fix_duration":1290.0135588419366,"trial":9,"RT":1369,"MT":540,"sideResp":1,"stimulus":[],"xmouse":[808,808,808,808,808,808,808,808,808,808,808,808,808,808,808,808,808,808,808,808,808,808,808,808,808,808,808,808,808,808,808,808,808,808,808,808,808,808,808,808,808,808,808,808,808,808,808,808,808,808,808,808,808,808,808,808,808,808,808,808,808,808,808,808,808,808,808,797,789,776,757,679,653,638,625,617,615,613,610,593,551,443,423,414,410,410,410,410,410,410,410,413,417,420,423,425],"ymouse":[618,618,618,618,618,618,618,618,618,618,618,618,618,618,618,618,618,618,618,618,618,618,618,618,618,618,618,618,618,618,618,618,618,618,618,618,618,618,618,618,618,618,618,618,618,618,618,618,618,618,618,618,618,618,618,618,618,618,618,618,618,618,618,618,618,618,618,574,545,488,418,272,240,224,210,201,197,195,191,178,158,101,85,70,62,58,55,55,55,55,54,54,56,56,57,58],"timestamp_mouse":[10,31,49,69,90,109,130,149,169,190,209,229,249,269,290,310,329,349,369,389,409,428,450,468,490,510,530,549,570,590,610,628,648,670,690,708,728,749,770,789,808,830,849,870,890,909,928,950,969,989,1008,1028,1050,1070,1088,1109,1130,1149,1169,1190,1210,1229,1250,1270,1288,1309,1329,1348,1369,1389,1409,1428,1449,1469,1488,1509,1529,1548,1569,1589,1609,1628,1649,1668,1690,1709,1729,1750,1769,1789,1809,1828,1848,1868,1889,1909],"xSR":741.5,"ySR":573.95,"xT1":424.9,"yT1":0,"xT2":1058.1,"yT2":0,"toosoon":0,"cond_shown":"Congruent","ratio_trial":100,"L_num":11,"L_den":22,"R_num":6,"R_den":15,"correct_side":1,"subjID":"AnaSofiaMatallanaSanchez24","gender":"1","school":"6","age":"11"},{"start_time":1551899835368,"click_time":1551899836814,"finger_time":1551899836656,"fix_duration":250,"trial":10,"RT":1288,"MT":158,"sideResp":2,"stimulus":[],"xmouse":[781,781,781,781,781,781,781,781,781,781,781,781,781,781,781,781,781,781,781,781,781,781,781,781,781,781,781,781,781,782,784,784,784,784,784,784,784,784,784,784,784,784,784,784,784,784,784,784,784,784,784,784,784,784,784,784,784,784,784,784,784,785,789,795,804,821,880,914,941,976,1005,1051,1067],"ymouse":[603,603,603,603,603,603,603,603,603,603,603,603,603,603,603,603,603,603,603,603,603,603,603,603,603,603,603,603,603,603,603,603,603,603,603,603,603,603,603,603,603,603,603,603,603,603,603,603,603,603,603,603,603,603,603,603,603,603,603,603,603,600,594,583,569,540,427,361,311,250,192,101,63],"timestamp_mouse":[10,42,47,68,87,108,126,148,168,186,207,227,247,267,287,307,327,347,367,388,408,427,446,468,487,506,527,547,568,587,607,628,647,667,688,708,727,747,766,787,807,826,847,868,888,908,928,947,966,987,1007,1027,1046,1067,1088,1107,1128,1147,1166,1187,1207,1226,1247,1266,1288,1307,1327,1346,1367,1387,1407,1427,1446],"xSR":741.5,"ySR":573.95,"xT1":424.9,"yT1":0,"xT2":1058.1,"yT2":0,"toosoon":0,"cond_shown":"Congruent","ratio_trial":100,"L_num":12,"L_den":30,"R_num":13,"R_den":26,"correct_side":2,"subjID":"AnaSofiaMatallanaSanchez24","gender":"1","school":"6","age":"11"},{"start_time":1551899838062,"click_time":1551899839518,"finger_time":1551899839416,"fix_duration":387.0462697218233,"trial":11,"RT":1354,"MT":102,"sideResp":2,"stimulus":[],"xmouse":[780,780,780,780,780,780,780,780,780,780,780,780,780,780,780,780,780,780,780,780,780,780,780,780,780,780,780,780,780,780,780,780,780,780,780,780,780,780,780,780,780,780,780,780,779,780,782,782,782,783,783,783,783,783,783,783,783,783,783,783,783,783,783,783,783,783,792,809,868,930,994,1080,1107],"ymouse":[607,607,607,607,607,607,607,607,607,607,607,607,607,607,607,607,607,607,607,607,607,607,607,607,607,607,607,607,607,607,607,607,607,607,607,607,607,607,607,607,607,607,607,607,607,603,598,597,597,597,597,597,597,597,597,597,597,597,597,597,597,597,597,597,597,597,578,551,464,375,283,143,98],"timestamp_mouse":[13,40,53,74,93,113,132,153,172,193,213,232,254,273,293,312,334,353,373,392,412,433,453,472,494,514,533,554,572,592,614,634,652,674,693,712,734,754,772,796,816,836,855,874,895,915,935,955,974,995,1015,1035,1054,1074,1096,1115,1134,1156,1175,1195,1216,1235,1255,1274,1296,1316,1334,1354,1374,1395,1415,1435,1456],"xSR":741.5,"ySR":573.95,"xT1":424.9,"yT1":0,"xT2":1058.1,"yT2":0,"toosoon":0,"cond_shown":"Congruent","ratio_trial":200,"L_num":9,"L_den":30,"R_num":13,"R_den":26,"correct_side":2,"subjID":"AnaSofiaMatallanaSanchez24","gender":"1","school":"6","age":"11"},{"start_time":1551899840828,"click_time":1551899842057,"finger_time":1551899841596,"fix_duration":250,"trial":12,"RT":768,"MT":461,"sideResp":2,"stimulus":[],"xmouse":[775,775,776,778,779,779,781,781,782,782,782,782,782,782,782,782,782,782,782,782,782,782,782,782,782,782,782,782,782,782,782,782,782,783,786,789,795,805,847,886,900,912,932,965,980,992,1008,1023,1041,1044,1045,1046,1046,1047,1047,1047,1047,1047,1047,1048,1059,1074],"ymouse":[611,611,611,612,613,613,614,614,614,614,614,614,614,614,614,614,614,614,614,614,614,614,614,614,614,614,614,614,614,614,614,614,614,614,614,614,614,606,559,502,479,451,407,324,287,258,225,190,145,133,128,123,120,119,119,119,119,119,119,118,105,89],"timestamp_mouse":[9,28,48,68,89,108,130,150,169,189,208,230,248,270,289,308,329,350,368,390,408,430,448,469,488,509,530,549,568,589,609,629,648,670,688,709,729,750,768,789,808,828,848,868,889,908,928,949,969,989,1009,1029,1049,1069,1088,1109,1129,1149,1168,1188,1209,1229],"xSR":741.5,"ySR":573.95,"xT1":424.9,"yT1":0,"xT2":1058.1,"yT2":0,"toosoon":0,"cond_shown":"Congruent","ratio_trial":200,"L_num":1,"L_den":2,"R_num":21,"R_den":30,"correct_side":2,"subjID":"AnaSofiaMatallanaSanchez24","gender":"1","school":"6","age":"11"},{"start_time":1551899843376,"click_time":1551899845176,"finger_time":1551899844777,"fix_duration":417.9609601608322,"trial":13,"RT":1401,"MT":399,"sideResp":1,"stimulus":[],"xmouse":[784,784,784,784,784,784,784,784,784,784,784,784,784,784,784,784,784,784,784,784,784,784,784,784,784,784,784,784,784,784,784,784,784,784,784,784,784,784,784,784,784,784,784,784,784,784,784,784,784,784,784,784,784,784,784,784,784,784,784,784,784,784,784,784,784,784,784,784,784,780,772,668,650,604,588,579,560,554,547,542,539,532,527,525,525,525,525,525,525,525,517],"ymouse":[622,622,622,622,622,622,622,622,622,622,622,622,622,622,622,622,622,622,622,622,622,622,622,622,622,622,622,622,622,622,622,622,622,622,622,622,622,622,622,622,622,622,622,622,622,622,622,622,622,622,622,622,622,622,622,622,622,622,622,622,622,622,622,622,622,622,622,622,622,615,568,362,333,276,254,234,191,171,155,145,138,121,110,106,106,106,106,106,106,105,93],"timestamp_mouse":[10,34,40,60,80,100,121,142,160,182,200,220,241,262,282,300,321,341,361,380,402,422,442,461,481,502,522,541,561,581,601,620,642,662,681,701,722,742,761,782,801,821,842,861,881,900,921,941,960,981,1000,1021,1042,1062,1080,1101,1120,1141,1162,1181,1200,1221,1240,1262,1281,1301,1321,1340,1362,1381,1401,1420,1441,1461,1481,1501,1520,1540,1560,1580,1602,1621,1641,1661,1681,1701,1720,1740,1761,1780,1800],"xSR":741.5,"ySR":573.95,"xT1":424.9,"yT1":0,"xT2":1058.1,"yT2":0,"toosoon":0,"cond_shown":"Incongruent","ratio_trial":100,"L_num":13,"L_den":26,"R_num":12,"R_den":20,"correct_side":2,"subjID":"AnaSofiaMatallanaSanchez24","gender":"1","school":"6","age":"11"},{"start_time":1551899846494,"click_time":1551899847496,"finger_time":1551899847216,"fix_duration":435.6642491847601,"trial":14,"RT":722,"MT":280,"sideResp":2,"stimulus":[],"xmouse":[780,780,780,780,780,780,780,780,780,780,780,780,780,780,780,780,780,780,780,780,780,780,780,780,780,780,780,780,780,780,780,780,780,780,780,790,811,836,886,941,1015,1031,1043,1051,1053,1053,1053,1055,1059,1063,1065],"ymouse":[599,599,599,599,599,599,599,599,599,599,599,599,599,599,599,599,599,599,599,599,599,599,599,599,599,599,599,599,599,599,599,599,599,599,599,590,560,517,434,345,225,198,179,161,156,153,152,143,127,113,99],"timestamp_mouse":[11,35,44,62,83,103,123,144,163,183,202,224,242,263,282,303,323,343,362,382,402,424,442,464,482,502,524,542,564,582,603,624,643,664,682,702,722,744,764,783,802,823,842,863,883,903,923,942,964,982,1002],"xSR":741.5,"ySR":573.95,"xT1":424.9,"yT1":0,"xT2":1058.1,"yT2":0,"toosoon":0,"cond_shown":"Congruent","ratio_trial":200,"L_num":13,"L_den":26,"R_num":14,"R_den":20,"correct_side":2,"subjID":"AnaSofiaMatallanaSanchez24","gender":"1","school":"6","age":"11"},{"start_time":1551899848877,"click_time":1551899850317,"finger_time":1551899849996,"fix_duration":480.6485243861852,"trial":15,"RT":1119,"MT":321,"sideResp":1,"stimulus":[],"xmouse":[811,811,811,811,811,811,811,811,811,811,811,811,811,811,811,811,811,811,811,811,811,811,811,811,811,811,811,811,811,811,811,811,811,811,811,811,811,811,811,811,811,811,811,811,811,811,811,811,811,811,811,811,811,811,810,795,758,681,641,616,580,565,552,540,528,503,497,495,495,495,495,491],"ymouse":[611,611,611,611,611,611,611,611,611,611,611,611,611,611,611,611,611,611,611,611,611,611,611,611,611,611,611,611,611,611,611,611,611,611,611,611,611,611,611,611,611,611,611,611,611,611,611,611,611,611,611,611,611,611,605,538,452,313,263,229,163,119,77,48,21,0,0,0,0,0,0,1],"timestamp_mouse":[32,40,60,80,101,120,140,160,179,199,220,240,261,280,299,319,340,360,380,401,421,439,459,480,501,519,540,559,579,599,620,639,659,679,700,720,739,759,779,800,821,839,860,880,899,921,939,959,979,1000,1019,1039,1060,1080,1100,1119,1139,1160,1181,1199,1219,1239,1260,1281,1300,1319,1340,1360,1381,1401,1420,1440],"xSR":741.5,"ySR":573.95,"xT1":424.9,"yT1":0,"xT2":1058.1,"yT2":0,"toosoon":0,"cond_shown":"Congruent","ratio_trial":200,"L_num":7,"L_den":21,"R_num":2,"R_den":15,"correct_side":1,"subjID":"AnaSofiaMatallanaSanchez24","gender":"1","school":"6","age":"11"},{"start_time":1551899853039,"click_time":1551899853857,"finger_time":1551899853536,"fix_duration":1102.7175740596524,"trial":16,"RT":497,"MT":321,"sideResp":1,"stimulus":[],"xmouse":[785,785,785,785,785,785,785,785,785,785,785,785,785,785,785,785,785,785,785,785,785,785,785,786,780,739,698,628,604,591,586,579,576,576,576,574,573,554,541,532,524],"ymouse":[598,598,598,598,598,598,598,598,598,598,598,598,598,598,598,598,598,598,598,598,598,598,598,598,560,445,333,169,85,44,22,5,0,0,0,0,2,37,60,70,73],"timestamp_mouse":[18,37,58,79,97,119,138,159,178,199,217,239,258,279,298,317,338,359,379,397,417,438,457,477,497,517,537,558,579,598,618,637,657,678,697,718,738,758,779,798,818],"xSR":741.5,"ySR":573.95,"xT1":424.9,"yT1":0,"xT2":1058.1,"yT2":0,"toosoon":0,"cond_shown":"Congruent","ratio_trial":200,"L_num":11,"L_den":22,"R_num":3,"R_den":10,"correct_side":1,"subjID":"AnaSofiaMatallanaSanchez24","gender":"1","school":"6","age":"11"},{"start_time":1551899855537,"click_time":1551899856718,"finger_time":1551899856296,"fix_duration":699.1574047628782,"trial":17,"RT":759,"MT":422,"sideResp":2,"stimulus":[],"xmouse":[789,789,789,789,789,789,789,789,789,789,789,789,789,789,789,789,789,789,789,789,789,789,789,789,789,789,789,789,789,789,789,789,789,789,789,789,789,789,830,869,905,932,953,987,1003,1013,1021,1029,1037,1037,1037,1037,1037,1037,1037,1037,1037,1039,1056,1071],"ymouse":[587,587,587,587,587,587,587,587,587,587,587,587,587,587,587,587,587,587,587,587,587,587,587,587,587,587,587,587,587,587,587,587,587,587,587,587,587,581,517,463,406,349,295,188,131,100,69,46,21,13,10,9,9,9,9,9,9,10,20,28],"timestamp_mouse":[1,31,39,60,79,100,120,140,160,179,199,219,241,260,280,299,319,340,361,380,400,421,439,459,479,500,521,539,559,580,601,619,641,661,680,701,720,740,759,780,800,820,839,859,880,899,919,940,959,980,999,1019,1040,1060,1080,1100,1119,1140,1160,1181],"xSR":741.5,"ySR":573.95,"xT1":424.9,"yT1":0,"xT2":1058.1,"yT2":0,"toosoon":0,"cond_shown":"Congruent","ratio_trial":300,"L_num":4,"L_den":20,"R_num":13,"R_den":26,"correct_side":2,"subjID":"AnaSofiaMatallanaSanchez24","gender":"1","school":"6","age":"11"},{"start_time":1551899858651,"click_time":1551899859277,"finger_time":1551899859117,"fix_duration":1012.3499759826063,"trial":18,"RT":466,"MT":160,"sideResp":2,"stimulus":[],"xmouse":[800,800,800,800,800,800,800,800,800,800,800,800,800,800,800,800,800,800,800,800,800,800,820,848,887,926,959,1041,1082,1102,1113,1121],"ymouse":[623,623,623,623,623,623,623,623,623,623,623,623,623,623,623,623,623,623,623,623,623,619,587,543,482,429,366,227,157,129,109,97],"timestamp_mouse":[10,32,45,66,85,105,127,145,166,187,205,227,246,266,286,306,327,346,366,386,407,426,445,466,486,507,526,545,566,586,606,626],"xSR":741.5,"ySR":573.95,"xT1":424.9,"yT1":0,"xT2":1058.1,"yT2":0,"toosoon":0,"cond_shown":"Incongruent","ratio_trial":200,"L_num":4,"L_den":6,"R_num":14,"R_den":30,"correct_side":1,"subjID":"AnaSofiaMatallanaSanchez24","gender":"1","school":"6","age":"11"},{"start_time":1551899861703,"click_time":1551899862376,"finger_time":1551899862238,"fix_duration":1245.517920019104,"trial":19,"RT":535,"MT":138,"sideResp":1,"stimulus":[],"xmouse":[800,800,800,800,800,800,800,800,800,800,800,800,800,800,800,800,800,800,800,800,800,800,800,800,800,801,773,718,661,569,541,526,517,513],"ymouse":[604,604,604,604,604,604,604,604,604,604,604,604,604,604,604,604,604,604,604,604,604,604,604,604,604,603,545,471,390,234,175,134,112,91],"timestamp_mouse":[15,39,55,73,93,114,135,154,174,194,214,233,253,274,294,314,333,354,373,393,413,435,455,474,495,513,535,553,573,593,614,634,655,673],"xSR":741.5,"ySR":573.95,"xT1":424.9,"yT1":0,"xT2":1058.1,"yT2":0,"toosoon":0,"cond_shown":"Incongruent","ratio_trial":200,"L_num":11,"L_den":20,"R_num":3,"R_den":4,"correct_side":2,"subjID":"AnaSofiaMatallanaSanchez24","gender":"1","school":"6","age":"11"},{"start_time":1551899863610,"click_time":1551899864637,"finger_time":1551899864296,"fix_duration":250,"trial":20,"RT":686,"MT":341,"sideResp":1,"stimulus":[],"xmouse":[813,813,813,813,813,813,813,813,813,813,813,813,813,813,813,813,813,813,813,813,813,813,813,813,813,813,813,813,813,813,813,813,813,813,809,787,751,705,664,619,607,595,590,585,583,583,583,583,583,581,553,522],"ymouse":[597,597,597,597,597,597,597,597,597,597,597,597,597,597,597,597,597,597,597,597,597,597,597,597,597,597,597,597,597,597,597,597,597,597,551,467,386,316,251,181,154,126,112,100,96,96,96,96,96,95,86,78],"timestamp_mouse":[7,35,47,67,88,106,126,148,167,187,207,227,247,267,287,307,326,348,366,387,407,426,447,467,486,506,528,546,566,587,607,626,648,667,686,706,726,746,766,786,806,827,847,868,886,907,928,948,967,987,1006,1027],"xSR":741.5,"ySR":573.95,"xT1":424.9,"yT1":0,"xT2":1058.1,"yT2":0,"toosoon":0,"cond_shown":"Congruent","ratio_trial":200,"L_num":20,"L_den":25,"R_num":9,"R_den":15,"correct_side":1,"subjID":"AnaSofiaMatallanaSanchez24","gender":"1","school":"6","age":"11"},{"start_time":1551899867474,"click_time":1551899868637,"finger_time":1551899868456,"fix_duration":535.262830296278,"trial":21,"RT":982,"MT":181,"sideResp":1,"stimulus":[],"xmouse":[792,792,792,792,792,792,792,792,792,792,792,792,792,792,792,792,792,792,792,792,792,792,792,792,792,792,792,792,792,792,792,792,792,792,792,792,792,792,792,792,792,792,792,792,792,792,792,792,792,776,745,662,627,608,589,565,546,530,524],"ymouse":[582,582,582,582,582,582,582,582,582,582,582,582,582,582,582,582,582,582,582,582,582,582,582,582,582,582,582,582,582,582,582,582,582,582,582,582,582,582,582,582,582,582,582,582,582,582,582,582,575,520,447,327,273,241,205,162,124,101,94],"timestamp_mouse":[9,24,43,69,82,104,122,142,163,183,203,223,243,262,282,304,322,344,362,383,404,423,443,462,482,502,523,542,562,583,602,623,644,664,683,702,722,742,764,782,802,822,842,862,882,902,924,944,964,982,1004,1023,1042,1062,1084,1104,1123,1143,1162],"xSR":741.5,"ySR":573.95,"xT1":424.9,"yT1":0,"xT2":1058.1,"yT2":0,"toosoon":0,"cond_shown":"Congruent","ratio_trial":200,"L_num":16,"L_den":30,"R_num":9,"R_den":27,"correct_side":1,"subjID":"AnaSofiaMatallanaSanchez24","gender":"1","school":"6","age":"11"},{"start_time":1551899871056,"click_time":1551899871698,"finger_time":1551899871596,"fix_duration":1459.9579007797495,"trial":22,"RT":540,"MT":102,"sideResp":2,"stimulus":[],"xmouse":[771,771,771,771,771,771,771,771,771,771,771,771,771,771,771,771,771,771,771,771,771,771,771,771,771,774,788,858,938,995,1022,1042,1059],"ymouse":[614,614,614,614,614,614,614,614,614,614,614,614,614,614,614,614,614,614,614,614,614,614,614,614,614,609,578,456,307,208,151,114,74],"timestamp_mouse":[11,20,40,61,82,100,122,140,162,180,200,220,240,261,281,300,320,341,360,382,401,421,440,460,482,502,521,540,561,580,600,621,642],"xSR":741.5,"ySR":573.95,"xT1":424.9,"yT1":0,"xT2":1058.1,"yT2":0,"toosoon":0,"cond_shown":"Incongruent","ratio_trial":200,"L_num":1,"L_den":3,"R_num":2,"R_den":15,"correct_side":1,"subjID":"AnaSofiaMatallanaSanchez24","gender":"1","school":"6","age":"11"},{"start_time":1551899873636,"click_time":1551899874637,"finger_time":1551899874517,"fix_duration":836.547048328816,"trial":23,"RT":881,"MT":120,"sideResp":1,"stimulus":[],"xmouse":[760,760,760,760,760,760,760,760,760,760,760,760,760,760,760,760,760,760,760,760,760,760,763,768,768,768,768,772,782,783,783,783,783,783,783,783,783,783,783,783,783,783,783,783,779,761,724,675,561,512,460],"ymouse":[604,604,604,604,604,604,604,604,604,604,604,604,604,604,604,604,604,604,604,604,604,604,599,594,594,594,594,590,580,579,579,579,579,579,579,579,579,579,579,579,579,579,579,579,540,506,445,369,196,123,55],"timestamp_mouse":[9,21,40,61,82,100,120,141,160,181,200,220,240,262,281,301,320,340,361,381,402,421,440,460,480,501,521,541,561,580,601,620,641,661,680,700,721,740,761,781,800,820,841,862,881,901,921,941,961,980,1001],"xSR":741.5,"ySR":573.95,"xT1":424.9,"yT1":0,"xT2":1058.1,"yT2":0,"toosoon":0,"cond_shown":"Incongruent","ratio_trial":300,"L_num":3,"L_den":6,"R_num":4,"R_den":20,"correct_side":1,"subjID":"AnaSofiaMatallanaSanchez24","gender":"1","school":"6","age":"11"},{"start_time":1551899876009,"click_time":1551899877017,"finger_time":1551899876638,"fix_duration":250,"trial":24,"RT":629,"MT":379,"sideResp":1,"stimulus":[],"xmouse":[785,785,785,785,785,785,785,785,785,785,785,785,785,785,785,785,785,785,785,785,785,785,785,785,785,785,785,785,785,785,785,779,768,746,632,561,500,456,432,416,414,413,411,411,410,410,413,416,418,421,428],"ymouse":[618,618,618,618,618,618,618,618,618,618,618,618,618,618,618,618,618,618,618,618,618,618,618,618,618,618,618,618,618,618,593,570,544,502,337,251,192,148,120,85,74,65,59,58,55,52,47,44,42,41,38],"timestamp_mouse":[11,42,48,68,88,108,127,147,167,189,209,227,249,268,287,309,328,347,369,389,407,429,449,469,489,509,527,548,568,587,608,629,649,667,687,708,728,748,768,787,807,829,848,867,888,908,928,949,968,987,1008],"xSR":741.5,"ySR":573.95,"xT1":424.9,"yT1":0,"xT2":1058.1,"yT2":0,"toosoon":0,"cond_shown":"Congruent","ratio_trial":300,"L_num":18,"L_den":20,"R_num":9,"R_den":15,"correct_side":1,"subjID":"AnaSofiaMatallanaSanchez24","gender":"1","school":"6","age":"11"},{"start_time":1551899879470,"click_time":1551899881017,"finger_time":1551899880717,"fix_duration":1411.1181113845103,"trial":25,"RT":1247,"MT":300,"sideResp":1,"stimulus":[],"xmouse":[800,800,800,800,800,800,800,800,800,800,800,800,800,800,800,800,800,800,800,800,800,800,800,800,800,800,800,800,800,800,800,800,800,800,800,800,800,800,800,800,800,800,800,800,800,800,800,800,800,800,800,800,800,800,800,800,800,800,800,800,800,791,741,678,611,559,518,506,492,486,481,476,475,474,474,474,472,471],"ymouse":[612,612,612,612,612,612,612,612,612,612,612,612,612,612,612,612,612,612,612,612,612,612,612,612,612,612,612,612,612,612,612,612,612,612,612,612,612,612,612,612,612,612,612,612,612,612,612,612,612,612,612,612,612,612,612,612,612,612,612,612,612,581,503,418,344,296,244,227,206,194,186,177,174,170,163,151,122,98],"timestamp_mouse":[10,39,47,67,86,107,126,147,166,188,206,226,247,266,286,307,327,347,368,386,406,427,447,466,487,508,526,546,567,588,608,627,647,666,686,708,726,748,767,786,808,827,847,867,886,907,928,946,967,987,1007,1028,1046,1066,1087,1107,1126,1146,1166,1188,1207,1227,1247,1266,1286,1306,1327,1347,1366,1387,1406,1427,1447,1466,1486,1508,1527,1547],"xSR":741.5,"ySR":573.95,"xT1":424.9,"yT1":0,"xT2":1058.1,"yT2":0,"toosoon":0,"cond_shown":"Incongruent","ratio_trial":100,"L_num":12,"L_den":24,"R_num":9,"R_den":15,"correct_side":2,"subjID":"AnaSofiaMatallanaSanchez24","gender":"1","school":"6","age":"11"},{"start_time":1551899882870,"click_time":1551899884097,"finger_time":1551899883737,"fix_duration":953.6956025299918,"trial":26,"RT":867,"MT":360,"sideResp":2,"stimulus":[],"xmouse":[783,783,783,783,783,783,783,783,783,783,783,783,783,783,783,783,783,783,783,783,783,783,783,783,783,783,783,783,783,783,783,783,783,783,783,783,783,783,783,783,783,793,801,813,830,854,886,913,938,961,977,996,999,999,999,999,1004,1011,1022,1037,1052,1070],"ymouse":[628,628,628,628,628,628,628,628,628,628,628,628,628,628,628,628,628,628,628,628,628,628,628,628,628,628,628,628,628,628,628,628,628,628,628,628,628,628,628,628,628,615,597,566,501,420,308,255,221,197,181,160,154,150,147,145,138,126,113,93,75,50],"timestamp_mouse":[20,43,48,67,86,106,126,147,166,186,207,228,247,268,288,307,327,347,368,387,408,426,446,467,486,506,528,547,567,587,607,628,647,667,687,707,727,747,766,786,808,827,847,867,888,908,926,947,966,986,1007,1027,1047,1067,1086,1106,1126,1146,1167,1187,1206,1227],"xSR":741.5,"ySR":573.95,"xT1":424.9,"yT1":0,"xT2":1058.1,"yT2":0,"toosoon":0,"cond_shown":"Congruent","ratio_trial":200,"L_num":9,"L_den":30,"R_num":13,"R_den":26,"correct_side":2,"subjID":"AnaSofiaMatallanaSanchez24","gender":"1","school":"6","age":"11"},{"start_time":1551899889450,"click_time":1551899891098,"finger_time":1551899890036,"fix_duration":250,"trial":27,"RT":586,"MT":1062,"sideResp":2,"stimulus":[],"xmouse":[798,798,798,798,798,798,798,798,798,798,798,798,798,798,798,798,798,800,806,811,812,812,812,812,812,812,812,812,812,812,809,809,809,809,809,809,809,809,809,809,809,809,809,809,809,809,809,809,809,809,809,809,809,809,809,809,809,809,809,809,812,824,837,838,838,839,839,839,839,839,839,839,839,839,839,839,839,858,925,969,1006,1031,1095],"ymouse":[601,601,601,601,601,601,601,601,601,601,601,601,601,601,601,601,601,601,597,591,586,579,574,574,574,574,574,574,574,573,568,567,567,567,567,567,567,567,567,567,567,567,567,567,567,567,567,567,567,567,567,567,567,567,567,567,567,567,567,563,552,525,498,493,493,493,493,493,493,493,493,493,493,493,493,493,491,462,362,292,230,179,57],"timestamp_mouse":[10,35,47,68,86,107,127,146,166,187,206,228,247,266,287,306,326,346,366,387,407,428,446,467,487,508,527,546,566,586,606,628,647,667,686,708,727,747,767,787,807,827,846,866,887,908,927,947,967,987,1007,1027,1046,1067,1086,1107,1127,1148,1168,1187,1208,1227,1248,1267,1286,1306,1328,1347,1367,1388,1406,1426,1447,1467,1486,1507,1527,1548,1567,1586,1606,1627,1648],"xSR":741.5,"ySR":573.95,"xT1":424.9,"yT1":0,"xT2":1058.1,"yT2":0,"toosoon":0,"cond_shown":"Congruent","ratio_trial":100,"L_num":3,"L_den":20,"R_num":4,"R_den":16,"correct_side":2,"subjID":"AnaSofiaMatallanaSanchez24","gender":"1","school":"6","age":"11"},{"start_time":1551899892595,"click_time":1551899894136,"finger_time":1551899893997,"fix_duration":618.500709704083,"trial":28,"RT":1402,"MT":139,"sideResp":2,"stimulus":[],"xmouse":[756,756,756,757,758,762,766,767,769,769,769,769,769,769,769,769,769,769,769,769,769,769,769,769,769,769,769,769,769,769,769,769,769,769,769,769,769,769,769,769,769,769,769,769,769,769,769,769,769,769,769,769,769,769,769,769,769,769,769,769,769,769,769,769,769,769,769,769,775,781,834,915,954,995,1043,1101,1116,1123],"ymouse":[619,620,620,620,620,620,620,620,620,620,620,620,620,620,620,620,620,620,620,620,620,620,620,620,620,620,620,620,620,620,620,620,620,620,620,620,620,620,620,620,620,620,620,620,620,620,620,620,620,620,620,620,620,620,620,620,620,620,620,620,620,620,620,620,620,620,620,620,615,605,524,392,328,275,219,141,115,97],"timestamp_mouse":[9,35,41,63,83,101,121,141,162,181,202,222,243,263,282,301,322,341,361,382,403,421,443,461,482,502,522,541,561,583,603,621,642,661,683,702,722,743,762,782,802,821,842,862,883,903,922,942,961,983,1002,1022,1043,1061,1082,1102,1123,1143,1161,1181,1201,1223,1242,1262,1282,1302,1322,1341,1361,1381,1402,1422,1442,1461,1481,1502,1522,1541],"xSR":741.5,"ySR":573.95,"xT1":424.9,"yT1":0,"xT2":1058.1,"yT2":0,"toosoon":0,"cond_shown":"Incongruent","ratio_trial":100,"L_num":8,"L_den":16,"R_num":6,"R_den":10,"correct_side":2,"subjID":"AnaSofiaMatallanaSanchez24","gender":"1","school":"6","age":"11"},{"start_time":1551899896001,"click_time":1551899896997,"finger_time":1551899896596,"fix_duration":1064.585359821995,"trial":29,"RT":595,"MT":401,"sideResp":2,"stimulus":[],"xmouse":[793,793,793,793,793,793,793,793,793,793,793,793,793,793,793,793,793,793,793,793,793,793,793,793,793,793,793,793,794,851,904,919,924,924,924,924,924,924,924,928,935,947,967,991,1026,1034,1040,1045,1050,1060],"ymouse":[620,620,620,620,620,620,620,620,620,620,620,620,620,620,620,620,620,620,620,620,620,620,620,620,620,620,620,620,618,471,305,263,245,244,244,244,244,244,244,225,205,187,166,149,127,120,115,111,106,97],"timestamp_mouse":[20,42,56,75,96,116,135,156,175,197,216,235,256,277,296,316,335,357,375,395,416,436,457,475,496,515,537,555,576,595,617,636,656,676,697,715,736,755,776,796,816,835,855,877,897,916,936,956,976,995],"xSR":741.5,"ySR":573.95,"xT1":424.9,"yT1":0,"xT2":1058.1,"yT2":0,"toosoon":0,"cond_shown":"Congruent","ratio_trial":100,"L_num":6,"L_den":12,"R_num":15,"R_den":25,"correct_side":2,"subjID":"AnaSofiaMatallanaSanchez24","gender":"1","school":"6","age":"11"},{"start_time":1551899899200,"click_time":1551899900358,"finger_time":1551899900058,"fix_duration":1121.8626000562117,"trial":30,"RT":858,"MT":300,"sideResp":1,"stimulus":[],"xmouse":[801,801,801,801,801,801,801,801,801,801,801,801,801,801,801,801,801,801,801,801,801,801,801,801,801,801,801,801,801,801,801,801,801,801,801,801,801,801,801,801,801,799,785,742,595,519,475,457,451,451,449,448,448,448,448,448,448,449],"ymouse":[610,610,610,610,610,610,610,610,610,610,610,610,610,610,610,610,610,610,610,610,610,610,610,610,610,610,610,610,610,610,610,610,610,610,610,610,610,610,610,610,610,602,550,463,252,178,135,121,116,115,104,101,101,101,101,101,100,95],"timestamp_mouse":[33,46,58,77,97,118,137,157,178,198,217,237,258,278,298,318,338,358,377,397,418,438,458,478,498,518,538,558,578,597,618,638,658,677,699,718,738,757,777,797,818,837,858,878,897,917,937,957,977,997,1018,1037,1058,1078,1098,1117,1137,1157],"xSR":741.5,"ySR":573.95,"xT1":424.9,"yT1":0,"xT2":1058.1,"yT2":0,"toosoon":0,"cond_shown":"Incongruent","ratio_trial":300,"L_num":3,"L_den":6,"R_num":4,"R_den":20,"correct_side":1,"subjID":"AnaSofiaMatallanaSanchez24","gender":"1","school":"6","age":"11"},{"start_time":1551899902566,"click_time":1551899904318,"finger_time":1551899903639,"fix_duration":987.9095496352207,"trial":31,"RT":1073,"MT":679,"sideResp":2,"stimulus":[],"xmouse":[783,783,783,783,783,783,783,783,783,783,783,783,783,783,783,783,783,783,783,783,783,783,783,783,783,783,783,783,783,783,783,783,783,783,783,783,783,783,783,783,783,783,783,783,783,783,783,783,783,783,783,782,759,745,741,741,741,741,741,741,741,741,741,741,741,741,746,755,785,844,919,1096,1171,1216,1223,1227,1234,1236,1237,1237,1237,1237,1237,1237,1235,1229,1171,1117],"ymouse":[619,619,619,619,619,619,619,619,619,619,619,619,619,619,619,619,619,619,619,619,619,619,619,619,619,619,619,619,619,619,619,619,619,619,619,619,619,619,619,619,619,619,619,619,619,619,619,619,619,619,619,616,584,568,563,563,563,563,563,563,563,563,563,563,563,563,544,525,487,427,357,212,146,110,99,90,78,71,68,67,67,67,67,66,66,67,66,59],"timestamp_mouse":[11,31,52,72,92,111,131,152,171,191,211,232,252,271,292,312,331,352,372,391,412,432,451,472,491,511,531,552,571,591,612,631,652,672,692,712,732,751,771,792,811,832,851,872,893,912,932,952,971,991,1011,1031,1051,1073,1092,1112,1131,1151,1172,1193,1212,1231,1251,1271,1291,1311,1332,1351,1371,1392,1412,1433,1451,1471,1491,1511,1531,1552,1572,1593,1612,1632,1651,1671,1692,1711,1731,1751],"xSR":741.5,"ySR":573.95,"xT1":424.9,"yT1":0,"xT2":1058.1,"yT2":0,"toosoon":0,"cond_shown":"Congruent","ratio_trial":300,"L_num":1,"L_den":5,"R_num":3,"R_den":6,"correct_side":2,"subjID":"AnaSofiaMatallanaSanchez24","gender":"1","school":"6","age":"11"},{"start_time":1551899906275,"click_time":1551899907597,"finger_time":1551899907197,"fix_duration":856.7879538745584,"trial":32,"RT":922,"MT":400,"sideResp":1,"stimulus":[],"xmouse":[782,782,782,782,782,782,782,782,782,782,782,782,782,782,782,782,782,782,782,782,782,782,782,782,782,782,782,782,782,782,782,782,782,782,782,782,782,782,782,782,782,782,782,782,777,765,701,689,652,636,608,595,583,576,573,571,568,563,558,555,553,551,550,548,542,535,511],"ymouse":[612,612,612,612,612,612,612,612,612,612,612,612,612,612,612,612,612,612,612,612,612,612,612,612,612,612,612,612,612,612,612,612,612,612,612,612,612,612,612,612,612,612,612,612,611,592,519,508,466,440,379,347,320,300,284,271,244,206,189,178,171,164,162,155,144,132,99],"timestamp_mouse":[11,37,43,63,82,103,122,142,163,184,203,222,242,262,282,302,324,342,362,383,403,422,442,462,482,502,522,542,562,582,602,622,642,663,682,702,722,742,762,783,802,822,842,862,882,902,922,942,962,982,1004,1022,1042,1063,1083,1102,1122,1143,1162,1183,1203,1223,1243,1263,1282,1303,1322],"xSR":741.5,"ySR":573.95,"xT1":424.9,"yT1":0,"xT2":1058.1,"yT2":0,"toosoon":0,"cond_shown":"Congruent","ratio_trial":100,"L_num":15,"L_den":25,"R_num":13,"R_den":26,"correct_side":1,"subjID":"AnaSofiaMatallanaSanchez24","gender":"1","school":"6","age":"11"},{"start_time":1551899909475,"click_time":1551899911297,"finger_time":1551899910797,"fix_duration":1195.7464749170456,"trial":33,"RT":1322,"MT":500,"sideResp":2,"stimulus":[],"xmouse":[791,791,791,791,791,791,791,791,791,791,791,791,791,791,791,791,791,791,791,791,791,791,791,791,791,791,791,791,791,791,791,791,791,791,791,791,791,791,791,791,791,791,791,791,791,791,791,791,791,791,791,791,791,791,791,791,791,791,791,791,791,791,791,790,788,784,770,755,750,746,744,744,744,744,744,744,753,797,924,1011,1073,1119,1125,1129,1133,1134,1136,1137,1137,1137,1137,1137],"ymouse":[629,629,629,629,629,629,629,629,629,629,629,629,629,629,629,629,629,629,629,629,629,629,629,629,629,629,629,629,629,629,629,629,629,629,629,629,629,629,629,629,629,629,629,629,629,629,629,629,629,629,629,629,629,629,629,629,629,629,629,629,629,629,629,615,607,591,536,488,467,453,448,448,448,448,448,448,443,409,327,268,225,186,176,168,163,159,151,146,137,129,115,73],"timestamp_mouse":[15,38,42,62,84,102,122,142,162,182,203,222,243,262,282,302,322,342,364,382,402,422,443,463,482,503,522,543,563,583,603,623,642,663,682,702,722,743,762,782,804,823,843,863,883,903,923,942,962,982,1002,1022,1043,1062,1082,1103,1122,1142,1162,1183,1202,1223,1242,1262,1282,1303,1322,1342,1363,1383,1402,1423,1443,1462,1482,1503,1522,1542,1562,1582,1602,1622,1642,1663,1683,1702,1723,1743,1762,1782,1803,1822],"xSR":741.5,"ySR":573.95,"xT1":424.9,"yT1":0,"xT2":1058.1,"yT2":0,"toosoon":0,"cond_shown":"Incongruent","ratio_trial":100,"L_num":13,"L_den":26,"R_num":12,"R_den":20,"correct_side":2,"subjID":"AnaSofiaMatallanaSanchez24","gender":"1","school":"6","age":"11"},{"start_time":1551899912499,"click_time":1551899914017,"finger_time":1551899913698,"fix_duration":279.5642215854861,"trial":34,"RT":1199,"MT":319,"sideResp":2,"stimulus":[],"xmouse":[771,771,771,771,771,771,771,771,771,771,771,771,771,771,771,771,771,771,771,771,771,771,771,771,771,771,771,771,771,771,771,771,771,771,771,771,771,771,771,771,771,771,771,771,771,771,771,771,771,771,771,771,771,771,771,771,771,772,776,783,832,880,929,973,1003,1032,1034,1037,1040,1041,1047,1053,1054,1058,1061,1067,1071],"ymouse":[615,615,615,615,615,615,615,615,615,615,615,615,615,615,615,615,615,615,615,615,615,615,615,615,615,615,615,615,615,615,615,615,615,615,615,615,615,615,615,615,615,615,615,615,615,615,615,615,615,615,615,615,615,615,615,615,615,615,615,612,568,510,434,357,289,193,176,162,154,151,137,129,126,118,112,103,98],"timestamp_mouse":[1,32,38,59,78,98,118,139,158,179,198,218,239,258,278,298,319,339,358,378,398,418,439,458,478,499,518,539,558,578,598,618,639,659,679,699,718,738,758,778,798,818,839,858,878,899,918,939,959,979,998,1018,1038,1058,1078,1098,1119,1138,1158,1179,1199,1218,1238,1258,1278,1298,1318,1339,1358,1379,1398,1420,1438,1458,1478,1498,1518],"xSR":741.5,"ySR":573.95,"xT1":424.9,"yT1":0,"xT2":1058.1,"yT2":0,"toosoon":0,"cond_shown":"Incongruent","ratio_trial":100,"L_num":8,"L_den":20,"R_num":1,"R_den":2,"correct_side":2,"subjID":"AnaSofiaMatallanaSanchez24","gender":"1","school":"6","age":"11"},{"start_time":1551899915269,"click_time":1551899916999,"finger_time":1551899916097,"fix_duration":250,"trial":35,"RT":828,"MT":902,"sideResp":2,"stimulus":[],"xmouse":[775,775,775,775,775,775,775,775,775,775,775,775,778,779,781,782,784,786,786,788,789,791,791,791,791,791,791,791,791,791,791,791,791,791,791,791,793,807,816,826,835,842,842,842,843,843,845,850,858,867,881,916,935,953,966,975,986,989,991,993,996,999,999,999,999,999,1000,1002,1004,1005,1008,1012,1015,1019,1023,1026,1029,1032,1036,1038,1041,1042,1043,1048,1054,1058,1063],"ymouse":[644,647,647,647,647,647,647,647,647,647,647,647,648,648,648,648,647,646,646,645,644,643,643,643,643,643,643,643,643,643,643,643,643,643,643,643,641,633,627,622,616,611,611,611,610,610,609,607,600,587,569,492,437,387,341,312,251,228,208,188,172,152,147,146,146,146,139,133,128,125,121,116,112,108,104,102,98,94,91,90,88,88,88,86,84,82,79],"timestamp_mouse":[19,35,49,68,88,109,129,148,168,188,209,229,248,269,288,309,328,348,368,388,408,428,448,469,489,509,529,548,568,588,608,629,648,669,689,708,728,749,768,788,810,828,849,868,889,909,928,949,968,988,1008,1028,1048,1068,1089,1109,1128,1148,1168,1188,1208,1228,1248,1268,1288,1309,1327,1349,1368,1388,1409,1428,1448,1468,1489,1509,1528,1548,1568,1589,1608,1628,1649,1668,1689,1709,1730],"xSR":741.5,"ySR":573.95,"xT1":424.9,"yT1":0,"xT2":1058.1,"yT2":0,"toosoon":0,"cond_shown":"Incongruent","ratio_trial":300,"L_num":4,"L_den":20,"R_num":2,"R_den":4,"correct_side":2,"subjID":"AnaSofiaMatallanaSanchez24","gender":"1","school":"6","age":"11"},{"start_time":1551899918711,"click_time":1551899920059,"finger_time":1551899919897,"fix_duration":650.7787012134036,"trial":36,"RT":1186,"MT":162,"sideResp":1,"stimulus":[],"xmouse":[801,801,801,801,801,801,801,801,801,801,801,801,801,801,801,801,801,801,801,801,801,801,801,801,801,801,801,801,801,801,801,801,801,801,801,801,801,801,801,801,801,801,801,801,801,801,801,801,801,800,799,798,798,798,798,797,797,797,794,752,701,650,592,556,523,514,510,507],"ymouse":[623,623,623,623,623,623,623,623,623,623,623,623,623,623,623,623,623,623,623,623,623,623,623,623,623,623,623,623,623,623,623,623,623,623,623,623,623,623,623,623,623,623,623,623,623,623,623,623,623,623,623,623,623,623,623,622,617,607,587,487,413,335,258,209,140,112,103,97],"timestamp_mouse":[10,35,47,66,87,106,126,146,166,186,206,226,246,266,286,306,326,346,367,386,406,426,447,467,486,506,527,546,567,586,606,626,646,667,686,706,726,746,767,786,806,826,846,866,886,906,926,946,966,987,1006,1027,1047,1066,1086,1106,1127,1146,1166,1186,1207,1226,1246,1266,1286,1306,1326,1347],"xSR":741.5,"ySR":573.95,"xT1":424.9,"yT1":0,"xT2":1058.1,"yT2":0,"toosoon":0,"cond_shown":"Incongruent","ratio_trial":300,"L_num":3,"L_den":6,"R_num":4,"R_den":20,"correct_side":1,"subjID":"AnaSofiaMatallanaSanchez24","gender":"1","school":"6","age":"11"},{"start_time":1551899922715,"click_time":1551899923858,"finger_time":1551899923397,"fix_duration":1317.525303606995,"trial":37,"RT":682,"MT":461,"sideResp":2,"stimulus":[],"xmouse":[783,783,783,783,783,783,783,783,783,783,783,783,783,783,783,783,783,783,783,783,783,783,783,785,802,804,806,806,806,806,806,808,810,826,844,853,864,874,886,911,940,976,1004,1022,1027,1029,1031,1035,1038,1040,1040,1040,1040,1040,1041,1048,1055,1061],"ymouse":[621,621,621,621,621,621,621,621,621,621,621,621,621,621,621,621,621,621,621,621,621,621,621,619,614,613,612,612,612,612,612,611,610,605,595,582,562,538,512,451,364,250,188,139,122,114,104,93,84,77,75,75,75,75,74,67,61,57],"timestamp_mouse":[21,36,43,62,82,102,123,142,163,183,202,223,242,262,283,302,322,343,362,383,402,422,443,462,483,502,522,543,562,582,602,622,643,662,682,703,722,743,763,782,803,822,843,864,882,903,922,942,963,983,1003,1023,1043,1063,1083,1102,1122,1142],"xSR":741.5,"ySR":573.95,"xT1":424.9,"yT1":0,"xT2":1058.1,"yT2":0,"toosoon":0,"cond_shown":"Congruent","ratio_trial":200,"L_num":3,"L_den":6,"R_num":14,"R_den":20,"correct_side":2,"subjID":"AnaSofiaMatallanaSanchez24","gender":"1","school":"6","age":"11"},{"start_time":1551899926148,"click_time":1551899927158,"finger_time":1551899926837,"fix_duration":1387.6628971870684,"trial":38,"RT":689,"MT":321,"sideResp":1,"stimulus":[],"xmouse":[804,804,804,804,804,804,804,804,804,804,804,804,804,804,804,804,804,804,804,804,804,804,804,804,804,804,804,804,804,804,804,804,804,804,804,792,762,687,662,651,637,626,606,592,585,572,559,533,528,526,523],"ymouse":[621,621,621,621,621,621,621,621,621,621,621,621,621,621,621,621,621,621,621,621,621,621,621,621,621,621,621,621,621,621,621,621,621,621,560,489,391,229,188,160,130,106,72,55,49,43,38,32,31,31,32],"timestamp_mouse":[10,32,50,69,90,110,129,150,169,189,210,229,249,270,289,309,330,350,369,389,410,429,450,469,490,509,529,549,569,590,610,630,650,669,689,710,729,749,770,789,809,830,849,869,889,909,930,949,969,989,1009],"xSR":741.5,"ySR":573.95,"xT1":424.9,"yT1":0,"xT2":1058.1,"yT2":0,"toosoon":0,"cond_shown":"Congruent","ratio_trial":300,"L_num":24,"L_den":30,"R_num":2,"R_den":4,"correct_side":1,"subjID":"AnaSofiaMatallanaSanchez24","gender":"1","school":"6","age":"11"},{"start_time":1551900015849,"click_time":1551900016759,"finger_time":1551900016100,"fix_duration":1026.9803929371255,"trial":39,"RT":251,"MT":659,"sideResp":2,"stimulus":[],"xmouse":[785,785,785,785,785,785,785,787,788,791,791,794,799,800,801,801,801,801,801,801,801,801,801,801,801,801,801,832,873,913,967,1002,1029,1033,1035,1037,1038,1040,1043,1045,1046,1046,1046,1049,1055,1060],"ymouse":[626,626,626,626,626,626,626,625,621,613,604,593,564,558,556,556,556,556,556,556,556,556,556,556,556,556,556,506,436,365,283,225,178,165,153,139,124,108,91,84,81,81,81,79,77,74],"timestamp_mouse":[11,33,51,70,90,110,130,150,170,191,211,231,251,270,290,310,331,350,370,391,410,431,451,470,490,512,530,550,570,590,610,631,651,670,690,710,730,750,771,790,810,831,851,871,890,910],"xSR":741.5,"ySR":573.95,"xT1":424.9,"yT1":0,"xT2":1058.1,"yT2":0,"toosoon":0,"cond_shown":"Incongruent","ratio_trial":200,"L_num":4,"L_den":6,"R_num":14,"R_den":30,"correct_side":1,"subjID":"AnaSofiaMatallanaSanchez24","gender":"1","school":"6","age":"11"},{"start_time":1551900019594,"click_time":1551900020839,"finger_time":1551900020400,"fix_duration":374.2803153656282,"trial":40,"RT":806,"MT":439,"sideResp":1,"stimulus":[],"xmouse":[788,788,788,788,788,788,788,788,788,788,788,788,788,788,788,788,788,788,788,788,788,788,788,788,788,788,788,788,788,788,788,788,788,788,788,788,789,786,770,746,701,682,672,657,641,614,595,570,555,532,505,501,495,487,481,477,476,476,476,476,476,476,476],"ymouse":[651,651,651,651,651,651,651,651,651,651,651,651,651,651,651,651,651,651,651,651,651,651,651,651,651,651,651,651,651,651,651,651,651,651,651,651,644,633,607,576,524,499,486,463,439,407,386,356,338,305,230,214,194,166,145,116,110,107,107,107,107,104,98],"timestamp_mouse":[10,36,45,65,86,105,126,146,166,185,205,225,246,265,285,305,326,346,366,385,405,425,445,465,485,505,525,545,565,585,605,625,645,665,685,706,725,746,765,785,806,825,846,865,886,905,926,946,966,985,1006,1025,1045,1066,1086,1105,1125,1146,1165,1186,1205,1226,1245],"xSR":741.5,"ySR":573.95,"xT1":424.9,"yT1":0,"xT2":1058.1,"yT2":0,"toosoon":0,"cond_shown":"Incongruent","ratio_trial":200,"L_num":4,"L_den":5,"R_num":6,"R_den":10,"correct_side":1,"subjID":"AnaSofiaMatallanaSanchez24","gender":"1","school":"6","age":"11"},{"start_time":1551900023393,"click_time":1551900024321,"finger_time":1551900023999,"fix_duration":453.00863092576714,"trial":41,"RT":606,"MT":322,"sideResp":2,"stimulus":[],"xmouse":[790,790,790,790,790,790,790,790,790,790,790,790,790,790,790,790,790,790,790,790,790,790,790,790,790,790,790,790,790,791,839,874,883,890,895,898,898,899,901,910,944,979,1005,1023,1036,1058,1062],"ymouse":[627,627,627,627,627,627,627,627,627,627,627,627,627,627,627,627,627,627,627,627,627,627,627,627,627,627,627,627,627,624,565,523,510,490,471,461,454,446,436,404,300,222,170,134,112,79,71],"timestamp_mouse":[13,35,47,66,86,106,127,146,166,186,207,226,246,267,287,306,326,346,366,386,406,426,447,467,486,507,526,546,567,586,606,626,646,666,686,706,726,746,767,786,806,827,846,866,886,906,927],"xSR":741.5,"ySR":573.95,"xT1":424.9,"yT1":0,"xT2":1058.1,"yT2":0,"toosoon":0,"cond_shown":"Congruent","ratio_trial":300,"L_num":8,"L_den":16,"R_num":1,"R_den":5,"correct_side":1,"subjID":"AnaSofiaMatallanaSanchez24","gender":"1","school":"6","age":"11"},{"start_time":1551900025584,"click_time":1551900026279,"finger_time":1551900026200,"fix_duration":264.78247779742657,"trial":42,"RT":616,"MT":79,"sideResp":1,"stimulus":[],"xmouse":[806,806,806,806,806,806,806,806,806,806,806,806,806,806,806,806,806,806,806,806,806,806,806,806,806,806,806,806,805,801,766,737,666,586,483],"ymouse":[631,631,631,631,631,631,631,631,631,631,631,631,631,631,631,631,631,631,631,631,631,631,631,631,631,631,631,631,628,612,559,521,377,241,23],"timestamp_mouse":[33,35,55,75,96,115,136,155,175,195,216,235,255,276,295,315,335,355,376,395,415,436,456,475,495,516,536,557,576,596,616,636,655,675,695],"xSR":741.5,"ySR":573.95,"xT1":424.9,"yT1":0,"xT2":1058.1,"yT2":0,"toosoon":0,"cond_shown":"Incongruent","ratio_trial":200,"L_num":4,"L_den":5,"R_num":6,"R_den":10,"correct_side":1,"subjID":"AnaSofiaMatallanaSanchez24","gender":"1","school":"6","age":"11"},{"start_time":1551900028414,"click_time":1551900029620,"finger_time":1551900029500,"fix_duration":891.4647048336012,"trial":43,"RT":1086,"MT":120,"sideResp":2,"stimulus":[],"xmouse":[809,809,809,809,809,809,809,809,809,809,809,809,809,809,809,809,809,809,809,809,809,809,809,809,809,809,809,809,809,809,809,809,809,809,809,809,809,809,809,809,809,809,809,809,809,809,809,809,809,809,809,809,809,834,902,966,1012,1052,1081,1093,1093],"ymouse":[634,634,634,634,634,634,634,634,634,634,634,634,634,634,634,634,634,634,634,634,634,634,634,634,634,634,634,634,634,634,634,634,634,634,634,634,634,634,634,634,634,634,634,634,634,634,634,634,634,634,634,634,634,594,506,414,329,252,180,103,80],"timestamp_mouse":[13,36,45,66,85,106,126,146,165,185,205,226,245,266,285,305,325,345,365,385,405,425,446,466,486,505,525,545,566,585,605,625,646,666,685,705,725,745,765,785,805,826,846,866,885,905,925,945,966,986,1005,1025,1046,1066,1086,1106,1125,1145,1165,1185,1206],"xSR":741.5,"ySR":573.95,"xT1":424.9,"yT1":0,"xT2":1058.1,"yT2":0,"toosoon":0,"cond_shown":"Congruent","ratio_trial":200,"L_num":9,"L_den":30,"R_num":13,"R_den":26,"correct_side":2,"subjID":"AnaSofiaMatallanaSanchez24","gender":"1","school":"6","age":"11"},{"start_time":1551900030551,"click_time":1551900031281,"finger_time":1551900031179,"fix_duration":250,"trial":44,"RT":628,"MT":102,"sideResp":1,"stimulus":[],"xmouse":[813,813,813,813,813,813,813,813,813,813,813,813,813,813,813,813,813,813,813,813,813,813,813,813,813,813,813,813,813,813,800,788,689,642,589,537,508],"ymouse":[604,604,604,604,604,604,604,604,604,604,604,604,604,604,604,604,604,604,604,604,604,604,604,604,604,604,604,604,604,604,590,573,438,375,301,235,62],"timestamp_mouse":[9,31,48,68,88,108,128,148,168,188,208,228,248,268,289,309,328,348,368,389,408,429,448,468,488,508,529,549,568,588,608,628,648,668,688,709,729],"xSR":741.5,"ySR":573.95,"xT1":424.9,"yT1":0,"xT2":1058.1,"yT2":0,"toosoon":0,"cond_shown":"Congruent","ratio_trial":200,"L_num":20,"L_den":25,"R_num":9,"R_den":15,"correct_side":1,"subjID":"AnaSofiaMatallanaSanchez24","gender":"1","school":"6","age":"11"},{"start_time":1551900033373,"click_time":1551900034739,"finger_time":1551900034420,"fix_duration":1192.5783378477583,"trial":45,"RT":1047,"MT":319,"sideResp":1,"stimulus":[],"xmouse":[789,789,789,789,789,789,789,789,789,789,789,789,789,789,789,789,789,789,789,789,789,789,789,789,789,789,789,789,789,789,789,789,789,789,789,789,789,789,789,789,789,789,789,789,789,789,789,789,789,789,789,789,769,740,705,671,599,574,564,557,554,551,550,547,543,541,532,527,520],"ymouse":[619,619,619,619,619,619,619,619,619,619,619,619,619,619,619,619,619,619,619,619,619,619,619,619,619,619,619,619,619,619,619,619,619,619,619,619,619,619,619,619,619,619,619,619,619,619,619,619,619,619,619,619,563,505,441,373,238,207,185,169,160,152,147,142,134,128,106,94,77],"timestamp_mouse":[15,35,46,66,86,107,126,146,166,186,207,227,246,267,286,307,326,346,366,387,406,427,446,466,486,506,527,546,566,587,606,626,646,666,686,706,726,746,766,786,806,826,847,866,887,907,926,946,966,986,1006,1026,1047,1066,1087,1107,1126,1146,1167,1186,1206,1226,1246,1266,1287,1307,1326,1346,1366],"xSR":741.5,"ySR":573.95,"xT1":424.9,"yT1":0,"xT2":1058.1,"yT2":0,"toosoon":0,"cond_shown":"Incongruent","ratio_trial":300,"L_num":2,"L_den":4,"R_num":6,"R_den":30,"correct_side":1,"subjID":"AnaSofiaMatallanaSanchez24","gender":"1","school":"6","age":"11"},{"start_time":1551900036875,"click_time":1551900037839,"finger_time":1551900037719,"fix_duration":1353.3713292299528,"trial":46,"RT":844,"MT":120,"sideResp":2,"stimulus":[],"xmouse":[761,761,761,761,761,763,769,771,771,771,771,771,771,771,771,771,771,771,771,771,771,771,771,771,771,771,771,771,771,771,771,771,771,771,771,771,771,771,771,771,772,797,821,867,943,1005,1086,1110,1117],"ymouse":[608,608,608,608,608,608,609,610,610,610,610,610,610,610,610,610,610,610,610,610,610,610,610,610,610,610,610,610,610,610,610,610,610,610,610,610,610,610,610,610,610,591,569,518,421,312,171,111,85],"timestamp_mouse":[10,38,44,64,84,104,125,144,164,185,205,225,244,264,285,305,324,345,364,385,405,424,444,465,484,504,524,544,564,585,604,624,644,665,685,704,725,744,764,784,804,825,844,865,885,905,924,944,964],"xSR":741.5,"ySR":573.95,"xT1":424.9,"yT1":0,"xT2":1058.1,"yT2":0,"toosoon":0,"cond_shown":"Congruent","ratio_trial":200,"L_num":13,"L_den":26,"R_num":14,"R_den":20,"correct_side":2,"subjID":"AnaSofiaMatallanaSanchez24","gender":"1","school":"6","age":"11"},{"start_time":1551900039688,"click_time":1551900040779,"finger_time":1551900040660,"fix_duration":966.229236861495,"trial":47,"RT":972,"MT":119,"sideResp":2,"stimulus":[],"xmouse":[793,793,793,793,793,793,793,793,793,793,793,793,793,793,793,793,793,793,793,793,793,793,793,793,793,793,793,793,793,793,793,793,793,793,793,793,793,793,793,793,793,793,793,793,793,793,793,810,840,936,974,1008,1044,1066,1077],"ymouse":[610,610,610,610,610,610,610,610,610,610,610,610,610,610,610,610,610,610,610,610,610,610,610,610,610,610,610,610,610,610,610,610,610,610,610,610,610,610,610,610,610,610,610,610,610,610,610,594,553,389,320,255,176,115,77],"timestamp_mouse":[15,40,52,72,91,112,132,152,171,191,211,232,252,272,291,311,331,351,373,392,412,431,452,472,491,512,531,551,572,592,611,631,652,671,691,712,731,752,772,792,811,831,852,872,891,911,931,952,972,992,1011,1031,1052,1072,1091],"xSR":741.5,"ySR":573.95,"xT1":424.9,"yT1":0,"xT2":1058.1,"yT2":0,"toosoon":0,"cond_shown":"Incongruent","ratio_trial":300,"L_num":13,"L_den":26,"R_num":12,"R_den":15,"correct_side":2,"subjID":"AnaSofiaMatallanaSanchez24","gender":"1","school":"6","age":"11"},{"start_time":1551900041864,"click_time":1551900043219,"finger_time":1551900043099,"fix_duration":323.92331213159173,"trial":48,"RT":1235,"MT":120,"sideResp":2,"stimulus":[],"xmouse":[770,770,770,770,770,770,770,770,770,770,770,770,770,770,770,770,770,770,770,770,770,770,770,770,770,770,770,770,770,770,770,770,770,770,770,770,770,770,770,770,770,770,770,770,770,770,770,770,770,770,770,770,770,770,770,770,771,771,771,774,793,848,893,943,990,1026,1085,1097],"ymouse":[620,620,620,620,620,620,620,620,620,620,620,620,620,620,620,620,620,620,620,620,620,620,620,620,620,620,620,620,620,620,620,620,620,620,620,620,620,620,620,620,620,620,620,620,620,620,620,620,620,620,620,620,620,620,620,620,620,620,620,618,593,522,457,376,288,229,124,99],"timestamp_mouse":[15,35,56,75,95,115,135,156,176,195,216,236,255,276,295,315,335,356,376,395,415,436,455,475,495,515,535,555,576,595,615,636,655,675,696,715,735,756,775,795,816,836,856,876,896,916,935,955,975,995,1016,1036,1055,1076,1095,1116,1136,1155,1175,1195,1215,1235,1256,1276,1295,1316,1335,1355],"xSR":741.5,"ySR":573.95,"xT1":424.9,"yT1":0,"xT2":1058.1,"yT2":0,"toosoon":0,"cond_shown":"Congruent","ratio_trial":200,"L_num":3,"L_den":10,"R_num":7,"R_den":14,"correct_side":2,"subjID":"AnaSofiaMatallanaSanchez24","gender":"1","school":"6","age":"11"},{"start_time":1551900045349,"click_time":1551900046299,"finger_time":1551900045919,"fix_duration":1347.4676839637082,"trial":49,"RT":570,"MT":380,"sideResp":1,"stimulus":[],"xmouse":[797,797,797,797,797,797,797,797,797,797,797,797,797,797,797,797,797,797,797,797,797,797,797,797,797,797,797,791,780,763,740,713,666,646,637,630,619,602,596,589,579,570,550,545,541,536,532,524],"ymouse":[626,626,626,626,626,626,626,626,626,626,626,626,626,626,626,626,626,626,626,626,626,626,626,626,626,626,626,604,566,516,450,370,286,250,233,216,198,176,169,161,146,129,103,96,92,86,80,69],"timestamp_mouse":[14,35,52,70,91,110,131,150,170,191,210,230,252,270,291,311,331,350,371,390,410,430,450,470,491,510,530,550,570,590,611,631,651,671,690,710,730,750,770,790,812,831,850,870,891,910,930,950],"xSR":741.5,"ySR":573.95,"xT1":424.9,"yT1":0,"xT2":1058.1,"yT2":0,"toosoon":0,"cond_shown":"Congruent","ratio_trial":300,"L_num":4,"L_den":5,"R_num":2,"R_den":4,"correct_side":1,"subjID":"AnaSofiaMatallanaSanchez24","gender":"1","school":"6","age":"11"},{"start_time":1551900047633,"click_time":1551900048820,"finger_time":1551900048440,"fix_duration":551.416316518418,"trial":50,"RT":807,"MT":380,"sideResp":1,"stimulus":[],"xmouse":[785,785,785,785,785,785,785,785,785,785,785,785,785,785,785,785,785,785,785,785,785,785,785,785,785,785,785,785,785,785,785,785,785,785,785,785,785,784,781,774,765,747,725,685,674,661,647,632,590,578,571,567,564,558,554,549,547,542,527,520],"ymouse":[615,615,615,615,615,615,615,615,615,615,615,615,615,615,615,615,615,615,615,615,615,615,615,615,615,615,615,615,615,615,615,615,615,615,615,615,615,615,603,574,546,503,464,397,370,345,315,291,209,189,175,167,156,133,123,113,107,98,80,71],"timestamp_mouse":[8,40,46,67,86,106,126,146,166,187,206,226,246,266,286,307,326,346,367,386,406,426,446,466,486,506,526,547,566,586,606,626,646,666,686,706,726,746,767,786,807,826,846,866,887,906,927,946,966,986,1006,1027,1047,1066,1087,1107,1127,1146,1167,1186],"xSR":741.5,"ySR":573.95,"xT1":424.9,"yT1":0,"xT2":1058.1,"yT2":0,"toosoon":0,"cond_shown":"Congruent","ratio_trial":300,"L_num":11,"L_den":22,"R_num":2,"R_den":10,"correct_side":1,"subjID":"AnaSofiaMatallanaSanchez24","gender":"1","school":"6","age":"11"},{"start_time":1551900050266,"click_time":1551900051500,"finger_time":1551900051140,"fix_duration":884.2447714554099,"trial":51,"RT":874,"MT":360,"sideResp":1,"stimulus":[],"xmouse":[799,799,799,799,799,799,799,799,799,799,799,799,799,799,799,799,799,799,799,799,799,799,799,799,799,799,799,799,799,799,799,799,799,799,799,799,799,799,799,799,799,799,788,756,728,688,616,560,533,512,501,494,494,493,493,492,492,492,492,492,492,492],"ymouse":[638,638,638,638,638,638,638,638,638,638,638,638,638,638,638,638,638,638,638,638,638,638,638,638,638,638,638,638,638,638,638,638,638,638,638,638,638,638,638,638,638,638,594,514,447,377,264,194,171,153,146,139,139,137,134,126,120,114,110,105,101,95],"timestamp_mouse":[16,33,53,74,93,114,133,153,173,193,213,234,253,274,294,314,333,354,374,394,413,433,453,473,494,513,533,553,573,593,614,634,654,674,694,714,734,753,774,794,814,833,853,874,894,913,934,953,973,993,1013,1033,1053,1074,1093,1114,1133,1154,1173,1193,1213,1234],"xSR":741.5,"ySR":573.95,"xT1":424.9,"yT1":0,"xT2":1058.1,"yT2":0,"toosoon":0,"cond_shown":"Congruent","ratio_trial":100,"L_num":11,"L_den":22,"R_num":4,"R_den":10,"correct_side":1,"subjID":"AnaSofiaMatallanaSanchez24","gender":"1","school":"6","age":"11"},{"start_time":1551900052982,"click_time":1551900054019,"finger_time":1551900053660,"fix_duration":421.90674013779375,"trial":52,"RT":678,"MT":359,"sideResp":2,"stimulus":[],"xmouse":[796,796,796,796,796,796,796,796,796,796,796,796,796,796,796,796,796,796,796,796,796,796,796,796,796,796,796,796,796,796,796,797,817,839,904,930,950,965,977,987,997,998,1000,1002,1002,1004,1008,1016,1027,1038,1055,1065],"ymouse":[614,614,614,614,614,614,614,614,614,614,614,614,614,614,614,614,614,614,614,614,614,614,614,614,614,614,614,614,614,614,614,605,578,533,397,330,284,249,217,195,172,169,165,162,160,156,148,137,126,116,101,92],"timestamp_mouse":[35,38,58,77,97,117,138,157,177,197,217,237,258,277,297,317,337,358,378,397,417,437,457,478,497,518,537,558,577,598,617,638,657,678,698,717,737,757,777,797,818,837,857,878,897,917,937,957,978,997,1017,1037],"xSR":741.5,"ySR":573.95,"xT1":424.9,"yT1":0,"xT2":1058.1,"yT2":0,"toosoon":0,"cond_shown":"Congruent","ratio_trial":100,"L_num":7,"L_den":14,"R_num":15,"R_den":25,"correct_side":2,"subjID":"AnaSofiaMatallanaSanchez24","gender":"1","school":"6","age":"11"},{"start_time":1551900057530,"click_time":1551900059500,"finger_time":1551900058700,"fix_duration":1389.8008640724554,"trial":53,"RT":1170,"MT":800,"sideResp":1,"stimulus":[],"xmouse":[771,771,771,771,771,771,771,771,771,771,771,771,771,771,771,771,771,771,771,771,771,771,771,771,771,771,771,771,771,771,771,771,771,771,771,771,771,771,771,771,771,771,771,771,771,771,771,771,771,771,771,771,771,771,771,773,777,790,841,868,897,926,951,960,967,977,983,988,997,1000,1002,1003,1005,1005,1005,1005,1005,1005,1005,1005,1005,1003,981,868,726,627,558,525,496,492,491,489,487,482,482,482,482,482,483],"ymouse":[621,621,621,621,621,621,621,621,621,621,621,621,621,621,621,621,621,621,621,621,621,621,621,621,621,621,621,621,621,621,621,621,621,621,621,621,621,621,621,621,621,621,621,621,621,621,621,621,616,612,610,610,610,609,607,602,595,579,509,459,411,363,322,307,291,270,258,245,224,213,206,199,194,194,194,194,194,194,193,193,193,190,185,151,98,65,36,16,0,0,0,0,0,0,0,0,0,0,1],"timestamp_mouse":[11,31,49,70,90,110,129,149,169,189,209,229,250,269,289,310,329,349,369,390,409,429,450,469,489,511,529,549,569,589,609,629,649,669,690,709,729,749,770,790,809,829,849,869,889,909,930,949,970,989,1009,1029,1049,1069,1090,1109,1130,1149,1170,1190,1210,1230,1250,1269,1289,1309,1329,1349,1369,1389,1409,1430,1450,1469,1490,1509,1529,1549,1570,1589,1609,1629,1650,1669,1690,1710,1730,1750,1769,1789,1810,1829,1849,1869,1889,1910,1929,1950,1970],"xSR":741.5,"ySR":573.95,"xT1":424.9,"yT1":0,"xT2":1058.1,"yT2":0,"toosoon":0,"cond_shown":"Incongruent","ratio_trial":200,"L_num":7,"L_den":10,"R_num":8,"R_den":16,"correct_side":1,"subjID":"AnaSofiaMatallanaSanchez24","gender":"1","school":"6","age":"11"},{"start_time":1551900060350,"click_time":1551900061399,"finger_time":1551900060959,"fix_duration":250.27417461791023,"trial":54,"RT":609,"MT":440,"sideResp":2,"stimulus":[],"xmouse":[765,765,765,765,765,765,765,765,765,765,765,765,765,765,765,765,765,765,765,765,765,765,765,765,765,765,765,765,776,790,836,894,1007,1019,1021,1021,1021,1021,1021,1021,1021,1019,1019,1030,1037,1041,1047,1051,1051,1053,1054,1056,1063],"ymouse":[627,627