[{"start_time":1551900546671,"click_time":1551900550513,"finger_time":1551900550391,"fix_duration":1436.0939612392742,"trial":0,"RT":3720,"MT":122,"sideResp":2,"stimulus":"img/900/randomdotsizeEA/R/13_Ratio_900_L_18_R_20.png","xmouse":[822,822,822,822,822,822,822,822,822,822,822,822,822,822,822,822,822,822,822,822,822,822,822,822,822,822,822,822,822,822,822,822,822,822,822,822,822,822,822,822,822,822,822,822,822,822,822,822,822,822,822,822,822,822,822,822,822,822,822,822,822,822,822,822,822,822,822,822,822,822,822,822,822,822,822,822,822,822,822,822,822,822,822,822,822,822,822,822,822,822,822,822,822,822,822,822,822,822,822,822,822,822,822,822,822,822,822,822,822,822,822,822,822,822,822,822,822,822,822,822,822,822,822,822,822,822,822,822,822,822,822,822,822,822,822,822,822,822,822,822,822,822,822,822,822,822,822,822,822,822,822,822,822,822,822,822,822,822,822,822,822,822,822,822,822,822,822,822,822,822,822,822,822,822,822,822,822,822,822,822,822,822,822,822,822,822,831,886,924,966,1000,1028,1070],"ymouse":[539,539,539,539,539,539,539,539,539,539,539,539,539,539,539,539,539,539,539,539,539,539,539,539,539,539,539,539,539,539,539,539,539,539,539,539,539,539,539,539,539,539,539,539,539,539,539,539,539,539,539,539,539,539,539,539,539,539,539,539,539,539,539,539,539,539,539,539,539,539,539,539,539,539,539,539,539,539,539,539,539,539,539,539,539,539,539,539,539,539,539,539,539,539,539,539,539,539,539,539,539,539,539,539,539,539,539,539,539,539,539,539,539,539,539,539,539,539,539,539,539,539,539,539,539,539,539,539,539,539,539,539,539,539,539,539,539,539,539,539,539,539,539,539,539,539,539,539,539,539,539,539,539,539,539,539,539,539,539,539,539,539,539,539,539,539,539,539,539,539,539,539,539,539,539,539,539,539,539,539,539,539,539,539,539,525,463,344,277,210,168,131,73],"timestamp_mouse":[10,20,43,59,79,99,119,139,160,180,199,219,239,259,280,300,320,339,360,380,399,419,439,459,479,499,519,539,559,579,599,620,640,659,680,700,720,740,759,779,799,820,840,860,879,899,919,939,959,980,1000,1019,1039,1060,1080,1100,1119,1140,1159,1179,1199,1219,1239,1259,1279,1299,1319,1340,1360,1379,1399,1419,1440,1459,1479,1499,1519,1539,1559,1579,1599,1619,1640,1660,1679,1699,1719,1739,1760,1780,1799,1819,1839,1859,1880,1899,1919,1939,1960,1980,1999,2019,2039,2059,2079,2100,2119,2139,2160,2179,2199,2219,2239,2260,2280,2299,2319,2339,2359,2379,2399,2420,2440,2459,2479,2499,2519,2539,2559,2579,2599,2620,2640,2660,2680,2699,2720,2740,2759,2779,2799,2819,2839,2859,2879,2900,2921,2939,2960,2980,3000,3019,3039,3059,3079,3099,3119,3140,3161,3180,3199,3219,3240,3259,3279,3300,3320,3340,3359,3379,3400,3419,3440,3459,3479,3499,3520,3539,3560,3579,3599,3619,3639,3660,3680,3700,3720,3741,3759,3780,3800,3819,3841],"xSR":741.5,"ySR":501.8,"xT1":424.9,"yT1":0,"xT2":1058.1,"yT2":0,"toosoon":0,"cond_shown":"randomdotsizeEA","ratio_trial":900,"smaller_num":"18","larger_num":"20","correct_side":2,"subjID":"luisramirez18","gender":"0","age":"11","school":"6","test":{"fix_dur":[250,1500],"timestim":300,"targets_dim":[100,100],"targets_relative_coord":[0.3,0.7],"size_stim":[880,420],"start_dim":[100,100],"size_start":[300,300],"size_fix":60,"samplingrate":20,"img_types":["equaldotsize","equaldotanddens","randomdotsizeEA"],"ratios":[250,500,750,900],"rep_conds":9,"nTrials":120,"trials_to_rest":500,"Trials_order":[95,111,74,48,14,91,107,9,61,116,96,37,101,57,53,109,23,28,103,43,105,84,39,46,0,10,113,11,69,79,17,20,56,35,44,13,63,115,59,5,106,32,21,73,27,18,93,87,65,77,47,22,68,15,12,19,76,50,94,89,104,112,88,99,52,16,38,67,2,92,98,81,62,1,49,30,78,51,72,100,7,75,70,117,40,24,71,80,110,34,97,29,90,66,6,86,55,41,85,60,64,102,82,58,118,26,114,45,4,108,83,25,36,33,8,119,54,3,31,42],"cond_shown":["randomdotsizeEA","equaldotsize","randomdotsizeEA","equaldotsize","randomdotsizeEA","equaldotanddens","randomdotsizeEA","equaldotsize","equaldotanddens","randomdotsizeEA","equaldotsize","equaldotanddens","randomdotsizeEA","equaldotsize","randomdotsizeEA","equaldotanddens","randomdotsizeEA","equaldotanddens","equaldotanddens","equaldotanddens","equaldotsize","equaldotsize","equaldotsize","equaldotanddens","equaldotsize","equaldotanddens","randomdotsizeEA","randomdotsizeEA","equaldotsize","equaldotanddens","randomdotsizeEA","randomdotsizeEA","randomdotsizeEA","randomdotsizeEA","randomdotsizeEA","equaldotanddens","equaldotsize","equaldotanddens","randomdotsizeEA","randomdotsizeEA","equaldotanddens","randomdotsizeEA","equaldotsize","equaldotanddens","equaldotsize","equaldotsize","equaldotsize","equaldotsize","randomdotsizeEA","randomdotsizeEA","randomdotsizeEA","equaldotanddens","randomdotsizeEA","equaldotsize","equaldotsize","equaldotanddens","equaldotanddens","randomdotsizeEA","equaldotanddens","randomdotsizeEA","randomdotsizeEA","equaldotanddens","equaldotanddens","equaldotsize","equaldotanddens","equaldotanddens","randomdotsizeEA","equaldotanddens","randomdotsizeEA","randomdotsizeEA","randomdotsizeEA","equaldotsize","randomdotsizeEA","equaldotanddens","equaldotanddens","equaldotsize","equaldotsize","equaldotsize","equaldotsize","equaldotanddens","equaldotanddens","equaldotsize","equaldotanddens","equaldotsize","equaldotanddens","equaldotsize","randomdotsizeEA","randomdotsizeEA","randomdotsizeEA","equaldotanddens","equaldotanddens","randomdotsizeEA","equaldotsize","equaldotsize","equaldotsize","randomdotsizeEA","equaldotanddens","randomdotsizeEA","equaldotanddens","equaldotsize","equaldotanddens","equaldotsize","equaldotanddens","equaldotanddens","equaldotanddens","randomdotsizeEA","equaldotsize","equaldotsize","equaldotanddens","equaldotsize","randomdotsizeEA","equaldotanddens","equaldotsize","equaldotsize","randomdotsizeEA","randomdotsizeEA","equaldotsize","equaldotsize","equaldotanddens","equaldotsize"],"ratio_trial":[900,500,250,250,250,750,900,900,250,750,250,250,500,900,500,250,900,500,750,750,900,250,500,900,250,900,500,900,900,750,500,750,750,900,750,250,500,750,900,500,900,750,900,250,500,750,900,500,500,500,900,900,750,500,250,750,500,250,900,500,750,500,500,500,500,500,250,750,250,750,250,900,250,250,250,750,750,500,250,500,750,500,900,900,500,250,900,750,250,900,250,500,750,750,750,250,750,500,250,250,500,750,900,900,900,250,750,900,500,250,900,250,250,900,750,900,750,500,750,750],"smaller_num":["18","5","2","3","2","6","18","18","4","3","5","2","2","18","2","6","18","6","12","18","9","1","6","18","2","18","3","9","18","15","9","15","15","18","3","3","1","3","18","2","18","3","18","2","9","15","9","2","3","1","18","18","3","1","1","15","2","6","18","9","12","2","9","4","5","1","5","3","1","18","4","9","2","2","2","6","3","9","4","2","3","9","18","9","2","3","9","3","2","18","3","2","3","3","3","6","6","3","6","2","9","15","18","9","18","3","15","18","9","5","18","3","3","18","3","18","3","2","6","6"],"larger_num":["20","10","8","12","8","8","20","20","16","4","20","8","4","20","4","24","20","12","16","24","10","4","12","20","8","20","6","10","20","20","18","20","20","20","4","12","2","4","20","4","20","4","20","8","18","20","10","4","6","2","20","20","4","2","4","20","4","24","20","18","16","4","18","8","10","2","20","4","4","24","16","10","8","8","8","8","4","18","16","4","4","18","20","10","4","12","10","4","8","20","12","4","4","4","4","24","8","6","24","8","18","20","20","10","20","12","20","20","18","20","20","12","12","20","4","20","4","4","8","8"],"correct_side":[2,2,1,2,2,1,1,2,2,1,2,1,1,2,1,2,2,1,2,1,1,2,1,1,1,1,2,2,2,1,1,2,2,2,1,1,2,2,1,1,1,2,2,1,2,2,2,2,2,2,2,1,1,2,2,2,1,2,2,1,2,2,1,1,1,2,2,2,2,1,1,2,1,1,1,1,1,1,2,1,1,1,2,2,1,2,2,2,2,1,1,2,1,2,1,1,1,2,2,1,2,2,1,1,1,1,1,2,2,2,1,2,1,2,1,1,1,1,1,1],"img_shown":["img/900/randomdotsizeEA/R/13_Ratio_900_L_18_R_20.png","img/500/equaldotsize/R/14_Ratio_500_L_5_R_10.png","img/250/randomdotsizeEA/L/3_Ratio_250_L_8_R_2.png","img/250/equaldotsize/R/4_Ratio_250_L_3_R_12.png","img/250/randomdotsizeEA/R/13_Ratio_250_L_2_R_8.png","img/750/equaldotanddens/L/14_Ratio_750_L_8_R_6.png","img/900/randomdotsizeEA/L/4_Ratio_900_L_20_R_18.png","img/900/equaldotsize/R/11_Ratio_900_L_18_R_20.png","img/250/equaldotanddens/R/10_Ratio_250_L_4_R_16.png","img/750/randomdotsizeEA/L/10_Ratio_750_L_4_R_3.png","img/250/equaldotsize/R/12_Ratio_250_L_5_R_20.png","img/250/equaldotanddens/L/1_Ratio_250_L_8_R_2.png","img/500/randomdotsizeEA/L/5_Ratio_500_L_4_R_2.png","img/900/equaldotsize/R/14_Ratio_900_L_18_R_20.png","img/500/randomdotsizeEA/L/10_Ratio_500_L_4_R_2.png","img/250/equaldotanddens/R/6_Ratio_250_L_6_R_24.png","img/900/randomdotsizeEA/R/11_Ratio_900_L_18_R_20.png","img/500/equaldotanddens/L/11_Ratio_500_L_12_R_6.png","img/750/equaldotanddens/R/11_Ratio_750_L_12_R_16.png","img/750/equaldotanddens/L/6_Ratio_750_L_24_R_18.png","img/900/equaldotsize/L/1_Ratio_900_L_10_R_9.png","img/250/equaldotsize/R/8_Ratio_250_L_1_R_4.png","img/500/equaldotsize/L/11_Ratio_500_L_12_R_6.png","img/900/equaldotanddens/L/2_Ratio_900_L_20_R_18.png","img/250/equaldotsize/L/7_Ratio_250_L_8_R_2.png","img/900/equaldotanddens/L/8_Ratio_900_L_20_R_18.png","img/500/randomdotsizeEA/R/2_Ratio_500_L_3_R_6.png","img/900/randomdotsizeEA/R/7_Ratio_900_L_9_R_10.png","img/900/equaldotsize/R/14_Ratio_900_L_18_R_20.png","img/750/equaldotanddens/L/1_Ratio_750_L_20_R_15.png","img/500/randomdotsizeEA/L/4_Ratio_500_L_18_R_9.png","img/750/randomdotsizeEA/R/3_Ratio_750_L_15_R_20.png","img/750/randomdotsizeEA/R/5_Ratio_750_L_15_R_20.png","img/900/randomdotsizeEA/R/14_Ratio_900_L_18_R_20.png","img/750/randomdotsizeEA/L/10_Ratio_750_L_4_R_3.png","img/250/equaldotanddens/L/14_Ratio_250_L_12_R_3.png","img/500/equaldotsize/R/12_Ratio_500_L_1_R_2.png","img/750/equaldotanddens/R/7_Ratio_750_L_3_R_4.png","img/900/randomdotsizeEA/L/10_Ratio_900_L_20_R_18.png","img/500/randomdotsizeEA/L/5_Ratio_500_L_4_R_2.png","img/900/equaldotanddens/L/2_Ratio_900_L_20_R_18.png","img/750/randomdotsizeEA/R/12_Ratio_750_L_3_R_4.png","img/900/equaldotsize/R/11_Ratio_900_L_18_R_20.png","img/250/equaldotanddens/L/1_Ratio_250_L_8_R_2.png","img/500/equaldotsize/R/6_Ratio_500_L_9_R_18.png","img/750/equaldotsize/R/5_Ratio_750_L_15_R_20.png","img/900/equaldotsize/R/7_Ratio_900_L_9_R_10.png","img/500/equaldotsize/R/9_Ratio_500_L_2_R_4.png","img/500/randomdotsizeEA/R/2_Ratio_500_L_3_R_6.png","img/500/randomdotsizeEA/R/15_Ratio_500_L_1_R_2.png","img/900/randomdotsizeEA/R/9_Ratio_900_L_18_R_20.png","img/900/equaldotanddens/L/8_Ratio_900_L_20_R_18.png","img/750/randomdotsizeEA/L/10_Ratio_750_L_4_R_3.png","img/500/equaldotsize/R/12_Ratio_500_L_1_R_2.png","img/250/equaldotsize/R/8_Ratio_250_L_1_R_4.png","img/750/equaldotanddens/R/4_Ratio_750_L_15_R_20.png","img/500/equaldotanddens/L/5_Ratio_500_L_4_R_2.png","img/250/randomdotsizeEA/R/6_Ratio_250_L_6_R_24.png","img/900/equaldotanddens/R/14_Ratio_900_L_18_R_20.png","img/500/randomdotsizeEA/L/4_Ratio_500_L_18_R_9.png","img/750/randomdotsizeEA/R/11_Ratio_750_L_12_R_16.png","img/500/equaldotanddens/R/9_Ratio_500_L_2_R_4.png","img/500/equaldotanddens/L/4_Ratio_500_L_18_R_9.png","img/500/equaldotsize/L/8_Ratio_500_L_8_R_4.png","img/500/equaldotanddens/L/7_Ratio_500_L_10_R_5.png","img/500/equaldotanddens/R/15_Ratio_500_L_1_R_2.png","img/250/randomdotsizeEA/R/12_Ratio_250_L_5_R_20.png","img/750/equaldotanddens/R/12_Ratio_750_L_3_R_4.png","img/250/randomdotsizeEA/R/8_Ratio_250_L_1_R_4.png","img/750/randomdotsizeEA/L/6_Ratio_750_L_24_R_18.png","img/250/randomdotsizeEA/L/2_Ratio_250_L_16_R_4.png","img/900/equaldotsize/R/3_Ratio_900_L_9_R_10.png","img/250/randomdotsizeEA/L/1_Ratio_250_L_8_R_2.png","img/250/equaldotanddens/L/1_Ratio_250_L_8_R_2.png","img/250/equaldotanddens/L/3_Ratio_250_L_8_R_2.png","img/750/equaldotsize/L/13_Ratio_750_L_8_R_6.png","img/750/equaldotsize/L/10_Ratio_750_L_4_R_3.png","img/500/equaldotsize/L/4_Ratio_500_L_18_R_9.png","img/250/equaldotsize/R/10_Ratio_250_L_4_R_16.png","img/500/equaldotanddens/L/10_Ratio_500_L_4_R_2.png","img/750/equaldotanddens/L/10_Ratio_750_L_4_R_3.png","img/500/equaldotsize/L/4_Ratio_500_L_18_R_9.png","img/900/equaldotanddens/R/13_Ratio_900_L_18_R_20.png","img/900/equaldotsize/R/3_Ratio_900_L_9_R_10.png","img/500/equaldotanddens/L/5_Ratio_500_L_4_R_2.png","img/250/equaldotsize/R/9_Ratio_250_L_3_R_12.png","img/900/randomdotsizeEA/R/15_Ratio_900_L_9_R_10.png","img/750/randomdotsizeEA/R/12_Ratio_750_L_3_R_4.png","img/250/randomdotsizeEA/R/13_Ratio_250_L_2_R_8.png","img/900/equaldotanddens/L/8_Ratio_900_L_20_R_18.png","img/250/equaldotanddens/L/15_Ratio_250_L_12_R_3.png","img/500/randomdotsizeEA/R/9_Ratio_500_L_2_R_4.png","img/750/equaldotsize/L/9_Ratio_750_L_4_R_3.png","img/750/equaldotsize/R/12_Ratio_750_L_3_R_4.png","img/750/equaldotsize/L/8_Ratio_750_L_4_R_3.png","img/250/randomdotsizeEA/L/5_Ratio_250_L_24_R_6.png","img/750/equaldotanddens/L/13_Ratio_750_L_8_R_6.png","img/500/randomdotsizeEA/R/2_Ratio_500_L_3_R_6.png","img/250/equaldotanddens/R/6_Ratio_250_L_6_R_24.png","img/250/equaldotsize/L/1_Ratio_250_L_8_R_2.png","img/500/equaldotanddens/R/6_Ratio_500_L_9_R_18.png","img/750/equaldotsize/R/5_Ratio_750_L_15_R_20.png","img/900/equaldotanddens/L/4_Ratio_900_L_20_R_18.png","img/900/equaldotanddens/L/1_Ratio_900_L_10_R_9.png","img/900/equaldotanddens/L/8_Ratio_900_L_20_R_18.png","img/250/randomdotsizeEA/L/14_Ratio_250_L_12_R_3.png","img/750/equaldotsize/L/1_Ratio_750_L_20_R_15.png","img/900/equaldotsize/R/11_Ratio_900_L_18_R_20.png","img/500/equaldotanddens/R/1_Ratio_500_L_9_R_18.png","img/250/equaldotsize/R/12_Ratio_250_L_5_R_20.png","img/900/randomdotsizeEA/L/2_Ratio_900_L_20_R_18.png","img/250/equaldotanddens/R/4_Ratio_250_L_3_R_12.png","img/250/equaldotsize/L/14_Ratio_250_L_12_R_3.png","img/900/equaldotsize/R/9_Ratio_900_L_18_R_20.png","img/750/randomdotsizeEA/L/10_Ratio_750_L_4_R_3.png","img/900/randomdotsizeEA/L/2_Ratio_900_L_20_R_18.png","img/750/equaldotsize/L/8_Ratio_750_L_4_R_3.png","img/500/equaldotsize/L/5_Ratio_500_L_4_R_2.png","img/750/equaldotanddens/L/14_Ratio_750_L_8_R_6.png","img/750/equaldotsize/L/13_Ratio_750_L_8_R_6.png"],"Rat0":[["12_Ratio_0_L_9_R_0.png","13_Ratio_0_L_6_R_0.png","5_Ratio_0_L_2_R_0.png","6_Ratio_0_L_4_R_0.png","8_Ratio_0_L_6_R_0.png"],["1_Ratio_0_L_0_R_17.png","10_Ratio_0_L_0_R_22.png","11_Ratio_0_L_0_R_1.png","14_Ratio_0_L_0_R_24.png","15_Ratio_0_L_0_R_4.png","2_Ratio_0_L_0_R_5.png","3_Ratio_0_L_0_R_17.png","4_Ratio_0_L_0_R_7.png","7_Ratio_0_L_0_R_19.png","9_Ratio_0_L_0_R_15.png"]],"Rat250":[["1_Ratio_250_L_8_R_2.png","14_Ratio_250_L_12_R_3.png","15_Ratio_250_L_12_R_3.png","2_Ratio_250_L_16_R_4.png","3_Ratio_250_L_8_R_2.png","5_Ratio_250_L_24_R_6.png","7_Ratio_250_L_8_R_2.png"],["10_Ratio_250_L_4_R_16.png","11_Ratio_250_L_3_R_12.png","12_Ratio_250_L_5_R_20.png","13_Ratio_250_L_2_R_8.png","4_Ratio_250_L_3_R_12.png","6_Ratio_250_L_6_R_24.png","8_Ratio_250_L_1_R_4.png","9_Ratio_250_L_3_R_12.png"]],"Rat500":[["10_Ratio_500_L_4_R_2.png","11_Ratio_500_L_12_R_6.png","13_Ratio_500_L_12_R_6.png","4_Ratio_500_L_18_R_9.png","5_Ratio_500_L_4_R_2.png","7_Ratio_500_L_10_R_5.png","8_Ratio_500_L_8_R_4.png"],["1_Ratio_500_L_9_R_18.png","12_Ratio_500_L_1_R_2.png","14_Ratio_500_L_5_R_10.png","15_Ratio_500_L_1_R_2.png","2_Ratio_500_L_3_R_6.png","3_Ratio_500_L_10_R_20.png","6_Ratio_500_L_9_R_18.png","9_Ratio_500_L_2_R_4.png"]],"Rat750":[["1_Ratio_750_L_20_R_15.png","10_Ratio_750_L_4_R_3.png","13_Ratio_750_L_8_R_6.png","14_Ratio_750_L_8_R_6.png","6_Ratio_750_L_24_R_18.png","8_Ratio_750_L_4_R_3.png","9_Ratio_750_L_4_R_3.png"],["11_Ratio_750_L_12_R_16.png","12_Ratio_750_L_3_R_4.png","15_Ratio_750_L_9_R_12.png","2_Ratio_750_L_6_R_8.png","3_Ratio_750_L_15_R_20.png","4_Ratio_750_L_15_R_20.png","5_Ratio_750_L_15_R_20.png","7_Ratio_750_L_3_R_4.png"]],"Rat900":[["1_Ratio_900_L_10_R_9.png","10_Ratio_900_L_20_R_18.png","2_Ratio_900_L_20_R_18.png","4_Ratio_900_L_20_R_18.png","8_Ratio_900_L_20_R_18.png"],["11_Ratio_900_L_18_R_20.png","12_Ratio_900_L_18_R_20.png","13_Ratio_900_L_18_R_20.png","14_Ratio_900_L_18_R_20.png","15_Ratio_900_L_9_R_10.png","3_Ratio_900_L_9_R_10.png","5_Ratio_900_L_9_R_10.png","6_Ratio_900_L_9_R_10.png","7_Ratio_900_L_9_R_10.png","9_Ratio_900_L_18_R_20.png"]],"Rat1000":[["10_Ratio_1000_L_16_R_16.png","11_Ratio_1000_L_6_R_6.png","12_Ratio_1000_L_14_R_14.png","13_Ratio_1000_L_20_R_20.png","15_Ratio_1000_L_15_R_15.png","2_Ratio_1000_L_17_R_17.png","4_Ratio_1000_L_9_R_9.png","5_Ratio_1000_L_6_R_6.png","6_Ratio_1000_L_19_R_19.png","8_Ratio_1000_L_14_R_14.png","9_Ratio_1000_L_25_R_25.png"],["1_Ratio_1000_L_1_R_1.png","14_Ratio_1000_L_17_R_17.png","3_Ratio_1000_L_17_R_17.png","7_Ratio_1000_L_6_R_6.png"]]}},{"start_time":1551900558072,"click_time":1551900559351,"finger_time":1551900559111,"fix_duration":260.30382603178003,"trial":1,"RT":1039,"MT":240,"sideResp":2,"stimulus":"img/500/equaldotsize/R/14_Ratio_500_L_5_R_10.png","xmouse":[813,812,812,812,812,812,812,812,812,812,812,812,812,812,812,812,812,812,812,812,812,812,812,812,812,812,812,812,812,812,812,812,812,812,812,812,812,812,812,812,812,812,812,812,812,812,812,812,812,813,821,840,864,912,933,943,948,949,950,951,957,971,1021,1059],"ymouse":[535,536,536,536,536,536,536,536,536,536,536,536,536,536,536,536,536,536,536,536,536,536,536,536,536,536,536,536,536,536,536,536,536,536,536,536,536,536,536,536,536,536,536,536,536,536,536,536,536,527,499,433,347,171,110,86,72,65,64,64,63,59,41,24],"timestamp_mouse":[20,45,58,78,98,118,139,158,178,199,219,238,258,278,298,318,338,358,379,398,419,438,458,479,499,519,539,558,579,598,618,639,658,678,698,718,738,758,779,798,818,838,858,878,898,918,938,958,978,998,1019,1039,1059,1079,1099,1118,1138,1160,1178,1199,1218,1238,1260,1278],"xSR":741.5,"ySR":469.95,"xT1":424.9,"yT1":0,"xT2":1058.1,"yT2":0,"toosoon":0,"cond_shown":"equaldotsize","ratio_trial":500,"smaller_num":"5","larger_num":"10","correct_side":2,"subjID":"luisramirez18","gender":"0","age":"11","school":"6"},{"start_time":1551900563436,"click_time":1551900564832,"finger_time":1551900564690,"fix_duration":1403.8890040192614,"trial":2,"RT":1254,"MT":142,"sideResp":1,"stimulus":"img/250/randomdotsizeEA/L/3_Ratio_250_L_8_R_2.png","xmouse":[798,798,798,798,798,798,798,798,798,798,798,798,798,798,798,798,798,798,798,798,798,798,798,798,798,798,798,798,798,798,798,798,798,798,798,798,798,798,798,798,798,798,798,798,798,798,798,798,798,798,798,798,798,798,798,798,798,798,798,798,796,793,783,761,714,604,569,539,526,512],"ymouse":[521,521,521,521,521,521,521,521,521,521,521,521,521,521,521,521,521,521,521,521,521,521,521,521,521,521,521,521,521,521,521,521,521,521,521,521,521,521,521,521,521,521,521,521,521,521,521,521,521,521,521,521,521,521,521,521,521,521,521,521,519,492,461,405,327,189,146,104,86,69],"timestamp_mouse":[15,45,55,74,94,114,135,155,174,194,214,234,254,274,295,315,334,354,374,394,414,435,455,475,494,514,534,555,575,594,614,635,654,674,695,714,734,754,774,794,814,834,854,874,895,914,934,954,975,994,1014,1035,1055,1074,1094,1114,1136,1154,1175,1195,1214,1234,1254,1276,1294,1315,1334,1354,1374,1396],"xSR":741.5,"ySR":469.95,"xT1":424.9,"yT1":0,"xT2":1058.1,"yT2":0,"toosoon":0,"cond_shown":"randomdotsizeEA","ratio_trial":250,"smaller_num":"2","larger_num":"8","correct_side":1,"subjID":"luisramirez18","gender":"0","age":"11","school":"6"},{"start_time":1551900579773,"click_time":1551900581250,"finger_time":1551900580511,"fix_duration":601.7053243476531,"trial":3,"RT":738,"MT":739,"sideResp":2,"stimulus":"img/250/equaldotsize/R/4_Ratio_250_L_3_R_12.png","xmouse":[830,830,830,830,830,830,830,830,830,830,830,830,830,830,830,830,830,830,830,830,830,830,830,830,830,830,830,830,830,830,830,830,830,830,830,830,848,882,908,907,886,886,886,886,888,895,922,978,1001,1010,1017,1021,1025,1032,1034,1039,1041,1041,1042,1042,1042,1042,1042,1042,1042,1042,1042,1042,1044,1045,1050,1053,1057,1059],"ymouse":[492,492,492,492,492,492,492,492,492,492,492,492,492,492,492,492,492,492,492,492,492,492,492,492,492,492,492,492,492,492,492,492,492,492,492,491,465,418,352,277,136,116,105,100,95,88,76,52,49,49,49,49,50,50,50,47,46,45,45,45,45,45,45,45,45,45,45,45,46,48,52,54,54,53],"timestamp_mouse":[18,39,58,78,97,117,137,157,177,198,219,237,257,277,297,317,338,357,377,397,418,438,457,477,498,518,538,557,577,598,618,637,657,677,697,718,738,758,778,797,818,837,857,877,897,917,938,957,978,997,1018,1038,1058,1078,1098,1117,1138,1157,1177,1197,1217,1237,1257,1278,1298,1319,1338,1358,1377,1397,1418,1437,1458,1477],"xSR":741.5,"ySR":469.95,"xT1":424.9,"yT1":0,"xT2":1058.1,"yT2":0,"toosoon":0,"cond_shown":"equaldotsize","ratio_trial":250,"smaller_num":"3","larger_num":"12","correct_side":2,"subjID":"luisramirez18","gender":"0","age":"11","school":"6"},{"start_time":1551900582700,"click_time":1551900584411,"finger_time":1551900584210,"fix_duration":567.0661772138719,"trial":4,"RT":1510,"MT":201,"sideResp":2,"stimulus":"img/250/randomdotsizeEA/R/13_Ratio_250_L_2_R_8.png","xmouse":[800,800,800,800,800,800,800,800,800,800,800,800,800,800,800,800,800,800,800,800,800,800,800,800,800,800,800,800,800,800,800,800,800,800,800,800,800,800,800,800,800,800,800,800,800,800,800,800,800,800,800,800,800,800,800,800,800,800,800,800,800,800,800,800,800,800,800,800,800,800,800,800,800,800,808,848,941,1002,1034,1053,1055,1056,1056,1057,1058,1059],"ymouse":[516,516,516,516,516,516,516,516,516,516,516,516,516,516,516,516,516,516,516,516,516,516,516,516,516,516,516,516,516,516,516,516,516,516,516,516,516,516,516,516,516,516,516,516,516,516,516,516,516,516,516,516,516,516,516,516,516,516,516,516,516,516,516,516,516,516,516,516,516,516,516,516,516,516,515,469,339,242,171,88,74,69,65,64,63,60],"timestamp_mouse":[11,43,51,71,91,111,130,150,171,190,210,230,250,270,290,310,330,350,370,391,411,431,450,470,491,510,530,550,570,590,610,631,650,672,691,710,730,750,770,790,810,830,850,870,891,910,930,950,971,991,1011,1030,1051,1071,1091,1112,1130,1151,1171,1190,1211,1232,1250,1270,1290,1310,1330,1350,1370,1390,1410,1431,1451,1471,1491,1510,1530,1550,1570,1592,1610,1630,1650,1670,1691,1711],"xSR":741.5,"ySR":469.95,"xT1":424.9,"yT1":0,"xT2":1058.1,"yT2":0,"toosoon":0,"cond_shown":"randomdotsizeEA","ratio_trial":250,"smaller_num":"2","larger_num":"8","correct_side":2,"subjID":"luisramirez18","gender":"0","age":"11","school":"6"},{"start_time":1551900587772,"click_time":1551900588970,"finger_time":1551900588610,"fix_duration":1179.6304838351612,"trial":5,"RT":838,"MT":360,"sideResp":1,"stimulus":"img/750/equaldotanddens/L/14_Ratio_750_L_8_R_6.png","xmouse":[763,763,763,763,763,763,763,763,763,763,763,763,763,763,763,763,763,763,763,763,763,763,763,763,763,763,763,763,763,763,763,763,763,763,763,763,763,763,763,763,763,741,710,653,595,555,529,523,521,518,515,511,510,510,510,509,504,499,496,493],"ymouse":[506,506,506,506,506,506,506,506,506,506,506,506,506,506,506,506,506,506,506,506,506,506,506,506,506,506,506,506,506,506,506,506,506,506,506,506,506,506,506,506,506,486,451,401,345,303,267,256,246,235,216,183,172,163,156,147,124,112,103,98],"timestamp_mouse":[18,42,58,78,100,118,138,158,178,198,219,239,258,278,298,319,339,359,378,399,418,439,460,479,498,518,538,558,578,598,618,639,659,678,698,719,738,758,778,798,818,838,859,879,898,919,939,958,979,999,1018,1038,1059,1078,1100,1119,1138,1159,1178,1198],"xSR":741.5,"ySR":469.95,"xT1":424.9,"yT1":0,"xT2":1058.1,"yT2":0,"toosoon":0,"cond_shown":"equaldotanddens","ratio_trial":750,"smaller_num":"6","larger_num":"8","correct_side":1,"subjID":"luisramirez18","gender":"0","age":"11","school":"6"},{"start_time":1551900592484,"click_time":1551900594130,"finger_time":1551900593670,"fix_duration":652.1304446632629,"trial":6,"RT":1186,"MT":460,"sideResp":1,"stimulus":"img/900/randomdotsizeEA/L/4_Ratio_900_L_20_R_18.png","xmouse":[783,783,783,783,783,783,783,783,783,783,783,783,783,783,783,783,783,783,783,783,783,783,783,783,783,783,783,783,783,783,783,783,783,783,783,783,783,783,783,783,783,783,783,783,783,783,783,783,783,783,783,783,783,783,783,783,782,775,767,754,741,674,632,603,588,576,561,558,555,554,550,535,530,529,526,521,499,490,486,482,479,475,474],"ymouse":[499,499,499,499,499,499,499,499,499,499,499,499,499,499,499,499,499,499,499,499,499,499,499,499,499,499,499,499,499,499,499,499,499,499,499,499,499,499,499,499,499,499,499,499,499,499,499,499,499,499,499,499,499,499,499,499,500,498,485,460,437,380,343,321,305,287,256,247,240,234,223,198,191,186,179,166,129,119,116,114,112,104,94],"timestamp_mouse":[11,43,47,66,86,106,126,146,167,187,206,227,246,266,287,306,326,347,367,386,407,427,446,466,486,506,526,547,567,586,607,626,646,666,686,707,727,747,768,786,806,826,846,866,886,906,927,946,967,987,1006,1026,1046,1066,1086,1107,1126,1147,1166,1186,1206,1227,1247,1267,1287,1308,1328,1346,1366,1386,1406,1429,1447,1467,1486,1506,1528,1546,1567,1588,1606,1628,1646],"xSR":741.5,"ySR":469.95,"xT1":424.9,"yT1":0,"xT2":1058.1,"yT2":0,"toosoon":0,"cond_shown":"randomdotsizeEA","ratio_trial":900,"smaller_num":"18","larger_num":"20","correct_side":1,"subjID":"luisramirez18","gender":"0","age":"11","school":"6"},{"start_time":1551900596864,"click_time":1551900598231,"finger_time":1551900598070,"fix_duration":572.2515770341498,"trial":7,"RT":1206,"MT":161,"sideResp":2,"stimulus":"img/900/equaldotsize/R/11_Ratio_900_L_18_R_20.png","xmouse":[789,789,789,789,789,789,789,789,789,789,789,789,789,789,789,789,789,789,789,789,789,789,789,789,789,789,789,789,789,789,789,789,789,789,789,789,789,789,789,789,789,789,789,789,789,789,789,789,789,789,789,789,789,789,789,789,789,789,792,817,881,909,977,1050,1063,1067,1067,1068,1068],"ymouse":[531,531,531,531,531,531,531,531,531,531,531,531,531,531,531,531,531,531,531,531,531,531,531,531,531,531,531,531,531,531,531,531,531,531,531,531,531,531,531,531,531,531,531,531,531,531,531,531,531,531,531,531,531,531,531,531,531,531,530,512,454,429,343,215,174,145,121,106,89],"timestamp_mouse":[10,26,46,66,86,106,126,147,167,186,206,226,246,267,287,307,326,347,368,387,406,426,446,467,487,507,527,546,567,586,606,627,647,667,687,707,726,746,766,786,807,826,846,866,886,907,927,946,967,986,1006,1026,1047,1066,1086,1106,1127,1147,1167,1186,1206,1226,1246,1266,1287,1306,1326,1346,1367],"xSR":741.5,"ySR":469.95,"xT1":424.9,"yT1":0,"xT2":1058.1,"yT2":0,"toosoon":0,"cond_shown":"equaldotsize","ratio_trial":900,"smaller_num":"18","larger_num":"20","correct_side":2,"subjID":"luisramirez18","gender":"0","age":"11","school":"6"},{"start_time":1551900599968,"click_time":1551900600951,"finger_time":1551900600651,"fix_duration":1054.3595732491835,"trial":8,"RT":683,"MT":300,"sideResp":2,"stimulus":"img/250/equaldotanddens/R/10_Ratio_250_L_4_R_16.png","xmouse":[804,804,804,804,804,804,804,804,804,804,804,804,804,804,804,804,804,804,804,804,804,804,804,804,804,804,804,804,804,804,804,804,803,816,887,928,958,982,1004,1004,997,988,981,983,991,1009,1019,1031,1058,1067],"ymouse":[541,541,541,541,541,541,541,541,541,541,541,541,541,541,541,541,541,541,541,541,541,541,541,541,541,541,541,541,541,541,541,541,541,525,454,408,338,261,204,188,171,150,133,113,104,94,88,85,84,84],"timestamp_mouse":[10,22,48,62,82,102,122,142,163,182,202,223,242,262,283,303,322,342,363,384,402,422,442,462,484,502,523,543,564,583,602,622,643,663,683,702,722,742,762,782,803,823,843,863,884,903,924,943,962,983],"xSR":741.5,"ySR":469.95,"xT1":424.9,"yT1":0,"xT2":1058.1,"yT2":0,"toosoon":0,"cond_shown":"equaldotanddens","ratio_trial":250,"smaller_num":"4","larger_num":"16","correct_side":2,"subjID":"luisramirez18","gender":"0","age":"11","school":"6"},{"start_time":1551900602090,"click_time":1551900603570,"finger_time":1551900603010,"fix_duration":298.2326527659126,"trial":9,"RT":920,"MT":560,"sideResp":1,"stimulus":"img/750/randomdotsizeEA/L/10_Ratio_750_L_4_R_3.png","xmouse":[788,788,788,788,788,788,788,788,788,788,788,788,788,788,788,788,788,788,788,788,788,788,788,788,788,788,788,788,788,788,788,788,788,788,788,788,788,788,788,788,788,788,788,788,788,803,819,918,943,959,963,963,958,953,944,930,914,898,844,816,789,757,726,681,664,651,638,625,591,578,563,551,538,526,522],"ymouse":[482,482,482,482,482,482,482,482,482,482,482,482,482,482,482,482,482,482,482,482,482,482,482,482,482,482,482,482,482,482,482,482,482,482,482,482,482,482,482,482,482,482,482,482,482,473,463,355,324,301,287,279,268,267,266,266,266,266,266,263,257,248,237,205,186,169,151,135,94,82,69,60,52,45,43],"timestamp_mouse":[14,29,41,61,80,100,121,140,160,180,200,220,240,260,280,300,322,341,360,380,400,421,440,460,480,500,520,541,561,580,600,620,640,661,681,702,721,740,760,780,801,821,841,860,880,900,920,942,960,980,1000,1020,1042,1060,1081,1101,1120,1140,1160,1180,1200,1222,1242,1260,1280,1301,1320,1340,1360,1380,1400,1421,1442,1460,1480],"xSR":741.5,"ySR":469.95,"xT1":424.9,"yT1":0,"xT2":1058.1,"yT2":0,"toosoon":0,"cond_shown":"randomdotsizeEA","ratio_trial":750,"smaller_num":"3","larger_num":"4","correct_side":1,"subjID":"luisramirez18","gender":"0","age":"11","school":"6"},{"start_time":1551900604959,"click_time":1551900605690,"finger_time":1551900605570,"fix_duration":768.1682124181119,"trial":10,"RT":611,"MT":120,"sideResp":2,"stimulus":"img/250/equaldotsize/R/12_Ratio_250_L_5_R_20.png","xmouse":[805,805,805,805,805,805,805,805,805,802,799,799,798,798,798,798,798,798,798,798,798,798,798,798,798,798,798,798,798,812,856,924,988,1046,1085,1094,1095],"ymouse":[546,546,546,546,546,546,546,546,546,546,545,545,544,544,544,544,544,544,544,544,544,544,544,544,544,544,544,544,544,529,499,451,402,320,189,121,88],"timestamp_mouse":[11,43,51,71,91,112,131,151,171,192,211,231,251,272,291,311,331,351,371,391,411,431,451,473,491,511,531,551,571,591,611,632,651,671,691,711,731],"xSR":741.5,"ySR":469.95,"xT1":424.9,"yT1":0,"xT2":1058.1,"yT2":0,"toosoon":0,"cond_shown":"equaldotsize","ratio_trial":250,"smaller_num":"5","larger_num":"20","correct_side":2,"subjID":"luisramirez18","gender":"0","age":"11","school":"6"},{"start_time":1551900635977,"click_time":1551900636912,"finger_time":1551900636611,"fix_duration":1185.4470640007396,"trial":11,"RT":634,"MT":301,"sideResp":1,"stimulus":"img/250/equaldotanddens/L/1_Ratio_250_L_8_R_2.png","xmouse":[774,774,774,774,774,774,774,774,774,774,774,774,774,774,774,774,774,774,774,774,774,774,774,774,774,774,774,774,774,776,772,746,647,603,582,572,568,568,567,567,567,567,563,555,545,534,517],"ymouse":[564,564,564,564,564,564,564,564,564,564,564,564,564,564,564,564,564,564,564,564,564,564,564,564,564,564,564,564,564,537,481,416,282,233,207,192,182,182,181,181,181,180,169,155,139,124,99],"timestamp_mouse":[14,40,54,74,94,114,133,154,174,195,213,233,253,273,293,313,333,355,374,394,413,433,455,473,493,514,533,553,574,593,613,634,654,673,693,713,735,753,773,793,813,833,853,873,893,913,935],"xSR":741.5,"ySR":469.95,"xT1":424.9,"yT1":0,"xT2":1058.1,"yT2":0,"toosoon":0,"cond_shown":"equaldotanddens","ratio_trial":250,"smaller_num":"2","larger_num":"8","correct_side":1,"subjID":"luisramirez18","gender":"0","age":"11","school":"6"},{"start_time":1551900638241,"click_time":1551900639171,"finger_time":1551900638870,"fix_duration":250,"trial":12,"RT":629,"MT":301,"sideResp":2,"stimulus":"img/500/randomdotsizeEA/L/5_Ratio_500_L_4_R_2.png","xmouse":[820,820,820,820,820,820,820,820,820,820,820,820,820,820,820,820,820,820,820,820,820,820,820,820,820,820,820,820,820,820,835,849,857,862,870,873,882,898,914,941,959,975,986,997,1037,1054,1069],"ymouse":[535,535,535,535,535,535,535,535,535,535,535,535,535,535,535,535,535,535,535,535,535,535,535,535,535,535,535,535,535,527,501,477,463,452,426,407,375,335,292,202,159,124,105,90,60,51,42],"timestamp_mouse":[10,39,49,71,89,109,129,149,169,190,209,229,249,269,289,310,329,349,369,389,409,429,449,470,490,509,529,549,569,590,609,629,650,669,689,709,730,749,769,789,809,830,849,869,889,910,929],"xSR":741.5,"ySR":469.95,"xT1":424.9,"yT1":0,"xT2":1058.1,"yT2":0,"toosoon":0,"cond_shown":"randomdotsizeEA","ratio_trial":500,"smaller_num":"2","larger_num":"4","correct_side":1,"subjID":"luisramirez18","gender":"0","age":"11","school":"6"},{"start_time":1551900643195,"click_time":1551900644590,"finger_time":1551900644330,"fix_duration":963.4343235708467,"trial":13,"RT":1135,"MT":260,"sideResp":2,"stimulus":"img/900/equaldotsize/R/14_Ratio_900_L_18_R_20.png","xmouse":[806,806,806,806,806,806,806,806,806,806,806,806,806,806,806,806,806,806,806,806,806,806,806,806,806,806,806,806,806,806,806,806,806,806,806,806,806,806,806,806,806,806,806,806,806,806,806,806,806,806,806,806,806,806,815,827,856,898,919,933,952,984,997,1016,1027,1037,1046,1051,1056,1060],"ymouse":[527,527,527,527,527,527,527,527,527,527,527,527,527,527,527,527,527,527,527,527,527,527,527,527,527,527,527,527,527,527,527,527,527,527,527,527,527,527,527,527,527,527,527,527,527,527,527,527,527,527,527,527,527,527,515,494,455,387,348,316,288,247,218,172,159,151,134,122,108,97],"timestamp_mouse":[16,40,55,75,95,115,135,155,176,196,215,235,255,275,295,316,335,356,376,395,415,435,455,475,495,515,535,555,576,596,616,636,655,675,696,716,737,755,775,795,815,835,855,875,895,915,935,955,975,995,1015,1035,1055,1076,1095,1115,1135,1156,1175,1195,1215,1237,1256,1276,1296,1317,1337,1356,1375,1395],"xSR":741.5,"ySR":469.95,"xT1":424.9,"yT1":0,"xT2":1058.1,"yT2":0,"toosoon":0,"cond_shown":"equaldotsize","ratio_trial":900,"smaller_num":"18","larger_num":"20","correct_side":2,"subjID":"luisramirez18","gender":"0","age":"11","school":"6"},{"start_time":1551900647802,"click_time":1551900648930,"finger_time":1551900648691,"fix_duration":991.86947591551,"trial":14,"RT":889,"MT":239,"sideResp":1,"stimulus":"img/500/randomdotsizeEA/L/10_Ratio_500_L_4_R_2.png","xmouse":[812,812,812,812,812,812,812,812,812,812,812,812,812,812,812,812,812,812,812,812,812,812,812,812,812,812,812,812,812,812,812,812,814,816,817,817,817,817,817,817,817,817,801,754,702,652,617,593,593,593,593,586,562,547,538,532,523],"ymouse":[535,535,535,535,535,535,535,535,535,535,535,535,535,535,535,535,535,535,535,535,535,535,535,535,535,535,535,535,535,535,535,535,535,535,535,535,535,535,535,535,535,535,518,471,423,373,339,283,261,244,232,204,151,124,110,102,93],"timestamp_mouse":[11,42,49,68,88,109,128,148,168,188,208,228,248,269,288,309,328,348,368,388,409,430,450,469,488,508,528,548,568,589,609,629,649,668,688,708,728,749,769,789,808,829,848,868,888,909,928,948,969,989,1008,1029,1048,1068,1089,1109,1128],"xSR":741.5,"ySR":469.95,"xT1":424.9,"yT1":0,"xT2":1058.1,"yT2":0,"toosoon":0,"cond_shown":"randomdotsizeEA","ratio_trial":500,"smaller_num":"2","larger_num":"4","correct_side":1,"subjID":"luisramirez18","gender":"0","age":"11","school":"6"},{"start_time":1551900652319,"click_time":1551900653430,"finger_time":1551900652911,"fix_duration":1206.9436930979527,"trial":15,"RT":592,"MT":519,"sideResp":2,"stimulus":"img/250/equaldotanddens/R/6_Ratio_250_L_6_R_24.png","xmouse":[797,797,797,797,797,797,797,797,797,797,797,797,797,797,797,797,797,797,797,797,797,797,797,797,797,797,798,808,830,847,860,875,916,946,979,989,993,1003,1006,1010,1011,1023,1033,1048,1051,1051,1051,1051,1051,1050,1050,1048,1048,1054,1062,1069],"ymouse":[543,543,543,543,543,543,543,543,543,543,543,543,543,543,543,543,543,543,543,543,543,543,543,543,543,543,543,535,508,474,439,400,320,274,236,217,204,187,186,183,183,178,173,165,160,156,147,144,141,139,137,132,125,116,105,94],"timestamp_mouse":[11,39,52,72,91,111,131,151,171,192,211,231,251,272,291,311,331,352,373,391,411,431,451,471,492,512,532,552,571,592,611,632,651,671,691,711,732,751,771,791,811,833,852,871,893,911,933,952,973,991,1011,1032,1052,1071,1091,1111],"xSR":741.5,"ySR":469.95,"xT1":424.9,"yT1":0,"xT2":1058.1,"yT2":0,"toosoon":0,"cond_shown":"equaldotanddens","ratio_trial":250,"smaller_num":"6","larger_num":"24","correct_side":2,"subjID":"luisramirez18","gender":"0","age":"11","school":"6"},{"start_time":1551900654682,"click_time":1551900655852,"finger_time":1551900655511,"fix_duration":250,"trial":16,"RT":829,"MT":341,"sideResp":1,"stimulus":"img/900/randomdotsizeEA/R/11_Ratio_900_L_18_R_20.png","xmouse":[763,763,763,763,763,763,763,763,763,763,763,763,763,763,763,763,763,763,763,763,763,763,763,763,763,763,763,763,763,763,763,763,763,763,763,763,763,763,763,763,745,704,644,587,509,503,502,502,503,505,506,506,507,507,507,507,507,504,496],"ymouse":[504,504,504,504,504,504,504,504,504,504,504,504,504,504,504,504,504,504,504,504,504,504,504,504,504,504,504,504,504,504,504,504,504,504,504,504,504,504,504,504,490,454,396,328,200,179,162,150,141,132,127,121,117,113,112,112,111,109,99],"timestamp_mouse":[11,38,48,69,88,109,129,148,168,188,208,228,248,268,289,309,328,348,368,388,409,429,449,468,488,509,529,548,568,588,608,629,649,669,688,708,728,748,769,789,809,829,849,869,888,909,929,949,968,988,1009,1030,1048,1068,1088,1108,1128,1148,1170],"xSR":741.5,"ySR":469.95,"xT1":424.9,"yT1":0,"xT2":1058.1,"yT2":0,"toosoon":0,"cond_shown":"randomdotsizeEA","ratio_trial":900,"smaller_num":"18","larger_num":"20","correct_side":2,"subjID":"luisramirez18","gender":"0","age":"11","school":"6"},{"start_time":1551900659695,"click_time":1551900660771,"finger_time":1551900660511,"fix_duration":423.69799860430913,"trial":17,"RT":816,"MT":260,"sideResp":1,"stimulus":"img/500/equaldotanddens/L/11_Ratio_500_L_12_R_6.png","xmouse":[788,788,788,788,788,788,788,788,788,788,788,788,788,788,788,788,788,788,788,788,788,788,788,788,788,788,788,788,788,788,788,788,788,788,788,788,788,788,788,768,692,599,516,415,404,401,401,401,404,404,404,407,412,430],"ymouse":[550,550,550,550,550,550,550,550,550,550,550,550,550,550,550,550,550,550,550,550,550,550,550,550,550,550,550,550,550,550,550,550,550,550,550,550,550,550,550,526,440,349,278,184,160,141,126,119,109,108,105,99,95,87],"timestamp_mouse":[15,35,55,75,95,115,136,156,175,195,215,235,255,275,295,315,335,355,375,396,415,435,455,475,495,515,535,556,576,595,615,635,655,675,695,715,736,756,775,795,816,835,856,875,895,916,936,955,976,996,1015,1036,1055,1076],"xSR":741.5,"ySR":469.95,"xT1":424.9,"yT1":0,"xT2":1058.1,"yT2":0,"toosoon":0,"cond_shown":"equaldotanddens","ratio_trial":500,"smaller_num":"6","larger_num":"12","correct_side":1,"subjID":"luisramirez18","gender":"0","age":"11","school":"6"},{"start_time":1551900662910,"click_time":1551900663850,"finger_time":1551900663570,"fix_duration":1218.810392035679,"trial":18,"RT":660,"MT":280,"sideResp":2,"stimulus":"img/750/equaldotanddens/R/11_Ratio_750_L_12_R_16.png","xmouse":[802,802,802,802,802,802,802,802,802,802,802,802,802,802,802,802,802,802,802,802,802,802,802,802,802,802,802,802,802,802,802,811,830,869,931,952,968,979,998,1010,1019,1026,1031,1037,1049,1054,1064,1078],"ymouse":[501,501,501,501,501,501,501,501,501,502,502,502,502,502,502,502,502,502,502,502,502,502,502,502,502,502,502,502,502,502,502,495,480,445,352,308,266,237,202,186,173,160,149,137,119,112,101,89],"timestamp_mouse":[10,21,48,61,81,101,120,140,160,181,200,222,240,260,280,300,321,341,361,380,400,420,440,460,481,502,520,540,560,580,600,620,641,660,681,701,720,741,762,780,801,821,841,860,880,900,921,940],"xSR":741.5,"ySR":469.95,"xT1":424.9,"yT1":0,"xT2":1058.1,"yT2":0,"toosoon":0,"cond_shown":"equaldotanddens","ratio_trial":750,"smaller_num":"12","larger_num":"16","correct_side":2,"subjID":"luisramirez18","gender":"0","age":"11","school":"6"},{"start_time":1551900671570,"click_time":1551900672471,"finger_time":1551900672271,"fix_duration":1418.7486319115444,"trial":19,"RT":701,"MT":200,"sideResp":1,"stimulus":"img/750/equaldotanddens/L/6_Ratio_750_L_24_R_18.png","xmouse":[785,785,785,785,785,785,785,785,785,785,785,785,785,785,785,785,785,785,785,785,785,785,785,785,785,785,785,785,785,785,785,785,785,778,744,696,587,554,548,548,548,542,536,531,525,518],"ymouse":[530,530,530,530,530,530,530,530,530,530,530,530,530,530,530,530,530,530,530,530,530,530,530,530,530,530,530,530,530,530,530,530,530,526,495,439,281,223,202,185,171,141,124,114,105,93],"timestamp_mouse":[11,20,40,60,80,100,120,140,160,181,200,220,242,262,280,301,321,340,360,382,400,420,440,461,480,500,520,540,560,580,600,620,641,660,681,701,722,741,761,782,800,822,840,861,881,901],"xSR":741.5,"ySR":469.95,"xT1":424.9,"yT1":0,"xT2":1058.1,"yT2":0,"toosoon":0,"cond_shown":"equaldotanddens","ratio_trial":750,"smaller_num":"18","larger_num":"24","correct_side":1,"subjID":"luisramirez18","gender":"0","age":"11","school":"6"},{"start_time":1551900673562,"click_time":1551900676531,"finger_time":1551900675011,"fix_duration":250,"trial":20,"RT":1449,"MT":1520,"sideResp":2,"stimulus":"img/900/equaldotsize/L/1_Ratio_900_L_10_R_9.png","xmouse":[828,828,828,828,828,828,828,828,828,828,828,828,828,828,828,828,828,828,828,828,828,828,828,828,828,828,828,828,828,828,828,828,828,828,828,828,828,828,828,828,828,828,828,828,828,828,828,828,828,828,828,828,828,828,828,828,828,828,828,828,828,828,828,828,828,828,828,828,828,828,828,828,841,845,846,846,846,848,851,855,855,855,855,855,855,855,855,852,850,849,848,847,847,847,847,847,847,847,847,847,847,847,847,847,847,845,843,838,837,836,836,836,836,836,836,836,836,836,836,836,836,836,836,836,836,836,838,858,880,921,933,963,978,965,955,951,949,949,954,963,969,969,969,969,1014,1026,1039,1056,1061],"ymouse":[481,481,481,481,481,481,481,481,481,481,481,481,481,481,481,481,481,481,481,481,481,481,481,481,481,481,481,481,481,481,481,481,481,481,481,481,481,481,481,481,481,481,481,481,481,481,481,481,481,481,481,481,481,481,481,481,481,481,481,481,481,481,481,481,481,481,481,481,481,481,481,481,469,466,466,466,466,467,476,483,483,483,483,483,483,483,486,491,493,494,495,495,495,495,495,495,495,495,495,495,495,495,495,495,495,499,502,509,511,512,512,512,512,512,512,512,512,512,512,512,512,512,512,512,512,512,510,482,450,372,343,258,164,103,70,51,38,22,12,4,1,1,1,1,0,12,25,43,45],"timestamp_mouse":[8,46,48,68,88,109,129,148,168,188,208,229,248,268,288,309,330,349,368,388,408,428,448,468,488,509,528,548,568,588,608,628,648,668,688,709,728,748,768,788,808,828,848,869,889,908,928,948,968,989,1008,1028,1048,1068,1088,1109,1128,1148,1168,1188,1208,1229,1248,1268,1289,1308,1328,1348,1368,1388,1408,1428,1449,1469,1488,1508,1529,1549,1569,1588,1608,1628,1649,1668,1688,1708,1728,1749,1769,1788,1808,1828,1849,1868,1888,1908,1928,1948,1968,1988,2008,2028,2049,2068,2088,2108,2128,2148,2169,2188,2208,2228,2248,2269,2289,2308,2329,2350,2369,2388,2408,2428,2448,2468,2488,2509,2528,2549,2570,2589,2609,2628,2648,2669,2689,2709,2728,2749,2769,2789,2808,2828,2849,2870,2890,2909,2928,2948,2968],"xSR":741.5,"ySR":469.95,"xT1":424.9,"yT1":0,"xT2":1058.1,"yT2":0,"toosoon":0,"cond_shown":"equaldotsize","ratio_trial":900,"smaller_num":"9","larger_num":"10","correct_side":1,"subjID":"luisramirez18","gender":"0","age":"11","school":"6"},{"start_time":1551900677522,"click_time":1551900679851,"finger_time":1551900678611,"fix_duration":250,"trial":21,"RT":1089,"MT":1240,"sideResp":2,"stimulus":"img/250/equaldotsize/R/8_Ratio_250_L_1_R_4.png","xmouse":[775,775,775,775,775,775,776,776,776,780,791,793,793,793,793,793,793,793,793,793,793,793,793,793,793,793,793,793,793,793,793,793,793,793,793,793,793,793,793,793,793,793,793,793,793,793,793,793,793,793,793,793,788,767,695,644,605,578,564,550,546,546,544,544,540,536,531,527,526,526,531,538,550,564,584,640,681,719,749,788,801,807,808,805,797,794,794,795,800,808,820,826,830,832,816,801,782,768,762,760,767,792,815,842,894,920,940,965,982,1004,1013,1017,1023,1028,1042,1057,1072],"ymouse":[550,550,550,550,550,550,550,550,550,547,534,530,529,529,529,529,529,529,529,529,529,529,529,529,529,529,529,529,529,529,529,529,529,529,529,529,529,529,529,529,529,529,529,529,529,529,529,529,529,529,529,528,521,497,409,346,300,261,237,203,194,189,186,184,178,170,159,154,152,152,154,160,170,181,198,233,254,269,283,306,321,353,399,455,534,557,574,588,595,596,588,572,558,540,500,483,469,461,456,445,431,400,369,330,251,219,191,153,132,108,97,93,90,88,81,74,68],"timestamp_mouse":[8,41,48,68,88,108,129,148,168,188,208,229,248,268,288,308,328,348,368,388,408,428,448,469,489,510,528,548,568,588,608,628,648,669,688,708,728,748,768,788,809,828,848,868,888,908,929,949,968,988,1008,1028,1048,1069,1089,1109,1130,1149,1168,1189,1209,1228,1248,1268,1289,1309,1329,1348,1368,1389,1408,1428,1449,1469,1489,1508,1529,1548,1569,1589,1610,1628,1648,1668,1689,1708,1728,1749,1769,1790,1808,1829,1850,1868,1889,1909,1929,1949,1968,1989,2008,2028,2048,2068,2089,2109,2129,2149,2169,2189,2208,2229,2248,2268,2289,2308,2329],"xSR":741.5,"ySR":469.95,"xT1":424.9,"yT1":0,"xT2":1058.1,"yT2":0,"toosoon":0,"cond_shown":"equaldotsize","ratio_trial":250,"smaller_num":"1","larger_num":"4","correct_side":2,"subjID":"luisramirez18","gender":"0","age":"11","school":"6"},{"start_time":1551900681573,"click_time":1551900682790,"finger_time":1551900682490,"fix_duration":861.830355475467,"trial":22,"RT":917,"MT":300,"sideResp":1,"stimulus":"img/500/equaldotsize/L/11_Ratio_500_L_12_R_6.png","xmouse":[773,773,773,773,773,773,773,773,773,773,773,773,773,773,773,773,773,773,773,773,773,773,773,773,773,773,773,773,773,773,773,773,773,773,773,773,773,773,773,773,773,773,772,767,757,728,690,641,596,596,596,596,596,596,596,596,596,596,596,596,493],"ymouse":[538,538,538,538,538,538,538,538,538,538,538,538,538,538,538,538,538,538,538,538,538,538,538,538,538,538,538,538,538,538,538,538,538,538,538,538,538,538,538,538,538,538,533,513,474,404,292,116,6,6,6,6,6,6,6,6,6,6,6,6,20],"timestamp_mouse":[26,40,57,77,97,117,137,158,178,197,217,238,257,277,298,318,338,357,377,398,417,437,457,477,497,517,537,557,577,597,618,637,658,677,697,717,737,758,777,797,817,837,858,878,897,917,937,957,977,997,1018,1037,1057,1077,1097,1117,1137,1157,1177,1197,1217],"xSR":741.5,"ySR":469.95,"xT1":424.9,"yT1":0,"xT2":1058.1,"yT2":0,"toosoon":0,"cond_shown":"equaldotsize","ratio_trial":500,"smaller_num":"6","larger_num":"12","correct_side":1,"subjID":"luisramirez18","gender":"0","age":"11","school":"6"},{"start_time":1551900684371,"click_time":1551900685611,"finger_time":1551900685311,"fix_duration":520.3027399620079,"trial":23,"RT":940,"MT":300,"sideResp":2,"stimulus":"img/900/equaldotanddens/L/2_Ratio_900_L_20_R_18.png","xmouse":[807,807,807,807,807,807,807,807,807,807,807,807,807,807,807,807,807,807,807,807,807,807,807,807,807,807,807,807,807,807,807,807,807,807,807,807,807,807,807,807,807,807,807,807,814,825,851,856,856,856,857,858,862,872,898,944,970,1012,1029,1046,1060,1071],"ymouse":[554,554,554,554,554,554,554,554,554,554,554,554,554,554,554,554,554,554,554,554,554,554,554,554,554,554,554,554,554,554,554,554,554,554,554,554,554,554,554,554,554,554,554,554,548,542,523,520,520,520,519,516,490,461,409,325,282,201,165,138,113,90],"timestamp_mouse":[19,42,60,80,99,120,140,159,179,199,219,239,260,280,299,319,340,360,379,400,419,439,460,480,500,519,539,560,579,599,619,639,659,679,699,719,739,759,779,800,820,839,859,879,899,919,940,960,979,999,1019,1039,1059,1080,1100,1120,1139,1159,1180,1200,1220,1240],"xSR":741.5,"ySR":469.95,"xT1":424.9,"yT1":0,"xT2":1058.1,"yT2":0,"toosoon":0,"cond_shown":"equaldotanddens","ratio_trial":900,"smaller_num":"18","larger_num":"20","correct_side":1,"subjID":"luisramirez18","gender":"0","age":"11","school":"6"},{"start_time":1551900688372,"click_time":1551900689471,"finger_time":1551900689131,"fix_duration":1280.9250475412218,"trial":24,"RT":759,"MT":340,"sideResp":1,"stimulus":"img/250/equaldotsize/L/7_Ratio_250_L_8_R_2.png","xmouse":[784,784,784,784,784,784,784,784,784,784,784,784,784,784,784,784,784,784,784,784,784,784,784,784,784,784,784,784,784,784,784,784,784,784,784,780,772,669,558,462,395,357,357,357,357,357,357,357,357,357,357,357,408,421,435],"ymouse":[552,552,552,552,552,552,552,552,552,552,552,552,552,552,552,552,552,552,552,552,552,552,552,552,552,552,552,552,552,552,552,552,552,552,552,548,540,405,269,148,68,18,18,18,18,18,18,18,18,18,18,18,5,17,29],"timestamp_mouse":[19,45,59,78,98,118,138,158,178,199,219,238,259,279,298,318,338,358,379,399,418,438,458,478,498,518,538,559,579,599,618,639,658,678,698,719,739,759,778,798,819,838,859,880,898,919,938,958,978,998,1018,1039,1060,1078,1099],"xSR":741.5,"ySR":469.95,"xT1":424.9,"yT1":0,"xT2":1058.1,"yT2":0,"toosoon":0,"cond_shown":"equaldotsize","ratio_trial":250,"smaller_num":"2","larger_num":"8","correct_side":1,"subjID":"luisramirez18","gender":"0","age":"11","school":"6"},{"start_time":1551900691938,"click_time":1551900697291,"finger_time":1551900694692,"fix_duration":1205.402668502053,"trial":25,"RT":2754,"MT":2599,"sideResp":1,"stimulus":"img/900/equaldotanddens/L/8_Ratio_900_L_20_R_18.png","xmouse":[797,797,797,797,797,797,797,797,797,797,797,797,797,797,797,797,797,797,797,797,797,797,797,797,797,797,797,797,797,797,797,797,797,797,797,797,797,797,797,797,797,797,797,797,797,797,797,797,797,797,797,797,797,797,797,797,797,797,797,797,797,797,797,797,797,797,797,797,797,797,797,797,797,797,797,797,797,797,797,797,797,797,797,797,797,797,797,797,797,797,797,797,797,797,797,797,797,797,797,797,797,797,797,797,797,797,797,797,797,797,797,797,797,797,797,797,797,797,797,797,797,797,797,797,797,797,797,797,797,797,797,797,798,793,787,772,752,738,730,729,728,728,728,728,728,728,728,728,728,728,728,728,729,733,736,736,736,736,736,736,736,736,736,736,736,736,736,736,736,736,737,742,743,744,745,746,746,746,746,746,746,746,746,746,746,746,746,746,746,746,746,746,746,746,746,746,746,746,746,746,746,746,746,746,746,746,746,746,746,744,744,744,744,744,744,744,744,744,744,744,744,744,744,744,744,744,744,744,744,744,744,744,744,744,744,744,744,744,744,744,744,744,744,744,744,744,744,743,742,741,741,741,741,741,741,740,735,727,719,713,693,682,641,610,572,518,501,487],"ymouse":[487,487,487,487,487,487,487,487,487,487,487,487,487,487,487,487,487,487,487,487,487,487,487,487,487,487,487,487,487,487,487,487,487,487,487,487,487,487,487,487,487,487,487,487,487,487,487,487,487,487,487,487,487,487,487,487,487,487,487,487,487,487,487,487,487,487,487,487,487,487,487,487,487,487,487,487,487,487,487,487,487,487,487,487,487,487,487,487,487,487,487,487,487,487,487,487,487,487,487,487,487,487,487,487,487,487,487,487,487,487,487,487,487,487,487,487,487,487,487,487,487,487,487,487,487,487,487,487,487,487,487,487,486,486,486,492,507,519,526,526,526,526,526,526,526,526,526,526,526,526,526,526,526,526,526,526,526,526,526,526,526,526,526,526,526,526,526,526,526,526,526,528,528,528,529,529,529,529,529,529,529,529,529,529,529,529,529,529,529,529,529,529,529,529,529,529,529,529,529,529,529,529,529,529,529,529,529,529,529,529,529,529,529,529,529,529,529,529,529,529,529,529,529,529,529,529,529,529,529,529,529,529,529,529,529,529,529,529,529,529,529,529,529,529,529,529,529,529,529,529,529,529,529,529,529,527,515,496,479,456,415,393,333,282,227,145,118,98],"timestamp_mouse":[12,43,53,72,92,112,132,153,174,193,213,232,252,272,292,313,333,352,372,392,412,432,453,472,493,513,532,552,572,593,612,632,652,673,692,712,732,752,773,792,812,833,852,873,892,912,932,953,973,992,1012,1032,1052,1072,1093,1112,1132,1152,1172,1193,1214,1232,1252,1272,1292,1312,1332,1352,1372,1393,1414,1432,1452,1472,1492,1512,1532,1553,1574,1592,1612,1632,1652,1673,1692,1712,1732,1752,1772,1792,1813,1832,1852,1872,1892,1912,1932,1952,1973,1993,2012,2032,2052,2073,2092,2112,2132,2152,2173,2194,2212,2232,2252,2273,2292,2313,2333,2352,2372,2392,2412,2432,2453,2473,2512,2512,2533,2553,2572,2593,2613,2632,2652,2673,2693,2713,2732,2754,2773,2792,2813,2832,2852,2872,2892,2912,2933,2952,2973,2993,3012,3032,3052,3072,3092,3112,3132,3152,3172,3192,3212,3233,3252,3272,3292,3313,3333,3352,3373,3392,3413,3432,3452,3472,3492,3513,3533,3552,3572,3593,3612,3632,3652,3672,3693,3712,3732,3752,3774,3793,3813,3832,3852,3872,3892,3912,3932,3953,3974,3992,4012,4032,4052,4073,4092,4112,4132,4152,4172,4194,4212,4232,4252,4272,4292,4313,4332,4353,4373,4392,4412,4432,4453,4473,4492,4512,4532,4552,4572,4593,4612,4633,4653,4673,4692,4712,4733,4753,4772,4792,4812,4832,4852,4872,4892,4912,4932,4952,4972,4993,5013,5032,5053,5072,5092,5112,5132,5152,5173,5192,5214,5234,5253,5272,5293,5313,5333,5353],"xSR":741.5,"ySR":469.95,"xT1":424.9,"yT1":0,"xT2":1058.1,"yT2":0,"toosoon":0,"cond_shown":"equaldotanddens","ratio_trial":900,"smaller_num":"18","larger_num":"20","correct_side":1,"subjID":"luisramirez18","gender":"0","age":"11","school":"6"},{"start_time":1551900698302,"click_time":1551900699711,"finger_time":1551900699011,"fix_duration":250,"trial":26,"RT":709,"MT":700,"sideResp":2,"stimulus":"img/500/randomdotsizeEA/R/2_Ratio_500_L_3_R_6.png","xmouse":[754,754,754,754,754,754,754,754,754,754,754,754,754,754,754,754,754,754,754,754,754,754,754,754,754,754,754,754,754,754,754,754,754,764,801,849,910,957,990,1000,1012,1025,1051,1073,1082,1087,1090,1090,1090,1090,1090,1090,1090,1090,1090,1090,1090,1090,1090,1091,1091,1091,1091,1091,1091,1091,1091,1092,1093,1093,1093],"ymouse":[512,512,512,512,512,512,512,512,512,512,512,512,512,512,512,512,512,512,512,512,512,512,512,512,512,512,512,512,512,512,512,512,512,512,490,429,359,312,250,230,211,195,169,147,133,124,120,119,119,119,119,118,116,110,108,107,106,105,105,104,104,104,104,104,104,104,104,103,102,100,97],"timestamp_mouse":[8,43,50,69,88,108,128,148,169,188,208,229,249,268,288,308,328,348,368,388,409,430,448,468,488,508,529,549,568,589,608,628,649,668,688,709,729,750,768,789,809,828,850,868,889,909,930,948,968,988,1008,1028,1048,1069,1089,1109,1129,1149,1168,1188,1209,1229,1248,1269,1288,1308,1328,1350,1368,1389,1408],"xSR":741.5,"ySR":469.95,"xT1":424.9,"yT1":0,"xT2":1058.1,"yT2":0,"toosoon":0,"cond_shown":"randomdotsizeEA","ratio_trial":500,"smaller_num":"3","larger_num":"6","correct_side":2,"subjID":"luisramirez18","gender":"0","age":"11","school":"6"},{"start_time":1551900700842,"click_time":1551900701590,"finger_time":1551900701510,"fix_duration":250,"trial":27,"RT":668,"MT":80,"sideResp":2,"stimulus":"img/900/randomdotsizeEA/R/7_Ratio_900_L_9_R_10.png","xmouse":[801,801,801,801,801,801,801,801,801,801,801,801,801,801,801,801,801,801,801,801,801,801,801,801,801,801,801,801,801,801,801,801,819,883,947,980,1049,1070],"ymouse":[504,504,504,504,504,504,504,504,504,504,504,504,504,504,504,504,504,504,504,504,504,504,504,504,504,504,504,504,504,504,504,504,487,417,285,209,85,48],"timestamp_mouse":[11,40,48,68,89,109,128,148,168,188,208,228,248,269,289,308,328,348,368,388,409,429,448,468,488,508,528,548,569,588,608,628,649,668,688,708,729,748],"xSR":741.5,"ySR":469.95,"xT1":424.9,"yT1":0,"xT2":1058.1,"yT2":0,"toosoon":0,"cond_shown":"randomdotsizeEA","ratio_trial":900,"smaller_num":"9","larger_num":"10","correct_side":2,"subjID":"luisramirez18","gender":"0","age":"11","school":"6"},{"start_time":1551900702830,"click_time":1551900704412,"finger_time":1551900704091,"fix_duration":457.7122436835286,"trial":28,"RT":1261,"MT":321,"sideResp":2,"stimulus":"img/900/equaldotsize/R/14_Ratio_900_L_18_R_20.png","xmouse":[812,812,812,812,812,812,812,812,812,812,812,812,812,812,812,812,812,812,812,812,812,812,812,812,812,812,812,812,812,812,812,812,812,812,812,812,812,812,812,812,812,812,812,812,812,812,812,812,812,812,812,812,812,812,812,812,812,812,812,812,812,812,812,881,958,1011,1035,1044,1047,1051,1057,1064,1083,1091,1093,1096,1096,1098,1100,1101],"ymouse":[506,506,506,506,506,506,506,506,506,506,506,506,506,506,506,506,506,506,506,506,506,506,506,506,506,506,506,506,506,506,506,506,506,506,506,506,506,506,506,506,506,506,506,506,506,506,506,506,506,506,506,506,506,506,506,506,506,506,506,506,506,506,506,461,399,335,288,257,247,232,215,200,153,124,115,111,109,105,100,95],"timestamp_mouse":[15,39,40,61,81,100,121,141,160,180,200,220,240,260,280,300,320,340,360,380,400,421,441,460,481,501,520,540,560,580,600,621,641,660,680,700,720,740,761,781,800,820,840,860,880,900,920,941,960,980,1000,1020,1040,1061,1081,1100,1120,1140,1160,1180,1201,1221,1240,1261,1280,1300,1320,1340,1361,1381,1401,1420,1441,1460,1481,1500,1521,1541,1560,1581],"xSR":741.5,"ySR":469.95,"xT1":424.9,"yT1":0,"xT2":1058.1,"yT2":0,"toosoon":0,"cond_shown":"equaldotsize","ratio_trial":900,"smaller_num":"18","larger_num":"20","correct_side":2,"subjID":"luisramirez18","gender":"0","age":"11","school":"6"},{"start_time":1551900705523,"click_time":1551900706590,"finger_time":1551900706291,"fix_duration":250,"trial":29,"RT":768,"MT":299,"sideResp":1,"stimulus":"img/750/equaldotanddens/L/1_Ratio_750_L_20_R_15.png","xmouse":[801,801,801,801,801,801,801,801,801,801,801,801,801,801,801,801,801,801,801,801,801,801,801,801,801,801,801,801,801,801,801,801,801,801,801,801,801,794,725,644,546,457,394,393,393,397,400,403,404,406,408,414,426,448],"ymouse":[519,519,519,519,519,519,519,519,519,519,519,519,519,519,519,519,519,519,519,519,519,519,519,519,519,519,519,519,519,519,519,519,519,519,519,519,519,513,422,349,282,220,164,157,151,145,138,122,116,111,109,105,100,87],"timestamp_mouse":[11,39,48,67,87,107,127,147,168,187,208,227,247,267,287,307,328,348,367,387,407,428,448,467,487,508,527,547,567,587,607,627,647,667,687,707,727,748,768,787,808,828,848,867,888,908,927,949,967,988,1007,1029,1048,1067],"xSR":741.5,"ySR":469.95,"xT1":424.9,"yT1":0,"xT2":1058.1,"yT2":0,"toosoon":0,"cond_shown":"equaldotanddens","ratio_trial":750,"smaller_num":"15","larger_num":"20","correct_side":1,"subjID":"luisramirez18","gender":"0","age":"11","school":"6"},{"start_time":1551900708191,"click_time":1551900709250,"finger_time":1551900709031,"fix_duration":617.764615728556,"trial":30,"RT":840,"MT":219,"sideResp":1,"stimulus":"img/500/randomdotsizeEA/L/4_Ratio_500_L_18_R_9.png","xmouse":[814,814,814,814,814,814,814,814,814,814,814,814,814,814,814,814,814,814,814,814,814,814,814,814,814,814,814,814,814,814,814,814,814,814,814,814,814,814,814,811,791,761,692,609,581,565,563,563,560,547,536,526,520,515],"ymouse":[537,537,537,537,537,537,537,537,537,537,537,537,537,537,537,537,537,537,537,537,537,537,537,537,537,537,537,537,537,537,537,537,537,537,537,537,537,537,537,536,518,490,436,371,345,312,292,267,237,183,156,126,106,89],"timestamp_mouse":[1,20,46,60,81,99,119,139,159,179,199,219,240,260,279,300,319,339,359,380,401,419,439,459,479,499,519,539,560,580,599,619,639,659,679,699,720,740,759,779,799,820,840,860,880,899,919,939,960,982,999,1020,1040,1059],"xSR":741.5,"ySR":469.95,"xT1":424.9,"yT1":0,"xT2":1058.1,"yT2":0,"toosoon":0,"cond_shown":"randomdotsizeEA","ratio_trial":500,"smaller_num":"9","larger_num":"18","correct_side":1,"subjID":"luisramirez18","gender":"0","age":"11","school":"6"},{"start_time":1551900710203,"click_time":1551900711690,"finger_time":1551900711051,"fix_duration":250,"trial":31,"RT":848,"MT":639,"sideResp":2,"stimulus":"img/750/randomdotsizeEA/R/3_Ratio_750_L_15_R_20.png","xmouse":[755,755,755,755,755,755,755,755,755,755,755,755,755,755,755,755,755,755,755,755,755,755,755,755,755,755,755,755,755,755,755,755,755,755,755,755,755,755,755,755,766,787,850,911,995,1019,1037,1049,1060,1077,1080,1080,1076,1073,1064,1060,1056,1054,1054,1054,1054,1055,1055,1055,1055,1055,1055,1055,1055,1055,1055,1055,1057,1058,1061],"ymouse":[521,521,521,521,521,521,521,521,521,521,521,521,521,521,521,521,521,521,521,521,521,521,521,521,521,521,521,521,521,521,521,521,521,521,521,521,521,521,521,521,518,495,449,412,359,339,316,287,261,212,192,172,144,133,117,110,104,97,92,83,79,77,77,77,77,77,77,77,77,77,77,77,77,77,77],"timestamp_mouse":[7,39,47,67,87,107,128,148,167,187,207,227,248,267,287,307,328,348,367,387,408,427,447,467,487,507,527,547,568,587,607,628,647,668,688,707,727,747,767,787,809,827,848,867,887,907,929,948,967,987,1008,1028,1048,1068,1087,1108,1127,1148,1168,1188,1208,1228,1249,1267,1288,1307,1327,1347,1368,1387,1407,1427,1447,1468,1487],"xSR":741.5,"ySR":469.95,"xT1":424.9,"yT1":0,"xT2":1058.1,"yT2":0,"toosoon":0,"cond_shown":"randomdotsizeEA","ratio_trial":750,"smaller_num":"15","larger_num":"20","correct_side":2,"subjID":"luisramirez18","gender":"0","age":"11","school":"6"},{"start_time":1551900712823,"click_time":1551900713931,"finger_time":1551900713731,"fix_duration":250,"trial":32,"RT":908,"MT":200,"sideResp":2,"stimulus":"img/750/randomdotsizeEA/R/5_Ratio_750_L_15_R_20.png","xmouse":[795,795,795,795,795,795,795,795,795,795,795,795,795,795,795,795,795,795,795,795,795,795,795,795,795,795,795,795,795,795,795,795,795,795,795,795,795,795,795,795,795,795,795,795,795,803,827,874,995,1009,1032,1041,1046,1054,1056,1060],"ymouse":[481,481,481,481,481,481,481,481,481,481,481,481,481,481,481,481,481,481,481,481,481,481,481,481,481,481,481,481,481,481,481,481,481,481,481,481,481,481,481,481,481,481,481,481,481,468,436,346,161,146,115,103,94,80,73,67],"timestamp_mouse":[10,44,48,67,87,107,128,148,167,187,207,227,247,267,287,307,327,347,367,387,407,428,448,467,487,508,528,547,567,588,607,627,648,668,688,707,727,747,768,788,808,828,847,867,888,907,927,947,969,989,1007,1027,1047,1068,1087,1108],"xSR":741.5,"ySR":469.95,"xT1":424.9,"yT1":0,"xT2":1058.1,"yT2":0,"toosoon":0,"cond_shown":"randomdotsizeEA","ratio_trial":750,"smaller_num":"15","larger_num":"20","correct_side":2,"subjID":"luisramirez18","gender":"0","age":"11","school":"6"},{"start_time":1551900715534,"click_time":1551900717010,"finger_time":1551900716751,"fix_duration":862.7651784135513,"trial":33,"RT":1217,"MT":259,"sideResp":1,"stimulus":"img/900/randomdotsizeEA/R/14_Ratio_900_L_18_R_20.png","xmouse":[786,786,786,786,786,786,786,786,786,786,786,786,786,786,786,786,786,786,786,786,786,786,786,786,786,786,786,786,786,786,786,786,786,786,786,786,786,786,786,786,786,786,786,786,786,786,786,786,786,786,786,786,786,786,786,786,786,786,786,769,738,687,587,503,485,472,462,442,435,431,429,429,436,444],"ymouse":[511,511,511,511,511,511,511,511,511,511,511,511,511,511,511,511,511,511,511,511,511,511,511,511,511,511,511,511,511,511,511,511,511,511,511,511,511,511,511,511,511,511,511,511,511,511,511,511,511,511,511,511,511,511,511,511,511,511,511,494,457,419,351,277,258,242,231,197,176,155,138,122,107,98],"timestamp_mouse":[17,46,56,77,96,116,136,157,177,196,218,237,256,276,296,316,336,356,376,396,417,436,457,477,496,516,536,556,577,597,616,636,656,676,696,716,737,757,776,796,816,836,856,877,897,916,936,956,976,996,1016,1036,1056,1077,1096,1116,1136,1156,1176,1196,1217,1236,1256,1276,1297,1317,1336,1358,1376,1398,1416,1437,1458,1476],"xSR":741.5,"ySR":469.95,"xT1":424.9,"yT1":0,"xT2":1058.1,"yT2":0,"toosoon":0,"cond_shown":"randomdotsizeEA","ratio_trial":900,"smaller_num":"18","larger_num":"20","correct_side":2,"subjID":"luisramirez18","gender":"0","age":"11","school":"6"},{"start_time":1551900718157,"click_time":1551900719370,"finger_time":1551900718830,"fix_duration":425.7895593400671,"trial":34,"RT":673,"MT":540,"sideResp":2,"stimulus":"img/750/randomdotsizeEA/L/10_Ratio_750_L_4_R_3.png","xmouse":[786,786,786,786,786,786,786,786,786,786,786,786,786,786,786,786,786,786,786,786,786,786,786,786,786,786,786,786,786,786,786,786,827,876,929,983,1020,1063,1074,1083,1084,1084,1084,1084,1084,1084,1084,1084,1084,1084,1084,1084,1084,1084,1084,1084,1085,1087,1090,1094,1096],"ymouse":[534,534,534,534,534,534,534,534,534,534,534,534,534,534,534,534,534,534,534,534,534,534,534,534,534,534,534,534,534,534,534,534,507,461,395,328,264,190,169,153,150,149,149,149,149,149,149,149,149,149,149,149,149,149,149,149,148,140,128,103,86],"timestamp_mouse":[13,37,54,74,93,113,133,153,173,193,213,233,255,274,294,313,333,353,374,395,413,433,453,473,493,513,533,554,574,594,614,633,653,673,694,714,735,753,774,794,813,834,854,873,893,913,933,953,974,993,1014,1033,1054,1073,1094,1113,1133,1153,1173,1193,1213],"xSR":741.5,"ySR":469.95,"xT1":424.9,"yT1":0,"xT2":1058.1,"yT2":0,"toosoon":0,"cond_shown":"randomdotsizeEA","ratio_trial":750,"smaller_num":"3","larger_num":"4","correct_side":1,"subjID":"luisramirez18","gender":"0","age":"11","school":"6"},{"start_time":1551900720571,"click_time":1551900752331,"finger_time":1551900748530,"fix_duration":460.65466085908025,"trial":35,"RT":27959,"MT":3801,"sideResp":1,"stimulus":"img/250/equaldotanddens/L/14_Ratio_250_L_12_R_3.png","xmouse":[829,829,829,829,829,829,829,829,829,829,829,829,829,829,829,829,829,829,829,829,829,829,829,829,829,829,829,829,829,829,829,829,829,829,829,829,829,829,829,829,829,829,829,829,829,829,829,829,829,829,829,829,829,829,829,829,829,829,829,829,829,829,829,829,829,829,829,829,829,829,829,829,829,829,829,829,829,829,829,829,829,829,829,829,829,829,829,829,829,829,829,829,829,829,829,829,829,829,829,829,829,829,829,829,829,829,829,829,829,829,829,829,829,829,829,829,829,829,829,829,829,829,829,829,829,829,829,829,829,829,829,829,829,829,829,829,829,829,829,829,829,829,829,829,829,829,829,829,829,829,829,829,829,829,829,829,829,829,829,829,829,829,829,829,829,829,829,829,829,829,829,829,829,829,829,829,829,829,829,829,829,829,829,829,829,829,829,829,829,829,829,829,829,829,829,829,829,829,829,829,829,829,829,829,829,829,829,829,829,829,829,829,829,829,829,829,829,829,829,829,829,829,829,829,829,829,829,829,829,829,829,829,829,829,829,829,829,829,829,829,829,829,829,829,829,829,829,829,829,829,829,829,829,829,829,829,829,829,829,829,829,829,829,829,829,829,829,829,829,829,829,829,829,829,829,829,829,829,829,829,829,829,829,829,829,829,829,829,829,829,829,829,829,829,829,829,829,829,829,829,829,829,829,829,829,829,829,829,829,829,829,829,829,829,829,829,829,829,829,829,829,829,829,829,829,829,829,829,829,829,829,829,829,829,829,829,829,829,829,829,829,829,829,829,829,829,829,829,829,829,829,829,829,829,829,829,829,829,829,829,829,829,829,829,829,829,829,829,829,829,829,829,829,829,829,829,829,829,829,829,829,829,829,829,829,829,829,829,829,829,829,829,829,829,829,829,829,829,829,829,829,829,829,829,829,829,829,829,829,829,829,829,829,829,829,829,829,829,829,829,829,829,829,829,829,829,829,829,829,829,829,829,829,829,829,829,829,829,829,829,829,829,829,829,829,829,829,829,829,829,829,829,829,829,829,829,829,829,829,829,829,829,829,829,829,829,829,829,829,829,829,829,829,829,829,829,829,829,829,829,829,829,829,829,829,829,829,829,829,829,829,829,829,829,829,829,829,829,829,829,829,829,829,829,829,829,829,829,829,829,829,829,829,829,829,829,829,829,829,829,829,829,829,829,829,829,829,829,829,829,829,829,829,829,829,829,829,829,829,829,829,829,829,829,829,829,829,829,829,829,829,829,829,829,829,829,829,829,829,829,829,829,829,829,829,829,829,829,829,829,829,829,829,829,829,829,829,829,829,829,829,829,829,829,829,829,829,829,829,829,829,829,829,829,829,829,829,829,829,829,829,829,829,829,829,829,829,829,829,829,829,829,829,829,829,829,829,829,829,829,829,829,829,829,829,829,829,829,829,829,829,829,829,829,829,829,829,829,829,829,829,829,829,829,829,829,829,829,829,829,829,829,829,829,829,829,829,829,829,829,829,829,829,829,829,829,829,829,829,829,829,829,829,829,829,829,829,829,829,829,829,829,829,829,829,829,829,829,829,829,829,829,829,829,829,829,829,829,829,829,829,829,829,829,829,829,829,829,829,829,829,829,829,829,829,829,829,829,829,829,829,829,829,829,829,829,829,829,829,829,829,829,829,829,829,829,829,829,829,829,829,829,829,829,829,829,829,829,829,829,829,829,829,829,829,829,829,829,829,829,829,829,829,829,829,829,829,829,829,829,829,829,829,829,829,829,829,829,829,829,829,829,829,829,829,829,829,829,829,829,829,829,829,829,829,829,829,829,829,829,829,829,829,829,829,829,829,829,829,829,829,829,829,829,829,829,829,829,829,829,829,829,829,829,829,829,829,829,829,829,829,829,829,829,829,829,829,829,829,829,829,829,829,829,829,829,829,829,829,829,829,829,829,829,829,829,829,829,829,829,829,829,829,829,829,829,829,829,829,829,829,829,829,829,829,829,829,829,829,829,829,829,829,829,829,829,829,829,829,829,829,829,829,829,829,829,829,829,829,829,829,829,829,829,829,829,829,829,829,829,829,829,829,829,829,829,829,829,829,829,829,829,829,829,829,829,829,829,829,829,829,829,829,829,829,829,829,829,829,829,829,829,829,829,829,829,829,829,829,829,829,829,829,829,829,829,829,829,829,829,829,829,829,829,829,829,829,829,829,829,829,829,829,829,829,829,829,829,829,829,829,829,829,829,829,829,829,829,829,829,829,829,829,829,829,829,829,829,829,829,829,829,829,829,829,829,829,829,829,829,829,829,829,829,829,829,829,829,829,829,829,829,829,829,829,829,829,829,829,829,829,829,829,829,829,829,829,829,829,829,829,829,829,829,829,829,829,829,829,829,829,829,829,829,829,829,829,829,829,829,829,829,829,829,829,829,829,829,829,829,829,829,829,829,829,829,829,829,829,829,829,829,829,829,829,829,829,829,829,829,829,829,829,829,829,829,829,829,829,829,829,829,829,829,829,829,829,829,829,829,829,829,829,829,829,829,829,829,829,829,829,829,829,829,829,829,829,829,829,829,829,829,829,829,829,829,829,829,829,829,829,829,829,829,829,829,829,829,829,829,829,829,829,829,829,829,829,829,829,829,829,829,829,829,829,829,829,829,829,829,829,829,829,829,829,829,829,829,829,829,829,829,829,829,829,829,829,829,829,829,829,829,829,829,829,829,829,829,829,829,829,829,829,829,829,829,829,829,829,829,829,829,829,829,829,829,829,829,829,829,829,829,829,829,829,829,829,829,829,829,829,829,829,829,829,829,829,829,829,829,829,829,829,829,829,829,829,829,829,829,829,829,829,829,829,829,829,829,829,829,829,829,829,829,829,829,829,829,829,829,829,829,829,829,829,829,829,829,829,829,829,829,829,829,829,829,829,829,829,829,829,829,829,829,829,829,829,829,829,829,829,829,829,829,829,829,829,829,829,829,829,829,829,829,829,829,829,829,829,829,829,829,829,829,829,829,829,829,829,829,829,829,829,829,829,829,829,829,829,829,829,829,829,829,829,829,829,829,829,829,829,829,829,829,829,829,829,829,829,829,829,829,829,829,829,829,829,829,829,829,829,829,829,829,829,829,829,829,829,829,829,829,829,829,829,829,827,812,787,770,770,770,770,770,775,794,796,807,867,1109,1243,1359,1442,1509,1552,1552,1552,1552,1552,1552,1552,1552,1552,1552,1552,1552,1552,1552,1552,1552,1552,1552,1552,1552,1552,1552,1552,1552,1552,1552,1552,1552,1552,1552,1552,1552,1552,1552,1552,1552,1552,1552,1552,1552,1552,1552,1552,1552,1552,1552,1552,1552,1552,1552,1552,1552,1552,1552,1552,1552,1552,1552,1552,1552,1552,1552,1552,1552,1552,1552,1552,1552,1552,1552,1552,1552,1552,1552,1552,1552,1552,1552,1552,1381,1381,1384,1386,1386,1386,1386,1386,1386,1370,1328,1214,1180,1158,1137,1113,1060,1030,1006,994,991,991,990,979,964,950,936,902,883,870,858,850,842,841,840,835,828,812,800,783,766,756,756,756,756,756,756,756,756,756,756,756,756,756,756,756,756,756,756,756,756,756,756,759,764,770,774,774,774,774,774,774,774,774,774,774,774,774,774,774,774,775,751,711,651,593,529,525,525,527,531,531,532,532,532,532,529,529,529,529,529,527,526,525,523],"ymouse":[540,540,540,540,540,540,540,540,540,540,540,540,540,540,540,540,540,540,540,540,540,540,540,540,540,540,540,540,540,540,540,540,540,540,540,540,540,540,540,540,540,540,540,540,540,540,540,540,540,540,540,540,540,540,540,540,540,540,540,540,540,540,540,540,540,540,540,540,540,540,540,540,540,540,540,540,540,540,540,540,540,540,540,540,540,540,540,540,540,540,540,540,540,540,540,540,540,540,540,540,540,540,540,540,540,540,540,540,540,540,540,540,540,540,540,540,540,540,540,540,540,540,540,540,540,540,540,540,540,540,540,540,540,540,540,540,540,540,540,540,540,540,540,540,540,540,540,540,540,540,540,540,540,540,540,540,540,540,540,540,540,540,540,540,540,540,540,540,540,540,540,540,540,540,540,540,540,540,540,540,540,540,540,540,540,540,540,540,540,540,540,540,540,540,540,540,540,540,540,540,540,540,540,540,540,540,540,540,540,540,540,540,540,540,540,540,540,540,540,540,540,540,540,540,540,540,540,540,540,540,540,540,540,540,540,540,540,540,540,540,540,540,540,540,540,540,540,540,540,540,540,540,540,540,540,540,540,540,540,540,540,540,540,540,540,540,540,540,540,540,540,540,540,540,540,540,540,540,540,540,540,540,540,540,540,540,540,540,540,540,540,540,540,540,540,540,540,540,540,540,540,540,540,540,540,540,540,540,540,540,540,540,540,540,540,540,540,540,540,540,540,540,540,540,540,540,540,540,540,540,540,540,540,540,540,540,540,540,540,540,540,540,540,540,540,540,540,540,540,540,540,540,540,540,540,540,540,540,540,540,540,540,540,540,540,540,540,540,540,540,540,540,540,540,540,540,540,540,540,540,540,540,540,540,540,540,540,540,540,540,540,540,540,540,540,540,540,540,540,540,540,540,540,540,540,540,540,540,540,540,540,540,540,540,540,540,540,540,540,540,540,540,540,540,540,540,540,540,540,540,540,540,540,540,540,540,540,540,540,540,540,540,540,540,540,540,540,540,540,540,540,540,540,540,540,540,540,540,540,540,540,540,540,540,540,540,540,540,540,540,540,540,540,540,540,540,540,540,540,540,540,540,540,540,540,540,540,540,540,540,540,540,540,540,540,540,540,540,540,540,540,540,540,540,540,540,540,540,540,540,540,540,540,540,540,540,540,540,540,540,540,540,540,540,540,540,540,540,540,540,540,540,540,540,540,540,540,540,540,540,540,540,540,540,540,540,540,540,540,540,540,540,540,540,540,540,540,540,540,540,540,540,540,540,540,540,540,540,540,540,540,540,540,540,540,540,540,540,540,540,540,540,540,540,540,540,540,540,540,540,540,540,540,540,540,540,540,540,540,540,540,540,540,540,540,540,540,540,540,540,540,540,540,540,540,540,540,540,540,540,540,540,540,540,540,540,540,540,540,540,540,540,540,540,540,540,540,540,540,540,540,540,540,540,540,540,540,540,540,540,540,540,540,540,540,540,540,540,540,540,540,540,540,540,540,540,540,540,540,540,540,540,540,540,540,540,540,540,540,540,540,540,540,540,540,540,540,540,540,540,540,540,540,540,540,540,540,540,540,540,540,540,540,540,540,540,540,540,540,540,540,540,540,540,540,540,540,540,540,540,540,540,540,540,540,540,540,540,540,540,540,540,540,540,540,540,540,540,540,540,540,540,540,540,540,540,540,540,540,540,540,540,540,540,540,540,540,540,540,540,540,540,540,540,540,540,540,540,540,540,540,540,540,540,540,540,540,540,540,540,540,540,540,540,540,540,540,540,540,540,540,540,540,540,540,540,540,540,540,540,540,540,540,540,540,540,540,540,540,540,540,540,540,540,540,540,540,540,540,540,540,540,540,540,540,540,540,540,540,540,540,540,540,540,540,540,540,540,540,540,540,540,540,540,540,540,540,540,540,540,540,540,540,540,540,540,540,540,540,540,540,540,540,540,540,540,540,540,540,540,540,540,540,540,540,540,540,540,540,540,540,540,540,540,540,540,540,540,540,540,540,540,540,540,540,540,540,540,540,540,540,540,540,540,540,540,540,540,540,540,540,540,540,540,540,540,540,540,540,540,540,540,540,540,540,540,540,540,540,540,540,540,540,540,540,540,540,540,540,540,540,540,540,540,540,540,540,540,540,540,540,540,540,540,540,540,540,540,540,540,540,540,540,540,540,540,540,540,540,540,540,540,540,540,540,540,540,540,540,540,540,540,540,540,540,540,540,540,540,540,540,540,540,540,540,540,540,540,540,540,540,540,540,540,540,540,540,540,540,540,540,540,540,540,540,540,540,540,540,540,540,540,540,540,540,540,540,540,540,540,540,540,540,540,540,540,540,540,540,540,540,540,540,540,540,540,540,540,540,540,540,540,540,540,540,540,540,540,540,540,540,540,540,540,540,540,540,540,540,540,540,540,540,540,540,540,540,540,540,540,540,540,540,540,540,540,540,540,540,540,540,540,540,540,540,540,540,540,540,540,540,540,540,540,540,540,540,540,540,540,540,540,540,540,540,540,540,540,540,540,540,540,540,540,540,540,540,540,540,540,540,540,540,540,540,540,540,540,540,540,540,540,540,540,540,540,540,540,540,540,540,540,540,540,540,540,540,540,540,540,540,540,540,540,540,540,540,540,540,540,540,540,540,540,540,540,540,540,540,540,540,540,540,540,540,540,540,540,540,540,540,540,540,540,540,540,540,540,540,540,540,540,540,540,540,540,540,540,540,540,540,540,540,540,540,540,540,540,540,540,540,540,540,540,540,540,540,540,540,540,540,540,540,540,540,540,540,540,540,540,540,540,540,540,540,540,540,540,540,540,540,540,540,540,540,540,540,540,540,540,540,540,540,540,540,540,540,540,540,540,540,540,540,540,540,540,540,540,540,540,540,540,540,540,540,540,540,540,540,540,540,540,540,540,540,540,540,540,540,540,540,540,540,540,540,540,540,540,540,540,540,540,540,540,540,540,540,540,540,540,540,540,540,540,540,540,540,540,540,540,540,540,540,540,540,540,540,540,540,540,540,540,540,540,540,540,540,540,540,540,540,540,540,540,540,540,540,540,540,540,540,540,540,540,540,540,540,540,540,540,540,540,540,540,540,540,540,540,540,540,540,540,540,540,540,540,538,534,527,524,524,524,524,520,512,471,471,468,439,312,237,163,113,73,44,44,44,44,44,44,44,44,44,44,44,44,44,44,44,44,44,44,44,44,44,44,44,44,44,44,44,44,44,44,44,44,44,44,44,44,44,44,44,44,44,44,44,44,44,44,44,44,44,44,44,44,44,44,44,44,44,44,44,44,44,44,44,44,44,44,44,44,44,44,44,44,44,44,44,44,44,44,44,16,16,12,11,11,11,11,11,21,65,118,201,227,242,256,268,278,282,286,290,290,291,292,301,313,331,354,414,445,468,484,493,501,501,501,501,501,501,502,507,518,526,526,526,526,526,526,526,526,526,526,526,526,526,526,526,526,526,526,526,526,526,526,526,526,526,526,526,526,526,526,526,526,526,526,526,526,526,526,526,526,525,473,406,326,245,150,134,123,115,106,103,79,72,68,65,62,62,62,62,61,62,63,64,64],"timestamp_mouse":[19,40,59,79,99,119,140,160,179,199,219,239,261,280,299,319,339,359,379,399,419,440,459,479,499,520,539,560,579,599,619,639,659,680,700,719,741,760,780,799,819,839,859,880,899,920,939,959,979,1000,1020,1039,1059,1079,1099,1120,1140,1159,1180,1199,1219,1239,1259,1279,1299,1319,1339,1359,1380,1399,1419,1439,1460,1480,1499,1520,1539,1560,1580,1600,1619,1639,1659,1679,1700,1720,1739,1759,1779,1799,1820,1840,1859,1879,1899,1919,1939,1960,1979,2000,2020,2039,2059,2079,2099,2120,2139,2159,2180,2201,2219,2239,2259,2279,2299,2319,2340,2361,2379,2400,2420,2439,2459,2480,2499,2519,2539,2559,2579,2599,2620,2640,2659,2679,2700,2720,2739,2759,2779,2799,2820,2841,2859,2879,2900,2919,2939,2960,2979,3000,3020,3039,3059,3079,3102,3120,3140,3160,3179,3199,3220,3240,3259,3280,3300,3319,3339,3360,3380,3400,3419,3439,3460,3480,3500,3519,3539,3560,3579,3599,3619,3639,3659,3680,3700,3720,3739,3759,3779,3799,3820,3839,3859,3879,3900,3920,3939,3960,3979,4000,4021,4039,4059,4079,4100,4119,4139,4159,4179,4199,4220,4240,4259,4281,4300,4319,4339,4359,4379,4400,4419,4439,4459,4479,4499,4520,4540,4560,4579,4599,4619,4639,4659,4679,4700,4719,4740,4759,4779,4799,4820,4839,4859,4879,4899,4919,4939,4959,4979,4999,5020,5040,5060,5080,5099,5119,5139,5159,5179,5199,5219,5240,5260,5281,5299,5319,5340,5359,5379,5399,5419,5439,5459,5480,5499,5519,5539,5559,5579,5599,5619,5639,5659,5681,5699,5719,5739,5759,5779,5799,5819,5839,5860,5880,5899,5919,5939,5960,5980,5999,6019,6039,6059,6080,6100,6119,6139,6159,6179,6199,6219,6239,6260,6279,6300,6319,6339,6359,6379,6399,6420,6440,6459,6479,6499,6520,6540,6560,6579,6599,6620,6641,6659,6679,6699,6720,6739,6760,6779,6799,6819,6839,6859,6879,6899,6919,6939,6959,6979,6999,7020,7039,7060,7080,7099,7119,7139,7159,7179,7199,7219,7240,7260,7280,7300,7320,7339,7359,7379,7399,7419,7440,7459,7479,7499,7519,7539,7559,7580,7599,7620,7639,7659,7679,7699,7719,7739,7759,7779,7799,7819,7839,7859,7879,7900,7919,7939,7959,7979,8000,8020,8039,8060,8080,8099,8119,8139,8159,8180,8199,8220,8240,8259,8279,8300,8320,8339,8359,8379,8399,8419,8440,8459,8480,8499,8519,8539,8561,8579,8600,8619,8639,8659,8680,8699,8719,8739,8759,8779,8799,8819,8839,8859,8880,8900,8919,8939,8959,8979,8999,9019,9039,9059,9079,9099,9119,9140,9159,9179,9200,9221,9240,9259,9280,9300,9321,9339,9359,9380,9399,9419,9439,9459,9479,9499,9519,9539,9559,9581,9599,9619,9639,9659,9680,9700,9721,9739,9759,9780,9799,9819,9839,9859,9880,9899,9920,9939,9960,9980,10000,10020,10039,10059,10079,10099,10121,10140,10159,10179,10199,10219,10239,10259,10279,10300,10319,10339,10360,10380,10399,10419,10439,10459,10480,10499,10519,10539,10560,10580,10599,10619,10639,10659,10679,10699,10719,10740,10760,10779,10799,10819,10840,10860,10879,10900,10920,10940,10959,10979,11000,11020,11039,11060,11080,11099,11120,11139,11159,11179,11199,11219,11239,11260,11279,11300,11320,11339,11359,11379,11399,11419,11439,11459,11479,11500,11520,11539,11559,11580,11599,11619,11639,11659,11679,11699,11720,11740,11759,11781,11800,11819,11839,11859,11879,11899,11919,11939,11960,11980,12000,12019,12039,12059,12079,12099,12119,12140,12160,12179,12200,12219,12239,12259,12279,12299,12319,12339,12359,12379,12399,12419,12439,12459,12480,12499,12519,12539,12559,12580,12599,12619,12639,12659,12679,12699,12719,12739,12760,12780,12799,12819,12839,12859,12879,12899,12919,12939,12959,12979,12999,13019,13040,13059,13079,13099,13121,13139,13159,13179,13199,13219,13239,13259,13279,13299,13319,13340,13360,13379,13400,13419,13439,13459,13479,13499,13519,13539,13559,13579,13599,13619,13639,13659,13679,13699,13719,13739,13759,13779,13799,13819,13840,13860,13879,13900,13920,13940,13959,13979,13999,14019,14040,14061,14080,14099,14119,14141,14161,14180,14199,14220,14239,14259,14279,14300,14320,14340,14359,14379,14399,14419,14439,14460,14480,14500,14519,14540,14559,14579,14599,14619,14639,14659,14679,14699,14719,14739,14761,14781,14800,14819,14839,14859,14879,14899,14919,14940,14959,14979,14999,15020,15039,15060,15080,15100,15120,15140,15161,15179,15199,15219,15239,15260,15280,15299,15319,15339,15359,15379,15399,15419,15439,15459,15479,15499,15519,15539,15559,15579,15599,15619,15639,15659,15680,15699,15719,15740,15760,15781,15800,15819,15839,15859,15879,15899,15919,15939,15959,15979,15999,16019,16039,16059,16079,16099,16120,16140,16159,16180,16200,16219,16239,16259,16279,16299,16319,16339,16359,16379,16399,16419,16439,16459,16479,16500,16520,16539,16559,16579,16599,16619,16639,16659,16679,16699,16720,16739,16759,16779,16799,16820,16839,16859,16881,16900,16919,16939,16959,16979,16999,17019,17040,17059,17079,17100,17120,17139,17159,17179,17200,17220,17239,17260,17281,17301,17320,17339,17359,17380,17399,17419,17439,17459,17480,17500,17519,17539,17559,17579,17599,17619,17639,17659,17679,17701,17721,17739,17759,17780,17799,17819,17839,17859,17880,17899,17919,17939,17959,17979,17999,18020,18040,18060,18079,18099,18119,18139,18159,18179,18200,18220,18239,18260,18280,18299,18319,18339,18359,18380,18399,18419,18439,18459,18480,18499,18519,18539,18559,18580,18599,18619,18639,18659,18679,18700,18719,18739,18759,18779,18799,18819,18839,18859,18879,18900,18921,18940,18959,18979,18999,19019,19040,19060,19080,19100,19119,19139,19159,19179,19200,19219,19239,19259,19280,19299,19320,19340,19359,19379,19399,19420,19440,19459,19479,19499,19519,19539,19559,19579,19599,19619,19640,19660,19680,19700,19719,19739,19759,19779,19799,19819,19839,19859,19879,19900,19919,19939,19959,19979,19999,20020,20040,20059,20080,20100,20119,20140,20160,20179,20199,20219,20239,20260,20279,20299,20319,20339,20359,20379,20399,20419,20439,20461,20479,20499,20519,20539,20559,20579,20599,20620,20639,20660,20680,20699,20719,20740,20760,20779,20799,20820,20840,20859,20879,20900,20919,20939,20959,20979,20999,21020,21040,21059,21079,21100,21120,21139,21159,21179,21199,21221,21239,21260,21280,21299,21319,21339,21360,21380,21399,21420,21439,21459,21479,21499,21519,21539,21559,21579,21599,21619,21639,21660,21680,21700,21719,21739,21760,21780,21799,21820,21839,21860,21879,21899,21920,21940,21960,21980,21999,22019,22040,22059,22080,22099,22119,22139,22159,22179,22199,22220,22239,22260,22280,22299,22319,22339,22360,22380,22399,22419,22439,22459,22479,22500,22520,22540,22559,22579,22599,22619,22639,22659,22681,22700,22719,22739,22759,22779,22799,22820,22839,22859,22879,22899,22919,22941,22959,22979,23000,23020,23040,23060,23079,23099,23119,23139,23160,23179,23199,23219,23239,23259,23279,23299,23319,23340,23360,23380,23399,23420,23440,23459,23479,23499,23519,23539,23559,23579,23599,23619,23639,23659,23681,23699,23719,23739,23760,23779,23800,23819,23840,23860,23879,23899,23919,23939,23960,23980,24001,24019,24040,24059,24079,24099,24119,24141,24159,24179,24199,24220,24239,24259,24279,24300,24319,24339,24361,24379,24399,24419,24440,24459,24479,24499,24519,24540,24560,24579,24599,24619,24639,24659,24679,24699,24719,24739,24759,24779,24800,24819,24839,24859,24880,24900,24920,24940,24959,24979,25000,25021,25040,25059,25079,25100,25119,25139,25159,25179,25200,25219,25240,25260,25279,25299,25319,25339,25360,25380,25400,25419,25439,25459,25480,25500,25519,25539,25559,25579,25601,25620,25640,25659,25679,25699,25719,25739,25760,25780,25800,25819,25839,25859,25879,25899,25919,25939,25960,25980,26000,26019,26039,26059,26079,26099,26120,26140,26159,26179,26199,26219,26239,26260,26280,26299,26319,26339,26361,26380,26399,26419,26440,26460,26479,26499,26519,26539,26560,26579,26599,26620,26639,26660,26679,26699,26719,26739,26760,26779,26800,26820,26839,26859,26879,26899,26919,26940,26959,26980,26999,27021,27040,27059,27079,27099,27120,27139,27159,27179,27200,27220,27240,27259,27279,27300,27320,27339,27359,27379,27399,27420,27439,27460,27480,27499,27519,27540,27559,27580,27600,27619,27639,27659,27679,27699,27719,27739,27759,27780,27799,27819,27839,27859,27879,27899,27919,27939,27959,27980,28000,28019,28039,28059,28080,28100,28121,28139,28159,28179,28200,28219,28239,28259,28280,28300,28321,28341,28360,28380,28401,28419,28440,28459,28479,28499,28519,28541,28559,28580,28600,28619,28639,28659,28679,28699,28719,28739,28759,28779,28799,28819,28839,28859,28880,28900,28920,28939,28959,28979,29000,29020,29039,29059,29079,29100,29119,29139,29159,29179,29200,29220,29239,29259,29279,29300,29319,29339,29359,29379,29399,29419,29439,29459,29479,29499,29519,29539,29559,29579,29599,29620,29639,29659,29679,29699,29719,29739,29760,29779,29799,29819,29839,29860,29880,29901,29919,29940,29959,29979,30001,30019,30039,30059,30079,30100,30119,30139,30160,30179,30200,30219,30239,30259,30279,30299,30319,30339,30360,30379,30399,30419,30440,30459,30480,30499,30519,30540,30560,30579,30599,30619,30639,30660,30680,30699,30719,30739,30760,30780,30801,30819,30839,30859,30879,30899,30919,30939,30959,30980,31000,31019,31039,31059,31079,31100,31120,31140,31161,31179,31199,31219,31239,31260,31279,31299,31319,31339,31360,31380,31401,31419,31439,31459,31479,31499,31519,31539,31559,31580,31601,31619,31639,31659,31679,31701,31719,31739,31759],"xSR":741.5,"ySR":469.95,"xT1":424.9,"yT1":0,"xT2":1058.1,"yT2":0,"toosoon":0,"cond_shown":"equaldotanddens","ratio_trial":250,"smaller_num":"3","larger_num":"12","correct_side":1,"subjID":"luisramirez18","gender":"0","age":"11","school":"6"},{"start_time":1551900753941,"click_time":1551900755050,"finger_time":1551900754790,"fix_duration":589.3117878462931,"trial":36,"RT":849,"MT":260,"sideResp":2,"stimulus":"img/500/equaldotsize/R/12_Ratio_500_L_1_R_2.png","xmouse":[757,757,757,757,757,757,757,757,757,757,757,757,757,755,755,755,755,755,755,755,755,755,755,755,755,755,755,755,755,755,755,755,755,755,755,755,755,755,755,755,761,773,881,951,1032,1135,1175,1203,1205,1204,1202,1195,1165,1144,1118,1080],"ymouse":[515,515,515,515,515,515,515,515,515,515,515,515,515,515,515,515,515,515,515,515,515,515,515,515,515,515,515,515,515,515,515,515,515,515,515,515,515,515,515,515,509,495,395,347,299,229,195,152,141,130,124,118,111,106,103,89],"timestamp_mouse":[11,42,49,69,89,109,129,150,169,189,209,230,249,269,289,309,329,350,370,389,409,429,449,469,489,509,530,549,569,589,609,630,651,669,690,709,729,749,770,790,809,830,849,869,890,910,930,949,970,989,1009,1030,1050,1070,1089,1109],"xSR":741.5,"ySR":469.95,"xT1":424.9,"yT1":0,"xT2":1058.1,"yT2":0,"toosoon":0,"cond_shown":"equaldotsize","ratio_trial":500,"smaller_num":"1","larger_num":"2","correct_side":2,"subjID":"luisramirez18","gender":"0","age":"11","school":"6"},{"start_time":1551900757003,"click_time":1551900758050,"finger_time":1551900757670,"fix_duration":250,"trial":37,"RT":667,"MT":380,"sideResp":2,"stimulus":"img/750/equaldotanddens/R/7_Ratio_750_L_3_R_4.png","xmouse":[751,751,751,751,751,751,751,751,751,751,751,751,751,751,751,751,751,751,751,751,751,751,751,751,751,751,751,751,751,751,751,751,781,878,1022,1050,1077,1103,1125,1146,1146,1146,1145,1145,1145,1143,1139,1135,1127,1111,1101,1097,1094],"ymouse":[493,493,493,493,493,493,493,493,493,493,493,493,493,493,493,493,493,493,493,493,493,493,493,493,493,493,493,493,493,493,493,493,492,468,439,430,385,337,313,294,290,287,283,281,275,251,230,211,190,150,121,103,90],"timestamp_mouse":[10,36,47,67,88,107,127,147,167,187,207,228,248,267,287,307,328,348,367,387,407,427,448,467,487,508,527,547,568,588,607,627,647,667,688,707,728,748,768,788,807,827,847,867,888,907,927,947,968,989,1007,1028,1047],"xSR":741.5,"ySR":469.95,"xT1":424.9,"yT1":0,"xT2":1058.1,"yT2":0,"toosoon":0,"cond_shown":"equaldotanddens","ratio_trial":750,"smaller_num":"3","larger_num":"4","correct_side":2,"subjID":"luisramirez18","gender":"0","age":"11","school":"6"},{"start_time":1551900760824,"click_time":1551900761951,"finger_time":1551900761651,"fix_duration":611.6661553753141,"trial":38,"RT":827,"MT":300,"sideResp":1,"stimulus":"img/900/randomdotsizeEA/L/10_Ratio_900_L_20_R_18.png","xmouse":[793,793,793,793,793,793,793,793,793,793,793,793,793,793,793,793,793,793,793,793,793,793,793,793,793,793,793,793,793,793,793,793,793,793,793,793,793,793,793,782,750,726,714,706,695,690,675,666,644,626,619,602,587,564,556,543,515],"ymouse":[538,538,538,538,538,538,538,538,538,538,538,538,538,538,538,538,538,538,538,538,538,538,538,538,538,538,538,538,538,538,538,538,538,538,538,538,538,538,538,536,525,507,496,486,449,411,321,287,193,125,102,75,56,32,28,23,11],"timestamp_mouse":[11,45,46,68,86,106,126,146,166,187,207,226,246,266,287,307,326,346,366,386,406,427,446,466,487,507,527,547,567,586,607,627,647,667,686,706,728,747,767,787,806,827,847,867,886,906,926,946,968,987,1006,1026,1047,1068,1087,1107,1126],"xSR":741.5,"ySR":469.95,"xT1":424.9,"yT1":0,"xT2":1058.1,"yT2":0,"toosoon":0,"cond_shown":"randomdotsizeEA","ratio_trial":900,"smaller_num":"18","larger_num":"20","correct_side":1,"subjID":"luisramirez18","gender":"0","age":"11","school":"6"},{"start_time":1551900764457,"click_time":1551900766411,"finger_time":1551900765590,"fix_duration":1245.1870379946015,"trial":39,"RT":1133,"MT":821,"sideResp":1,"stimulus":"img/500/randomdotsizeEA/L/5_Ratio_500_L_4_R_2.png","xmouse":[792,792,792,796,805,815,821,825,825,825,825,825,825,825,825,825,825,825,825,825,825,825,825,825,825,825,825,825,825,825,825,825,809,801,801,803,804,804,804,804,804,804,804,804,804,804,804,804,804,804,804,804,804,804,798,778,734,671,553,553,550,548,548,548,546,546,544,540,539,537,534,532,531,531,531,531,531,531,531,531,531,531,530,526,525,525,525,525,525,525,525,525,525,521,518,510,501,492],"ymouse":[552,552,552,549,543,537,533,532,532,532,532,532,532,532,532,532,532,532,532,532,532,532,532,532,532,532,532,532,532,532,532,531,512,499,493,488,486,485,485,485,485,485,485,485,485,485,485,485,485,485,485,485,485,485,484,479,454,403,273,256,234,220,204,199,194,193,189,183,181,178,174,172,171,171,171,171,171,171,171,171,171,171,170,168,168,168,168,168,168,168,168,168,168,154,143,126,105,75],"timestamp_mouse":[14,36,53,73,93,113,133,154,174,193,213,233,253,274,294,313,333,353,373,393,413,433,453,474,494,513,533,553,573,593,614,633,653,674,693,713,734,753,774,794,813,833,853,873,894,914,934,954,973,993,1013,1033,1053,1073,1093,1113,1133,1154,1173,1194,1213,1235,1254,1273,1294,1314,1334,1354,1373,1393,1413,1434,1453,1473,1493,1513,1533,1554,1574,1593,1613,1634,1654,1673,1693,1713,1740,1754,1773,1793,1813,1833,1854,1874,1894,1913,1933,1954],"xSR":741.5,"ySR":469.95,"xT1":424.9,"yT1":0,"xT2":1058.1,"yT2":0,"toosoon":0,"cond_shown":"randomdotsizeEA","ratio_trial":500,"smaller_num":"2","larger_num":"4","correct_side":1,"subjID":"luisramirez18","gender":"0","age":"11","school":"6"},{"start_time":1551900782757,"click_time":1551900784290,"finger_time":1551900783530,"fix_duration":264.0937239654042,"trial":40,"RT":773,"MT":760,"sideResp":1,"stimulus":"img/900/equaldotanddens/L/2_Ratio_900_L_20_R_18.png","xmouse":[797,797,797,797,797,797,797,797,797,797,797,796,796,796,796,796,796,796,796,796,796,796,796,796,796,796,796,796,796,796,796,796,794,794,793,791,786,780,774,775,775,777,777,777,777,774,768,756,747,703,679,671,662,654,643,624,620,614,603,589,539,519,504,494,487,486,486,485,485,485,485,485,487,490,494,493,488],"ymouse":[515,515,515,515,515,515,515,515,515,515,515,515,515,515,515,515,515,515,515,515,515,515,515,515,515,515,515,515,514,512,512,511,510,510,509,507,498,483,462,359,259,212,188,183,179,178,178,178,178,180,185,186,188,191,193,197,197,197,197,197,190,185,180,177,169,164,161,157,154,150,149,146,142,136,118,100,77],"timestamp_mouse":[14,46,54,73,93,114,134,154,173,193,213,233,254,274,293,314,334,353,373,394,413,433,454,473,493,513,533,554,573,594,614,633,654,673,693,713,734,753,773,794,813,833,854,873,894,913,934,953,974,994,1013,1033,1053,1073,1094,1113,1134,1153,1173,1194,1213,1233,1253,1273,1294,1313,1333,1353,1374,1394,1413,1434,1453,1473,1495,1513,1533],"xSR":741.5,"ySR":469.95,"xT1":424.9,"yT1":0,"xT2":1058.1,"yT2":0,"toosoon":0,"cond_shown":"equaldotanddens","ratio_trial":900,"smaller_num":"18","larger_num":"20","correct_side":1,"subjID":"luisramirez18","gender":"0","age":"11","school":"6"},{"start_time":1551900789576,"click_time":1551900791452,"finger_time":1551900791130,"fix_duration":1184.9577833097105,"trial":41,"RT":1554,"MT":322,"sideResp":2,"stimulus":"img/750/randomdotsizeEA/R/12_Ratio_750_L_3_R_4.png","xmouse":[787,787,787,787,787,787,787,787,787,787,787,787,787,787,787,787,787,787,787,787,787,787,787,787,787,787,787,787,787,787,787,787,787,787,787,787,787,787,787,787,787,787,787,787,787,787,787,787,787,787,787,787,787,787,787,787,787,787,787,787,787,787,787,787,787,787,787,787,787,787,787,787,787,787,787,813,837,883,925,978,991,999,1006,1012,1028,1030,1034,1037,1040,1043,1045,1049,1054,1060],"ymouse":[528,528,528,528,528,528,528,528,528,528,528,528,528,528,528,528,528,528,528,528,528,528,528,528,528,528,528,528,528,528,528,528,528,528,528,528,528,528,528,528,528,528,528,528,528,528,528,528,528,528,528,528,528,528,528,528,528,528,528,528,528,528,528,528,528,528,528,528,528,528,528,528,528,528,527,510,488,434,377,270,229,201,174,152,112,105,89,78,69,60,56,52,50,48],"timestamp_mouse":[17,45,56,74,95,115,134,154,174,194,215,235,255,274,296,314,334,354,374,394,414,434,454,474,495,515,534,554,574,594,614,634,655,675,695,715,734,756,775,795,814,834,854,874,895,914,934,954,975,995,1014,1035,1055,1074,1094,1114,1134,1155,1174,1195,1215,1236,1254,1274,1294,1315,1334,1354,1374,1395,1414,1434,1454,1475,1494,1515,1534,1554,1574,1594,1614,1634,1654,1674,1695,1714,1735,1754,1774,1795,1814,1834,1854,1876],"xSR":741.5,"ySR":469.95,"xT1":424.9,"yT1":0,"xT2":1058.1,"yT2":0,"toosoon":0,"cond_shown":"randomdotsizeEA","ratio_trial":750,"smaller_num":"3","larger_num":"4","correct_side":2,"subjID":"luisramirez18","gender":"0","age":"11","school":"6"},{"start_time":1551900793250,"click_time":1551900794631,"finger_time":1551900794490,"fix_duration":898.5490632378205,"trial":42,"RT":1240,"MT":141,"sideResp":2,"stimulus":"img/900/equaldotsize/R/11_Ratio_900_L_18_R_20.png","xmouse":[783,783,783,783,783,783,783,783,783,783,783,783,783,783,783,783,783,783,783,783,783,783,783,783,783,783,783,783,783,783,783,783,783,783,783,783,783,783,783,783,783,783,783,783,783,783,783,783,783,783,783,783,783,783,783,783,783,783,783,783,783,792,922,997,1054,1098,1121,1122,1122,1122],"ymouse":[534,534,534,534,534,534,534,534,534,534,534,534,534,534,534,534,534,534,534,534,534,534,534,534,534,534,534,534,534,534,534,534,534,534,534,534,534,534,534,534,534,534,534,534,534,534,534,534,534,534,534,534,534,534,534,534,534,534,534,534,534,534,472,410,316,214,141,119,102,90],"timestamp_mouse":[10,36,41,61,80,100,120,140,161,180,200,220,240,260,280,301,321,340,360,381,401,421,440,460,481,501,521,540,560,580,600,620,640,660,680,701,720,742,760,780,800,821,841,861,881,900,921,941,960,980,1000,1021,1040,1061,1080,1100,1121,1141,1160,1180,1201,1220,1240,1260,1281,1300,1323,1340,1360,1381],"xSR":741.5,"ySR":469.95,"xT1":424.9,"yT1":0,"xT2":1058.1,"yT2":0,"toosoon":0,"cond_shown":"equaldotsize","ratio_trial":900,"smaller_num":"18","larger_num":"20","correct_side":2,"subjID":"luisramirez18","gender":"0","age":"11","school":"6"},{"start_time":1551900796643,"click_time":1551900797590,"finger_time":1551900797251,"fix_duration":331.0182842831331,"trial":43,"RT":608,"MT":339,"sideResp":1,"stimulus":"img/250/equaldotanddens/L/1_Ratio_250_L_8_R_2.png","xmouse":[796,796,796,796,796,796,796,796,796,796,796,796,796,796,796,796,796,796,796,796,796,796,796,796,796,796,796,796,786,742,705,656,604,635,652,652,652,651,645,631,625,610,590,580,573,562,549,508],"ymouse":[561,561,561,561,561,561,561,561,561,561,561,561,561,561,561,561,561,561,561,561,561,561,561,561,561,561,561,561,559,542,520,490,412,334,247,198,178,161,148,128,121,100,73,62,56,50,44,34],"timestamp_mouse":[13,43,48,68,88,107,127,147,167,188,208,227,247,267,287,307,328,349,367,387,408,428,447,467,487,509,529,547,567,587,608,627,648,667,688,707,728,747,767,788,807,828,848,868,887,908,927,947],"xSR":741.5,"ySR":469.95,"xT1":424.9,"yT1":0,"xT2":1058.1,"yT2":0,"toosoon":0,"cond_shown":"equaldotanddens","ratio_trial":250,"smaller_num":"2","larger_num":"8","correct_side":1,"subjID":"luisramirez18","gender":"0","age":"11","school":"6"},{"start_time":1551900800324,"click_time":1551900801110,"finger_time":1551900800990,"fix_duration":250,"trial":44,"RT":666,"MT":120,"sideResp":2,"stimulus":"img/500/equaldotsize/R/6_Ratio_500_L_9_R_18.png","xmouse":[793,793,793,793,793,793,793,793,793,793,793,793,793,793,793,793,793,793,793,793,793,793,793,793,793,793,793,793,793,793,793,793,799,876,932,966,987,1009,1047,1066],"ymouse":[553,553,553,553,553,553,553,553,553,553,553,553,553,553,553,553,553,553,553,553,553,553,553,553,553,553,553,553,553,553,553,549,535,435,362,306,252,197,103,71],"timestamp_mouse":[11,40,47,67,87,106,126,146,167,186,207,227,246,266,286,306,327,346,366,388,406,426,446,466,486,506,526,546,566,586,607,626,647,666,686,706,727,746,767,786],"xSR":741.5,"ySR":469.95,"xT1":424.9,"yT1":0,"xT2":1058.1,"yT2":0,"toosoon":0,"cond_shown":"equaldotsize","ratio_trial":500,"smaller_num":"9","larger_num":"18","correct_side":2,"subjID":"luisramirez18","gender":"0","age":"11","school":"6"},{"start_time":1551900802142,"click_time":1551900803191,"finger_time":1551900802950,"fix_duration":250,"trial":45,"RT":808,"MT":241,"sideResp":2,"stimulus":"img/750/equaldotsize/R/5_Ratio_750_L_15_R_20.png","xmouse":[782,782,782,782,782,782,782,782,782,782,782,782,782,782,782,782,782,782,782,782,782,782,782,782,782,782,782,782,782,782,782,782,782,782,782,782,782,782,782,801,850,908,1002,1026,1043,1059,1065,1076,1081,1084,1086,1089,1097],"ymouse":[496,496,496,496,496,496,496,496,496,496,496,496,496,496,496,496,496,496,496,496,496,496,496,496,496,496,496,496,496,496,496,496,496,496,496,496,496,496,496,481,446,414,317,277,246,215,189,153,142,130,120,111,91],"timestamp_mouse":[8,42,48,68,88,108,128,148,170,189,209,228,248,268,288,308,328,348,368,389,408,428,448,469,488,509,529,549,568,588,608,628,649,668,689,709,728,748,768,788,808,829,850,868,889,909,928,950,969,989,1008,1029,1048],"xSR":741.5,"ySR":469.95,"xT1":424.9,"yT1":0,"xT2":1058.1,"yT2":0,"toosoon":0,"cond_shown":"equaldotsize","ratio_trial":750,"smaller_num":"15","larger_num":"20","correct_side":2,"subjID":"luisramirez18","gender":"0","age":"11","school":"6"},{"start_time":1551900804543,"click_time":1551900805371,"finger_time":1551900805230,"fix_duration":791.2866314866195,"trial":46,"RT":687,"MT":141,"sideResp":2,"stimulus":"img/900/equaldotsize/R/7_Ratio_900_L_9_R_10.png","xmouse":[797,797,797,797,797,797,797,797,797,797,797,797,797,797,797,797,797,797,797,797,797,797,797,797,797,797,797,797,797,797,797,797,797,833,896,962,1028,1074,1117,1125,1131,1131],"ymouse":[541,541,541,541,541,541,541,541,541,541,541,541,541,541,541,541,541,541,541,541,541,541,541,541,541,541,541,541,541,541,541,541,538,496,451,402,350,299,169,139,107,98],"timestamp_mouse":[10,44,48,67,87,108,128,147,167,187,207,227,247,268,288,308,327,347,367,388,407,427,447,467,487,508,527,548,568,588,607,627,647,667,687,708,727,747,767,787,807,828],"xSR":741.5,"ySR":469.95,"xT1":424.9,"yT1":0,"xT2":1058.1,"yT2":0,"toosoon":0,"cond_shown":"equaldotsize","ratio_trial":900,"smaller_num":"9","larger_num":"10","correct_side":2,"subjID":"luisramirez18","gender":"0","age":"11","school":"6"},{"start_time":1551900808734,"click_time":1551900809770,"finger_time":1551900809491,"fix_duration":1221.0325028910097,"trial":47,"RT":757,"MT":279,"sideResp":2,"stimulus":"img/500/equaldotsize/R/9_Ratio_500_L_2_R_4.png","xmouse":[813,813,813,813,813,813,813,813,813,813,813,813,813,813,813,813,813,813,813,813,813,813,813,813,813,813,813,813,813,813,813,813,813,813,814,818,831,848,867,919,935,954,969,1009,1025,1041,1056,1065,1073,1078,1082,1088],"ymouse":[544,544,544,544,544,544,544,544,544,544,544,544,544,544,544,544,544,544,544,544,544,544,544,544,544,544,544,544,544,544,544,544,544,544,541,536,521,498,471,387,354,316,278,209,185,163,148