[{"start_time":1551899689305,"click_time":1551899692386,"finger_time":1551899690986,"fix_duration":1335.217979392667,"trial":0,"RT":1681,"MT":1400,"sideResp":1,"stimulus":[],"xmouse":[798,798,798,798,798,798,798,798,798,798,798,798,798,798,798,798,798,798,798,798,798,798,798,798,798,798,798,798,798,798,798,798,798,798,798,798,798,798,798,798,798,798,798,798,798,798,798,798,798,798,798,798,798,798,798,798,798,798,798,798,798,798,798,798,798,798,798,798,798,798,798,798,798,798,798,798,798,798,798,798,798,798,799,790,730,683,618,556,492,488,490,491,494,509,528,547,570,612,677,783,802,806,806,799,786,777,770,765,764,764,773,785,796,810,820,826,830,831,832,831,828,826,824,822,820,819,818,818,818,818,818,818,818,818,818,813,808,801,791,732,701,675,647,598,580,565,553,544,540,535,534,533,531,524,519],"ymouse":[550,550,550,550,550,550,550,550,550,550,550,550,550,550,550,550,550,550,550,550,550,550,550,550,550,550,550,550,550,550,550,550,550,550,550,550,550,550,550,550,550,550,550,550,550,550,550,550,550,550,550,550,550,550,550,550,550,550,550,550,550,550,550,550,550,550,550,550,550,550,550,550,550,550,550,550,550,550,550,550,550,550,550,536,486,441,378,310,222,207,200,199,199,205,216,227,238,265,295,345,364,377,392,400,419,429,435,439,441,444,448,457,465,475,480,482,484,484,488,490,493,494,495,496,496,496,497,497,497,497,497,497,497,497,497,493,487,480,468,385,341,305,268,206,182,162,145,132,124,116,115,114,111,103,97],"timestamp_mouse":[11,20,59,60,80,100,120,140,161,180,200,220,240,260,282,300,320,340,360,380,400,420,440,460,480,500,520,541,560,580,600,620,640,660,680,701,720,740,760,780,800,820,841,860,880,900,920,940,961,980,1000,1020,1040,1060,1081,1100,1120,1140,1160,1180,1200,1220,1240,1260,1280,1300,1320,1340,1361,1380,1400,1421,1440,1460,1481,1500,1521,1540,1561,1581,1600,1620,1641,1660,1680,1701,1722,1740,1761,1780,1800,1820,1841,1861,1880,1900,1922,1941,1961,1981,2001,2020,2040,2061,2080,2100,2122,2140,2160,2180,2201,2220,2242,2262,2280,2300,2321,2341,2361,2380,2400,2421,2440,2460,2481,2501,2521,2540,2560,2580,2600,2620,2640,2660,2681,2700,2721,2741,2761,2780,2800,2820,2840,2862,2880,2900,2921,2940,2961,2980,3001,3021,3040,3062,3080],"xSR":741.5,"ySR":501.8,"xT1":424.9,"yT1":0,"xT2":1058.1,"yT2":0,"toosoon":0,"cond_shown":"Incongruent","ratio_trial":300,"L_num":4,"L_den":20,"R_num":2,"R_den":4,"correct_side":2,"subjID":"luisramiez18","gender":"0","age":"11","school":"6","test":{"fix_dur":[250,1500],"timestim":1000,"targets_dim":[100,100],"targets_relative_coord":[0.3,0.7],"size_stim":[880,420],"start_dim":[100,100],"size_start":[300,300],"size_fix":60,"samplingrate":20,"img_types":["Congruent","Incongruent"],"ratios":[100,200,300],"rep_conds":19,"nTrials":120,"trials_to_rest":500,"Trials_order":[47,54,113,74,80,21,18,83,71,7,95,69,51,31,52,59,26,117,4,66,57,55,53,42,5,88,43,77,89,115,81,102,72,111,11,36,41,118,96,48,13,28,24,110,8,0,30,64,27,116,67,108,106,112,104,99,2,29,93,15,105,22,1,91,44,14,32,65,94,78,109,16,114,34,46,35,87,39,20,100,79,86,12,40,10,82,76,90,3,84,49,103,38,75,56,58,23,50,45,19,70,92,68,61,119,107,63,60,73,85,9,17,33,6,37,97,101,25,62,98],"cond_shown":["Incongruent","Congruent","Incongruent","Congruent","Congruent","Incongruent","Congruent","Incongruent","Incongruent","Incongruent","Incongruent","Incongruent","Incongruent","Incongruent","Congruent","Incongruent","Congruent","Incongruent","Congruent","Congruent","Incongruent","Incongruent","Incongruent","Congruent","Incongruent","Congruent","Incongruent","Incongruent","Incongruent","Incongruent","Incongruent","Congruent","Congruent","Incongruent","Incongruent","Congruent","Incongruent","Congruent","Congruent","Congruent","Incongruent","Congruent","Congruent","Congruent","Congruent","Congruent","Congruent","Congruent","Incongruent","Congruent","Incongruent","Congruent","Congruent","Congruent","Congruent","Incongruent","Congruent","Incongruent","Incongruent","Incongruent","Incongruent","Congruent","Incongruent","Incongruent","Congruent","Congruent","Congruent","Incongruent","Congruent","Congruent","Incongruent","Congruent","Congruent","Congruent","Congruent","Incongruent","Incongruent","Incongruent","Congruent","Congruent","Incongruent","Congruent","Congruent","Congruent","Congruent","Congruent","Congruent","Congruent","Incongruent","Congruent","Incongruent","Incongruent","Congruent","Incongruent","Congruent","Congruent","Incongruent","Congruent","Incongruent","Incongruent","Congruent","Congruent","Congruent","Incongruent","Incongruent","Incongruent","Incongruent","Congruent","Incongruent","Incongruent","Incongruent","Incongruent","Incongruent","Congruent","Incongruent","Incongruent","Incongruent","Incongruent","Congruent","Congruent"],"ratio_trial":[300,100,300,200,200,200,100,300,300,100,300,200,200,100,300,300,200,200,300,100,200,100,300,100,300,300,100,300,300,100,200,100,100,200,300,100,300,300,100,100,100,300,100,200,200,100,100,300,200,200,100,100,300,300,200,200,200,300,200,200,200,300,100,100,200,200,200,300,300,100,100,300,100,300,300,300,200,200,200,300,100,200,100,300,300,300,300,100,200,100,100,100,200,200,200,300,300,200,200,100,300,200,200,100,300,300,200,100,100,100,200,300,200,100,100,100,300,100,200,200],"left_num":[4,4,7,5,4,6,15,13,4,6,4,7,1,9,4,13,21,3,1,1,4,4,13,3,4,1,6,13,7,10,7,8,11,7,4,4,1,4,1,6,1,1,8,7,1,6,9,1,6,3,6,4,2,24,15,3,6,13,7,14,7,20,9,8,6,6,7,7,1,9,3,1,1,5,1,4,1,3,3,5,8,7,9,8,4,1,20,3,4,6,2,17,8,7,6,5,4,1,7,17,1,6,7,17,1,7,4,10,9,13,11,13,14,7,2,11,13,9,8,14],"right_num":[2,15,8,14,3,3,13,12,2,11,2,8,2,13,2,12,2,11,6,3,14,8,12,4,2,19,13,12,8,8,6,2,6,14,6,15,3,1,18,5,8,7,2,18,21,5,8,6,3,14,13,15,12,8,4,1,7,12,4,12,12,5,14,1,11,11,2,8,8,8,7,6,3,7,3,6,2,11,14,7,1,18,8,1,2,11,13,4,6,5,8,10,7,12,11,6,2,21,14,10,3,7,2,10,2,8,1,3,13,12,3,12,12,15,8,9,12,13,2,6],"left_den":[20,10,10,10,8,20,25,26,20,10,20,10,3,15,5,26,30,4,5,2,6,8,26,20,20,3,10,26,10,25,15,16,22,10,5,10,2,10,2,20,2,20,16,15,2,20,15,5,20,10,10,10,10,30,25,10,12,26,15,30,10,25,15,20,20,20,21,10,30,15,9,5,2,25,5,5,3,4,6,25,20,15,15,16,5,5,25,20,5,20,4,30,15,10,20,25,20,2,10,30,5,12,21,30,2,10,30,25,15,26,20,26,30,14,4,22,26,15,15,28],"right_den":[4,30,20,20,10,6,26,15,4,22,4,16,15,26,4,15,4,20,12,5,30,20,15,16,4,30,26,15,20,16,9,5,15,28,12,30,15,10,30,25,20,20,5,27,30,25,16,12,6,28,26,30,24,16,10,2,10,15,6,18,24,10,28,2,22,22,15,20,24,16,30,12,5,14,6,12,15,20,20,14,2,27,16,5,4,22,26,16,10,25,20,15,21,24,22,12,4,30,28,15,6,10,15,15,10,20,3,10,26,20,4,15,18,25,20,15,15,26,6,20],"correct_side":[2,2,1,2,1,2,1,2,2,1,2,1,1,1,1,2,1,1,2,2,1,1,2,2,2,2,1,2,1,2,2,1,1,1,1,2,1,1,2,1,1,2,1,2,2,1,1,2,2,2,1,2,2,1,1,2,2,2,2,2,1,1,1,2,2,2,1,1,2,1,1,2,2,2,2,1,1,1,2,2,2,2,1,1,1,2,1,2,1,1,1,2,1,1,2,2,2,2,1,2,2,2,1,2,1,1,2,1,1,2,2,2,2,2,1,2,2,1,1,1],"img_shown":["img2/300/Incongruent/R/I_Dist_300_LN_4_LD_20_RN_2_RD_4_1.png","img2/100/Congruent/R/C_Dist_100_LN_4_LD_10_RN_15_RD_30_1.png","img2/300/Incongruent/L/I_Dist_300_LN_7_LD_10_RN_8_RD_20_0.png","img2/200/Congruent/R/C_Dist_200_LN_5_LD_10_RN_14_RD_20_1.png","img2/200/Congruent/L/C_Dist_200_LN_4_LD_8_RN_3_RD_10_0.png","img2/200/Incongruent/R/I_Dist_200_LN_6_LD_20_RN_3_RD_6_1.png","img2/100/Congruent/L/C_Dist_100_LN_15_LD_25_RN_13_RD_26_0.png","img2/300/Incongruent/R/I_Dist_300_LN_13_LD_26_RN_12_RD_15_1.png","img2/300/Incongruent/R/I_Dist_300_LN_4_LD_20_RN_2_RD_4_1.png","img2/100/Incongruent/L/I_Dist_100_LN_6_LD_10_RN_11_RD_22_0.png","img2/300/Incongruent/R/I_Dist_300_LN_4_LD_20_RN_2_RD_4_1.png","img2/200/Incongruent/L/I_Dist_200_LN_7_LD_10_RN_8_RD_16_0.png","img2/200/Incongruent/L/I_Dist_200_LN_1_LD_3_RN_2_RD_15_0.png","img2/100/Incongruent/L/I_Dist_100_LN_9_LD_15_RN_13_RD_26_0.png","img2/300/Congruent/L/C_Dist_300_LN_4_LD_5_RN_2_RD_4_0.png","img2/300/Incongruent/R/I_Dist_300_LN_13_LD_26_RN_12_RD_15_1.png","img2/200/Congruent/L/C_Dist_200_LN_21_LD_30_RN_2_RD_4_0.png","img2/200/Incongruent/L/I_Dist_200_LN_3_LD_4_RN_11_RD_20_0.png","img2/300/Congruent/R/C_Dist_300_LN_1_LD_5_RN_6_RD_12_1.png","img2/100/Congruent/R/C_Dist_100_LN_1_LD_2_RN_3_RD_5_1.png","img2/200/Incongruent/L/I_Dist_200_LN_4_LD_6_RN_14_RD_30_0.png","img2/100/Incongruent/L/I_Dist_100_LN_4_LD_8_RN_8_RD_20_0.png","img2/300/Incongruent/R/I_Dist_300_LN_13_LD_26_RN_12_RD_15_1.png","img2/100/Congruent/R/C_Dist_100_LN_3_LD_20_RN_4_RD_16_1.png","img2/300/Incongruent/R/I_Dist_300_LN_4_LD_20_RN_2_RD_4_1.png","img2/300/Congruent/R/C_Dist_300_LN_1_LD_3_RN_19_RD_30_1.png","img2/100/Incongruent/L/I_Dist_100_LN_6_LD_10_RN_13_RD_26_0.png","img2/300/Incongruent/R/I_Dist_300_LN_13_LD_26_RN_12_RD_15_1.png","img2/300/Incongruent/L/I_Dist_300_LN_7_LD_10_RN_8_RD_20_0.png","img2/100/Incongruent/R/I_Dist_100_LN_10_LD_25_RN_8_RD_16_1.png","img2/200/Incongruent/R/I_Dist_200_LN_7_LD_15_RN_6_RD_9_1.png","img2/100/Congruent/L/C_Dist_100_LN_8_LD_16_RN_2_RD_5_0.png","img2/100/Congruent/L/C_Dist_100_LN_11_LD_22_RN_6_RD_15_0.png","img2/200/Incongruent/L/I_Dist_200_LN_7_LD_10_RN_14_RD_28_0.png","img2/300/Incongruent/L/I_Dist_300_LN_4_LD_5_RN_6_RD_12_0.png","img2/100/Congruent/R/C_Dist_100_LN_4_LD_10_RN_15_RD_30_1.png","img2/300/Incongruent/L/I_Dist_300_LN_1_LD_2_RN_3_RD_15_0.png","img2/300/Congruent/L/C_Dist_300_LN_4_LD_10_RN_1_RD_10_0.png","img2/100/Congruent/R/C_Dist_100_LN_1_LD_2_RN_18_RD_30_1.png","img2/100/Congruent/L/C_Dist_100_LN_6_LD_20_RN_5_RD_25_0.png","img2/100/Incongruent/L/I_Dist_100_LN_1_LD_2_RN_8_RD_20_0.png","img2/300/Congruent/R/C_Dist_300_LN_1_LD_20_RN_7_RD_20_1.png","img2/100/Congruent/L/C_Dist_100_LN_8_LD_16_RN_2_RD_5_0.png","img2/200/Congruent/R/C_Dist_200_LN_7_LD_15_RN_18_RD_27_1.png","img2/200/Congruent/R/C_Dist_200_LN_1_LD_2_RN_21_RD_30_1.png","img2/100/Congruent/L/C_Dist_100_LN_6_LD_20_RN_5_RD_25_0.png","img2/100/Congruent/L/C_Dist_100_LN_9_LD_15_RN_8_RD_16_0.png","img2/300/Congruent/R/C_Dist_300_LN_1_LD_5_RN_6_RD_12_1.png","img2/200/Incongruent/R/I_Dist_200_LN_6_LD_20_RN_3_RD_6_1.png","img2/200/Congruent/R/C_Dist_200_LN_3_LD_10_RN_14_RD_28_1.png","img2/100/Incongruent/L/I_Dist_100_LN_6_LD_10_RN_13_RD_26_0.png","img2/100/Congruent/R/C_Dist_100_LN_4_LD_10_RN_15_RD_30_1.png","img2/300/Congruent/R/C_Dist_300_LN_2_LD_10_RN_12_RD_24_1.png","img2/300/Congruent/L/C_Dist_300_LN_24_LD_30_RN_8_RD_16_0.png","img2/200/Congruent/L/C_Dist_200_LN_15_LD_25_RN_4_RD_10_0.png","img2/200/Incongruent/R/I_Dist_200_LN_3_LD_10_RN_1_RD_2_1.png","img2/200/Congruent/R/C_Dist_200_LN_6_LD_12_RN_7_RD_10_1.png","img2/300/Incongruent/R/I_Dist_300_LN_13_LD_26_RN_12_RD_15_1.png","img2/200/Incongruent/R/I_Dist_200_LN_7_LD_15_RN_4_RD_6_1.png","img2/200/Incongruent/R/I_Dist_200_LN_14_LD_30_RN_12_RD_18_1.png","img2/200/Incongruent/L/I_Dist_200_LN_7_LD_10_RN_12_RD_24_0.png","img2/300/Congruent/L/C_Dist_300_LN_20_LD_25_RN_5_RD_10_0.png","img2/100/Incongruent/L/I_Dist_100_LN_9_LD_15_RN_14_RD_28_0.png","img2/100/Incongruent/R/I_Dist_100_LN_8_LD_20_RN_1_RD_2_1.png","img2/200/Congruent/R/C_Dist_200_LN_6_LD_20_RN_11_RD_22_1.png","img2/200/Congruent/R/C_Dist_200_LN_6_LD_20_RN_11_RD_22_1.png","img2/200/Congruent/L/C_Dist_200_LN_7_LD_21_RN_2_RD_15_0.png","img2/300/Incongruent/L/I_Dist_300_LN_7_LD_10_RN_8_RD_20_0.png","img2/300/Congruent/R/C_Dist_300_LN_1_LD_30_RN_8_RD_24_1.png","img2/100/Congruent/L/C_Dist_100_LN_9_LD_15_RN_8_RD_16_0.png","img2/100/Incongruent/L/I_Dist_100_LN_3_LD_9_RN_7_RD_30_0.png","img2/300/Congruent/R/C_Dist_300_LN_1_LD_5_RN_6_RD_12_1.png","img2/100/Congruent/R/C_Dist_100_LN_1_LD_2_RN_3_RD_5_1.png","img2/300/Congruent/R/C_Dist_300_LN_5_LD_25_RN_7_RD_14_1.png","img2/300/Congruent/R/C_Dist_300_LN_1_LD_5_RN_3_RD_6_1.png","img2/300/Incongruent/L/I_Dist_300_LN_4_LD_5_RN_6_RD_12_0.png","img2/200/Incongruent/L/I_Dist_200_LN_1_LD_3_RN_2_RD_15_0.png","img2/200/Incongruent/L/I_Dist_200_LN_3_LD_4_RN_11_RD_20_0.png","img2/200/Congruent/R/C_Dist_200_LN_3_LD_6_RN_14_RD_20_1.png","img2/300/Congruent/R/C_Dist_300_LN_5_LD_25_RN_7_RD_14_1.png","img2/100/Incongruent/R/I_Dist_100_LN_8_LD_20_RN_1_RD_2_1.png","img2/200/Congruent/R/C_Dist_200_LN_7_LD_15_RN_18_RD_27_1.png","img2/100/Congruent/L/C_Dist_100_LN_9_LD_15_RN_8_RD_16_0.png","img2/300/Congruent/L/C_Dist_300_LN_8_LD_16_RN_1_RD_5_0.png","img2/300/Congruent/L/C_Dist_300_LN_4_LD_5_RN_2_RD_4_0.png","img2/300/Congruent/R/C_Dist_300_LN_1_LD_5_RN_11_RD_22_1.png","img2/300/Congruent/L/C_Dist_300_LN_20_LD_25_RN_13_RD_26_0.png","img2/100/Congruent/R/C_Dist_100_LN_3_LD_20_RN_4_RD_16_1.png","img2/200/Incongruent/L/I_Dist_200_LN_4_LD_5_RN_6_RD_10_0.png","img2/100/Congruent/L/C_Dist_100_LN_6_LD_20_RN_5_RD_25_0.png","img2/100/Incongruent/L/I_Dist_100_LN_2_LD_4_RN_8_RD_20_0.png","img2/100/Incongruent/R/I_Dist_100_LN_17_LD_30_RN_10_RD_15_1.png","img2/200/Congruent/L/C_Dist_200_LN_8_LD_15_RN_7_RD_21_0.png","img2/200/Incongruent/L/I_Dist_200_LN_7_LD_10_RN_12_RD_24_0.png","img2/200/Congruent/R/C_Dist_200_LN_6_LD_20_RN_11_RD_22_1.png","img2/300/Congruent/R/C_Dist_300_LN_5_LD_25_RN_6_RD_12_1.png","img2/300/Incongruent/R/I_Dist_300_LN_4_LD_20_RN_2_RD_4_1.png","img2/200/Congruent/R/C_Dist_200_LN_1_LD_2_RN_21_RD_30_1.png","img2/200/Incongruent/L/I_Dist_200_LN_7_LD_10_RN_14_RD_28_0.png","img2/100/Incongruent/R/I_Dist_100_LN_17_LD_30_RN_10_RD_15_1.png","img2/300/Congruent/R/C_Dist_300_LN_1_LD_5_RN_3_RD_6_1.png","img2/200/Congruent/R/C_Dist_200_LN_6_LD_12_RN_7_RD_10_1.png","img2/200/Congruent/L/C_Dist_200_LN_7_LD_21_RN_2_RD_15_0.png","img2/100/Incongruent/R/I_Dist_100_LN_17_LD_30_RN_10_RD_15_1.png","img2/300/Incongruent/L/I_Dist_300_LN_1_LD_2_RN_2_RD_10_0.png","img2/300/Incongruent/L/I_Dist_300_LN_7_LD_10_RN_8_RD_20_0.png","img2/200/Incongruent/R/I_Dist_200_LN_4_LD_30_RN_1_RD_3_1.png","img2/100/Congruent/L/C_Dist_100_LN_10_LD_25_RN_3_RD_10_0.png","img2/100/Incongruent/L/I_Dist_100_LN_9_LD_15_RN_13_RD_26_0.png","img2/100/Incongruent/R/I_Dist_100_LN_13_LD_26_RN_12_RD_20_1.png","img2/200/Incongruent/R/I_Dist_200_LN_11_LD_20_RN_3_RD_4_1.png","img2/300/Incongruent/R/I_Dist_300_LN_13_LD_26_RN_12_RD_15_1.png","img2/200/Incongruent/R/I_Dist_200_LN_14_LD_30_RN_12_RD_18_1.png","img2/100/Congruent/R/C_Dist_100_LN_7_LD_14_RN_15_RD_25_1.png","img2/100/Incongruent/L/I_Dist_100_LN_2_LD_4_RN_8_RD_20_0.png","img2/100/Incongruent/R/I_Dist_100_LN_11_LD_22_RN_9_RD_15_1.png","img2/300/Incongruent/R/I_Dist_300_LN_13_LD_26_RN_12_RD_15_1.png","img2/100/Incongruent/L/I_Dist_100_LN_9_LD_15_RN_13_RD_26_0.png","img2/200/Congruent/L/C_Dist_200_LN_8_LD_15_RN_2_RD_6_0.png","img2/200/Congruent/L/C_Dist_200_LN_14_LD_28_RN_6_RD_20_0.png"],"dist100_C":[["C_Dist_100_LN_10_LD_25_RN_3_RD_10_0.png","C_Dist_100_LN_11_LD_22_RN_4_RD_10_0.png","C_Dist_100_LN_11_LD_22_RN_6_RD_15_0.png","C_Dist_100_LN_15_LD_25_RN_13_RD_26_0.png","C_Dist_100_LN_3_LD_6_RN_2_RD_5_0.png","C_Dist_100_LN_6_LD_20_RN_5_RD_25_0.png","C_Dist_100_LN_8_LD_16_RN_2_RD_5_0.png","C_Dist_100_LN_9_LD_15_RN_8_RD_16_0.png"],["C_Dist_100_LN_1_LD_2_RN_18_RD_30_1.png","C_Dist_100_LN_1_LD_2_RN_3_RD_5_1.png","C_Dist_100_LN_12_LD_30_RN_13_RD_26_1.png","C_Dist_100_LN_2_LD_5_RN_11_RD_22_1.png","C_Dist_100_LN_2_LD_5_RN_6_RD_12_1.png","C_Dist_100_LN_3_LD_20_RN_4_RD_16_1.png","C_Dist_100_LN_4_LD_10_RN_15_RD_30_1.png","C_Dist_100_LN_4_LD_8_RN_6_RD_10_1.png","C_Dist_100_LN_6_LD_12_RN_15_RD_25_1.png","C_Dist_100_LN_7_LD_14_RN_15_RD_25_1.png","C_Dist_100_LN_7_LD_14_RN_9_RD_15_1.png"]],"dist100_I":[["I_Dist_100_LN_1_LD_2_RN_8_RD_20_0.png","I_Dist_100_LN_2_LD_4_RN_6_RD_15_0.png","I_Dist_100_LN_2_LD_4_RN_8_RD_20_0.png","I_Dist_100_LN_3_LD_5_RN_11_RD_22_0.png","I_Dist_100_LN_3_LD_5_RN_8_RD_16_0.png","I_Dist_100_LN_3_LD_6_RN_4_RD_10_0.png","I_Dist_100_LN_3_LD_9_RN_7_RD_30_0.png","I_Dist_100_LN_4_LD_8_RN_8_RD_20_0.png","I_Dist_100_LN_6_LD_10_RN_11_RD_22_0.png","I_Dist_100_LN_6_LD_10_RN_13_RD_26_0.png","I_Dist_100_LN_6_LD_10_RN_7_RD_14_0.png","I_Dist_100_LN_9_LD_10_RN_20_RD_25_0.png","I_Dist_100_LN_9_LD_15_RN_13_RD_26_0.png","I_Dist_100_LN_9_LD_15_RN_14_RD_28_0.png"],["I_Dist_100_LN_10_LD_25_RN_8_RD_16_1.png","I_Dist_100_LN_10_LD_25_RN_9_RD_18_1.png","I_Dist_100_LN_11_LD_22_RN_9_RD_15_1.png","I_Dist_100_LN_12_LD_24_RN_9_RD_15_1.png","I_Dist_100_LN_12_LD_30_RN_2_RD_4_1.png","I_Dist_100_LN_13_LD_26_RN_12_RD_20_1.png","I_Dist_100_LN_13_LD_26_RN_6_RD_10_1.png","I_Dist_100_LN_17_LD_30_RN_10_RD_15_1.png","I_Dist_100_LN_6_LD_12_RN_3_RD_5_1.png","I_Dist_100_LN_8_LD_16_RN_6_RD_10_1.png","I_Dist_100_LN_8_LD_20_RN_1_RD_2_1.png","I_Dist_100_LN_9_LD_18_RN_6_RD_10_1.png"]],"dist100_S":[["E_Dist_100_LN_2_LD_12_RN_2_RD_30_0.png","E_Dist_100_LN_6_LD_10_RN_6_RD_12_0.png"],["E_Dist_100_LN_6_LD_12_RN_6_RD_10_1.png"]],"dist200_C":[["C_Dist_200_LN_11_LD_22_RN_3_RD_10_0.png","C_Dist_200_LN_12_LD_15_RN_6_RD_10_0.png","C_Dist_200_LN_12_LD_20_RN_6_RD_15_0.png","C_Dist_200_LN_14_LD_28_RN_6_RD_20_0.png","C_Dist_200_LN_15_LD_25_RN_4_RD_10_0.png","C_Dist_200_LN_16_LD_20_RN_12_RD_20_0.png","C_Dist_200_LN_16_LD_30_RN_9_RD_27_0.png","C_Dist_200_LN_20_LD_25_RN_9_RD_15_0.png","C_Dist_200_LN_21_LD_30_RN_2_RD_4_0.png","C_Dist_200_LN_4_LD_10_RN_3_RD_15_0.png","C_Dist_200_LN_4_LD_8_RN_3_RD_10_0.png","C_Dist_200_LN_6_LD_15_RN_3_RD_15_0.png","C_Dist_200_LN_7_LD_21_RN_2_RD_15_0.png","C_Dist_200_LN_8_LD_15_RN_2_RD_6_0.png","C_Dist_200_LN_8_LD_15_RN_3_RD_9_0.png","C_Dist_200_LN_8_LD_15_RN_7_RD_21_0.png","C_Dist_200_LN_9_LD_20_RN_4_RD_16_0.png"],["C_Dist_200_LN_1_LD_2_RN_21_RD_30_1.png","C_Dist_200_LN_13_LD_26_RN_14_RD_20_1.png","C_Dist_200_LN_3_LD_10_RN_11_RD_22_1.png","C_Dist_200_LN_3_LD_10_RN_14_RD_28_1.png","C_Dist_200_LN_3_LD_10_RN_7_RD_14_1.png","C_Dist_200_LN_3_LD_12_RN_9_RD_20_1.png","C_Dist_200_LN_3_LD_6_RN_14_RD_20_1.png","C_Dist_200_LN_5_LD_10_RN_14_RD_20_1.png","C_Dist_200_LN_6_LD_12_RN_7_RD_10_1.png","C_Dist_200_LN_6_LD_20_RN_11_RD_22_1.png","C_Dist_200_LN_7_LD_15_RN_18_RD_27_1.png","C_Dist_200_LN_9_LD_30_RN_13_RD_26_1.png"]],"dist200_I":[["I_Dist_200_LN_1_LD_2_RN_3_RD_10_0.png","I_Dist_200_LN_1_LD_3_RN_2_RD_15_0.png","I_Dist_200_LN_3_LD_4_RN_11_RD_20_0.png","I_Dist_200_LN_4_LD_5_RN_6_RD_10_0.png","I_Dist_200_LN_4_LD_6_RN_14_RD_30_0.png","I_Dist_200_LN_7_LD_10_RN_12_RD_24_0.png","I_Dist_200_LN_7_LD_10_RN_14_RD_28_0.png","I_Dist_200_LN_7_LD_10_RN_8_RD_16_0.png"],["I_Dist_200_LN_11_LD_20_RN_3_RD_4_1.png","I_Dist_200_LN_14_LD_30_RN_12_RD_18_1.png","I_Dist_200_LN_14_LD_30_RN_6_RD_9_1.png","I_Dist_200_LN_3_LD_10_RN_1_RD_2_1.png","I_Dist_200_LN_4_LD_30_RN_1_RD_3_1.png","I_Dist_200_LN_6_LD_20_RN_3_RD_6_1.png","I_Dist_200_LN_7_LD_15_RN_4_RD_6_1.png","I_Dist_200_LN_7_LD_15_RN_6_RD_9_1.png","I_Dist_200_LN_9_LD_15_RN_8_RD_10_1.png"]],"dist200_S":[["E_Dist_200_LN_3_LD_6_RN_3_RD_10_0.png"],["E_Dist_200_LN_3_LD_10_RN_3_RD_6_1.png"]],"dist300_C":[["C_Dist_300_LN_11_LD_22_RN_1_RD_5_0.png","C_Dist_300_LN_11_LD_22_RN_2_RD_10_0.png","C_Dist_300_LN_11_LD_22_RN_4_RD_20_0.png","C_Dist_300_LN_12_LD_24_RN_2_RD_10_0.png","C_Dist_300_LN_18_LD_20_RN_9_RD_15_0.png","C_Dist_300_LN_20_LD_25_RN_13_RD_26_0.png","C_Dist_300_LN_20_LD_25_RN_14_RD_28_0.png","C_Dist_300_LN_20_LD_25_RN_5_RD_10_0.png","C_Dist_300_LN_20_LD_25_RN_8_RD_16_0.png","C_Dist_300_LN_20_LD_25_RN_9_RD_18_0.png","C_Dist_300_LN_24_LD_30_RN_2_RD_4_0.png","C_Dist_300_LN_24_LD_30_RN_8_RD_16_0.png","C_Dist_300_LN_3_LD_6_RN_2_RD_10_0.png","C_Dist_300_LN_4_LD_10_RN_1_RD_10_0.png","C_Dist_300_LN_4_LD_5_RN_2_RD_4_0.png","C_Dist_300_LN_8_LD_16_RN_1_RD_5_0.png","C_Dist_300_LN_9_LD_10_RN_3_RD_5_0.png"],["C_Dist_300_LN_1_LD_20_RN_7_RD_20_1.png","C_Dist_300_LN_1_LD_3_RN_19_RD_30_1.png","C_Dist_300_LN_1_LD_30_RN_8_RD_24_1.png","C_Dist_300_LN_1_LD_5_RN_11_RD_22_1.png","C_Dist_300_LN_1_LD_5_RN_3_RD_6_1.png","C_Dist_300_LN_1_LD_5_RN_6_RD_12_1.png","C_Dist_300_LN_2_LD_10_RN_12_RD_24_1.png","C_Dist_300_LN_2_LD_20_RN_10_RD_25_1.png","C_Dist_300_LN_3_LD_12_RN_11_RD_20_1.png","C_Dist_300_LN_3_LD_6_RN_4_RD_5_1.png","C_Dist_300_LN_4_LD_20_RN_13_RD_26_1.png","C_Dist_300_LN_5_LD_25_RN_6_RD_12_1.png","C_Dist_300_LN_5_LD_25_RN_7_RD_14_1.png","C_Dist_300_LN_7_LD_14_RN_20_RD_25_1.png","C_Dist_300_LN_8_LD_15_RN_10_RD_12_1.png"]],"dist300_I":[["I_Dist_300_LN_1_LD_2_RN_2_RD_10_0.png","I_Dist_300_LN_1_LD_2_RN_3_RD_15_0.png","I_Dist_300_LN_2_LD_4_RN_6_RD_30_0.png","I_Dist_300_LN_3_LD_6_RN_4_RD_20_0.png","I_Dist_300_LN_4_LD_5_RN_6_RD_12_0.png","I_Dist_300_LN_4_LD_5_RN_8_RD_16_0.png","I_Dist_300_LN_7_LD_10_RN_8_RD_20_0.png","I_Dist_300_LN_8_LD_10_RN_14_RD_28_0.png","I_Dist_300_LN_8_LD_10_RN_9_RD_18_0.png"],["I_Dist_300_LN_13_LD_26_RN_12_RD_15_1.png","I_Dist_300_LN_4_LD_20_RN_2_RD_4_1.png"]],"dist300_S":[["E_Dist_300_LN_9_LD_12_RN_9_RD_20_0.png"],["E_Dist_300_LN_18_LD_30_RN_18_RD_20_1.png","E_Dist_300_LN_3_LD_10_RN_3_RD_5_1.png","E_Dist_300_LN_9_LD_20_RN_9_RD_12_1.png"]],"dist500_C":[["C_Dist_500_LN_10_LD_13_RN_7_RD_26_0.png","C_Dist_500_LN_10_LD_15_RN_4_RD_24_0.png","C_Dist_500_LN_12_LD_16_RN_3_RD_12_0.png","C_Dist_500_LN_12_LD_18_RN_4_RD_24_0.png","C_Dist_500_LN_15_LD_18_RN_5_RD_15_0.png","C_Dist_500_LN_15_LD_20_RN_1_RD_4_0.png","C_Dist_500_LN_18_LD_27_RN_1_RD_6_0.png","C_Dist_500_LN_20_LD_24_RN_1_RD_3_0.png","C_Dist_500_LN_20_LD_24_RN_3_RD_9_0.png","C_Dist_500_LN_20_LD_24_RN_7_RD_21_0.png","C_Dist_500_LN_20_LD_28_RN_3_RD_14_0.png","C_Dist_500_LN_21_LD_28_RN_6_RD_24_0.png","C_Dist_500_LN_22_LD_28_RN_2_RD_7_0.png","C_Dist_500_LN_25_LD_30_RN_9_RD_27_0.png","C_Dist_500_LN_4_LD_6_RN_1_RD_6_0.png","C_Dist_500_LN_5_LD_6_RN_2_RD_6_0.png","C_Dist_500_LN_6_LD_9_RN_1_RD_6_0.png","C_Dist_500_LN_7_LD_10_RN_1_RD_5_0.png","C_Dist_500_LN_8_LD_12_RN_1_RD_6_0.png","C_Dist_500_LN_8_LD_12_RN_4_RD_24_0.png"],["C_Dist_500_LN_1_LD_4_RN_12_RD_16_1.png","C_Dist_500_LN_1_LD_4_RN_9_RD_12_1.png","C_Dist_500_LN_1_LD_9_RN_11_RD_18_1.png","C_Dist_500_LN_10_LD_24_RN_22_RD_24_1.png","C_Dist_500_LN_2_LD_12_RN_10_RD_15_1.png","C_Dist_500_LN_2_LD_12_RN_12_RD_18_1.png","C_Dist_500_LN_2_LD_12_RN_4_RD_6_1.png","C_Dist_500_LN_2_LD_24_RN_7_RD_12_1.png","C_Dist_500_LN_2_LD_5_RN_18_RD_20_1.png","C_Dist_500_LN_2_LD_5_RN_9_RD_10_1.png","C_Dist_500_LN_2_LD_8_RN_12_RD_16_1.png","C_Dist_500_LN_2_LD_8_RN_21_RD_28_1.png","C_Dist_500_LN_3_LD_10_RN_4_RD_5_1.png","C_Dist_500_LN_3_LD_12_RN_15_RD_20_1.png","C_Dist_500_LN_3_LD_30_RN_6_RD_10_1.png","C_Dist_500_LN_3_LD_8_RN_14_RD_16_1.png","C_Dist_500_LN_4_LD_16_RN_15_RD_20_1.png","C_Dist_500_LN_4_LD_24_RN_12_RD_18_1.png","C_Dist_500_LN_5_LD_14_RN_6_RD_7_1.png","C_Dist_500_LN_7_LD_21_RN_20_RD_24_1.png","C_Dist_500_LN_7_LD_28_RN_12_RD_16_1.png","C_Dist_500_LN_7_LD_28_RN_9_RD_12_1.png","C_Dist_500_LN_9_LD_27_RN_20_RD_24_1.png"]],"dist500_I":[["I_Dist_500_LN_2_LD_3_RN_4_RD_24_0.png","I_Dist_500_LN_5_LD_6_RN_6_RD_18_0.png","I_Dist_500_LN_7_LD_8_RN_9_RD_24_0.png"],["I_Dist_500_LN_7_LD_21_RN_5_RD_6_1.png"]],"dist500_S":[["E_Dist_500_LN_6_LD_8_RN_6_RD_24_0.png"],["E_Dist_500_LN_2_LD_12_RN_2_RD_3_1.png","E_Dist_500_LN_6_LD_24_RN_6_RD_8_1.png"]]}},{"start_time":1551899695712,"click_time":1551899701906,"finger_time":1551899697386,"fix_duration":283.11895783240004,"trial":1,"RT":1674,"MT":4520,"sideResp":2,"stimulus":[],"xmouse":[783,783,783,783,783,783,783,783,783,783,783,783,783,783,783,783,783,783,783,783,783,783,783,783,783,783,783,783,783,783,783,783,783,783,783,783,783,783,783,783,783,783,783,783,783,783,783,783,783,783,783,783,783,783,783,783,783,783,783,783,783,783,783,783,783,783,783,783,783,783,783,783,783,783,783,783,783,783,783,783,789,799,828,894,910,919,925,928,939,944,949,953,955,957,958,958,958,958,958,958,958,958,958,958,958,958,958,958,958,958,958,958,958,958,958,958,958,958,958,958,958,958,958,958,958,958,958,958,958,958,958,958,958,958,958,958,958,958,958,958,958,958,958,958,958,958,958,958,958,958,958,958,958,958,958,958,958,958,958,958,958,958,958,958,958,958,958,958,958,958,958,958,958,958,958,866,866,866,866,866,866,866,865,856,835,828,816,814,812,811,811,811,812,813,815,815,815,815,836,854,871,867,846,834,834,834,834,834,834,834,834,834,834,834,834,834,834,834,834,807,807,807,807,807,807,807,807,807,807,807,807,807,807,807,807,807,807,807,807,807,807,807,807,807,807,792,796,797,799,803,808,812,819,824,829,829,826,825,825,825,825,822,811,797,793,793,793,793,793,793,793,793,793,793,793,793,793,793,793,793,807,817,838,853,882,890,899,907,921,929,938,949,966,971,992,999,1004,1008,1013,1017,1023,1028,1035,1040,1055,1058,1059,1059,1059,1059],"ymouse":[531,531,531,531,531,531,531,531,531,531,531,531,531,531,531,531,531,531,531,531,531,531,531,531,531,531,531,531,531,531,531,531,531,531,531,531,531,531,531,531,531,531,531,531,531,531,531,531,531,531,531,531,531,531,531,531,531,531,531,531,531,531,531,531,531,531,531,531,531,531,531,531,531,531,531,531,531,531,531,531,525,516,491,423,402,386,375,369,343,327,311,296,290,283,280,280,280,280,280,280,280,280,280,280,280,280,280,280,280,280,280,280,280,280,280,281,281,281,281,281,281,281,281,281,281,281,281,281,281,281,281,281,281,281,281,281,281,281,281,281,281,281,281,281,281,281,281,281,281,281,281,281,281,281,281,281,281,281,281,281,281,281,281,281,281,281,281,281,281,281,281,281,281,281,281,527,527,527,527,527,527,527,527,528,533,535,539,541,541,541,541,541,541,540,539,539,539,539,523,517,517,526,535,542,542,542,542,542,542,542,542,542,542,542,542,542,542,542,550,634,634,634,634,634,634,634,634,634,634,634,634,634,634,634,634,634,634,634,634,634,634,634,634,634,634,722,698,695,689,675,652,620,573,532,465,449,438,434,433,433,433,435,449,470,487,494,497,497,497,497,497,497,497,497,498,498,498,498,498,498,485,475,453,440,416,407,396,387,369,359,345,330,312,306,280,271,263,255,237,227,214,202,185,172,133,122,112,106,102,95],"timestamp_mouse":[13,42,53,73,93,114,133,153,173,194,213,233,253,273,293,313,333,353,373,393,413,433,453,473,494,513,534,553,573,594,614,633,653,673,693,713,733,753,773,793,813,833,853,873,893,913,934,953,973,993,1014,1033,1053,1073,1093,1113,1133,1153,1173,1195,1214,1233,1253,1273,1293,1313,1333,1353,1374,1393,1413,1433,1453,1473,1493,1513,1533,1553,1573,1593,1613,1634,1653,1674,1694,1713,1733,1753,1773,1793,1814,1833,1853,1874,1894,1913,1933,1953,1974,1993,2013,2033,2053,2074,2093,2113,2133,2153,2174,2193,2213,2234,2253,2274,2295,2314,2333,2353,2374,2393,2413,2433,2453,2474,2493,2514,2533,2554,2573,2594,2613,2634,2654,2675,2694,2713,2733,2753,2774,2793,2813,2833,2853,2873,2893,2913,2933,2953,2974,2993,3013,3033,3053,3073,3093,3113,3133,3154,3174,3193,3213,3233,3253,3273,3293,3313,3333,3353,3373,3394,3413,3433,3453,3473,3493,3513,3533,3554,3573,3593,3613,3633,3653,3674,3694,3714,3733,3753,3773,3793,3813,3833,3853,3874,3893,3914,3933,3954,3973,3994,4014,4035,4054,4073,4093,4113,4133,4153,4174,4193,4213,4233,4253,4273,4294,4313,4334,4353,4373,4393,4414,4434,4454,4473,4493,4514,4533,4553,4573,4594,4613,4633,4653,4674,4693,4713,4733,4753,4774,4793,4814,4833,4853,4875,4893,4913,4933,4953,4974,4993,5014,5035,5053,5075,5093,5113,5133,5153,5173,5193,5213,5233,5253,5275,5293,5314,5333,5353,5374,5393,5413,5433,5453,5473,5493,5513,5534,5553,5573,5593,5613,5634,5654,5673,5693,5713,5733,5753,5774,5793,5813,5833,5854,5874,5894,5913,5933,5953,5975,5993,6014,6034,6053,6073,6093,6114,6133,6153,6173,6193],"xSR":741.5,"ySR":469.95,"xT1":424.9,"yT1":0,"xT2":1058.1,"yT2":0,"toosoon":0,"cond_shown":"Congruent","ratio_trial":100,"L_num":4,"L_den":10,"R_num":15,"R_den":30,"correct_side":2,"subjID":"luisramiez18","gender":"0","school":"6","age":"11"},{"start_time":1551899704187,"click_time":1551899707185,"finger_time":1551899706745,"fix_duration":1280.3265013294697,"trial":2,"RT":2558,"MT":440,"sideResp":1,"stimulus":[],"xmouse":[781,781,781,781,781,781,781,781,781,781,781,781,781,781,781,781,781,781,781,781,781,781,781,781,781,781,781,781,781,781,781,781,781,781,781,781,781,781,781,781,781,781,781,781,781,781,781,781,781,781,781,781,781,781,781,781,781,781,781,781,781,781,781,781,781,781,781,781,781,781,781,781,781,781,781,781,781,781,781,781,781,781,781,781,781,781,781,781,781,781,781,781,781,781,781,781,781,781,781,781,781,781,781,781,781,781,781,781,781,781,781,781,781,781,781,781,781,781,781,781,781,781,781,781,781,780,767,750,715,697,665,655,649,646,643,638,634,624,619,610,592,582,571,562,553,548,535,532,526,521],"ymouse":[521,521,521,521,521,521,521,521,521,521,521,521,521,521,521,521,521,521,521,521,521,521,521,521,521,521,521,521,521,521,521,521,521,521,521,521,521,521,521,521,521,521,521,521,521,521,521,521,521,521,521,521,521,521,521,521,521,521,521,521,521,521,521,521,521,521,521,521,521,521,521,521,521,521,521,521,521,521,521,521,521,521,521,521,521,521,521,521,521,521,521,521,521,521,521,521,521,521,521,521,521,521,521,521,521,521,521,521,521,521,521,521,521,521,521,521,521,521,521,521,521,521,521,521,521,520,484,446,364,319,246,219,204,193,184,173,165,151,146,138,125,120,115,111,109,107,103,102,100,99],"timestamp_mouse":[18,38,58,79,98,118,139,158,178,198,218,238,258,278,299,318,338,358,378,398,418,439,459,478,498,518,538,558,578,599,618,638,658,678,698,718,739,758,778,798,818,838,859,878,898,918,938,958,978,999,1018,1038,1058,1078,1098,1118,1139,1158,1178,1198,1218,1238,1258,1279,1298,1318,1338,1358,1378,1398,1418,1438,1459,1479,1499,1518,1538,1558,1578,1598,1620,1638,1658,1678,1698,1718,1739,1758,1778,1798,1818,1838,1858,1878,1899,1918,1938,1958,1978,1998,2019,2038,2059,2078,2098,2118,2138,2158,2178,2198,2218,2238,2259,2278,2298,2318,2338,2358,2378,2398,2418,2438,2458,2478,2498,2519,2538,2558,2578,2600,2619,2639,2659,2679,2700,2719,2738,2759,2778,2798,2818,2838,2858,2879,2898,2918,2938,2958,2978,2998],"xSR":741.5,"ySR":469.95,"xT1":424.9,"yT1":0,"xT2":1058.1,"yT2":0,"toosoon":0,"cond_shown":"Incongruent","ratio_trial":300,"L_num":7,"L_den":10,"R_num":8,"R_den":20,"correct_side":1,"subjID":"luisramiez18","gender":"0","school":"6","age":"11"},{"start_time":1551899709495,"click_time":1551899711426,"finger_time":1551899711106,"fix_duration":1268.6385863785142,"trial":3,"RT":1611,"MT":320,"sideResp":2,"stimulus":[],"xmouse":[780,780,780,780,780,780,780,780,780,780,780,780,780,780,780,780,780,780,780,780,780,780,780,780,780,780,780,780,780,780,780,780,780,780,780,780,780,780,780,780,780,780,780,780,780,780,780,780,780,780,780,780,780,780,780,780,780,780,780,780,780,780,780,780,780,780,780,780,780,780,780,780,780,780,780,780,780,780,780,800,869,1032,1085,1108,1119,1125,1127,1128,1128,1129,1129,1128,1125,1122,1116,1114,1111],"ymouse":[527,527,527,527,527,527,527,527,527,527,527,527,527,527,527,527,527,527,527,527,527,527,527,527,527,527,527,527,527,527,527,527,527,527,527,527,527,527,527,527,527,527,527,527,527,527,527,527,527,527,527,527,527,527,527,527,527,527,527,527,527,527,527,527,527,527,527,527,527,527,527,527,527,527,527,527,527,527,527,512,464,328,275,244,225,212,203,201,200,195,188,156,141,127,112,100,82],"timestamp_mouse":[10,44,50,70,90,110,130,150,170,190,210,230,251,270,290,311,330,351,370,390,412,430,451,471,490,511,530,550,571,590,610,631,650,670,690,710,730,750,770,790,810,830,850,870,890,910,930,950,970,990,1010,1030,1050,1070,1090,1110,1130,1150,1170,1190,1210,1231,1250,1270,1290,1310,1330,1350,1371,1390,1410,1430,1450,1470,1491,1510,1530,1551,1571,1590,1611,1630,1650,1670,1691,1712,1730,1752,1771,1790,1810,1830,1850,1870,1891,1910,1930],"xSR":741.5,"ySR":469.95,"xT1":424.9,"yT1":0,"xT2":1058.1,"yT2":0,"toosoon":0,"cond_shown":"Congruent","ratio_trial":200,"L_num":5,"L_den":10,"R_num":14,"R_den":20,"correct_side":2,"subjID":"luisramiez18","gender":"0","school":"6","age":"11"},{"start_time":1551899713065,"click_time":1551899714905,"finger_time":1551899714565,"fix_duration":598.7547739733127,"trial":4,"RT":1500,"MT":340,"sideResp":1,"stimulus":[],"xmouse":[784,784,784,784,784,784,784,784,784,784,784,784,784,784,784,784,784,783,783,783,783,783,783,783,782,782,782,782,782,782,782,782,782,782,782,782,782,782,782,782,782,782,782,782,782,782,782,782,782,782,782,782,782,782,782,782,782,782,782,782,782,782,782,782,782,782,782,782,782,782,782,781,780,772,759,739,721,701,668,658,652,644,640,622,605,589,576,559,532,521,501,488,480],"ymouse":[533,533,533,533,533,533,533,533,533,533,533,533,533,533,533,533,535,535,535,535,535,536,536,536,536,536,536,536,536,536,536,536,536,536,536,536,536,536,536,536,536,536,536,536,536,536,536,536,536,536,536,536,536,536,536,536,536,536,536,536,536,536,536,536,536,536,536,536,536,536,536,536,536,528,499,453,410,369,313,299,292,284,278,254,229,208,188,168,136,123,109,101,95],"timestamp_mouse":[15,30,40,60,80,101,120,140,160,181,200,221,240,260,280,302,320,340,360,382,401,420,441,462,480,500,520,540,560,580,600,620,640,660,680,700,720,741,760,780,800,820,840,860,880,900,920,940,960,980,1001,1020,1040,1060,1080,1100,1120,1141,1160,1180,1200,1220,1240,1260,1280,1301,1320,1340,1360,1380,1400,1420,1440,1460,1480,1500,1522,1541,1561,1581,1600,1620,1641,1660,1680,1700,1720,1740,1760,1780,1800,1820,1840],"xSR":741.5,"ySR":469.95,"xT1":424.9,"yT1":0,"xT2":1058.1,"yT2":0,"toosoon":0,"cond_shown":"Congruent","ratio_trial":200,"L_num":4,"L_den":8,"R_num":3,"R_den":10,"correct_side":1,"subjID":"luisramiez18","gender":"0","school":"6","age":"11"},{"start_time":1551899716461,"click_time":1551899718265,"finger_time":1551899717746,"fix_duration":594.2603692737938,"trial":5,"RT":1285,"MT":519,"sideResp":1,"stimulus":[],"xmouse":[797,797,797,797,797,797,797,797,797,797,797,797,797,797,797,797,797,797,797,797,797,797,797,797,797,797,797,797,797,797,797,797,797,797,797,797,797,797,797,797,797,797,797,797,797,797,797,797,797,797,797,797,797,797,797,797,791,788,776,772,770,767,762,747,738,725,713,702,690,653,622,575,564,539,531,525,520,520,520,520,520,520,520,520,520,520,520,520,520,520,482],"ymouse":[510,510,510,510,510,510,510,510,510,510,510,510,510,510,510,510,510,510,510,510,510,510,510,510,510,510,510,510,510,510,510,510,510,510,510,510,510,510,510,510,510,510,510,510,510,510,510,510,510,510,510,510,510,510,510,510,509,508,507,506,505,503,497,474,455,432,408,382,355,258,191,96,77,36,21,10,0,0,0,0,0,0,0,0,0,0,0,0,0,0,2],"timestamp_mouse":[10,40,44,65,85,104,125,144,164,184,204,224,244,264,284,304,324,344,364,384,404,424,444,465,484,504,524,544,565,584,604,624,644,664,685,704,725,744,764,785,805,824,844,864,884,904,924,944,965,984,1004,1024,1044,1064,1084,1104,1124,1144,1165,1184,1204,1224,1246,1266,1285,1304,1324,1344,1365,1384,1404,1425,1444,1465,1484,1504,1524,1544,1565,1584,1604,1625,1645,1664,1685,1704,1724,1744,1766,1784,1804],"xSR":741.5,"ySR":469.95,"xT1":424.9,"yT1":0,"xT2":1058.1,"yT2":0,"toosoon":0,"cond_shown":"Incongruent","ratio_trial":200,"L_num":6,"L_den":20,"R_num":3,"R_den":6,"correct_side":2,"subjID":"luisramiez18","gender":"0","school":"6","age":"11"},{"start_time":1551899720224,"click_time":1551899722107,"finger_time":1551899722026,"fix_duration":1177.5617830467195,"trial":6,"RT":1802,"MT":81,"sideResp":1,"stimulus":[],"xmouse":[792,792,792,792,792,792,792,792,792,792,792,792,792,792,792,792,792,792,792,792,792,792,792,792,792,792,792,792,792,792,792,792,792,792,792,792,792,792,792,792,792,792,792,792,792,792,792,792,792,792,792,792,792,792,792,792,792,792,792,792,792,792,792,792,792,792,792,792,792,792,792,792,792,792,792,792,792,792,792,792,792,792,792,792,792,792,792,790,786,761,725,598,539,491,446],"ymouse":[529,529,529,529,529,529,529,529,529,529,529,529,529,529,529,529,529,529,529,529,529,529,529,529,529,529,529,529,529,529,529,529,529,529,529,529,529,529,529,529,529,529,529,529,529,529,529,529,529,529,529,529,529,529,529,529,529,529,529,529,529,529,529,529,529,529,529,529,529,529,529,529,529,529,529,529,529,529,529,529,529,529,529,529,529,529,529,529,527,493,436,257,175,105,49],"timestamp_mouse":[10,22,42,61,81,101,121,141,161,182,201,222,241,262,283,301,321,341,361,381,401,422,441,461,481,501,521,541,562,581,601,621,641,661,682,701,721,741,761,781,801,821,841,861,881,901,923,941,961,981,1001,1022,1041,1061,1081,1101,1121,1141,1162,1181,1201,1221,1241,1261,1281,1301,1322,1341,1361,1381,1401,1421,1443,1461,1481,1501,1521,1541,1561,1582,1601,1621,1641,1661,1681,1701,1721,1741,1762,1782,1802,1821,1841,1861,1883],"xSR":741.5,"ySR":469.95,"xT1":424.9,"yT1":0,"xT2":1058.1,"yT2":0,"toosoon":0,"cond_shown":"Congruent","ratio_trial":100,"L_num":15,"L_den":25,"R_num":13,"R_den":26,"correct_side":1,"subjID":"luisramiez18","gender":"0","school":"6","age":"11"},{"start_time":1551899724074,"click_time":1551899726305,"finger_time":1551899725846,"fix_duration":726.5563912848603,"trial":7,"RT":1772,"MT":459,"sideResp":1,"stimulus":[],"xmouse":[791,791,791,791,791,791,790,790,790,790,790,790,790,790,790,790,790,790,790,790,790,790,790,790,790,790,790,790,790,790,790,790,790,790,790,790,790,790,790,790,790,790,790,790,790,790,790,790,790,790,790,790,790,790,790,790,790,790,790,790,790,790,790,790,790,790,790,790,790,790,790,790,790,790,790,790,790,790,790,790,790,790,790,790,790,783,770,752,717,699,678,656,640,621,613,605,592,577,553,546,542,537,529,514,512,503,501,501,501,501,500,498],"ymouse":[512,512,512,512,512,512,512,512,512,512,512,512,512,512,512,512,512,512,512,512,512,512,512,512,512,512,512,512,512,512,512,512,512,512,512,512,512,512,512,512,512,512,512,512,512,512,512,512,512,512,512,512,512,512,512,512,512,512,512,512,512,512,512,512,512,512,512,512,512,512,512,512,512,512,512,512,512,512,512,512,512,512,512,512,512,510,500,483,436,404,367,330,301,267,248,233,210,189,149,136,131,123,115,105,103,101,100,100,100,100,100,99],"timestamp_mouse":[11,42,52,71,91,111,131,151,171,191,211,231,251,272,291,312,331,351,371,391,411,431,452,471,491,511,531,551,571,591,611,632,651,671,691,711,731,752,771,791,812,831,851,871,891,911,931,951,971,991,1012,1031,1051,1071,1091,1111,1132,1152,1171,1191,1211,1231,1251,1271,1291,1311,1331,1352,1371,1391,1412,1431,1451,1471,1491,1511,1531,1551,1572,1591,1611,1632,1652,1671,1691,1711,1731,1751,1772,1791,1812,1832,1852,1873,1891,1912,1931,1952,1973,1991,2011,2032,2052,2073,2091,2112,2132,2151,2173,2191,2211,2231],"xSR":741.5,"ySR":469.95,"xT1":424.9,"yT1":0,"xT2":1058.1,"yT2":0,"toosoon":0,"cond_shown":"Incongruent","ratio_trial":300,"L_num":13,"L_den":26,"R_num":12,"R_den":15,"correct_side":2,"subjID":"luisramiez18","gender":"0","school":"6","age":"11"},{"start_time":1551899728517,"click_time":1551899730086,"finger_time":1551899729765,"fix_duration":250,"trial":8,"RT":1248,"MT":321,"sideResp":1,"stimulus":[],"xmouse":[776,777,777,777,777,777,777,777,777,777,777,777,777,777,777,777,777,777,777,777,777,777,777,777,777,777,777,777,777,777,777,777,777,777,777,777,777,777,777,777,777,777,777,777,777,777,777,777,777,777,777,777,777,777,777,777,777,777,777,777,777,768,720,696,676,664,653,634,623,611,597,589,574,568,563,558,551,533,522],"ymouse":[537,537,537,537,537,537,537,537,537,537,537,537,537,537,537,537,537,537,537,537,537,537,537,537,537,537,537,537,537,537,537,537,537,537,537,537,537,537,537,537,537,537,537,537,537,537,537,537,537,537,537,537,537,537,537,537,537,537,536,535,528,508,422,382,345,326,307,274,256,235,209,195,162,148,137,126,115,92,85],"timestamp_mouse":[9,28,48,68,88,108,128,148,168,188,208,228,248,268,288,308,328,348,368,388,408,429,449,468,489,509,528,548,568,588,608,628,649,669,688,708,728,749,768,788,808,828,848,868,888,908,929,948,968,988,1009,1028,1048,1068,1088,1109,1129,1149,1168,1188,1210,1228,1248,1268,1288,1308,1329,1348,1368,1388,1408,1428,1448,1469,1488,1508,1528,1548,1569],"xSR":741.5,"ySR":469.95,"xT1":424.9,"yT1":0,"xT2":1058.1,"yT2":0,"toosoon":0,"cond_shown":"Incongruent","ratio_trial":300,"L_num":4,"L_den":20,"R_num":2,"R_den":4,"correct_side":2,"subjID":"luisramiez18","gender":"0","school":"6","age":"11"},{"start_time":1551899734133,"click_time":1551899735745,"finger_time":1551899735365,"fix_duration":946.2646994650132,"trial":9,"RT":1232,"MT":380,"sideResp":2,"stimulus":[],"xmouse":[780,780,780,780,780,780,780,780,780,780,780,781,781,781,781,781,781,781,781,781,781,781,781,781,781,781,781,781,781,781,781,781,781,781,781,781,781,781,781,781,781,781,781,781,781,781,781,781,781,781,781,781,781,781,781,781,781,781,782,797,821,852,919,956,993,1013,1028,1030,1033,1035,1038,1048,1050,1054,1056,1060,1066,1069,1072,1073,1075],"ymouse":[525,525,525,525,525,525,525,525,524,523,523,522,521,521,521,520,520,520,520,520,520,520,520,520,520,520,520,520,520,520,520,520,520,520,520,520,520,520,520,520,520,520,520,520,520,520,520,520,520,520,520,520,520,520,520,520,520,520,519,505,478,445,376,311,250,225,203,197,193,190,183,166,159,153,147,140,127,116,110,104,99],"timestamp_mouse":[12,40,52,72,92,112,133,152,172,192,212,232,252,272,292,313,332,352,372,392,414,432,453,472,492,514,532,552,572,592,612,632,652,672,692,712,732,752,772,792,812,832,852,872,892,912,932,952,972,993,1012,1032,1052,1072,1092,1112,1132,1153,1172,1193,1212,1232,1252,1273,1293,1313,1333,1352,1373,1392,1413,1434,1452,1472,1493,1512,1534,1552,1572,1592,1612],"xSR":741.5,"ySR":469.95,"xT1":424.9,"yT1":0,"xT2":1058.1,"yT2":0,"toosoon":0,"cond_shown":"Incongruent","ratio_trial":100,"L_num":6,"L_den":10,"R_num":11,"R_den":22,"correct_side":1,"subjID":"luisramiez18","gender":"0","school":"6","age":"11"},{"start_time":1551899738624,"click_time":1551899740226,"finger_time":1551899740066,"fix_duration":497.20705934918476,"trial":10,"RT":1442,"MT":160,"sideResp":1,"stimulus":[],"xmouse":[771,771,771,771,771,771,771,771,771,771,771,771,771,771,771,771,771,771,771,771,771,771,771,771,771,771,771,771,771,771,771,771,771,771,771,771,771,771,771,771,771,771,771,771,771,771,771,771,771,771,771,771,771,771,771,771,771,771,771,771,771,771,771,771,771,771,771,771,771,771,771,761,698,613,586,569,560,551,536,528,522],"ymouse":[501,501,501,501,501,501,501,501,501,501,501,501,501,501,501,501,501,501,501,501,501,501,501,501,501,501,501,501,501,501,501,501,501,501,501,501,501,501,501,501,501,501,501,501,501,501,501,501,501,501,501,501,501,501,501,501,501,501,501,501,501,501,501,501,501,501,501,501,501,501,500,472,345,189,132,98,76,59,27,14,3],"timestamp_mouse":[10,21,48,62,81,101,121,141,162,181,204,221,243,263,282,302,321,341,361,381,401,421,441,461,481,501,521,541,561,581,602,621,641,661,681,702,722,741,761,782,801,821,841,861,881,901,921,941,961,981,1001,1022,1041,1061,1081,1101,1121,1141,1163,1181,1201,1221,1242,1261,1281,1301,1321,1341,1362,1381,1401,1421,1442,1461,1481,1501,1522,1541,1561,1582,1602],"xSR":741.5,"ySR":469.95,"xT1":424.9,"yT1":0,"xT2":1058.1,"yT2":0,"toosoon":0,"cond_shown":"Incongruent","ratio_trial":300,"L_num":4,"L_den":20,"R_num":2,"R_den":4,"correct_side":2,"subjID":"luisramiez18","gender":"0","school":"6","age":"11"},{"start_time":1551899744839,"click_time":1551899746606,"finger_time":1551899745987,"fix_duration":1113.706165962075,"trial":11,"RT":1148,"MT":619,"sideResp":2,"stimulus":[],"xmouse":[787,787,787,787,787,787,787,787,787,787,787,787,787,787,787,787,787,787,787,787,787,787,787,787,787,787,787,787,787,787,787,787,787,787,787,787,787,787,787,787,787,787,787,787,787,787,787,787,787,787,787,787,791,798,803,809,817,842,852,863,875,885,896,919,932,942,959,975,1007,1019,1027,1032,1035,1043,1044,1045,1046,1046,1047,1048,1048,1049,1049,1050,1052,1054,1057,1057,1068],"ymouse":[542,542,542,542,542,542,542,542,542,542,542,542,542,542,542,542,542,542,542,542,542,542,542,542,542,542,542,542,542,542,542,542,542,542,542,542,542,542,542,542,542,542,542,542,542,542,542,542,542,542,542,542,540,536,531,520,506,461,442,423,404,386,366,330,313,300,279,259,206,178,150,132,119,94,85,78,73,70,68,68,67,67,66,66,64,63,62,62,57],"timestamp_mouse":[11,32,46,66,86,106,126,146,166,186,206,226,246,266,286,307,326,347,367,387,407,426,446,467,486,506,526,546,566,586,606,626,646,666,687,707,727,746,766,786,806,826,847,867,887,906,927,947,966,987,1007,1026,1047,1067,1086,1106,1126,1148,1166,1186,1206,1226,1246,1266,1286,1307,1326,1346,1367,1386,1406,1428,1446,1466,1487,1506,1527,1546,1566,1586,1606,1627,1647,1667,1686,1706,1726,1747,1767],"xSR":741.5,"ySR":469.95,"xT1":424.9,"yT1":0,"xT2":1058.1,"yT2":0,"toosoon":0,"cond_shown":"Incongruent","ratio_trial":200,"L_num":7,"L_den":10,"R_num":8,"R_den":16,"correct_side":1,"subjID":"luisramiez18","gender":"0","school":"6","age":"11"},{"start_time":1551899751147,"click_time":1551899755246,"finger_time":1551899754886,"fix_duration":360.5841335722003,"trial":12,"RT":3739,"MT":360,"sideResp":2,"stimulus":[],"xmouse":[786,786,786,786,786,786,786,786,786,786,786,786,786,786,786,786,786,786,786,786,786,786,786,786,786,786,786,787,787,787,787,787,787,787,787,787,787,787,787,787,787,787,787,787,787,787,787,787,787,787,787,787,787,787,787,787,787,787,787,787,787,787,787,787,787,787,787,787,787,787,787,787,787,787,787,787,787,787,787,787,787,787,787,787,787,787,787,787,787,787,787,787,787,787,787,787,787,787,787,787,787,787,787,787,787,787,787,787,787,787,787,787,787,787,787,787,787,787,787,787,787,787,787,787,784,784,784,784,784,784,784,784,784,784,784,784,784,784,784,784,784,784,784,784,784,784,784,784,784,784,784,784,784,784,784,784,784,784,784,784,784,784,784,784,784,784,784,784,784,784,784,784,786,794,797,801,804,804,804,804,804,804,804,804,811,819,846,913,974,989,999,1003,1008,1012,1015,1019,1024,1027,1032,1033,1034,1036,1043,1058,1066],"ymouse":[546,546,546,546,546,546,546,546,546,546,546,546,546,546,546,546,546,546,546,546,546,546,546,546,546,546,546,546,546,546,546,546,546,546,546,546,546,546,546,546,546,546,546,546,546,546,546,546,546,546,546,546,546,546,546,546,546,546,546,546,546,546,546,546,546,546,546,546,546,546,546,546,546,546,546,546,546,546,546,546,546,546,546,546,546,546,546,546,546,546,546,546,546,546,546,546,546,546,546,546,546,546,546,546,546,546,546,546,546,546,546,546,546,546,546,546,546,546,546,546,546,546,546,546,546,546,546,546,546,546,546,546,546,546,546,546,546,546,546,546,546,546,546,546,546,546,546,546,546,546,546,546,546,546,546,546,546,546,546,546,546,546,546,546,546,546,546,546,546,546,546,546,546,542,540,537,535,535,535,535,535,535,535,535,531,525,499,410,297,250,219,201,189,174,165,155,143,131,115,112,111,107,99,83,73],"timestamp_mouse":[19,46,59,80,99,119,138,159,179,199,218,238,258,279,299,319,338,358,379,399,419,438,459,479,499,519,538,559,579,598,618,638,658,678,698,718,738,759,779,799,818,838,858,878,898,918,938,959,979,999,1018,1039,1059,1079,1099,1118,1139,1159,1179,1198,1218,1239,1259,1279,1299,1318,1338,1359,1378,1398,1419,1439,1458,1479,1499,1519,1538,1558,1579,1600,1619,1639,1658,1678,1699,1719,1739,1759,1779,1800,1818,1838,1860,1879,1898,1918,1938,1958,1978,1999,2019,2039,2059,2080,2099,2118,2139,2159,2179,2198,2218,2238,2258,2278,2299,2319,2338,2359,2378,2399,2419,2438,2458,2479,2499,2519,2539,2558,2578,2598,2619,2638,2658,2678,2698,2718,2738,2759,2779,2798,2819,2839,2858,2879,2899,2919,2938,2958,2979,2999,3019,3038,3058,3080,3099,3118,3139,3159,3178,3198,3219,3238,3258,3278,3299,3319,3339,3358,3379,3399,3418,3439,3459,3479,3499,3519,3540,3559,3580,3599,3618,3640,3659,3679,3698,3720,3739,3758,3779,3799,3818,3838,3859,3878,3898,3918,3938,3958,3979,3999,4018,4038,4059,4078,4099],"xSR":741.5,"ySR":469.95,"xT1":424.9,"yT1":0,"xT2":1058.1,"yT2":0,"toosoon":0,"cond_shown":"Incongruent","ratio_trial":200,"L_num":1,"L_den":3,"R_num":2,"R_den":15,"correct_side":1,"subjID":"luisramiez18","gender":"0","school":"6","age":"11"},{"start_time":1551899759276,"click_time":1551899761205,"finger_time":1551899760705,"fix_duration":729.8307515469861,"trial":13,"RT":1429,"MT":500,"sideResp":2,"stimulus":[],"xmouse":[808,808,808,808,808,808,808,808,808,808,808,808,808,808,808,808,808,808,808,808,808,808,808,808,808,808,808,808,808,808,808,808,808,808,808,808,808,808,808,808,808,808,808,808,808,808,808,808,808,808,808,808,808,808,808,808,808,808,808,808,808,808,808,808,808,808,808,811,820,828,841,855,896,910,922,931,938,957,966,978,990,1001,1011,1025,1031,1037,1042,1044,1048,1050,1050,1050,1050,1051,1056,1058,1062],"ymouse":[540,540,540,540,540,540,540,540,540,540,540,540,540,540,540,540,540,540,540,540,540,540,540,540,540,540,540,540,540,540,540,540,540,540,540,540,540,540,540,540,540,540,540,540,540,540,540,540,540,540,540,540,540,540,540,540,540,540,540,540,540,540,540,540,540,540,540,538,526,514,501,481,421,395,374,352,335,297,276,250,227,203,179,148,132,119,110,105,99,97,97,97,96,96,93,91,87],"timestamp_mouse":[10,29,50,71,89,109,129,149,169,189,210,230,250,269,289,309,329,349,370,390,409,429,449,470,489,509,529,549,570,590,609,630,649,669,689,709,731,749,769,789,809,830,850,870,889,909,929,949,970,990,1009,1029,1049,1069,1089,1110,1131,1150,1170,1189,1210,1229,1249,1269,1289,1309,1331,1350,1369,1389,1409,1429,1451,1470,1489,1510,1529,1551,1569,1589,1609,1629,1649,1670,1690,1709,1729,1750,1770,1789,1809,1829,1851,1869,1889,1909,1929],"xSR":741.5,"ySR":469.95,"xT1":424.9,"yT1":0,"xT2":1058.1,"yT2":0,"toosoon":0,"cond_shown":"Incongruent","ratio_trial":100,"L_num":9,"L_den":15,"R_num":13,"R_den":26,"correct_side":1,"subjID":"luisramiez18","gender":"0","school":"6","age":"11"},{"start_time":1551899767425,"click_time":1551899769747,"finger_time":1551899769505,"fix_duration":1238.3163643150936,"trial":14,"RT":2080,"MT":242,"sideResp":1,"stimulus":[],"xmouse":[795,795,795,795,795,795,795,795,795,795,795,795,795,795,795,795,795,795,795,795,795,795,795,795,795,795,795,795,795,795,795,795,795,795,795,795,795,795,795,795,795,795,795,795,795,795,795,795,795,795,795,795,795,795,795,795,795,795,795,795,795,795,795,795,795,795,795,795,795,795,795,796,810,825,835,839,839,839,839,839,838,838,833,828,822,816,812,812,812,812,812,812,812,812,812,812,812,812,812,812,812,812,809,796,766,702,567,533,533,533,533,533,533,533,533,531,515],"ymouse":[547,547,547,547,547,547,547,547,547,547,547,547,547,547,547,547,547,547,547,547,547,547,547,547,547,547,547,547,547,547,547,547,547,547,547,547,547,547,547,547,547,547,547,547,547,547,547,547,547,547,547,547,547,547,547,547,547,547,547,547,547,547,547,547,547,547,547,547,547,547,547,547,541,533,521,506,502,499,499,499,499,499,499,504,510,516,520,520,520,520,520,520,520,520,520,520,520,520,520,520,520,520,518,500,466,388,227,168,161,160,160,160,159,151,137,117,69],"timestamp_mouse":[10,20,44,61,80,100,121,141,161,181,200,220,241,260,281,301,321,342,361,381,402,420,441,461,480,500,520,541,560,580,601,620,641,660,681,701,721,740,761,780,800,820,840,861,881,900,920,941,960,980,1001,1021,1040,1061,1081,1100,1121,1141,1161,1180,1200,1221,1240,1260,1281,1301,1321,1340,1360,1381,1400,1420,1441,1460,1481,1502,1520,1540,1560,1580,1600,1621,1641,1660,1682,1701,1720,1740,1761,1781,1800,1820,1840,1860,1881,1902,1921,1940,1961,1981,2000,2021,2040,2060,2080,2101,2122,2140,2161,2182,2201,2221,2241,2260,2281,2301,2322],"xSR":741.5,"ySR":469.95,"xT1":424.9,"yT1":0,"xT2":1058.1,"yT2":0,"toosoon":0,"cond_shown":"Congruent","ratio_trial":300,"L_num":4,"L_den":5,"R_num":2,"R_den":4,"correct_side":1,"subjID":"luisramiez18","gender":"0","school":"6","age":"11"},{"start_time":1551899774058,"click_time":1551899778985,"finger_time":1551899778585,"fix_duration":991.6226335141902,"trial":15,"RT":4527,"MT":400,"sideResp":2,"stimulus":[],"xmouse":[785,785,786,786,786,786,786,786,786,786,786,786,786,786,786,786,786,786,786,786,786,786,786,786,786,786,786,786,786,786,786,786,786,786,786,786,786,786,786,786,786,786,786,786,786,786,786,786,786,786,786,786,786,786,786,786,786,786,786,786,786,786,786,786,786,786,786,786,786,786,786,786,786,786,786,786,786,786,786,786,786,786,786,786,786,786,786,786,786,786,786,786,786,786,786,786,786,786,786,786,786,786,786,786,786,786,786,786,786,786,786,786,786,786,786,786,786,786,786,786,786,786,786,786,786,786,786,786,786,786,786,786,786,786,786,786,786,786,786,786,786,786,786,786,786,786,786,786,786,786,786,786,786,786,786,786,786,786,786,786,786,786,786,786,786,786,786,786,786,786,786,786,786,786,786,786,786,786,786,786,786,786,786,786,786,786,786,786,786,786,786,786,786,786,786,786,786,786,786,786,786,786,786,786,786,786,786,786,786,786,786,786,786,786,786,786,786,786,786,786,786,786,786,786,786,812,837,869,899,921,936,972,987,1002,1017,1028,1045,1050,1054,1059,1065,1067,1069,1070,1071,1073,1075],"ymouse":[532,532,530,530,530,529,529,529,529,529,529,529,529,529,529,529,529,529,529,529,529,529,529,529,529,529,529,529,529,529,529,529,529,529,529,529,529,529,529,529,529,529,529,529,529,529,529,529,529,529,529,529,529,529,529,529,529,529,529,529,529,529,529,529,529,529,529,529,529,529,529,529,529,529,529,529,529,529,529,529,529,529,529,529,529,529,529,529,529,529,529,529,529,529,529,529,529,529,529,529,529,529,529,529,529,529,529,529,529,529,529,529,529,529,529,529,529,528,528,528,528,528,528,528,528,528,528,528,528,528,528,528,528,528,528,528,528,528,528,528,528,528,528,528,528,528,528,528,528,528,528,528,528,528,528,528,528,528,528,528,528,528,528,528,528,528,528,528,528,528,528,528,528,528,528,528,528,528,528,528,528,528,528,528,528,528,528,528,528,528,528,528,528,528,528,528,528,528,528,528,528,528,528,528,528,528,528,528,528,528,528,528,528,528,528,528,528,528,528,528,528,528,528,528,528,495,457,406,360,327,306,266,250,235,217,204,178,169,160,152,132,125,118,114,108,103,97],"timestamp_mouse":[15,33,48,67,88,108,128,148,167,188,208,227,248,268,288,307,327,347,367,387,408,427,447,467,488,508,528,548,567,587,609,627,647,667,687,707,727,747,767,787,807,828,848,868,887,907,927,947,967,988,1007,1028,1048,1068,1087,1109,1129,1147,1167,1188,1207,1227,1247,1267,1288,1307,1327,1348,1368,1388,1407,1428,1448,1467,1488,1508,1527,1547,1569,1587,1608,1627,1648,1668,1687,1708,1727,1747,1767,1787,1807,1827,1847,1867,1887,1907,1928,1947,1967,1988,2007,2028,2047,2067,2089,2108,2128,2147,2167,2188,2208,2227,2247,2267,2288,2307,2327,2347,2367,2388,2408,2428,2447,2469,2488,2508,2527,2547,2567,2588,2607,2627,2648,2667,2687,2707,2727,2747,2768,2787,2808,2828,2847,2867,2887,2908,2928,2947,2967,2987,3026,3027,3047,3068,3088,3108,3128,3147,3167,3188,3208,3228,3247,3268,3288,3307,3327,3347,3367,3387,3408,3428,3448,3467,3488,3508,3527,3548,3567,3587,3608,3627,3647,3667,3687,3709,3727,3748,3768,3787,3812,3827,3847,3868,3888,3908,3927,3947,3967,3988,4008,4027,4048,4067,4087,4107,4127,4147,4167,4187,4208,4227,4247,4267,4288,4308,4329,4347,4368,4388,4407,4427,4447,4467,4487,4508,4527,4547,4569,4588,4608,4627,4647,4668,4689,4707,4728,4747,4768,4788,4809,4827,4848,4868,4887,4907,4927],"xSR":741.5,"ySR":469.95,"xT1":424.9,"yT1":0,"xT2":1058.1,"yT2":0,"toosoon":0,"cond_shown":"Incongruent","ratio_trial":300,"L_num":13,"L_den":26,"R_num":12,"R_den":15,"correct_side":2,"subjID":"luisramiez18","gender":"0","school":"6","age":"11"},{"start_time":1551899783172,"click_time":1551899784906,"finger_time":1551899783946,"fix_duration":1484.1054096394835,"trial":16,"RT":774,"MT":960,"sideResp":1,"stimulus":[],"xmouse":[759,759,759,759,759,759,759,759,759,759,759,759,759,759,759,759,759,759,759,759,759,759,759,759,759,759,759,759,759,759,759,759,759,759,759,759,754,745,737,728,720,720,720,720,720,720,720,720,724,737,783,799,809,810,811,812,814,815,816,816,816,816,815,812,809,801,798,795,792,792,792,792,792,792,792,792,791,788,773,741,633,582,532,516,507,494,488],"ymouse":[521,521,521,521,521,521,521,521,521,521,521,521,521,521,521,521,521,521,521,521,521,521,521,521,521,521,521,521,521,521,521,521,521,521,521,521,513,486,462,440,414,413,413,413,413,413,413,418,437,464,535,555,565,566,566,566,563,561,560,558,555,553,551,548,545,535,531,529,528,528,528,528,528,528,527,527,527,522,499,455,320,256,187,158,138,107,93],"timestamp_mouse":[14,44,53,73,95,114,133,153,174,194,213,234,254,273,293,313,333,353,374,394,414,433,454,474,494,514,534,553,573,593,614,634,653,674,694,713,733,753,774,793,813,833,853,874,894,914,933,953,973,994,1015,1033,1053,1074,1094,1113,1134,1153,1174,1194,1214,1234,1255,1273,1294,1313,1333,1353,1373,1394,1414,1434,1453,1473,1493,1514,1534,1554,1573,1593,1614,1633,1653,1673,1694,1714,1733],"xSR":741.5,"ySR":469.95,"xT1":424.9,"yT1":0,"xT2":1058.1,"yT2":0,"toosoon":0,"cond_shown":"Congruent","ratio_trial":200,"L_num":21,"L_den":30,"R_num":2,"R_den":4,"correct_side":1,"subjID":"luisramiez18","gender":"0","school":"6","age":"11"},{"start_time":1551899786653,"click_time":1551899787988,"finger_time":1551899787667,"fix_duration":745.2038829382192,"trial":17,"RT":1014,"MT":321,"sideResp":2,"stimulus":[],"xmouse":[779,779,779,779,779,779,779,779,779,779,779,779,779,779,779,779,779,779,779,779,779,779,779,779,779,779,779,779,779,779,779,779,779,779,779,779,779,779,779,779,779,779,779,779,779,779,779,786,801,816,835,849,881,895,915,939,982,1007,1020,1031,1038,1044,1047,1050,1052,1058,1066],"ymouse":[496,496,496,496,496,496,496,496,496,496,496,496,496,496,496,496,496,496,496,496,496,496,496,496,496,496,496,496,496,496,496,496,496,496,496,496,496,496,496,496,496,496,496,496,496,496,496,492,484,470,449,429,380,356,320,278,204,161,142,127,117,108,103,99,97,89,79],"timestamp_mouse":[12,35,52,72,92,112,132,153,173,192,212,232,252,274,292,313,332,352,372,393,413,432,452,472,492,512,532,553,574,592,612,632,653,674,692,712,733,753,772,792,812,833,852,873,893,912,932,952,972,992,1014,1032,1053,1072,1092,1114,1134,1152,1172,1193,1212,1234,1252,1272,1292,1313,1334],"xSR":741.5,"ySR":469.95,"xT1":424.9,"yT1":0,"xT2":1058.1,"yT2":0,"toosoon":0,"cond_shown":"Incongruent","ratio_trial":200,"L_num":3,"L_den":4,"R_num":11,"R_den":20,"correct_side":1,"subjID":"luisramiez18","gender":"0","school":"6","age":"11"},{"start_time":1551899832452,"click_time":1551899836086,"finger_time":1551899833926,"fix_duration":365.8902766790746,"trial":18,"RT":1474,"MT":2160,"sideResp":2,"stimulus":[],"xmouse":[769,769,769,769,769,769,769,769,769,769,769,769,769,769,769,769,769,769,769,769,769,769,769,769,769,769,769,769,769,769,769,769,769,769,769,769,769,769,769,769,769,769,769,769,769,769,769,769,769,769,769,769,769,769,769,769,769,769,769,769,769,769,769,769,769,769,769,769,769,769,769,762,743,740,738,737,735,720,703,697,695,695,695,695,696,697,697,697,697,697,697,697,697,697,697,697,697,697,698,699,700,700,700,702,703,705,707,710,711,711,711,711,711,711,711,711,711,711,711,715,729,753,798,809,811,813,813,813,813,805,801,797,794,794,794,794,794,794,794,794,794,794,794,794,794,794,794,810,838,880,930,974,1037,1053,1053,1053,1053,1053,1053,1053,1053,1053,1053,1053,1053,1053,1053,1053,1053,1053,1053,1053,1053,1185,1184,1184,1184,1182,1178,1170,1163,1153],"ymouse":[522,522,522,522,522,522,522,522,522,522,522,522,522,522,522,522,522,522,522,522,522,522,522,522,522,522,522,522,522,522,522,522,522,522,522,522,522,522,522,522,522,522,522,522,522,522,522,522,522,522,522,522,522,522,522,522,522,522,522,522,522,522,522,522,522,522,522,522,522,522,523,523,529,528,526,526,526,526,524,521,521,521,520,518,518,517,517,517,517,517,517,517,517,517,517,517,516,516,516,516,515,515,515,514,513,512,511,509,509,509,509,509,509,509,509,509,509,509,509,506,499,494,490,490,490,489,489,489,492,500,503,507,511,511,511,511,511,511,511,511,511,511,511,511,511,511,511,497,462,395,302,195,42,6,6,6,6,6,6,6,6,6,6,6,6,6,6,6,6,6,6,6,6,1,2,2,2,5,9,18,24,29],"timestamp_mouse":[13,43,53,74,94,114,133,153,173,193,214,234,253,273,293,313,333,354,373,393,413,434,454,474,493,513,534,554,574,595,613,633,653,673,694,714,734,753,773,793,814,834,854,873,894,914,934,953,973,993,1014,1035,1053,1073,1093,1113,1133,1153,1173,1193,1213,1233,1253,1273,1293,1313,1333,1354,1374,1394,1413,1433,1453,1474,1493,1514,1535,1554,1574,1593,1613,1635,1654,1673,1693,1713,1733,1753,1774,1794,1814,1834,1854,1875,1893,1915,1933,1954,1973,1993,2013,2034,2054,2073,2093,2113,2134,2153,2173,2193,2213,2233,2254,2273,2293,2313,2333,2353,2374,2394,2414,2433,2454,2473,2493,2513,2533,2553,2574,2593,2613,2634,2653,2673,2693,2713,2734,2754,2773,2793,2814,2835,2853,2873,2893,2913,2933,2954,2973,2993,3013,3033,3054,3073,3093,3113,3133,3154,3173,3193,3213,3233,3253,3273,3293,3313,3334,3354,3373,3393,3414,3434,3453,3473,3494,3514,3534,3554,3573,3593,3614,3634],"xSR":741.5,"ySR":469.95,"xT1":424.9,"yT1":0,"xT2":1058.1,"yT2":0,"toosoon":0,"cond_shown":"Congruent","ratio_trial":300,"L_num":1,"L_den":5,"R_num":6,"R_den":12,"correct_side":2,"subjID":"luisramiez18","gender":"0","school":"6","age":"11"},{"start_time":1551899852363,"click_time":1551899854846,"finger_time":1551899853225,"fix_duration":277.5862858282275,"trial":19,"RT":862,"MT":1621,"sideResp":2,"stimulus":[],"xmouse":[775,775,775,775,775,775,775,775,775,775,775,775,775,775,775,775,775,775,775,775,775,775,775,775,775,775,775,775,775,775,775,775,775,775,775,775,775,775,775,775,775,775,766,740,698,698,698,698,698,698,698,698,698,698,698,698,698,698,698,698,698,698,698,698,698,698,698,698,698,698,698,698,698,698,698,698,698,698,698,698,698,698,698,698,698,668,707,745,773,790,791,791,791,791,791,791,791,791,791,791,791,791,791,791,791,791,791,791,792,833,890,921,947,962,980,987,991,995,998,1013,1022,1032,1045,1058,1088],"ymouse":[551,551,551,551,551,551,551,551,551,551,551,551,551,551,551,551,551,551,551,551,551,551,551,551,551,551,551,551,551,551,551,551,551,551,551,551,551,551,551,551,551,551,555,602,701,701,701,701,701,701,701,701,701,701,701,701,701,701,701,701,701,701,701,701,701,701,701,701,701,701,701,701,701,701,701,701,701,701,701,701,701,701,701,701,701,707,655,607,557,511,507,506,506,506,506,506,506,506,506,506,506,506,506,506,506,506,506,506,500,452,384,340,306,283,251,238,227,216,206,174,160,143,126,113,88],"timestamp_mouse":[11,39,42,62,83,103,122,142,162,182,202,223,243,263,282,302,322,342,363,384,403,422,442,462,482,503,523,543,562,582,602,622,642,662,683,702,723,742,763,783,803,823,842,862,882,902,922,942,962,982,1003,1022,1043,1063,1083,1103,1123,1143,1163,1183,1203,1223,1243,1263,1283,1303,1322,1342,1362,1382,1402,1422,1442,1462,1483,1502,1522,1542,1562,1582,1602,1622,1643,1663,1684,1702,1723,1743,1763,1782,1803,1823,1842,1862,1882,1903,1922,1942,1963,1982,2003,2023,2043,2062,2082,2102,2123,2142,2162,2182,2202,2222,2242,2262,2283,2302,2322,2342,2364,2384,2404,2423,2443,2462,2482],"xSR":741.5,"ySR":469.95,"xT1":424.9,"yT1":0,"xT2":1058.1,"yT2":0,"toosoon":0,"cond_shown":"Congruent","ratio_trial":100,"L_num":1,"L_den":2,"R_num":3,"R_den":5,"correct_side":2,"subjID":"luisramiez18","gender":"0","school":"6","age":"11"},{"start_time":1551899858417,"click_time":1551899860886,"finger_time":1551899860346,"fix_duration":731.1757687231491,"trial":20,"RT":1929,"MT":540,"sideResp":1,"stimulus":[],"xmouse":[782,782,782,782,782,782,782,782,782,782,782,782,782,782,782,782,782,782,782,782,782,782,782,782,782,782,782,782,782,782,782,782,782,782,782,782,782,782,782,782,782,782,782,782,782,782,782,782,782,782,782,782,782,782,782,782,782,782,782,782,782,782,782,782,782,782,782,782,782,782,782,782,782,782,782,782,782,782,782,782,782,782,782,782,782,782,782,782,782,782,782,782,782,782,778,760,733,671,662,656,654,654,648,641,631,611,596,572,563,555,550,545,538,535,530,527,524,515,508,503,496,491,481,477],"ymouse":[531,531,531,531,531,531,531,531,531,531,531,531,531,531,531,531,531,531,531,531,531,531,531,531,531,531,531,531,531,531,531,531,531,531,531,531,531,531,531,531,531,531,531,531,531,531,531,531,531,531,531,531,531,531,531,531,531,531,531,531,531,531,531,531,531,531,531,531,531,531,531,531,531,531,531,531,531,531,531,531,531,531,531,531,531,531,531,531,531,531,531,531,528,516,502,470,433,365,349,337,334,332,323,314,304,287,275,254,243,234,226,218,202,195,184,178,170,153,144,135,126,119,102,95],"timestamp_mouse":[10,37,48,68,89,109,129,148,168,188,208,229,249,269,288,308,328,348,369,389,409,428,448,468,488,509,529,549,568,588,608,628,648,669,689,709,728,748,768,789,809,829,848,868,888,908,929,949,968,988,1008,1030,1049,1069,1088,1108,1128,1149,1169,1188,1209,1229,1249,1268,1288,1309,1329,1348,1369,1389,1409,1428,1449,1468,1489,1509,1529,1549,1568,1588,1608,1628,1648,1668,1689,1709,1729,1749,1768,1788,1808,1828,1848,1868,1888,1908,1929,1948,1969,1988,2008,2028,2048,2070,2088,2108,2129,2149,2169,2188,2209,2229,2249,2269,2288,2309,2328,2348,2369,2389,2409,2428,2448,2469],"xSR":741.5,"ySR":469.95,"xT1":424.9,"yT1":0,"xT2":1058.1,"yT2":0,"toosoon":0,"cond_shown":"Incongruent","ratio_trial":200,"L_num":4,"L_den":6,"R_num":14,"R_den":30,"correct_side":1,"subjID":"luisramiez18","gender":"0","school":"6","age":"11"},{"start_time":1551899867241,"click_time":1551899869165,"finger_time":1551899868966,"fix_duration":815.3879368290853,"trial":21,"RT":1725,"MT":199,"sideResp":1,"stimulus":[],"xmouse":[764,764,764,764,764,764,764,764,764,764,764,764,764,764,764,764,764,764,764,764,764,764,764,764,764,764,764,764,764,764,764,764,764,764,764,764,764,764,764,764,764,764,764,764,764,764,764,764,764,764,764,764,764,764,764,764,764,764,764,764,764,764,764,764,764,764,764,764,764,764,764,764,764,764,764,764,764,764,764,764,764,764,764,764,764,746,723,620,573,535,505,480,469,467,466,466,466],"ymouse":[508,508,508,508,508,508,508,508,508,508,508,508,508,508,508,508,508,508,508,508,508,508,508,508,508,508,508,508,508,508,508,508,508,508,508,508,508,508,508,508,508,508,508,508,508,508,508,508,508,508,508,508,508,508,508,508,508,508,508,508,508,508,508,508,508,508,508,508,508,508,508,508,508,508,508,508,508,508,508,508,508,508,508,508,508,486,464,372,327,286,250,209,170,151,131,111,92],"timestamp_mouse":[11,25,44,65,85,105,124,144,165,184,204,224,245,264,284,304,324,344,366,385,405,426,445,464,485,505,525,545,564,584,604,626,644,664,684,705,725,745,764,784,804,824,844,866,885,904,925,945,964,985,1005,1024,1045,1064,1084,1104,1124,1145,1165,1186,1204,1224,1245,1265,1284,1304,1324,1346,1365,1385,1405,1426,1444,1466,1485,1506,1524,1544,1564,1585,1605,1624,1645,1664,1684,1704,1725,1745,1764,1784,1804,1825,1844,1864,1885,1904,1924],"xSR":741.5,"ySR":469.95,"xT1":424.9,"yT1":0,"xT2":1058.1,"yT2":0,"toosoon":0,"cond_shown":"Incongruent","ratio_trial":100,"L_num":4,"L_den":8,"R_num":8,"R_den":20,"correct_side":1,"subjID":"luisramiez18","gender":"0","school":"6","age":"11"},{"start_time":1551899897356,"click_time":1551899900126,"finger_time":1551899899046,"fix_duration":1209.1859982438812,"trial":22,"RT":1690,"MT":1080,"sideResp":2,"stimulus":[],"xmouse":[808,808,808,808,808,808,808,808,808,808,808,808,808,808,808,808,808,808,808,808,808,808,808,808,808,808,808,808,808,808,808,808,808,808,808,808,808,808,808,808,808,808,808,808,808,808,808,808,808,808,808,808,808,808,808,808,808,808,808,808,808,808,808,808,808,808,808,808,808,808,808,808,808,808,808,808,808,808,808,808,810,810,807,793,765,762,762,762,762,764,773,776,781,785,796,805,813,822,831,851,859,868,876,884,901,912,921,927,932,932,932,932,932,932,934,940,945,948,952,966,987,1011,1033,1043,1045,1048,1051,1057,1067,1089,1097,1100,1102,1102,1102,1103,1104,1106,1109],"ymouse":[545,545,545,545,545,545,545,545,545,545,545,545,545,545,545,545,545,545,545,545,545,545,545,545,545,545,545,545,545,545,545,545,545,545,545,545,545,545,545,545,545,545,545,545,545,545,545,545,545,545,545,545,545,545,545,545,545,545,545,545,545,545,545,545,545,545,545,545,545,545,545,545,545,545,545,545,545,545,545,542,534,533,533,557,644,648,648,648,648,622,600,586,571,558,536,523,513,502,490,453,438,426,415,406,381,365,350,337,325,322,322,322,322,322,320,312,306,300,296,283,261,232,203,190,187,185,184,180,171,146,129,122,117,115,114,113,110,106,99],"timestamp_mouse":[14,44,50,70,90,109,129,149,170,190,210,229,249,270,290,309,329,349,370,389,409,430,450,469,489,510,530,549,569,589,610,630,649,670,690,710,729,749,769,789,809,831,850,869,890,909,929,949,969,990,1009,1029,1049,1071,1090,1110,1130,1150,1169,1190,1210,1230,1251,1269,1290,1309,1329,1350,1370,1390,1409,1430,1449,1469,1489,1510,1530,1549,1570,1589,1609,1629,1650,1670,1690,1709,1729,1750,1770,1791,1810,1830,1849,1869,1890,1909,1930,1950,1970,1990,2011,2030,2051,2070,2091,2110,2130,2150,2169,2190,2209,2229,2250,2269,2290,2309,2330,2350,2370,2391,2411,2430,2450,2470,2490,2509,2529,2550,2570,2591,2609,2629,2649,2669,2690,2709,2730,2750,2770],"xSR":741.5,"ySR":469.95,"xT1":424.9,"yT1":0,"xT2":1058.1,"yT2":0,"toosoon":0,"cond_shown":"Incongruent","ratio_trial":300,"L_num":13,"L_den":26,"R_num":12,"R_den":15,"correct_side":2,"subjID":"luisramiez18","gender":"0","school":"6","age":"11"},{"start_time":1551899905478,"click_time":1551899910168,"finger_time":1551899907385,"fix_duration":1150.603205774057,"trial":23,"RT":1907,"MT":2783,"sideResp":2,"stimulus":[],"xmouse":[818,818,818,818,818,818,818,818,818,818,818,818,818,818,818,818,818,818,818,818,818,818,818,818,818,818,818,818,818,818,818,818,818,818,818,818,818,818,818,818,818,818,818,818,818,818,818,818,818,818,818,818,818,818,818,818,818,818,818,818,818,818,818,818,818,818,818,818,818,818,818,818,818,818,818,818,818,818,818,818,818,818,818,818,818,818,818,818,818,818,818,818,815,811,781,750,723,703,688,670,668,663,662,659,656,654,651,650,647,644,643,643,643,643,643,643,643,643,643,643,643,643,643,643,643,643,643,643,643,643,643,643,643,643,643,643,643,643,643,643,643,643,643,643,643,643,643,643,643,643,643,643,643,643,643,644,647,651,654,670,680,694,706,717,727,728,732,735,741,747,771,788,801,801,801,801,801,801,801,801,798,796,793,788,785,781,781,781,781,781,781,781,781,781,781,781,781,781,796,811,811,811,812,812,812,812,812,812,812,812,825,836,854,868,894,905,916,920,924,931,943,951,960,968,987,1002,1019,1035,1043,1045,1057,1066,1076,1090,1110],"ymouse":[518,518,518,518,518,518,518,518,518,518,518,518,518,518,518,518,518,518,518,518,518,518,518,518,518,518,518,518,518,518,518,518,518,518,518,518,518,518,518,518,518,518,518,518,518,518,518,518,518,518,518,518,518,518,518,518,518,518,518,518,518,518,518,518,518,518,518,518,518,518,518,518,518,518,518,518,518,518,518,518,518,518,518,518,518,518,518,518,518,518,518,518,518,513,481,449,421,399,382,356,354,346,344,341,336,333,330,327,324,320,319,319,319,319,319,319,319,319,319,319,319,319,319,319,319,319,319,319,319,319,319,319,319,319,319,319,319,319,319,319,319,319,319,319,319,319,319,319,319,319,319,319,319,319,319,320,324,331,335,362,380,401,418,435,452,458,464,472,486,503,553,575,583,583,583,583,583,583,583,583,577,562,543,527,515,501,501,501,501,501,501,501,501,501,501,501,501,501,505,514,514,514,514,514,514,514,514,514,514,496,457,423,380,341,272,252,238,231,224,212,189,177,167,161,153,147,140,135,131,129,124,118,111,101,83],"timestamp_mouse":[8,29,47,68,87,108,128,148,167,188,208,228,248,267,288,307,327,348,368,387,408,428,448,467,487,507,527,547,567,588,610,629,647,667,687,707,728,749,767,788,808,827,848,867,889,907,927,948,968,988,1007,1027,1049,1068,1087,1107,1127,1148,1168,1188,1208,1227,1247,1267,1287,1307,1327,1347,1368,1388,1408,1427,1447,1467,1487,1508,1528,1548,1567,1588,1608,1629,1647,1667,1687,1707,1727,1748,1768,1788,1807,1827,1848,1867,1888,1907,1928,1948,1969,1989,2008,2028,2047,2067,2089,2107,2128,2147,2168,2188,2207,2227,2248,2269,2287,2309,2328,2348,2368,2388,2408,2427,2447,2467,2488,2509,2527,2547,2567,2587,2607,2628,2647,2667,2688,2709,2728,2748,2769,2788,2807,2828,2848,2868,2888,2908,2928,2948,2968,2987,3007,3027,3047,3067,3088,3107,3128,3147,3168,3189,3207,3228,3248,3268,3289,3307,3328,3348,3369,3388,3408,3427,3448,3468,3489,3508,3528,3547,3567,3588,3607,3627,3647,3667,3687,3707,3727,3748,3768,3788,3807,3827,3847,3867,3889,3908,3927,3947,3967,3988,4008,4027,4047,4068,4087,4107,4127,4148,4168,4188,4208,4228,4248,4268,4289,4307,4329,4348,4367,4387,4407,4427,4447,4468,4488,4508,4528,4548,4567,4588,4608,4627,4648,4668,4690],"xSR":741.5,"ySR":469.95,"xT1":424.9,"yT1":0,"xT2":1058.1,"yT2":0,"toosoon":0,"cond_shown":"Congruent","ratio_trial":100,"L_num":3,"L_den":20,"R_num":4,"R_den":16,"correct_side":2,"subjID":"luisramiez18","gender":"0","school":"6","age":"11"},{"start_time":1551899920654,"click_time":1551899924025,"finger_time":1551899923545,"fix_duration":947.455261489888,"trial":24,"RT":2891,"MT":480,"sideResp":2,"stimulus":[],"xmouse":[773,775,778,779,780,780,780,781,782,783,784,785,785,785,785,785,785,785,785,785,785,785,785,785,785,785,785,785,785,785,785,785,785,785,785,785,785,785,785,785,785,785,785,785,785,785,785,785,785,785,785,785,785,785,785,785,785,785,785,785,785,785,785,785,785,785,785,786,786,786,786,786,786,786,786,787,787,788,788,788,788,788,788,788,788,788,788,788,788,788,788,788,788,788,788,788,788,788,788,788,788,788,788,788,788,788,788,788,788,788,788,788,788,788,788,788,788,788,788,788,788,788,788,788,788,788,788,788,788,788,788,788,788,788,788,788,788,788,788,788,788,788,789,814,837,868,893,930,943,954,963,970,987,1000,1007,1015,1024,1041,1050,1057,1065,1074,1092,1102,1108,1111,1113,1113,1114],"ymouse":[497,498,499,500,502,502,502,503,503,504,504,504,504,504,504,504,504,504,504,504,504,504,504,504,504,504,504,504,504,504,504,504,504,504,504,504,504,504,504,504,504,504,504,504,504,504,504,504,504,504,504,504,504,504,504,504,504,504,504,504,504,504,504,504,504,504,504,504,504,505,506,506,507,508,508,510,511,512,512,512,512,513,516,518,521,523,524,525,525,525,525,525,525,525,525,525,525,525,525,525,525,525,525,525,525,525,525,525,525,525,525,525,525,525,525,525,525,525,525,525,525,525,525,525,525,525,525,525,525,525,525,525,525,525,525,526,526,526,526,526,526,526,526,488,450,406,371,307,281,260,243,230,205,188,180,172,165,151,144,139,133,128,116,109,106,104,102,100,99],"timestamp_mouse":[14,41,51,72,91,112,132,152,172,192,212,231,251,271,291,312,331,352,371,391,411,432,451,471,491,511,532,551,571,591,611,631,651,672,692,711,731,753,772,792,811,833,852,871,891,911,931,952,972,992,1012,1031,1052,1072,1092,1111,1132,1151,1171,1191,1212,1231,1251,1271,1292,1312,1331,1353,1372,1392,1412,1431,1452,1471,1491,1511,1532,1552,1572,1591,1611,1632,1652,1672,1692,1711,1732,1753,1771,1792,1812,1832,1852,1871,1892,1913,1932,1951,1973,1991,2011,2031,2051,2072,2091,2112,2131,2151,2171,2191,2212,2232,2251,2272,2292,2312,2332,2351,2371,2392,2411,2431,2451,2471,2491,2511,2532,2552,2571,2592,2612,2632,2651,2671,2692,2711,2732,2752,2772,2792,2812,2832,2851,2872,2891,2912,2931,2952,2971,2991,3011,3032,3052,3072,3092,3112,3132,3151,3171,3192,3211,3233,3252,3273,3291,3311,3331,3351,3371],"xSR":741.5,"ySR":469.95,"xT1":424.9,"yT1":0,"xT2":1058.1,"yT2":0,"toosoon":0,"cond_shown":"Incongruent","ratio_trial":300,"L_num":4,"L_den":20,"R_num":2,"R_den":4,"correct_side":2,"subjID":"luisramiez18","gender":"0","school":"6","age":"11"},{"start_time":1551899930815,"click_time":1551899936367,"finger_time":1551899932726,"fix_duration":1006.6717128176579,"trial":25,"RT":1911,"MT":3641,"sideResp":2,"stimulus":[],"xmouse":[777,777,777,777,777,777,777,777,777,777,777,777,777,777,777,777,777,777,777,777,777,777,777,777,777,777,777,777,777,777,777,777,777,777,777,777,777,777,777,777,777,777,777,777,777,777,777,777,777,777,774,774,774,774,774,782,794,800,805,807,807,807,808,810,814,815,815,812,808,794,793,793,793,793,793,793,793,793,793,793,793,793,793,793,793,793,793,795,795,795,795,795,795,799,808,897,958,1008,1068,1068,1100,1119,1130,1140,1145,1153,1153,1153,1152,1148,1139,1132,1128,1123,1120,1117,1116,1115,1115,1115,1115,1115,1115,1115,1115,1115,1115,1115,1115,1115,1115,1115,1115,1115,1113,1113,1112,1112,1112,1111,1111,1110,1110,1110,1110,1110,1110,1110,1111,1112,1112,1112,1112,1112,1108,1086,1072,1049,1006,934,847,847,847,847,847,847,847,847,470,453,521,633,685,696,693,686,686,686,686,686,686,686,686,686,686,687,698,698,698,698,698,698,698,698,698,698,698,698,698,698,698,698,698,698,698,698,698,698,698,698,698,698,698,698,698,698,698,698,698,698,698,698,698,698,698,469,472,475,475,475,475,475,475,477,495,568,623,669,697,710,713,713,713,713,713,713,713,713,716,726,751,787,797,800,801,802,802,802,802,802,802,802,802,802,802,804,812,823,835,846,866,904,929,952,985,1051,1080,1109],"ymouse":[520,520,520,520,520,520,520,520,520,520,520,520,520,520,520,520,520,520,520,520,520,520,520,520,520,520,520,520,520,520,520,520,520,520,520,520,520,520,520,520,520,520,520,520,520,520,520,520,520,518,518,518,518,518,518,519,524,525,526,526,526,526,526,526,526,526,525,514,504,500,500,500,500,500,500,500,500,500,500,500,500,500,500,500,500,500,500,499,499,499,499,499,499,497,492,421,369,321,265,265,233,214,203,193,185,171,171,171,171,171,171,171,171,171,171,171,171,171,171,171,171,171,171,171,171,171,171,171,171,171,171,171,171,172,176,179,186,192,201,209,215,222,223,223,223,223,223,222,213,206,203,203,203,203,208,238,259,292,352,455,592,592,592,592,592,592,592,592,719,669,620,597,595,595,597,601,601,601,601,601,601,601,601,601,601,602,626,719,719,719,719,719,719,719,719,719,719,719,719,719,719,719,719,719,719,719,719,719,719,719,719,719,719,719,719,719,719,719,719,719,719,719,719,719,719,720,717,715,715,715,715,715,715,713,693,632,592,560,541,534,532,532,532,532,532,532,532,532,532,532,532,532,530,528,528,527,527,527,527,527,527,527,527,527,527,522,504,479,447,418,380,327,299,272,237,161,120,78],"timestamp_mouse":[10,42,51,70,91,112,131,150,170,190,211,230,250,270,290,310,330,351,371,391,410,430,450,470,490,510,530,551,571,591,610,630,650,671,691,710,730,751,771,791,811,831,851,870,891,911,931,951,970,991,1012,1030,1050,1070,1090,1111,1131,1151,1171,1191,1210,1230,1250,1271,1291,1311,1331,1352,1371,1390,1410,1430,1450,1471,1491,1511,1530,1551,1571,1590,1611,1631,1650,1670,1691,1711,1730,1750,1771,1791,1811,1830,1850,1871,1891,1911,1930,1952,1980,1990,2011,2030,2051,2072,2091,2111,2131,2152,2171,2190,2211,2230,2251,2271,2291,2310,2332,2351,2370,2390,2410,2430,2450,2470,2491,2511,2531,2551,2571,2591,2611,2631,2651,2670,2690,2710,2731,2750,2770,2790,2811,2831,2851,2871,2891,2911,2931,2950,2970,2990,3011,3030,3050,3071,3090,3111,3130,3151,3170,3190,3211,3230,3251,3271,3291,3312,3330,3351,3370,3390,3411,3430,3450,3470,3490,3511,3531,3551,3570,3590,3611,3631,3651,3670,3690,3711,3730,3751,3771,3791,3811,3830,3850,3870,3890,3910,3930,3950,3970,3991,4012,4031,4051,4071,4091,4111,4130,4150,4170,4190,4212,4231,4251,4270,4291,4310,4331,4350,4370,4390,4411,4430,4452,4470,4490,4513,4531,4551,4572,4591,4612,4631,4650,4670,4690,4712,4731,4751,4770,4790,4812,4830,4850,4870,4891,4911,4931,4951,4970,4990,5010,5030,5050,5070,5090,5110,5131,5151,5171,5191,5211,5230,5250,5270,5290,5312,5330,5352,5371,5391,5410,5430,5450,5471,5491,5512,5531,5552],"xSR":741.5,"ySR":469.95,"xT1":424.9,"yT1":0,"xT2":1058.1,"yT2":0,"toosoon":0,"cond_shown":"Congruent","ratio_trial":300,"L_num":1,"L_den":3,"R_num":19,"R_den":30,"correct_side":2,"subjID":"luisramiez18","gender":"0","school":"6","age":"11"},{"start_time":1551899940048,"click_time":1551899942745,"finger_time":1551899942745,"fix_duration":500.42837403122974,"trial":26,"RT":2697,"MT":0,"sideResp":1,"stimulus":[],"xmouse":[767,767,767,767,767,767,767,767,767,767,767,767,767,767,767,767,767,767,767,767,767,767,767,767,767,767,767,767,767,767,767,767,767,767,767,767,767,767,767,767,767,767,767,767,767,767,767,767,767,767,767,767,767,767,767,767,767,767,767,767,767,767,767,767,767,767,767,767,767,767,767,767,767,767,767,767,767,767,767,767,767,767,767,767,767,767,767,767,767,767,767,767,763,763,763,763,763,763,763,763,763,763,763,763,763,763,763,763,763,763,763,763,763,763,763,763,763,763,763,763,763,763,763,763,763,763,763,763,763,763,763,763,763,763,469],"ymouse":[541,541,541,541,541,541,541,541,541,541,541,541,541,541,541,541,541,541,541,541,541,541,541,541,541,541,541,541,541,541,541,541,541,541,541,541,541,541,541,541,541,541,541,541,541,541,541,541,541,541,541,541,541,541,541,541,541,541,541,541,541,541,541,541,541,541,541,541,541,541,541,541,541,541,541,541,541,541,541,541,541,541,541,541,541,541,541,541,541,541,541,541,534,534,534,534,534,534,534,534,534,534,534,534,534,534,534,534,534,534,534,534,534,534,534,534,534,534,534,534,534,534,534,534,534,534,534,534,534,534,534,534,534,534,61],"timestamp_mouse":[18,50,57,77,98,118,138,158,177,197,217,238,257,277,297,319,338,358,377,397,417,438,458,477,497,517,537,557,577,597,618,637,658,678,698,717,737,757,777,797,818,837,857,877,897,918,937,957,977,998,1018,1037,1057,1078,1097,1117,1137,1158,1177,1198,1218,1238,1257,1277,1298,1318,1338,1358,1377,1398,1417,1437,1457,1477,1498,1518,1537,1557,1577,1597,1617,1638,1658,1678,1698,1717,1737,1757,1777,1797,1818,1838,1859,1878,1897,1918,1937,1959,1978,1998,2019,2038,2058,2078,2097,2117,2139,2158,2178,2197,2218,2237,2257,2277,2297,2318,2337,2357,2377,2397,2417,2437,2457,2477,2497,2517,2537,2557,2577,2597,2617,2637,2657,2677,2697],"xSR":741.5,"ySR":469.95,"xT1":424.9,"yT1":0,"xT2":1058.1,"yT2":0,"toosoon":0,"cond_shown":"Incongruent","ratio_trial":100,"L_num":6,"L_den":10,"R_num":13,"R_den":26,"correct_side":1,"subjID":"luisramiez18","gender":"0","school":"6","age":"11"},{"start_time":1551899947095,"click_time":1551899949645,"finger_time":1551899949645,"fix_duration":1308.327903632043,"trial":27,"RT":2550,"MT":0,"sideResp":2,"stimulus":[],"xmouse":[772,772,772,772,772,772,772,772,772,772,772,772,772,772,772,772,772,772,772,772,772,772,772,772,772,772,772,772,772,772,772,772,772,772,772,772,772,772,772,772,772,772,772,772,772,772,772,772,772,772,772,772,772,772,772,772,772,772,772,772,772,772,772,772,772,772,772,772,772,772,772,772,773,773,773,773,773,773,773,774,774,780,780,780,780,780,780,780,780,780,780,780,780,780,780,780,780,780,780,780,780,780,780,780,780,780,780,780,780,780,780,780,780,780,780,780,780,780,780,780,780,780,780,780,780,780,780,1091],"ymouse":[515,515,515,515,515,515,515,515,515,515,515,515,515,515,515,515,515,515,515,515,515,515,515,515,515,515,515,515,515,515,515,515,515,515,515,515,515,515,515,515,515,515,515,515,515,515,515,515,515,515,515,515,515,515,515,515,515,515,515,515,515,515,515,515,515,515,515,515,515,515,515,515,515,515,515,515,515,515,515,515,515,512,512,512,512,512,512,512,512,512,512,512,512,512,512,512,512,512,512,512,512,512,512,512,512,512,512,512,512,512,512,512,512,512,512,512,512,512,512,512,512,512,512,512,512,512,512,44],"timestamp_mouse":[14,33,52,70,90,110,131,150,170,190,210,230,251,271,291,310,330,350,370,391,411,431,450,470,490,510,531,551,571,590,611,630,650,670,690,711,731,751,770,790,810,830,850,870,890,910,931,951,971,990,1011,1031,1050,1071,1090,1110,1130,1150,1170,1191,1212,1231,1251,1270,1290,1310,1330,1350,1370,1390,1411,1430,1450,1470,1491,1511,1530,1550,1570,1591,1611,1631,1650,1672,1690,1711,1730,1751,1770,1791,1810,1831,1850,1872,1890,1911,1930,1950,1970,1990,2011,2030,2050,2071,2090,2111,2130,2151,2170,2190,2210,2231,2250,2272,2290,2312,2330,2351,2370,2392,2410,2431,2451,2471,2490,2510,2530,2550],"xSR":741.5,"ySR":469.95,"xT1":424.9,"yT1":0,"xT2":1058.1,"yT2":0,"toosoon":0,"cond_shown":"Incongruent","ratio_trial":300,"L_num":13,"L_den":26,"R_num":12,"R_den":15,"correct_side":2,"subjID":"luisramiez18","gender":"0","school":"6","age":"11"},{"start_time":1551899957886,"click_time":1551899960005,"finger_time":1551899960005,"fix_duration":859.3721170382245,"trial":28,"RT":2119,"MT":0,"sideResp":1,"stimulus":[],"xmouse":[763,765,766,768,768,769,769,769,769,770,770,770,770,770,770,770,770,770,770,770,770,770,770,770,770,770,770,770,770,770,770,770,770,770,770,770,770,770,770,770,770,770,770,770,770,770,770,770,770,770,770,770,770,770,770,770,770,770,770,770,770,770,770,770,770,770,770,770,770,770,770,770,770,770,770,770,770,770,770,770,770,771,764,764,764,764,764,764,764,764,764,764,764,764,764,764,764,764,764,764,764,764,764,764,764,452],"ymouse":[512,512,512,512,512,512,512,512,512,512,512,512,512,512,512,512,512,512,512,512,512,512,512,512,512,512,512,512,512,512,512,512,512,512,512,512,512,512,512,512,512,512,512,512,512,512,512,512,512,512,512,512,512,512,512,512,512,512,512,512,512,512,512,512,512,512,512,512,512,512,512,512,512,512,512,512,512,512,512,512,512,510,501,501,501,501,501,501,501,501,501,501,501,501,501,501,501,501,501,501,501,501,501,501,501,39],"timestamp_mouse":[1,41,60,80,100,119,139,160,180,200,220,239,259,279,299,320,339,359,379,399,419,440,460,480,501,520,539,559,579,600,619,641,659,679,700,719,739,760,779,799,820,839,859,879,899,919,939,960,979,1000,1019,1040,1060,1079,1099,1119,1140,1160,1180,1199,1219,1239,1259,1280,1300,1319,1339,1359,1379,1399,1419,1439,1459,1480,1500,1520,1540,1559,1579,1599,1619,1640,1659,1680,1699,1720,1739,1760,1779,1800,1819,1840,1859,1881,1900,1920,1940,1959,1980,2001,2020,2039,2060,2080,2099,2119],"xSR":741.5,"ySR":469.95,"xT1":424.9,"yT1":0,"xT2":1058.1,"yT2":0,"toosoon":0,"cond_shown":"Incongruent","ratio_trial":300,"L_num":7,"L_den":10,"R_num":8,"R_den":20,"correct_side":1,"subjID":"luisramiez18","gender":"0","school":"6","age":"11"},{"start_time":1551899962833,"click_time":1551899966065,"finger_time":1551899966065,"fix_duration":646.8229358291203,"trial":29,"RT":3232,"MT":0,"sideResp":2,"stimulus":[],"xmouse":[798,791,785,776,774,774,774,774,774,774,774,774,774,774,773,773,773,773,773,773,773,773,773,773,773,773,773,773,773,773,773,773,773,773,773,773,773,773,773,773,773,773,773,773,773,773,773,773,773,773,773,773,773,773,773,773,773,773,773,773,773,773,773,773,773,773,773,773,773,773,773,773,773,773,773,773,773,773,773,773,773,773,773,773,773,773,773,773,773,773,773,773,773,773,773,773,773,773,773,773,773,773,773,773,773,773,773,773,773,773,773,773,773,773,773,773,773,773,773,773,773,773,773,773,773,773,773,773,773,773,773,773,779,779,779,779,779,779,779,779,779,779,779,779,779,779,779,779,779,779,779,779,779,779,779,779,779,779,779,779,779,1095],"ymouse":[554,542,535,530,530,530,530,530,530,530,530,530,530,530,530,530,530,530,530,530,530,530,530,530,530,530,530,530,530,530,530,530,530,530,530,530,530,530,530,530,530,530,530,530,530,530,530,530,530,530,530,530,530,530,530,530,530,530,530,530,530,530,530,530,530,530,530,530,530,530,530,530,530,530,530,530,530,530,530,530,530,530,530,530,530,530,530,530,530,530,530,530,530,530,530,530,530,530,530,530,530,530,530,530,530,530,530,530,530,530,530,530,530,530,530,530,530,530,530,530,530,530,530,530,530,530,530,530,530,530,530,530,520,520,520,520,520,520,520,520,520,520,520,520,520,520,520,520,520,520,520,520,520,520,520,520,520,520,520,520,520,79],"timestamp_mouse":[12,33,54,73,93,113,132,152,172,192,213,232,253,273,292,312,332,352,372,392,412,432,453,473,493,513,533,553,573,593,613,633,653,673,693,713,733,754,780,796,813,833,853,873,893,913,933,952,972,992,1012,1032,1052,1072,1092,1112,1132,1152,1172,1192,1212,1232,1252,1272,1292,1312,1332,1353,1373,1392,1412,1432,1452,1472,1493,1512,1532,1552,1572,1592,1612,1633,1653,1672,1692,1712,1732,1753,1773,1792,1812,1832,1853,1873,1892,1912,1932,1953,1973,1993,2012,2032,2052,2072,2092,2113,2133,2153,2173,2193,2212,2233,2252,2272,2292,2312,2333,2353,2372,2392,2412,2433,2453,2473,2493,2513,2533,2552,2572,2592,2613,2632,2652,2672,2693,2712,2733,2752,2773,2792,2813,2832,2854,2872,2893,2912,2933,2952,2973,2992,3013,3032,3054,3073,3092,3113,3132,3152,3172,3192,3213,3232],"xSR":741.5,"ySR":469.95,"xT1":424.9,"yT1":0,"xT2":1058.1,"yT2":0,"toosoon":0,"cond_shown":"Incongruent","ratio_trial":100,"L_num":10,"L_den":25,"R_num":8,"R_den":16,"correct_side":2,"subjID":"luisramiez18","gender":"0","school":"6","age":"11"},{"start_time":1551899975059,"click_time":1551899977625,"finger_time":1551899977625,"fix_duration":371.40815382478377,"trial":30,"RT":2566,"MT":0,"sideResp":2,"stimulus":[],"xmouse":[802,802,802,804,805,805,805,805,805,805,805,805,805,805,805,806,806,806,806,806,806,806,806,806,806,806,806,806,806,806,806,806,806,806,806,806,806,806,806,806,806,806,806,806,806,806,806,806,806,806,806,806,806,806,806,806,806,806,806,806,806,806,806,806,806,806,806,806,806,807,808,808,808,808,808,808,808,808,808,808,808,808,808,808,808,808,808,808,808,808,808,808,808,808,808,808,808,808,808,808,808,808,808,808,808,808,808,808,808,808,808,808,808,808,808,808,808,808,808,808,808,808,808,808,808,808,808,808,1126],"ymouse":[542,542,542,542,542,542,542,542,542,542,542,542,542,542,542,541,541,541,541,541,541,541,541,541,541,541,541,541,541,541,541,541,541,541,541,541,541,541,541,541,541,541,541,541,541,541,541,541,541,541,541,541,541,541,541,541,541,541,541,541,541,541,541,541,541,541,541,541,541,540,539,539,539,539,539,539,539,539,539,539,539,539,535,535,535,535,535,535,535,535,535,535,535,535,535,535,535,535,535,535,535,535,535,535,535,535,535,535,535,535,535,535,535,535,535,535,535,535,535,535,535,535,535,535,535,535,535,535,53],"timestamp_mouse":[10,27,47,69,86,106,126,146,166,187,207,226,246,266,286,307,326,346,366,387,407,426,446,466,487,507,526,548,566,586,608,626,646,666,686,706,726,747,767,787,806,826,847,867,887,906,927,946,966,986,1007,1027,1048,1066,1086,1107,1126,1146,1166,1186,1207,1226,1246,1266,1287,1306,1326,1347,1367,1387,1407,1427,1447,1466,1487,1506,1527,1546,1567,1587,1607,1627,1646,1666,1686,1706,1726,1747,1766,1787,1806,1826,1847,1868,1887,1907,1927,1947,1968,1987,2006,2027,2046,2066,2086,2107,2126,2146,2166,2186,2206,2226,2246,2266,2286,2306,2326,2346,2366,2386,2406,2426,2446,2466,2487,2506,2526,2546,2566],"xSR":741.5,"ySR":469.95,"xT1":424.9,"yT1":0,"xT2":1058.1,"yT2":0,"toosoon":0,"cond_shown":"Incongruent","ratio_trial":200,"L_num":7,"L_den":15,"R_num":6,"R_den":9,"correct_side":2,"subjID":"luisramiez18","gender":"0","school":"6","age":"11"},{"start_time":1551899985672,"click_time":1551899988825,"finger_time":1551899988825,"fix_duration":544.2680781719781,"trial":31,"RT":3153,"MT":0,"sideResp":1,"stimulus":[],"xmouse":[794,794,794,794,794,794,794,794,794,794,794,794,794,794,794,794,794,794,794,794,794,794,794,794,794,794,794,794,794,794,794,793,793,793,793,793,793,793,793,793,793,793,793,793,793,793,793,793,793,793,793,793,793,793,793,793,793,793,793,793,793,793,793,793,793,793,793,793,793,793,793,793,793,793,793,793,793,793,793,793,793,793,793,793,793,793,793,793,793,793,793,793,793,793,793,793,793,793,793,793,793,793,793,793,793,793,793,793,793,793,793,793,793,793,791,791,791,791,791,791,791,791,791,791,791,791,791,791,791,791,791,791,791,791,791,791,791,791,791,791,791,791,791,791,791,791,791,791,791,791,791,791,791,791,791,791,791,511],"ymouse":[508,508,508,508,508,508,508,508,508,508,508,508,508,508,508,508,508,508,508,508,508,508,508,508,508,508,508,508,508,508,508,508,508,508,508,508,508,508,508,508,508,508,508,508,508,508,508,508,508,508,508,508,508,508,508,509,509,509,509,509,510,510,510,510,510,510,510,510,510,510,510,510,510,510,510,510,510,510,510,510,510,510,510,510,510,510,510,510,510,510,510,510,510,510,510,510,510,510,510,510,510,510,510,510,510,510,510,510,510,510,510,510,510,507,490,490,490,490,490,490,490,490,490,490,490,490,490,490,490,490,490,490,490,490,490,490,490,490,490,490,490,490,490,490,490,490,490,490,490,490,490,490,490,490,490,490,490,90],"timestamp_mouse":[14,34,56,73,93,113,133,153,173,194,214,235,253,273,293,314,334,354,373,393,413,434,453,473,493,513,534,554,574,593,613,633,654,674,694,715,733,753,773,794,814,834,853,873,893,913,934,953,973,993,1014,1034,1053,1073,1093,1113,1133,1153,1173,1193,1214,1234,1253,1274,1294,1314,1333,1353,1373,1393,1413,1434,1453,1473,1493,1514,1534,1554,1573,1593,1613,1633,1654,1674,1694,1713,1733,1753,1773,1793,1814,1834,1854,1873,1893,1913,1933,1954,1974,1994,2013,2033,2054,2073,2093,2114,2133,2153,2173,2193,2214,2234,2254,2273,2294,2313,2335,2353,2374,2393,2413,2433,2455,2473,2493,2513,2535,2553,2575,2593,2613,2633,2653,2674,2693,2713,2734,2753,2774,2793,2813,2833,2854,2873,2893,2913,2934,2953,2973,2993,3013,3034,3053,3074,3094,3113,3134,3153],"xSR":741.5,"ySR":469.95,"xT1":424.9,"yT1":0,"xT2":1058.1,"yT2":0,"toosoon":0,"cond_shown":"Congruent","ratio_trial":100,"L_num":8,"L_den":16,"R_num":2,"R_den":5,"correct_side":1,"subjID":"luisramiez18","gender":"0","school":"6","age":"11"},{"start_time":1551899993318,"click_time":1551899996185,"finger_time":1551899996185,"fix_duration":430.9692748842745,"trial":32,"RT":2867,"MT":0,"sideResp":1,"stimulus":[],"xmouse":[785,785,785,785,785,785,785,785,785,785,785,785,785,785,785,785,785,785,785,785,785,785,785,785,785,786,786,786,786,786,786,786,786,786,786,786,786,786,786,786,786,786,786,786,786,786,786,786,786,786,786,786,786,786,786,786,786,786,786,786,786,786,786,786,786,786,786,786,786,786,786,786,786,786,786,786,786,786,786,786,786,786,786,786,786,786,786,786,788,798,798,798,798,798,798,798,798,798,798,798,798,798,798,798,798,798,798,798,798,798,798,798,798,798,798,798,798,798,798,798,798,798,798,798,798,798,798,798,798,798,798,798,798,798,798,798,798,798,798,798,798,798,798,487],"ymouse":[524,524,524,524,524,524,524,524,524,524,524,524,524,524,524,524,524,523,523,523,523,523,523,523,523,522,522,522,522,522,522,522,522,522,522,522,522,522,522,522,522,522,522,522,522,522,522,522,522,522,522,522,522,522,522,522,522,522,522,522,522,522,522,522,522,522,522,522,522,522,522,522,522,522,522,522,522,522,522,522,522,522,522,522,522,522,522,522,521,510,510,510,510,510,510,510,510,510,510,510,510,510,510,510,510,510,510,510,510,510,510,510,510,510,510,510,510,510,510,510,510,510,510,510,510,510,510,510,510,510,510,510,510,510,510,510,510,510,510,510,510,510,510,74],"timestamp_mouse":[11,29,48,78,88,108,128,147,167,187,207,228,248,268,287,307,327,348,368,388,407,427,448,468,487,507,527,547,567,587,607,628,648,668,688,707,727,748,768,788,807,827,847,867,888,908,929,947,967,987,1008,1028,1047,1067,1088,1108,1127,1147,1167,1187,1208,1228,1247,1267,1287,1307,1328,1347,1367,1387,1407,1427,1448,1467,1488,1507,1527,1547,1567,1588,1607,1627,1647,1667,1687,1708,1727,1747,1768,1788,1807,1827,1848,1867,1888,1907,1928,1947,1968,1988,2009,2027,2047,2067,2088,2107,2127,2148,2168,2188,2207,2227,2247,2268,2288,2307,2328,2347,2368,2387,2408,2427,2448,2467,2488,2507,2528,2547,2568,2587,2608,2627,2647,2668,2688,2707,2727,2748,2768,2788,2808,2828,2848,2867],"xSR":741.5,"ySR":469.95,"xT1":424.9,"yT1":0,"xT2":1058.1,"yT2":0,"toosoon":0,"cond_shown":"Congruent","ratio_trial":100,"L_num":11,"L_den":22,"R_num":6,"R_den":15,"correct_side":1,"subjID":"luisramiez18","gender":"0","school":"6","age":"11"},{"start_time":1551900005358,"click_time":1551900008606,"finger_time":1551900008606,"fix_duration":1010.9836194684817,"trial":33,"RT":3248,"MT":0,"sideResp":1,"stimulus":[],"xmouse":[798,798,798,798,798,798,798,798,798,798,798,798,798,798,798,798,798,798,798,798,798,798,798,798,798,798,798,798,798,798,798,798,798,798,798,798,798,798,798,798,798,798,798,798,798,798,798,798,798,798,798,798,798,798,798,798,798,798,803,810,810,810,810,810,810,810,810,810,810,810,810,810,810,810,810,810,810,810,810,808,807,807,807,807,807,807,807,807,807,807,807,807,807,807,807,807,807,807,807,807,807,807,807,807,807,807,805,804,802,801,799,799,799,796,796,796,796,796,796,796,796,796,796,796,796,796,796,796,796,796,796,796,796,796,796,796,796,796,796,796,796,796,796,796,796,796,796,796,796,796,796,796,796,796,796,796,796,796,796,796,796,796,471],"ymouse":[509,509,509,509,509,509,509,509,509,509,509,509,509,509,509,509,509,509,509,509,509,509,509,509,509,509,509,509,509,509,509,509,509,509,509,509,509,509,509,509,509,509,509,509,509,509,509,509,509,509,509,509,509,509,509,509,509,509,508,506,506,506,506,506,506,506,506,506,506,506,506,506,506,506,506,506,506,506,506,506,507,507,507,507,507,507,507,507,507,507,507,507,507,507,507,507,507,507,507,507,507,507,507,507,507,507,508,508,509,510,510,510,510,510,510,510,510,510,510,510,510,510,510,510,510,510,510,510,510,510,510,510,510,510,510,510,510,510,510,510,510,510,510,510,510,510,510,510,510,510,510,510,510,510,510,510,510,510,510,510,510,510,1],"timestamp_mouse":[10,27,47,68,88,108,127,147,167,187,208,228,247,267,287,307,328,348,368,387,407,427,447,467,488,508,527,547,568,588,608,627,647,667,688,708,728,747,768,787,807,827,847,868,887,908,928,948,967,987,1007,1027,1048,1068,1088,1108,1127,1147,1167,1188,1208,1228,1247,1267,1288,1307,1327,1348,1368,1389,1408,1427,1447,1468,1488,1507,1527,1547,1568,1587,1608,1628,1648,1667,1687,1707,1728,1748,1768,1787,1808,1827,1848,1867,1888,1907,1929,1948,1968,1987,2009,2028,2047,2069,2087,2107,2128,2147,2167,2187,2208,2229,2248,2268,2287,2307,2329,2347,2368,2387,2408,2427,2449,2467,2488,2507,2528,2548,2567,2587,2607,2627,2647,2668,2687,2707,2727,2747,2767,2787,2807,2827,2847,2868,2888,2907,2927,2948,2967,2987,3007,3027,3047,3067,3087,3107,3127,3148,3167,3187,3207,3227,3247],"xSR":741.5,"ySR":469.95,"xT1":424.9,"yT1":0,"xT2":1058.1,"yT2":0,"toosoon":0,"cond_shown":"Incongruent","ratio_trial":200,"L_num":7,"L_den":10,"R_num":14,"R_den":28,"correct_side":1,"subjID":"luisramiez18","gender":"0","school":"6","age":"11"},{"start_time":1551900014481,"click_time":1551900017045,"finger_time":1551900017045,"fix_duration":474.1116840830215,"trial":34,"RT":2564,"MT":0,"sideResp":1,"stimulus":[],"xmouse":[769,769,769,769,769,769,769,769,769,769,769,769,769,769,769,769,769,769,769,769,769,769,769,769,769,769,769,769,769,769,769,769,769,769,769,769,769,769,769,769,769,769,769,769,769,769,769,769,769,769,769,769,769,769,769,769,769,769,769,769,769,769,769,769,769,769,769,769,769,767,765,765,765,765,765,765,765,765,765,765,765,765,765,765,765,765,765,765,765,765,765,765,765,765,765,765,765,765,765,765,765,765,765,765,765,765,765,765,765,765,765,765,765,765,765,765,765,765,765,765,765,765,765,765,765,765,765,765,475],"ymouse":[534,534,534,534,534,534,534,534,534,534,534,534,534,534,534,534,534,534,534,534,534,534,534,534,534,534,534,534,534,534,534,534,534,534,534,534,534,534,534,534,534,534,534,534,534,534,534,534,534,534,534,534,534,534,534,534,534,534,534,534,534,534,534,534,534,534,534,534,534,534,534,534,534,534,534,534,534,534,534,534,534,534,534,534,534,534,534,534,534,534,534,534,534,534,534,534,534,534,534,534,534,534,534,534,534,534,534,534,534,534,534,534,534,534,534,534,534,534,534,534,534,534,534,534,534,534,534,534,77],"timestamp_mouse":[10,36,45,65,84,104,125,145,165,184,204,224,245,264,285,305,325,344,364,384,405,425,445,465,484,504,524,544,564,584,605,624,644,664,684,705,724,745,765,785,804,824,844,864,884,904,924,945,964,984,1005,1026,1045,1064,1084,1104,1125,1145,1165,1184,1204,1224,1245,1265,1285,1305,1324,1344,1364,1384,1405,1424,1446,1464,1485,1504,1525,1544,1566,1584,1605,1625,1644,1664,1685,1704,1726,1744,1765,1784,1805,1824,1846,1864,1884,1904,1925,1944,1965,1984,2005,2024,2046,2064,2086,2104,2125,2146,2164,2184,2205,2225,2245,2264,2285,2304,2326,2344,2364,2384,2404,2424,2446,2465,2485,2505,2525,2545,2564],"xSR":741.5,"ySR":469.95,"xT1":424.9,"yT1":0,"xT2":1058.1,"yT2":0,"toosoon":0,"cond_shown":"Incongruent","ratio_trial":300,"L_num":4,"L_den":5,"R_num":6,"R_den":12,"correct_side":1,"subjID":"luisramiez18","gender":"0","school":"6","age":"11"},{"start_time":1551900062536,"click_time":1551900066025,"finger_time":1551900066025,"fix_duration":369.8296744020802,"trial":35,"RT":3489,"MT":0,"sideResp":2,"stimulus":[],"xmouse":[794,794,794,794,794,794,794,794,794,794,794,794,794,794,794,794,794,794,794,794,794,794,794,794,794,794,794,794,794,794,794,794,794,794,794,794,794,794,794,794,794,794,794,794,794,794,794,794,794,794,794,794,794,794,793,792,792,792,792,792,792,792,792,792,792,792,792,792,792,792,792,792,792,792,792,792,792,792,792,792,792,792,792,792,792,792,792,792,792,792,792,792,792,792,792,792,792,792,792,791,791,790,788,788,788,788,788,788,788,788,787,787,787,787,787,787,787,787,787,787,787,787,787,787,787,787,787,787,787,787,787,787,787,787,787,787,787,787,787,787,787,787,787,787,787,787,787,790,795,795,795,795,795,795,795,795,795,795,795,795,795,795,795,795,795,795,795,795,795,795,795,795,795,795,1117],"ymouse":[493,493,493,493,493,493,493,493,493,493,493,493,493,493,493,493,493,493,493,493,493,493,493,493,493,493,493,493,493,493,493,493,493,493,493,493,493,493,493,493,493,493,493,493,493,493,493,493,493,493,493,493,493,494,495,495,495,495,495,495,495,495,495,495,495,495,495,495,495,495,495,495,495,495,495,495,495,495,495,495,495,495,495,495,495,495,495,495,495,495,495,495,495,495,495,495,495,495,495,496,496,497,498,499,499,499,499,499,499,499,499,499,500,500,500,500,500,500,500,500,500,500,500,500,500,500,500,500,500,500,500,500,500,500,500,500,500,500,500,500,500,500,500,500,500,500,500,499,498,498,498,498,498,498,498,498,498,498,498,498,498,498,498,498,498,498,498,498,498,498,498,498,498,498,23],"timestamp_mouse":[13,33,49,69,90,109,129,149,169,190,209,231,250,269,289,310,330,350,370,389,409,430,450,470,489,509,530,550,570,589,609,629,649,669,690,711,730,749,770,790,809,829,849,869,890,909,929,949,969,989,1009,1030,1049,1069,1089,1109,1130,1150,1169,1189,1209,1229,1249,1270,1290,1310,1330,1350,1369,1389,1409,1430,1449,1469,1489,1510,1530,1550,1571,1589,1609,1629,1649,1669,1689,1709,1729,1749,1769,1789,1809,1831,1849,1870,1890,1910,1930,1949,1970,1990,2009,2029,2049,2069,2090,2110,2129,2149,2169,2189,2209,2231,2249,2269,2289,2309,2329,2350,2370,2390,2410,2430,2450,2470,2489,2510,2530,2549,2569,2589,2610,2630,2650,2669,2689,2710,2731,2750,2770,2790,2810,2830,2850,2869,2890,2910,2930,2949,2969,2989,3009,3029,3049,3069,3089,3109,3129,3149,3169,3190,3209,3229,3249,3269,3290,3310,3329,3350,3370,3389,3410,3429,3449,3470,3489],"xSR":741.5,"ySR":469.95,"xT1":424.9,"yT1":0,"xT2":1058.1,"yT2":0,"toosoon":0,"cond_shown":"Congruent","ratio_trial":100,"L_num":4,"L_den":10,"R_num":15,"R_den":30,"correct_side":2,"subjID":"luisrami