[{"start_time":1551892854351,"click_time":1551892855929,"finger_time":1551892854371,"fix_duration":780.1132067355112,"trial":0,"RT":20,"MT":1558,"sideResp":2,"stimulus":"img/500/equaldotanddens/R/15_Ratio_500_L_1_R_2.png","xmouse":[810,810,810,810,810,810,810,810,810,810,810,810,810,810,810,810,810,810,810,810,810,810,810,810,810,810,810,810,810,810,810,810,810,810,810,810,810,810,810,810,811,823,850,941,980,997,1006,1010,1018,1024,1031,1039,1049,1053,1053,1053,1053,1053,1054,1062,1064,1065,1065,1066,1068,1072,1074,1075,1075,1077,1080,1084,1085,1085,1085,1085,1085,1085,1092],"ymouse":[523,523,523,523,523,523,523,523,523,523,523,523,523,523,523,523,523,523,523,523,523,523,523,523,523,523,523,523,523,523,523,523,523,523,523,523,523,523,523,523,523,507,481,418,391,379,372,368,353,341,329,314,299,279,275,274,272,269,262,238,234,232,232,228,224,217,209,203,189,176,150,135,118,104,104,104,104,102,90],"timestamp_mouse":[20,37,58,78,98,119,138,157,178,198,218,239,258,278,298,318,338,358,377,398,419,439,457,477,497,518,538,557,578,598,618,638,658,678,697,718,737,758,778,798,817,837,857,878,897,918,938,957,977,997,1017,1037,1057,1078,1097,1118,1138,1159,1178,1197,1217,1237,1258,1278,1297,1318,1337,1357,1377,1398,1418,1438,1458,1478,1497,1517,1537,1559,1577],"xSR":741.5,"ySR":469.95,"xT1":424.9,"yT1":0,"xT2":1058.1,"yT2":0,"toosoon":0,"cond_shown":"equaldotanddens","ratio_trial":500,"smaller_num":"1","larger_num":"2","correct_side":2,"subjID":"LunaBenavides17","gender":"1","age":"11","school":"6","test":{"fix_dur":[250,1500],"timestim":300,"targets_dim":[100,100],"targets_relative_coord":[0.3,0.7],"size_stim":[880,420],"start_dim":[100,100],"size_start":[300,300],"size_fix":60,"samplingrate":20,"img_types":["equaldotsize","equaldotanddens","randomdotsizeEA"],"ratios":[250,500,750,900],"rep_conds":9,"nTrials":120,"trials_to_rest":500,"Trials_order":[100,1,78,67,91,29,37,98,42,90,64,82,18,55,34,95,49,105,50,93,66,58,28,6,74,97,84,115,54,108,96,47,9,69,43,75,117,46,16,24,89,23,48,32,3,25,2,53,15,12,19,26,11,10,107,110,8,44,102,63,101,99,83,112,114,56,38,92,76,5,31,62,72,116,104,81,70,36,39,85,21,7,113,45,119,60,20,118,40,41,71,51,14,103,13,109,59,30,68,111,86,77,88,17,22,27,0,33,61,35,79,52,57,65,94,87,106,80,73,4],"cond_shown":["equaldotanddens","equaldotanddens","equaldotsize","equaldotanddens","equaldotanddens","randomdotsizeEA","equaldotanddens","randomdotsizeEA","equaldotsize","equaldotsize","equaldotanddens","equaldotanddens","equaldotsize","equaldotanddens","equaldotanddens","randomdotsizeEA","equaldotanddens","equaldotsize","randomdotsizeEA","equaldotsize","equaldotsize","equaldotanddens","equaldotanddens","equaldotsize","randomdotsizeEA","equaldotanddens","equaldotsize","equaldotanddens","equaldotsize","equaldotsize","equaldotsize","randomdotsizeEA","equaldotsize","equaldotsize","equaldotanddens","equaldotsize","equaldotsize","equaldotanddens","equaldotanddens","equaldotsize","randomdotsizeEA","randomdotsizeEA","equaldotsize","randomdotsizeEA","equaldotsize","equaldotanddens","randomdotsizeEA","randomdotsizeEA","equaldotsize","equaldotsize","equaldotanddens","randomdotsizeEA","randomdotsizeEA","equaldotanddens","randomdotsizeEA","randomdotsizeEA","randomdotsizeEA","randomdotsizeEA","equaldotsize","equaldotsize","randomdotsizeEA","equaldotsize","randomdotsizeEA","equaldotanddens","equaldotsize","randomdotsizeEA","randomdotsizeEA","randomdotsizeEA","equaldotanddens","randomdotsizeEA","equaldotanddens","randomdotsizeEA","equaldotsize","randomdotsizeEA","randomdotsizeEA","equaldotsize","equaldotanddens","equaldotsize","equaldotsize","equaldotanddens","equaldotsize","equaldotanddens","randomdotsizeEA","equaldotsize","randomdotsizeEA","equaldotsize","randomdotsizeEA","equaldotanddens","equaldotanddens","randomdotsizeEA","randomdotsizeEA","equaldotsize","randomdotsizeEA","equaldotanddens","equaldotanddens","equaldotanddens","randomdotsizeEA","equaldotsize","randomdotsizeEA","equaldotsize","randomdotsizeEA","randomdotsizeEA","equaldotanddens","randomdotsizeEA","equaldotanddens","equaldotsize","equaldotsize","equaldotsize","equaldotanddens","randomdotsizeEA","equaldotanddens","equaldotanddens","equaldotsize","randomdotsizeEA","equaldotanddens","equaldotsize","equaldotanddens","randomdotsizeEA","equaldotanddens","equaldotanddens"],"ratio_trial":[500,250,750,750,750,500,250,250,750,750,500,900,750,750,900,900,250,900,250,900,750,900,500,750,250,250,250,750,750,250,250,900,900,900,750,500,900,900,500,250,500,900,250,750,500,250,250,500,500,250,750,250,900,900,900,250,750,750,750,500,500,500,900,500,750,750,250,750,500,500,750,250,250,750,750,900,900,250,500,250,900,750,500,900,900,250,750,900,500,500,900,500,250,750,250,250,900,750,750,500,250,500,500,500,900,500,250,900,250,900,750,500,900,500,900,500,900,750,250,500],"smaller_num":["1","3","3","3","12","9","5","3","15","12","10","9","3","12","18","9","3","9","6","9","15","18","1","6","2","3","2","6","3","2","2","9","18","9","15","9","18","9","2","2","4","18","4","6","5","2","2","4","6","1","3","2","18","18","9","2","3","3","3","6","3","6","18","4","15","3","2","15","4","9","15","4","6","15","3","9","9","3","6","3","18","3","5","18","9","2","6","18","4","9","18","1","3","15","3","2","9","3","15","9","6","2","2","9","18","9","5","9","4","9","15","2","9","9","18","9","18","3","3","5"],"larger_num":["2","12","4","4","16","18","20","12","20","16","20","10","4","16","20","10","12","10","24","10","20","20","2","8","8","12","8","8","4","8","8","10","20","10","20","18","20","10","4","8","8","20","16","8","10","8","8","8","12","4","4","8","20","20","10","8","4","4","4","12","6","12","20","8","20","4","8","20","8","18","20","16","24","20","4","10","10","12","12","12","20","4","10","20","10","8","8","20","8","18","20","2","12","20","12","8","10","4","20","18","24","4","4","18","20","18","20","10","16","10","20","4","10","18","20","18","20","4","12","10"],"correct_side":[2,2,1,1,2,1,2,1,2,2,2,2,2,2,1,2,1,2,2,2,1,2,2,2,1,2,1,1,1,1,2,2,1,2,2,2,2,1,2,2,1,2,1,1,2,1,1,1,1,2,1,2,2,1,2,1,2,2,1,1,2,1,1,1,2,2,1,2,1,1,1,2,2,2,1,2,2,2,1,2,1,2,1,1,2,1,1,1,1,2,1,2,1,2,2,2,2,1,1,2,1,2,1,2,2,2,2,2,1,1,2,1,2,1,2,2,1,2,2,1],"img_shown":["img/500/equaldotanddens/R/15_Ratio_500_L_1_R_2.png","img/250/equaldotanddens/R/9_Ratio_250_L_3_R_12.png","img/750/equaldotsize/L/10_Ratio_750_L_4_R_3.png","img/750/equaldotanddens/L/9_Ratio_750_L_4_R_3.png","img/750/equaldotanddens/R/11_Ratio_750_L_12_R_16.png","img/500/randomdotsizeEA/L/4_Ratio_500_L_18_R_9.png","img/250/equaldotanddens/R/12_Ratio_250_L_5_R_20.png","img/250/randomdotsizeEA/L/14_Ratio_250_L_12_R_3.png","img/750/equaldotsize/R/3_Ratio_750_L_15_R_20.png","img/750/equaldotsize/R/11_Ratio_750_L_12_R_16.png","img/500/equaldotanddens/R/3_Ratio_500_L_10_R_20.png","img/900/equaldotanddens/R/6_Ratio_900_L_9_R_10.png","img/750/equaldotsize/R/7_Ratio_750_L_3_R_4.png","img/750/equaldotanddens/R/11_Ratio_750_L_12_R_16.png","img/900/equaldotanddens/L/2_Ratio_900_L_20_R_18.png","img/900/randomdotsizeEA/R/7_Ratio_900_L_9_R_10.png","img/250/equaldotanddens/L/14_Ratio_250_L_12_R_3.png","img/900/equaldotsize/R/15_Ratio_900_L_9_R_10.png","img/250/randomdotsizeEA/R/6_Ratio_250_L_6_R_24.png","img/900/equaldotsize/R/15_Ratio_900_L_9_R_10.png","img/750/equaldotsize/L/1_Ratio_750_L_20_R_15.png","img/900/equaldotanddens/R/11_Ratio_900_L_18_R_20.png","img/500/equaldotanddens/R/12_Ratio_500_L_1_R_2.png","img/750/equaldotsize/R/2_Ratio_750_L_6_R_8.png","img/250/randomdotsizeEA/L/1_Ratio_250_L_8_R_2.png","img/250/equaldotanddens/R/9_Ratio_250_L_3_R_12.png","img/250/equaldotsize/L/1_Ratio_250_L_8_R_2.png","img/750/equaldotanddens/L/13_Ratio_750_L_8_R_6.png","img/750/equaldotsize/L/8_Ratio_750_L_4_R_3.png","img/250/equaldotsize/L/7_Ratio_250_L_8_R_2.png","img/250/equaldotsize/R/13_Ratio_250_L_2_R_8.png","img/900/randomdotsizeEA/R/5_Ratio_900_L_9_R_10.png","img/900/equaldotsize/L/2_Ratio_900_L_20_R_18.png","img/900/equaldotsize/R/7_Ratio_900_L_9_R_10.png","img/750/equaldotanddens/R/3_Ratio_750_L_15_R_20.png","img/500/equaldotsize/R/1_Ratio_500_L_9_R_18.png","img/900/equaldotsize/R/14_Ratio_900_L_18_R_20.png","img/900/equaldotanddens/L/1_Ratio_900_L_10_R_9.png","img/500/equaldotanddens/R/9_Ratio_500_L_2_R_4.png","img/250/equaldotsize/R/13_Ratio_250_L_2_R_8.png","img/500/randomdotsizeEA/L/8_Ratio_500_L_8_R_4.png","img/900/randomdotsizeEA/R/12_Ratio_900_L_18_R_20.png","img/250/equaldotsize/L/2_Ratio_250_L_16_R_4.png","img/750/randomdotsizeEA/L/14_Ratio_750_L_8_R_6.png","img/500/equaldotsize/R/14_Ratio_500_L_5_R_10.png","img/250/equaldotanddens/L/7_Ratio_250_L_8_R_2.png","img/250/randomdotsizeEA/L/3_Ratio_250_L_8_R_2.png","img/500/randomdotsizeEA/L/8_Ratio_500_L_8_R_4.png","img/500/equaldotsize/L/13_Ratio_500_L_12_R_6.png","img/250/equaldotsize/R/8_Ratio_250_L_1_R_4.png","img/750/equaldotanddens/L/10_Ratio_750_L_4_R_3.png","img/250/randomdotsizeEA/R/13_Ratio_250_L_2_R_8.png","img/900/randomdotsizeEA/R/12_Ratio_900_L_18_R_20.png","img/900/equaldotanddens/L/2_Ratio_900_L_20_R_18.png","img/900/randomdotsizeEA/R/15_Ratio_900_L_9_R_10.png","img/250/randomdotsizeEA/L/7_Ratio_250_L_8_R_2.png","img/750/randomdotsizeEA/R/12_Ratio_750_L_3_R_4.png","img/750/randomdotsizeEA/R/7_Ratio_750_L_3_R_4.png","img/750/equaldotsize/L/9_Ratio_750_L_4_R_3.png","img/500/equaldotsize/L/13_Ratio_500_L_12_R_6.png","img/500/randomdotsizeEA/R/2_Ratio_500_L_3_R_6.png","img/500/equaldotsize/L/13_Ratio_500_L_12_R_6.png","img/900/randomdotsizeEA/L/8_Ratio_900_L_20_R_18.png","img/500/equaldotanddens/L/8_Ratio_500_L_8_R_4.png","img/750/equaldotsize/R/5_Ratio_750_L_15_R_20.png","img/750/randomdotsizeEA/R/7_Ratio_750_L_3_R_4.png","img/250/randomdotsizeEA/L/1_Ratio_250_L_8_R_2.png","img/750/randomdotsizeEA/R/5_Ratio_750_L_15_R_20.png","img/500/equaldotanddens/L/8_Ratio_500_L_8_R_4.png","img/500/randomdotsizeEA/L/4_Ratio_500_L_18_R_9.png","img/750/equaldotanddens/L/1_Ratio_750_L_20_R_15.png","img/250/randomdotsizeEA/R/10_Ratio_250_L_4_R_16.png","img/250/equaldotsize/R/6_Ratio_250_L_6_R_24.png","img/750/randomdotsizeEA/R/4_Ratio_750_L_15_R_20.png","img/750/randomdotsizeEA/L/9_Ratio_750_L_4_R_3.png","img/900/equaldotsize/R/5_Ratio_900_L_9_R_10.png","img/900/equaldotanddens/R/15_Ratio_900_L_9_R_10.png","img/250/equaldotsize/R/4_Ratio_250_L_3_R_12.png","img/500/equaldotsize/L/11_Ratio_500_L_12_R_6.png","img/250/equaldotanddens/R/9_Ratio_250_L_3_R_12.png","img/900/equaldotsize/L/4_Ratio_900_L_20_R_18.png","img/750/equaldotanddens/R/12_Ratio_750_L_3_R_4.png","img/500/randomdotsizeEA/L/7_Ratio_500_L_10_R_5.png","img/900/equaldotsize/L/2_Ratio_900_L_20_R_18.png","img/900/randomdotsizeEA/R/7_Ratio_900_L_9_R_10.png","img/250/equaldotsize/L/1_Ratio_250_L_8_R_2.png","img/750/randomdotsizeEA/L/14_Ratio_750_L_8_R_6.png","img/900/equaldotanddens/L/4_Ratio_900_L_20_R_18.png","img/500/equaldotanddens/L/8_Ratio_500_L_8_R_4.png","img/500/randomdotsizeEA/R/1_Ratio_500_L_9_R_18.png","img/900/randomdotsizeEA/L/10_Ratio_900_L_20_R_18.png","img/500/equaldotsize/R/15_Ratio_500_L_1_R_2.png","img/250/randomdotsizeEA/L/14_Ratio_250_L_12_R_3.png","img/750/equaldotanddens/R/3_Ratio_750_L_15_R_20.png","img/250/equaldotanddens/R/9_Ratio_250_L_3_R_12.png","img/250/equaldotanddens/R/13_Ratio_250_L_2_R_8.png","img/900/randomdotsizeEA/R/5_Ratio_900_L_9_R_10.png","img/750/equaldotsize/L/8_Ratio_750_L_4_R_3.png","img/750/randomdotsizeEA/L/1_Ratio_750_L_20_R_15.png","img/500/equaldotsize/R/1_Ratio_500_L_9_R_18.png","img/250/randomdotsizeEA/L/5_Ratio_250_L_24_R_6.png","img/500/randomdotsizeEA/R/9_Ratio_500_L_2_R_4.png","img/500/equaldotanddens/L/10_Ratio_500_L_4_R_2.png","img/500/randomdotsizeEA/R/1_Ratio_500_L_9_R_18.png","img/900/equaldotanddens/R/12_Ratio_900_L_18_R_20.png","img/500/equaldotsize/R/6_Ratio_500_L_9_R_18.png","img/250/equaldotsize/R/12_Ratio_250_L_5_R_20.png","img/900/equaldotsize/R/6_Ratio_900_L_9_R_10.png","img/250/equaldotanddens/L/2_Ratio_250_L_16_R_4.png","img/900/randomdotsizeEA/L/1_Ratio_900_L_10_R_9.png","img/750/equaldotanddens/R/4_Ratio_750_L_15_R_20.png","img/500/equaldotanddens/L/10_Ratio_500_L_4_R_2.png","img/900/equaldotsize/R/7_Ratio_900_L_9_R_10.png","img/500/randomdotsizeEA/L/4_Ratio_500_L_18_R_9.png","img/900/equaldotanddens/R/13_Ratio_900_L_18_R_20.png","img/500/equaldotsize/R/6_Ratio_500_L_9_R_18.png","img/900/equaldotanddens/L/4_Ratio_900_L_20_R_18.png","img/750/randomdotsizeEA/R/12_Ratio_750_L_3_R_4.png","img/250/equaldotanddens/R/9_Ratio_250_L_3_R_12.png","img/500/equaldotanddens/L/7_Ratio_500_L_10_R_5.png"],"Rat0":[["12_Ratio_0_L_9_R_0.png","13_Ratio_0_L_6_R_0.png","5_Ratio_0_L_2_R_0.png","6_Ratio_0_L_4_R_0.png","8_Ratio_0_L_6_R_0.png"],["1_Ratio_0_L_0_R_17.png","10_Ratio_0_L_0_R_22.png","11_Ratio_0_L_0_R_1.png","14_Ratio_0_L_0_R_24.png","15_Ratio_0_L_0_R_4.png","2_Ratio_0_L_0_R_5.png","3_Ratio_0_L_0_R_17.png","4_Ratio_0_L_0_R_7.png","7_Ratio_0_L_0_R_19.png","9_Ratio_0_L_0_R_15.png"]],"Rat250":[["1_Ratio_250_L_8_R_2.png","14_Ratio_250_L_12_R_3.png","15_Ratio_250_L_12_R_3.png","2_Ratio_250_L_16_R_4.png","3_Ratio_250_L_8_R_2.png","5_Ratio_250_L_24_R_6.png","7_Ratio_250_L_8_R_2.png"],["10_Ratio_250_L_4_R_16.png","11_Ratio_250_L_3_R_12.png","12_Ratio_250_L_5_R_20.png","13_Ratio_250_L_2_R_8.png","4_Ratio_250_L_3_R_12.png","6_Ratio_250_L_6_R_24.png","8_Ratio_250_L_1_R_4.png","9_Ratio_250_L_3_R_12.png"]],"Rat500":[["10_Ratio_500_L_4_R_2.png","11_Ratio_500_L_12_R_6.png","13_Ratio_500_L_12_R_6.png","4_Ratio_500_L_18_R_9.png","5_Ratio_500_L_4_R_2.png","7_Ratio_500_L_10_R_5.png","8_Ratio_500_L_8_R_4.png"],["1_Ratio_500_L_9_R_18.png","12_Ratio_500_L_1_R_2.png","14_Ratio_500_L_5_R_10.png","15_Ratio_500_L_1_R_2.png","2_Ratio_500_L_3_R_6.png","3_Ratio_500_L_10_R_20.png","6_Ratio_500_L_9_R_18.png","9_Ratio_500_L_2_R_4.png"]],"Rat750":[["1_Ratio_750_L_20_R_15.png","10_Ratio_750_L_4_R_3.png","13_Ratio_750_L_8_R_6.png","14_Ratio_750_L_8_R_6.png","6_Ratio_750_L_24_R_18.png","8_Ratio_750_L_4_R_3.png","9_Ratio_750_L_4_R_3.png"],["11_Ratio_750_L_12_R_16.png","12_Ratio_750_L_3_R_4.png","15_Ratio_750_L_9_R_12.png","2_Ratio_750_L_6_R_8.png","3_Ratio_750_L_15_R_20.png","4_Ratio_750_L_15_R_20.png","5_Ratio_750_L_15_R_20.png","7_Ratio_750_L_3_R_4.png"]],"Rat900":[["1_Ratio_900_L_10_R_9.png","10_Ratio_900_L_20_R_18.png","2_Ratio_900_L_20_R_18.png","4_Ratio_900_L_20_R_18.png","8_Ratio_900_L_20_R_18.png"],["11_Ratio_900_L_18_R_20.png","12_Ratio_900_L_18_R_20.png","13_Ratio_900_L_18_R_20.png","14_Ratio_900_L_18_R_20.png","15_Ratio_900_L_9_R_10.png","3_Ratio_900_L_9_R_10.png","5_Ratio_900_L_9_R_10.png","6_Ratio_900_L_9_R_10.png","7_Ratio_900_L_9_R_10.png","9_Ratio_900_L_18_R_20.png"]],"Rat1000":[["10_Ratio_1000_L_16_R_16.png","11_Ratio_1000_L_6_R_6.png","12_Ratio_1000_L_14_R_14.png","13_Ratio_1000_L_20_R_20.png","15_Ratio_1000_L_15_R_15.png","2_Ratio_1000_L_17_R_17.png","4_Ratio_1000_L_9_R_9.png","5_Ratio_1000_L_6_R_6.png","6_Ratio_1000_L_19_R_19.png","8_Ratio_1000_L_14_R_14.png","9_Ratio_1000_L_25_R_25.png"],["1_Ratio_1000_L_1_R_1.png","14_Ratio_1000_L_17_R_17.png","3_Ratio_1000_L_17_R_17.png","7_Ratio_1000_L_6_R_6.png"]]}},{"start_time":1551892857481,"click_time":1551892858669,"finger_time":1551892858230,"fix_duration":351.28398729881195,"trial":1,"RT":749,"MT":439,"sideResp":2,"stimulus":"img/250/equaldotanddens/R/9_Ratio_250_L_3_R_12.png","xmouse":[793,793,793,793,793,793,793,793,793,793,793,793,793,793,793,793,793,793,793,793,793,793,793,793,793,793,793,793,793,793,793,793,793,793,793,795,798,864,909,952,984,1000,1010,1013,1014,1015,1017,1019,1019,1019,1023,1029,1060,1076,1079,1081,1081,1081,1089,1101],"ymouse":[605,605,605,605,604,604,604,604,604,604,604,604,604,604,604,604,604,604,604,604,604,604,604,604,604,604,604,604,604,604,604,604,604,604,604,602,596,473,395,323,270,244,214,204,200,198,194,191,191,191,184,175,142,128,124,123,122,119,107,95],"timestamp_mouse":[10,32,48,68,87,108,128,147,167,187,208,227,249,267,287,307,327,347,367,387,408,427,448,467,487,507,527,547,567,588,609,627,647,668,689,707,728,749,767,787,808,827,848,867,887,907,927,947,967,988,1008,1028,1048,1067,1088,1107,1127,1147,1167,1188],"xSR":741.5,"ySR":573.95,"xT1":424.9,"yT1":0,"xT2":1058.1,"yT2":0,"toosoon":0,"cond_shown":"equaldotanddens","ratio_trial":250,"smaller_num":"3","larger_num":"12","correct_side":2,"subjID":"LunaBenavides17","gender":"1","age":"11","school":"6"},{"start_time":1551892860253,"click_time":1551892861169,"finger_time":1551892861089,"fix_duration":522.1028754908102,"trial":2,"RT":836,"MT":80,"sideResp":1,"stimulus":"img/750/equaldotsize/L/10_Ratio_750_L_4_R_3.png","xmouse":[814,814,814,814,811,811,811,811,811,811,811,811,811,811,811,811,811,811,811,811,811,811,811,811,811,811,811,811,811,811,811,811,811,811,811,811,811,811,811,811,799,763,712,646,479,455],"ymouse":[613,613,613,613,606,603,603,603,603,603,603,603,603,603,603,603,603,603,603,603,603,603,603,603,603,603,603,603,603,603,603,603,603,603,603,603,603,603,603,603,590,544,471,361,120,65],"timestamp_mouse":[16,42,56,77,95,116,136,157,177,195,216,235,255,276,295,315,336,356,375,395,416,437,455,476,495,517,537,555,577,595,616,637,655,676,695,716,735,756,776,795,815,836,857,875,895,915],"xSR":741.5,"ySR":573.95,"xT1":424.9,"yT1":0,"xT2":1058.1,"yT2":0,"toosoon":0,"cond_shown":"equaldotsize","ratio_trial":750,"smaller_num":"3","larger_num":"4","correct_side":1,"subjID":"LunaBenavides17","gender":"1","age":"11","school":"6"},{"start_time":1551892862568,"click_time":1551892863889,"finger_time":1551892863408,"fix_duration":317.17181167616326,"trial":3,"RT":840,"MT":481,"sideResp":1,"stimulus":"img/750/equaldotanddens/L/9_Ratio_750_L_4_R_3.png","xmouse":[781,781,781,781,781,781,781,781,781,781,781,781,781,781,781,781,781,781,781,781,781,781,781,781,781,781,781,781,781,781,781,781,781,781,781,781,781,781,781,779,770,749,721,681,666,656,651,644,633,631,631,630,630,627,622,615,602,587,556,543,535,530,523,517,517,519,523],"ymouse":[650,650,650,650,650,650,650,650,650,650,650,650,650,650,650,650,650,650,650,650,650,650,650,650,650,650,650,650,650,650,650,650,650,650,650,650,650,650,650,646,634,610,578,522,487,445,401,362,290,279,276,274,273,261,249,236,219,204,180,170,162,152,143,124,114,105,97],"timestamp_mouse":[8,21,41,61,80,100,122,141,161,180,200,221,241,261,280,300,321,341,361,380,400,420,440,461,481,500,521,540,560,580,602,620,641,661,681,701,722,740,762,780,800,822,840,860,880,900,920,941,961,980,1001,1021,1040,1061,1080,1101,1120,1141,1160,1181,1201,1221,1240,1261,1280,1300,1321],"xSR":741.5,"ySR":573.95,"xT1":424.9,"yT1":0,"xT2":1058.1,"yT2":0,"toosoon":0,"cond_shown":"equaldotanddens","ratio_trial":750,"smaller_num":"3","larger_num":"4","correct_side":1,"subjID":"LunaBenavides17","gender":"1","age":"11","school":"6"},{"start_time":1551892866249,"click_time":1551892867670,"finger_time":1551892867129,"fix_duration":1499.6657190799333,"trial":4,"RT":880,"MT":541,"sideResp":2,"stimulus":"img/750/equaldotanddens/R/11_Ratio_750_L_12_R_16.png","xmouse":[782,782,782,782,782,782,782,782,782,782,782,782,782,782,782,782,782,782,782,782,782,782,782,782,782,782,782,782,782,782,782,782,782,782,782,782,782,782,782,782,782,789,795,810,856,887,897,902,906,914,922,931,944,969,988,1020,1024,1029,1031,1037,1041,1047,1051,1057,1060,1072,1074,1076,1078,1083,1086,1088],"ymouse":[639,639,639,639,639,639,639,639,639,639,639,639,639,639,639,639,639,639,639,639,639,639,639,639,639,639,639,639,639,639,639,639,639,639,639,639,639,639,639,639,639,636,632,625,604,586,578,572,567,552,536,515,488,441,398,333,313,294,279,248,233,215,196,173,159,134,130,127,123,109,102,96],"timestamp_mouse":[1,34,39,60,80,99,120,139,160,180,199,220,239,261,280,299,320,340,360,380,399,421,439,459,480,499,519,540,559,579,600,619,639,660,681,699,720,739,759,780,799,819,839,860,880,899,919,939,960,979,999,1019,1040,1059,1079,1100,1119,1140,1159,1179,1199,1219,1239,1259,1279,1300,1319,1339,1360,1379,1399,1421],"xSR":741.5,"ySR":573.95,"xT1":424.9,"yT1":0,"xT2":1058.1,"yT2":0,"toosoon":0,"cond_shown":"equaldotanddens","ratio_trial":750,"smaller_num":"12","larger_num":"16","correct_side":2,"subjID":"LunaBenavides17","gender":"1","age":"11","school":"6"},{"start_time":1551892869221,"click_time":1551892870808,"finger_time":1551892870348,"fix_duration":492.59369663686357,"trial":5,"RT":1127,"MT":460,"sideResp":1,"stimulus":"img/500/randomdotsizeEA/L/4_Ratio_500_L_18_R_9.png","xmouse":[806,806,806,806,806,806,806,806,806,806,806,806,806,806,806,806,806,806,806,806,806,806,806,806,806,806,806,806,806,806,806,806,806,806,806,806,806,806,806,806,806,806,806,806,806,806,806,806,806,806,806,806,806,806,806,806,762,713,648,590,556,537,536,536,536,536,536,536,536,536,536,536,536,536,536,536,535,531,526,523],"ymouse":[604,604,604,604,604,604,604,604,604,604,604,604,604,604,604,604,604,604,604,604,604,604,604,604,604,604,604,604,604,604,604,604,604,604,604,604,604,604,604,604,604,604,604,604,604,604,604,604,604,604,604,604,604,604,604,604,565,509,438,374,333,291,274,253,223,112,71,70,70,70,70,70,70,70,70,70,69,69,68,68],"timestamp_mouse":[9,39,47,69,88,108,127,149,167,188,209,227,247,267,288,307,328,347,367,387,408,427,447,468,487,507,527,549,568,587,607,627,647,667,688,708,727,747,768,788,808,827,847,868,888,907,927,949,967,989,1008,1027,1049,1067,1089,1108,1127,1147,1167,1188,1208,1227,1247,1267,1289,1308,1327,1348,1369,1388,1408,1427,1447,1468,1488,1508,1527,1548,1569,1587],"xSR":741.5,"ySR":573.95,"xT1":424.9,"yT1":0,"xT2":1058.1,"yT2":0,"toosoon":0,"cond_shown":"randomdotsizeEA","ratio_trial":500,"smaller_num":"9","larger_num":"18","correct_side":1,"subjID":"LunaBenavides17","gender":"1","age":"11","school":"6"},{"start_time":1551892873680,"click_time":1551892877208,"finger_time":1551892876729,"fix_duration":870.2987279304058,"trial":6,"RT":3049,"MT":479,"sideResp":2,"stimulus":"img/250/equaldotanddens/R/12_Ratio_250_L_5_R_20.png","xmouse":[793,793,793,793,793,793,793,793,793,793,793,793,793,793,793,793,793,793,793,793,793,793,793,793,793,793,793,793,793,793,793,793,793,793,793,793,793,793,793,793,793,793,793,792,790,790,790,790,790,790,790,790,790,790,790,790,790,790,790,790,790,790,790,789,789,788,786,785,785,784,783,782,781,780,779,779,779,779,779,779,775,772,761,760,760,760,760,760,760,760,760,760,760,760,760,760,760,760,760,760,760,760,760,760,760,760,762,763,763,764,764,764,764,764,764,764,764,764,765,766,767,769,770,772,772,773,774,774,776,777,777,777,777,777,777,777,777,777,777,777,777,777,777,777,777,777,777,777,777,779,781,793,842,886,913,936,955,986,998,1007,1015,1021,1024,1030,1032,1035,1037,1043,1047,1053,1058,1060,1071,1080,1086,1091,1096],"ymouse":[602,602,602,602,602,602,602,602,602,602,602,602,602,602,602,602,602,602,602,602,602,602,602,602,602,602,602,602,602,602,602,602,602,602,602,602,602,602,602,602,602,602,602,605,607,607,607,607,607,607,607,607,607,607,607,607,607,607,607,607,607,607,607,608,608,608,608,608,608,608,608,608,608,608,609,609,609,609,609,609,609,609,609,609,609,609,609,609,609,609,609,609,609,609,609,609,609,609,609,608,608,608,608,608,607,606,603,600,598,597,597,597,597,597,597,597,597,597,596,596,596,595,594,592,592,592,590,589,585,585,585,585,585,585,585,585,585,585,585,585,585,585,585,585,585,585,585,585,585,583,583,578,559,540,526,510,491,434,402,370,335,309,289,256,247,238,229,205,194,183,174,167,143,125,115,105,97],"timestamp_mouse":[10,36,48,69,89,109,129,150,168,188,209,228,249,269,288,308,328,348,368,388,408,429,449,468,489,508,529,550,568,589,609,629,650,668,689,709,729,749,768,788,809,830,849,869,888,909,929,948,969,988,1010,1030,1049,1069,1090,1109,1129,1148,1168,1189,1208,1229,1249,1269,1288,1308,1328,1349,1368,1389,1408,1428,1449,1468,1488,1509,1528,1550,1568,1588,1608,1629,1648,1669,1688,1708,1728,1748,1769,1789,1809,1829,1848,1868,1889,1909,1928,1950,1969,1989,2008,2028,2048,2069,2088,2108,2129,2149,2168,2188,2208,2228,2249,2268,2288,2308,2329,2348,2369,2390,2408,2429,2449,2468,2488,2509,2528,2549,2568,2588,2608,2629,2649,2668,2688,2710,2729,2749,2768,2788,2809,2829,2849,2868,2890,2908,2928,2949,2968,2989,3008,3028,3049,3068,3089,3109,3128,3148,3168,3188,3209,3228,3248,3268,3288,3309,3328,3349,3368,3389,3408,3429,3448,3468,3488,3508,3528],"xSR":741.5,"ySR":573.95,"xT1":424.9,"yT1":0,"xT2":1058.1,"yT2":0,"toosoon":0,"cond_shown":"equaldotanddens","ratio_trial":250,"smaller_num":"5","larger_num":"20","correct_side":2,"subjID":"LunaBenavides17","gender":"1","age":"11","school":"6"},{"start_time":1551892878642,"click_time":1551892880448,"finger_time":1551892879449,"fix_duration":273.46049498811743,"trial":7,"RT":807,"MT":999,"sideResp":1,"stimulus":"img/250/randomdotsizeEA/L/14_Ratio_250_L_12_R_3.png","xmouse":[808,808,808,808,808,808,808,808,808,808,808,808,808,808,808,807,806,806,806,806,806,806,806,806,806,806,806,806,806,806,806,806,806,806,806,806,806,806,801,778,765,754,745,739,730,726,723,722,719,715,712,709,705,698,676,658,647,636,620,599,589,577,567,556,521,515,515,515,515,513,508,498,484,454,412,411,411,409,409,407,407,407,410,413,413,413,413,413,413,414,426],"ymouse":[610,610,610,610,610,610,610,610,610,610,610,610,610,610,610,610,611,613,613,613,613,613,613,613,613,613,613,613,613,613,613,613,613,613,613,613,613,614,612,582,567,552,540,532,512,506,499,494,490,484,481,476,472,464,448,436,427,417,404,393,387,376,363,345,302,297,297,297,291,269,256,236,215,174,99,94,93,90,87,70,56,48,43,41,40,40,40,40,40,40,42],"timestamp_mouse":[9,27,51,66,86,106,126,146,166,188,206,228,247,268,286,307,326,346,366,387,406,427,446,466,486,506,527,546,567,586,606,626,646,666,687,706,728,747,767,786,807,828,847,866,887,907,927,946,966,987,1007,1028,1046,1066,1087,1107,1126,1146,1166,1186,1207,1226,1246,1266,1286,1307,1326,1347,1367,1386,1406,1427,1446,1466,1487,1506,1527,1546,1566,1587,1606,1627,1646,1668,1687,1706,1726,1746,1767,1786,1806],"xSR":741.5,"ySR":573.95,"xT1":424.9,"yT1":0,"xT2":1058.1,"yT2":0,"toosoon":0,"cond_shown":"randomdotsizeEA","ratio_trial":250,"smaller_num":"3","larger_num":"12","correct_side":1,"subjID":"LunaBenavides17","gender":"1","age":"11","school":"6"},{"start_time":1551892882000,"click_time":1551892884289,"finger_time":1551892883629,"fix_duration":250,"trial":8,"RT":1629,"MT":660,"sideResp":2,"stimulus":"img/750/equaldotsize/R/3_Ratio_750_L_15_R_20.png","xmouse":[786,786,786,786,786,786,786,786,786,786,786,786,786,786,786,786,786,786,786,786,786,786,786,786,786,786,786,786,786,786,786,786,786,786,786,786,786,786,786,786,786,786,786,786,786,786,786,786,786,786,786,786,786,786,786,786,786,786,786,786,786,786,786,786,786,786,786,786,786,786,786,786,786,786,786,786,786,786,786,786,790,848,910,982,1061,1138,1288,1344,1358,1362,1362,1360,1358,1355,1352,1345,1333,1332,1331,1330,1328,1320,1307,1294,1275,1258,1228,1218,1207,1199,1193,1187,1169,1161,1154],"ymouse":[661,661,661,661,661,661,661,661,661,661,661,661,661,661,661,661,661,661,661,661,661,661,661,661,661,661,661,661,661,661,661,661,661,661,661,661,661,661,661,661,661,661,661,661,661,661,661,661,661,661,661,661,661,661,661,661,661,661,661,661,661,661,661,661,661,661,661,661,661,661,661,661,661,661,661,661,661,661,661,661,661,635,608,563,511,445,294,196,154,128,108,77,62,46,31,17,3,3,3,3,3,10,17,23,28,33,39,42,45,47,49,52,59,62,65],"timestamp_mouse":[9,31,48,68,88,108,129,148,170,189,209,229,248,269,288,308,329,348,369,389,409,429,449,469,489,508,529,548,570,588,608,628,648,669,689,708,729,748,769,788,809,830,848,869,890,909,929,949,968,988,1010,1028,1048,1069,1088,1109,1130,1148,1169,1189,1210,1229,1248,1268,1290,1309,1328,1349,1370,1389,1408,1429,1449,1468,1488,1508,1529,1548,1568,1588,1608,1629,1648,1668,1689,1708,1729,1748,1769,1789,1809,1829,1848,1870,1889,1908,1929,1948,1969,1989,2008,2028,2048,2069,2090,2109,2129,2149,2168,2189,2208,2228,2248,2269,2289],"xSR":741.5,"ySR":573.95,"xT1":424.9,"yT1":0,"xT2":1058.1,"yT2":0,"toosoon":0,"cond_shown":"equaldotsize","ratio_trial":750,"smaller_num":"15","larger_num":"20","correct_side":2,"subjID":"LunaBenavides17","gender":"1","age":"11","school":"6"},{"start_time":1551892885783,"click_time":1551892887709,"finger_time":1551892887329,"fix_duration":693.1370526770725,"trial":9,"RT":1546,"MT":380,"sideResp":2,"stimulus":"img/750/equaldotsize/R/11_Ratio_750_L_12_R_16.png","xmouse":[788,788,788,788,788,788,788,788,788,788,788,788,788,788,788,788,788,788,788,788,788,788,788,788,788,788,788,788,788,788,788,788,788,788,788,788,788,788,788,788,788,789,790,790,790,790,790,790,790,790,790,790,790,790,790,790,790,790,790,790,790,790,790,790,790,790,790,790,790,790,791,792,794,797,800,803,812,869,892,917,928,934,936,936,936,936,936,943,949,953,962,975,1009,1024,1037,1049,1060],"ymouse":[642,642,642,642,642,642,642,642,642,642,642,642,642,642,642,642,642,642,642,642,642,642,642,642,642,642,642,642,642,642,642,642,642,642,642,642,642,642,642,642,642,642,642,642,642,642,642,642,642,642,642,642,642,642,642,642,642,642,642,642,642,642,642,642,642,642,642,642,642,642,641,640,637,634,630,626,611,530,485,445,420,398,379,353,344,335,325,290,252,229,211,192,147,123,104,87,75],"timestamp_mouse":[15,25,46,65,87,105,125,146,166,186,205,225,247,265,286,305,326,345,365,386,406,425,445,465,486,505,526,547,565,587,605,626,645,666,685,706,725,745,766,785,806,825,846,865,885,906,926,947,965,986,1005,1026,1045,1065,1085,1105,1125,1146,1166,1186,1205,1227,1246,1265,1286,1305,1325,1347,1365,1385,1406,1425,1446,1465,1486,1505,1526,1546,1575,1586,1605,1625,1645,1666,1686,1705,1725,1746,1765,1786,1805,1825,1846,1866,1886,1906,1925],"xSR":741.5,"ySR":573.95,"xT1":424.9,"yT1":0,"xT2":1058.1,"yT2":0,"toosoon":0,"cond_shown":"equaldotsize","ratio_trial":750,"smaller_num":"12","larger_num":"16","correct_side":2,"subjID":"LunaBenavides17","gender":"1","age":"11","school":"6"},{"start_time":1551892890680,"click_time":1551892894049,"finger_time":1551892892269,"fix_duration":250,"trial":10,"RT":1589,"MT":1780,"sideResp":2,"stimulus":"img/500/equaldotanddens/R/3_Ratio_500_L_10_R_20.png","xmouse":[763,763,763,763,763,763,763,763,763,766,767,769,769,769,769,769,769,769,769,769,769,769,769,769,769,769,769,769,769,769,769,769,769,769,769,769,769,769,769,769,769,769,769,769,769,769,769,769,769,769,769,769,769,769,769,769,769,769,769,769,769,769,769,769,766,764,764,764,764,764,764,764,764,764,764,764,764,766,768,768,768,768,768,768,768,768,768,768,768,768,768,768,768,768,768,768,768,768,768,768,768,768,768,768,768,768,768,768,768,768,768,768,768,768,768,768,768,768,768,768,768,768,768,768,768,768,768,768,768,768,768,768,772,775,775,775,775,775,777,777,777,777,780,787,791,795,799,828,849,872,900,927,977,999,1007,1014,1027,1062,1079,1089,1098,1104,1112,1112,1112,1111,1109,1109,1109],"ymouse":[596,596,596,596,596,596,596,596,596,593,591,589,589,589,589,589,589,589,589,589,589,589,589,589,589,589,589,589,589,589,589,589,589,589,589,589,589,589,589,589,589,589,589,589,589,589,589,589,589,589,589,589,589,589,589,589,589,589,589,589,589,589,589,585,576,574,574,574,574,574,581,582,582,582,582,583,583,580,574,573,573,573,573,573,573,573,573,573,573,573,573,573,573,573,573,573,573,573,573,573,573,573,573,573,573,573,573,573,573,573,573,573,573,573,573,573,573,573,573,573,573,573,573,573,573,573,573,573,573,573,573,573,581,588,588,588,588,588,588,588,588,588,588,590,591,592,594,602,604,606,608,608,608,603,600,593,581,546,523,502,477,447,299,215,150,118,106,100,98],"timestamp_mouse":[8,38,49,68,88,109,128,149,168,188,208,228,248,268,288,308,328,349,368,390,408,429,448,468,488,508,528,548,568,589,609,630,649,669,689,709,728,749,770,788,809,829,849,868,889,909,928,949,968,989,1010,1028,1049,1070,1090,1109,1129,1149,1168,1189,1208,1229,1250,1270,1288,1308,1328,1348,1368,1390,1408,1429,1449,1469,1490,1509,1528,1549,1568,1589,1609,1629,1649,1668,1689,1708,1729,1749,1768,1789,1809,1828,1849,1868,1888,1909,1929,1949,1969,1988,2008,2029,2050,2068,2088,2108,2128,2148,2168,2189,2209,2229,2248,2269,2290,2308,2328,2349,2368,2388,2408,2429,2449,2468,2488,2509,2529,2549,2568,2589,2609,2628,2648,2668,2689,2710,2729,2750,2769,2789,2810,2828,2849,2869,2888,2909,2928,2949,2968,2988,3009,3028,3049,3068,3088,3108,3129,3148,3168,3189,3209,3228,3249,3268,3289,3309,3328,3349,3369],"xSR":741.5,"ySR":573.95,"xT1":424.9,"yT1":0,"xT2":1058.1,"yT2":0,"toosoon":0,"cond_shown":"equaldotanddens","ratio_trial":500,"smaller_num":"10","larger_num":"20","correct_side":2,"subjID":"LunaBenavides17","gender":"1","age":"11","school":"6"},{"start_time":1551892895529,"click_time":1551892898969,"finger_time":1551892897748,"fix_duration":278.4417895725131,"trial":11,"RT":2219,"MT":1221,"sideResp":1,"stimulus":"img/900/equaldotanddens/R/6_Ratio_900_L_9_R_10.png","xmouse":[829,829,829,829,829,829,829,829,829,829,829,829,829,829,829,829,829,829,829,829,829,829,829,829,829,829,829,829,829,829,829,829,829,829,829,829,829,829,829,829,829,829,829,829,829,829,829,829,829,829,829,829,829,829,829,829,829,829,829,829,829,829,829,829,829,829,829,829,829,829,829,829,829,829,829,829,829,829,829,829,829,829,829,829,829,829,829,829,829,831,831,833,833,833,833,833,833,833,833,833,833,833,833,833,833,833,833,833,833,833,835,847,854,856,856,856,856,856,856,856,856,856,856,856,856,856,856,856,856,856,857,858,859,859,859,859,859,859,859,859,844,835,821,803,786,770,767,764,762,758,750,745,743,740,735,727,706,694,680,666,627,613,591,558,526,469,453,442,440,440,440,453,468],"ymouse":[606,606,606,606,606,606,606,606,606,606,606,606,606,606,606,606,606,606,606,606,606,606,606,606,606,606,606,606,606,606,606,606,606,606,606,606,606,606,606,606,606,606,606,606,606,606,606,606,606,606,606,606,606,606,606,606,606,606,606,606,606,606,606,606,606,606,606,606,606,606,606,606,606,606,606,606,606,606,606,606,606,606,606,606,606,606,606,606,606,606,605,604,604,604,604,604,604,604,604,604,604,604,604,604,604,604,604,604,604,604,601,585,575,573,572,572,572,572,572,572,572,572,572,572,572,572,572,572,572,572,571,570,569,569,569,569,569,569,569,566,549,537,521,504,490,478,473,463,451,437,414,402,397,389,376,360,324,302,278,259,224,213,197,183,170,155,147,139,137,135,131,103,80],"timestamp_mouse":[1,20,39,59,79,99,120,140,160,179,201,221,240,261,279,299,320,340,360,379,399,420,440,459,481,499,519,539,560,579,599,619,640,659,679,699,719,739,759,779,799,820,839,860,879,899,920,939,959,979,1001,1019,1040,1059,1079,1099,1120,1140,1159,1179,1201,1219,1241,1260,1279,1300,1319,1339,1360,1380,1400,1419,1440,1459,1479,1499,1519,1540,1559,1580,1599,1619,1640,1661,1681,1700,1719,1741,1759,1779,1800,1819,1839,1860,1879,1900,1919,1940,1960,1979,1999,2020,2039,2060,2080,2100,2119,2139,2161,2179,2199,2219,2240,2260,2280,2300,2319,2340,2360,2379,2400,2419,2440,2460,2481,2501,2520,2540,2560,2580,2599,2619,2639,2660,2680,2700,2719,2740,2759,2781,2800,2819,2839,2860,2881,2900,2919,2939,2960,2979,2999,3019,3040,3059,3080,3099,3119,3140,3159,3179,3200,3219,3239,3259,3281,3300,3319,3341,3361,3380,3400,3420,3440],"xSR":741.5,"ySR":573.95,"xT1":424.9,"yT1":0,"xT2":1058.1,"yT2":0,"toosoon":0,"cond_shown":"equaldotanddens","ratio_trial":900,"smaller_num":"9","larger_num":"10","correct_side":2,"subjID":"LunaBenavides17","gender":"1","age":"11","school":"6"},{"start_time":1551892900520,"click_time":1551892907129,"finger_time":1551892906509,"fix_duration":529.9232229960877,"trial":12,"RT":5989,"MT":620,"sideResp":2,"stimulus":"img/750/equaldotsize/R/7_Ratio_750_L_3_R_4.png","xmouse":[789,789,789,789,789,789,789,789,789,789,789,789,789,789,789,789,789,789,789,789,789,789,789,789,789,789,789,789,789,789,789,789,789,789,789,789,789,789,789,789,789,789,789,789,789,789,789,789,789,789,789,789,789,790,792,792,792,792,792,792,792,794,795,795,795,795,795,795,795,795,795,795,795,795,795,795,795,795,795,795,795,795,795,795,795,795,795,795,795,795,795,795,795,795,795,795,795,795,795,795,795,795,795,795,795,795,795,795,795,795,795,795,795,795,795,795,795,795,795,795,795,795,795,795,795,795,795,795,795,795,795,797,800,803,806,811,812,812,812,812,812,812,812,812,812,812,812,812,812,812,812,812,812,812,812,812,812,812,812,812,812,812,812,812,812,812,812,812,812,812,812,812,812,812,812,812,812,812,812,812,812,812,812,812,812,812,812,812,812,812,812,812,812,812,812,812,812,812,812,812,812,812,812,812,812,812,812,812,812,812,812,812,812,812,812,812,812,812,812,812,812,812,812,812,812,812,812,812,812,812,812,812,812,812,812,812,812,812,812,812,812,812,812,812,812,812,812,812,812,812,812,812,812,812,812,812,812,812,812,812,812,812,813,813,813,813,813,813,813,813,813,813,813,813,813,813,813,813,813,813,813,813,813,813,813,813,813,813,813,813,813,813,813,813,813,813,816,820,826,834,865,896,914,930,941,948,966,975,985,997,1018,1028,1034,1042,1046,1049,1050,1051,1054,1060,1072,1082,1086,1087,1088,1088,1088,1088,1088,1088,1088],"ymouse":[664,664,664,664,664,664,664,664,664,664,664,664,664,664,664,664,664,664,664,664,664,664,664,664,664,664,664,664,664,664,664,664,664,664,664,664,664,664,664,664,664,664,664,664,664,664,664,664,664,664,664,664,664,663,656,650,650,650,650,642,632,622,618,615,614,613,613,613,613,613,613,613,613,613,613,613,613,613,613,613,613,613,613,613,613,613,613,613,613,613,613,613,613,613,613,613,613,613,613,613,613,613,613,613,613,613,613,613,613,613,613,613,613,613,613,613,613,613,613,613,613,613,613,613,613,613,613,613,613,613,613,610,607,603,599,594,593,593,593,593,593,593,593,593,593,593,593,593,593,593,593,593,593,593,593,593,593,593,593,593,593,593,593,593,593,593,593,593,593,593,593,593,593,593,593,593,593,593,593,593,593,593,593,593,593,593,593,593,593,593,593,593,593,593,593,593,593,593,593,593,593,593,593,593,593,593,593,593,593,593,593,593,593,593,593,593,593,593,593,593,593,593,593,593,593,593,593,593,593,593,593,593,593,593,593,593,593,593,593,593,593,593,593,593,593,593,593,593,593,593,593,593,593,593,593,593,593,593,593,593,593,593,592,592,592,592,592,592,592,592,592,592,592,592,592,592,592,592,592,592,592,592,592,592,592,592,592,592,592,592,592,592,592,592,592,592,589,584,574,563,527,494,480,470,466,463,452,444,432,417,390,372,361,344,333,322,311,300,288,275,253,237,225,213,196,163,147,132,121,110,93],"timestamp_mouse":[10,43,50,69,88,109,128,149,170,190,209,229,248,269,289,309,329,349,370,389,409,429,450,470,488,508,529,548,570,590,609,629,648,668,690,710,729,748,769,790,810,828,850,868,890,909,928,949,968,989,1010,1029,1050,1069,1089,1110,1128,1149,1169,1189,1209,1229,1249,1269,1289,1309,1328,1350,1370,1389,1410,1429,1450,1468,1490,1510,1529,1549,1570,1590,1610,1629,1649,1669,1690,1709,1728,1750,1769,1789,1810,1828,1850,1870,1889,1909,1928,1949,1970,1989,2009,2028,2048,2069,2089,2108,2129,2149,2169,2188,2210,2229,2249,2269,2289,2310,2328,2350,2369,2389,2409,2429,2449,2468,2489,2509,2528,2549,2570,2588,2610,2628,2648,2668,2688,2709,2728,2750,2769,2788,2808,2829,2850,2869,2889,2910,2928,2950,2970,2989,3009,3028,3049,3069,3089,3110,3129,3149,3170,3189,3210,3228,3250,3270,3288,3310,3328,3350,3370,3389,3410,3429,3449,3470,3489,3509,3529,3549,3569,3589,3609,3629,3648,3668,3689,3710,3729,3749,3769,3788,3810,3828,3850,3868,3889,3909,3929,3950,3969,3989,4009,4029,4049,4069,4088,4110,4129,4149,4170,4190,4210,4228,4250,4270,4289,4310,4328,4349,4369,4390,4408,4429,4449,4470,4488,4510,4529,4549,4568,4590,4609,4629,4649,4669,4689,4710,4730,4749,4770,4789,4809,4828,4850,4868,4888,4910,4928,4949,4969,4990,5009,5029,5048,5069,5090,5110,5129,5150,5169,5188,5208,5229,5249,5268,5288,5309,5329,5349,5370,5388,5410,5429,5449,5469,5490,5509,5529,5549,5570,5588,5610,5629,5648,5668,5689,5709,5728,5748,5770,5789,5810,5829,5848,5870,5890,5910,5929,5948,5969,5989,6009,6028,6048,6068,6088,6108,6129,6149,6169,6188,6209,6229,6249,6268,6288,6309,6329,6350,6369,6389,6409,6428,6449,6469,6488,6509,6528,6548,6568,6589,6609],"xSR":741.5,"ySR":573.95,"xT1":424.9,"yT1":0,"xT2":1058.1,"yT2":0,"toosoon":0,"cond_shown":"equaldotsize","ratio_trial":750,"smaller_num":"3","larger_num":"4","correct_side":2,"subjID":"LunaBenavides17","gender":"1","age":"11","school":"6"},{"start_time":1551892909492,"click_time":1551892911169,"finger_time":1551892910529,"fix_duration":1282.7909023696538,"trial":13,"RT":1037,"MT":640,"sideResp":2,"stimulus":"img/750/equaldotanddens/R/11_Ratio_750_L_12_R_16.png","xmouse":[780,780,780,780,780,780,780,780,780,780,780,780,780,780,780,780,780,780,780,780,780,780,780,780,780,780,780,780,780,780,780,780,780,780,780,780,780,780,780,780,780,780,780,780,780,780,780,780,788,799,810,827,828,828,828,828,828,828,828,830,833,833,833,833,834,836,890,926,955,981,1007,1059,1092,1100,1103,1103,1103,1105,1106,1106,1106,1101,1099,1098],"ymouse":[617,617,617,617,617,617,617,617,617,617,617,617,617,617,617,617,617,617,617,617,617,617,617,617,617,617,617,617,617,617,617,617,617,617,617,617,617,617,617,617,617,617,617,617,617,617,617,614,606,596,584,568,567,567,567,567,567,567,566,564,562,562,562,562,561,559,512,479,440,408,379,304,255,236,219,207,195,187,175,164,154,128,108,99],"timestamp_mouse":[17,37,57,77,97,117,138,156,177,198,217,236,257,277,297,317,337,357,377,398,417,438,456,477,497,518,538,556,576,597,617,638,656,677,698,717,737,757,777,798,817,838,856,878,897,917,936,956,977,997,1017,1037,1057,1077,1097,1117,1137,1157,1178,1197,1216,1238,1256,1278,1297,1317,1337,1357,1376,1397,1416,1438,1456,1477,1497,1517,1537,1557,1577,1597,1617,1637,1656,1677],"xSR":741.5,"ySR":573.95,"xT1":424.9,"yT1":0,"xT2":1058.1,"yT2":0,"toosoon":0,"cond_shown":"equaldotanddens","ratio_trial":750,"smaller_num":"12","larger_num":"16","correct_side":2,"subjID":"LunaBenavides17","gender":"1","age":"11","school":"6"},{"start_time":1551892912860,"click_time":1551892914349,"finger_time":1551892914090,"fix_duration":409.4654509013749,"trial":14,"RT":1230,"MT":259,"sideResp":2,"stimulus":"img/900/equaldotanddens/L/2_Ratio_900_L_20_R_18.png","xmouse":[792,792,792,792,792,792,792,792,792,792,792,792,792,792,792,792,792,792,792,792,792,792,792,792,792,792,792,792,792,792,792,792,792,792,792,792,792,792,792,792,792,792,792,792,792,792,792,792,792,792,792,792,792,792,792,792,792,792,792,795,810,835,876,981,1074,1117,1139,1150,1155,1158,1158,1158,1158,1155,1153],"ymouse":[608,608,608,608,608,608,608,608,608,608,608,608,608,608,608,608,608,608,608,608,608,608,608,608,608,608,608,608,608,608,608,608,608,608,608,608,608,608,608,608,608,608,608,608,608,608,608,608,608,608,608,608,608,608,608,608,608,608,608,604,592,572,537,423,345,306,286,270,257,223,204,180,155,104,99],"timestamp_mouse":[11,38,49,69,89,109,129,150,170,188,210,229,249,270,289,308,330,348,368,388,409,428,448,470,488,508,528,550,569,588,609,629,649,669,689,709,730,748,770,788,808,830,849,870,889,908,930,949,969,989,1008,1029,1049,1068,1088,1108,1129,1148,1170,1188,1209,1230,1249,1269,1289,1309,1329,1348,1368,1389,1408,1429,1449,1468,1489],"xSR":741.5,"ySR":573.95,"xT1":424.9,"yT1":0,"xT2":1058.1,"yT2":0,"toosoon":0,"cond_shown":"equaldotanddens","ratio_trial":900,"smaller_num":"18","larger_num":"20","correct_side":1,"subjID":"LunaBenavides17","gender":"1","age":"11","school":"6"},{"start_time":1551892916382,"click_time":1551892920529,"finger_time":1551892920088,"fix_duration":752.3099403421668,"trial":15,"RT":3706,"MT":441,"sideResp":1,"stimulus":"img/900/randomdotsizeEA/R/7_Ratio_900_L_9_R_10.png","xmouse":[793,793,793,793,793,793,793,793,793,793,793,793,793,793,793,793,793,793,793,793,793,793,793,793,793,793,793,793,793,793,793,793,793,793,793,793,793,793,793,793,793,793,793,793,793,793,793,793,793,793,793,793,793,793,793,793,793,793,793,793,793,793,793,793,793,793,793,793,793,793,793,793,793,793,793,793,793,793,793,793,793,793,793,793,793,793,793,793,793,793,793,793,793,793,793,793,793,793,793,793,793,793,793,793,793,793,793,793,793,793,793,793,793,793,793,793,793,793,793,793,793,793,793,793,793,793,793,793,793,793,793,793,793,793,793,793,793,793,793,793,793,793,793,793,793,793,793,793,793,793,793,793,793,793,793,793,793,793,793,793,793,793,793,793,793,793,793,793,793,793,793,793,793,793,793,793,793,793,793,793,793,793,793,787,777,754,732,686,645,619,602,593,571,556,549,545,542,534,522,510,502,499,499,498,497,497,497,497],"ymouse":[612,612,612,612,612,612,612,612,612,612,612,612,612,612,612,612,612,612,612,612,612,612,612,612,612,612,612,612,612,612,612,612,612,612,612,612,612,612,612,612,612,612,612,612,612,612,612,612,612,612,612,612,612,612,612,612,612,612,612,612,612,612,612,612,612,612,612,612,612,612,612,612,612,612,612,612,612,612,612,612,612,612,612,612,612,612,612,612,612,612,612,612,612,612,612,612,612,612,612,612,612,612,612,612,612,612,612,612,612,612,612,612,612,612,612,612,612,612,612,612,612,612,612,612,612,612,612,612,612,612,612,612,612,612,612,612,612,612,612,612,612,612,612,612,612,612,612,612,612,612,612,612,612,612,612,612,612,612,612,612,612,612,612,612,612,612,612,612,612,612,612,612,612,612,612,612,612,612,612,612,612,612,612,603,585,531,470,357,264,223,199,185,164,153,148,143,139,131,125,120,118,116,116,116,115,112,108,96],"timestamp_mouse":[8,42,46,67,86,107,126,147,167,188,207,227,248,267,286,306,326,346,367,387,408,428,447,466,486,506,528,546,566,588,607,626,648,666,686,708,727,747,766,788,808,827,846,867,887,908,928,947,967,986,1008,1027,1048,1067,1088,1106,1126,1148,1167,1188,1207,1226,1247,1266,1288,1308,1326,1348,1368,1386,1407,1428,1448,1467,1486,1506,1527,1547,1566,1586,1606,1626,1647,1666,1686,1707,1728,1747,1766,1787,1808,1828,1848,1866,1887,1908,1928,1947,1968,1986,2008,2027,2046,2067,2087,2106,2127,2146,2166,2187,2207,2227,2247,2267,2287,2307,2328,2346,2367,2387,2408,2426,2447,2467,2488,2508,2527,2548,2567,2587,2606,2628,2648,2668,2687,2707,2728,2747,2768,2788,2808,2826,2847,2866,2886,2907,2928,2948,2967,2987,3006,3028,3047,3067,3087,3107,3127,3147,3166,3187,3208,3226,3246,3267,3288,3308,3327,3348,3368,3386,3408,3427,3448,3466,3488,3507,3526,3547,3567,3587,3606,3626,3647,3666,3687,3706,3727,3747,3766,3787,3806,3827,3847,3866,3886,3906,3928,3947,3967,3987,4006,4028,4047,4066,4088,4108,4126,4147],"xSR":741.5,"ySR":573.95,"xT1":424.9,"yT1":0,"xT2":1058.1,"yT2":0,"toosoon":0,"cond_shown":"randomdotsizeEA","ratio_trial":900,"smaller_num":"9","larger_num":"10","correct_side":2,"subjID":"LunaBenavides17","gender":"1","age":"11","school":"6"},{"start_time":1551892924121,"click_time":1551892925029,"finger_time":1551892924930,"fix_duration":1331.9497975733557,"trial":16,"RT":809,"MT":99,"sideResp":1,"stimulus":"img/250/equaldotanddens/L/14_Ratio_250_L_12_R_3.png","xmouse":[786,786,786,786,786,786,786,786,786,786,786,786,786,786,786,786,786,786,786,786,786,786,786,786,786,786,786,786,786,786,786,786,786,786,786,786,786,786,786,782,736,676,628,581,541,481],"ymouse":[632,632,632,632,632,632,632,632,632,632,632,632,632,632,632,632,632,632,632,632,632,632,632,632,632,632,632,632,632,632,632,632,632,632,632,632,632,632,632,624,553,434,339,249,167,70],"timestamp_mouse":[8,32,47,68,89,108,128,149,167,189,208,228,247,269,287,307,328,348,367,389,407,427,449,467,489,509,529,547,568,589,608,627,649,668,688,709,729,748,767,788,809,827,848,868,888,908],"xSR":741.5,"ySR":573.95,"xT1":424.9,"yT1":0,"xT2":1058.1,"yT2":0,"toosoon":0,"cond_shown":"equaldotanddens","ratio_trial":250,"smaller_num":"3","larger_num":"12","correct_side":1,"subjID":"LunaBenavides17","gender":"1","age":"11","school":"6"},{"start_time":1551892927245,"click_time":1551892929069,"finger_time":1551892928749,"fix_duration":1455.9346330202652,"trial":17,"RT":1504,"MT":320,"sideResp":2,"stimulus":"img/900/equaldotsize/R/15_Ratio_900_L_9_R_10.png","xmouse":[769,769,769,769,769,769,769,769,769,769,769,770,770,770,771,771,771,772,772,772,772,772,772,772,772,772,772,772,772,772,772,772,772,772,772,772,772,772,772,772,772,772,772,772,772,772,772,772,772,772,776,780,783,783,783,783,783,783,783,783,783,783,783,783,783,783,783,783,783,783,783,783,783,786,793,839,877,915,941,986,998,1003,1006,1010,1022,1025,1034,1045,1061,1103,1121,1133],"ymouse":[594,594,594,594,594,594,594,594,594,594,594,594,594,594,595,597,597,598,598,598,598,598,598,598,598,598,598,598,598,598,598,598,598,598,598,598,598,598,598,598,598,598,598,598,598,598,598,598,598,598,594,588,584,583,582,582,582,582,582,582,582,582,582,582,582,582,582,582,582,582,582,582,582,579,575,561,552,541,533,512,504,498,488,474,423,399,367,322,260,153,119,99],"timestamp_mouse":[9,38,44,63,84,103,125,143,164,185,203,223,243,263,285,303,324,344,364,385,403,423,444,464,484,503,523,544,563,583,604,625,644,665,685,704,723,745,764,783,804,823,844,865,885,904,925,944,964,985,1004,1023,1044,1064,1084,1103,1124,1144,1165,1185,1205,1224,1245,1265,1284,1304,1325,1345,1364,1385,1405,1424,1444,1465,1484,1504,1523,1544,1564,1584,1603,1624,1644,1664,1684,1704,1724,1743,1764,1784,1803,1824],"xSR":741.5,"ySR":573.95,"xT1":424.9,"yT1":0,"xT2":1058.1,"yT2":0,"toosoon":0,"cond_shown":"equaldotsize","ratio_trial":900,"smaller_num":"9","larger_num":"10","correct_side":2,"subjID":"LunaBenavides17","gender":"1","age":"11","school":"6"},{"start_time":1551892931551,"click_time":1551892932749,"finger_time":1551892932308,"fix_duration":820.2013788837228,"trial":18,"RT":757,"MT":441,"sideResp":2,"stimulus":"img/250/randomdotsizeEA/R/6_Ratio_250_L_6_R_24.png","xmouse":[809,809,809,809,809,809,809,809,809,809,809,809,809,809,809,809,809,809,809,809,809,809,809,809,809,809,809,809,809,809,809,809,809,809,809,821,834,862,943,1019,1062,1086,1098,1101,1101,1101,1101,1101,1101,1096,1093,1091,1090,1090,1091,1094,1097,1101,1118,1124],"ymouse":[602,602,602,602,602,602,602,602,602,602,602,602,602,602,602,602,602,602,602,602,602,602,602,602,602,602,602,602,602,602,602,602,602,602,602,599,596,585,549,503,474,450,431,413,378,357,336,312,288,253,246,241,238,229,219,204,186,160,104,79],"timestamp_mouse":[18,42,58,79,98,118,139,158,178,197,219,239,257,278,298,318,339,358,378,397,417,438,458,478,498,518,538,559,579,598,618,637,659,679,697,719,738,757,778,797,818,837,857,878,897,919,938,958,977,997,1017,1038,1057,1078,1098,1119,1138,1158,1178,1198],"xSR":741.5,"ySR":573.95,"xT1":424.9,"yT1":0,"xT2":1058.1,"yT2":0,"toosoon":0,"cond_shown":"randomdotsizeEA","ratio_trial":250,"smaller_num":"6","larger_num":"24","correct_side":2,"subjID":"LunaBenavides17","gender":"1","age":"11","school":"6"},{"start_time":1551892935069,"click_time":1551892936548,"finger_time":1551892935949,"fix_duration":1439.5452482988521,"trial":19,"RT":880,"MT":599,"sideResp":2,"stimulus":"img/900/equaldotsize/R/15_Ratio_900_L_9_R_10.png","xmouse":[803,803,803,803,803,803,803,803,803,803,803,803,803,803,803,803,803,803,803,803,803,803,803,803,803,803,803,803,803,803,803,803,803,803,803,803,803,803,803,803,803,803,805,812,918,948,969,984,999,1000,1003,1006,1010,1025,1040,1044,1044,1045,1051,1057,1064,1068,1072,1074,1074,1074,1074,1074,1074,1074,1075,1075,1075,1080,1082],"ymouse":[617,617,617,617,617,617,617,617,617,617,617,617,617,617,617,617,617,617,617,617,617,617,617,617,617,617,617,617,617,617,617,617,617,617,617,617,617,617,617,617,617,617,618,619,619,619,613,608,601,598,593,579,557,475,384,330,297,273,235,213,194,176,157,127,119,119,119,119,119,119,118,118,117,102,96],"timestamp_mouse":[1,19,40,60,80,100,120,141,161,179,200,219,239,260,280,300,319,340,361,379,401,419,440,459,480,499,519,541,561,580,599,621,639,660,679,700,721,740,760,780,800,819,840,860,880,900,921,940,960,980,999,1020,1040,1060,1079,1100,1119,1139,1160,1179,1199,1221,1240,1260,1279,1300,1321,1340,1360,1380,1400,1419,1440,1460,1479],"xSR":741.5,"ySR":573.95,"xT1":424.9,"yT1":0,"xT2":1058.1,"yT2":0,"toosoon":0,"cond_shown":"equaldotsize","ratio_trial":900,"smaller_num":"9","larger_num":"10","correct_side":2,"subjID":"LunaBenavides17","gender":"1","age":"11","school":"6"},{"start_time":1551892939365,"click_time":1551892940550,"finger_time":1551892940129,"fix_duration":432.172807842501,"trial":20,"RT":764,"MT":421,"sideResp":1,"stimulus":"img/750/equaldotsize/L/1_Ratio_750_L_20_R_15.png","xmouse":[771,771,771,771,771,771,771,771,771,771,771,771,771,771,771,771,771,771,771,771,771,771,771,771,771,771,771,771,771,771,771,771,771,771,771,771,760,749,719,630,587,551,519,492,459,450,448,448,448,452,456,460,461,463,464,464,465,466,466,467],"ymouse":[629,629,629,629,629,629,629,629,629,629,629,629,629,629,629,629,629,629,629,629,629,629,629,629,629,629,629,629,629,629,629,629,629,629,629,629,621,614,593,506,460,419,379,338,249,220,198,186,178,167,158,148,142,133,129,125,119,112,104,79],"timestamp_mouse":[10,35,44,64,84,104,125,145,163,184,204,223,243,264,284,304,323,343,364,384,405,424,445,464,484,505,524,544,564,584,604,623,645,665,683,704,723,744,764,784,804,825,844,863,883,903,924,944,964,984,1004,1024,1043,1064,1084,1105,1124,1143,1164,1185],"xSR":741.5,"ySR":573.95,"xT1":424.9,"yT1":0,"xT2":1058.1,"yT2":0,"toosoon":0,"cond_shown":"equaldotsize","ratio_trial":750,"smaller_num":"15","larger_num":"20","correct_side":1,"subjID":"LunaBenavides17","gender":"1","age":"11","school":"6"},{"start_time":1551892942575,"click_time":1551892943489,"finger_time":1551892943248,"fix_duration":1284.9976437335883,"trial":21,"RT":673,"MT":241,"sideResp":2,"stimulus":"img/900/equaldotanddens/R/11_Ratio_900_L_18_R_20.png","xmouse":[782,782,782,782,782,782,782,782,782,782,782,782,782,782,782,782,782,782,782,782,782,782,782,782,782,782,782,782,782,782,782,782,795,842,918,987,1044,1086,1144,1155,1157,1157,1151,1143,1136,1131],"ymouse":[605,605,605,605,605,605,605,605,605,605,605,605,605,605,605,605,605,605,605,605,605,605,605,605,605,605,605,605,605,605,605,605,608,610,610,597,579,559,455,377,298,235,160,131,107,85],"timestamp_mouse":[24,34,54,74,93,115,134,155,174,195,215,233,254,274,295,313,334,355,374,393,415,435,455,473,494,515,533,555,573,593,614,635,654,673,694,714,734,754,773,794,814,834,855,874,895,913],"xSR":741.5,"ySR":573.95,"xT1":424.9,"yT1":0,"xT2":1058.1,"yT2":0,"toosoon":0,"cond_shown":"equaldotanddens","ratio_trial":900,"smaller_num":"18","larger_num":"20","correct_side":2,"subjID":"LunaBenavides17","gender":"1","age":"11","school":"6"},{"start_time":1551892945449,"click_time":1551892947629,"finger_time":1551892947129,"fix_duration":900.7681253649703,"trial":22,"RT":1680,"MT":500,"sideResp":2,"stimulus":"img/500/equaldotanddens/R/12_Ratio_500_L_1_R_2.png","xmouse":[794,794,794,794,794,794,794,794,794,794,794,794,794,794,794,794,794,794,794,794,794,794,794,794,794,794,794,794,794,794,794,794,794,794,794,794,794,794,794,794,794,794,794,794,794,794,794,794,794,794,794,794,794,794,794,794,794,794,794,794,794,794,794,794,794,794,794,794,794,794,794,794,794,794,794,794,794,794,797,806,818,829,841,852,872,878,886,892,900,906,913,920,930,951,971,986,1000,1011,1029,1038,1041,1044,1047,1053,1092,1117,1140,1150,1155],"ymouse":[644,644,644,644,644,644,644,644,644,644,644,644,644,644,644,644,644,644,644,644,644,644,644,644,644,644,644,644,644,644,644,644,644,644,644,644,644,644,644,644,644,644,644,644,644,644,644,644,644,644,644,644,644,644,644,644,644,644,644,644,644,644,644,644,644,644,644,644,644,644,644,644,644,644,644,644,644,644,645,646,646,646,639,631,619,617,613,610,602,591,580,571,562,554,545,538,529,519,495,484,480,475,466,449,341,279,213,156,50],"timestamp_mouse":[34,39,60,81,99,121,141,160,179,200,220,240,260,281,301,320,340,361,380,401,419,440,460,481,499,521,541,560,580,600,621,641,660,681,701,720,740,760,781,801,819,841,859,881,899,919,941,959,979,1000,1020,1039,1059,1081,1099,1121,1141,1159,1180,1199,1219,1240,1260,1279,1300,1321,1339,1360,1381,1400,1420,1440,1460,1481,1500,1519,1541,1559,1580,1599,1621,1640,1660,1680,1700,1720,1740,1760,1780,1799,1819,1840,1860,1880,1900,1919,1940,1960,1980,1999,2021,2040,2060,2079,2099,2120,2139,2160,2180],"xSR":741.5,"ySR":573.95,"xT1":424.9,"yT1":0,"xT2":1058.1,"yT2":0,"toosoon":0,"cond_shown":"equaldotanddens","ratio_trial":500,"smaller_num":"1","larger_num":"2","correct_side":2,"subjID":"LunaBenavides17","gender":"1","age":"11","school":"6"},{"start_time":1551892951338,"click_time":1551892952729,"finger_time":1551892952210,"fix_duration":1188.4385042588087,"trial":23,"RT":872,"MT":519,"sideResp":2,"stimulus":"img/750/equaldotsize/R/2_Ratio_750_L_6_R_8.png","xmouse":[800,800,800,800,800,800,800,800,800,800,800,800,800,800,800,800,800,800,800,800,800,800,800,800,800,800,800,800,800,800,800,800,800,800,800,800,800,800,800,800,802,810,825,843,885,913,938,963,976,988,999,1000,1001,1004,1011,1016,1021,1025,1028,1037,1050,1058,1070,1077,1086,1086,1086,1086,1087,1093],"ymouse":[627,627,627,627,627,627,627,627,627,627,627,627,627,627,627,627,627,627,627,627,627,627,627,627,627,627,627,627,627,627,627,627,627,627,627,627,627,627,627,627,626,626,621,614,582,554,511,455,406,365,311,298,290,273,233,216,201,190,184,169,153,141,129,118,109,109,109,109,108,89],"timestamp_mouse":[11,37,51,72,92,112,131,151,172,192,210,232,251,270,290,311,331,350,372,392,410,432,451,471,492,512,531,551,570,591,611,631,652,671,690,710,731,751,770,792,811,830,851,872,891,911,931,952,972,991,1010,1031,1051,1071,1091,1110,1131,1150,1171,1191,1212,1231,1250,1271,1291,1311,1331,1351,1370,1391],"xSR":741.5,"ySR":573.95,"xT1":424.9,"yT1":0,"xT2":1058.1,"yT2":0,"toosoon":0,"cond_shown":"equaldotsize","ratio_trial":750,"smaller_num":"6","larger_num":"8","correct_side":2,"subjID":"LunaBenavides17","gender":"1","age":"11","school":"6"},{"start_time":1551892954667,"click_time":1551892958749,"finger_time":1551892958229,"fix_duration":936.6507806593776,"trial":24,"RT":3562,"MT":520,"sideResp":2,"stimulus":"img/250/randomdotsizeEA/L/1_Ratio_250_L_8_R_2.png","xmouse":[800,800,800,800,800,800,800,800,800,800,800,800,800,800,800,800,800,800,800,800,800,800,800,800,800,800,800,800,800,800,800,800,800,800,800,800,800,800,800,800,800,800,800,800,800,800,800,800,800,800,800,800,800,800,800,800,800,800,800,800,800,800,800,800,800,800,800,800,800,800,800,800,800,800,800,800,800,800,800,800,800,800,800,800,800,800,800,800,800,800,800,800,800,800,800,800,800,800,800,800,800,800,800,800,800,800,800,800,800,800,800,800,800,800,800,800,800,800,800,800,800,800,800,800,800,800,800,800,800,800,800,800,800,800,800,800,800,800,800,800,800,800,800,800,800,800,800,800,800,800,800,800,800,800,800,800,800,800,800,800,800,800,800,800,800,800,800,800,800,800,800,800,800,800,800,800,801,810,872,904,937,963,988,1021,1029,1033,1036,1039,1045,1048,1050,1051,1051,1057,1069,1078,1087,1091,1093,1094,1096,1099,1103,1106,1109],"ymouse":[608,608,608,608,608,608,608,608,608,608,608,608,608,608,608,608,608,608,608,608,608,608,608,608,608,608,608,608,608,608,608,608,608,608,608,608,608,608,608,608,608,608,608,608,608,608,608,608,608,608,608,608,608,608,608,608,608,608,608,608,608,608,608,608,608,608,608,608,608,608,608,608,608,608,608,608,608,608,608,608,608,608,608,608,608,608,608,608,608,608,608,608,608,608,608,608,608,608,608,608,608,608,608,608,608,608,608,608,608,608,608,608,608,608,608,608,608,608,608,608,608,608,608,608,608,608,608,608,608,608,608,608,608,608,608,608,608,608,608,608,608,608,608,608,608,608,608,608,608,608,608,608,608,608,608,608,608,608,608,608,608,608,608,608,608,608,608,608,608,608,608,608,608,608,608,608,607,603,568,550,528,508,489,434,406,380,359,339,303,285,275,263,250,227,212,199,186,180,174,171,164,152,141,127,95],"timestamp_mouse":[3,22,43,62,82,102,122,142,162,182,202,222,242,262,282,301,321,342,362,381,401,422,442,462,482,503,522,541,563,582,603,621,641,662,682,701,721,743,763,783,803,822,841,863,881,903,922,941,963,983,1002,1022,1043,1063,1082,1102,1121,1142,1162,1182,1201,1222,1243,1261,1283,1303,1323,1342,1361,1381,1401,1423,1441,1461,1482,1503,1522,1541,1562,1581,1602,1623,1643,1663,1681,1703,1723,1743,1762,1781,1801,1823,1843,1862,1883,1901,1922,1942,1962,1982,2002,2021,2043,2063,2081,2102,2122,2142,2163,2181,2202,2223,2242,2263,2281,2301,2323,2342,2362,2381,2402,2423,2441,2462,2482,2502,2522,2541,2562,2582,2602,2622,2641,2661,2683,2702,2723,2741,2762,2782,2803,2822,2842,2862,2882,2902,2922,2942,2961,2982,3001,3023,3041,3063,3083,3103,3122,3142,3161,3181,3203,3221,3243,3263,3281,3302,3322,3343,3363,3381,3401,3423,3442,3463,3482,3502,3521,3542,3562,3582,3602,3622,3643,3662,3682,3702,3722,3742,3762,3781,3802,3822,3843,3862,3883,3902,3922,3942,3962,3981,4002,4022,4042,4061,4082],"xSR":741.5,"ySR":573.95,"xT1":424.9,"yT1":0,"xT2":1058.1,"yT2":0,"toosoon":0,"cond_shown":"randomdotsizeEA","ratio_trial":250,"smaller_num":"2","larger_num":"8","correct_side":1,"subjID":"LunaBenavides17","gender":"1","age":"11","school":"6"},{"start_time":1551892960852,"click_time":1551892961908,"finger_time":1551892961469,"fix_duration":1301.7818111479583,"trial":25,"RT":617,"MT":439,"sideResp":2,"stimulus":"img/250/equaldotanddens/R/9_Ratio_250_L_3_R_12.png","xmouse":[811,811,811,811,811,811,811,811,811,811,811,811,811,811,811,811,811,811,811,811,811,811,811,811,811,811,811,811,816,830,854,883,920,1002,1039,1049,1056,1058,1058,1053,1050,1049,1049,1049,1049,1050,1050,1050,1050,1051,1053,1057,1060],"ymouse":[638,638,638,638,638,638,638,638,638,638,638,638,638,638,638,638,638,638,638,638,638,638,638,638,638,638,638,638,634,614,579,531,467,340,276,249,227,212,167,149,129,109,93,76,73,72,72,72,72,72,71,69,67],"timestamp_mouse":[17,40,57,77,97,118,138,156,178,196,217,236,258,278,298,317,337,358,377,397,418,438,456,478,496,516,537,556,578,597,617,637,657,677,697,717,738,757,777,796,816,837,858,877,897,917,936,957,977,998,1018,1037,1056],"xSR":741.5,"ySR":573.95,"xT1":424.9,"yT1":0,"xT2":1058.1,"yT2":0,"toosoon":0,"cond_shown":"equaldotanddens","ratio_trial":250,"smaller_num":"3","larger_num":"12","correct_side":2,"subjID":"LunaBenavides17","gender":"1","age":"11","school":"6"},{"start_time":1551892964589,"click_time":1551892965729,"finger_time":1551892965229,"fix_duration":418.973689230935,"trial":26,"RT":640,"MT":500,"sideResp":1,"stimulus":"img/250/equaldotsize/L/1_Ratio_250_L_8_R_2.png","xmouse":[798,798,798,798,798,798,798,798,798,798,798,798,798,798,798,798,798,798,798,798,798,798,798,798,798,798,798,798,798,798,798,787,673,604,537,471,421,376,368,368,368,368,368,368,372,377,382,394,397,397,397,397,397,397,399,407,414,449],"ymouse":[652,652,652,652,652,652,652,652,652,652,652,652,652,652,652,652,652,652,652,652,652,652,652,652,652,652,652,652,652,652,648,637,516,426,338,260,204,153,142,142,141,138,126,119,111,105,99,91,88,88,88,88,88,88,86,79,72,52],"timestamp_mouse":[1,21,40,59,80,100,121,140,161,181,200,221,241,260,281,300,320,341,360,380,400,420,440,460,479,500,521,541,560,581,601,620,640,659,680,700,720,740,759,780,800,820,840,859,880,900,920,940,960,980,999,1020,1040,1061,1080,1100,1119,1140],"xSR":741.5,"ySR":573.95,"xT1":424.9,"yT1":0,"xT2":1058.1,"yT2":0,"toosoon":0,"cond_shown":"equaldotsize","ratio_trial":250,"smaller_num":"2","larger_num":"8","correct_side":1,"subjID":"LunaBenavides17","gender":"1","age":"11","school":"6"},{"start_time":1551892967913,"click_time":1551892969109,"finger_time":1551892968648,"fix_duration":1183.928068889363,"trial":27,"RT":735,"MT":461,"sideResp":1,"stimulus":"img/750/equaldotanddens/L/13_Ratio_750_L_8_R_6.png","xmouse":[795,795,795,795,795,795,795,795,795,795,795,795,795,795,795,795,795,795,795,795,795,795,795,795,795,795,795,795,795,795,795,795,795,794,792,743,694,631,567,515,435,425,422,420,420,420,420,420,420,420,420,420,420,420,420,420,420,420,420,427],"ymouse":[631,631,631,631,631,631,631,631,631,631,631,631,631,631,631,631,631,631,631,631,631,631,631,631,631,631,631,631,631,631,631,631,631,631,631,593,536,454,364,278,150,134,126,123,122,122,122,122,122,122,122,122,122,122,122,122,122,121,111,96],"timestamp_mouse":[15,35,55,76,97,116,135,157,176,195,216,236,257,277,296,316,336,356,377,396,416,435,457,477,497,517,536,556,575,596,617,636,656,676,696,717,735,756,776,797,816,836,856,876,897,916,937,956,976,995,1017,1036,1056,1076,1096,1117,1136,1156,1176,1195],"xSR":741.5,"ySR":573.95,"xT1":424.9,"yT1":0,"xT2":1058.1,"yT2":0,"toosoon":0,"cond_shown":"equaldotanddens","ratio_trial":750,"smaller_num":"6","larger_num":"8","correct_side":1,"subjID":"LunaBenavides17","gender":"1","age":"11","school":"6"},{"start_time":1551892972741,"click_time":1551892974248,"finger_time":1551892973769,"fix_duration":1270.8976275260527,"trial":28,"RT":1028,"MT":479,"sideResp":1,"stimulus":"img/750/equaldotsize/L/8_Ratio_750_L_4_R_3.png","xmouse":[791,791,791,791,791,791,791,791,791,791,791,791,791,791,791,791,791,791,791,791,791,791,791,791,791,791,791,791,791,791,791,791,791,791,791,791,791,791,791,791,791,791,791,791,791,791,791,791,789,779,763,747,725,697,651,632,615,604,593,568,553,536,523,517,513,512,511,509,503,493,492,491,490,489,486,484],"ymouse":[647,647,647,647,647,647,647,647,647,647,647,647,647,647,647,647,647,647,647,647,647,647,647,647,647,647,647,647,647,647,647,647,647,647,647,647,647,647,647,647,647,647,647,647,647,647,647,647,645,623,583,541,487,423,312,269,231,210,194,168,159,150,144,143,143,143,142,141,137,131,130,129,127,122,104,93],"timestamp_mouse":[9,37,49,69,88,107,129,149,167,189,207,229,249,267,287,308,328,348,368,387,407,427,448,468,487,508,528,549,568,588,607,628,648,667,688,708,728,748,768,788,808,828,847,869,888,908,928,949,969,988,1009,1028,1047,1068,1087,1109,1127,1148,1168,1188,1209,1227,1248,1268,1288,1307,1327,1348,1368,1387,1409,1428,1449,1468,1488,1507],"xSR":741.5,"ySR":573.95,"xT1":424.9,"yT1":0,"xT2":1058.1,"yT2":0,"toosoon":0,"cond_shown":"equaldotsize","ratio_trial":750,"smaller_num":"3","larger_num":"4","correct_side":1,"subjID":"LunaBenavides17","gender":"1","age":"11","school":"6"},{"start_time":1551892976561,"click_time":1551892977749,"finger_time":1551892977289,"fix_duration":770.4775726250972,"trial":29,"RT":728,"MT":460,"sideResp":1,"stimulus":"img/250/equaldotsize/L/7_Ratio_250_L_8_R_2.png","xmouse":[785,785,785,785,785,785,785,785,785,785,785,785,785,785,785,785,785,785,785,785,785,785,785,785,785,785,785,785,785,785,785,782,781,777,763,750,735,722,710,681,670,659,645,618,601,589,578,570,558,548,540,535,529,520,516,513,511,508,499,491],"ymouse":[586,586,586,586,586,586,586,586,586,586,586,586,586,586,586,586,586,586,586,586,586,586,586,586,586,586,586,586,586,586,586,585,584,583,577,574,567,561,558,538,528,518,503,461,430,401,374,348,310,273,249,224,202,172,159,149,140,132,109,90],"timestamp_mouse":[19,32,49,69,87,107,128,149,169,188,208,228,247,268,288,308,329,347,367,388,409,429,449,468,488,509,528,547,568,588,607,628,648,667,687,709,728,748,767,788,808,829,849,868,888,908,928,947,968,988,1008,1027,1048,1068,1088,1109,1128,1147,1168,1188],"xSR":741.5,"ySR":573.95,"xT1":424.9,"yT1":0,"xT2":1058.1,"yT2":0,"toosoon":0,"cond_shown":"equaldotsize","ratio_trial":250,"smaller_num":"2","larger_num":"8","correct_side":1,"subjID":"LunaBenavides17","gender":"1","age":"11","school":"6"},{"start_time":1551892978981,"click_time":1551892979948,"finger_time":1551892979549,"fix_duration":250,"trial":30,"RT":568,"MT":399,"sideResp":2,"stimulus":"img/250/equaldotsize/R/13_Ratio_250_L_2_R_8.png","xmouse":[806,806,806,806,806,806,806,806,806,806,806,806,806,806,806,806,806,806,806,806,806,806,806,806,806,807,807,833,872,894,921,951,1020,1047,1066,1077,1088,1107,1109,1111,1112,1112,1110,1109,1109,1109,1109,1109,1108],"ymouse":[613,613,613,613,613,613,613,613,613,613,613,613,613,613,613,613,613,613,613,613,613,613,613,613,614,615,616,615,601,589,568,542,463,413,368,327,289,218,200,184,167,150,120,112,109,108,107,104,95],"timestamp_mouse":[8,43,47,68,89,109,129,148,168,189,209,227,249,267,288,308,328,348,368,389,409,428,449,469,488,507,528,548,568,588,609,628,648,681,688,708,727,747,768,788,809,828,848,867,889,908,927,948,967],"xSR":741.5,"ySR":573.95,"xT1":424.9,"yT1":0,"xT2":1058.1,"yT2":0,"toosoon":0,"cond_shown":"equaldotsize","ratio_trial":250,"smaller_num":"2","larger_num":"8","correct_side":2,"subjID":"LunaBenavides17","gender":"1","age":"11","school":"6"},{"start_time":1551892982044,"click_time":1551892983228,"finger_time":1551892982830,"fix_duration":1074.3016393076502,"trial":31,"RT":786,"MT":398,"sideResp":1,"stimulus":"img/900/randomdotsizeEA/R/5_Ratio_900_L_9_R_10.png","xmouse":[800,800,800,800,800,800,800,800,800,800,800,800,800,800,800,800,800,800,800,800,800,800,800,800,800,800,800,800,800,800,800,800,800,800,800,796,787,773,755,697,661,629,596,566,541,538,537,535,529,510,499,490,484,484,484,483,477,466,454,448],"ymouse":[640,640,640,640,640,640,640,640,640,640,640,640,640,640,640,640,640,640,640,640,640,640,640,640,640,640,640,640,640,640,640,640,640,640,640,640,639,635,625,574,527,473,410,357,299,292,290,284,270,210,171,151,140,139,139,138,132,118,105,99],"timestamp_mouse":[12,37,45,65,84,104,126,145,166,185,204,225,246,265,286,305,326,346,365,385,406,424,446,465,486,504,526,545,566,586,604,625,645,666,684,705,724,745,765,786,804,825,845,865,885,905,924,946,966,985,1004,1026,1045,1065,1086,1105,1125,1145,1166,1184],"xSR":741.5,"ySR":573.95,"xT1":424.9,"yT1":0,"xT2":1058.1,"yT2":0,"toosoon":0,"cond_shown":"randomdotsizeEA","ratio_trial":900,"smaller_num":"9","larger_num":"10","correct_side":2,"subjID":"LunaBenavides17","gender":"1","age":"11","school":"6"},{"start_time":1551892986974,"click_time":1551892988429,"finger_time":1551892988049,"fix_duration":1082.9024909154982,"trial":32,"RT":1075,"MT":380,"sideResp":2,"stimulus":"img/900/equaldotsize/L/2_Ratio_900_L_20_R_18.png","xmouse":[786,786,786,786,786,786,786,786,786,786,786,786,786,786,786,786,786,786,786,786,786,786,786,786,786,786,786,786,786,786,786,786,786,786,786,786,786,786,786,786,786,786,786,786,786,786,786,786,786,786,789,793,832,858,893,928,957,1000,1015,1021,1027,1032,1044,1053,1064,1080,1094,1106,1121,1125,1127,1132,1144],"ymouse":[625,625,625,625,625,625,625,625,625,625,625,625,625,625,625,625,625,625,625,625,625,625,625,625,625,625,625,625,625,625,625,625,625,625,625,625,625,625,625,625,625,625,625,625,625,625,625,625,625,625,624,622,605,591,570,546,523,479,458,441,424,409,367,339,301,256,217,191,150,136,126,112,77],"timestamp_mouse":[15,38,56,74,94,116,136,155,175,195,215,235,254,275,296,315,336,355,375,395,415,435,455,474,495,515,535,556,575,596,616,636,656,674,695,716,736,755,775,795,815,836,855,874,895,914,935,956,974,995,1016,1035,1055,1075,1094,1114,1136,1155,1175,1195,1214,1235,1255,1274,1295,1314,1336,1355,1375,1395,1416,1435,1455],"xSR":741.5,"ySR":573.95,"xT1":424.9,"yT1":0,"xT2":1058.1,"yT2":0,"toosoon":0,"cond_shown":"equaldotsize","ratio_trial":900,"smaller_num":"18","larger_num":"20","correct_side":1,"subjID":"LunaBenavides17","gender":"1","age":"11","school":"6"},{"start_time":1551892989782,"click_time":1551892991048,"finger_time":1551892990908,"fix_duration":250,"trial":33,"RT":1126,"MT":140,"sideResp":2,"stimulus":"img/900/equaldotsize/R/7_Ratio_900_L_9_R_10.png","xmouse":[781,781,781,781,781,781,781,781,781,781,781,781,781,781,781,781,781,781,781,781,781,781,781,781,781,781,781,781,781,781,781,781,781,781,781,781,781,781,781,781,781,781,781,781,781,781,781,781,781,781,781,781,784,796,812,835,862,932,979,1007,1041,1064,1081,1083],"ymouse":[638,638,638,638,638,638,638,638,638,638,638,638,638,638,638,638,638,638,638,638,638,638,638,638,638,638,638,638,638,638,638,638,638,638,638,638,638,638,638,638,638,638,638,638,638,638,638,638,638,638,638,638,635,628,615,597,568,462,368,301,223,164,114,99],"timestamp_mouse":[9,33,47,68,87,108,126,148,168,187,207,227,247,267,287,307,327,348,366,387,407,426,448,468,488,508,526,547,567,586,608,628,647,666,686,707,728,747,766,787,808,828,848,868,886,908,926,946,967,987,1007,1027,1048,1067,1088,1107,1126,1147,1166,1187,1208,1227,1248,1266],"xSR":741.5,"ySR":573.95,"xT1":424.9,"yT1":0,"xT2":1058.1,"yT2":0,"toosoon":0,"cond_shown":"equaldotsize","ratio_trial":900,"smaller_num":"9","larger_num":"10","correct_side":2,"subjID":"LunaBenavides17","gender":"1","age":"11","school":"6"},{"start_time":1551892992706,"click_time":1551892993709,"finger_time":1551892993429,"fix_duration":696.121556739899,"trial":34,"RT":723,"MT":280,"sideResp":2,"stimulus":"img/750/equaldotanddens/R/3_Ratio_750_L_15_R_20.png","xmouse":[814,814,814,814,814,814,814,814,814,814,814,814,814,814,814,814,814,814,814,814,814,814,814,814,814,814,814,814,814,814,814,814,814,814,814,820,881,944,1002,1060,1107,1153,1157,1157,1154,1150,1144,1142,1139,1137,1134],"ymouse":[602,602,602,602,602,602,602,602,602,602,602,602,602,602,602,602,602,602,602,602,602,602,602,602,602,602,602,602,602,602,602,602,602,602,602,596,526,455,386,321,274,218,202,191,177,163,134,120,108,101,94],"timestamp_mouse":[10,40,43,64,84,103,123,143,164,182,203,224,243,264,283,303,324,342,362,384,402,424,442,463,484,503,523,543,562,583,603,622,644,664,684,702,723,743,763,783,803,823,843,863,884,903,923,943,963,982,1003],"xSR":741.5,"ySR":573.95,"xT1":424.9,"yT1":0,"xT2":1058.1,"yT2":0,"toosoon":0,"cond_shown":"equaldotanddens","ratio_trial":750,"smaller_num":"15","larger_num":"20","correct_side":2,"subjID":"LunaBenavides17","gender":"1","age":"11","school":"6"},{"start_time":1551892996200,"click_time":1551892998349,"finger_time":1551892997989,"fix_duration":250,"trial":35,"RT":1789,"MT":360,"sideResp":1,"stimulus":"img/500/equaldotsize/R/1_Ratio_500_L_9_R_18.png","xmouse":[804,804,804,804,804,804,804,804,804,804,804,804,804,804,804,804,804,804,804,804,804,804,804,804,804,804,804,804,804,804,804,804,804,804,804,804,804,804,804,804,804,804,804,804,804,804,804,804,804,804,804,804,804,804,804,804,804,804,804,804,804,804,804,804,804,804,804,804,804,804,804,804,804,804,804,804,804,804,804,804,804,804,804,804,804,804,804,801,781,740,681,610,580,557,539,522,508,507,507,507,507,508,519,524,528,529,525,508],"ymouse":[629,629,629,629,629,629,629,629,629,629,629,629,629,629,629,629,629,629,629,629,629,629,629,629,629,629,629,629,629,629,629,629,629,629,629,629,629,629,629,629,629,629,629,629,629,629,629,629,629,629,629,629,629,629,629,629,629,629,629,629,629,629,629,629,629,629,629,629,629,629,629,629,629,629,629,629,629,629,629,629,629,629,629,629,629,629,629,629,629,626,613,565,528,484,438,401,368,366,366,361,347,326,259,221,186,163,115,85],"timestamp_mouse":[10,32,49,68,90,108,128,149,168,190,210,228,249,270,289,310,330,349,369,389,408,430,450,470,489,510,530,548,569,590,610,629,650,669,688,709,730,749,769,788,809,830,848,869,890,910,930,949,969,990,1010,1028,1049,1068,1090,1109,1130,1148,1170,1190,1210,1230,1249,1270,1289,1308,1329,1348,1370,1388,1409,1430,1449,1470,1489,1509,1528,1549,1570,1589,1608,1629,1648,1668,1689,1709,1728,1749,1768,1789,1808,1829,1849,1870,1889,1908,1929,1949,1969,1989,2009,2029,2048,2069,2088,2110,2129,2149],"xSR":741.5,"ySR":573.95,"xT1":424.9,"yT1":0,"xT2":1058.1,"yT2":0,"toosoon":0,"cond_shown":"equaldotsize","ratio_trial":500,"smaller_num":"9","larger_num":"18","correct_side":2,"subjID":"LunaBenavides17","gender":"1","age":"11","school":"6"},{"start_time":1551893000060,"click_time":1551893001329,"finger_time":1551893000829,"fix_duration":669.0321216793496,"trial":36,"RT":769,"MT":500,"sideResp":2,"stimulus":"img/900/equaldotsize/R/14_Ratio_900_L_18_R_20.png","xmouse":[827,827,827,827,827,827,827,827,827,827,827,827,827,827,827,827,827,827,827,827,827,827,827,827,827,827,827,827,827,827,827,827,827,827,827,827,827,836,865,890,925,960,996,1024,1030,1033,1037,1041,1049,1051,1051,1051,1051,1053,1054,1057,1059,1063,1070,1071,1073,1073,1074,1074],"ymouse":[624,624,624,624,624,624,624,624,624,624,624,624,624,624,624,624,624,624,624,624,624,624,624,624,624,624,624,624,624,624,624,624,624,624,624,624,624,620,597,572,545,515,480,429,410,386,357,329,274,249,225,203,191,187,180,169,158,148,131,125,118,111,105,98],"timestamp_mouse":[12,47,48,69,89,108,130,148,170,188,209,230,250,269,289,309,329,348,370,389,408,430,448,468,489,510,529,549,570,590,608,629,648,669,689,710,730,748,769,789,809,829,848,869,888,909,929,949,969,989,1010,1028,1050,1069,1089,1108,1130,1149,1169,1188,1208,1230,1249,1269],"xSR":741.5,"ySR":573.95,"xT1":424.9,"yT1":0,"xT2":1058.1,"yT2":0,"toosoon":0,"cond_shown":"equaldotsize","ratio_trial":900,"smaller_num":"18","larger_num":"20","correct_side":2,"subjID":"LunaBenavides17","gender":"1","age":"11","school":"6"},{"start_time":1551893004163,"click_time":1551893005369,"finger_time":1551893005048,"fix_duration":250,"trial":37,"RT":885,"MT":321,"sideResp":2,"stimulus":"img/900/equaldotanddens/L/1_Ratio_900_L_10_R_9.png","xmouse":[775,775,775,775,775,775,775,775,775,775,775,775,775,775,775,775,775,775,775,775,775,775,775,775,775,775,775,775,775,775,775,775,775,775,775,775,775,775,775,775,775,775,782,790,859,904,951,984,1043,1054,1062,1072,1083,1098,1104,1111,1118,1124,1130,1133,1133],"ymouse":[623,623,623,623,623,623,623,623,623,623,623,623,623,623,623,623,623,623,623,623,623,623,623,623,623,623,623,623,623,623,623,623,623,623,623,623,623,623,623,623,623,623,620,614,564,531,495,463,402,379,355,319,279,227,211,195,180,164,145,106,91],"timestamp_mouse":[8,37,46,66,87,106,127,145,166,185,205,226,246,265,286,306,326,346,366,385,406,426,447,466,486,505,527,547,566,586,606,627,645,665,686,706,726,747,767,785,806,827,845,866,885,907,926,946,966,985,1006,1026,1046,1066,1086,1105,1125,1146,1166,1187,1205],"xSR":741.5,"ySR":573.95,"xT1":424.9,"yT1":0,"xT2":1058.1,"yT2":0,"toosoon":0,"cond_shown":"equaldotanddens","ratio_trial":900,"smaller_num":"9","larger_num":"10","correct_side":1,"subjID":"LunaBenavides17","gender":"1","age":"11","school":"6"},{"start_time":1551893007402,"click_time":1551893008289,"finger_time":1551893008089,"fix_duration":1049.8526444039178,"trial":38,"RT":687,"MT":200,"sideResp":2,"stimulus":"img/500/equaldotanddens/R/9_Ratio_500_L_2_R_4.png","xmouse":[752,752,752,752,752,752,752,752,752,752,752,752,752,752,752,752,752,752,752,752,752,752,752,752,752,752,752,752,752,752,752,752,759,780,817,864,966,1027,1046,1057,1063,1071,1076,1079,1086],"ymouse":[616,616,616,616,616,616,616,616,616,616,616,616,616,616,616,616,616,616,616,616,616,616,616,616,616,616,616,616,616,616,616,617,615,600,573,530,393,303,264,237,213,162,135,108,84],"timestamp_mouse":[10,26,46,67,87,107,127,148,166,187,208,228,246,267,287,306,328,347,368,387,407,427,447,467,487,506,527,547,568,588,606,627,646,667,687,707,728,746,766,787,807,827,847,867,887],"xSR":741.5,"ySR":573.95,"xT1":424.9,"yT1":0,"xT2":1058.1,"yT2":0,"toosoon":0,"cond_shown":"equaldotanddens","ratio_trial":500,"smaller_num":"2","larger_num":"4","correct_side":2,"subjID":"LunaBenavides17","gender":"1","age":"11","school":"6"},{"start_time":1551893009481,"click_time":1551893010649,"finger_time":1551893010110,"fix_duration":250,"trial":39,"RT":629,"MT":539,"sideResp":2,"stimulus":"img/250/equaldotsize/R/13_Ratio_250_L_2_R_8.png","xmouse":[807,807,807,807,807,807,807,807,807,807,807,807,807,807,807,807,807,807,807,807,807,807,807,807,807,807,807,808,816,827,838,853,870,912,925,935,944,955,971,980,988,998,1014,1025,1031,1034,1036,1040,1045,1047,1047,1048,1049,1052,1056,1060,1064,1071,1075],"ymouse":[635,635,635,635,635,635,635,635,635,635,635,635,635,635,635,635,635,635,635,635,635,635,635,635,635,635,635,631,619,606,593,578,564,523,508,495,480,465,432,410,378,341,284,249,230,216,204,193,177,173,171,170,168,158,148,137,129,104,91],"timestamp_mouse":[10,32,48,68,87,109,127,149,169,189,208,228,248,268,287,308,328,349,367,388,409,427,448,468,488,509,528,548,567,588,608,629,648,668,688,707,727,748,768,788,808,828,848,868,888,909,928,948,967,989,1007,1027,1048,1068,1088,1109,1128,1148,1168],"xSR":741.5,"ySR":573.95,"xT1":424.9,"yT1":0,"xT2":1058.1,"yT2":0,"toosoon":0,"cond_shown":"equaldotsize","ratio_trial":250,"smaller_num":"2","larger_num":"8","correct_side":2,"subjID":"LunaBenavides17","gender":"1","age":"11","school":"6"},{"start_time":1551893012689,"click_time":1551893013929,"finger_time":1551893013549,"fix_duration":958.7681413578259,"trial":40,"RT":860,"MT":380,"sideResp":1,"stimulus":"img/500/randomdotsizeEA/L/8_Ratio_500_L_8_R_4.png","xmouse":[804,804,804,804,804,804,804,804,804,804,804,804,804,804,804,804,804,804,804,804,804,804,804,804,804,804,804,804,804,804,804,804,804,804,804,804,804,804,804,800,792,782,772,727,699,664,625,553,531,516,508,502,498,498,498,496,496,493,492,490,490,489,483],"ymouse":[592,592,592,592,592,592,592,592,592,592,592,592,592,592,592,592,592,592,592,592,592,592,592,592,592,592,592,592,592,592,592,592,592,592,592,592,592,592,592,594,597,597,597,562,529,484,434,328,288,264,246,233,216,205,195,178,156,128,119,114,109,105,59],"timestamp_mouse":[9,20,40,59,81,100,119,140,160,180,201,221,241,260,280,301,321,340,361,380,400,419,440,460,481,501,520,540,560,581,600,621,641,660,681,701,719,740,759,781,800,819,839,859,880,901,920,940,959,979,1000,1021,1040,1059,1080,1100,1120,1140,1159,1180,1200,1220,1240],"xSR":741.5,"ySR":573.95,"xT1":424.9,"yT1":0,"xT2":1058.1,"yT2":0,"toosoon":0,"cond_shown":"randomdotsizeEA","ratio_trial":500,"smaller_num":"4","larger_num":"8","correct_side":1,"subjID":"LunaBenavides17","gender":"1","age":"11","school":"6"},{"start_time":1551893015220,"click_time":1551893016708,"finger_time":1551893016289,"fix_duration":250,"trial":41,"RT":1069,"MT":419,"sideResp":1,"stimulus":"img/900/randomdotsizeEA/R/12_Ratio_900_L_18_R_20.png","xmouse":[773,773,773,773,773,773,773,773,773,773,773,773,773,773,773,773,773,773,773,773,773,773,773,773,773,773,773,773,773,773,773,773,773,773,773,773,773,773,773,773,773,773,773,773,773,773,773,773,773,773,773,773,753,726,696,684,651,637,625,615,597,588,577,567,559,554,542,534,522,502,452,441,439,439,439],"ymouse":[618,618,618,618,618,618,618,618,618,618,618,618,618,618,618,618,618,618,618,618,618,618,618,618,618,618,618,618,618,618,618,618,618,618,618,618,618,618,618,618,618,618,618,618,618,618,618,618,618,618,618,614,596,570,539,523,477,455,434,417,384,362,336,317,304,297,275,255,227,188,112,102,100,100,99],"timestamp_mouse":[8,28,48,69,88,110,130,148,169,189,210,229,249,270,289,309,329,349,368,389,410,430,448,469,488,508,528,550,568,589,610,630,648,670,689,710,728,749,769,789,808,829,848,869,889,909,929,949,969,988,1010,1028,1049,1069,1089,1109,1128,1148,1170,1189,1210,1229,1248,1268,1290,1309,1329,1349,1368,1389,1409,1428,1448,1468,1488],"xSR":741.5,"ySR":573.95,"xT1":424.9,"yT1":0,"xT2":1058.1,"yT2":0,"toosoon":0,"cond_shown":"randomdotsizeEA","ratio_trial":900,"smaller_num":"18","larger_num":"20","correct_side":2,"subjID":"LunaBenavides17","gender":"1","age":"11","school":"6"},{"start_time":1551893019621,"click_time":1551893023310,"finger_time":1551893022508,"fix_duration":529.8591369242621,"trial":42,"RT":2887,"MT":802,"sideResp":2,"stimulus":"img/250/equaldotsize/L/2_Ratio_250_L_16_R_4.png","xmouse":[773,772,772,772,772,772,772,772,772,772,772,772,772,772,772,772,772,772,772,772,772,772,772,772,772,772,772,772,772,772,772,772,772,772,772,772,772,772,772,772,772,772,772,772,772,772,772,772,772,772,772,772,772,772,772,772,772,772,772,772,772,772,772,772,772,772,772,772,772,772,772,772,772,772,772,772,772,772,772,772,772,772,772,772,772,772,772,772,772,772,772,772,772,772,772,772,772,772,772,772,772,772,772,772,772,772,772,772,772,772,772,772,772,771,770,762,761,761,761,761,761,761,761,761,761,761,761,761,761,761,761,761,761,761,761,761,761,761,761,761,765,786,830,881,1011,1067,1122,1171,1213,1282,1310,1332,1344,1347,1347,1345,1342,1342,1342,1341,1336,1331,1325,1317,1308,1286,1279,1269,1260,1243,1233,1224,1212,1204,1190,1188,1188,1188,1188,1186,1182,1174,1164,1147],"ymouse":[658,656,656,656,656,656,656,656,656,656,656,656,656,656,656,656,656,656,656,656,656,656,656,656,656,656,656,656,656,656,656,656,656,656,656,656,656,656,656,656,656,656,656,656,656,656,656,656,656,656,656,656,656,656,656,656,656,656,656,656,656,656,656,656,656,656,656,656,656,656,656,656,656,656,656,656,656,656,656,656,656,656,656,656,656,656,656,656,656,656,656,656,656,656,656,656,656,656,656,656,656,656,656,656,656,656,656,656,656,656,656,656,656,656,656,656,656,656,656,656,656,656,656,656,656,656,656,656,656,656,656,656,656,656,656,656,656,656,656,656,651,627,578,523,388,344,303,261,225,135,99,74,60,54,49,28,23,23,23,22,22,22,22,22,24,32,37,46,53,67,75,80,85,89,95,96,96,96,96,96,96,95,93,87],"timestamp_mouse":[33,49,69,88,109,127,148,168,187,207,228,248,269,289,309,327,349,368,389,408,428,448,467,487,508,528,547,569,589,609,629,647,669,687,709,729,747,768,789,809,827,848,867,889,909,928,948,969,989,1008,1029,1048,1067,1089,1109,1128,1147,1168,1189,1209,1228,1247,1267,1287,1309,1327,1348,1368,1387,1409,1427,1448,1469,1488,1508,1528,1547,1567,1587,1609,1627,1648,1669,1689,1708,1729,1747,1768,1789,1807,1828,1848,1867,1888,1907,1927,1948,1968,1989,2009,2027,2048,2068,2089,2108,2128,2148,2167,2187,2209,2228,2247,2267,2289,2308,2328,2349,2368,2388,2407,2428,2447,2468,2489,2508,2527,2549,2568,2588,2608,2627,2648,2668,2687,2708,2728,2749,2767,2787,2809,2827,2847,2867,2887,2908,2928,2947,2968,2988,3008,3028,3048,3067,3088,3107,3127,3148,3169,3187,3208,3227,3248,3267,3287,3307,3327,3347,3369,3388,3407,3427,3448,3467,3487,3507,3527,3548,3568,3588,3608,3627,3648,3667,3689],"xSR":741.5,"ySR":573.95,"xT1":424.9,"yT1":0,"xT2":1058.1,"yT2":0,"toosoon":0,"cond_shown":"equaldotsize","ratio_trial":250,"smaller_num":"4","larger_num":"16","correct_side":1,"subjID":"LunaBenavides17","gender":"1","age":"11","school":"6"},{"start_time":1551893025404,"click_time":1551893027290,"finger_time":1551893026270,"fix_duration":933.757892916682,"trial":43,"RT":866,"MT":1020,"sideResp":1,"stimulus":"img/750/randomdotsizeEA/L/14_Ratio_750_L_8_R_6.png","xmouse":[776,776,776,776,776,776,776,776,776,776,776,776,776,776,776,776,776,776,776,776,776,776,776,776,776,776,776,776,776,776,776,776,776,776,776,776,776,776,776,776,776,773,756,737,702,658,615,524,493,468,448,432,426,418,409,398,389,389,389,389,389,389,389,389,389,389,393,400,411,422,430,441,441,442,442,444,447,467,480,494,505,526,531,535,536,536,536,535,535,535,535,535,532,528,521],"ymouse":[653,653,653,653,653,653,653,653,653,653,653,653,653,653,653,653,653,653,653,653,653,653,653,653,653,653,653,653,653,653,653,653,653,653,653,653,653,653,653,653,653,653,650,644,626,594,562,479,456,438,427,417,411,400,379,350,318,318,318,318,318,317,317,317,317,317,312,303,282,263,249,234,234,234,234,234,234,231,223,213,200,172,160,148,136,124,112,108,107,106,106,106,104,100,98],"timestamp_mouse":[9,25,45,64,85,104,124,144,166,184,205,224,246,264,285,304,325,345,365,385,406,426,444,465,484,506,526,546,565,585,605,625,646,664,685,706,724,744,766,785,806,825,844,866,885,906,924,945,964,985,1004,1025,1044,1066,1085,1106,1125,1145,1165,1184,1205,1225,1246,1265,1285,1304,1325,1345,1365,1386,1405,1424,1445,1466,1485,1506,1524,1545,1564,1584,1604,1625,1644,1664,1685,1704,1724,1744,1765,1786,1806,1825,1845,1865,1886],"xSR":741.5,"ySR":573.95,"xT1":424.9,"yT1":0,"xT2":1058.1,"yT2":0,"toosoon":0,"cond_shown":"randomdotsizeEA","ratio_trial":750,"smaller_num":"6","larger_num":"8","correct_side":1,"subjID":"LunaBenavides17","gender":"1","age":"11","school":"6"},{"start_time":1551893029369,"click_time":1551893030529,"finger_time":1551893030029,"fix_duration":820.4808150504646,"trial":44,"RT":660,"MT":500,"sideResp":2,"stimulus":"img/500/equaldotsize/R/14_Ratio_500_L_5_R_10.png","xmouse":[814,814,814,814,814,814,814,814,814,814,814,814,814,814,814,814,814,814,814,814,814,814,814,814,814,814,814,814,814,814,814,820,886,931,967,989,1007,1054,1063,1065,1066,1066,1064,1063,1063,1060,1060,1060,1060,1060,1060,1061,1071,1074,1078,1081,1081,1084],"ymouse":[639,639,639,639,639,639,639,639,639,639,639,639,639,639,639,639,639,639,639,639,639,639,639,639,639,639,639,639,639,639,639,637,593,559,533,518,505,462,441,421,395,365,305,269,233,203,180,166,148,146,144,140,123,118,110,104,102,93],"timestamp_mouse":[21,45,60,81,100,119,139,161,179,199,219,240,261,280,300,319,341,361,379,401,419,439,461,480,500,520,540,560,580,600,619,639,660,679,699,720,741,760,779,800,821,840,860,879,901,920,940,960,979,999,1020,1040,1059,1079,1101,1120,1140,1159],"xSR":741.5,"ySR":573.95,"xT1":424.9,"yT1":0,"xT2":1058.1,"yT2":0,"toosoon":0,"cond_shown":"equaldotsize","ratio_trial":500,"smaller_num":"5","larger_num":"10","correct_side":2,"subjID":"LunaBenavides17","gender":"1","age":"11","school":"6"},{"start_time":1551893031821,"click_time":1551893033028,"finger_time":1551893032448,"fix_duration":250,"trial":45,"RT":627,"MT":580,"sideResp":1,"stimulus":"img/250/equaldotanddens/L/7_Ratio_250_L_8_R_2.png","xmouse":[810,810,810,810,810,810,810,810,810,810,810,810,810,810,810,810,810,810,810,810,810,810,810,810,810,810,810,810,806,801,752,700,651,616,597,557,544,536,533,532,532,532,532,532,532,529,526,522,519,513,499,489,483,480,480,480,479,479,479,479,479],"ymouse":[617,617,617,617,617,617,617,617,617,617,617,617,617,617,617,617,617,617,617,617,617,617,617,617,617,617,617,617,617,617,604,582,556,529,506,433,399,373,355,341,322,318,306,269,253,179,161,147,141,134,126,123,120,119,119,119,118,116,113,107,96],"timestamp_mouse":[15,39,48,68,88,108,128,148,168,189,208,227,248,269,288,309,327,347,369,389,407,427,449,469,487,509,529,547,568,588,608,627,647,668,689,708,730,748,769,789,807,829,849,868,888,907,928,948,967,987,1008,1028,1048,1067,1089,1108,1128,1147,1168,1188,1207],"xSR":741.5,"ySR":573.95,"xT1":424.9,"yT1":0,"xT2":1058.1,"yT2":0,"toosoon":0,"cond_shown":"equaldotanddens","ratio_trial":250,"smaller_num":"2","larger_num":"8","correct_side":1,"subjID":"LunaBenavides17","gender":"1","age":"11","school":"6"},{"start_time":1551893034339,"click_time":1551893035029,"finger_time":1551893034929,"fix_duration":250,"trial":46,"RT":590,"MT":100,"sideResp":1,"stimulus":"img/250/randomdotsizeEA/L/3_Ratio_250_L_8_R_2.png","xmouse":[795,795,795,795,795,795,795,795,795,795,795,795,795,795,795,795,795,795,795,795,795,795,795,795,795,795,793,786,776,693,621,550,500,476,461],"ymouse":[626,626,626,626,626,626,626,626,626,626,626,626,626,626,626,626,626,626,626,626,626,626,626,626,626,626,627,627,624,534,431,303,182,116,88],"timestamp_mouse":[12,31,50,70,89,110,130,149,169,191,210,229,251,269,291,311,330,350,370,390,411,429,451,469,490,509,529,550,571,590,611,629,650,669,689],"xSR":741.5,"ySR":573.95,"xT1":424.9,"yT1":0,"xT2":1058.1,"yT2":0,"toosoon":0,"cond_shown":"randomdotsizeEA","ratio_trial":250,"smaller_num":"2","larger_num":"8","correct_side":1,"subjID":"LunaBenavides17","gender":"1","age":"11","school":"6"},{"start_time":1551893036702,"click_time":1551893038309,"finger_time":1551893037609,"fix_duration":572.0968302496884,"trial":47,"RT":907,"MT":700,"sideResp":1,"stimulus":"img/500/randomdotsizeEA/L/8_Ratio_500_L_8_R_4.png","xmouse":[792,792,792,792,792,792,792,792,792,792,792,792,792,792,792,792,792,792,792,792,792,792,792,792,792,792,792,792,792,792,792,792,792,792,792,792,792,792,792,792,791,786,760,751,745,738,717,692,663,637,625,615,608,598,586,578,551,520,474,423,394,375,374,374,373,375,401,417,433,445,448,448,448,448,448,448,448,448,449,449,449],"ymouse":[603,603,603,603,603,603,603,603,603,603,603,603,603,603,603,603,603,603,603,603,603,603,603,603,603,603,603,603,603,603,603,603,603,603,603,603,603,603,603,603,603,603,597,590,584,577,545,497,444,395,358,297,271,247,226,212,184,162,130,100,84,71,71,71,70,66,29,8,0,0,0,0,0,0,0,0,0,0,0,0,2],"timestamp_mouse":[17,38,47,68,87,106,127,146,167,188,207,226,246,266,288,307,327,347,366,386,407,426,447,467,488,506,526,548,566,587,606,626,647,667,686,707,727,746,768,788,807,827,846,866,886,907,927,947,968,987,1007,1027,1046,1067,1088,1107,1127,1148,1166,1187,1207,1227,1247,1267,1287,1308,1326,1346,1368,1387,1407,1428,1447,1467,1487,1507,1527,1547,1568,1588,1607],"xSR":741.5,"ySR":573.95,"xT1":424.9,"yT1":0,"xT2":1058.1,"yT2":0,"toosoon":0,"cond_shown":"randomdotsizeEA","ratio_trial":500,"smaller_num":"4","larger_num":"8","correct_side":1,"subjID":"LunaBenavides17","gender":"1","age":"11","school":"6"},{"start_time":1551893042271,"click_time":1551893043150,"finger_time":1551893042869,"fix_duration":1120.414796880174,"trial":48,"RT":598,"MT":281,"sideResp":1,"stimulus":"img/500/equaldotsize/L/13_Ratio_500_L_12_R_6.png","xmouse":[778,778,778,778,778,778,778,778,778,778,778,778,778,778,778,778,778,778,778,778,778,778,778,778,778,778,778,778,768,742,701,641,542,534,529,527,524,520,515,509,503,500,494,490],"ymouse":[602,602,602,602,602,602,602,602,602,602,602,602,602,602,602,602,602,602,602,602,602,602,602,602,602,602,602,602,585,538,461,370,194,176,169,165,162,150,140,131,122,117,100,95],"timestamp_mouse":[18,43,57,79,98,117,137,157,179,197,218,238,257,279,298,319,338,358,379,398,418,438,458,478,498,517,538,559,577,598,618,638,658,677,698,718,738,757,778,798,818,839,857,879],"xSR":741.5,"ySR":573.95,"xT1":424.9,"yT1":0,"xT2":1058.1,"yT2":0,"toosoon":0,"cond_shown":"equaldotsize","ratio_trial":500,"smaller_num":"6","larger_num":"12","correct_side":1,"subjID":"LunaBenavides17","gender":"1","age":"11","school":"6"},{"start_time":1551893044758,"click_time":1551893046409,"finger_time":1551893045928,"fix_duration":626.0956486139681,"trial":49,"RT":1170,"MT":481,"sideResp":2,"stimulus":"img/250/equaldotsize/R/8_Ratio_250_L_1_R_4.png","xmouse":[761,761,761,761,761,761,761,761,761,761,761,761,761,761,761,761,761,761,761,761,761,761,761,761,761,761,761,761,761,761,761,761,761,761,761,761,761,761,761,761,761,761,761,761,761,761,761,761,761,768,775,780,782,782,782,786,792,816,887,967,1021,1063,1088,1101,1111,1114,1117,1122,1132,1141,1146,1150,1154,1159,1162,1166,1167,1167,1166,1164,1160,1159,1156],"ymouse":[595,595,595,595,595,595,595,595,595,595,595,595,595,595,595,595,595,595,595,595,595,595,595,595,595,595,595,595,595,595,595,595,595,595,595,595,595,595,595,595,595,595,595,595,595,595,595,595,595,594,591,589,588,588,588,588,588,589,589,570,547,516,488,463,422,395,369,343,298,272,255,239,218,179,165,154,147,139,117,105,94,89,84],"timestamp_mouse":[11,35,50,70,92,111,131,151,171,190,211,230,250,270,292,310,331,350,372,391,412,431,451,470,490,511,532,552,571,592,610,632,652,671,692,711,731,750,770,791,811,832,850,870,892,912,931,952,971,992,1010,1030,1050,1070,1091,1111,1131,1151,1170,1190,1210,1231,1251,1271,1291,1311,1330,1351,1371,1390,1410,1432,1451,1471,1490,1512,1531,1552,1571,1592,1610,1632,1651],"xSR":741.5,"ySR":573.95,"xT1":424.9,"yT1":0,"xT2":1058.1,"yT2":0,"toosoon":0,"cond_shown":"equaldotsize","ratio_trial":250,"smaller_num":"1","larger_num":"4","correct_side":2,"subjID":"LunaBenavides17","gender":"1","age":"11","school":"6"},{"start_time":1551893047601,"click_time":1551893048929,"finger_time":1551893048429,"fix_duration":250,"trial":50,"RT":828,"MT":500,"sideResp":1,"stimulus":"img/750/equaldotanddens/L/10_Ratio_750_L_4_R_3.png","xmouse":[810,810,810,810,810,810,810,810,810,810,810,810,810,810,810,810,810,810,810,810,810,810,810,810,810,810,810,810,810,810,810,810,810,810,810,810,810,810,808,796,771,721,699,678,652,625,586,579,575,572,570,561,553,544,531,516,499,498,495,493,492,492,492,492,492,492,494],"ymouse":[645,645,645,645,645,645,645,645,645,645,645,645,645,645,645,645,645,645,645,645,645,645,645,645,645,645,645,645,645,645,645,645,645,645,645,645,645,645,646,646,645,615,595,571,535,494,408,387,372,362,348,311,289,267,247,226,194,187,178,172,168,167,166,160,145,131,93],"timestamp_mouse":[10,33,47,67,89,107,127,147,169,188,208,229,247,269,289,307,328,347,368,388,408,427,449,467,489,509,528,547,568,589,607,629,647,669,688,708,728,749,769,788,808,828,847,869,888,908,928,948,967,988,1007,1027,1048,1068,1087,1108,1128,1148,1167,1188,1209,1227,1248,1269,1289,1309,1328],"xSR":741.5,"ySR":573.95,"xT1":424.9,"yT1":0,"xT2":1058.1,"yT2":0,"toosoon":0,"cond_shown":"equaldotanddens","ratio_trial":750,"smaller_num":"3","larger_num":"4","correct_side":1,"subjID":"LunaBenavides17","gender":"1","age":"11","school":"6"},{"start_time":1551893051020,"click_time":1551893052329,"finger_time":1551893051729,"fix_duration":1170.0563785389418,"trial":51,"RT":709,"MT":600,"sideResp":2,"stimulus":"img/250/randomdotsizeEA/R/13_Ratio_250_L_2_R_8.png","xmouse":[793,793,793,793,793,793,793,793,793,793,793,793,793,793,793,793,793,793,793,793,793,793,793,793,793,793,793,793,793,793,793,793,793,793,799,844,908,958,993,1031,1082,1090,1095,1100,1105,1135,1144,1154,1158,1159,1159,1159,1159,1159,1158,1156,1156,1156,1156,1156,1156,1155,1155,1153,1150,1139],"ymouse":[626,626,626,626,626,626,626,626,626,626,626,626,626,626,626,626,626,626,626,626,626,626,626,626,626,626,626,626,626,626,626,626,626,626,627,627,619,604,589,572,539,531,520,502,479,376,338,286,243,207,159,145,135,126,120,113,113,113,113,113,113,111,110,109,104,87],"timestamp_mouse":[10,39,49,68,90,109,130,148,169,189,208,229,250,268,288,309,329,349,368,390,409,428,450,469,489,509,529,548,570,590,609,630,648,668,688,709,728,748,769,788,808,828,849,869,888,910,929,948,970,990,1009,1029,1049,1068,1088,1109,1130,1149,1168,1188,1209,1229,1249,1269,1289,1308],"xSR":741.5,"ySR":573.95,"xT1":424.9,"yT1":0,"xT2":1058.1,"yT2":0,"toosoon":0,"cond_shown":"randomdotsizeEA","ratio_trial":250,"smaller_num":"2","larger_num":"8","correct_side":2,"subjID":"LunaBenavides17","gender":"1","age":"11","school":"6"},{"start_time":1551893054081,"click_time":1551893057589,"finger_time":1551893055150,"fix_duration":250,"trial":52,"RT":1069,"MT":2439,"sideResp":1,"stimulus":"img/900/randomdotsizeEA/R/12_Ratio_900_L_18_R_20.png","xmouse":[758,758,758,758,758,758,758,758,758,758,758,758,758,758,758,758,758,758,758,758,758,758,758,758,758,758,758,758,758,758,758,758,758,758,758,758,758,758,758,758,758,758,758,758,758,758,758,758,758,758,758,755,753,713,663,595,541,459,438,426,418,416,415,415,417,421,427,437,459,479,505,532,589,594,595,595,595,595,595,595,595,595,595,595,595,592,581,574,570,570,569,561,559,559,559,559,559,559,559,559,559,559,559,559,559,559,559,559,559,559,559,559,559,559,559,559,559,559,559,559,559,559,559,559,559,559,559,559,559,561,564,564,564,566,567,571,572,577,579,579,579,580,580,580,580,580,580,574,557,554,546,537,519,507,503,503,503,503,502,501,499,496,496,496,496,496,496,496,496,496,496,496,496,496,498,499],"ymouse":[618,618,618,618,618,618,618,618,618,618,618,618,618,618,618,618,618,618,618,618,618,618,618,618,618,618,618,618,618,618,618,618,618,618,618,618,618,618,618,618,618,618,618,618,618,618,618,618,618,618,618,618,618,618,618,618,618,618,614,605,598,595,592,581,563,538,497,460,351,275,194,122,36,25,25,25,24,24,24,24,24,24,24,24,24,24,29,34,37,38,39,40,41,41,41,41,41,41,41,41,41,41,41,41,41,41,41,41,41,41,41,41,41,41,41,41,41,41,41,41,41,41,41,41,41,41,41,41,41,55,57,57,57,62,65,70,75,87,90,92,93,93,93,93,93,93,94,96,106,109,112,117,123,125,127,127,127,127,127,127,125,119,119,118,118,117,117,113,113,113,113,112,109,106,102,97],"timestamp_mouse":[10,35,48,68,87,108,127,149,167,189,209,229,248,269,287,307,329,349,368,389,408,428,449,467,487,509,527,547,569,588,608,629,647,669,687,708,729,749,769,787,808,829,849,867,887,907,928,948,968,988,1007,1028,1048,1069,1087,1108,1128,1147,1167,1189,1208,1229,1248,1267,1287,1308,1328,1348,1368,1388,1409,1427,1447,1467,1489,1509,1528,1549,1568,1587,1607,1628,1648,1668,1689,1708,1728,1747,1767,1788,1808,1829,1848,1868,1888,1908,1927,1949,1968,1988,2008,2028,2049,2068,2089,2109,2129,2149,2168,2187,2208,2228,2248,2268,2289,2308,2329,2349,2367,2388,2408,2428,2447,2468,2489,2508,2528,2549,2568,2587,2609,2629,2647,2669,2687,2708,2728,2748,2767,2787,2807,2829,2849,2868,2888,2908,2928,2948,2971,2987,3007,3029,3048,3067,3089,3108,3128,3148,3167,3188,3208,3228,3248,3268,3288,3307,3329,3347,3369,3389,3408,3429,3448,3469,3487,3508],"xSR":741.5,"ySR":573.95,"xT1":424.9,"yT1":0,"xT2":1058.1,"yT2":0,"toosoon":0,"cond_shown":"randomdotsizeEA","ratio_trial":900,"smaller_num":"18","larger_num":"20","correct_side":2,"subjID":"LunaBenavides17","gender":"1","age":"11","school":"6"},{"start_time":1551893061320,"click_time":1551893062769,"finger_time":1551893062148,"fix_duration":250,"trial":53,"RT":828,"MT":621,"sideResp":2,"stimulus":"img/900/equaldotanddens/L/2_Ratio_900_L_20_R_18.png","xmouse":[788,789,789,791,793,794,796,796,796,796,796,796,796,796,796,796,796,796,796,796,796,796,796,796,796,796,796,796,796,796,796,796,796,796,796,796,796,796,797,800,835,856,880,907,936,983,996,1002,1004,1005,1006,1006,1006,1003,1001,1001,1001,1001,1003,1003,1008,1013,1020,1032,1041,1050,1051,1052,1052,1052,1054,1057,1063],"ymouse":[609,610,610,613,614,618,622,622,622,622,622,622,622,622,622,622,622,622,622,622,622,622,622,622,622,622,622,622,622,622,622,622,622,622,622,622,622,622,624,624,620,606,587,561,520,426,382,349,325,303,260,248,239,229,221,201,194,191,189,187,177,164,145,121,102,86,83,82,80,76,53,39,28],"timestamp_mouse":[11,39,48,70,89,109,128,148,170,189,209,228,250,270,289,309,329,350,369,390,410,428,448,470,489,509,529,548,569,589,608,630,649,669,688,708,730,748,769,790,809,828,848,868,889,909,928,948,968,989,1009,1029,1048,1069,1088,1108,1129,1150,1169,1188,1208,1228,1248,1270,1290,1309,1330,1349,1369,1389,1409,1