[{"start_time":1551891514982,"click_time":1551891532747,"finger_time":1551891514990,"fix_duration":250,"trial":0,"RT":8,"MT":17757,"sideResp":1,"stimulus":[],"xmouse":[793,793,793,793,793,793,793,793,793,793,793,793,793,793,793,793,794,778,759,750,750,751,755,761,762,762,762,761,760,767,773,781,790,799,799,800,800,800,800,791,789,784,779,775,766,764,763,763,764,767,768,769,769,769,770,770,772,773,773,773,773,773,774,774,775,776,778,779,779,780,780,780,780,780,780,780,780,780,780,780,780,780,780,780,780,780,779,778,775,762,749,740,732,724,714,713,713,713,715,722,730,744,765,809,830,849,861,866,867,867,867,866,863,861,861,860,860,859,858,855,848,842,834,819,813,809,808,807,806,806,805,805,805,805,805,805,805,805,805,805,806,807,810,815,836,852,873,888,894,894,894,895,901,909,923,927,928,929,929,929,930,931,931,932,932,932,932,932,932,932,932,932,932,932,932,932,932,933,933,936,937,941,944,946,946,945,940,934,915,904,882,860,827,777,768,766,766,766,770,779,796,803,804,805,805,805,805,805,805,805,805,805,804,804,804,804,804,802,798,795,789,783,774,768,768,768,768,768,768,768,768,769,770,770,770,770,770,770,771,771,771,771,771,771,771,771,771,772,776,780,784,786,787,787,787,787,787,787,787,787,787,787,787,787,787,787,787,787,787,787,787,787,787,787,787,787,787,787,787,787,787,787,787,787,787,787,787,787,787,787,787,787,787,787,787,787,787,787,787,787,787,787,787,787,787,787,787,787,787,787,787,787,787,787,787,787,787,787,787,787,787,787,787,787,787,787,787,787,787,787,787,787,787,787,787,787,787,787,787,787,787,787,787,787,787,787,787,787,787,787,787,787,787,787,787,787,787,787,787,787,787,787,787,787,787,787,787,787,787,787,787,787,787,787,787,787,787,787,787,787,787,787,787,787,787,787,787,787,787,787,787,787,787,787,787,787,787,787,787,787,787,787,787,787,787,787,787,787,787,787,787,787,787,787,787,787,787,787,787,787,787,787,787,787,787,787,787,787,787,787,787,787,787,787,787,787,787,787,787,787,787,787,787,787,787,787,787,787,787,787,787,787,787,787,787,787,787,787,787,787,787,787,787,787,787,787,787,787,787,787,787,787,787,787,787,787,787,787,787,787,787,787,787,787,787,787,787,787,787,787,787,787,787,787,787,787,787,787,787,787,787,787,787,787,787,787,787,787,787,787,787,787,787,787,787,787,787,788,788,788,788,788,788,788,788,788,788,788,788,788,788,788,788,788,788,788,788,788,788,788,788,788,788,789,797,804,806,807,807,807,807,807,807,807,807,807,807,807,807,807,807,807,807,807,807,807,807,807,807,807,807,807,807,807,807,807,807,807,807,807,807,807,807,807,807,807,807,807,807,807,807,807,807,807,807,807,807,807,807,807,807,807,807,807,807,807,807,807,807,807,807,807,807,807,807,807,807,807,807,807,807,807,807,807,807,807,807,807,807,807,807,807,807,807,807,807,807,807,807,807,807,807,807,807,807,807,807,807,807,807,807,807,807,807,807,807,807,807,808,817,827,830,831,831,833,839,852,870,922,981,1028,1047,1063,1090,1105,1121,1138,1152,1176,1181,1180,1169,1150,1077,1028,997,951,913,877,820,771,726,681,643,640,640,640,647,707,839,964,1103,1233,1439,1464,1465,1438,1360,1060,853,547,361,206,0,0,0,7,61,185,524,768,888,952,958,943,918,871,804,737,641,641,659,722,889,946,984,994,996,964,928,909,900,897,897,897,897,897,897,897,897,897,897,897,897,897,897,897,894,892,891,891,891,891,891,891,891,891,891,891,891,891,891,891,891,891,891,891,891,891,891,891,891,891,891,891,891,891,891,891,891,891,891,892,892,892,893,894,894,894,894,894,895,895,895,895,895,895,895,895,895,895,895,895,895,895,895,895,895,895,895,895,895,895,895,897,900,902,905,909,910,910,910,910,910,903,892,874,856,835,832,831,831,831,833,835,836,836,837,837,833,828,824,819,814,811,811,811,811,811,811,811,811,811,811,811,811,811,811,811,811,811,811,811,811,811,811,811,811,811,800,787,768,741,710,631,588,549,518,494],"ymouse":[450,450,450,450,450,450,450,450,450,450,450,450,450,450,450,450,440,388,336,311,311,311,311,311,312,312,313,319,344,369,386,402,413,416,416,416,416,415,414,421,427,439,453,466,500,516,531,545,567,577,579,580,580,580,580,580,580,581,581,581,582,582,582,585,588,592,595,598,600,602,602,602,602,602,602,602,602,602,602,602,601,600,600,599,597,596,592,589,583,562,546,533,522,510,495,492,489,487,484,483,482,481,480,478,478,478,478,478,478,478,478,478,478,478,478,478,478,478,478,477,474,470,468,464,464,464,464,464,464,464,464,464,464,464,464,464,464,464,464,464,464,464,464,464,464,464,464,464,464,464,464,464,469,473,480,483,484,485,485,485,486,486,486,486,486,486,486,486,486,486,486,486,486,486,486,486,486,488,491,507,517,530,539,555,559,563,565,565,567,567,568,569,569,577,583,585,586,589,597,603,615,621,624,627,627,627,627,627,627,627,628,628,628,628,628,628,628,628,625,624,623,621,620,620,620,620,620,620,620,620,620,620,620,620,620,620,620,620,620,620,620,620,620,620,620,620,620,619,619,619,620,620,620,620,620,620,620,620,620,620,620,620,620,620,620,620,620,620,620,620,620,620,620,620,620,620,620,620,620,620,620,620,620,620,620,620,620,620,620,620,620,620,620,620,620,620,620,620,620,620,620,620,620,620,620,620,620,620,620,620,620,620,620,620,620,620,620,620,620,620,620,620,620,620,620,620,620,620,620,620,620,620,620,620,620,620,620,620,620,620,620,620,620,620,620,620,620,620,620,620,620,620,620,620,620,620,620,620,620,620,620,620,620,620,620,620,620,620,620,620,620,620,620,620,620,620,620,620,620,620,620,620,620,620,620,620,620,620,620,620,620,620,620,620,620,620,620,620,620,620,620,620,620,620,620,620,620,620,620,620,620,620,620,620,620,620,620,620,620,620,620,620,620,620,620,620,620,620,620,620,620,620,620,620,620,620,620,620,620,620,620,620,620,620,620,620,620,620,620,620,620,620,620,620,620,620,620,620,620,620,620,620,620,620,620,620,620,620,620,620,620,620,620,620,620,620,620,620,620,620,620,620,620,620,620,620,620,620,620,620,620,620,620,620,620,620,620,620,620,620,620,620,620,620,620,620,620,620,620,620,620,620,620,620,620,620,619,618,617,617,617,617,617,617,617,615,615,614,612,612,612,612,612,612,612,612,612,611,611,611,611,611,611,611,612,615,615,615,615,615,615,615,615,615,615,615,615,615,615,615,615,615,615,615,615,615,615,615,615,615,615,615,615,615,615,615,615,615,615,615,615,615,615,615,615,615,615,615,615,615,615,615,615,615,615,615,615,615,615,615,615,615,615,615,615,615,615,615,615,615,615,615,615,615,615,615,615,615,615,615,615,615,615,615,615,615,615,615,615,615,615,615,615,615,615,615,615,615,615,615,615,615,615,615,615,615,615,615,615,615,615,615,615,615,615,615,615,615,615,614,607,606,606,606,606,603,597,593,573,546,523,509,492,445,419,377,332,290,205,174,145,127,114,108,111,122,135,145,155,172,186,194,204,225,231,236,241,246,273,307,327,337,337,326,317,312,298,278,262,262,297,350,409,498,519,528,533,534,523,462,407,385,370,367,375,390,413,444,470,494,495,488,468,427,421,421,423,427,442,450,452,452,452,452,452,452,452,452,452,452,452,452,452,452,452,452,452,453,457,459,459,459,459,459,459,459,459,459,459,459,459,459,459,459,459,459,459,459,459,459,459,459,459,459,459,459,459,459,459,459,459,459,460,460,463,464,467,467,467,467,467,468,468,468,468,468,468,468,468,468,469,470,471,473,474,475,475,475,475,475,475,475,475,476,478,480,481,483,488,488,489,489,489,489,489,489,491,503,525,531,533,534,536,553,562,569,572,573,573,574,579,584,591,597,603,603,603,603,603,603,603,603,603,603,603,603,603,603,603,603,603,603,603,603,603,603,603,603,603,593,579,555,520,469,326,251,187,138,91],"timestamp_mouse":[8,25,45,65,84,105,125,144,164,184,204,224,243,264,284,304,323,343,364,385,404,425,444,464,483,504,524,544,564,583,604,624,643,664,683,704,725,745,764,784,804,824,844,864,883,903,924,943,964,983,1004,1024,1045,1064,1084,1104,1124,1144,1165,1184,1204,1224,1244,1264,1284,1305,1325,1344,1363,1384,1405,1424,1444,1465,1484,1504,1524,1544,1565,1584,1604,1624,1644,1663,1684,1704,1725,1745,1763,1784,1804,1824,1844,1863,1883,1904,1924,1944,1965,1983,2004,2024,2044,2065,2084,2105,2125,2143,2163,2183,2204,2225,2244,2264,2284,2304,2324,2343,2365,2384,2405,2425,2444,2464,2484,2504,2524,2544,2564,2584,2605,2624,2643,2664,2685,2704,2725,2745,2764,2785,2804,2824,2844,2864,2884,2904,2925,2944,2964,2984,3003,3025,3044,3064,3084,3104,3123,3145,3163,3184,3203,3224,3245,3264,3285,3304,3325,3344,3364,3384,3405,3425,3444,3465,3484,3504,3524,3544,3564,3584,3604,3624,3644,3664,3683,3704,3723,3743,3765,3783,3805,3824,3844,3864,3884,3905,3924,3944,3964,3984,4004,4024,4045,4065,4084,4104,4125,4145,4165,4184,4203,4224,4245,4265,4284,4304,4324,4343,4365,4384,4404,4424,4444,4465,4484,4505,4525,4545,4565,4584,4605,4624,4644,4665,4684,4704,4723,4745,4764,4784,4805,4824,4845,4865,4884,4903,4924,4944,4965,4984,5003,5023,5044,5065,5084,5103,5125,5145,5165,5184,5205,5225,5244,5265,5284,5305,5325,5345,5364,5384,5404,5424,5445,5465,5484,5503,5525,5545,5564,5584,5605,5625,5643,5665,5684,5704,5724,5745,5763,5784,5805,5824,5845,5865,5883,5904,5924,5945,5964,5984,6004,6025,6045,6064,6084,6105,6125,6145,6163,6184,6204,6223,6245,6265,6284,6304,6324,6345,6365,6384,6405,6425,6444,6465,6483,6504,6525,6544,6564,6583,6605,6624,6645,6665,6684,6704,6724,6744,6763,6784,6804,6823,6844,6865,6884,6905,6925,6944,6964,6984,7004,7025,7044,7064,7084,7105,7124,7145,7164,7183,7205,7224,7244,7263,7285,7304,7324,7345,7365,7384,7404,7423,7445,7465,7485,7504,7524,7544,7564,7584,7605,7625,7644,7664,7684,7704,7724,7744,7765,7783,7804,7825,7844,7865,7884,7904,7924,7943,7965,7983,8004,8025,8045,8064,8083,8104,8123,8143,8165,8184,8205,8224,8245,8265,8284,8305,8325,8344,8365,8384,8403,8424,8445,8464,8484,8504,8524,8544,8564,8584,8604,8624,8645,8663,8684,8705,8724,8744,8765,8784,8804,8823,8845,8865,8884,8904,8924,8943,8965,8984,9004,9023,9045,9064,9084,9103,9123,9145,9164,9183,9204,9225,9245,9265,9284,9304,9325,9344,9365,9384,9405,9425,9444,9465,9484,9505,9525,9544,9564,9584,9603,9624,9645,9664,9684,9705,9724,9744,9765,9784,9805,9824,9845,9863,9884,9905,9924,9944,9965,9984,10004,10025,10045,10063,10084,10105,10125,10144,10164,10183,10205,10224,10245,10264,10284,10305,10324,10344,10365,10384,10404,10423,10444,10465,10484,10504,10524,10544,10563,10584,10604,10624,10645,10665,10684,10703,10725,10743,10765,10784,10804,10824,10845,10865,10885,10904,10923,10944,10965,10984,11004,11024,11044,11064,11084,11104,11124,11145,11164,11183,11205,11224,11244,11263,11284,11304,11325,11343,11365,11384,11404,11425,11444,11465,11483,11503,11524,11544,11564,11584,11605,11624,11645,11664,11684,11705,11725,11745,11764,11784,11804,11824,11844,11864,11884,11904,11925,11944,11965,11984,12005,12024,12044,12065,12084,12104,12123,12144,12165,12184,12205,12225,12244,12265,12284,12305,12323,12344,12364,12384,12405,12423,12445,12464,12484,12505,12524,12545,12563,12584,12604,12624,12645,12664,12684,12705,12724,12745,12764,12784,12805,12825,12845,12864,12884,12904,12924,12945,12965,12984,13004,13024,13045,13065,13084,13104,13124,13145,13165,13184,13204,13224,13244,13265,13285,13303,13324,13344,13364,13384,13405,13424,13443,13465,13484,13505,13524,13544,13565,13584,13605,13624,13644,13664,13684,13703,13724,13744,13764,13785,13804,13824,13844,13864,13884,13904,13924,13943,13965,13983,14004,14025,14044,14064,14084,14105,14124,14145,14165,14184,14205,14224,14245,14264,14283,14304,14324,14344,14364,14384,14404,14424,14445,14464,14484,14503,14524,14545,14564,14584,14605,14625,14644,14664,14684,14704,14724,14744,14764,14783,14804,14824,14844,14865,14884,14904,14924,14945,14964,14984,15004,15025,15044,15065,15083,15104,15124,15145,15164,15185,15205,15225,15244,15265,15284,15305,15324,15344,15365,15384,15404,15424,15445,15464,15484,15503,15524,15544,15565,15585,15605,15625,15645,15664,15683,15703,15724,15744,15764,15785,15804,15824,15844,15865,15883,15904,15923,15944,15965,15984,16004,16025,16043,16065,16085,16105,16124,16144,16163,16184,16204,16223,16244,16264,16284,16305,16324,16343,16363,16385,16405,16424,16444,16465,16484,16504,16523,16544,16564,16585,16604,16623,16644,16664,16684,16705,16724,16744,16764,16783,16803,16824,16844,16864,16884,16903,16924,16944,16965,16985,17004,17023,17044,17063,17084,17104,17124,17145,17165,17184,17204,17224,17244,17265,17284,17305,17325,17345,17365,17384,17404,17425,17445,17465,17484,17505,17525,17544,17563,17585,17605,17625,17644,17663,17684,17704,17725,17745,17764],"xSR":741.5,"ySR":469.95,"xT1":424.9,"yT1":0,"xT2":1058.1,"yT2":0,"toosoon":0,"cond_shown":"Incongruent","ratio_trial":200,"L_num":7,"L_den":10,"R_num":12,"R_den":24,"correct_side":1,"subjID":"LunaBenavidesSilva17","gender":"1","age":"11","school":"6","test":{"fix_dur":[250,1500],"timestim":1000,"targets_dim":[100,100],"targets_relative_coord":[0.3,0.7],"size_stim":[880,420],"start_dim":[100,100],"size_start":[300,300],"size_fix":60,"samplingrate":20,"img_types":["Congruent","Incongruent"],"ratios":[100,200,300],"rep_conds":19,"nTrials":120,"trials_to_rest":500,"Trials_order":[27,97,114,117,50,20,32,90,116,17,43,9,21,42,11,5,8,86,84,47,23,101,55,76,39,81,44,29,25,12,79,92,77,59,88,71,83,85,35,67,62,28,112,31,94,68,38,99,69,89,3,113,102,64,37,118,51,111,10,72,107,58,6,22,78,93,18,82,70,14,95,40,119,60,4,30,100,75,26,36,57,108,65,19,106,7,91,34,96,87,13,104,66,1,54,41,103,80,105,53,56,74,15,61,115,24,45,16,110,109,98,52,48,49,0,63,73,46,2,33],"cond_shown":["Incongruent","Incongruent","Congruent","Incongruent","Congruent","Congruent","Congruent","Congruent","Congruent","Incongruent","Incongruent","Incongruent","Incongruent","Congruent","Incongruent","Incongruent","Congruent","Congruent","Congruent","Incongruent","Incongruent","Incongruent","Incongruent","Congruent","Incongruent","Incongruent","Congruent","Incongruent","Incongruent","Congruent","Incongruent","Congruent","Incongruent","Incongruent","Congruent","Incongruent","Incongruent","Incongruent","Incongruent","Incongruent","Congruent","Congruent","Congruent","Incongruent","Congruent","Congruent","Congruent","Incongruent","Incongruent","Incongruent","Incongruent","Incongruent","Congruent","Congruent","Incongruent","Congruent","Incongruent","Incongruent","Congruent","Congruent","Incongruent","Congruent","Congruent","Congruent","Congruent","Incongruent","Congruent","Congruent","Congruent","Congruent","Incongruent","Congruent","Incongruent","Congruent","Congruent","Congruent","Congruent","Incongruent","Congruent","Congruent","Incongruent","Congruent","Incongruent","Incongruent","Congruent","Incongruent","Incongruent","Congruent","Congruent","Incongruent","Incongruent","Congruent","Congruent","Incongruent","Congruent","Incongruent","Incongruent","Congruent","Incongruent","Incongruent","Congruent","Congruent","Incongruent","Incongruent","Incongruent","Congruent","Incongruent","Congruent","Congruent","Incongruent","Congruent","Congruent","Congruent","Incongruent","Congruent","Incongruent","Incongruent","Congruent","Congruent","Incongruent"],"ratio_trial":[200,100,100,200,200,200,200,100,200,300,100,200,200,100,300,300,200,200,100,300,300,300,100,300,200,200,200,300,100,100,100,200,300,300,300,300,300,100,300,100,200,300,300,100,300,200,200,200,200,300,200,300,100,300,100,300,200,200,300,100,300,300,100,300,100,200,100,300,300,200,300,300,300,100,300,100,300,200,200,100,200,100,300,100,300,100,100,300,100,200,100,200,100,100,100,300,100,200,200,300,200,200,200,100,100,100,200,300,200,100,200,300,100,100,100,200,100,300,200,200],"left_num":[7,10,11,1,6,14,6,10,13,4,3,3,4,10,13,3,6,9,9,4,2,13,2,3,11,4,3,13,12,4,10,3,4,13,11,4,13,9,13,12,21,1,4,11,1,3,6,7,4,4,4,13,1,20,8,1,4,4,5,12,8,5,2,11,15,1,6,20,24,4,4,2,4,3,20,11,18,6,6,3,7,9,4,13,1,9,13,3,7,1,9,6,3,3,3,7,12,16,4,4,6,13,9,11,10,1,4,8,3,11,3,5,8,11,2,7,9,4,15,14],"right_num":[12,9,4,3,7,6,11,3,14,2,4,1,14,3,12,4,11,13,8,2,6,12,8,4,3,1,7,12,9,15,9,14,2,12,2,2,12,14,12,9,2,8,13,9,11,7,11,8,6,2,6,12,3,13,1,11,14,14,6,13,9,6,11,2,13,2,15,13,8,3,2,10,2,4,9,6,9,3,11,4,12,8,2,12,7,6,12,2,15,2,6,7,2,8,2,8,9,12,14,8,11,14,8,9,9,3,1,10,9,9,11,6,2,9,11,4,20,1,4,12],"left_den":[10,25,22,2,12,28,20,25,26,20,6,10,6,25,26,6,20,30,15,20,4,26,4,6,20,30,10,26,24,10,25,10,20,26,22,20,26,15,26,24,30,30,20,22,5,10,20,10,5,20,5,26,2,25,20,5,6,6,25,30,10,25,5,22,25,3,12,25,30,10,20,20,20,20,25,22,20,20,20,20,10,15,20,26,20,18,26,6,14,3,18,12,6,5,6,10,24,20,6,5,20,26,15,22,25,2,30,15,12,22,10,25,16,22,5,15,10,10,25,30],"right_den":[24,18,10,10,10,20,22,10,20,4,10,2,30,10,15,20,22,26,16,4,30,15,20,5,4,3,14,15,15,30,18,28,4,15,10,4,15,28,15,15,4,24,26,15,22,14,22,16,10,4,10,15,5,26,2,22,30,30,12,26,18,12,22,10,26,15,25,26,16,15,4,25,4,16,18,15,15,6,22,16,24,16,4,20,20,10,20,10,25,15,10,10,5,16,5,20,15,20,30,16,22,20,10,15,18,5,3,12,20,15,22,12,5,15,22,6,25,10,10,18],"correct_side":[1,2,1,1,2,1,2,1,2,2,1,2,1,1,2,1,2,2,1,2,1,2,1,2,2,2,2,2,2,2,2,2,2,2,1,2,2,1,2,2,1,2,2,2,2,2,2,1,1,2,1,2,2,1,2,2,1,1,2,2,1,2,2,1,1,1,2,1,1,1,2,2,2,2,1,1,1,2,2,2,1,1,2,2,2,2,2,1,2,1,2,2,1,1,1,1,2,1,1,1,2,2,2,2,2,2,2,2,2,2,2,2,1,2,2,2,1,1,1,2],"img_shown":["img2/200/Incongruent/L/I_Dist_200_LN_7_LD_10_RN_12_RD_24_0.png","img2/100/Incongruent/R/I_Dist_100_LN_10_LD_25_RN_9_RD_18_1.png","img2/100/Congruent/L/C_Dist_100_LN_11_LD_22_RN_4_RD_10_0.png","img2/200/Incongruent/L/I_Dist_200_LN_1_LD_2_RN_3_RD_10_0.png","img2/200/Congruent/R/C_Dist_200_LN_6_LD_12_RN_7_RD_10_1.png","img2/200/Congruent/L/C_Dist_200_LN_14_LD_28_RN_6_RD_20_0.png","img2/200/Congruent/R/C_Dist_200_LN_6_LD_20_RN_11_RD_22_1.png","img2/100/Congruent/L/C_Dist_100_LN_10_LD_25_RN_3_RD_10_0.png","img2/200/Congruent/R/C_Dist_200_LN_13_LD_26_RN_14_RD_20_1.png","img2/300/Incongruent/R/I_Dist_300_LN_4_LD_20_RN_2_RD_4_1.png","img2/100/Incongruent/L/I_Dist_100_LN_3_LD_6_RN_4_RD_10_0.png","img2/200/Incongruent/R/I_Dist_200_LN_3_LD_10_RN_1_RD_2_1.png","img2/200/Incongruent/L/I_Dist_200_LN_4_LD_6_RN_14_RD_30_0.png","img2/100/Congruent/L/C_Dist_100_LN_10_LD_25_RN_3_RD_10_0.png","img2/300/Incongruent/R/I_Dist_300_LN_13_LD_26_RN_12_RD_15_1.png","img2/300/Incongruent/L/I_Dist_300_LN_3_LD_6_RN_4_RD_20_0.png","img2/200/Congruent/R/C_Dist_200_LN_6_LD_20_RN_11_RD_22_1.png","img2/200/Congruent/R/C_Dist_200_LN_9_LD_30_RN_13_RD_26_1.png","img2/100/Congruent/L/C_Dist_100_LN_9_LD_15_RN_8_RD_16_0.png","img2/300/Incongruent/R/I_Dist_300_LN_4_LD_20_RN_2_RD_4_1.png","img2/300/Incongruent/L/I_Dist_300_LN_2_LD_4_RN_6_RD_30_0.png","img2/300/Incongruent/R/I_Dist_300_LN_13_LD_26_RN_12_RD_15_1.png","img2/100/Incongruent/L/I_Dist_100_LN_2_LD_4_RN_8_RD_20_0.png","img2/300/Congruent/R/C_Dist_300_LN_3_LD_6_RN_4_RD_5_1.png","img2/200/Incongruent/R/I_Dist_200_LN_11_LD_20_RN_3_RD_4_1.png","img2/200/Incongruent/R/I_Dist_200_LN_4_LD_30_RN_1_RD_3_1.png","img2/200/Congruent/R/C_Dist_200_LN_3_LD_10_RN_7_RD_14_1.png","img2/300/Incongruent/R/I_Dist_300_LN_13_LD_26_RN_12_RD_15_1.png","img2/100/Incongruent/R/I_Dist_100_LN_12_LD_24_RN_9_RD_15_1.png","img2/100/Congruent/R/C_Dist_100_LN_4_LD_10_RN_15_RD_30_1.png","img2/100/Incongruent/R/I_Dist_100_LN_10_LD_25_RN_9_RD_18_1.png","img2/200/Congruent/R/C_Dist_200_LN_3_LD_10_RN_14_RD_28_1.png","img2/300/Incongruent/R/I_Dist_300_LN_4_LD_20_RN_2_RD_4_1.png","img2/300/Incongruent/R/I_Dist_300_LN_13_LD_26_RN_12_RD_15_1.png","img2/300/Congruent/L/C_Dist_300_LN_11_LD_22_RN_2_RD_10_0.png","img2/300/Incongruent/R/I_Dist_300_LN_4_LD_20_RN_2_RD_4_1.png","img2/300/Incongruent/R/I_Dist_300_LN_13_LD_26_RN_12_RD_15_1.png","img2/100/Incongruent/L/I_Dist_100_LN_9_LD_15_RN_14_RD_28_0.png","img2/300/Incongruent/R/I_Dist_300_LN_13_LD_26_RN_12_RD_15_1.png","img2/100/Incongruent/R/I_Dist_100_LN_12_LD_24_RN_9_RD_15_1.png","img2/200/Congruent/L/C_Dist_200_LN_21_LD_30_RN_2_RD_4_0.png","img2/300/Congruent/R/C_Dist_300_LN_1_LD_30_RN_8_RD_24_1.png","img2/300/Congruent/R/C_Dist_300_LN_4_LD_20_RN_13_RD_26_1.png","img2/100/Incongruent/R/I_Dist_100_LN_11_LD_22_RN_9_RD_15_1.png","img2/300/Congruent/R/C_Dist_300_LN_1_LD_5_RN_11_RD_22_1.png","img2/200/Congruent/R/C_Dist_200_LN_3_LD_10_RN_7_RD_14_1.png","img2/200/Congruent/R/C_Dist_200_LN_6_LD_20_RN_11_RD_22_1.png","img2/200/Incongruent/L/I_Dist_200_LN_7_LD_10_RN_8_RD_16_0.png","img2/200/Incongruent/L/I_Dist_200_LN_4_LD_5_RN_6_RD_10_0.png","img2/300/Incongruent/R/I_Dist_300_LN_4_LD_20_RN_2_RD_4_1.png","img2/200/Incongruent/L/I_Dist_200_LN_4_LD_5_RN_6_RD_10_0.png","img2/300/Incongruent/R/I_Dist_300_LN_13_LD_26_RN_12_RD_15_1.png","img2/100/Congruent/R/C_Dist_100_LN_1_LD_2_RN_3_RD_5_1.png","img2/300/Congruent/L/C_Dist_300_LN_20_LD_25_RN_13_RD_26_0.png","img2/100/Incongruent/R/I_Dist_100_LN_8_LD_20_RN_1_RD_2_1.png","img2/300/Congruent/R/C_Dist_300_LN_1_LD_5_RN_11_RD_22_1.png","img2/200/Incongruent/L/I_Dist_200_LN_4_LD_6_RN_14_RD_30_0.png","img2/200/Incongruent/L/I_Dist_200_LN_4_LD_6_RN_14_RD_30_0.png","img2/300/Congruent/R/C_Dist_300_LN_5_LD_25_RN_6_RD_12_1.png","img2/100/Congruent/R/C_Dist_100_LN_12_LD_30_RN_13_RD_26_1.png","img2/300/Incongruent/L/I_Dist_300_LN_8_LD_10_RN_9_RD_18_0.png","img2/300/Congruent/R/C_Dist_300_LN_5_LD_25_RN_6_RD_12_1.png","img2/100/Congruent/R/C_Dist_100_LN_2_LD_5_RN_11_RD_22_1.png","img2/300/Congruent/L/C_Dist_300_LN_11_LD_22_RN_2_RD_10_0.png","img2/100/Congruent/L/C_Dist_100_LN_15_LD_25_RN_13_RD_26_0.png","img2/200/Incongruent/L/I_Dist_200_LN_1_LD_3_RN_2_RD_15_0.png","img2/100/Congruent/R/C_Dist_100_LN_6_LD_12_RN_15_RD_25_1.png","img2/300/Congruent/L/C_Dist_300_LN_20_LD_25_RN_13_RD_26_0.png","img2/300/Congruent/L/C_Dist_300_LN_24_LD_30_RN_8_RD_16_0.png","img2/200/Congruent/L/C_Dist_200_LN_4_LD_10_RN_3_RD_15_0.png","img2/300/Incongruent/R/I_Dist_300_LN_4_LD_20_RN_2_RD_4_1.png","img2/300/Congruent/R/C_Dist_300_LN_2_LD_20_RN_10_RD_25_1.png","img2/300/Incongruent/R/I_Dist_300_LN_4_LD_20_RN_2_RD_4_1.png","img2/100/Congruent/R/C_Dist_100_LN_3_LD_20_RN_4_RD_16_1.png","img2/300/Congruent/L/C_Dist_300_LN_20_LD_25_RN_9_RD_18_0.png","img2/100/Congruent/L/C_Dist_100_LN_11_LD_22_RN_6_RD_15_0.png","img2/300/Congruent/L/C_Dist_300_LN_18_LD_20_RN_9_RD_15_0.png","img2/200/Incongruent/R/I_Dist_200_LN_6_LD_20_RN_3_RD_6_1.png","img2/200/Congruent/R/C_Dist_200_LN_6_LD_20_RN_11_RD_22_1.png","img2/100/Congruent/R/C_Dist_100_LN_3_LD_20_RN_4_RD_16_1.png","img2/200/Incongruent/L/I_Dist_200_LN_7_LD_10_RN_12_RD_24_0.png","img2/100/Congruent/L/C_Dist_100_LN_9_LD_15_RN_8_RD_16_0.png","img2/300/Incongruent/R/I_Dist_300_LN_4_LD_20_RN_2_RD_4_1.png","img2/100/Incongruent/R/I_Dist_100_LN_13_LD_26_RN_12_RD_20_1.png","img2/300/Congruent/R/C_Dist_300_LN_1_LD_20_RN_7_RD_20_1.png","img2/100/Incongruent/R/I_Dist_100_LN_9_LD_18_RN_6_RD_10_1.png","img2/100/Incongruent/R/I_Dist_100_LN_13_LD_26_RN_12_RD_20_1.png","img2/300/Congruent/L/C_Dist_300_LN_3_LD_6_RN_2_RD_10_0.png","img2/100/Congruent/R/C_Dist_100_LN_7_LD_14_RN_15_RD_25_1.png","img2/200/Incongruent/L/I_Dist_200_LN_1_LD_3_RN_2_RD_15_0.png","img2/100/Incongruent/R/I_Dist_100_LN_9_LD_18_RN_6_RD_10_1.png","img2/200/Congruent/R/C_Dist_200_LN_6_LD_12_RN_7_RD_10_1.png","img2/100/Congruent/L/C_Dist_100_LN_3_LD_6_RN_2_RD_5_0.png","img2/100/Incongruent/L/I_Dist_100_LN_3_LD_5_RN_8_RD_16_0.png","img2/100/Congruent/L/C_Dist_100_LN_3_LD_6_RN_2_RD_5_0.png","img2/300/Incongruent/L/I_Dist_300_LN_7_LD_10_RN_8_RD_20_0.png","img2/100/Incongruent/R/I_Dist_100_LN_12_LD_24_RN_9_RD_15_1.png","img2/200/Congruent/L/C_Dist_200_LN_16_LD_20_RN_12_RD_20_0.png","img2/200/Incongruent/L/I_Dist_200_LN_4_LD_6_RN_14_RD_30_0.png","img2/300/Incongruent/L/I_Dist_300_LN_4_LD_5_RN_8_RD_16_0.png","img2/200/Congruent/R/C_Dist_200_LN_6_LD_20_RN_11_RD_22_1.png","img2/200/Congruent/R/C_Dist_200_LN_13_LD_26_RN_14_RD_20_1.png","img2/200/Incongruent/R/I_Dist_200_LN_9_LD_15_RN_8_RD_10_1.png","img2/100/Incongruent/R/I_Dist_100_LN_11_LD_22_RN_9_RD_15_1.png","img2/100/Incongruent/R/I_Dist_100_LN_10_LD_25_RN_9_RD_18_1.png","img2/100/Congruent/R/C_Dist_100_LN_1_LD_2_RN_3_RD_5_1.png","img2/200/Incongruent/R/I_Dist_200_LN_4_LD_30_RN_1_RD_3_1.png","img2/300/Congruent/R/C_Dist_300_LN_8_LD_15_RN_10_RD_12_1.png","img2/200/Congruent/R/C_Dist_200_LN_3_LD_12_RN_9_RD_20_1.png","img2/100/Incongruent/R/I_Dist_100_LN_11_LD_22_RN_9_RD_15_1.png","img2/200/Congruent/R/C_Dist_200_LN_3_LD_10_RN_11_RD_22_1.png","img2/300/Congruent/R/C_Dist_300_LN_5_LD_25_RN_6_RD_12_1.png","img2/100/Congruent/L/C_Dist_100_LN_8_LD_16_RN_2_RD_5_0.png","img2/100/Incongruent/R/I_Dist_100_LN_11_LD_22_RN_9_RD_15_1.png","img2/100/Congruent/R/C_Dist_100_LN_2_LD_5_RN_11_RD_22_1.png","img2/200/Incongruent/R/I_Dist_200_LN_7_LD_15_RN_4_RD_6_1.png","img2/100/Incongruent/L/I_Dist_100_LN_9_LD_10_RN_20_RD_25_0.png","img2/300/Congruent/L/C_Dist_300_LN_4_LD_10_RN_1_RD_10_0.png","img2/200/Congruent/L/C_Dist_200_LN_15_LD_25_RN_4_RD_10_0.png","img2/200/Incongruent/R/I_Dist_200_LN_14_LD_30_RN_12_RD_18_1.png"],"dist100_C":[["C_Dist_100_LN_10_LD_25_RN_3_RD_10_0.png","C_Dist_100_LN_11_LD_22_RN_4_RD_10_0.png","C_Dist_100_LN_11_LD_22_RN_6_RD_15_0.png","C_Dist_100_LN_15_LD_25_RN_13_RD_26_0.png","C_Dist_100_LN_3_LD_6_RN_2_RD_5_0.png","C_Dist_100_LN_6_LD_20_RN_5_RD_25_0.png","C_Dist_100_LN_8_LD_16_RN_2_RD_5_0.png","C_Dist_100_LN_9_LD_15_RN_8_RD_16_0.png"],["C_Dist_100_LN_1_LD_2_RN_18_RD_30_1.png","C_Dist_100_LN_1_LD_2_RN_3_RD_5_1.png","C_Dist_100_LN_12_LD_30_RN_13_RD_26_1.png","C_Dist_100_LN_2_LD_5_RN_11_RD_22_1.png","C_Dist_100_LN_2_LD_5_RN_6_RD_12_1.png","C_Dist_100_LN_3_LD_20_RN_4_RD_16_1.png","C_Dist_100_LN_4_LD_10_RN_15_RD_30_1.png","C_Dist_100_LN_4_LD_8_RN_6_RD_10_1.png","C_Dist_100_LN_6_LD_12_RN_15_RD_25_1.png","C_Dist_100_LN_7_LD_14_RN_15_RD_25_1.png","C_Dist_100_LN_7_LD_14_RN_9_RD_15_1.png"]],"dist100_I":[["I_Dist_100_LN_1_LD_2_RN_8_RD_20_0.png","I_Dist_100_LN_2_LD_4_RN_6_RD_15_0.png","I_Dist_100_LN_2_LD_4_RN_8_RD_20_0.png","I_Dist_100_LN_3_LD_5_RN_11_RD_22_0.png","I_Dist_100_LN_3_LD_5_RN_8_RD_16_0.png","I_Dist_100_LN_3_LD_6_RN_4_RD_10_0.png","I_Dist_100_LN_3_LD_9_RN_7_RD_30_0.png","I_Dist_100_LN_4_LD_8_RN_8_RD_20_0.png","I_Dist_100_LN_6_LD_10_RN_11_RD_22_0.png","I_Dist_100_LN_6_LD_10_RN_13_RD_26_0.png","I_Dist_100_LN_6_LD_10_RN_7_RD_14_0.png","I_Dist_100_LN_9_LD_10_RN_20_RD_25_0.png","I_Dist_100_LN_9_LD_15_RN_13_RD_26_0.png","I_Dist_100_LN_9_LD_15_RN_14_RD_28_0.png"],["I_Dist_100_LN_10_LD_25_RN_8_RD_16_1.png","I_Dist_100_LN_10_LD_25_RN_9_RD_18_1.png","I_Dist_100_LN_11_LD_22_RN_9_RD_15_1.png","I_Dist_100_LN_12_LD_24_RN_9_RD_15_1.png","I_Dist_100_LN_12_LD_30_RN_2_RD_4_1.png","I_Dist_100_LN_13_LD_26_RN_12_RD_20_1.png","I_Dist_100_LN_13_LD_26_RN_6_RD_10_1.png","I_Dist_100_LN_17_LD_30_RN_10_RD_15_1.png","I_Dist_100_LN_6_LD_12_RN_3_RD_5_1.png","I_Dist_100_LN_8_LD_16_RN_6_RD_10_1.png","I_Dist_100_LN_8_LD_20_RN_1_RD_2_1.png","I_Dist_100_LN_9_LD_18_RN_6_RD_10_1.png"]],"dist100_S":[["E_Dist_100_LN_2_LD_12_RN_2_RD_30_0.png","E_Dist_100_LN_6_LD_10_RN_6_RD_12_0.png"],["E_Dist_100_LN_6_LD_12_RN_6_RD_10_1.png"]],"dist200_C":[["C_Dist_200_LN_11_LD_22_RN_3_RD_10_0.png","C_Dist_200_LN_12_LD_15_RN_6_RD_10_0.png","C_Dist_200_LN_12_LD_20_RN_6_RD_15_0.png","C_Dist_200_LN_14_LD_28_RN_6_RD_20_0.png","C_Dist_200_LN_15_LD_25_RN_4_RD_10_0.png","C_Dist_200_LN_16_LD_20_RN_12_RD_20_0.png","C_Dist_200_LN_16_LD_30_RN_9_RD_27_0.png","C_Dist_200_LN_20_LD_25_RN_9_RD_15_0.png","C_Dist_200_LN_21_LD_30_RN_2_RD_4_0.png","C_Dist_200_LN_4_LD_10_RN_3_RD_15_0.png","C_Dist_200_LN_4_LD_8_RN_3_RD_10_0.png","C_Dist_200_LN_6_LD_15_RN_3_RD_15_0.png","C_Dist_200_LN_7_LD_21_RN_2_RD_15_0.png","C_Dist_200_LN_8_LD_15_RN_2_RD_6_0.png","C_Dist_200_LN_8_LD_15_RN_3_RD_9_0.png","C_Dist_200_LN_8_LD_15_RN_7_RD_21_0.png","C_Dist_200_LN_9_LD_20_RN_4_RD_16_0.png"],["C_Dist_200_LN_1_LD_2_RN_21_RD_30_1.png","C_Dist_200_LN_13_LD_26_RN_14_RD_20_1.png","C_Dist_200_LN_3_LD_10_RN_11_RD_22_1.png","C_Dist_200_LN_3_LD_10_RN_14_RD_28_1.png","C_Dist_200_LN_3_LD_10_RN_7_RD_14_1.png","C_Dist_200_LN_3_LD_12_RN_9_RD_20_1.png","C_Dist_200_LN_3_LD_6_RN_14_RD_20_1.png","C_Dist_200_LN_5_LD_10_RN_14_RD_20_1.png","C_Dist_200_LN_6_LD_12_RN_7_RD_10_1.png","C_Dist_200_LN_6_LD_20_RN_11_RD_22_1.png","C_Dist_200_LN_7_LD_15_RN_18_RD_27_1.png","C_Dist_200_LN_9_LD_30_RN_13_RD_26_1.png"]],"dist200_I":[["I_Dist_200_LN_1_LD_2_RN_3_RD_10_0.png","I_Dist_200_LN_1_LD_3_RN_2_RD_15_0.png","I_Dist_200_LN_3_LD_4_RN_11_RD_20_0.png","I_Dist_200_LN_4_LD_5_RN_6_RD_10_0.png","I_Dist_200_LN_4_LD_6_RN_14_RD_30_0.png","I_Dist_200_LN_7_LD_10_RN_12_RD_24_0.png","I_Dist_200_LN_7_LD_10_RN_14_RD_28_0.png","I_Dist_200_LN_7_LD_10_RN_8_RD_16_0.png"],["I_Dist_200_LN_11_LD_20_RN_3_RD_4_1.png","I_Dist_200_LN_14_LD_30_RN_12_RD_18_1.png","I_Dist_200_LN_14_LD_30_RN_6_RD_9_1.png","I_Dist_200_LN_3_LD_10_RN_1_RD_2_1.png","I_Dist_200_LN_4_LD_30_RN_1_RD_3_1.png","I_Dist_200_LN_6_LD_20_RN_3_RD_6_1.png","I_Dist_200_LN_7_LD_15_RN_4_RD_6_1.png","I_Dist_200_LN_7_LD_15_RN_6_RD_9_1.png","I_Dist_200_LN_9_LD_15_RN_8_RD_10_1.png"]],"dist200_S":[["E_Dist_200_LN_3_LD_6_RN_3_RD_10_0.png"],["E_Dist_200_LN_3_LD_10_RN_3_RD_6_1.png"]],"dist300_C":[["C_Dist_300_LN_11_LD_22_RN_1_RD_5_0.png","C_Dist_300_LN_11_LD_22_RN_2_RD_10_0.png","C_Dist_300_LN_11_LD_22_RN_4_RD_20_0.png","C_Dist_300_LN_12_LD_24_RN_2_RD_10_0.png","C_Dist_300_LN_18_LD_20_RN_9_RD_15_0.png","C_Dist_300_LN_20_LD_25_RN_13_RD_26_0.png","C_Dist_300_LN_20_LD_25_RN_14_RD_28_0.png","C_Dist_300_LN_20_LD_25_RN_5_RD_10_0.png","C_Dist_300_LN_20_LD_25_RN_8_RD_16_0.png","C_Dist_300_LN_20_LD_25_RN_9_RD_18_0.png","C_Dist_300_LN_24_LD_30_RN_2_RD_4_0.png","C_Dist_300_LN_24_LD_30_RN_8_RD_16_0.png","C_Dist_300_LN_3_LD_6_RN_2_RD_10_0.png","C_Dist_300_LN_4_LD_10_RN_1_RD_10_0.png","C_Dist_300_LN_4_LD_5_RN_2_RD_4_0.png","C_Dist_300_LN_8_LD_16_RN_1_RD_5_0.png","C_Dist_300_LN_9_LD_10_RN_3_RD_5_0.png"],["C_Dist_300_LN_1_LD_20_RN_7_RD_20_1.png","C_Dist_300_LN_1_LD_3_RN_19_RD_30_1.png","C_Dist_300_LN_1_LD_30_RN_8_RD_24_1.png","C_Dist_300_LN_1_LD_5_RN_11_RD_22_1.png","C_Dist_300_LN_1_LD_5_RN_3_RD_6_1.png","C_Dist_300_LN_1_LD_5_RN_6_RD_12_1.png","C_Dist_300_LN_2_LD_10_RN_12_RD_24_1.png","C_Dist_300_LN_2_LD_20_RN_10_RD_25_1.png","C_Dist_300_LN_3_LD_12_RN_11_RD_20_1.png","C_Dist_300_LN_3_LD_6_RN_4_RD_5_1.png","C_Dist_300_LN_4_LD_20_RN_13_RD_26_1.png","C_Dist_300_LN_5_LD_25_RN_6_RD_12_1.png","C_Dist_300_LN_5_LD_25_RN_7_RD_14_1.png","C_Dist_300_LN_7_LD_14_RN_20_RD_25_1.png","C_Dist_300_LN_8_LD_15_RN_10_RD_12_1.png"]],"dist300_I":[["I_Dist_300_LN_1_LD_2_RN_2_RD_10_0.png","I_Dist_300_LN_1_LD_2_RN_3_RD_15_0.png","I_Dist_300_LN_2_LD_4_RN_6_RD_30_0.png","I_Dist_300_LN_3_LD_6_RN_4_RD_20_0.png","I_Dist_300_LN_4_LD_5_RN_6_RD_12_0.png","I_Dist_300_LN_4_LD_5_RN_8_RD_16_0.png","I_Dist_300_LN_7_LD_10_RN_8_RD_20_0.png","I_Dist_300_LN_8_LD_10_RN_14_RD_28_0.png","I_Dist_300_LN_8_LD_10_RN_9_RD_18_0.png"],["I_Dist_300_LN_13_LD_26_RN_12_RD_15_1.png","I_Dist_300_LN_4_LD_20_RN_2_RD_4_1.png"]],"dist300_S":[["E_Dist_300_LN_9_LD_12_RN_9_RD_20_0.png"],["E_Dist_300_LN_18_LD_30_RN_18_RD_20_1.png","E_Dist_300_LN_3_LD_10_RN_3_RD_5_1.png","E_Dist_300_LN_9_LD_20_RN_9_RD_12_1.png"]],"dist500_C":[["C_Dist_500_LN_10_LD_13_RN_7_RD_26_0.png","C_Dist_500_LN_10_LD_15_RN_4_RD_24_0.png","C_Dist_500_LN_12_LD_16_RN_3_RD_12_0.png","C_Dist_500_LN_12_LD_18_RN_4_RD_24_0.png","C_Dist_500_LN_15_LD_18_RN_5_RD_15_0.png","C_Dist_500_LN_15_LD_20_RN_1_RD_4_0.png","C_Dist_500_LN_18_LD_27_RN_1_RD_6_0.png","C_Dist_500_LN_20_LD_24_RN_1_RD_3_0.png","C_Dist_500_LN_20_LD_24_RN_3_RD_9_0.png","C_Dist_500_LN_20_LD_24_RN_7_RD_21_0.png","C_Dist_500_LN_20_LD_28_RN_3_RD_14_0.png","C_Dist_500_LN_21_LD_28_RN_6_RD_24_0.png","C_Dist_500_LN_22_LD_28_RN_2_RD_7_0.png","C_Dist_500_LN_25_LD_30_RN_9_RD_27_0.png","C_Dist_500_LN_4_LD_6_RN_1_RD_6_0.png","C_Dist_500_LN_5_LD_6_RN_2_RD_6_0.png","C_Dist_500_LN_6_LD_9_RN_1_RD_6_0.png","C_Dist_500_LN_7_LD_10_RN_1_RD_5_0.png","C_Dist_500_LN_8_LD_12_RN_1_RD_6_0.png","C_Dist_500_LN_8_LD_12_RN_4_RD_24_0.png"],["C_Dist_500_LN_1_LD_4_RN_12_RD_16_1.png","C_Dist_500_LN_1_LD_4_RN_9_RD_12_1.png","C_Dist_500_LN_1_LD_9_RN_11_RD_18_1.png","C_Dist_500_LN_10_LD_24_RN_22_RD_24_1.png","C_Dist_500_LN_2_LD_12_RN_10_RD_15_1.png","C_Dist_500_LN_2_LD_12_RN_12_RD_18_1.png","C_Dist_500_LN_2_LD_12_RN_4_RD_6_1.png","C_Dist_500_LN_2_LD_24_RN_7_RD_12_1.png","C_Dist_500_LN_2_LD_5_RN_18_RD_20_1.png","C_Dist_500_LN_2_LD_5_RN_9_RD_10_1.png","C_Dist_500_LN_2_LD_8_RN_12_RD_16_1.png","C_Dist_500_LN_2_LD_8_RN_21_RD_28_1.png","C_Dist_500_LN_3_LD_10_RN_4_RD_5_1.png","C_Dist_500_LN_3_LD_12_RN_15_RD_20_1.png","C_Dist_500_LN_3_LD_30_RN_6_RD_10_1.png","C_Dist_500_LN_3_LD_8_RN_14_RD_16_1.png","C_Dist_500_LN_4_LD_16_RN_15_RD_20_1.png","C_Dist_500_LN_4_LD_24_RN_12_RD_18_1.png","C_Dist_500_LN_5_LD_14_RN_6_RD_7_1.png","C_Dist_500_LN_7_LD_21_RN_20_RD_24_1.png","C_Dist_500_LN_7_LD_28_RN_12_RD_16_1.png","C_Dist_500_LN_7_LD_28_RN_9_RD_12_1.png","C_Dist_500_LN_9_LD_27_RN_20_RD_24_1.png"]],"dist500_I":[["I_Dist_500_LN_2_LD_3_RN_4_RD_24_0.png","I_Dist_500_LN_5_LD_6_RN_6_RD_18_0.png","I_Dist_500_LN_7_LD_8_RN_9_RD_24_0.png"],["I_Dist_500_LN_7_LD_21_RN_5_RD_6_1.png"]],"dist500_S":[["E_Dist_500_LN_6_LD_8_RN_6_RD_24_0.png"],["E_Dist_500_LN_2_LD_12_RN_2_RD_3_1.png","E_Dist_500_LN_6_LD_24_RN_6_RD_8_1.png"]]}},{"start_time":1551891533819,"click_time":1551891557106,"finger_time":1551891556606,"fix_duration":250,"trial":1,"RT":22787,"MT":500,"sideResp":2,"stimulus":[],"xmouse":[800,800,800,800,800,800,800,800,800,800,800,800,800,800,800,800,800,800,800,800,800,800,800,800,800,800,800,800,800,800,800,800,800,800,800,800,800,800,800,800,800,800,800,800,800,800,800,800,800,800,800,800,800,800,800,801,801,801,801,801,801,801,801,801,801,801,801,801,801,801,801,801,801,801,801,801,801,801,801,801,801,801,801,801,801,801,801,801,801,801,801,801,801,801,801,801,801,801,801,801,801,801,801,801,801,801,801,801,801,801,801,801,801,801,801,801,801,801,801,801,801,801,801,801,801,801,801,801,801,801,801,801,801,801,801,801,801,801,801,801,801,801,801,801,801,801,801,801,801,801,801,801,801,801,801,801,801,801,801,801,801,801,801,801,801,801,801,801,801,801,801,801,801,801,801,801,801,801,801,801,801,801,801,801,801,801,801,801,801,801,801,801,801,801,801,801,801,801,801,801,801,801,801,801,801,801,801,801,801,801,801,801,801,801,801,801,801,801,801,801,801,801,801,801,801,801,801,801,801,801,801,801,801,801,801,801,801,801,801,801,801,801,801,801,801,801,801,801,801,801,801,801,801,801,801,801,801,801,801,801,801,801,801,801,801,801,801,801,801,801,801,801,801,801,801,801,801,801,801,801,801,801,801,801,801,801,801,801,801,801,801,801,801,801,801,801,801,801,801,801,801,801,801,801,801,801,801,801,801,801,801,801,801,801,801,801,801,801,801,801,801,801,801,801,801,801,801,801,801,801,801,801,801,801,801,801,801,801,801,801,801,801,801,801,801,801,801,801,801,801,801,801,801,801,801,801,801,801,801,801,801,801,801,801,801,801,801,801,801,801,801,801,801,801,801,801,801,801,801,801,801,801,801,801,801,801,801,801,801,801,801,801,801,801,801,801,801,801,801,801,801,801,801,801,801,801,801,801,801,801,801,801,801,801,801,801,801,801,801,801,801,801,801,801,801,801,801,801,801,801,801,801,801,801,801,801,801,801,801,801,801,801,801,801,801,801,801,801,801,801,801,801,801,801,801,801,801,801,801,801,801,801,801,801,801,801,801,801,801,801,801,801,801,801,801,801,801,801,801,801,801,801,801,801,801,801,801,801,801,801,801,801,801,801,801,801,801,801,801,801,801,801,801,801,801,801,801,801,801,801,801,801,801,801,801,801,801,801,801,801,801,801,801,801,801,801,801,801,801,801,801,801,801,801,801,801,801,801,801,801,801,801,801,801,801,801,801,801,801,801,801,801,801,801,801,801,801,801,801,801,801,801,801,801,801,801,801,801,801,801,801,801,801,801,801,801,801,801,801,801,801,801,801,801,801,801,801,801,801,801,801,801,801,801,801,801,801,801,801,801,801,801,801,801,801,801,801,801,801,801,801,801,801,801,801,801,801,801,801,801,801,801,801,801,801,801,801,801,801,801,801,801,801,801,801,801,801,801,801,801,801,801,801,801,801,801,801,801,801,801,801,801,801,801,801,801,801,801,801,801,801,801,801,801,801,801,801,801,801,801,801,801,801,801,801,801,801,801,801,801,801,801,801,801,801,801,801,801,801,801,801,801,801,801,801,801,801,801,801,801,801,801,801,801,801,801,801,801,801,801,801,801,801,801,801,801,801,801,801,801,801,801,801,801,801,801,801,801,801,801,801,801,801,801,801,801,801,801,801,801,801,801,801,801,801,801,801,801,801,801,801,801,801,801,801,801,801,801,801,801,801,801,801,801,801,801,801,801,801,801,801,801,801,801,801,801,801,801,801,801,801,801,801,801,801,801,801,801,801,801,801,801,801,801,801,801,801,801,801,801,801,801,801,801,801,801,801,801,801,801,801,801,801,801,801,801,801,801,801,801,801,801,801,801,801,801,801,801,801,801,801,801,801,801,801,801,801,801,801,801,801,801,801,801,801,801,801,801,801,801,801,801,801,801,801,801,801,801,801,801,801,801,801,801,801,801,801,801,801,801,801,801,801,801,801,801,801,801,801,801,801,801,801,801,801,801,801,801,801,801,801,801,801,801,801,801,801,801,801,801,801,801,801,801,801,801,801,801,801,801,801,801,801,801,801,801,801,801,801,801,801,801,801,801,801,801,801,801,801,801,801,801,801,801,801,801,801,801,801,801,801,801,801,801,801,801,801,801,801,801,801,801,801,801,801,801,801,801,801,801,801,801,801,801,801,801,801,801,801,801,801,801,801,801,801,801,801,801,801,801,801,801,801,801,801,801,801,801,801,801,801,801,801,801,801,801,801,801,801,801,801,801,801,801,801,801,801,801,801,801,801,801,801,801,801,801,801,801,801,801,801,801,801,801,801,801,801,801,801,801,801,801,801,801,801,801,801,801,801,801,801,801,801,801,801,801,801,801,801,801,801,801,801,801,801,801,801,801,801,801,801,801,801,801,801,801,801,801,801,801,801,801,801,801,801,801,801,801,801,801,801,801,801,801,801,801,801,801,801,801,801,801,801,801,801,801,801,801,801,801,801,801,801,801,801,801,801,801,801,801,801,801,801,801,801,801,801,801,801,801,801,801,801,801,801,801,801,801,801,801,801,801,801,801,801,801,801,808,833,897,980,1066,1162,1171,1168,1155,1097,1068,1067,1071,1076,1077,1078,1082,1090,1100,1114,1115,1115,1111,1109,1108,1108,1108,1108],"ymouse":[644,644,644,644,644,644,644,643,642,642,642,642,642,642,642,642,642,642,642,642,642,642,642,642,642,642,642,642,642,642,642,642,642,642,642,642,642,642,642,642,642,642,642,642,642,642,642,642,642,642,642,642,640,640,640,640,640,640,640,640,640,640,640,640,640,640,640,640,640,640,640,640,640,640,640,640,640,640,640,640,640,640,640,640,640,640,640,640,640,640,640,640,640,640,640,640,640,640,640,640,640,640,640,640,640,640,640,640,640,640,640,640,640,640,640,640,640,640,640,640,640,640,640,640,640,640,640,640,640,640,640,640,640,640,640,640,640,640,640,640,640,640,640,640,640,640,640,640,640,640,640,640,640,640,640,640,640,640,640,640,640,640,640,640,640,640,640,640,640,640,640,640,640,640,640,640,640,640,640,640,640,640,640,640,640,640,640,640,640,640,640,640,640,640,640,640,640,640,640,640,640,640,640,640,640,640,640,640,640,640,640,640,640,640,640,640,640,640,640,640,640,640,640,640,640,640,640,640,640,640,640,640,640,640,640,640,640,640,640,640,640,640,640,640,640,640,640,640,640,640,640,640,640,640,640,640,640,640,640,640,640,640,640,640,640,640,640,640,640,640,640,640,640,640,640,640,640,640,640,640,640,640,640,640,640,640,640,640,640,640,640,640,640,640,640,640,640,640,640,640,640,640,640,640,640,640,640,640,640,640,640,640,640,640,640,640,640,640,640,640,640,640,640,640,640,640,640,640,640,640,640,640,640,640,640,640,640,640,640,640,640,640,640,640,640,640,640,640,640,640,640,640,640,640,640,640,640,640,640,640,640,640,640,640,640,640,640,640,640,640,640,640,640,640,640,640,640,640,640,640,640,640,640,640,640,640,640,640,640,640,640,640,640,640,640,640,640,640,640,640,640,640,640,640,640,640,640,640,640,640,640,640,640,640,640,640,640,640,640,640,640,640,640,640,640,640,640,640,640,640,640,640,640,640,640,640,640,640,640,640,640,640,640,640,640,640,640,640,640,640,640,640,640,640,640,640,640,640,640,640,640,640,640,640,640,640,640,640,640,640,640,640,640,640,640,640,640,640,640,640,640,640,640,640,640,640,640,640,640,640,640,640,640,640,640,640,640,640,640,640,640,640,640,640,640,640,640,640,640,640,640,640,640,640,640,640,640,640,640,640,640,640,640,640,640,640,640,640,640,640,640,640,640,640,640,640,640,640,640,640,640,640,640,640,640,640,640,640,640,640,640,640,640,640,640,640,640,640,640,640,640,640,640,640,640,640,640,640,640,640,640,640,640,640,640,640,640,640,640,640,640,640,640,640,640,640,640,640,640,640,640,640,640,640,640,640,640,640,640,640,640,640,640,640,640,640,640,640,640,640,640,640,640,640,640,640,640,640,640,640,640,640,640,640,640,640,640,640,640,640,640,640,640,640,640,640,640,640,640,640,640,640,640,640,640,640,640,640,640,640,640,640,640,640,640,640,640,640,640,640,640,640,640,640,640,640,640,640,640,640,640,640,640,640,640,640,640,640,640,640,640,640,640,640,640,640,640,640,640,640,640,640,640,640,640,640,640,640,640,640,640,640,640,640,640,640,640,640,640,640,640,640,640,640,640,640,640,640,640,640,640,640,640,640,640,640,640,640,640,640,640,640,640,640,640,640,640,640,640,640,640,640,640,640,640,640,640,640,640,640,640,640,640,640,640,640,640,640,640,640,640,640,640,640,640,640,640,640,640,640,640,640,640,640,640,640,640,640,640,640,640,640,640,640,640,640,640,640,640,640,640,640,640,640,640,640,640,640,640,640,640,640,640,640,640,640,640,640,640,640,640,640,640,640,640,640,640,640,640,640,640,640,640,640,640,640,640,640,640,640,640,640,640,640,640,640,640,640,640,640,640,640,640,640,640,640,640,640,640,640,640,640,640,640,640,640,640,640,640,640,640,640,640,640,640,640,640,640,640,640,640,640,640,640,640,640,640,640,640,640,640,640,640,640,640,640,640,640,640,640,640,640,640,640,640,640,640,640,640,640,640,640,640,640,640,640,640,640,640,640,640,640,640,640,640,640,640,640,640,640,640,640,640,640,640,640,640,640,640,640,640,640,640,640,640,640,640,640,640,640,640,640,640,640,640,640,640,640,640,640,640,640,640,640,640,640,640,640,640,640,640,640,640,640,640,640,640,640,640,640,640,640,640,640,640,640,640,640,640,640,640,640,640,640,640,640,640,640,640,640,640,640,640,640,640,640,640,640,640,640,640,640,640,640,640,640,640,640,640,640,640,640,640,640,640,640,640,640,640,640,640,640,640,640,640,640,640,640,640,640,640,640,640,640,640,640,640,640,640,640,640,640,640,640,640,640,640,640,640,640,640,640,640,640,640,640,640,640,640,640,640,640,640,640,640,640,640,640,640,640,640,640,640,640,640,640,640,640,640,640,640,640,640,640,640,640,640,640,640,640,640,640,640,640,640,640,640,640,640,640,640,640,640,640,640,640,640,640,640,640,640,640,640,640,640,640,640,640,640,640,640,640,640,640,640,640,640,640,640,640,640,640,640,640,640,640,640,624,583,508,418,329,168,124,106,103,138,173,178,179,169,151,145,140,138,136,133,132,125,118,114,112,107,103,95],"timestamp_mouse":[9,27,51,67,88,107,126,147,168,187,207,228,247,266,288,307,328,347,367,387,407,426,446,468,487,508,527,547,566,587,607,627,647,667,688,708,728,747,767,787,808,826,847,867,888,907,927,947,968,988,1007,1028,1047,1068,1087,1107,1128,1147,1167,1188,1208,1227,1247,1268,1287,1307,1327,1347,1368,1386,1406,1428,1447,1468,1487,1507,1528,1547,1567,1588,1607,1628,1648,1666,1688,1707,1727,1747,1767,1787,1808,1827,1846,1868,1888,1907,1928,1947,1966,1987,2006,2028,2047,2068,2086,2108,2128,2147,2168,2187,2208,2228,2247,2267,2288,2308,2328,2347,2367,2387,2407,2427,2447,2468,2487,2507,2527,2547,2568,2588,2607,2628,2647,2667,2688,2707,2728,2747,2767,2788,2807,2828,2847,2867,2888,2907,2927,2947,2968,2987,3008,3026,3047,3067,3086,3107,3127,3147,3167,3187,3208,3227,3247,3266,3288,3308,3328,3347,3367,3386,3406,3428,3447,3466,3487,3508,3527,3547,3568,3588,3606,3627,3648,3666,3688,3707,3727,3747,3766,3788,3807,3828,3847,3866,3888,3907,3928,3947,3967,3987,4008,4027,4047,4066,4087,4107,4128,4147,4167,4186,4208,4228,4247,4267,4288,4307,4328,4347,4367,4388,4407,4427,4447,4467,4488,4507,4528,4547,4567,4587,4608,4628,4647,4667,4686,4708,4727,4747,4767,4787,4808,4827,4847,4866,4888,4907,4928,4947,4967,4987,5008,5027,5047,5067,5087,5108,5128,5147,5167,5188,5208,5228,5247,5266,5288,5307,5328,5347,5367,5388,5407,5428,5447,5467,5488,5507,5528,5547,5567,5588,5607,5628,5647,5666,5688,5707,5726,5747,5767,5787,5808,5827,5847,5867,5886,5907,5928,5947,5968,5987,6008,6028,6047,6067,6088,6107,6128,6147,6167,6187,6207,6227,6247,6268,6288,6307,6328,6347,6367,6386,6408,6428,6447,6467,6488,6507,6527,6547,6566,6588,6608,6628,6647,6667,6687,6708,6728,6747,6766,6788,6807,6828,6847,6868,6888,6907,6928,6947,6967,6986,7008,7028,7049,7068,7086,7107,7128,7147,7168,7187,7207,7228,7247,7267,7287,7308,7328,7347,7367,7388,7408,7426,7447,7468,7486,7507,7528,7547,7567,7588,7606,7626,7647,7667,7687,7706,7726,7747,7768,7787,7807,7827,7846,7868,7888,7907,7928,7947,7968,7988,8008,8027,8047,8067,8086,8107,8128,8147,8167,8187,8206,8227,8247,8267,8288,8307,8328,8347,8368,8388,8407,8428,8447,8467,8487,8508,8527,8547,8568,8588,8607,8627,8647,8666,8686,8707,8727,8747,8767,8787,8807,8827,8847,8867,8886,8907,8926,8947,8968,8987,9008,9028,9047,9067,9087,9107,9128,9147,9167,9188,9208,9228,9247,9267,9288,9307,9327,9346,9368,9388,9408,9427,9447,9468,9487,9508,9527,9547,9566,9587,9607,9627,9647,9667,9688,9708,9726,9747,9767,9788,9808,9826,9847,9868,9888,9908,9927,9947,9967,9987,10008,10028,10047,10067,10088,10108,10128,10147,10168,10187,10208,10227,10246,10267,10288,10306,10327,10347,10367,10388,10407,10427,10447,10468,10488,10508,10528,10547,10567,10587,10608,10628,10647,10668,10687,10708,10728,10747,10768,10788,10807,10828,10846,10867,10886,10908,10928,10947,10967,10986,11007,11027,11047,11068,11086,11108,11127,11147,11167,11188,11207,11227,11247,11267,11288,11307,11328,11347,11367,11386,11407,11427,11447,11467,11488,11508,11528,11547,11567,11588,11607,11627,11646,11667,11687,11707,11727,11747,11766,11787,11808,11827,11847,11867,11886,11908,11927,11947,11968,11986,12008,12027,12047,12067,12088,12108,12127,12147,12168,12187,12206,12227,12247,12266,12288,12307,12327,12346,12367,12387,12407,12427,12447,12468,12486,12507,12527,12547,12567,12588,12607,12627,12646,12668,12688,12706,12727,12747,12766,12788,12808,12826,12847,12867,12886,12907,12928,12947,12968,12987,13008,13027,13047,13068,13088,13107,13128,13147,13168,13188,13207,13226,13247,13268,13286,13308,13328,13347,13368,13387,13408,13428,13447,13467,13486,13507,13527,13547,13567,13587,13607,13627,13647,13667,13688,13706,13727,13747,13767,13787,13808,13828,13847,13868,13888,13908,13927,13947,13967,13988,14007,14028,14047,14068,14088,14107,14127,14146,14167,14186,14207,14228,14246,14268,14288,14307,14328,14347,14368,14388,14406,14428,14447,14468,14488,14508,14528,14547,14568,14588,14608,14627,14647,14667,14686,14708,14727,14747,14768,14788,14806,14827,14847,14868,14888,14907,14928,14947,14967,14988,15008,15028,15047,15068,15088,15107,15128,15147,15168,15187,15207,15227,15247,15267,15286,15308,15327,15346,15368,15388,15407,15428,15447,15468,15488,15508,15528,15547,15568,15588,15607,15628,15647,15668,15687,15707,15728,15747,15767,15788,15807,15827,15847,15867,15888,15908,15927,15947,15968,15988,16008,16028,16046,16068,16088,16108,16127,16147,16167,16188,16208,16227,16246,16268,16287,16308,16327,16347,16366,16387,16408,16428,16446,16467,16488,16506,16528,16546,16567,16588,16608,16627,16647,16667,16687,16706,16727,16747,16767,16788,16807,16828,16847,16867,16888,16907,16928,16947,16968,16986,17007,17028,17047,17067,17088,17108,17127,17147,17168,17188,17208,17228,17247,17266,17288,17308,17328,17347,17368,17386,17407,17428,17447,17468,17486,17507,17527,17547,17566,17587,17607,17627,17647,17666,17688,17707,17728,17747,17768,17786,17807,17828,17847,17867,17888,17908,17928,17947,17967,17987,18007,18028,18047,18067,18088,18108,18127,18147,18167,18187,18208,18228,18247,18268,18287,18307,18328,18347,18367,18388,18407,18428,18447,18467,18488,18508,18528,18547,18568,18587,18607,18627,18646,18667,18687,18708,18726,18747,18767,18786,18807,18828,18846,18867,18888,18907,18928,18947,18967,18987,19007,19028,19047,19067,19086,19107,19128,19147,19166,19188,19207,19227,19247,19268,19288,19306,19328,19347,19367,19388,19407,19427,19447,19467,19488,19508,19527,19547,19568,19587,19607,19627,19647,19667,19688,19707,19727,19747,19767,19787,19807,19827,19847,19868,19888,19908,19927,19947,19967,19988,20007,20028,20047,20067,20086,20108,20128,20147,20167,20188,20207,20227,20246,20267,20288,20306,20328,20347,20367,20387,20407,20428,20447,20468,20488,20508,20527,20547,20566,20587,20608,20627,20647,20667,20688,20706,20727,20747,20768,20787,20807,20828,20847,20867,20888,20906,20927,20947,20968,20988,21007,21028,21047,21066,21087,21106,21128,21147,21167,21187,21208,21227,21247,21267,21288,21307,21328,21347,21368,21387,21408,21428,21447,21466,21487,21507,21527,21547,21567,21587,21607,21627,21647,21668,21686,21708,21727,21748,21767,21788,21807,21828,21847,21867,21887,21907,21927,21947,21966,21988,22008,22027,22047,22067,22087,22107,22126,22147,22167,22188,22208,22227,22246,22268,22287,22308,22327,22346,22368,22388,22407,22427,22447,22468,22486,22506,22527,22547,22567,22588,22606,22628,22647,22668,22687,22708,22727,22747,22767,22787,22807,22827,22848,22867,22887,22907,22927,22947,22967,22987,23007,23027,23047,23067,23087,23106,23128,23147,23167,23188,23207,23227,23246,23267,23286],"xSR":741.5,"ySR":573.95,"xT1":424.9,"yT1":0,"xT2":1058.1,"yT2":0,"toosoon":0,"cond_shown":"Incongruent","ratio_trial":100,"L_num":10,"L_den":25,"R_num":9,"R_den":18,"correct_side":2,"subjID":"LunaBenavidesSilva17","gender":"1","school":"6","age":"11"},{"start_time":1551891559057,"click_time":1551891564566,"finger_time":1551891564166,"fix_duration":250,"trial":2,"RT":5109,"MT":400,"sideResp":2,"stimulus":[],"xmouse":[792,792,792,792,792,792,792,792,792,792,792,792,792,792,792,792,792,792,792,792,792,792,792,792,792,792,792,792,792,792,792,792,792,792,792,792,792,792,792,792,792,792,792,792,792,792,792,792,792,792,792,792,792,792,792,792,792,792,792,792,792,792,792,792,792,792,792,792,792,792,792,792,792,792,792,792,792,792,792,792,792,792,792,792,792,792,792,792,792,792,792,792,792,792,792,792,792,792,792,792,792,792,792,792,792,792,792,792,792,792,792,792,792,792,792,792,792,792,792,792,792,792,792,792,792,792,792,792,792,792,792,792,792,792,792,792,792,792,792,792,792,792,792,792,792,792,792,792,792,792,792,792,792,792,792,792,792,792,792,792,792,792,792,792,792,792,792,792,792,792,792,793,794,794,794,794,794,794,794,794,794,794,794,794,794,794,794,794,794,794,794,794,794,794,794,794,794,794,794,794,794,794,794,794,794,794,794,794,794,794,794,794,794,794,794,794,794,794,794,794,794,794,794,794,794,794,794,794,794,794,794,794,794,794,794,794,794,794,794,794,794,794,794,794,794,795,795,795,795,795,795,795,796,797,804,814,823,836,850,878,892,905,914,921,923,923,923,924,925,939,951,965,981,1001,1047,1097],"ymouse":[617,617,617,617,617,617,617,617,617,617,617,617,617,617,617,617,617,617,617,617,617,617,617,617,617,617,617,617,617,617,617,617,617,617,617,617,617,617,617,617,617,617,617,617,617,617,617,617,617,617,617,617,617,617,617,617,617,617,617,617,617,617,617,617,617,617,617,617,617,617,617,617,617,617,617,617,617,617,617,617,617,617,617,617,617,617,617,617,617,617,617,617,617,617,617,617,617,617,617,617,617,617,617,617,617,617,617,617,617,617,617,617,617,617,617,617,617,617,617,617,617,617,617,617,617,617,617,617,617,617,617,617,617,617,617,617,617,617,617,617,617,617,617,617,617,617,617,617,617,617,617,617,617,617,617,617,617,617,617,617,617,617,617,617,617,617,617,617,617,617,617,617,617,617,617,617,617,617,617,617,617,617,617,617,617,617,617,617,617,617,617,617,617,617,617,617,617,617,617,617,617,617,617,617,617,617,617,617,617,617,617,617,617,617,617,617,617,617,617,617,617,617,617,617,617,617,617,617,617,617,617,617,617,617,617,617,617,617,617,617,617,617,617,615,613,612,611,611,611,611,611,609,609,607,591,572,556,538,519,464,431,402,380,358,324,303,292,281,271,242,224,204,183,159,122,87],"timestamp_mouse":[9,37,50,69,90,109,130,150,169,190,209,229,249,269,290,309,330,350,369,390,409,429,449,470,489,508,530,550,570,589,609,630,648,670,689,708,730,749,769,789,808,829,849,870,889,909,929,950,969,990,1009,1030,1050,1069,1089,1108,1129,1149,1168,1189,1209,1229,1250,1270,1289,1309,1330,1350,1370,1389,1409,1429,1450,1470,1488,1509,1529,1549,1569,1589,1609,1629,1649,1670,1689,1709,1730,1749,1770,1790,1809,1829,1849,1869,1889,1909,1929,1949,1969,1990,2009,2029,2049,2068,2090,2109,2128,2150,2170,2190,2209,2230,2248,2270,2289,2309,2329,2350,2370,2390,2409,2430,2450,2470,2489,2509,2529,2550,2569,2589,2608,2630,2650,2669,2689,2710,2729,2749,2769,2789,2809,2829,2850,2870,2888,2908,2929,2949,2969,2990,3009,3028,3049,3070,3089,3108,3130,3149,3168,3189,3209,3229,3250,3270,3290,3309,3330,3350,3370,3389,3409,3430,3448,3470,3490,3509,3528,3550,3569,3589,3610,3629,3650,3669,3690,3709,3729,3749,3770,3788,3809,3829,3849,3869,3890,3909,3929,3950,3969,3989,4009,4028,4050,4070,4090,4109,4129,4149,4169,4190,4209,4229,4250,4269,4288,4309,4329,4350,4369,4390,4409,4430,4449,4469,4490,4508,4529,4550,4569,4589,4609,4628,4649,4669,4690,4709,4730,4749,4768,4788,4809,4829,4850,4870,4889,4909,4929,4948,4969,4990,5009,5029,5049,5070,5089,5109,5129,5150,5170,5190,5209,5230,5250,5268,5289,5309,5329,5349,5369,5389,5409,5429,5450,5469,5489,5508],"xSR":741.5,"ySR":573.95,"xT1":424.9,"yT1":0,"xT2":1058.1,"yT2":0,"toosoon":0,"cond_shown":"Congruent","ratio_trial":100,"L_num":11,"L_den":22,"R_num":4,"R_den":10,"correct_side":1,"subjID":"LunaBenavidesSilva17","gender":"1","school":"6","age":"11"},{"start_time":1551891566178,"click_time":1551891572947,"finger_time":1551891569727,"fix_duration":250,"trial":3,"RT":3549,"MT":3220,"sideResp":2,"stimulus":[],"xmouse":[812,812,812,811,811,811,811,811,811,811,811,811,811,811,811,811,811,811,811,811,811,809,806,799,799,799,799,799,799,800,800,800,800,800,800,800,800,800,800,800,800,800,800,800,800,800,800,800,800,800,800,800,800,800,800,800,800,800,800,800,800,800,800,800,800,800,800,800,800,800,800,800,800,800,800,800,800,800,800,800,800,800,800,800,800,800,800,800,800,800,800,800,800,800,800,800,800,800,800,800,800,800,800,800,800,800,800,800,800,800,800,800,800,800,800,800,800,800,800,800,800,801,801,801,801,801,801,801,801,801,801,801,801,801,801,801,801,801,801,801,801,801,801,801,801,801,801,801,801,801,801,805,808,811,814,814,814,814,814,814,814,814,814,814,814,814,814,814,814,814,814,814,814,814,816,825,836,845,856,857,859,861,862,867,870,873,876,879,884,885,886,886,886,887,887,887,887,888,888,888,888,888,888,888,888,888,888,888,888,888,888,888,888,888,888,888,888,888,888,888,888,888,888,888,888,888,888,888,888,888,888,888,888,888,888,888,888,888,888,888,888,888,888,888,888,888,888,888,888,888,888,888,888,888,888,888,888,888,888,888,888,888,888,888,889,891,893,894,896,896,896,896,896,896,896,896,896,896,898,901,901,902,902,902,902,902,902,902,902,902,902,902,902,902,902,902,902,902,901,900,899,899,899,899,899,899,900,901,901,907,936,959,986,1011,1018,1024,1031,1033,1033,1032,1023,1017,1015,1014,1014,1015,1024,1033,1045,1050,1058,1065,1075,1097,1106,1115,1121,1127,1147],"ymouse":[603,603,603,601,600,600,600,600,600,600,600,600,600,600,600,600,600,600,600,600,599,598,598,597,597,597,597,594,594,594,594,594,594,594,594,594,594,594,594,594,594,594,594,594,594,594,594,594,594,594,594,594,594,594,594,594,594,594,594,594,594,594,594,594,594,594,594,594,594,594,594,594,594,594,594,594,594,594,594,594,594,594,594,594,594,594,594,594,594,594,594,594,594,594,594,594,594,594,594,594,594,594,594,594,594,594,594,594,594,594,594,594,594,594,594,594,594,594,594,594,594,593,593,593,593,593,593,593,593,593,593,593,593,593,593,593,593,593,593,593,593,593,593,593,593,593,593,593,593,593,593,594,594,594,594,593,593,593,593,593,593,593,593,593,593,593,593,593,593,593,593,593,593,593,593,602,615,632,666,672,673,673,674,674,674,675,675,676,677,677,677,677,677,677,677,677,677,677,677,677,677,677,677,677,677,677,677,677,677,677,677,677,677,677,677,677,677,677,677,677,677,677,677,677,677,677,677,677,677,677,677,677,677,677,677,677,677,677,677,677,677,677,677,677,677,677,677,677,677,677,677,677,677,677,677,677,677,677,677,677,677,677,677,677,677,677,677,677,677,677,677,677,677,677,677,677,677,677,677,677,677,677,677,677,677,677,677,677,677,677,677,677,677,677,677,677,677,677,672,659,652,651,651,650,650,650,650,648,628,587,542,515,488,444,426,410,396,390,388,388,394,400,402,403,403,398,384,367,334,320,297,282,266,232,215,196,173,142,47],"timestamp_mouse":[16,38,48,69,87,108,129,148,169,189,209,228,249,269,288,309,329,349,368,388,408,428,448,468,488,509,528,548,569,588,608,629,649,669,687,708,729,747,769,788,807,828,848,869,888,909,929,948,968,988,1009,1028,1049,1068,1088,1108,1129,1149,1168,1188,1208,1228,1248,1268,1288,1308,1328,1347,1369,1388,1409,1428,1448,1469,1488,1508,1528,1547,1568,1588,1608,1628,1648,1668,1688,1708,1729,1748,1767,1788,1808,1829,1847,1867,1888,1908,1928,1949,1968,1988,2008,2027,2048,2068,2088,2108,2129,2148,2169,2188,2208,2229,2249,2268,2287,2308,2328,2348,2369,2388,2408,2429,2448,2468,2488,2508,2529,2548,2568,2588,2610,2628,2648,2669,2688,2709,2728,2750,2769,2788,2809,2829,2848,2869,2889,2908,2930,2948,2968,2988,3009,3028,3049,3068,3089,3110,3128,3149,3169,3188,3208,3228,3248,3270,3288,3308,3329,3348,3368,3389,3408,3428,3448,3470,3489,3510,3529,3549,3568,3588,3609,3628,3648,3669,3688,3709,3728,3748,3769,3788,3809,3830,3849,3868,3888,3909,3928,3948,3969,3988,4008,4029,4050,4069,4088,4108,4128,4149,4168,4190,4209,4229,4249,4268,4288,4308,4329,4349,4368,4389,4409,4429,4448,4468,4488,4509,4529,4549,4569,4588,4608,4628,4650,4668,4688,4708,4728,4750,4770,4788,4809,4829,4848,4869,4888,4909,4929,4950,4969,4989,5009,5028,5048,5069,5089,5109,5128,5149,5169,5188,5209,5230,5249,5268,5289,5308,5328,5350,5369,5388,5408,5428,5450,5469,5488,5508,5529,5548,5568,5588,5609,5629,5650,5669,5688,5708,5729,5750,5769,5788,5809,5829,5849,5869,5888,5909,5929,5950,5969,5988,6008,6028,6049,6069,6088,6109,6129,6148,6169,6188,6209,6228,6248,6269,6289,6309,6329,6349,6369,6388,6408,6429,6448,6469,6489,6509,6528,6548,6569,6588,6608,6629,6649,6669,6688,6709,6728,6748,6768],"xSR":741.5,"ySR":573.95,"xT1":424.9,"yT1":0,"xT2":1058.1,"yT2":0,"toosoon":0,"cond_shown":"Incongruent","ratio_trial":200,"L_num":1,"L_den":2,"R_num":3,"R_den":10,"correct_side":1,"subjID":"LunaBenavidesSilva17","gender":"1","school":"6","age":"11"},{"start_time":1551891576283,"click_time":1551891581568,"finger_time":1551891576966,"fix_duration":316.204591150831,"trial":4,"RT":683,"MT":4602,"sideResp":1,"stimulus":[],"xmouse":[794,794,794,794,794,794,794,794,794,794,794,794,794,797,799,800,800,802,802,803,803,804,806,808,812,816,818,821,827,829,833,834,838,840,842,845,846,847,848,850,851,852,853,853,853,853,853,853,853,853,853,853,853,853,853,853,853,853,853,853,853,853,853,853,853,853,853,853,853,853,853,853,853,853,854,855,856,857,861,863,865,870,874,880,881,881,881,881,881,881,881,881,881,881,881,881,883,883,883,883,883,883,883,883,883,883,883,883,883,883,883,883,883,883,883,883,883,883,883,883,883,883,883,883,883,883,883,883,883,883,883,883,883,883,883,883,883,883,883,883,883,883,883,883,883,883,883,883,883,883,883,883,883,883,883,883,883,883,883,883,883,883,883,883,883,883,883,883,883,883,883,883,883,883,883,883,883,883,878,877,873,872,872,872,872,872,871,871,869,867,864,864,864,864,864,863,861,859,856,855,852,846,838,804,769,743,709,681,660,631,623,618,614,601,584,570,552,542,533,530,527,527,529,535,535,535,535,535,536,536,534,530,529,529,529,528,528,528,528,528,528,528,523,515,511,510,510,510,510,510,510,510,510,510,508,506,506,506,506,505,505,505,505,505,505],"ymouse":[635,635,635,635,635,635,635,635,635,635,635,635,635,635,637,637,637,637,637,637,637,637,637,638,639,639,640,640,641,641,641,641,641,641,642,642,642,642,643,643,643,644,644,644,644,644,644,644,644,644,644,644,644,644,644,644,644,644,644,644,644,644,644,644,644,644,644,644,644,644,644,644,644,644,644,644,644,644,644,645,645,646,648,649,649,649,649,649,649,649,649,649,649,649,649,649,650,650,650,650,650,650,650,650,650,650,650,650,650,650,650,650,650,650,650,650,650,650,650,650,650,650,650,650,650,650,650,650,650,650,650,650,650,650,650,650,650,650,650,650,650,650,650,650,650,651,653,654,654,654,654,654,654,654,654,654,654,654,654,654,654,654,654,654,654,654,654,654,654,654,654,654,654,654,654,654,654,654,654,654,654,654,654,654,654,654,654,654,654,654,653,653,653,653,653,651,647,640,636,634,629,615,590,523,478,450,427,406,393,376,371,367,363,345,316,281,252,238,233,231,227,220,211,201,201,201,201,200,184,178,177,176,176,176,176,176,176,176,176,176,176,175,167,152,147,145,145,145,145,145,145,144,143,139,134,126,118,111,101,100,100,100,100,100,99],"timestamp_mouse":[9,24,44,64,83,104,124,143,164,183,204,223,244,264,284,303,323,343,363,383,404,423,445,463,483,503,525,543,564,584,604,624,644,664,683,703,723,743,763,783,804,824,844,864,883,904,925,943,964,983,1005,1024,1044,1063,1083,1103,1124,1144,1164,1184,1204,1224,1243,1264,1283,1304,1323,1344,1364,1383,1405,1424,1444,1464,1483,1503,1523,1543,1563,1583,1603,1623,1643,1663,1683,1704,1723,1743,1764,1784,1803,1824,1844,1864,1883,1903,1924,1943,1964,1984,2004,2023,2043,2063,2083,2104,2123,2144,2164,2183,2203,2223,2243,2263,2284,2303,2323,2344,2363,2385,2405,2424,2444,2465,2483,2504,2524,2543,2563,2584,2604,2624,2644,2664,2684,2704,2723,2743,2763,2783,2803,2824,2844,2864,2883,2904,2924,2944,2964,2983,3003,3023,3043,3064,3083,3103,3124,3144,3164,3183,3203,3224,3244,3263,3284,3303,3324,3343,3364,3384,3404,3424,3445,3464,3483,3504,3524,3543,3564,3583,3603,3623,3645,3665,3683,3704,3724,3744,3764,3784,3804,3825,3844,3863,3884,3904,3923,3943,3964,3983,4004,4025,4044,4064,4083,4104,4123,4143,4163,4183,4203,4224,4244,4264,4283,4304,4323,4344,4363,4384,4404,4423,4443,4464,4483,4504,4525,4543,4563,4583,4604,4624,4645,4663,4683,4703,4723,4744,4764,4783,4803,4823,4844,4864,4883,4903,4923,4944,4964,4984,5004,5024,5043,5063,5083,5104,5124,5144,5164,5185,5204,5224,5244,5264,5284],"xSR":741.5,"ySR":573.95,"xT1":424.9,"yT1":0,"xT2":1058.1,"yT2":0,"toosoon":0,"cond_shown":"Congruent","ratio_trial":200,"L_num":6,"L_den":12,"R_num":7,"R_den":10,"correct_side":2,"subjID":"LunaBenavidesSilva17","gender":"1","school":"6","age":"11"},{"start_time":1551891583666,"click_time":1551891587547,"finger_time":1551891586847,"fix_duration":738.9711861529236,"trial":5,"RT":3181,"MT":700,"sideResp":1,"stimulus":[],"xmouse":[783,783,783,783,783,783,783,783,783,783,783,783,783,783,783,783,783,783,783,783,783,783,783,783,783,783,783,783,783,783,783,783,783,783,783,783,783,783,783,783,783,783,783,783,783,783,783,783,783,783,783,783,783,783,783,783,783,783,783,783,783,783,783,783,783,783,783,783,783,783,783,783,783,783,783,783,783,783,783,783,783,783,783,783,783,783,783,783,783,783,783,783,783,783,783,783,783,783,783,783,783,783,783,783,783,783,783,783,783,783,783,783,783,783,783,783,783,783,783,783,783,783,783,785,785,785,785,785,785,785,785,785,785,785,785,785,785,785,785,785,785,785,785,785,785,785,785,785,785,785,785,785,785,785,785,791,795,796,796,787,771,746,721,698,682,682,683,683,686,686,686,686,687,687,675,658,643,627,610,595,571,560,549,541,524,515,503,495,487,481,467,464,460,459,456],"ymouse":[606,606,606,606,606,606,606,606,606,606,606,606,606,606,606,606,606,606,606,606,606,606,606,606,606,606,606,606,606,606,606,606,606,606,606,606,606,606,606,606,606,606,606,606,606,606,606,606,606,606,606,606,606,606,606,606,606,606,606,606,606,606,606,606,606,606,606,606,606,606,606,606,606,606,606,606,606,606,606,606,606,606,606,606,606,606,606,606,606,606,606,606,606,606,606,606,606,606,606,606,606,606,606,606,606,606,606,606,606,606,606,606,606,606,606,606,606,606,606,606,606,606,606,605,601,601,601,601,601,601,600,600,600,600,600,600,600,600,600,600,600,600,600,600,600,600,600,600,600,600,600,600,600,600,600,593,586,580,575,549,523,489,449,418,384,378,375,375,375,375,375,375,374,373,357,342,332,320,308,297,276,265,253,244,224,210,195,184,172,160,136,127,118,112,98],"timestamp_mouse":[8,20,41,60,80,100,120,140,161,180,200,220,242,261,280,300,321,341,361,380,400,421,441,461,482,500,521,540,561,580,600,620,640,662,680,700,720,741,761,780,801,820,840,860,880,900,920,941,960,980,1000,1021,1040,1062,1080,1100,1120,1142,1161,1180,1200,1220,1240,1261,1281,1300,1321,1341,1361,1381,1401,1420,1441,1462,1480,1500,1521,1542,1560,1581,1600,1620,1640,1661,1681,1700,1721,1742,1760,1781,1800,1822,1841,1862,1880,1900,1920,1940,1960,1981,2000,2021,2041,2062,2081,2101,2121,2140,2162,2181,2200,2220,2242,2261,2280,2300,2321,2340,2362,2381,2400,2420,2440,2460,2481,2500,2520,2540,2560,2581,2600,2620,2641,2662,2680,2700,2720,2742,2762,2781,2800,2821,2841,2860,2881,2902,2920,2940,2961,2982,3000,3021,3041,3060,3081,3100,3120,3142,3161,3181,3200,3221,3240,3261,3281,3300,3321,3341,3361,3381,3400,3421,3440,3461,3480,3500,3521,3540,3560,3581,3600,3622,3641,3660,3681,3700,3721,3741,3761,3780,3801,3822,3841,3861,3881],"xSR":741.5,"ySR":573.95,"xT1":424.9,"yT1":0,"xT2":1058.1,"yT2":0,"toosoon":0,"cond_shown":"Congruent","ratio_trial":200,"L_num":14,"L_den":28,"R_num":6,"R_den":20,"correct_side":1,"subjID":"LunaBenavidesSilva17","gender":"1","school":"6","age":"11"},{"start_time":1551891589747,"click_time":1551891595806,"finger_time":1551891595347,"fix_duration":639.895704710267,"trial":6,"RT":5600,"MT":459,"sideResp":1,"stimulus":[],"xmouse":[791,791,791,791,791,791,791,791,791,791,791,791,791,791,791,791,791,791,790,789,787,787,787,787,787,787,787,787,787,787,787,787,787,787,787,787,787,787,787,787,787,787,787,787,787,787,787,787,787,787,787,787,787,787,787,787,787,787,787,787,787,787,787,787,787,787,787,787,787,787,787,787,787,787,787,787,787,787,787,787,787,787,787,787,787,787,787,787,787,787,787,787,787,787,787,787,787,787,787,787,787,787,787,787,787,787,787,787,787,787,788,788,788,787,784,776,776,776,776,776,775,775,774,774,774,772,771,770,770,770,770,770,770,769,769,769,769,769,769,769,769,769,769,769,769,769,769,769,769,769,769,769,769,769,769,769,769,769,769,769,769,770,770,773,775,776,776,776,776,776,776,776,776,776,776,776,776,776,776,776,776,776,776,776,776,776,776,776,776,776,776,776,776,776,776,776,776,776,776,776,776,776,776,776,776,776,776,776,776,776,776,776,776,776,776,776,776,776,776,776,776,776,776,776,776,776,776,776,776,776,776,776,776,776,776,776,776,776,776,776,776,776,776,776,776,776,776,776,776,776,776,776,776,776,776,776,776,776,776,776,776,776,776,776,776,776,776,776,776,776,776,776,776,776,776,776,776,774,768,764,751,740,729,712,680,616,597,590,585,584,584,568,562,557,555,555,555,555,555,551,549,533,528,522],"ymouse":[610,610,610,610,610,610,610,610,610,610,610,610,610,610,610,610,608,605,600,597,595,595,595,595,595,595,595,595,595,595,595,595,595,595,595,595,595,595,595,595,595,595,595,595,595,595,595,595,595,595,595,596,597,597,598,598,598,598,598,598,598,598,598,598,598,598,598,598,598,598,598,598,598,598,598,598,598,598,598,598,598,598,598,598,598,598,598,598,598,598,598,598,598,598,598,598,598,598,598,598,598,598,598,598,598,598,598,598,598,598,593,591,591,594,597,607,607,607,607,607,607,607,607,607,607,606,605,604,604,604,604,604,604,603,599,594,594,594,594,594,594,594,594,594,594,594,594,594,594,594,594,594,594,591,588,588,588,588,588,588,588,587,587,587,587,587,587,587,587,587,587,587,587,587,587,587,587,587,587,587,587,587,587,587,587,587,587,587,587,587,587,587,587,587,587,587,587,587,587,587,587,587,587,587,587,587,587,587,587,587,587,587,587,587,587,587,587,587,587,587,587,587,587,587,587,587,587,587,587,587,587,587,587,587,587,587,587,587,587,587,587,587,587,587,587,587,587,587,587,587,587,587,587,587,587,587,587,587,587,587,587,587,587,587,587,587,587,587,587,587,587,587,587,587,587,587,587,584,580,575,561,542,523,497,451,348,317,286,252,223,199,149,129,111,104,102,102,102,102,98,96,82,79,76],"timestamp_mouse":[2,21,47,61,80,100,119,141,160,180,199,219,239,260,279,299,319,340,360,379,400,420,439,460,479,500,520,540,559,579,601,619,639,660,679,699,719,739,759,779,799,819,839,860,881,899,919,939,959,979,1000,1020,1040,1059,1080,1100,1119,1139,1160,1179,1201,1219,1241,1259,1279,1300,1319,1340,1360,1380,1399,1419,1441,1459,1479,1499,1519,1539,1559,1579,1599,1619,1641,1659,1679,1700,1720,1740,1759,1780,1799,1819,1841,1859,1879,1899,1920,1940,1959,1979,2000,2019,2039,2060,2081,2099,2119,2140,2159,2179,2200,2219,2239,2261,2280,2300,2319,2339,2359,2379,2399,2419,2439,2460,2479,2499,2520,2540,2559,2579,2601,2619,2640,2659,2680,2700,2719,2739,2760,2780,2800,2819,2839,2860,2880,2900,2919,2939,2959,2981,2999,3019,3039,3059,3080,3101,3119,3139,3161,3180,3200,3219,3240,3260,3280,3300,3319,3340,3360,3379,3400,3420,3440,3459,3479,3500,3519,3539,3560,3579,3599,3620,3640,3659,3680,3699,3719,3739,3759,3780,3800,3819,3840,3859,3879,3900,3919,3939,3961,3981,4000,4019,4039,4059,4080,4100,4119,4139,4161,4179,4199,4219,4239,4259,4279,4300,4320,4339,4361,4380,4400,4419,4439,4461,4481,4500,4521,4540,4560,4579,4600,4619,4640,4659,4680,4699,4719,4739,4759,4780,4800,4819,4839,4860,4879,4900,4919,4940,4960,4979,4999,5019,5040,5059,5081,5100,5119,5139,5159,5179,5200,5219,5240,5259,5280,5299,5319,5340,5360,5380,5400,5420,5440,5460,5479,5501,5520,5539,5559,5581,5600,5619,5640,5660,5679,5700,5719,5740,5760,5779,5800,5819,5839,5860,5881,5900,5923,5940,5960,5981,6000,6020,6040,6059],"xSR":741.5,"ySR":573.95,"xT1":424.9,"yT1":0,"xT2":1058.1,"yT2":0,"toosoon":0,"cond_shown":"Congruent","ratio_trial":200,"L_num":6,"L_den":20,"R_num":11,"R_den":22,"correct_side":2,"subjID":"LunaBenavidesSilva17","gender":"1","school":"6","age":"11"},{"start_time":1551891597185,"click_time":1551891599247,"finger_time":1551891598987,"fix_duration":316.2861141506701,"trial":7,"RT":1802,"MT":260,"sideResp":1,"stimulus":[],"xmouse":[806,806,806,806,806,806,806,806,806,806,806,806,806,806,806,806,806,806,806,806,806,806,806,806,806,806,806,806,806,806,806,806,806,806,806,806,806,806,806,806,806,806,806,806,806,806,806,806,806,806,806,806,806,806,806,806,806,806,806,806,806,806,806,806,806,806,806,806,806,806,806,806,806,806,806,806,806,806,806,806,806,806,806,806,806,806,806,804,800,785,766,754,736,681,641,612,596,586,582,578,572,563,541,484],"ymouse":[615,615,615,615,615,615,615,615,615,615,615,615,615,615,615,615,615,615,615,615,615,615,615,615,615,615,615,615,615,615,615,615,615,615,615,615,615,615,615,615,615,615,615,615,615,615,615,615,615,615,615,615,615,615,615,615,615,615,615,615,615,615,615,615,615,615,615,615,615,615,615,615,615,615,615,615,615,615,615,615,615,615,615,615,615,615,615,615,611,591,569,555,530,434,370,328,304,291,279,265,228,181,120,30],"timestamp_mouse":[9,36,41,62,81,103,122,141,161,181,202,222,242,262,281,301,322,341,362,381,403,422,442,462,482,502,521,541,561,581,601,622,642,662,681,701,722,741,761,781,802,823,841,862,881,901,921,943,961,982,1001,1021,1042,1061,1081,1103,1123,1142,1162,1181,1201,1221,1241,1262,1282,1302,1322,1342,1362,1382,1401,1422,1441,1463,1481,1501,1522,1541,1562,1582,1602,1623,1643,1661,1681,1701,1723,1742,1762,1781,1802,1822,1841,1862,1881,1902,1922,1942,1962,1981,2001,2023,2042,2062],"xSR":741.5,"ySR":573.95,"xT1":424.9,"yT1":0,"xT2":1058.1,"yT2":0,"toosoon":0,"cond_shown":"Congruent","ratio_trial":100,"L_num":10,"L_den":25,"R_num":3,"R_den":10,"correct_side":1,"subjID":"LunaBenavidesSilva17","gender":"1","school":"6","age":"11"},{"start_time":1551891600560,"click_time":1551891605127,"finger_time":1551891603166,"fix_duration":250,"trial":8,"RT":2606,"MT":1961,"sideResp":2,"stimulus":[],"xmouse":[795,795,795,795,795,795,795,795,795,795,795,795,795,795,795,795,795,795,795,795,795,795,795,795,795,795,795,795,795,795,795,795,795,795,795,795,795,795,795,795,795,795,795,795,795,795,795,795,795,795,795,795,795,795,795,795,795,795,795,795,795,795,795,795,795,795,795,795,795,795,795,795,795,795,795,795,795,795,795,795,795,795,795,795,795,795,795,795,795,795,795,795,795,795,795,795,795,795,797,798,801,801,801,801,801,802,802,802,802,802,802,802,802,802,802,802,802,802,802,802,802,802,802,802,803,803,803,803,803,803,803,803,803,803,803,803,803,803,803,803,803,804,805,805,805,805,805,805,805,805,805,805,805,805,805,805,805,805,805,805,805,805,805,805,805,805,805,805,805,805,805,805,805,805,805,805,805,805,805,805,805,805,805,805,805,805,805,805,805,805,805,805,805,805,805,805,805,805,805,805,805,805,805,805,805,805,805,805,805,805,806,807,807,808,808,812,817,822,829,840,873,884,891,900,928,955,985,1020,1059],"ymouse":[606,606,606,606,606,606,606,606,606,606,606,606,606,606,606,606,606,606,606,606,606,606,606,606,606,606,606,606,606,606,606,606,606,606,606,606,606,606,606,606,606,606,606,606,606,606,606,606,606,606,606,606,606,606,606,606,606,606,606,606,606,606,606,606,606,606,606,606,606,606,606,606,606,606,606,606,606,606,606,606,606,606,606,606,606,606,606,606,606,606,606,606,606,606,606,606,606,606,605,605,605,605,605,605,605,604,604,603,602,602,602,602,602,601,597,596,595,595,595,595,594,592,589,586,583,583,583,583,581,577,573,568,567,566,566,566,566,566,566,566,563,560,558,556,555,555,555,555,555,555,555,555,555,555,555,555,555,555,555,555,555,555,555,555,554,553,553,553,553,553,553,553,553,553,553,553,553,553,553,553,553,553,553,553,553,553,553,553,553,553,553,553,553,553,553,553,553,553,553,553,553,553,553,553,553,553,553,553,553,551,544,542,537,533,526,496,466,429,399,379,338,327,315,299,248,198,148,96,50],"timestamp_mouse":[11,32,46,66,86,106,126,148,166,186,206,227,247,267,287,306,326,347,367,387,406,426,447,466,486,506,526,548,567,586,606,626,647,666,688,706,726,746,767,787,807,826,847,866,888,906,927,947,967,986,1006,1027,1047,1067,1087,1106,1126,1147,1168,1187,1207,1227,1248,1266,1287,1306,1326,1346,1367,1388,1406,1428,1448,1468,1487,1506,1526,1547,1567,1586,1606,1626,1646,1667,1687,1706,1728,1748,1766,1786,1806,1827,1847,1867,1887,1906,1927,1947,1966,1987,2006,2027,2047,2066,2087,2106,2126,2146,2167,2187,2206,2227,2247,2267,2287,2306,2326,2346,2366,2386,2407,2427,2447,2467,2487,2506,2526,2546,2567,2587,2606,2627,2646,2666,2687,2706,2727,2747,2766,2787,2806,2827,2847,2866,2887,2906,2926,2946,2968,2987,3006,3026,3046,3067,3086,3108,3128,3146,3166,3187,3206,3226,3247,3266,3287,3306,3326,3346,3366,3387,3407,3427,3447,3467,3486,3507,3527,3547,3566,3587,3607,3626,3647,3667,3687,3707,3727,3747,3766,3786,3807,3826,3847,3867,3887,3906,3926,3947,3966,3986,4006,4027,4047,4067,4086,4107,4128,4146,4166,4186,4207,4226,4246,4267,4287,4307,4327,4347,4366,4387,4406,4426,4447,4467,4487,4506,4527,4546,4567],"xSR":741.5,"ySR":573.95,"xT1":424.9,"yT1":0,"xT2":1058.1,"yT2":0,"toosoon":0,"cond_shown":"Congruent","ratio_trial":200,"L_num":13,"L_den":26,"R_num":14,"R_den":20,"correct_side":2,"subjID":"LunaBenavidesSilva17","gender":"1","school":"6","age":"11"},{"start_time":1551891607330,"click_time":1551891611326,"finger_time":1551891611167,"fix_duration":581.4625497939196,"trial":9,"RT":3837,"MT":159,"sideResp":1,"stimulus":[],"xmouse":[793,793,793,793,793,793,793,793,793,793,793,793,793,793,793,793,793,793,793,793,793,793,793,793,793,793,793,793,793,793,793,793,793,793,792,792,792,792,792,792,792,792,792,792,792,792,792,792,792,792,792,792,792,792,792,792,792,792,792,792,792,792,792,792,792,792,792,792,792,792,792,792,792,792,792,792,792,792,792,792,792,792,792,792,792,792,792,792,792,792,792,792,792,792,792,792,792,792,792,792,792,792,792,792,792,792,792,792,792,792,792,792,792,792,792,792,792,792,792,792,792,792,792,792,792,792,792,792,792,792,792,792,792,792,792,792,792,792,792,792,792,792,792,792,792,792,791,791,788,786,781,780,780,780,780,780,780,780,780,780,780,780,780,780,780,780,781,782,782,784,785,787,788,789,790,790,790,790,790,790,790,790,790,790,790,790,790,790,790,790,768,744,717,686,653,612,554,541,531,524],"ymouse":[626,626,626,626,626,626,626,626,626,626,626,626,626,626,626,626,626,626,626,626,626,626,626,626,626,626,626,626,626,625,624,624,623,622,622,622,622,622,622,622,622,622,622,622,622,622,622,622,622,622,622,622,622,622,622,622,622,622,622,622,622,622,622,622,622,622,622,622,622,622,622,622,622,622,622,622,622,622,622,622,622,622,622,622,622,622,622,622,622,622,622,622,622,622,622,622,622,622,622,622,622,622,622,622,622,622,622,622,622,622,622,622,622,622,622,622,622,622,622,622,622,622,622,622,622,622,622,622,622,622,622,622,622,622,622,622,622,622,622,622,622,622,622,622,622,622,621,620,619,618,613,613,613,613,613,613,613,613,613,613,613,613,613,613,613,613,613,613,613,613,613,613,613,613,613,613,613,613,613,613,613,613,613,613,613,613,613,613,613,610,589,556,506,445,382,307,173,130,106,92],"timestamp_mouse":[34,37,57,76,97,117,137,156,176,198,217,236,256,276,296,316,337,357,376,397,418,436,457,477,496,516,536,556,577,596,618,636,657,676,698,717,736,756,776,798,817,836,856,877,896,916,936,957,977,996,1017,1037,1057,1077,1096,1116,1137,1157,1176,1197,1216,1236,1256,1278,1297,1318,1336,1358,1377,1397,1416,1436,1456,1477,1497,1516,1537,1556,1576,1596,1616,1636,1656,1676,1696,1718,1736,1758,1777,1796,1816,1836,1856,1877,1897,1916,1936,1957,1977,1997,2016,2036,2057,2076,2096,2117,2136,2156,2176,2198,2218,2236,2257,2277,2296,2317,2337,2357,2376,2398,2418,2436,2457,2477,2497,2517,2536,2556,2577,2596,2617,2636,2656,2678,2697,2717,2736,2758,2777,2796,2817,2836,2856,2877,2898,2918,2936,2957,2976,2997,3017,3037,3057,3077,3097,3118,3136,3157,3177,3196,3216,3237,3257,3277,3297,3317,3336,3358,3376,3397,3416,3437,3456,3477,3496,3518,3536,3556,3576,3596,3617,3637,3657,3676,3697,3717,3736,3768,3777,3797,3817,3837,3857,3876,3896,3916,3936,3958,3976,3996],"xSR":741.5,"ySR":573.95,"xT1":424.9,"yT1":0,"xT2":1058.1,"yT2":0,"toosoon":0,"cond_shown":"Incongruent","ratio_trial":300,"L_num":4,"L_den":20,"R_num":2,"R_den":4,"correct_side":2,"subjID":"LunaBenavidesSilva17","gender":"1","school":"6","age":"11"},{"start_time":1551891613648,"click_time":1551891615366,"finger_time":1551891615287,"fix_duration":961.325494344221,"trial":10,"RT":1639,"MT":79,"sideResp":2,"stimulus":[],"xmouse":[816,816,814,812,811,811,811,811,811,811,811,811,811,811,811,811,811,811,811,811,811,811,811,811,811,811,811,811,811,811,811,811,811,811,811,811,811,811,811,811,811,811,811,811,811,811,811,811,811,811,811,811,811,811,811,811,811,811,811,811,811,811,811,811,811,811,811,811,811,811,811,811,811,811,811,811,811,811,811,810,813,833,889,955,1020,1083],"ymouse":[627,618,614,611,610,610,610,610,610,610,610,610,610,610,610,610,610,610,610,610,610,610,610,610,610,610,610,610,610,610,610,610,610,610,610,610,610,610,610,610,610,610,610,610,610,610,610,610,610,610,610,610,610,610,610,610,610,610,610,610,610,610,610,610,610,610,610,610,610,610,610,610,610,610,610,610,610,610,610,609,583,505,394,284,171,51],"timestamp_mouse":[23,39,59,79,98,119,138,158,179,207,218,239,259,279,298,319,339,360,378,399,420,438,458,478,498,518,539,558,578,599,618,639,658,678,699,719,740,758,779,799,818,838,859,880,899,918,939,958,978,998,1019,1040,1058,1078,1098,1118,1138,1160,1179,1198,1218,1240,1258,1278,1300,1318,1338,1359,1378,1398,1418,1438,1459,1478,1499,1519,1538,1559,1580,1599,1618,1639,1659,1679,1698,1718],"xSR":741.5,"ySR":573.95,"xT1":424.9,"yT1":0,"xT2":1058.1,"yT2":0,"toosoon":0,"cond_shown":"Incongruent","ratio_trial":100,"L_num":3,"L_den":6,"R_num":4,"R_den":10,"correct_side":1,"subjID":"LunaBenavidesSilva17","gender":"1","school":"6","age":"11"},{"start_time":1551891617243,"click_time":1551891621067,"finger_time":1551891620708,"fix_duration":633.3401207117694,"trial":11,"RT":3465,"MT":359,"sideResp":1,"stimulus":[],"xmouse":[789,789,789,789,789,789,789,789,789,789,789,789,789,789,789,789,789,789,789,789,789,789,789,789,789,789,789,789,789,789,789,789,789,789,789,789,789,789,789,789,789,789,789,789,789,789,789,789,789,789,789,789,789,789,789,789,789,789,789,789,789,789,789,789,789,789,789,789,789,789,789,789,789,789,789,789,789,789,789,789,789,789,789,789,789,789,789,789,789,789,789,789,789,789,789,789,789,789,789,789,789,789,789,789,789,789,789,789,789,789,789,789,789,789,789,789,789,789,789,789,789,789,789,789,789,789,789,789,789,789,789,789,789,789,789,789,789,789,789,789,789,789,789,789,789,789,789,789,789,789,789,789,789,789,789,789,789,789,789,789,789,789,789,789,789,789,789,789,789,789,789,789,745,713,651,511,442,358,326,304,274,267,263,262,262,269,301,328,346,363,405,428],"ymouse":[638,638,638,638,638,638,638,638,638,638,638,638,638,638,638,638,638,638,638,638,638,638,638,638,638,638,638,638,638,638,638,638,638,638,638,638,638,638,638,638,638,638,638,638,638,638,638,638,638,638,638,638,638,638,638,638,638,638,638,638,638,638,638,638,638,638,638,638,638,638,638,638,638,638,638,638,638,638,638,638,638,638,638,638,638,638,638,638,638,638,638,638,638,638,638,638,638,638,638,638,638,638,638,638,638,638,638,638,638,638,638,638,638,638,638,638,638,638,638,638,638,638,638,638,638,638,638,638,638,638,638,638,638,638,638,638,638,638,638,638,638,638,638,638,638,638,638,638,638,638,638,638,638,638,638,638,638,638,638,638,638,638,638,638,638,638,638,638,638,638,638,638,582,536,444,258,187,117,92,76,60,55,52,46,40,26,0,0,0,0,6,12],"timestamp_mouse":[10,37,44,63,84,103,124,143,163,184,203,223,243,263,284,303,324,345,364,384,404,423,443,463,485,503,523,543,563,584,603,624,644,665,683,703,723,743,763,784,803,823,845,864,884,903,923,943,965,984,1003,1023,1045,1065,1083,1103,1125,1144,1164,1183,1204,1223,1243,1263,1284,1304,1323,1344,1364,1383,1404,1424,1444,1463,1483,1504,1523,1545,1564,1584,1604,1623,1644,1664,1685,1703,1723,1743,1765,1785,1804,1823,1844,1863,1884,1903,1923,1944,1963,1983,2003,2024,2044,2063,2083,2103,2123,2145,2165,2183,2204,2224,2243,2265,2283,2303,2324,2343,2363,2383,2404,2424,2444,2464,2483,2504,2523,2543,2564,2583,2603,2623,2643,2663,2684,2705,2723,2744,2763,2783,2803,2823,2844,2864,2883,2903,2923,2944,2964,2984,3003,3023,3045,3063,3083,3103,3123,3145,3163,3184,3204,3223,3244,3263,3284,3303,3323,3343,3364,3383,3404,3423,3443,3465,3485,3504,3523,3543,3564,3585,3604,3623,3643,3664,3684,3704,3724,3743,3764,3783,3804,3824],"xSR":741.5,"ySR":573.95,"xT1":424.9,"yT1":0,"xT2":1058.1,"yT2":0,"toosoon":0,"cond_shown":"Incongruent","ratio_trial":200,"L_num":3,"L_den":10,"R_num":1,"R_den":2,"correct_side":2,"subjID":"LunaBenavidesSilva17","gender":"1","school":"6","age":"11"},{"start_time":1551891623247,"click_time":1551891627447,"finger_time":1551891626987,"fix_duration":837.418426939895,"trial":12,"RT":3740,"MT":460,"sideResp":1,"stimulus":[],"xmouse":[813,813,813,813,813,813,813,813,813,813,813,813,813,813,813,813,813,813,813,813,813,813,813,813,813,813,813,813,813,813,813,813,813,813,813,813,813,813,813,813,813,813,813,813,813,813,813,813,813,813,813,813,813,813,813,813,813,813,813,813,813,813,813,813,813,813,813,813,813,813,813,813,813,813,813,813,813,813,813,813,813,813,813,813,813,813,813,813,813,813,813,813,813,813,813,813,813,813,813,813,813,813,813,813,813,813,813,813,813,813,813,813,813,813,813,813,813,813,813,813,813,813,813,813,813,813,813,813,813,813,813,813,813,813,813,813,813,813,813,813,813,813,813,813,813,813,813,813,813,813,813,813,813,813,813,813,813,813,813,813,813,813,813,813,813,813,813,813,813,813,813,813,813,813,813,813,813,813,813,813,813,813,813,813,813,813,796,722,660,596,518,506,497,490,487,483,471,466,465,464,464,461,458,455,453,450,447,445,442,436,427],"ymouse":[608,608,608,608,608,608,608,608,608,608,608,608,608,608,608,608,608,608,608,608,608,608,608,608,608,608,608,608,608,608,608,608,608,608,608,608,608,608,608,608,608,608,608,608,608,608,608,608,608,608,608,608,608,608,608,608,608,608,608,608,608,608,608,608,608,608,608,608,608,608,608,608,608,608,608,608,608,608,608,608,608,608,608,608,608,608,608,608,608,608,608,608,608,608,608,608,608,608,608,608,608,608,608,608,608,608,608,608,608,608,608,608,608,608,608,608,608,608,608,608,608,608,608,608,608,608,608,608,608,608,608,608,608,608,608,608,608,608,608,608,608,608,608,608,608,608,608,608,608,608,608,608,608,608,608,608,608,608,608,608,608,608,608,608,608,608,608,608,608,608,608,608,608,608,608,608,608,608,608,608,608,608,608,608,608,609,592,535,482,427,353,339,325,314,307,302,293,286,282,281,279,269,253,232,212,195,168,144,126,106,68],"timestamp_mouse":[2,36,39,59,80,99,119,139,159,179,199,219,240,261,280,300,319,341,360,379,400,419,439,460,480,500,520,540,560,579,599,620,639,659,679,701,720,740,760,779,799,820,841,860,881,899,919,940,959,980,1000,1019,1041,1059,1080,1099,1119,1140,1161,1180,1200,1219,1239,1260,1279,1301,1319,1340,1359,1380,1400,1420,1439,1459,1479,1499,1519,1540,1561,1580,1599,1619,1639,1660,1679,1701,1719,1739,1759,1779,1800,1819,1840,1861,1879,1899,1919,1939,1960,1979,1999,2019,2041,2060,2080,2099,2120,2139,2160,2179,2201,2219,2239,2261,2280,2300,2319,2339,2361,2380,2399,2420,2440,2459,2479,2501,2519,2540,2559,2580,2599,2619,2639,2659,2680,2701,2719,2740,2759,2780,2799,2819,2840,2859,2880,2900,2919,2940,2961,2981,3000,3019,3040,3059,3080,3101,3120,3141,3160,3180,3200,3219,3239,3261,3281,3300,3319,3339,3361,3379,3400,3419,3439,3459,3481,3500,3519,3541,3560,3579,3599,3619,3639,3660,3680,3700,3719,3740,3760,3781,3799,3819,3839,3860,3879,3899,3919,3940,3959,3980,4000,4020,4040,4059,4079,4099,4120,4140,4159,4181,4199],"xSR":741.5,"ySR":573.95,"xT1":424.9,"yT1":0,"xT2":1058.1,"yT2":0,"toosoon":0,"cond_shown":"Incongruent","ratio_trial":200,"L_num":4,"L_den":6,"R_num":14,"R_den":30,"correct_side":1,"subjID":"LunaBenavidesSilva17","gender":"1","school":"6","age":"11"},{"start_time":1551891628945,"click_time":1551891631585,"finger_time":1551891631065,"fix_duration":557.1396485300394,"trial":13,"RT":2120,"MT":520,"sideResp":2,"stimulus":[],"xmouse":[811,811,811,811,811,811,811,811,811,811,811,811,811,811,811,811,811,811,811,811,811,811,811,811,811,811,811,811,811,811,811,811,811,811,811,811,811,811,811,811,811,811,811,811,811,811,811,811,811,811,811,811,811,811,811,811,811,811,811,811,811,811,811,811,811,811,811,811,811,811,811,811,811,811,811,811,811,811,811,811,811,811,811,811,811,811,811,811,811,811,811,811,811,811,811,811,811,811,811,811,811,811,811,811,811,826,844,869,895,915,937,996,1009,1015,1018,1026,1029,1029,1029,1029,1023,1018,1014,1014,1014,1015,1019,1021,1024,1031,1047,1058,1062],"ymouse":[601,601,601,601,601,601,601,601,601,601,601,601,601,601,601,601,601,601,601,601,601,601,601,601,601,601,601,601,601,601,601,601,601,601,601,601,601,601,601,601,601,601,601,601,601,601,601,601,601,601,601,601,601,601,601,601,601,601,601,601,601,601,601,601,601,601,601,601,601,601,601,601,601,601,601,601,601,601,601,601,601,601,601,601,601,601,601,601,601,601,601,601,601,601,601,601,601,601,601,601,601,601,601,601,601,578,545,497,459,446,439,441,443,443,442,432,424,411,403,392,354,319,283,252,221,197,162,147,132,115,79,60,53],"timestamp_mouse":[9,35,42,62,82,101,120,142,161,180,200,220,240,261,282,301,321,341,361,381,401,420,440,461,481,502,520,540,562,581,602,620,642,661,681,701,720,741,761,780,800,820,841,862,880,900,921,941,961,981,1000,1020,1040,1062,1080,1100,1120,1141,1162,1181,1201,1220,1242,1260,1280,1300,1321,1341,1360,1380,1401,1420,1441,1461,1480,1500,1521,1540,1561,1582,1600,1621,1641,1661,1681,1701,1720,1742,1760,1780,1801,1820,1841,1860,1881,1901,1921,1940,1962,1980,2001,2021,2040,2061,2081,2101,2120,2140,2161,2181,2200,2221,2240,2261,2281,2301,2320,2341,2362,2381,2401,2421,2441,2461,2480,2500,2520,2541,2560,2581,2600,2620,2640],"xSR":741.5,"ySR":573.95,"xT1":424.9,"yT1":0,"xT2":1058.1,"yT2":0,"toosoon":0,"cond_shown":"Congruent","ratio_trial":100,"L_num":10,"L_den":25,"R_num":3,"R_den":10,"correct_side":1,"subjID":"LunaBenavidesSilva17","gender":"1","school":"6","age":"11"},{"start_time":1551891633722,"click_time":1551891637165,"finger_time":1551891636746,"fix_duration":856.9663640216759,"trial":14,"RT":3024,"MT":419,"sideResp":2,"stimulus":[],"xmouse":[819,819,819,819,819,819,819,819,819,819,819,819,819,819,819,819,819,819,819,819,819,819,819,819,819,819,819,819,819,819,819,819,819,819,819,819,819,819,819,819,819,819,819,819,819,819,819,819,819,819,819,819,819,819,819,819,819,819,819,819,819,819,819,819,819,819,819,819,819,819,819,819,819,819,819,819,819,819,819,819,819,819,819,819,819,819,819,819,819,819,819,819,819,819,819,819,819,819,819,819,819,819,819,819,819,819,819,819,819,819,819,819,819,819,819,819,819,819,819,819,819,819,819,819,819,819,819,819,819,819,819,819,819,819,819,819,819,819,819,819,819,819,819,819,819,819,819,819,819,819,819,849,896,911,922,929,933,933,935,938,942,945,948,950,954,961,982,996,1010,1025,1046,1081,1097],"ymouse":[625,625,625,625,625,625,625,625,625,625,625,625,625,625,625,625,625,625,625,625,625,625,625,625,625,625,625,625,625,625,625,625,625,625,625,625,625,625,625,625,625,625,625,625,625,625,625,625,625,625,625,625,625,625,625,625,625,625,625,625,625,625,625,625,625,625,625,625,625,625,625,625,625,625,625,625,625,625,625,625,625,625,625,625,625,625,625,625,625,625,625,625,625,625,625,625,625,625,625,625,625,625,625,625,625,625,625,625,625,625,625,625,625,625,625,625,625,625,625,625,625,625,625,625,625,625,625,625,625,625,625,625,625,625,625,625,625,625,625,625,625,625,625,625,625,625,625,625,625,625,625,552,486,469,460,453,444,439,431,423,416,408,395,388,379,364,332,308,278,248,204,130,94],"timestamp_mouse":[10,39,44,63,84,105,125,143,165,183,204,225,243,263,285,304,324,344,365,384,404,423,444,464,484,503,525,543,564,585,604,624,643,664,684,704,723,743,764,784,805,825,843,865,884,903,925,944,965,983,1003,1024,1043,1064,1084,1103,1123,1145,1163,1183,1203,1223,1244,1263,1283,1305,1325,1344,1365,1384,1403,1424,1444,1463,1485,1503,1524,1545,1563,1584,1603,1624,1644,1663,1684,1704,1724,1744,1764,1783,1804,1825,1843,1864,1885,1904,1924,1943,1963,1984,2003,2024,2043,2063,2083,2103,2124,2143,2165,2183,2204,2225,2244,2263,2285,2304,2324,2343,2364,2383,2403,2424,2444,2463,2485,2503,2523,2544,2563,2584,2603,2624,2643,2663,2685,2704,2723,2743,2765,2783,2803,2824,2844,2863,2883,2903,2924,2943,2964,2984,3003,3024,3043,3064,3083,3105,3124,3144,3164,3184,3204,3224,3244,3264,3283,3304,3323,3344,3364,3384,3403,3424,3443],"xSR":741.5,"ySR":573.95,"xT1":424.9,"yT1":0,"xT2":1058.1,"yT2":0,"toosoon":0,"cond_shown":"Incongruent","ratio_trial":300,"L_num":13,"L_den":26,"R_num":12,"R_den":15,"correct_side":2,"subjID":"LunaBenavidesSilva17","gender":"1","school":"6","age":"11"},{"start_time":1551891640014,"click_time":1551891641926,"finger_time":1551891641526,"fix_duration":1346.2613508521647,"trial":15,"RT":1512,"MT":400,"sideResp":1,"stimulus":[],"xmouse":[785,785,785,785,785,785,785,785,785,785,785,785,785,785,785,785,785,785,785,785,785,785,785,785,785,785,785,785,785,785,785,785,785,785,785,785,785,785,785,785,785,785,785,785,785,785,785,785,785,785,785,785,785,785,785,785,785,785,785,785,785,785,785,785,785,785,785,785,785,785,785,784,776,766,754,740,721,652,629,610,598,578,571,559,545,531,510,506,504,502,496,482,485,493,501,507],"ymouse":[609,609,609,609,609,609,609,609,609,609,609,609,609,609,609,609,609,609,609,609,609,609,609,609,609,609,609,609,609,609,609,609,609,609,609,609,609,609,609,609,609,609,609,609,609,609,609,609,609,609,609,609,609,609,609,609,609,609,609,609,609,609,609,609,609,609,609,609,609,609,609,608,598,588,578,568,557,505,484,468,458,440,431,416,399,381,353,345,331,317,291,177,141,122,107,99],"timestamp_mouse":[12,33,53,71,92,111,131,151,173,193,211,231,252,272,293,313,333,351,372,393,411,432,451,472,493,512,532,551,573,591,612,633,651,673,691,711,731,751,773,792,811,832,851,872,892,911,932,951,971,992,1012,1032,1051,1071,1093,1112,1131,1151,1173,1191,1212,1231,1251,1273,1292,1312,1333,1352,1371,1393,1413,1431,1452,1472,1492,1512,1532,1552,1572,1592,1611,1631,1651,1671,1691,1712,1732,1751,1771,1791,1812,1832,1851,1872,1891,1912],"xSR":741.5,"ySR":573.95,"xT1":424.9,"yT1":0,"xT2":1058.1,"yT2":0,"toosoon":0,"cond_shown":"Incongruent","ratio_trial":300,"L_num":3,"L_den":6,"R_num":4,"R_den":20,"correct_side":1,"subjID":"LunaBenavidesSilva17","gender":"1","school":"6","age":"11"},{"start_time":1551891645588,"click_time":1551891651466,"finger_time":1551891650546,"fix_duration":981.896076687728,"trial":16,"RT":4958,"MT":920,"sideResp":2,"stimulus":[],"xmouse":[793,793,793,793,793,793,793,793,793,793,793,793,793,793,793,793,793,793,793,793,793,793,793,793,793,793,793,793,793,793,793,793,793,793,793,793,793,793,793,793,793,793,793,793,793,793,793,793,793,793,793,793,793,793,793,793,793,793,793,793,793,793,793,793,793,793,793,793,793,793,793,793,793,793,793,793,793,793,793,793,793,793,793,793,793,793,793,793,793,793,793,793,793,793,793,793,793,793,793,793,793,793,793,793,793,793,793,793,793,793,793,793,793,793,793,793,793,793,793,793,793,793,793,793,793,793,793,793,793,793,793,793,793,793,793,793,793,793,793,793,793,793,793,793,793,793,793,793,793,793,793,793,793,793,793,793,793,793,793,793,793,793,793,793,793,793,793,793,793,793,793,793,793,793,793,793,793,793,793,793,793,793,793,793,793,793,793,793,793,793,793,793,793,793,793,793,793,793,793,793,793,793,793,793,793,793,793,793,793,793,793,793,793,793,793,793,793,793,793,793,793,793,793,793,793,793,793,793,793,793,793,793,793,793,793,793,793,793,793,793,793,793,793,793,793,789,773,651,605,573,570,570,570,570,570,570,570,570,570,569,565,554,512,487,472,464,462,462,462,462,462,462,462,462,464,464,467,476,483,488,492,496,498,498,499,502,517,567,633,686,748,814,890,1067],"ymouse":[632,632,632,632,632,632,632,632,632,632,632,632,632,632,632,632,632,632,632,632,632,632,632,632,632,632,632,632,632,632,632,632,632,632,632,632,632,632,632,632,632,632,632,632,632,632,632,632,632,632,632,632,632,632,632,632,632,632,632,632,632,632,632,632,632,632,632,632,632,632,632,632,632,632,632,632,632,632,632,632,632,632,632,632,632,632,632,632,632,632,632,632,632,632,632,632,632,632,632,632,632,632,632,632,632,632,632,632,632,632,632,632,632,632,632,632,632,632,632,632,632,632,632,632,632,632,632,632,632,632,632,632,632,632,632,632,632,632,632,632,632,632,632,632,632,632,632,632,632,632,632,632,632,632,632,632,632,632,632,632,632,632,632,632,632,632,632,632,632,632,632,632,632,632,632,632,632,632,632,632,632,632,632,632,632,632,632,632,632,632,632,632,632,632,632,632,632,632,632,632,632,632,632,632,632,632,632,632,632,632,632,632,632,632,632,632,632,632,632,632,632,632,632,632,632,632,632,632,632,632,632,632,632,632,632,632,632,632,632,632,632,632,632,632,632,627,606,484,454,444,444,444,444,444,444,444,444,444,444,444,441,424,349,311,287,277,275,275,275,275,275,275,275,275,275,275,276,278,279,279,280,280,281,281,281,281,285,288,288,286,269,246,211,98],"timestamp_mouse":[18,39,58,77,99,117,137,157,177,199,219,238,258,278,299,318,338,359,377,399,419,437,459,477,498,519,537,559,578,597,618,638,659,677,698,717,738,759,777,798,817,837,859,877,899,917,938,958,978,998,1018,1038,1058,1079,1098,1117,1137,1158,1177,1198,1219,1238,1259,1278,1297,1317,1339,1359,1377,1398,1417,1439,1459,1478,1498,1519,1539,1559,1577,1598,1619,1638,1659,1679,1698,1718,1737,1759,1777,1797,1819,1838,1859,1877,1897,1919,1937,1958,1977,1997,2017,2038,2058,2077,2098,2118,2138,2158,2177,2198,2217,2237,2257,2278,2297,2319,2339,2358,2377,2398,2418,2439,2457,2477,2498,2518,2537,2558,2578,2598,2619,2638,2658,2677,2697,2718,2738,2757,2778,2799,2818,2837,2857,2877,2897,2918,2937,2959,2977,2999,3017,3039,3057,3077,3098,3118,3138,3159,3177,3197,3217,3239,3259,3277,3298,3319,3337,3358,3377,3398,3418,3438,3457,3477,3497,3518,3539,3559,3578,3598,3617,3639,3659,3677,3698,3719,3739,3757,3778,3797,3817,3837,3857,3877,3897,3918,3939,3958,3977,3999,4017,4037,4058,4077,4098,4117,4138,4159,4177,4198,4217,4237,4258,4277,4297,4319,4337,4359,4377,4398,4417,4438,4458,4477,4498,4518,4539,4558,4578,4599,4618,4637,4658,4678,4699,4719,4739,4758,4777,4798,4818,4837,4858,4879,4898,4917,4938,4958,4977,4997,5017,5037,5064,5077,5099,5118,5139,5158,5177,5198,5219,5238,5258,5277,5299,5319,5338,5358,5378,5399,5417,5438,5459,5478,5499,5518,5538,5558,5579,5598,5618,5638,5658,5678,5698,5717,5739,5758,5777,5798,5818,5838,5858,5878],"xSR":741.5,"ySR":573.95,"xT1":424.9,"yT1":0,"xT2":1058.1,"yT2":0,"toosoon":0,"cond_shown":"Congruent","ratio_trial":200,"L_num":6,"L_den":20,"R_num":11,"R_den":22,"correct_side":2,"subjID":"LunaBenavidesSilva17","gender":"1","school":"6","age":"11"},{"start_time":1551891655150,"click_time":1551891662346,"finger_time":1551891655214,"fix_duration":1143.4738024305573,"trial":17,"RT":64,"MT":7132,"sideResp":2,"stimulus":[],"xmouse":[838,841,843,843,843,843,843,843,843,843,843,843,843,843,843,843,843,843,843,843,843,843,843,843,843,843,843,843,841,837,828,823,818,818,816,816,814,812,809,808,808,808,808,808,807,801,794,790,789,789,789,789,789,789,789,789,789,789,789,789,789,789,789,789,789,789,789,789,789,789,789,789,789,789,789,789,789,789,789,789,789,789,789,789,789,789,789,789,789,789,789,789,789,789,789,789,789,789,789,789,789,789,789,790,794,797,803,806,809,810,813,813,813,813,813,813,813,813,813,813,813,813,813,813,813,813,813,814,815,815,815,815,815,815,815,815,815,815,815,815,815,815,815,815,815,815,815,815,815,815,815,815,815,815,815,815,815,815,815,815,815,815,815,815,815,815,815,815,815,815,815,815,815,815,815,815,815,815,815,815,815,815,815,815,815,815,815,815,815,815,815,815,815,815,815,815,815,815,815,815,815,815,815,815,815,815,815,815,815,815,815,815,815,815,815,815,815,815,815,815,815,815,815,815,815,815,815,815,815,815,815,815,815,815,815,815,815,815,815,815,815,815,815,815,815,815,815,815,815,815,815,815,815,815,815,815,815,815,815,815,815,815,815,815,815,815,815,815,815,815,815,815,815,815,815,815,815,815,815,815,815,815,815,815,815,815,815,815,815,815,815,815,815,815,815,815,815,815,815,815,815,815,815,815,815,815,815,815,815,815,815,815,815,815,815,815,815,815,815,815,815,815,815,815,815,815,815,815,825,855,875,893,896,896,896,890,883,873,863,862,865,876,884,896,930,949,968,990,1011,1036,1038,1038,1038,1038,1038,1038,1039,1042,1049,1067],"ymouse":[616,617,617,617,617,617,617,617,617,617,617,617,617,617,617,617,617,617,617,617,617,617,617,617,617,617,617,617,617,617,618,618,618,618,617,617,616,615,615,615,615,615,615,615,615,617,619,621,621,621,621,621,621,621,621,621,621,621,621,621,621,621,621,621,621,621,621,621,621,621,621,621,621,621,621,621,621,621,621,621,621,621,621,621,621,621,621,621,621,621,621,621,621,621,621,621,621,621,621,621,621,621,621,621,622,623,623,623,624,624,625,625,625,625,625,625,625,625,625,625,625,625,625,625,625,625,625,625,625,625,625,625,625,625,625,625,625,625,625,625,625,625,625,625,625,625,625,625,625,625,625,625,625,625,625,625,625,625,625,625,625,625,625,625,625,625,625,625,625,625,625,625,625,625,625,625,625,625,625,625,625,625,625,625,625,625,625,625,625,625,625,625,625,625,625,625,625,625,625,625,625,625,625,625,625,625,625,625,625,625,625,625,625,625,625,625,625,625,625,625,625,625,625,625,625,625,625,625,625,625,625,625,625,625,625,625,625,625,625,625,625,625,625,625,625,625,625,625,625,625,625,625,625,625,625,625,625,625,625,625,625,625,625,625,625,625,625,625,625,625,625,625,625,625,625,625,625,625,625,625,625,625,625,625,625,625,625,625,625,625,625,625,625,625,625,625,625,625,625,625,625,625,625,625,625,625,625,625,625,625,625,625,625,625,625,625,625,625,625,625,625,625,625,625,625,625,625,625,616,583,546,473,420,369,321,265,238,199,158,109,93,73,60,51,43,41,39,35,33,25,24,24,24,24,24,24,24,25,28,34],"timestamp_mouse":[20,36,64,75,96,117,136,156,175,196,215,236,257,276,295,316,337,357,376,396,415,436,457,477,496,516,535,555,576,596,616,635,657,675,695,716,736,756,776,796,816,836,856,876,896,916,935,956,976,997,1015,1035,1055,1076,1095,1115,1136,1155,1175,1195,1216,1236,1255,1275,1296,1315,1335,1355,1375,1396,1415,1436,1456,1476,1496,1516,1535,1556,1576,1597,1615,1636,1657,1675,1695,1716,1736,1757,1776,1796,1815,1836,1856,1875,1896,1916,1936,1956,1975,1997,2016,2035,2055,2075,2096,2116,2137,2156,2175,2196,2215,2236,2257,2277,2297,2315,2335,2356,2377,2396,2415,2436,2455,2477,2495,2515,2536,2556,2576,2597,2615,2636,2657,2676,2696,2715,2736,2756,2777,2796,2815,2835,2857,2875,2895,2916,2935,2957,2975,2996,3016,3037,3057,3076,3096,3115,3137,3155,3176,3197,3215,3237,3257,3276,3295,3315,3336,3357,3377,3396,3415,3436,3457,3475,3496,3516,3535,3557,3576,3596,3615,3637,3655,3676,3696,3716,3736,3756,3776,3796,3816,3835,3856,3877,3896,3915,3937,3955,3976,3997,4016,4035,4057,4076,4096,4115,4136,4156,4176,4195,4215,4237,4257,4277,4296,4315,4335,4356,4375,4396,4415,4436,4456,4476,4497,4517,4536,4555,4576,4596,4615,4635,4655,4676,4696,4715,4737,4755,4775,4796,4817,4836,4856,4876,4896,4915,4937,4955,4976,4996,5015,5036,5057,5075,5095,5115,5135,5157,5177,5195,5215,5235,5257,5277,5295,5315,5335,5357,5376,5395,5416,5435,5455,5476,5495,5515,5537,5556,5576,5596,5615,5635,5656,5676,5697,5717,5736,5756,5776,5796,5815,5836,5857,5875,5895,5916,5937,5956,5976,5996,6015,6035,6057,6076,6095,6115,6135,6155,6176,6197,6215,6236,6257,6276,6296,6315,6337,6357,6375,6395,6416,6436,6456,6476,6496,6516,6536,6556,6575,6595,6616,6635,6656,6677,6695,6716,6735,6757,6777,6796,6816,6835,6855,6875,6895,6915,6937,6955,6976,6995,7016,7036,7056,7075,7096,7117,7137,7156,7177,7196],"xSR":741.5,"ySR":573.95,"xT1":424.9,"yT1":0,"xT2":1058.1,"yT2":0,"toosoon":0,"cond_shown":"Congruent","ratio_t