[{"start_time":1551900563960,"click_time":1551900569740,"finger_time":1551900565221,"fix_duration":675.4866941993948,"trial":0,"RT":1261,"MT":4519,"sideResp":2,"stimulus":"img/900/equaldotsize/R/11_Ratio_900_L_18_R_20.png","xmouse":[799,799,799,799,799,799,799,799,799,799,799,799,799,799,799,799,799,799,799,799,799,799,799,799,799,799,799,799,799,799,799,799,799,799,799,799,799,799,799,799,799,799,799,799,799,799,799,799,799,799,799,799,799,799,799,799,799,800,806,813,822,823,824,824,824,824,824,820,815,806,801,793,792,792,792,792,792,792,792,792,792,792,792,792,792,792,792,792,792,792,792,792,792,792,792,792,792,792,792,792,792,795,799,803,806,808,809,810,811,811,811,811,811,811,811,811,811,811,811,810,810,810,810,810,810,810,810,810,810,809,805,800,799,795,793,793,792,792,791,791,791,791,791,791,791,791,791,791,791,791,791,791,791,791,791,791,791,791,791,791,791,791,791,791,791,790,788,787,785,784,783,782,781,781,780,780,780,780,780,780,780,780,780,780,780,780,780,780,780,779,779,779,778,778,778,778,777,777,777,777,776,776,776,776,776,776,776,776,776,776,776,776,776,776,776,776,776,776,776,776,776,776,776,776,776,776,776,776,776,776,776,776,776,776,776,776,776,776,776,777,777,777,777,777,777,778,778,778,778,778,778,778,778,778,778,778,778,778,778,778,778,778,778,777,777,777,775,775,775,775,775,792,802,823,848,861,875,881,886,891,896,903,910,916,921,930,954,987,1026,1060],"ymouse":[528,528,528,528,528,528,528,528,528,528,528,528,528,528,528,528,528,528,528,528,528,528,528,528,528,528,528,528,528,528,528,528,528,528,528,528,528,528,528,528,528,528,528,528,528,528,528,528,528,528,528,528,528,528,528,528,525,513,502,490,473,471,470,469,469,466,454,444,432,415,406,395,394,394,394,394,394,394,394,394,394,394,394,394,394,394,394,394,394,394,394,394,394,394,394,394,394,394,394,397,400,423,439,453,462,466,471,471,473,473,474,477,479,480,481,482,482,484,485,486,486,486,486,486,486,486,486,486,486,488,489,491,492,495,495,495,495,495,495,495,495,495,495,495,495,495,495,495,495,495,495,495,495,495,495,495,495,495,495,495,495,495,495,495,495,496,499,500,503,505,507,509,510,511,513,515,516,516,516,516,516,516,516,516,516,516,516,516,516,515,513,510,509,509,509,508,508,508,506,504,503,503,503,503,503,503,503,503,503,503,503,503,503,503,503,503,503,503,503,503,503,503,503,503,503,503,503,503,503,503,503,503,503,503,503,503,503,502,502,502,502,502,502,502,502,502,502,502,502,502,502,502,502,502,502,502,502,502,502,502,502,502,502,499,498,497,493,491,486,474,463,424,401,371,333,292,254,239,226,207,192,169,155,140,131,119,95,80,69,61],"timestamp_mouse":[10,39,39,59,79,99,121,141,159,179,200,220,240,259,279,299,319,339,359,380,399,420,440,460,480,499,520,539,560,579,599,620,639,659,679,699,720,741,760,780,800,820,840,859,879,900,921,940,959,979,999,1020,1039,1059,1080,1101,1120,1139,1160,1180,1201,1220,1240,1261,1281,1299,1320,1340,1361,1380,1400,1419,1440,1459,1480,1500,1519,1541,1560,1580,1601,1619,1640,1660,1679,1699,1720,1740,1760,1780,1799,1819,1839,1860,1880,1899,1920,1940,1960,1979,2000,2021,2040,2059,2079,2099,2119,2140,2160,2180,2200,2219,2240,2260,2280,2299,2319,2340,2360,2380,2399,2420,2441,2460,2480,2500,2520,2540,2560,2580,2601,2620,2640,2660,2679,2699,2719,2739,2759,2780,2801,2821,2840,2860,2880,2900,2921,2940,2960,2980,3000,3020,3039,3059,3079,3099,3121,3139,3160,3180,3200,3221,3239,3259,3280,3300,3320,3339,3361,3380,3400,3419,3440,3459,3479,3499,3520,3540,3559,3579,3600,3619,3639,3659,3681,3700,3719,3739,3759,3779,3801,3819,3839,3860,3879,3899,3920,3940,3960,3980,4000,4019,4039,4059,4079,4099,4119,4140,4160,4180,4199,4219,4239,4260,4280,4299,4319,4340,4360,4379,4399,4421,4439,4460,4481,4499,4520,4539,4559,4579,4599,4621,4639,4660,4680,4699,4720,4739,4761,4780,4799,4819,4839,4860,4880,4899,4919,4939,4960,4980,5000,5019,5040,5060,5080,5100,5119,5140,5160,5180,5200,5219,5240,5261,5280,5299,5320,5339,5360,5379,5401,5420,5440,5460,5480,5500,5520,5539,5560,5579,5600,5620,5640,5659,5680,5699,5720,5739,5759,5779],"xSR":741.5,"ySR":501.8,"xT1":424.9,"yT1":0,"xT2":1058.1,"yT2":0,"toosoon":0,"cond_shown":"equaldotsize","ratio_trial":900,"smaller_num":"18","larger_num":"20","correct_side":2,"subjID":"lunagonzalez20","gender":"1","age":"10","school":"6","test":{"fix_dur":[250,1500],"timestim":300,"targets_dim":[100,100],"targets_relative_coord":[0.3,0.7],"size_stim":[880,420],"start_dim":[100,100],"size_start":[300,300],"size_fix":60,"samplingrate":20,"img_types":["equaldotsize","equaldotanddens","randomdotsizeEA"],"ratios":[250,500,750,900],"rep_conds":9,"nTrials":120,"trials_to_rest":500,"Trials_order":[105,100,4,91,84,97,3,109,96,67,77,74,119,35,1,82,11,57,14,37,78,59,30,21,7,65,13,98,23,116,24,99,33,48,50,34,55,6,56,19,104,115,102,38,72,90,101,61,80,94,20,64,18,113,107,114,32,41,43,39,22,117,40,83,62,29,31,17,54,63,27,81,46,69,89,79,70,85,111,42,92,95,73,75,51,71,118,26,103,88,5,110,112,47,108,87,25,9,86,106,44,93,36,53,68,58,2,76,16,15,45,52,0,8,28,10,66,12,49,60],"cond_shown":["equaldotsize","equaldotanddens","equaldotanddens","equaldotanddens","equaldotsize","equaldotanddens","equaldotsize","equaldotanddens","equaldotsize","equaldotanddens","randomdotsizeEA","randomdotsizeEA","randomdotsizeEA","randomdotsizeEA","equaldotanddens","equaldotanddens","randomdotsizeEA","equaldotsize","randomdotsizeEA","equaldotanddens","equaldotsize","randomdotsizeEA","equaldotsize","equaldotsize","equaldotanddens","randomdotsizeEA","equaldotanddens","randomdotsizeEA","randomdotsizeEA","randomdotsizeEA","equaldotsize","equaldotsize","equaldotsize","equaldotsize","randomdotsizeEA","equaldotanddens","equaldotanddens","equaldotsize","randomdotsizeEA","equaldotanddens","randomdotsizeEA","equaldotanddens","equaldotsize","randomdotsizeEA","equaldotsize","equaldotsize","randomdotsizeEA","equaldotanddens","randomdotsizeEA","equaldotanddens","randomdotsizeEA","equaldotanddens","equaldotsize","randomdotsizeEA","randomdotsizeEA","equaldotsize","randomdotsizeEA","randomdotsizeEA","equaldotanddens","equaldotsize","equaldotanddens","equaldotsize","equaldotanddens","randomdotsizeEA","randomdotsizeEA","randomdotsizeEA","equaldotanddens","randomdotsizeEA","equaldotsize","equaldotsize","equaldotsize","equaldotsize","equaldotanddens","equaldotsize","randomdotsizeEA","equaldotanddens","equaldotanddens","equaldotanddens","equaldotsize","equaldotsize","randomdotsizeEA","randomdotsizeEA","equaldotanddens","equaldotsize","equaldotsize","randomdotsizeEA","equaldotanddens","randomdotsizeEA","equaldotanddens","equaldotanddens","randomdotsizeEA","randomdotsizeEA","equaldotanddens","randomdotsizeEA","equaldotsize","equaldotsize","equaldotanddens","equaldotsize","randomdotsizeEA","equaldotanddens","randomdotsizeEA","equaldotsize","equaldotsize","randomdotsizeEA","randomdotsizeEA","equaldotanddens","randomdotsizeEA","equaldotanddens","equaldotanddens","equaldotsize","equaldotsize","equaldotanddens","equaldotsize","randomdotsizeEA","equaldotanddens","equaldotanddens","equaldotsize","equaldotsize","equaldotanddens","equaldotsize"],"ratio_trial":[900,500,500,750,250,250,500,250,250,750,500,250,900,900,250,900,900,900,250,250,750,900,750,900,750,500,250,250,900,750,250,500,900,250,250,900,750,750,750,750,750,750,750,250,250,750,500,250,750,900,750,500,750,500,900,750,750,500,750,500,900,900,500,900,250,500,750,500,750,500,500,900,900,900,500,750,900,250,500,750,750,900,250,500,500,900,900,250,750,500,500,250,500,900,250,500,250,900,250,900,750,900,250,500,750,900,250,500,500,500,900,500,250,750,500,900,750,250,250,250],"smaller_num":["18","1","4","6","6","3","5","3","2","15","5","4","18","18","4","18","9","18","6","2","3","18","3","18","6","5","3","3","18","15","3","10","18","2","2","18","12","3","3","6","15","9","3","4","2","15","2","4","15","18","6","2","15","9","18","15","3","4","15","6","9","18","2","18","2","2","9","9","9","2","2","9","9","18","2","3","18","4","2","18","6","18","2","2","6","18","18","3","3","2","5","3","9","18","6","1","3","18","3","18","6","9","6","1","18","9","2","9","5","2","9","9","3","15","1","9","6","3","4","3"],"larger_num":["20","2","8","8","24","12","10","12","8","20","10","16","20","20","16","20","10","20","24","8","4","20","4","20","8","10","12","12","20","20","12","20","20","8","8","20","16","4","4","8","20","12","4","16","8","20","4","16","20","20","8","4","20","18","20","20","4","8","20","12","10","20","4","20","8","4","12","18","12","4","4","10","10","20","4","4","20","16","4","24","8","20","8","4","12","20","20","12","4","4","10","12","18","20","24","2","12","20","12","20","8","10","24","2","24","10","8","18","10","4","10","18","12","20","2","10","8","12","16","12"],"correct_side":[2,2,1,2,1,1,1,2,1,2,2,1,1,2,1,1,2,1,1,1,2,2,2,2,1,1,1,2,2,1,2,2,1,2,2,2,2,1,2,2,2,2,2,1,1,2,1,1,2,1,2,1,2,2,1,1,1,1,2,1,1,2,1,2,1,1,2,2,2,2,2,1,2,1,1,1,2,2,2,1,1,1,1,1,1,1,1,2,1,1,1,1,1,1,2,2,1,1,2,1,1,2,1,2,1,2,1,1,2,1,2,2,2,2,2,1,1,2,1,1],"img_shown":["img/900/equaldotsize/R/11_Ratio_900_L_18_R_20.png","img/500/equaldotanddens/R/12_Ratio_500_L_1_R_2.png","img/500/equaldotanddens/L/8_Ratio_500_L_8_R_4.png","img/750/equaldotanddens/R/2_Ratio_750_L_6_R_8.png","img/250/equaldotsize/L/5_Ratio_250_L_24_R_6.png","img/250/equaldotanddens/L/14_Ratio_250_L_12_R_3.png","img/500/equaldotsize/L/7_Ratio_500_L_10_R_5.png","img/250/equaldotanddens/R/11_Ratio_250_L_3_R_12.png","img/250/equaldotsize/L/7_Ratio_250_L_8_R_2.png","img/750/equaldotanddens/R/4_Ratio_750_L_15_R_20.png","img/500/randomdotsizeEA/R/14_Ratio_500_L_5_R_10.png","img/250/randomdotsizeEA/L/2_Ratio_250_L_16_R_4.png","img/900/randomdotsizeEA/L/8_Ratio_900_L_20_R_18.png","img/900/randomdotsizeEA/R/11_Ratio_900_L_18_R_20.png","img/250/equaldotanddens/L/2_Ratio_250_L_16_R_4.png","img/900/equaldotanddens/L/4_Ratio_900_L_20_R_18.png","img/900/randomdotsizeEA/R/6_Ratio_900_L_9_R_10.png","img/900/equaldotsize/L/10_Ratio_900_L_20_R_18.png","img/250/randomdotsizeEA/L/5_Ratio_250_L_24_R_6.png","img/250/equaldotanddens/L/3_Ratio_250_L_8_R_2.png","img/750/equaldotsize/R/12_Ratio_750_L_3_R_4.png","img/900/randomdotsizeEA/R/13_Ratio_900_L_18_R_20.png","img/750/equaldotsize/R/12_Ratio_750_L_3_R_4.png","img/900/equaldotsize/R/11_Ratio_900_L_18_R_20.png","img/750/equaldotanddens/L/13_Ratio_750_L_8_R_6.png","img/500/randomdotsizeEA/L/7_Ratio_500_L_10_R_5.png","img/250/equaldotanddens/L/14_Ratio_250_L_12_R_3.png","img/250/randomdotsizeEA/R/4_Ratio_250_L_3_R_12.png","img/900/randomdotsizeEA/R/9_Ratio_900_L_18_R_20.png","img/750/randomdotsizeEA/L/1_Ratio_750_L_20_R_15.png","img/250/equaldotsize/R/4_Ratio_250_L_3_R_12.png","img/500/equaldotsize/R/3_Ratio_500_L_10_R_20.png","img/900/equaldotsize/L/2_Ratio_900_L_20_R_18.png","img/250/equaldotsize/R/13_Ratio_250_L_2_R_8.png","img/250/randomdotsizeEA/R/13_Ratio_250_L_2_R_8.png","img/900/equaldotanddens/R/9_Ratio_900_L_18_R_20.png","img/750/equaldotanddens/R/11_Ratio_750_L_12_R_16.png","img/750/equaldotsize/L/8_Ratio_750_L_4_R_3.png","img/750/randomdotsizeEA/R/12_Ratio_750_L_3_R_4.png","img/750/equaldotanddens/R/2_Ratio_750_L_6_R_8.png","img/750/randomdotsizeEA/R/4_Ratio_750_L_15_R_20.png","img/750/equaldotanddens/R/15_Ratio_750_L_9_R_12.png","img/750/equaldotsize/R/12_Ratio_750_L_3_R_4.png","img/250/randomdotsizeEA/L/2_Ratio_250_L_16_R_4.png","img/250/equaldotsize/L/3_Ratio_250_L_8_R_2.png","img/750/equaldotsize/R/5_Ratio_750_L_15_R_20.png","img/500/randomdotsizeEA/L/10_Ratio_500_L_4_R_2.png","img/250/equaldotanddens/L/2_Ratio_250_L_16_R_4.png","img/750/randomdotsizeEA/R/4_Ratio_750_L_15_R_20.png","img/900/equaldotanddens/L/4_Ratio_900_L_20_R_18.png","img/750/randomdotsizeEA/R/2_Ratio_750_L_6_R_8.png","img/500/equaldotanddens/L/10_Ratio_500_L_4_R_2.png","img/750/equaldotsize/R/3_Ratio_750_L_15_R_20.png","img/500/randomdotsizeEA/R/1_Ratio_500_L_9_R_18.png","img/900/randomdotsizeEA/L/8_Ratio_900_L_20_R_18.png","img/750/equaldotsize/L/1_Ratio_750_L_20_R_15.png","img/750/randomdotsizeEA/L/10_Ratio_750_L_4_R_3.png","img/500/randomdotsizeEA/L/8_Ratio_500_L_8_R_4.png","img/750/equaldotanddens/R/3_Ratio_750_L_15_R_20.png","img/500/equaldotsize/L/13_Ratio_500_L_12_R_6.png","img/900/equaldotanddens/L/1_Ratio_900_L_10_R_9.png","img/900/equaldotsize/R/9_Ratio_900_L_18_R_20.png","img/500/equaldotanddens/L/10_Ratio_500_L_4_R_2.png","img/900/randomdotsizeEA/R/11_Ratio_900_L_18_R_20.png","img/250/randomdotsizeEA/L/1_Ratio_250_L_8_R_2.png","img/500/randomdotsizeEA/L/5_Ratio_500_L_4_R_2.png","img/750/equaldotanddens/R/15_Ratio_750_L_9_R_12.png","img/500/randomdotsizeEA/R/6_Ratio_500_L_9_R_18.png","img/750/equaldotsize/R/15_Ratio_750_L_9_R_12.png","img/500/equaldotsize/R/9_Ratio_500_L_2_R_4.png","img/500/equaldotsize/R/9_Ratio_500_L_2_R_4.png","img/900/equaldotsize/L/1_Ratio_900_L_10_R_9.png","img/900/equaldotanddens/R/7_Ratio_900_L_9_R_10.png","img/900/equaldotsize/L/8_Ratio_900_L_20_R_18.png","img/500/randomdotsizeEA/L/10_Ratio_500_L_4_R_2.png","img/750/equaldotanddens/L/8_Ratio_750_L_4_R_3.png","img/900/equaldotanddens/R/12_Ratio_900_L_18_R_20.png","img/250/equaldotanddens/R/10_Ratio_250_L_4_R_16.png","img/500/equaldotsize/R/9_Ratio_500_L_2_R_4.png","img/750/equaldotsize/L/6_Ratio_750_L_24_R_18.png","img/750/randomdotsizeEA/L/14_Ratio_750_L_8_R_6.png","img/900/randomdotsizeEA/L/2_Ratio_900_L_20_R_18.png","img/250/equaldotanddens/L/3_Ratio_250_L_8_R_2.png","img/500/equaldotsize/L/10_Ratio_500_L_4_R_2.png","img/500/equaldotsize/L/13_Ratio_500_L_12_R_6.png","img/900/randomdotsizeEA/L/2_Ratio_900_L_20_R_18.png","img/900/equaldotanddens/L/8_Ratio_900_L_20_R_18.png","img/250/randomdotsizeEA/R/4_Ratio_250_L_3_R_12.png","img/750/equaldotanddens/L/8_Ratio_750_L_4_R_3.png","img/500/equaldotanddens/L/5_Ratio_500_L_4_R_2.png","img/500/randomdotsizeEA/L/7_Ratio_500_L_10_R_5.png","img/250/randomdotsizeEA/L/14_Ratio_250_L_12_R_3.png","img/500/equaldotanddens/L/4_Ratio_500_L_18_R_9.png","img/900/randomdotsizeEA/L/10_Ratio_900_L_20_R_18.png","img/250/equaldotsize/R/6_Ratio_250_L_6_R_24.png","img/500/equaldotsize/R/12_Ratio_500_L_1_R_2.png","img/250/equaldotanddens/L/14_Ratio_250_L_12_R_3.png","img/900/equaldotsize/L/8_Ratio_900_L_20_R_18.png","img/250/randomdotsizeEA/R/9_Ratio_250_L_3_R_12.png","img/900/equaldotanddens/L/8_Ratio_900_L_20_R_18.png","img/750/randomdotsizeEA/L/13_Ratio_750_L_8_R_6.png","img/900/equaldotsize/R/5_Ratio_900_L_9_R_10.png","img/250/equaldotsize/L/5_Ratio_250_L_24_R_6.png","img/500/randomdotsizeEA/R/15_Ratio_500_L_1_R_2.png","img/750/randomdotsizeEA/L/6_Ratio_750_L_24_R_18.png","img/900/equaldotanddens/R/6_Ratio_900_L_9_R_10.png","img/250/randomdotsizeEA/L/7_Ratio_250_L_8_R_2.png","img/500/equaldotanddens/L/4_Ratio_500_L_18_R_9.png","img/500/equaldotanddens/R/14_Ratio_500_L_5_R_10.png","img/500/equaldotsize/L/5_Ratio_500_L_4_R_2.png","img/900/equaldotsize/R/5_Ratio_900_L_9_R_10.png","img/500/equaldotanddens/R/6_Ratio_500_L_9_R_18.png","img/250/equaldotsize/R/4_Ratio_250_L_3_R_12.png","img/750/randomdotsizeEA/R/5_Ratio_750_L_15_R_20.png","img/500/equaldotanddens/R/15_Ratio_500_L_1_R_2.png","img/900/equaldotanddens/L/1_Ratio_900_L_10_R_9.png","img/750/equaldotsize/L/13_Ratio_750_L_8_R_6.png","img/250/equaldotsize/R/11_Ratio_250_L_3_R_12.png","img/250/equaldotanddens/L/2_Ratio_250_L_16_R_4.png","img/250/equaldotsize/L/15_Ratio_250_L_12_R_3.png"],"Rat0":[["12_Ratio_0_L_9_R_0.png","13_Ratio_0_L_6_R_0.png","5_Ratio_0_L_2_R_0.png","6_Ratio_0_L_4_R_0.png","8_Ratio_0_L_6_R_0.png"],["1_Ratio_0_L_0_R_17.png","10_Ratio_0_L_0_R_22.png","11_Ratio_0_L_0_R_1.png","14_Ratio_0_L_0_R_24.png","15_Ratio_0_L_0_R_4.png","2_Ratio_0_L_0_R_5.png","3_Ratio_0_L_0_R_17.png","4_Ratio_0_L_0_R_7.png","7_Ratio_0_L_0_R_19.png","9_Ratio_0_L_0_R_15.png"]],"Rat250":[["1_Ratio_250_L_8_R_2.png","14_Ratio_250_L_12_R_3.png","15_Ratio_250_L_12_R_3.png","2_Ratio_250_L_16_R_4.png","3_Ratio_250_L_8_R_2.png","5_Ratio_250_L_24_R_6.png","7_Ratio_250_L_8_R_2.png"],["10_Ratio_250_L_4_R_16.png","11_Ratio_250_L_3_R_12.png","12_Ratio_250_L_5_R_20.png","13_Ratio_250_L_2_R_8.png","4_Ratio_250_L_3_R_12.png","6_Ratio_250_L_6_R_24.png","8_Ratio_250_L_1_R_4.png","9_Ratio_250_L_3_R_12.png"]],"Rat500":[["10_Ratio_500_L_4_R_2.png","11_Ratio_500_L_12_R_6.png","13_Ratio_500_L_12_R_6.png","4_Ratio_500_L_18_R_9.png","5_Ratio_500_L_4_R_2.png","7_Ratio_500_L_10_R_5.png","8_Ratio_500_L_8_R_4.png"],["1_Ratio_500_L_9_R_18.png","12_Ratio_500_L_1_R_2.png","14_Ratio_500_L_5_R_10.png","15_Ratio_500_L_1_R_2.png","2_Ratio_500_L_3_R_6.png","3_Ratio_500_L_10_R_20.png","6_Ratio_500_L_9_R_18.png","9_Ratio_500_L_2_R_4.png"]],"Rat750":[["1_Ratio_750_L_20_R_15.png","10_Ratio_750_L_4_R_3.png","13_Ratio_750_L_8_R_6.png","14_Ratio_750_L_8_R_6.png","6_Ratio_750_L_24_R_18.png","8_Ratio_750_L_4_R_3.png","9_Ratio_750_L_4_R_3.png"],["11_Ratio_750_L_12_R_16.png","12_Ratio_750_L_3_R_4.png","15_Ratio_750_L_9_R_12.png","2_Ratio_750_L_6_R_8.png","3_Ratio_750_L_15_R_20.png","4_Ratio_750_L_15_R_20.png","5_Ratio_750_L_15_R_20.png","7_Ratio_750_L_3_R_4.png"]],"Rat900":[["1_Ratio_900_L_10_R_9.png","10_Ratio_900_L_20_R_18.png","2_Ratio_900_L_20_R_18.png","4_Ratio_900_L_20_R_18.png","8_Ratio_900_L_20_R_18.png"],["11_Ratio_900_L_18_R_20.png","12_Ratio_900_L_18_R_20.png","13_Ratio_900_L_18_R_20.png","14_Ratio_900_L_18_R_20.png","15_Ratio_900_L_9_R_10.png","3_Ratio_900_L_9_R_10.png","5_Ratio_900_L_9_R_10.png","6_Ratio_900_L_9_R_10.png","7_Ratio_900_L_9_R_10.png","9_Ratio_900_L_18_R_20.png"]],"Rat1000":[["10_Ratio_1000_L_16_R_16.png","11_Ratio_1000_L_6_R_6.png","12_Ratio_1000_L_14_R_14.png","13_Ratio_1000_L_20_R_20.png","15_Ratio_1000_L_15_R_15.png","2_Ratio_1000_L_17_R_17.png","4_Ratio_1000_L_9_R_9.png","5_Ratio_1000_L_6_R_6.png","6_Ratio_1000_L_19_R_19.png","8_Ratio_1000_L_14_R_14.png","9_Ratio_1000_L_25_R_25.png"],["1_Ratio_1000_L_1_R_1.png","14_Ratio_1000_L_17_R_17.png","3_Ratio_1000_L_17_R_17.png","7_Ratio_1000_L_6_R_6.png"]]}},{"start_time":1551900573551,"click_time":1551900576380,"finger_time":1551900575680,"fix_duration":629.0644411674429,"trial":1,"RT":2129,"MT":700,"sideResp":2,"stimulus":"img/500/equaldotanddens/R/12_Ratio_500_L_1_R_2.png","xmouse":[781,781,781,781,781,781,781,781,781,781,781,781,781,781,781,781,781,781,781,781,781,781,781,781,781,781,781,781,781,781,781,781,781,781,781,781,781,781,781,781,781,781,781,781,781,781,781,781,781,781,781,781,781,781,781,781,781,781,781,781,781,781,781,781,781,781,781,781,781,781,781,781,781,781,781,781,781,781,781,781,781,781,781,781,781,781,781,781,781,782,782,782,783,783,783,783,783,783,783,784,784,784,785,785,787,790,793,802,808,813,818,821,828,832,841,845,859,891,912,935,954,976,997,1029,1042,1055,1060,1067,1069,1074,1077,1079,1083,1084,1086,1086,1087,1088,1088,1088,1088,1088],"ymouse":[495,495,495,495,495,495,495,495,495,495,495,495,495,495,495,495,495,495,495,495,495,495,495,495,495,495,495,495,495,495,495,495,495,495,495,495,495,495,495,495,495,495,495,495,495,495,495,495,495,495,495,495,495,495,495,495,495,495,495,496,496,496,496,496,496,496,496,496,496,496,496,496,496,496,496,496,496,496,496,496,496,496,496,496,496,496,496,496,496,496,496,496,495,495,495,495,495,495,495,495,495,495,494,490,485,474,466,446,431,420,409,401,388,383,372,367,355,334,321,310,302,292,282,264,255,242,235,219,211,201,192,184,171,167,162,160,154,145,138,128,112,89],"timestamp_mouse":[9,28,48,68,89,109,128,149,170,188,208,228,248,270,288,308,328,349,369,388,408,429,449,468,488,510,529,549,568,588,608,628,649,669,688,709,729,748,768,789,808,829,850,868,888,909,928,950,969,990,1009,1028,1049,1068,1088,1109,1129,1150,1170,1188,1209,1228,1248,1269,1288,1308,1328,1348,1368,1389,1409,1428,1448,1468,1488,1508,1528,1549,1568,1588,1608,1628,1648,1668,1689,1710,1729,1749,1769,1790,1809,1828,1848,1869,1888,1908,1928,1950,1969,1989,2009,2029,2049,2069,2088,2108,2129,2149,2168,2188,2209,2229,2248,2269,2288,2310,2329,2348,2369,2389,2409,2429,2448,2469,2490,2509,2528,2549,2569,2589,2608,2628,2648,2668,2689,2708,2729,2749,2769,2790,2810,2829],"xSR":741.5,"ySR":469.95,"xT1":424.9,"yT1":0,"xT2":1058.1,"yT2":0,"toosoon":0,"cond_shown":"equaldotanddens","ratio_trial":500,"smaller_num":"1","larger_num":"2","correct_side":2,"subjID":"lunagonzalez20","gender":"1","age":"10","school":"6"},{"start_time":1551900579288,"click_time":1551900580561,"finger_time":1551900580100,"fix_duration":846.190905544646,"trial":2,"RT":812,"MT":461,"sideResp":1,"stimulus":"img/500/equaldotanddens/L/8_Ratio_500_L_8_R_4.png","xmouse":[775,775,775,775,775,775,775,775,775,775,775,775,775,775,775,775,775,775,775,775,775,775,775,775,775,775,775,775,775,775,775,775,775,775,775,775,775,775,773,768,743,735,725,716,710,692,676,666,655,643,615,602,591,584,580,578,577,575,572,565,544,535,527,519],"ymouse":[489,489,489,489,489,489,489,489,489,489,489,489,489,489,489,489,489,489,489,489,489,489,489,489,489,489,489,489,489,489,489,489,489,489,489,489,489,489,481,472,430,414,395,380,367,334,306,288,269,249,208,189,175,164,159,156,155,151,146,135,106,90,75,64],"timestamp_mouse":[12,31,54,73,91,112,132,151,171,191,212,232,251,271,292,312,332,351,371,391,411,431,451,471,492,511,531,552,572,592,612,632,652,672,692,711,731,753,772,793,812,831,851,872,893,913,931,952,973,992,1012,1031,1052,1073,1092,1113,1131,1152,1171,1191,1213,1231,1252,1273],"xSR":741.5,"ySR":469.95,"xT1":424.9,"yT1":0,"xT2":1058.1,"yT2":0,"toosoon":0,"cond_shown":"equaldotanddens","ratio_trial":500,"smaller_num":"4","larger_num":"8","correct_side":1,"subjID":"lunagonzalez20","gender":"1","age":"10","school":"6"},{"start_time":1551900582165,"click_time":1551900583980,"finger_time":1551900583319,"fix_duration":643.7467198721744,"trial":3,"RT":1154,"MT":661,"sideResp":2,"stimulus":"img/750/equaldotanddens/R/2_Ratio_750_L_6_R_8.png","xmouse":[764,764,764,764,764,764,764,764,764,764,764,764,764,764,764,764,764,764,764,764,764,764,764,764,764,764,764,764,764,764,764,764,764,764,764,764,764,764,764,764,764,764,764,764,764,764,764,764,764,764,764,767,797,809,821,831,841,874,902,946,986,1000,1018,1022,1026,1029,1034,1040,1043,1044,1046,1047,1057,1066,1075,1084,1089,1091,1091,1091,1091,1091,1091,1091,1091,1091,1091,1092,1093,1093,1095],"ymouse":[511,511,511,511,511,511,511,511,511,511,511,511,511,511,511,511,511,511,511,511,511,511,511,511,511,511,511,511,511,511,511,511,511,511,511,511,511,511,511,511,511,511,511,511,511,511,511,511,511,511,511,512,509,504,497,491,484,456,435,405,371,357,331,322,314,306,297,278,270,265,259,254,236,223,210,196,188,177,174,172,169,162,146,136,129,123,119,113,109,104,95],"timestamp_mouse":[16,35,65,75,95,114,134,154,175,195,216,236,255,275,296,315,335,355,374,395,414,436,455,474,494,515,535,555,574,594,614,635,656,674,694,714,735,755,774,794,815,835,855,876,895,915,935,955,974,994,1014,1035,1054,1075,1095,1115,1134,1154,1175,1194,1215,1235,1254,1276,1295,1316,1335,1355,1375,1395,1415,1436,1455,1475,1494,1515,1536,1554,1575,1595,1615,1635,1654,1675,1696,1715,1735,1755,1775,1795,1815],"xSR":741.5,"ySR":469.95,"xT1":424.9,"yT1":0,"xT2":1058.1,"yT2":0,"toosoon":0,"cond_shown":"equaldotanddens","ratio_trial":750,"smaller_num":"6","larger_num":"8","correct_side":2,"subjID":"lunagonzalez20","gender":"1","age":"10","school":"6"},{"start_time":1551900585985,"click_time":1551900587020,"finger_time":1551900586659,"fix_duration":804.1095355605498,"trial":4,"RT":674,"MT":361,"sideResp":1,"stimulus":"img/250/equaldotsize/L/5_Ratio_250_L_24_R_6.png","xmouse":[781,781,781,781,781,781,781,781,781,781,781,781,781,781,781,781,781,781,781,781,781,781,781,781,781,781,781,781,781,781,782,782,781,769,756,728,704,673,663,657,654,647,641,633,627,619,593,571,557,541,531,519],"ymouse":[509,509,509,509,509,509,509,509,509,509,509,509,509,509,509,509,509,509,509,509,509,509,509,509,509,509,509,509,509,508,508,501,486,455,420,365,318,257,234,221,212,200,192,183,177,169,152,139,130,120,112,99],"timestamp_mouse":[14,45,55,74,94,114,135,155,174,194,214,235,254,274,295,315,335,354,374,395,415,436,454,474,495,515,535,555,574,595,615,634,655,674,696,716,735,755,775,795,815,835,855,874,895,915,935,954,975,996,1015,1034],"xSR":741.5,"ySR":469.95,"xT1":424.9,"yT1":0,"xT2":1058.1,"yT2":0,"toosoon":0,"cond_shown":"equaldotsize","ratio_trial":250,"smaller_num":"6","larger_num":"24","correct_side":1,"subjID":"lunagonzalez20","gender":"1","age":"10","school":"6"},{"start_time":1551900588505,"click_time":1551900589539,"finger_time":1551900589359,"fix_duration":304.53458551498136,"trial":5,"RT":854,"MT":180,"sideResp":1,"stimulus":"img/250/equaldotanddens/L/14_Ratio_250_L_12_R_3.png","xmouse":[779,779,779,779,779,779,779,779,779,779,779,779,779,779,779,779,779,779,779,779,779,779,779,779,779,779,779,779,779,779,779,779,779,779,779,779,779,779,779,779,774,760,744,714,684,620,597,575,561,552,532,524],"ymouse":[528,528,528,528,528,528,528,528,528,528,528,528,528,528,528,528,528,528,528,528,528,528,528,528,528,528,528,528,528,528,528,528,528,528,528,528,528,528,528,527,513,483,445,395,337,237,195,155,127,108,71,61],"timestamp_mouse":[16,34,61,74,94,114,135,155,175,194,215,236,255,275,294,316,334,355,374,394,415,435,455,474,494,514,535,555,575,595,615,634,654,674,694,714,734,755,776,795,815,834,854,875,895,917,934,955,975,995,1016,1034],"xSR":741.5,"ySR":469.95,"xT1":424.9,"yT1":0,"xT2":1058.1,"yT2":0,"toosoon":0,"cond_shown":"equaldotanddens","ratio_trial":250,"smaller_num":"3","larger_num":"12","correct_side":1,"subjID":"lunagonzalez20","gender":"1","age":"10","school":"6"},{"start_time":1551900591441,"click_time":1551900593179,"finger_time":1551900592679,"fix_duration":799.4327899073455,"trial":6,"RT":1238,"MT":500,"sideResp":1,"stimulus":"img/500/equaldotsize/L/7_Ratio_500_L_10_R_5.png","xmouse":[807,807,807,807,807,807,807,807,807,807,807,807,807,807,807,807,807,807,807,807,807,807,807,807,807,807,807,807,807,807,807,807,807,807,807,807,807,807,807,807,807,807,807,807,807,807,807,807,807,807,807,807,807,807,807,807,807,807,807,802,792,778,764,742,708,688,663,632,599,559,546,540,540,536,535,534,534,534,534,533,531,527,518,511,500,495,490],"ymouse":[505,505,505,505,505,505,505,505,505,505,505,505,505,505,505,505,505,505,505,505,505,505,505,505,505,505,505,505,505,505,505,505,505,505,505,505,505,505,505,505,505,505,505,505,505,505,505,505,505,505,505,505,505,505,505,505,505,505,505,500,485,468,453,427,387,372,353,332,310,275,264,255,253,245,237,233,224,218,208,186,172,158,137,124,107,100,93],"timestamp_mouse":[18,38,61,78,100,119,138,159,179,199,219,238,259,279,298,319,338,358,378,398,419,439,459,478,499,519,538,558,579,600,619,639,659,679,699,718,738,760,779,800,818,838,859,879,900,918,938,958,978,1000,1020,1039,1058,1079,1099,1118,1138,1158,1178,1198,1219,1238,1258,1280,1298,1319,1339,1360,1378,1399,1418,1439,1458,1479,1498,1520,1538,1559,1578,1599,1619,1639,1658,1678,1698,1719,1738],"xSR":741.5,"ySR":469.95,"xT1":424.9,"yT1":0,"xT2":1058.1,"yT2":0,"toosoon":0,"cond_shown":"equaldotsize","ratio_trial":500,"smaller_num":"5","larger_num":"10","correct_side":1,"subjID":"lunagonzalez20","gender":"1","age":"10","school":"6"},{"start_time":1551900595531,"click_time":1551900597341,"finger_time":1551900596640,"fix_duration":250,"trial":7,"RT":1109,"MT":701,"sideResp":2,"stimulus":"img/250/equaldotanddens/R/11_Ratio_250_L_3_R_12.png","xmouse":[811,811,811,811,811,811,811,811,811,811,811,811,811,811,811,811,811,811,811,811,811,811,811,811,811,811,811,811,811,811,811,811,811,811,811,811,811,811,811,811,811,811,811,811,811,811,811,811,811,811,811,808,803,802,804,808,832,868,913,966,1101,1158,1200,1238,1270,1304,1313,1314,1316,1316,1316,1315,1312,1306,1300,1285,1278,1273,1269,1261,1251,1243,1236,1227,1215,1186,1180,1180,1179,1175,1157],"ymouse":[539,539,539,539,539,539,539,539,539,539,539,539,539,539,539,539,539,539,539,539,539,539,539,539,539,539,539,539,539,539,539,539,539,539,539,539,539,539,539,539,539,539,539,539,539,539,539,539,539,539,539,524,495,484,476,464,430,393,356,315,227,193,167,144,125,102,93,88,82,78,70,67,65,64,64,64,64,64,64,64,64,64,64,64,64,64,64,64,64,64,63],"timestamp_mouse":[10,29,49,68,88,108,129,149,169,188,208,228,249,269,289,309,329,348,368,389,409,428,449,468,488,508,529,549,568,588,609,630,648,668,689,709,729,748,768,788,808,829,849,870,889,909,929,948,970,989,1010,1029,1049,1068,1088,1109,1129,1149,1169,1189,1209,1229,1250,1269,1288,1310,1328,1349,1368,1389,1410,1428,1449,1470,1489,1510,1528,1549,1569,1590,1609,1629,1649,1669,1689,1710,1728,1748,1768,1789,1810],"xSR":741.5,"ySR":469.95,"xT1":424.9,"yT1":0,"xT2":1058.1,"yT2":0,"toosoon":0,"cond_shown":"equaldotanddens","ratio_trial":250,"smaller_num":"3","larger_num":"12","correct_side":2,"subjID":"lunagonzalez20","gender":"1","age":"10","school":"6"},{"start_time":1551900598628,"click_time":1551900599841,"finger_time":1551900599500,"fix_duration":367.0651140886555,"trial":8,"RT":872,"MT":341,"sideResp":1,"stimulus":"img/250/equaldotsize/L/7_Ratio_250_L_8_R_2.png","xmouse":[801,801,801,801,801,801,801,801,801,801,801,801,801,801,801,801,801,801,801,801,801,801,801,801,801,801,801,801,801,801,801,801,801,801,801,801,801,801,801,801,801,788,768,744,721,703,663,633,615,604,595,586,584,583,579,570,547,539,533,520,517],"ymouse":[530,530,530,530,530,530,530,530,530,530,530,530,530,530,530,530,530,530,530,530,530,530,530,530,530,530,530,530,530,530,530,530,530,530,530,530,530,530,530,530,530,512,485,445,400,353,258,215,189,172,161,150,147,145,141,136,123,117,112,101,98],"timestamp_mouse":[13,37,52,73,91,111,131,151,172,193,212,231,251,271,292,313,333,351,371,392,411,431,451,471,493,511,531,552,572,592,611,633,652,671,692,712,732,751,771,792,812,832,852,871,893,912,931,952,971,992,1011,1031,1051,1071,1092,1111,1132,1151,1172,1191,1213],"xSR":741.5,"ySR":469.95,"xT1":424.9,"yT1":0,"xT2":1058.1,"yT2":0,"toosoon":0,"cond_shown":"equaldotsize","ratio_trial":250,"smaller_num":"2","larger_num":"8","correct_side":1,"subjID":"lunagonzalez20","gender":"1","age":"10","school":"6"},{"start_time":1551900603431,"click_time":1551900604479,"finger_time":1551900604260,"fix_duration":1049.524191568106,"trial":9,"RT":829,"MT":219,"sideResp":2,"stimulus":"img/750/equaldotanddens/R/4_Ratio_750_L_15_R_20.png","xmouse":[793,792,792,792,792,792,792,792,792,792,792,792,792,792,792,792,792,792,792,792,792,792,792,792,792,792,792,792,792,792,792,792,792,792,792,792,792,792,792,792,797,826,840,856,884,911,969,992,1016,1029,1041,1051,1067],"ymouse":[515,512,510,510,510,510,510,510,510,510,510,510,510,510,510,510,510,510,510,510,510,510,510,510,510,510,510,510,510,510,510,510,510,510,510,510,510,510,510,507,491,431,398,356,296,246,164,137,110,99,90,82,70],"timestamp_mouse":[10,29,58,68,88,108,129,148,169,188,209,229,248,268,288,308,328,348,369,389,408,428,448,469,489,508,528,549,569,588,609,629,649,669,688,708,728,749,768,789,809,829,849,868,889,909,929,949,968,988,1009,1029,1048],"xSR":741.5,"ySR":469.95,"xT1":424.9,"yT1":0,"xT2":1058.1,"yT2":0,"toosoon":0,"cond_shown":"equaldotanddens","ratio_trial":750,"smaller_num":"15","larger_num":"20","correct_side":2,"subjID":"lunagonzalez20","gender":"1","age":"10","school":"6"},{"start_time":1551900606742,"click_time":1551900611120,"finger_time":1551900610680,"fix_duration":1360.9813703191644,"trial":10,"RT":3938,"MT":440,"sideResp":2,"stimulus":"img/500/randomdotsizeEA/R/14_Ratio_500_L_5_R_10.png","xmouse":[799,799,799,799,799,799,799,799,799,799,799,799,799,799,799,799,799,799,799,799,799,799,799,799,799,799,799,799,799,799,799,799,799,799,799,799,799,799,799,799,799,799,799,799,799,799,799,799,799,799,799,799,799,799,799,799,799,799,799,799,799,799,799,799,799,799,799,799,799,799,799,799,799,799,798,798,798,798,798,798,798,798,798,798,798,798,798,798,798,798,798,798,798,798,798,798,798,798,798,798,798,798,798,798,798,798,798,798,798,798,798,798,798,798,798,798,798,798,798,798,798,798,798,798,798,800,805,806,808,808,810,810,811,811,811,811,811,811,811,811,811,811,811,811,811,811,811,811,811,811,811,811,811,811,811,811,811,811,811,811,811,811,811,811,811,811,811,811,811,811,811,811,811,811,811,811,811,811,811,811,811,811,811,811,811,811,811,811,811,811,811,811,811,811,811,814,820,825,829,841,851,874,880,886,895,900,917,924,936,942,947,966,975,984,997,1018,1102,1140,1156],"ymouse":[515,515,515,515,515,515,515,515,515,515,515,515,515,515,515,515,515,515,515,515,515,515,515,515,515,515,515,515,515,515,515,515,515,515,515,515,515,515,515,515,515,515,515,515,515,515,515,515,515,515,515,515,515,515,515,515,515,515,515,515,515,515,515,515,515,515,515,515,515,515,515,515,515,515,515,515,514,513,512,512,512,512,512,512,512,512,512,512,512,512,512,512,512,512,512,512,512,512,512,512,512,512,512,512,512,512,512,512,512,512,512,512,512,512,512,512,512,512,512,512,512,512,512,509,505,501,493,491,488,487,484,484,483,483,483,483,483,483,483,483,483,483,483,483,483,483,483,483,483,483,483,483,483,483,483,483,483,483,483,483,483,483,483,483,483,483,483,483,483,483,483,483,483,483,483,483,483,483,483,483,483,483,483,483,483,483,483,483,483,483,483,483,483,483,483,480,462,443,421,392,376,349,344,339,333,330,318,311,300,294,289,271,263,252,239,221,147,106,73],"timestamp_mouse":[18,37,57,78,97,119,139,157,177,198,217,237,257,277,298,319,337,357,378,398,418,438,458,478,497,517,537,557,577,598,618,638,658,678,698,718,738,757,777,797,817,839,858,878,897,917,938,958,977,997,1017,1038,1057,1077,1097,1119,1138,1158,1177,1197,1217,1237,1258,1278,1298,1318,1337,1358,1378,1398,1417,1438,1458,1478,1498,1517,1538,1558,1577,1597,1619,1637,1658,1677,1698,1719,1738,1757,1778,1797,1818,1838,1858,1877,1897,1918,1938,1958,1978,1997,2017,2038,2058,2078,2098,2117,2137,2159,2177,2197,2218,2237,2259,2278,2298,2319,2337,2357,2377,2397,2417,2438,2457,2478,2498,2517,2537,2558,2578,2598,2619,2638,2658,2678,2697,2717,2737,2757,2778,2798,2817,2837,2859,2877,2898,2917,2937,2957,2978,2998,3017,3038,3059,3078,3098,3119,3138,3157,3177,3197,3217,3237,3257,3277,3298,3318,3339,3357,3377,3398,3417,3439,3458,3477,3497,3517,3539,3559,3577,3597,3618,3639,3657,3678,3698,3717,3738,3758,3777,3797,3818,3839,3858,3877,3898,3917,3938,3958,3977,3997,4018,4037,4058,4079,4099,4118,4138,4157,4178,4198,4217,4237,4258,4277,4298,4319,4337,4358,4378],"xSR":741.5,"ySR":469.95,"xT1":424.9,"yT1":0,"xT2":1058.1,"yT2":0,"toosoon":0,"cond_shown":"randomdotsizeEA","ratio_trial":500,"smaller_num":"5","larger_num":"10","correct_side":2,"subjID":"lunagonzalez20","gender":"1","age":"10","school":"6"},{"start_time":1551900616001,"click_time":1551900617379,"finger_time":1551900616979,"fix_duration":320.0820260488819,"trial":11,"RT":978,"MT":400,"sideResp":1,"stimulus":"img/250/randomdotsizeEA/L/2_Ratio_250_L_16_R_4.png","xmouse":[807,807,807,807,807,807,807,807,807,807,807,807,807,807,807,807,807,807,807,807,807,807,807,807,807,807,807,807,807,807,807,807,807,807,807,807,807,807,807,807,807,807,807,807,807,807,801,795,779,741,716,692,660,567,544,530,522,520,514,507,504,501,499,499,498,498,498,498,496],"ymouse":[486,486,486,486,486,486,486,486,486,486,486,486,486,486,486,486,486,486,486,486,486,486,486,486,486,486,486,486,486,486,486,486,486,486,486,486,486,486,486,486,486,486,486,486,486,486,480,471,451,410,381,351,318,238,215,199,188,183,175,166,158,149,140,135,116,110,105,102,98],"timestamp_mouse":[18,38,58,78,98,118,140,158,178,199,219,239,260,278,298,318,339,359,378,398,419,438,458,478,498,518,539,559,578,598,618,639,658,678,699,719,739,759,778,799,820,839,859,879,899,918,938,959,978,998,1018,1040,1059,1080,1098,1119,1139,1159,1180,1198,1218,1238,1258,1279,1298,1318,1340,1359,1378],"xSR":741.5,"ySR":469.95,"xT1":424.9,"yT1":0,"xT2":1058.1,"yT2":0,"toosoon":0,"cond_shown":"randomdotsizeEA","ratio_trial":250,"smaller_num":"4","larger_num":"16","correct_side":1,"subjID":"lunagonzalez20","gender":"1","age":"10","school":"6"},{"start_time":1551900619676,"click_time":1551900626601,"finger_time":1551900621180,"fix_duration":1395.5562455505074,"trial":12,"RT":1504,"MT":5421,"sideResp":2,"stimulus":"img/900/randomdotsizeEA/L/8_Ratio_900_L_20_R_18.png","xmouse":[809,809,809,809,809,809,809,809,809,809,809,809,809,809,809,809,809,809,809,809,809,809,809,809,809,809,809,809,809,809,809,809,809,809,809,809,809,809,809,809,809,809,809,809,809,809,809,809,809,809,809,809,809,809,809,809,809,809,809,809,809,809,809,809,809,809,809,809,809,807,803,795,788,782,773,763,745,734,719,710,704,692,687,681,677,672,666,664,664,664,664,664,666,667,670,673,675,675,676,676,676,676,676,676,676,676,676,676,676,676,676,676,676,676,676,676,676,676,676,676,676,676,676,676,676,676,676,676,676,676,676,675,673,672,672,672,672,672,672,672,672,672,672,672,672,672,672,672,672,672,672,672,672,672,672,672,680,805,868,915,927,927,927,925,907,869,744,675,666,666,666,666,666,666,666,666,666,666,666,666,666,666,666,666,666,670,673,673,673,673,673,648,647,647,647,648,717,729,730,730,730,716,617,603,603,606,713,813,827,828,826,821,819,819,820,835,869,875,862,825,728,646,646,650,675,734,807,824,823,820,819,819,827,846,870,876,876,870,858,836,823,823,823,826,832,849,861,861,844,787,730,705,705,711,734,773,811,847,847,841,778,722,704,704,715,750,807,856,856,839,800,715,705,705,708,735,745,758,756,744,717,696,692,694,704,722,743,743,743,743,742,740,740,740,741,749,770,772,769,740,670,620,608,609,624,681,701,738,738,734,725,711,709,715,734,772,804,807,803,790,757,718,703,703,703,735,805,965,993,995,992,968,788,718,686,687,694,813,845,854,853,824,497,361,358,413,1074],"ymouse":[528,528,528,528,528,528,528,528,528,528,528,528,528,528,528,528,528,528,528,528,528,528,528,528,528,528,528,528,528,528,528,528,528,528,528,528,528,528,528,528,528,528,528,528,528,528,528,528,528,528,528,528,528,528,528,528,528,528,528,528,528,528,528,528,528,528,528,528,525,520,514,500,490,481,471,461,444,435,419,407,394,364,345,324,302,282,243,220,209,202,196,191,188,182,174,165,155,150,149,149,149,149,149,149,149,149,149,149,149,149,149,149,149,149,149,149,149,149,146,141,138,136,136,136,136,136,136,136,136,136,136,135,130,130,130,130,130,130,130,130,130,130,130,130,130,130,130,130,130,130,130,130,130,130,130,130,124,96,87,80,77,77,77,77,77,77,77,77,77,77,77,77,77,77,77,77,77,77,77,77,77,77,77,77,76,74,73,73,73,73,72,71,71,71,71,70,53,49,48,48,48,52,81,87,87,88,89,77,77,77,77,77,77,77,77,74,64,62,62,66,77,90,90,90,84,69,57,55,55,55,56,56,57,55,48,47,47,47,47,52,57,57,58,58,58,50,47,47,50,61,77,88,88,88,81,69,58,48,48,49,61,72,78,78,77,67,52,43,43,53,68,94,95,95,94,78,74,68,68,75,88,99,102,102,98,88,78,78,78,78,79,80,80,80,80,80,74,74,74,81,96,105,108,108,101,76,69,57,57,60,66,75,77,78,75,65,55,55,55,58,68,79,88,88,88,77,58,23,18,18,21,34,90,109,119,119,118,83,73,70,70,74,124,146,147,137,22],"timestamp_mouse":[9,24,50,63,84,104,123,143,163,184,203,224,244,264,284,304,324,343,364,384,404,424,444,465,484,503,523,543,563,583,603,624,644,663,683,704,724,743,763,783,804,824,844,864,883,903,925,943,963,984,1004,1024,1044,1064,1083,1103,1123,1143,1163,1183,1204,1223,1244,1263,1283,1303,1324,1344,1364,1384,1404,1423,1443,1464,1484,1504,1524,1545,1563,1585,1604,1624,1644,1665,1685,1705,1724,1743,1764,1783,1803,1824,1844,1865,1883,1904,1925,1945,1965,1984,2003,2023,2044,2064,2084,2104,2123,2143,2164,2184,2204,2223,2243,2264,2283,2303,2323,2344,2363,2384,2403,2424,2443,2463,2483,2504,2524,2544,2563,2583,2604,2624,2644,2664,2685,2703,2724,2744,2763,2783,2803,2824,2844,2864,2884,2903,2924,2943,2963,2983,3003,3025,3045,3064,3084,3103,3124,3143,3164,3183,3204,3224,3244,3263,3284,3304,3325,3343,3363,3383,3403,3424,3443,3463,3483,3503,3524,3543,3563,3583,3603,3624,3644,3663,3684,3704,3724,3743,3763,3783,3804,3824,3845,3865,3883,3903,3925,3944,3964,3984,4004,4023,4044,4065,4084,4104,4125,4143,4164,4184,4205,4225,4245,4264,4284,4304,4324,4344,4363,4383,4404,4425,4443,4463,4484,4503,4523,4543,4564,4583,4604,4625,4644,4665,4684,4704,4724,4744,4764,4783,4804,4823,4843,4863,4884,4904,4923,4944,4964,4984,5004,5026,5044,5064,5083,5104,5124,5144,5163,5184,5203,5223,5243,5263,5283,5303,5325,5343,5363,5383,5403,5425,5444,5464,5484,5504,5523,5543,5563,5583,5604,5623,5643,5663,5685,5704,5725,5743,5765,5784,5804,5823,5844,5863,5884,5904,5923,5943,5963,5984,6004,6025,6044,6063,6084,6104,6123,6144,6164,6184,6204,6223,6243,6264,6284,6304,6323,6343,6363,6384,6404,6426,6444,6463,6484,6504,6524,6544,6564,6584,6604,6624,6643,6663,6684,6704,6724,6744,6764,6784,6805,6824,6844,6864,6884,6904,6924],"xSR":741.5,"ySR":469.95,"xT1":424.9,"yT1":0,"xT2":1058.1,"yT2":0,"toosoon":0,"cond_shown":"randomdotsizeEA","ratio_trial":900,"smaller_num":"18","larger_num":"20","correct_side":1,"subjID":"lunagonzalez20","gender":"1","age":"10","school":"6"},{"start_time":1551900629012,"click_time":1551900630139,"finger_time":1551900629920,"fix_duration":250,"trial":13,"RT":908,"MT":219,"sideResp":2,"stimulus":"img/900/randomdotsizeEA/R/11_Ratio_900_L_18_R_20.png","xmouse":[788,788,788,788,788,789,789,789,789,790,791,793,796,796,798,799,800,800,800,801,805,806,806,806,806,806,806,806,806,806,806,806,806,806,806,806,806,806,806,806,806,806,806,806,808,846,898,966,991,1006,1043,1067,1084,1094,1104,1125,1146],"ymouse":[531,531,531,531,531,531,531,531,531,531,531,530,528,525,522,518,517,517,515,511,502,500,500,500,500,500,500,500,500,500,500,500,500,500,500,500,500,500,500,500,500,500,500,500,500,462,412,345,312,281,216,186,166,150,135,107,86],"timestamp_mouse":[9,29,47,68,87,107,127,147,167,187,207,228,247,268,288,308,327,347,368,388,407,428,447,467,488,507,527,547,568,588,607,628,648,668,688,708,728,748,767,787,807,827,847,867,887,908,927,948,968,988,1008,1028,1048,1068,1089,1107,1127],"xSR":741.5,"ySR":469.95,"xT1":424.9,"yT1":0,"xT2":1058.1,"yT2":0,"toosoon":0,"cond_shown":"randomdotsizeEA","ratio_trial":900,"smaller_num":"18","larger_num":"20","correct_side":2,"subjID":"lunagonzalez20","gender":"1","age":"10","school":"6"},{"start_time":1551900632352,"click_time":1551900633380,"finger_time":1551900632940,"fix_duration":430.7886174806624,"trial":14,"RT":588,"MT":440,"sideResp":1,"stimulus":"img/250/equaldotanddens/L/2_Ratio_250_L_16_R_4.png","xmouse":[801,801,801,801,801,801,801,801,801,801,801,801,801,801,801,801,801,801,801,801,801,801,801,801,801,801,801,801,801,799,792,780,770,756,730,712,691,676,664,659,652,646,639,620,609,596,584,575,569,545,535,524],"ymouse":[480,480,480,480,480,480,480,480,480,481,481,481,481,481,481,481,481,481,481,481,481,481,481,481,481,481,481,481,481,465,443,416,391,369,329,306,284,269,252,245,237,230,220,192,175,156,139,127,118,92,85,76],"timestamp_mouse":[10,34,47,67,87,107,127,148,168,189,208,227,247,268,288,309,327,347,367,388,408,428,449,468,487,507,527,547,568,588,607,628,648,669,688,708,728,747,769,787,808,827,848,869,887,909,928,949,968,987,1007,1028],"xSR":741.5,"ySR":469.95,"xT1":424.9,"yT1":0,"xT2":1058.1,"yT2":0,"toosoon":0,"cond_shown":"equaldotanddens","ratio_trial":250,"smaller_num":"4","larger_num":"16","correct_side":1,"subjID":"lunagonzalez20","gender":"1","age":"10","school":"6"},{"start_time":1551900636838,"click_time":1551900638680,"finger_time":1551900637860,"fix_duration":1337.3763081961235,"trial":15,"RT":1022,"MT":820,"sideResp":1,"stimulus":"img/900/equaldotanddens/L/4_Ratio_900_L_20_R_18.png","xmouse":[776,776,776,776,776,776,776,776,776,776,776,776,776,776,776,776,776,776,776,776,776,776,776,776,776,776,776,776,776,776,776,776,776,776,776,776,776,776,776,776,776,776,776,776,776,776,776,776,776,776,766,754,737,727,719,713,703,696,686,677,659,648,631,620,610,597,593,590,589,589,587,586,584,580,577,568,564,559,554,546,529,512,506,499,496,491,488,487,486,485,484,484,483],"ymouse":[499,499,499,499,499,499,499,499,499,499,499,499,499,499,499,499,499,499,499,499,499,499,499,499,499,499,499,499,499,499,499,499,499,499,499,499,499,499,499,499,499,499,499,499,499,499,499,499,499,497,470,449,421,403,388,376,355,346,334,323,297,284,262,249,237,219,214,209,207,202,194,190,186,180,174,165,160,156,151,145,135,127,123,119,117,112,109,108,106,105,102,100,97],"timestamp_mouse":[9,23,41,61,82,103,121,141,161,182,203,221,241,261,281,301,322,342,362,382,401,421,441,461,481,501,522,542,562,582,603,621,641,662,682,701,721,741,763,781,803,822,842,861,881,901,922,942,961,981,1001,1022,1041,1062,1082,1102,1122,1141,1162,1182,1202,1221,1242,1263,1283,1302,1321,1341,1362,1381,1403,1422,1442,1462,1482,1502,1521,1543,1562,1582,1602,1621,1641,1662,1682,1702,1722,1742,1761,1781,1802,1823,1842],"xSR":741.5,"ySR":469.95,"xT1":424.9,"yT1":0,"xT2":1058.1,"yT2":0,"toosoon":0,"cond_shown":"equaldotanddens","ratio_trial":900,"smaller_num":"18","larger_num":"20","correct_side":1,"subjID":"lunagonzalez20","gender":"1","age":"10","school":"6"},{"start_time":1551900656032,"click_time":1551900658100,"finger_time":1551900657540,"fix_duration":250,"trial":16,"RT":1508,"MT":560,"sideResp":2,"stimulus":"img/900/randomdotsizeEA/R/6_Ratio_900_L_9_R_10.png","xmouse":[798,798,798,798,798,798,798,798,798,798,798,798,798,798,798,798,798,798,798,798,798,798,798,798,798,798,798,798,798,798,798,798,798,798,798,798,798,798,798,798,798,798,798,798,798,798,798,798,798,798,798,798,798,798,798,798,798,798,798,798,798,798,798,799,799,799,799,799,799,799,799,799,805,812,816,823,831,850,862,877,895,916,959,984,997,1007,1014,1024,1027,1030,1031,1036,1042,1056,1056,1056,1056,1056,1056,1056,1056,1056,1057,1073],"ymouse":[510,510,510,510,510,510,510,510,510,510,510,510,510,510,510,510,510,510,510,510,510,510,510,510,510,510,510,510,510,510,510,510,510,510,510,510,510,510,510,510,510,510,510,510,510,510,510,510,510,510,510,510,510,510,510,510,510,510,510,510,510,510,510,510,510,510,510,510,510,510,508,507,496,481,472,459,446,419,400,379,352,322,258,216,193,174,157,127,118,109,104,98,90,81,80,80,80,80,80,80,80,80,80,71],"timestamp_mouse":[9,28,61,69,88,108,129,148,168,188,208,228,248,268,289,308,329,348,368,389,408,428,448,468,488,510,528,548,568,589,609,628,648,669,689,708,728,748,769,788,809,828,848,869,889,908,928,948,968,988,1008,1028,1048,1069,1088,1108,1129,1148,1169,1188,1208,1228,1248,1268,1288,1308,1328,1348,1368,1388,1408,1428,1448,1468,1488,1508,1528,1549,1568,1588,1608,1629,1649,1668,1689,1708,1729,1749,1768,1789,1809,1829,1849,1868,1889,1908,1928,1948,1968,1988,2009,2028,2049,2068],"xSR":741.5,"ySR":469.95,"xT1":424.9,"yT1":0,"xT2":1058.1,"yT2":0,"toosoon":0,"cond_shown":"randomdotsizeEA","ratio_trial":900,"smaller_num":"9","larger_num":"10","correct_side":2,"subjID":"lunagonzalez20","gender":"1","age":"10","school":"6"},{"start_time":1551900659592,"click_time":1551900665920,"finger_time":1551900660600,"fix_duration":329.3795276837714,"trial":17,"RT":1008,"MT":5320,"sideResp":2,"stimulus":"img/900/equaldotsize/L/10_Ratio_900_L_20_R_18.png","xmouse":[791,791,791,791,791,791,791,791,791,791,791,791,791,791,791,791,791,791,791,791,791,791,791,791,791,791,791,791,791,791,791,791,791,791,791,791,791,791,791,791,791,791,791,790,789,787,783,779,776,772,759,752,741,733,718,694,681,671,664,658,654,652,651,649,649,648,648,648,648,651,677,697,719,740,770,828,850,868,884,897,929,945,961,973,976,976,976,973,961,923,827,773,738,728,726,723,725,736,741,743,745,746,748,749,749,748,743,735,721,700,636,593,574,574,574,574,574,574,574,574,574,574,574,574,574,574,574,574,574,574,574,574,574,574,574,574,574,574,574,574,574,574,574,574,574,574,574,574,599,601,607,610,614,616,617,618,618,619,620,620,620,620,620,620,620,617,615,615,614,613,610,608,605,602,601,601,601,601,600,599,597,597,596,594,592,590,589,587,587,587,587,587,587,587,587,587,587,587,587,587,587,587,587,587,587,587,587,587,587,587,587,587,587,587,587,587,587,587,587,587,587,587,587,587,587,587,587,587,587,587,587,587,587,587,587,587,587,587,587,587,587,587,587,587,587,587,587,587,587,587,587,587,587,587,587,587,587,587,587,587,587,587,587,587,587,587,587,587,587,587,587,587,587,587,587,587,587,587,587,587,587,587,587,587,587,587,587,587,587,587,587,587,587,587,587,587,587,587,587,587,587,587,587,587,588,640,690,752,812,861,928,952,958,964,968,1008,1070],"ymouse":[503,503,503,503,503,503,503,503,503,503,503,503,503,503,503,503,503,503,503,503,503,503,503,503,503,503,503,503,503,503,503,503,503,503,503,503,503,503,503,503,503,503,503,504,505,505,503,497,492,485,466,456,443,432,410,375,358,343,331,322,312,309,306,302,299,297,297,297,297,296,293,289,285,281,268,251,245,240,236,234,228,226,224,223,223,223,223,222,219,207,178,162,151,145,143,140,136,132,130,128,124,120,116,112,105,92,81,69,56,44,18,6,1,1,1,1,1,1,1,1,1,1,1,1,1,1,1,1,1,1,1,1,1,1,1,1,1,1,1,1,1,1,1,1,1,1,1,1,0,1,5,8,12,16,18,20,20,22,22,23,24,24,25,27,33,45,47,48,49,50,50,51,52,52,52,52,52,52,52,52,52,52,52,52,52,52,52,53,53,53,53,53,53,53,53,53,53,53,53,53,53,53,53,53,53,53,53,53,53,53,53,53,53,53,53,53,53,53,53,53,53,53,53,53,53,53,53,53,53,53,53,53,53,53,53,53,53,53,53,53,53,53,53,53,53,53,53,53,53,53,53,53,53,53,53,53,53,53,53,53,53,53,53,53,53,53,53,53,53,53,53,53,53,53,53,53,53,53,53,53,53,53,53,53,53,53,53,53,53,53,53,53,53,53,53,53,53,53,53,53,53,53,53,53,53,51,44,36,26,20,10,6,5,4,4,4,4],"timestamp_mouse":[9,29,48,68,89,108,128,148,168,188,208,228,248,268,288,308,328,349,368,388,408,428,448,468,488,508,529,548,568,588,608,629,648,668,688,708,728,748,768,788,808,828,849,870,888,908,929,948,968,988,1008,1028,1049,1068,1088,1108,1129,1148,1169,1188,1208,1228,1248,1268,1289,1308,1328,1349,1369,1388,1408,1428,1449,1469,1488,1508,1528,1548,1569,1588,1608,1630,1648,1668,1688,1708,1728,1749,1769,1788,1808,1828,1848,1868,1888,1908,1929,1948,1968,1988,2008,2029,2049,2068,2089,2108,2128,2148,2168,2188,2208,2228,2248,2268,2288,2309,2328,2349,2368,2388,2408,2428,2449,2469,2489,2508,2528,2548,2568,2588,2609,2628,2648,2668,2688,2709,2728,2748,2768,2788,2808,2828,2848,2868,2888,2909,2929,2949,2969,2988,3008,3028,3049,3068,3088,3109,3128,3148,3168,3188,3209,3228,3249,3268,3288,3308,3329,3348,3368,3388,3408,3429,3448,3468,3488,3509,3529,3548,3568,3588,3608,3628,3648,3668,3688,3708,3729,3749,3768,3788,3809,3828,3848,3868,3888,3909,3928,3949,3968,3988,4008,4028,4048,4068,4088,4108,4128,4148,4168,4188,4209,4228,4248,4269,4289,4308,4329,4349,4368,4388,4409,4428,4448,4468,4488,4509,4528,4548,4568,4588,4608,4628,4648,4668,4688,4708,4728,4749,4768,4788,4808,4828,4848,4868,4888,4909,4928,4948,4968,4988,5008,5028,5048,5068,5088,5108,5128,5148,5168,5188,5208,5229,5248,5268,5288,5308,5328,5348,5368,5388,5409,5429,5449,5469,5488,5509,5528,5548,5568,5588,5609,5628,5649,5668,5688,5709,5728,5748,5768,5788,5809,5828,5848,5869,5889,5908,5930,5948,5968,5988,6008,6028,6048,6068,6089,6108,6128,6149,6168,6189,6208,6228,6248,6269,6289,6309,6328],"xSR":741.5,"ySR":469.95,"xT1":424.9,"yT1":0,"xT2":1058.1,"yT2":0,"toosoon":0,"cond_shown":"equaldotsize","ratio_trial":900,"smaller_num":"18","larger_num":"20","correct_side":1,"subjID":"lunagonzalez20","gender":"1","age":"10","school":"6"},{"start_time":1551900668892,"click_time":1551900670060,"finger_time":1551900669820,"fix_duration":1309.8957374296676,"trial":18,"RT":928,"MT":240,"sideResp":1,"stimulus":"img/250/randomdotsizeEA/L/5_Ratio_250_L_24_R_6.png","xmouse":[813,813,813,813,813,813,813,813,813,813,813,813,813,813,813,813,813,813,813,813,813,813,813,813,813,813,813,813,813,813,813,813,813,813,813,813,813,813,813,813,813,813,813,813,813,808,794,781,768,752,725,672,646,619,580,560,534,525,516],"ymouse":[512,512,512,512,512,512,512,512,512,512,512,512,512,512,512,512,512,512,512,512,512,512,512,512,512,512,512,512,512,512,512,512,512,512,512,512,512,512,512,512,510,505,502,500,495,480,445,424,401,375,336,266,234,204,155,125,80,60,43],"timestamp_mouse":[9,28,48,68,88,108,128,148,168,188,208,228,248,268,288,309,328,348,369,388,408,428,448,469,489,509,528,548,568,588,609,628,648,669,688,708,728,748,768,788,808,828,849,868,888,909,928,948,968,989,1008,1028,1048,1069,1089,1108,1128,1148,1168],"xSR":741.5,"ySR":469.95,"xT1":424.9,"yT1":0,"xT2":1058.1,"yT2":0,"toosoon":0,"cond_shown":"randomdotsizeEA","ratio_trial":250,"smaller_num":"6","larger_num":"24","correct_side":1,"subjID":"lunagonzalez20","gender":"1","age":"10","school":"6"},{"start_time":1551900671396,"click_time":1551900672681,"finger_time":1551900672100,"fix_duration":414.0514664394975,"trial":19,"RT":704,"MT":581,"sideResp":1,"stimulus":"img/250/equaldotanddens/L/3_Ratio_250_L_8_R_2.png","xmouse":[777,777,777,777,777,777,777,776,776,776,775,775,775,775,775,775,775,775,775,775,775,775,775,775,775,775,775,775,775,775,775,775,775,772,764,755,737,719,692,667,645,611,597,592,592,592,592,592,592,592,592,592,592,592,592,592,592,592,592,592,592,592,592,592,519],"ymouse":[514,514,514,514,514,514,514,514,515,515,515,515,515,515,515,515,515,515,515,515,515,515,515,515,515,515,515,515,515,515,515,515,512,499,476,443,377,319,222,162,113,40,17,5,5,5,5,5,5,5,5,5,5,5,5,5,5,5,5,5,5,5,5,5,2],"timestamp_mouse":[9,33,45,64,84,104,124,144,164,184,204,224,244,264,284,304,324,344,364,384,404,424,444,464,485,525,525,544,564,584,604,625,644,664,684,704,724,744,764,785,804,825,844,864,884,904,925,944,964,984,1004,1025,1045,1065,1084,1104,1125,1145,1164,1184,1204,1224,1245,1264,1285],"xSR":741.5,"ySR":469.95,"xT1":424.9,"yT1":0,"xT2":1058.1,"yT2":0,"toosoon":0,"cond_shown":"equaldotanddens","ratio_trial":250,"smaller_num":"2","larger_num":"8","correct_side":1,"subjID":"lunagonzalez20","gender":"1","age":"10","school":"6"},{"start_time":1551900674713,"click_time":1551900676560,"finger_time":1551900676100,"fix_duration":871.0323952079841,"trial":20,"RT":1387,"MT":460,"sideResp":2,"stimulus":"img/750/equaldotsize/R/12_Ratio_750_L_3_R_4.png","xmouse":[780,780,780,780,780,780,780,780,781,781,782,782,782,782,782,782,783,783,783,783,783,783,783,783,783,783,783,783,783,783,783,783,783,783,783,783,783,784,784,784,784,784,784,784,784,784,784,784,784,784,784,784,784,784,784,784,783,781,781,779,778,777,777,777,777,777,777,780,787,795,804,818,829,843,853,863,876,883,891,904,931,990,1055,1121,1156,1165,1167,1167,1165,1162,1158,1145,1142],"ymouse":[537,537,537,537,537,537,537,537,537,537,537,537,537,536,536,536,536,536,536,536,536,536,535,535,535,535,535,535,535,535,535,535,535,535,535,535,535,534,534,534,534,534,534,534,534,534,534,534,534,534,534,534,534,534,534,533,530,528,526,525,522,520,520,520,519,517,502,488,471,449,413,371,346,324,308,295,273,264,254,244,230,209,190,171,158,152,149,145,139,133,126,103,97],"timestamp_mouse":[8,27,51,67,88,107,127,147,167,188,207,227,247,267,288,307,327,348,368,387,407,427,447,467,487,507,527,548,568,587,607,628,647,667,688,708,727,747,767,787,807,827,847,867,888,907,927,947,967,987,1007,1027,1047,1068,1087,1107,1127,1147,1167,1187,1207,1227,1247,1267,1287,1307,1327,1347,1367,1387,1407,1427,1448,1467,1488,1507,1527,1547,1567,1588,1607,1627,1646,1667,1687,1707,1727,1747,1767,1787,1807,1827,1847],"xSR":741.5,"ySR":469.95,"xT1":424.9,"yT1":0,"xT2":1058.1,"yT2":0,"toosoon":0,"cond_shown":"equaldotsize","ratio_trial":750,"smaller_num":"3","larger_num":"4","correct_side":2,"subjID":"lunagonzalez20","gender":"1","age":"10","school":"6"},{"start_time":1551900677851,"click_time":1551900694620,"finger_time":1551900679120,"fix_duration":250,"trial":21,"RT":1269,"MT":15500,"sideResp":2,"stimulus":"img/900/randomdotsizeEA/R/13_Ratio_900_L_18_R_20.png","xmouse":[782,782,782,782,782,782,782,782,782,782,782,782,782,782,782,782,782,782,782,782,782,782,782,782,782,782,782,782,782,782,782,782,782,782,782,782,782,782,782,782,782,782,782,782,782,782,782,782,782,782,782,782,782,781,781,781,781,781,783,788,791,797,803,811,837,860,892,923,946,962,963,965,966,967,972,973,974,975,976,977,977,977,977,978,979,979,980,981,983,986,989,991,991,992,993,993,993,993,992,989,986,985,983,982,982,982,982,982,982,982,982,982,981,981,978,975,974,973,971,961,958,956,952,951,949,945,941,937,934,928,927,926,925,923,919,915,910,904,895,873,870,865,862,859,858,856,856,854,852,843,832,825,818,810,802,802,801,801,801,800,799,798,797,795,792,790,785,778,773,762,755,745,739,734,725,720,717,713,711,705,697,691,684,683,677,675,671,666,664,661,659,656,650,639,627,615,615,615,615,615,614,614,614,614,614,614,610,601,591,575,570,569,569,569,569,569,569,569,569,569,572,577,582,586,593,595,596,597,597,600,601,606,608,613,620,620,620,620,620,620,620,621,621,622,624,629,634,642,661,695,863,942,999,1025,1040,1042,1042,1042,1042,1042,1043,1043,1042,1037,1010,992,977,966,952,909,871,810,779,751,730,705,691,682,678,677,677,677,677,677,677,677,677,679,689,707,727,733,735,739,745,749,757,768,774,785,792,796,798,798,798,798,798,798,792,792,764,757,749,744,729,721,715,711,709,702,699,698,697,697,697,697,713,733,752,796,821,875,916,941,961,964,965,965,965,965,944,927,920,914,904,898,891,880,872,846,837,828,818,800,779,734,718,709,698,692,690,690,690,690,691,712,726,741,753,768,807,817,824,829,833,843,847,850,853,856,859,859,859,859,859,859,859,859,858,858,846,838,827,817,808,771,747,731,725,721,717,717,717,717,717,717,721,731,757,785,813,828,849,876,912,919,923,927,928,928,914,903,900,893,874,863,849,842,834,832,813,802,792,786,782,778,777,777,777,777,777,780,786,794,803,820,828,840,854,867,879,882,886,893,903,911,912,912,912,912,912,909,905,901,898,891,888,885,878,862,837,829,819,803,783,755,746,741,736,734,733,733,733,732,732,732,732,732,732,732,732,732,732,732,732,732,732,732,732,732,732,732,732,732,732,732,732,732,732,732,732,732,732,732,732,732,732,732,732,732,732,732,732,732,732,732,732,732,732,732,732,732,732,732,732,732,732,732,732,732,732,732,732,732,732,732,741,757,770,790,828,843,859,872,877,879,879,879,879,880,880,880,880,880,873,858,831,816,804,794,776,765,757,750,743,723,704,691,679,669,666,666,666,666,674,692,710,716,735,746,779,803,825,843,854,863,867,869,874,877,882,882,882,882,882,882,880,878,872,866,842,822,797,772,748,710,693,666,642,609,553,542,542,542,541,543,553,565,582,607,658,683,710,737,759,811,833,852,866,881,897,899,901,905,909,915,917,920,921,922,923,923,924,924,924,924,924,924,924,924,924,924,924,924,924,924,924,924,924,924,924,924,924,924,924,924,924,924,924,924,924,924,924,924,924,924,924,924,924,924,924,924,924,924,924,924,924,924,924,924,924,924,924,924,924,924,924,924,924,924,924,924,924,924,924,924,924,924,924,924,924,924,924,924,924,924,924,924,924,924,924,924,924,924,924,924,924,924,924,924,924,924,924,924,918,908,902,901,900,898,892,890,885,882,879,878,874,874,870,865,860,853,850,844,836,825,797,787,783,783,783,785,856,996,1229,1501,1501,1501,1501,1501,1501,1501,1501,1501,1501,1501,1501,1501,1501,1501,1501,1501,1501,1501,1501,1501,1501,1501,1501,1501,1501,1501,1501,1578,1556,1485,1394,1365,1329,1261,1166,907,793,741,727,724,724,724,724,723,723,723,723,723,723,723,723,724,757,860,1041,1453,1453,1453,1453,1453,1492,1322,1120],"ymouse":[556,556,556,556,556,556,556,556,556,556,556,556,556,556,556,556,556,556,556,556,556,556,556,556,556,556,556,556,556,556,556,556,556,556,556,556,556,556,556,556,556,556,556,556,556,556,556,556,556,556,556,556,556,555,548,544,540,538,533,522,515,499,483,465,413,368,305,264,237,206,198,191,187,178,167,165,163,161,161,159,159,159,159,158,157,157,156,155,154,152,149,148,147,146,144,142,139,137,134,128,124,123,120,119,119,119,119,119,119,119,119,119,118,118,117,117,116,116,115,113,112,111,110,109,109,109,109,108,107,107,106,106,105,105,103,101,100,98,96,91,91,88,88,87,86,86,86,86,85,82,78,76,72,69,66,65,65,65,65,65,64,63,62,62,60,60,60,59,57,56,55,54,53,52,51,50,50,49,48,48,48,47,47,47,47,46,46,45,45,44,44,44,44,44,44,44,44,44,44,44,44,44,44,44,44,44,44,44,44,44,44,44,44,44,44,44,44,44,44,44,43,42,42,41,40,39,39,39,39,38,38,38,37,36,35,35,35,35,35,35,35,35,35,35,35,34,34,32,30,26,22,22,22,22,22,22,22,22,22,22,22,22,22,22,22,22,22,20,19,13,8,5,5,5,8,27,40,53,59,59,59,59,59,59,59,59,59,60,59,57,55,53,53,52,52,54,59,68,75,86,91,94,96,97,97,97,97,97,94,94,76,75,75,75,75,75,75,75,75,75,75,75,75,75,75,75,76,76,76,77,82,83,83,84,86,87,88,88,88,88,88,88,88,88,88,88,88,88,88,88,85,83,79,75,69,59,56,54,53,52,52,52,52,52,52,54,56,58,60,60,64,65,66,66,66,67,68,68,68,69,70,70,70,70,70,70,70,70,70,70,70,70,70,70,70,70,70,70,70,70,70,70,70,70,70,70,70,70,69,66,66,66,66,66,66,66,68,68,69,69,68,66,66,66,66,66,66,66,66,66,66,66,66,66,66,66,66,66,66,66,66,66,66,66,66,66,66,66,66,66,66,66,66,67,69,70,71,71,71,71,71,71,71,70,70,68,68,68,67,66,65,65,64,63,62,57,56,55,55,55,55,55,55,55,55,55,55,55,55,55,55,55,55,55,55,55,55,55,55,55,55,55,55,55,55,55,55,55,55,55,55,55,55,55,55,55,55,55,55,55,55,55,55,55,55,55,55,55,55,55,55,55,55,55,55,55,55,55,55,55,55,55,55,55,55,55,53,51,49,46,40,38,36,34,32,32,32,32,32,32,32,32,32,32,32,32,32,32,32,32,32,32,32,32,32,32,32,32,32,32,32,32,32,32,38,45,47,47,47,47,47,47,47,46,45,45,45,45,45,45,45,45,45,45,45,45,45,45,45,44,44,44,44,46,50,52,52,52,52,52,52,53,53,53,53,57,57,57,57,57,57,57,57,57,57,57,59,64,68,71,74,74,74,74,73,71,69,68,67,66,65,65,65,65,65,65,65,65,65,64,64,64,64,64,64,64,64,64,64,64,64,64,64,64,64,64,64,64,64,64,64,64,64,64,64,64,64,64,64,64,64,64,64,64,64,64,64,64,64,64,64,64,64,64,64,64,64,64,64,64,64,64,64,64,64,64,64,64,64,64,64,64,64,64,64,64,64,64,64,64,64,64,64,64,64,64,64,64,64,64,64,64,64,64,64,62,61,61,61,60,59,57,57,57,56,56,55,54,53,53,51,50,49,48,47,46,41,40,39,39,39,39,39,37,30,28,28,28,28,28,28,28,28,28,28,28,28,28,28,28,28,28,28,28,28,28,28,28,28,28,28,28,28,31,34,44,53,53,53,53,53,53,53,54,57,58,58,58,58,58,58,58,58,58,58,58,58,58,58,58,58,58,58,58,58,58,58,58,58],"timestamp_mouse":[10,40,49,69,89,109,129,149,169,189,209,229,249,269,290,309,329,349,369,389,410,429,449,470,489,511,530,549,569,589,609,630,649,669,689,709,730,749,769,789,810,829,849,869,890,909,929,949,969,989,1009,1029,1049,1070,1089,1109,1129,1149,1169,1189,1209,1229,1250,1269,1290,1309,1329,1350,1369,1389,1409,1429,1449,1469,1489,1510,1529,1550,1570,1589,1609,1629,1649,1670,1690,1710,1730,1750,1769,1789,1809,1829,1850,1869,1890,1910,1930,1949,1969,1989,2009,2029,2049,2070,2090,2109,2129,2150,2169,2189,2209,2229,2249,2269,2289,2309,2329,2349,2369,2389,2409,2429,2449,2469,2489,2510,2529,2549,2570,2589,2610,2629,2649,2669,2689,2709,2730,2750,2769,2791,2810,2829,2849,2869,2889,2910,2930,2950,2969,2989,3009,3029,3049,3069,3089,3109,3130,3149,3169,3190,3209,3229,3249,3269,3289,3309,3329,3349,3369,3389,3410,3429,3449,3470,3489,3509,3530,3549,3569,3590,3609,3629,3649,3669,3689,3709,3730,3749,3770,3789,3810,3829,3849,3870,3889,3909,3929,3950,3969,3989,4009,4029,4049,4069,4090,4109,4130,4149,4169,4190,4210,4230,4250,4269,4289,4309,4330,4349,4370,4390,4409,4429,4449,4469,4490,4509,4530,4549,4569,4590,4611,4629,4649,4669,4690,4710,4729,4749,4769,4790,4809,4829,4849,4869,4889,4909,4929,4949,4969,4989,5009,5029,5049,5070,5089,5110,5130,5149,5169,5190,5209,5229,5249,5269,5290,5309,5329,5350,5369,5390,5410,5429,5449,5469,5490,5509,5529,5550,5569,5589,5610,5630,5649,5669,5690,5709,5729,5749,5769,5790,5809,5829,5849,5869,5889,5909,5930,5949,5969,5990,6009,6029,6049,6070,6089,6110,6129,6150,6170,6190,6209,6229,6249,6270,6290,6309,6329,6350,6369,6390,6409,6429,6449,6469,6489,6509,6530,6550,6569,6590,6608,6630,6649,6669,6690,6709,6729,6749,6769,6789,6809,6829,6849,6869,6891,6909,6929,6949,6969,6991,7009,7030,7049,7070,7090,7109,7130,7149,7169,7190,7209,7229,7249,7269,7289,7309,7330,7349,7369,7390,7409,7429,7449,7469,7490,7509,7530,7549,7569,7591,7609,7629,7649,7669,7690,7709,7729,7749,7769,7789,7809,7830,7849,7869,7889,7909,7930,7949,7969,7990,8009,8029,8049,8069,8090,8109,8130,8149,8169,8189,8209,8229,8249,8270,8291,8309,8329,8349,8369,8389,8409,8430,8449,8469,8491,8509,8530,8549,8569,8590,8609,8629,8649,8669,8689,8709,8729,8749,8769,8789,8809,8829,8849,8869,8890,8909,8929,8950,8969,8989,9009,9029,9049,9069,9089,9109,9129,9149,9169,9189,9210,9229,9249,9269,9289,9309,9330,9350,9369,9389,9409,9430,9449,9469,9489,9509,9529,9549,9570,9589,9609,9629,9650,9670,9689,9710,9729,9749,9769,9789,9810,9829,9849,9869,9889,9909,9929,9949,9969,9989,10009,10029,10051,10069,10089,10110,10129,10149,10169,10189,10210,10229,10249,10269,10289,10309,10329,10349,10369,10389,10409,10429,10449,10469,10490,10509,10529,10549,10569,10589,10609,10629,10649,10669,10689,10710,10729,10750,10769,10789,10811,10830,10849,10869,10889,10910,10929,10949,10969,10989,11009,11029,11049,11069,11089,11109,11129,11149,11169,11189,11209,11229,11249,11269,11289,11309,11329,11349,11369,11389,11409,11430,11449,11470,11490,11510,11530,11549,11570,11589,11609,11629,11649,11669,11689,11709,11729,11749,11770,11789,11809,11830,11849,11869,11889,11910,11930,11949,11969,11990,12009,12029,12049,12069,12089,12109,12129,12149,12169,12189,12209,12229,12249,12270,12289,12309,12330,12349,12370,12390,12410,12429,12450,12469,12489,12509,12529,12549,12569,12589,12610,12629,12650,12669,12689,12710,12729,12749,12770,12789,12810,12829,12850,12869,12889,12910,12929,12950,12969,12989,13010,13029,13049,13069,13089,13110,13129,13150,13169,13189,13209,13229,13250,13269,13289,13309,13329,13351,13369,13389,13410,13430,13449,13470,13490,13509,13531,13550,13569,13590,13609,13630,13649,13669,13689,13709,13729,13749,13769,13789,13809,13829,13849,13869,13889,13909,13929,13949,13969,13989,14009,14030,14049,14069,14089,14110,14129,14149,14169,14190,14209,14229,14249,14269,14289,14310,14330,14349,14369,14389,14410,14429,14449,14470,14489,14509,14530,14549,14570,14589,14610,14629,14649,14669,14689,14710,14729,14749,14769,14789,14810,14830,14849,14869,14889,14911,14929,14949,14969,14989,15009,15029,15049,15069,15089,15109,15129,15149,15169,15190,15210,15229,15250,15269,15289,15310,15329,15349,15369,15389,15410,15429,15449,15470,15489,15510,15529,15549,15569,15589,15610,15629,15649,15669,15689,15710,15729,15749,15769,15789,15809,15829,15849,15870,15889,15910,15929,15949,15969,15989,16010,16030,16049,16069,16090,16109,16129,16149,16169,16189,16210,16229,16250,16269,16289,16311,16329,16349,16369,16389,16410,16429,16449,16469,16489,16510,16531,16550,16569,16589,16609,16629,16649,16669,16689,16709,16729,16749,16769],"xSR":741.5,"ySR":469.95,"xT1":424.9,"yT1":0,"xT2":1058.1,"yT2":0,"toosoon":0,"cond_shown":"randomdotsizeEA","ratio_trial":900,"smaller_num":"18","larger_num":"20","correct_side":2,"subjID":"lunagonzalez20","gender":"1","age":"10","school":"6"},{"start_time":1551900697985,"click_time":1551900699641,"finger_time":1551900699100,"fix_duration":843.7859488570389,"trial":22,"RT":1115,"MT":541,"sideResp":2,"stimulus":"img/750/equaldotsize/R/12_Ratio_750_L_3_R_4.png","xmouse":[823,823,823,823,823,823,823,823,823,823,823,823,823,823,823,823,823,823,823,823,823,823,823,823,823,823,823,823,823,823,823,823,823,823,823,823,823,823,823,823,823,823,823,823,823,823,823,823,823,823,823,823,823,823,823,847,1050,1228,1411,1555,1555,1555,1555,1555,1555,1555,1555,1555,1555,1555,1555,1555,1555,1555,1555,1434,1364,1315,1258,1218,1175,1160,1146],"ymouse":[529,529,529,529,529,529,529,529,529,529,529,529,529,529,529,529,529,529,529,529,529,529,529,529,529,529,529,529,529,529,529,529,529,529,529,529,529,529,529,529,529,529,529,529,529,529,529,529,529,529,529,529,529,529,529,515,341,215,99,20,20,20,20,20,20,20,20,20,20,20,20,20,20,20,20,5,32,44,52,56,57,56,53],"timestamp_mouse":[15,42,55,75,95,115,135,155,175,196,215,235,255,275,295,315,336,355,375,395,415,436,455,475,497,515,535,555,575,595,616,636,655,675,695,715,736,755,775,795,815,835,856,875,895,915,935,955,975,995,1015,1035,1055,1075,1095,1115,1135,1155,1175,1195,1215,1235,1255,1275,1295,1316,1335,1355,1375,1395,1415,1435,1456,1475,1495,1516,1535,1556,1575,1596,1615,1635,1655],"xSR":741.5,"ySR":469.95,"xT1":424.9,"yT1":0,"xT2":1058.1,"yT2":0,"toosoon":0,"cond_shown":"equaldotsize","ratio_trial":750,"smaller_num":"3","larger_num":"4","correct_side":2,"subjID":"lunagonzalez20","gender":"1","age":"10","school":"6"},{"start_time":1551900700794,"click_time":1551900705520,"finger_time":1551900705100,"fix_duration":291.236880776138,"trial":23,"RT":4306,"MT":420,"sideResp":2,"stimulus":"img/900/equaldotsize/R/11_Ratio_900_L_18_R_20.png","xmouse":[793,793,793,793,793,793,793,793,793,793,793,793,793,793,793,793,793,793,793,793,793,793,793,793,793,793,793,793,793,793,793,793,793,793,793,793,793,793,793,793,793,793,793,793,792,792,793,794,794,794,794,795,795,795,795,795,795,795,795,795,795,795,795,795,795,795,795,795,795,795,795,795,795,795,795,795,795,795,795,795,795,795,795,795,795,795,795,795,795,795,795,795,795,795,795,795,795,795,795,795,795,795,795,795,795,795,795,795,795,795,795,795,795,795,795,795,795,795,795,795,795,795,795,795,795,795,795,795,795,795,795,795,795,795,795,795,795,795,795,795,795,795,795,795,795,795,795,795,795,795,795,795,795,795,795,795,795,795,795,795,795,795,795,795,795,795,795,795,795,795,795,795,795,795,795,795,795,795,795,795,795,795,795,795,795,795,795,795,795,795,795,795,795,795,795,795,795,795,795,795,795,795,795,795,795,795,795,795,795,795,795,795,801,804,820,853,873,889,907,924,942,949,961,972,990,1005,1006,1006,1006,1006,1009,1010,1013,1022,1030,1054,1067],"ymouse":[527,527,527,527,527,527,527,527,527,527,527,527,527,527,527,527,527,527,527,527,527,527,527,527,527,527,527,527,527,527,527,527,527,527,527,527,527,527,527,527,527,527,527,527,526,521,518,516,516,515,515,514,514,514,514,514,514,514,514,514,514,514,514,514,514,514,514,514,514,514,514,514,514,514,514,514,514,514,514,514,514,514,514,514,514,515,515,515,515,515,515,515,515,515,515,515,515,515,515,515,515,515,515,515,515,515,515,515,515,515,515,515,515,515,515,515,515,515,515,515,515,515,515,515,515,515,515,515,515,515,515,515,515,515,515,515,515,515,515,515,515,515,515,515,515,515,515,515,515,515,515,515,515,515,515,515,515,515,515,515,515,515,515,515,515,515,515,515,515,515,515,515,515,515,515,515,515,515,515,515,515,515,515,515,515,515,515,515,515,515,515,515,515,515,515,515,515,515,515,515,515,515,515,515,515,515,515,515,515,515,515,515,509,504,472,401,355,312,267,229,171,148,127,109,86,72,71,71,71,71,71,71,71,70,70,67,64],"timestamp_mouse":[12,32,46,67,87,106,127,147,166,186,206,227,246,266,286,306,326,346,366,386,406,426,446,466,487,506,526,546,566,586,606,626,646,666,686,706,726,747,766,786,806,826,846,866,887,907,926,946,966,986,1006,1026,1046,1066,1086,1106,1126,1146,1166,1187,1206,1226,1246,1267,1286,1306,1326,1346,1366,1386,1407,1426,1446,1466,1486,1506,1526,1546,1566,1586,1606,1626,1646,1667,1686,1706,1726,1746,1766,1786,1806,1826,1846,1866,1886,1906,1927,1946,1966,1986,2006,2026,2046,2066,2087,2106,2126,2147,2166,2186,2206,2226,2246,2266,2286,2306,2326,2347,2366,2386,2406,2426,2446,2466,2486,2507,2526,2546,2566,2586,2606,2626,2646,2667,2686,2707,2726,2746,2766,2786,2807,2826,2846,2866,2886,2907,2926,2946,2966,2987,3006,3026,3046,3066,3086,3107,3126,3146,3166,3186,3207,3226,3246,3266,3286,3307,3326,3346,3366,3387,3406,3426,3446,3466,3487,3506,3527,3547,3566,3586,3606,3626,3646,3666,3686,3706,3726,3746,3766,3786,3807,3826,3846,3866,3886,3907,3926,3946,3966,3986,4007,4027,4046,4066,4086,4107,4126,4146,4166,4186,4206,4226,4246,4266,4287,4306,4327,4346,4366,4386,4406,4426,4446,4467,4487,4506,4526,4546,4566,4586,4607,4627,4646,4666,4686,4706,4726],"xSR":741.5,"ySR":469.95,"xT1":424.9,"yT1":0,"xT2":1058.1,"yT2":0,"toosoon":0,"cond_shown":"equaldotsize","ratio_trial":900,"smaller_num":"18","larger_num":"20","correct_side":2,"subjID":"lunagonzalez20","gender":"1","age":"10","school":"6"},{"start_time":1551900706792,"click_time":1551900707801,"finger_time":1551900707540,"fix_duration":250,"trial":24,"RT":748,"MT":261,"sideResp":1,"stimulus":"img/750/equaldotanddens/L/13_Ratio_750_L_8_R_6.png","xmouse":[819,819,819,819,819,819,819,819,819,819,819,819,819,819,819,819,819,819,819,819,819,819,819,819,819,819,819,819,819,819,819,819,819,819,821,824,830,835,835,835,831,826,815,802,786,765,724,696,659,617,516],"ymouse":[505,505,505,505,505,505,505,505,505,505,505,505,505,505,505,505,505,505,505,505,505,505,505,505,505,505,505,505,505,505,505,505,505,505,502,488,472,455,437,425,402,383,354,332,306,275,220,187,149,116,64],"timestamp_mouse":[10,28,49,68,88,109,128,148,168,188,208,229,248,268,289,308,328,348,368,388,408,428,449,468,488,509,528,548,568,588,608,628,649,668,688,708,728,748,769,788,809,829,848,868,888,908,928,948,969,988,1009],"xSR":741.5,"ySR":469.95,"xT1":424.9,"yT1":0,"xT2":1058.1,"yT2":0,"toosoon":0,"cond_shown":"equaldotanddens","ratio_trial":750,"smaller_num":"6","larger_num":"8","correct_side":1,"subjID":"lunagonzalez20","gender":"1","age":"10","school":"6"},{"start_time":1551900709657,"click_time":1551900711141,"finger_time":1551900710860,"fix_duration":1015.3403134358703,"trial":25,"RT":1203,"MT":281,"sideResp":1,"stimulus":"img/500/randomdotsizeEA/L/7_Ratio_500_L_10_R_5.png","xmouse":[787,787,787,787,787,787,787,787,787,787,787,787,787,787,787,787,787,787,787,787,787,787,787,787,787,787,787,787,787,787,787,787,787,787,787,787,787,787,787,787,787,787,787,787,787,787,787,787,787,787,787,787,787,787,787,787,787,783,773,764,754,745,730,724,719,711,702,689,636,602,566,543,524,517,511],"ymouse":[542,542,542,542,542,542,542,542,542,542,542,542,542,542,542,542,542,542,542,542,542,542,542,542,542,542,542,542,542,542,542,542,542,542,542,542,542,542,542,542,542,542,542,542,542,542,542,542,542,542,542,542,542,542,542,542,539,523,494,471,447,426,394,378,365,352,338,320,251,213,172,143,113,100,89],"timestamp_mouse":[9,24,43,72,83,103,123,144,163,184,205,225,243,264,283,304,323,344,363,383,403,424,443,463,484,503,523,543,563,583,603,624,643,663,684,703,723,743,763,783,803,823,843,863,883,903,923,944,964,983,1003,1023,1044,1063,1083,1103,1123,1143,1163,1183,1203,1224,1244,1263,1283,1304,1323,1344,1363,1383,1403,1423,1445,1463,1484],"xSR":741.5,"ySR":469.95,"xT1":424.9,"yT1":0,"xT2":1058.1,"yT2":0,"toosoon":0,"cond_shown":"randomdotsizeEA","ratio_trial":500,"smaller_num":"5","larger_num":"10","correct_side":1,"subjID":"lunagonzalez20","gender":"1","age":"10","school":"6"},{"start_time":1551900713792,"click_time":1551900715920,"finger_time":1551900715020,"fix_duration":250,"trial":26,"RT":1228,"MT":900,"sideResp":1,"stimulus":"img/250/equaldotanddens/L/14_Ratio_250_L_12_R_3.png","xmouse":[790,790,790,790,790,790,790,790,790,790,790,790,790,790,790,790,790,790,790,790,790,790,790,790,790,790,790,790,790,790,790,790,790,790,790,790,790,790,790,790,790,790,790,790,790,790,790,790,790,790,790,790,790,790,790,790,783,777,769,760,753,738,729,725,723,722,716,713,708,698,693,689,686,676,663,650,627,615,611,595,586,586,586,586,586,586,586,586,586,586,586,393,391,391,394,396,402,410,413,414,414,416,417,417,418,419,426],"ymouse":[554,554,554,554,554,554,554,554,554,554,554,554,554,554,554,554,554,554,554,554,554,554,554,554,554,554,554,554,554,554,554,554,554,554,554,554,554,554,554,554,554,554,554,554,554,554,554,554,554,554,554,554,554,554,554,552,527,511,497,484,475,439,404,379,363,347,307,296,287,274,269,266,264,257,252,248,234,200,178,74,31,31,31,31,31,31,31,31,31,31,31,32,46,54,58,60,60,60,60,60,60,59,59,59,59,59,58],"timestamp_mouse":[12,41,48,68,88,108,129,148,168,188,208,228,248,268,288,308,328,348,368,388,408,429,448,469,489,508,529,548,568,589,608,629,648,668,688,708,728,749,768,788,809,828,848,868,888,908,929,948,968,988,1008,1028,1048,1068,1088,1109,1128,1148,1168,1188,1209,1228,1248,1268,1289,1308,1329,1349,1368,1389,1408,1428,1448,1469,1488,1509,1528,1548,1568,1588,1608,1629,1648,1668,1688,1708,1728,1748,1768,1789,1809,1828,1848,1869,1888,1908,1928,1948,1968,1988,2008,2028,2048,2069,2088,2108,2128],"xSR":741.5,"ySR":469.95,"xT1":424.9,"yT1":0,"xT2":1058.1,"yT2":0,"toosoon":0,"cond_shown":"equaldotanddens","ratio_trial":250,"smaller_num":"3","larger_num":"12","correct_side":1,"subjID":"lunagonzalez20","gender":"1","age":"10","school":"6"},{"start_time":1551900717959,"click_time":1551900719080,"finger_time":1551900718700,"fix_duration":1177.7359328085265,"trial":27,"RT":741,"MT":380,"sideResp":2,"stimulus":"img/250/randomdotsizeEA/R/4_Ratio_250_L_3_R_12.png","xmouse":[830,830,827,827,824,820,819,817,812,810,809,808,808,808,808,808,808,808,808,808,808,808,808,808,808,808,808,808,808,808,808,808,808,808,809,813,819,824,831,848,856,863,874,898,907,915,930,951,969,1006,1012,1016,1019,1026,1057,1075,1080],"ymouse":[519,519,519,519,519,519,519,519,519,519,519,519,519,519,519,519,519,519,519,519,519,519,519,519,519,519,519,519,519,519,519,519,519,515,505,491,473,454,432,372,347,322,298,261,250,241,230,219,208,180,173,165,160,150,118,104,97],"timestamp_mouse":[9,21,41,61,81,101,121,141,162,182,202,221,241,261,282,301,322,341,361,381,402,422,441,461,481,501,521,542,561,581,601,621,641,661,681,701,722,741,762,782,802,822,841,863,881,901,922,941,962,981,1001,1022,1041,1062,1081,1101,1121],"xSR":741.5,"ySR":469.95,"xT1":424.9,"yT1":0,"xT2":1058.1,"yT2":0,"toosoon":0,"cond_shown":"randomdotsizeEA","ratio_trial":250,"smaller_num":"3","larger_num":"12","correct_side":2,"subjID":"lunagonzalez20","gender":"1","age":"10","school":"6"},{"start_time":1551900721036,"click_time":1551900722481,"finger_time":1551900721541,"fix_duration":1113.7126292007158,"trial":28,"RT":505,"MT":940,"sideResp":2,"stimulus":"img/900/randomdotsizeEA/R/9_Ratio_900_L_18_R_20.png","xmouse":[796,796,796,796,796,796,796,796,796,796,796,796,796,796,796,796,796,796,796,796,796,796,796,796,801,812,813,815,815,816,816,816,816,816,816,816,816,816,816,816,816,816,816,816,816,816,817,822,828,832,840,842,843,844,844,844,844,845,845,845,846,847,849,852,855,866,876,889,903,923,1004,1073,1153],"ymouse":[526,526,526,526,526,526,526,526,526,526,526,526,526,526,526,526,526,526,526,526,526,526,526,519,501,461,448,438,432,427,425,425,425,425,425,425,425,425,425,425,425,425,425,425,425,425,424,416,409,399,385,380,377,375,374,374,374,373,373,372,370,367,364,359,354,333,315,294,273,245,160,112,64],"timestamp_mouse":[10,36,44,66,85,105,124,144,164,184,204,226,245,264,284,304,325,345,364,385,405,424,444,465,485,505,524,544,564,585,604,624,644,664,684,704,724,744,764,784,804,825,844,864,884,904,924,945,964,984,1004,1024,1044,1064,1084,1104,1124,1144,1164,1184,1205,1225,1244,1264,1284,1304,1324,1344,1364,1384,1404,1425,1444],"xSR":741.5,"ySR":469.95,"xT1":424.9,"yT1":0,"xT2":1058.1,"yT2":0,"toosoon":0,"cond_shown":"randomdotsizeEA","ratio_trial":900,"smaller_num":"18","larger_num":"20","correct_side":2,"subjID":"lunagonzalez20","gender":"1","age":"10","school":"6"},{"start_time":1551900723957,"click_time":1551900725420,"finger_time":1551900725041,"fix_duration":375.25037799062045,"trial":29,"RT":1084,"MT":379,"sideResp":1,"stimulus":"img/750/randomdotsizeEA/L/1_Ratio_750_L_20_R_15.png","xmouse":[813,813,813,813,813,813,813,813,813,813,813,813,813,813,813,813,813,813,813,813,813,813,813,813,813,813,813,813,813,813,813,813,813,813,813,813,813,813,813,813,813,813,813,813,813,812,812,812,812,812,812,812,812,812,795,788,772,765,758,747,743,736,728,720,709,676,656,635,612,564,539,507,489,478],"ymouse":[497,497,497,497,497,497,497,497,497,497,497,497,497,497,497,497,497,497,497,497,497,497,497,497,497,497,497,497,497,497,497,497,497,497,497,497,497,497,497,497,497,497,497,497,497,497,497,497,497,497,497,497,493,489,447,435,406,392,377,350,340,325,312,296,279,233,212,195,182,152,140,121,108,97],"timestamp_mouse":[9,24,45,64,84,104,123,144,163,183,203,224,244,264,284,305,323,343,363,383,403,423,443,464,483,503,523,543,563,585,603,625,643,664,683,703,724,744,763,783,803,823,844,863,883,903,923,943,963,983,1003,1023,1043,1063,1084,1104,1123,1145,1163,1183,1204,1223,1243,1264,1283,1304,1323,1343,1363,1384,1403,1425,1444,1463],"xSR":741.5,"ySR":469.95,"xT1":424.9,"yT1":0,"xT2":1058.1,"yT2":0,"toosoon":0,"cond_shown":"randomdotsizeEA","ratio_trial":750,"smaller_num":"15","larger_num":"20","correct_side":1,"subjID":"lunagonzalez20","gender":"1","age":"10","school":"6"},{"start_time":1551900727291,"click_time":1551900728560,"finger_time":1551900727980,"fix_duration":1288.1956364211915,"trial":30,"RT":689,"MT":580,"sideResp":2,"stimulus":"img/250/equaldotsize/R/4_Ratio_250_L_3_R_12.png","xmouse":[791,791,791,791,791,791,791,791,791,791,791,791,791,791,791,791,791,791,791,791,791,791,791,791,791,791,791,791,791,791,791,791,791,798,819,841,862,896,921,942,954,966,974,984,989,995,1003,1018,1018,1017,1017,1017,1019,1022,1026,1029,1034,1046,1048,1051,1052,1053,1057,1060],"ymouse":[551,551,551,551,551,551,551,551,551,551,551,551,551,551,551,551,551,551,551,551,551,551,551,551,551,551,551,551,551,551,551,551,537,515,469,427,393,341,317,300,286,272,262,247,240,232,223,206,204,202,200,195,173,159,146,135,126,107,104,101,100,98,93,89],"timestamp_mouse":[11,29,49,69,89,109,129,149,169,189,209,230,250,269,289,309,329,349,369,389,409,430,449,469,489,509,529,550,570,590,609,630,649,669,689,709,729,751,769,789,810,830,850,869,890,910,929,951,969,989,1010,1030,1051,1069,1089,1109,1130,1151,1169,1190,1209,1230,1251,1269],"xSR":741.5,"ySR":469.95,"xT1":424.9,"yT1":0,"xT2":1058.1,"yT2":0,"toosoon":0,"cond_shown":"equaldotsize","ratio_trial":250,"smaller_num":"3","larger_num":"12","correct_side":2,"subjID":"lunagonzalez20","gender":"1","age":"10","school":"6"},{"start_time":1551900730589,"click_time":1551900732100,"finger_time":1551900731220,"fix_duration":1206.563711793187,"trial":31,"RT":631,"MT":880,"sideResp":2,"stimulus":"img/500/equaldotsize/R/3_Ratio_500_L_10_R_20.png","xmouse":[788,788,788,788,788,788,788,788,788,788,788,788,788,788,788,788,788,788,788,788,788,788,788,788,788,788,788,788,788,788,796,817,853,889,904,918,931,946,962,967,973,988,1002,1019,1021,1022,1022,1022,1025,1029,1030,1034,1038,1066,1087,1096,1098,1099,1099,1100,1100,1100,1101,1105,1112,1115,1117,1118,1120,1120,1120,1120,1120,1120,1120,1119],"ymouse":[487,487,487,487,487,487,487,487,487,487,487,487,487,487,487,487,487,487,487,487,487,487,487,487,487,487,487,487,487,487,479,461,430,391,371,352,331,312,275,258,241,220,203,181,176,173,172,170,163,155,152,146,142,126,117,113,111,110,109,109,109,109,108,107,105,104,104,104,104,104,104,104,104,104,101,96],"timestamp_mouse":[11,31,51,72,93,112,132,151,171,192,211,231,251,271,291,311,331,352,371,392,411,431,451,473,492,511,531,551,571,591,611,631,651,671,691,712,731,752,771,791,811,831,852,871,891,911,931,952,971,993,1011,1032,1051,1071,1091,1111,1131,1151,1171,1191,1211,1231,1251,1271,1291,1312,1331,1351,1373,1392,1412,1432,1451,1472,1491,1511],"xSR":741.5,"ySR":469.95,"xT1":424.9,"yT1":0,"xT2":1058.1,"yT2":0,"toosoon":0,"cond_shown":"equaldotsize","ratio_trial":500,"smaller_num":"10","larger_num":"20","correct_side":2,"subjID":"lunagonzalez20","gender":"1","age":"10","school":"6"},{"start_time":1551900733513,"click_time":1551900734381,"finger_time":1551900734220,"fix_duration":250,"trial":32,"RT":707,"MT":161,"sideResp":2,"stimulus":"img/900/equaldotsize/L/2_Ratio_900_L_20_R_18.png","xmouse":[798,798,798,798,798,798,798,798,798,798,798,798,798,798,798,798,798,798,798,798,798,798,797,797,797,797,797,797,797,797,797,797,797,803,819,848,877,954,997,1026,1057,1086,1107,1129],"ymouse":[536,536,536,536,536,536,536,536,536,536,536,536,536,536,536,536,536,536,536,536,536,536,535,535,535,535,535,535,535,535,535,535,535,525,502,463,419,326,275,231,192,157,131,98],"timestamp_mouse":[9,27,48,67,87,107,129,147,168,187,208,228,247,267,287,307,328,347,367,387,408,427,447,467,488,508,527,547,568,588,608,627,647,668,687,707,727,748,767,788,807,827,847,868],"xSR":741.5,"ySR":469.95,"xT1":424.9,"yT1":0,"xT2":1058.1,"yT2":0,"toosoon":0,"cond_shown":"equaldotsize","ratio_trial":900,"smaller_num":"18","larger_num":"20","correct_side":1,"subjID":"lunagonzalez20","gender":"1","age":"10","school":"6"},{"start_time":1551900739396,"click_time":1551900740280,"finger_time":1551900740080,"fix_duration":354.43582122046877,"trial":33,"RT":684,"MT":200,"sideResp":2,"stimulus":"img/250/equaldotsize/R/13_Ratio_250_L_2_R_8.png","xmouse":[816,816,816,816,816,816,816,816,816,816,816,816,816,816,816,816,816,816,816,816,816,816,816,816,816,816,816,816,816,817,819,821,823,826,836,843,856,872,893,940,967,995,1032,1077,1136],"ymouse":[511,512,512,512,512,512,512,512,512,512,512,512,512,512,512,512,512,512,512,512,512,512,512,512,512,512,512,512,513,513,512,506,499,487,445,423,390,361,331,267,233,200,164,125,58],"timestamp_mouse":[4,26,44,65,84,105,125,145,166,184,205,224,244,264,284,305,324,344,364,386,405,425,445,464,484,505,525,544,565,586,604,624,644,664,684,705,724,744,765,785,804,824,845,865,884],"xSR":741.5,"ySR":469.95,"xT1":424.9,"yT1":0,"xT2":1058.1,"yT2":0,"toosoon":0,"cond_shown":"equaldotsize","ratio_trial":250,"smaller_num":"2","larger_num":"8","correct_side":2,"subjID":"lunagonzalez20","gender":"1","age":"10","school":"6"},{"start_time":1551900742395,"click_time":1551900743481,"finger_time":1551900743280,"fix_duration":1253.429357939463,"trial":34,"RT":885,"MT":201,"sideResp":2,"stimulus":"img/250/randomdotsizeEA/R/13_Ratio_250_L_2_R_8.png","xmouse":[769,769,769,769,769,769,769,769,769,769,769,769,769,769,769,769,769,769,769,769,769,769,769,769,769,769,769,769,769,769,769,769,769,769,769,769,769,769,769,769,769,772,773,781,831,877,965,1011,1041,1064,1066,1068,1072,1076,1079],"ymouse":[512,512,512,512,512,512,512,512,512,512,512,512,512,512,512,512,512,512,512,512,512,512,512,512,512,512,512,512,512,512,512,512,512,512,512,512,512,512,512,512,512,511,510,504,467,430,361,319,287,229,202,174,144,118,94],"timestamp_mouse":[10,26,45,65,85,112,125,146,166,185,205,225,245,265,285,305,325,345,365,386,406,425,445,465,485,505,526,545,565,585,606,626,646,666,686,705,725,745,765,785,805,825,845,866,885,906,925,945,965,985,1005,1025,1045,1067,1086],"xSR":741.5,"ySR":469.95,"xT1":424.9,"yT1":0,"xT2":1058.1,"yT2":0,"toosoon":0,"cond_shown":"randomdotsizeEA","ratio_trial":250,"smaller_num":"2","larger_num":"8","correct_side":2,"subjID":"lunagonzalez20","gender":"1","age":"10","school":"6"},{"start_time":1551900744802,"click_time":1551900755421,"finger_time":1551900745441,"fix_duration":461.5305042741957,"trial":35,"RT":639,"MT":9980,"sideResp":2,"stimulus":"img/900/equaldotanddens/R/9_Ratio_900_L_18_R_20.png","xmouse":[817,817,817,817,817,817,817,817,817,817,817,817,817,817,817,817,817,818,819,819,819,819,819,819,819,819,819,819,819,821,828,840,858,889,926,932,936,941,944,951,954,957,961,967,971,972,972,972,972,972,972,972,972,972,972,972,972,972,972,972,972,972,972,972,972,972,972,972,972,972,972,972,972,972,972,972,972,972,972,972,972,972,972,972,972,972,972,972,972,969,965,960,958,954,950,948,945,942,939,932,929,927,926,925,924,924,924,924,924,922,920,919,917,914,911,910,909,908,907,906,905,903,900,898,894,891,887,882,877,856,852,851,850,849,847,847,846,845,844,841,840,837,835,832,830,829,828,826,824,822,822,821,821,820,819,817,815,812,811,808,808,808,808,808,809,815,831,847,853,853,853,853,854,854,854,854,854,854,854,854,854,854,854,854,854,854,852,851,842,832,822,816,800,778,740,718,693,666,655,654,654,655,679,726,780,818,857,892,915,939,942,948,953,954,954,954,953,943,906,813,791,768,745,710,624,601,594,593,593,593,598,628,655,681,722,735,762,788,812,863,880,888,896,909,941,947,949,949,949,947,930,893,865,839,804,787,770,757,748,736,735,735,735,735,735,740,754,774,801,829,874,892,899,904,904,904,904,902,882,816,783,741,725,712,700,700,700,700,700,744,775,840,867,887,914,922,927,930,930,930,930,930,926,888,831,823,803,778,761,751,739,739,739,739,739,740,758,785,809,857,890,904,914,918,918,916,904,878,841,789,761,729,686,666,664,664,664,676,690,714,785,842,855,856,856,856,856,856,842,771,746,746,746,746,746,746,746,746,746,755,858,932,951,953,953,953,953,946,913,809,780,768,764,762,760,760,760,760,760,783,930,988,1019,1023,1023,1023,1023,1014,974,889,852,828,805,781,708,680,663,655,654,653,653,653,653,669,727,787,811,829,839,857,862,866,870,872,873,873,874,874,874,879,888,894,901,909,915,924,928,932,933,934,934,934,934,934,934,934,934,934,934,934,934,934,934,934,934,934,934,934,933,925,873,863,853,838,811,802,784,761,728,681,663,656,655,655,655,655,655,655,655,655,656,679,714,787,918,946,962,972,975,978,978,978,978,978,978,978,978,970,950,724,724,724,724,724,724,724,724,724,724,724,724,724,724,724,736,747,758,767,774,775,776,776,776,776,776,775,763,753,748,741,734,729,718,708,697,697,697,697,698,743,1089],"ymouse":[496,496,496,496,496,496,496,496,496,496,496,496,496,496,496,496,496,496,496,496,496,496,496,496,496,496,496,496,496,494,482,465,442,402,352,340,329,321,315,305,301,296,290,281,275,274,274,274,274,274,274,274,274,274,274,274,274,274,274,274,274,274,274,274,274,274,274,274,274,274,274,274,274,274,274,274,274,274,274,274,274,274,274,274,274,274,274,274,273,265,260,254,250,241,228,221,214,207,200,189,185,183,181,180,180,180,180,180,179,175,172,169,167,160,153,151,150,148,146,145,143,140,136,133,127,124,118,113,107,96,96,95,94,94,94,94,94,94,94,94,93,92,92,90,88,86,84,79,71,68,64,62,61,60,59,59,59,59,59,59,59,59,59,59,59,59,59,59,59,59,59,59,59,59,59,59,59,59,59,59,59,59,59,59,59,59,58,58,57,57,55,54,54,54,54,54,54,54,54,54,54,54,54,54,54,54,54,55,56,62,65,71,76,76,76,76,77,77,77,77,77,77,77,77,77,77,77,77,77,77,77,77,77,77,77,77,76,71,68,60,57,55,54,53,48,48,48,48,48,48,48,49,54,56,59,59,59,59,59,60,60,60,60,60,60,60,60,60,60,60,57,53,50,49,48,48,48,46,44,41,41,41,41,41,41,41,41,41,41,39,39,39,39,39,39,39,39,39,39,39,39,39,39,39,39,39,39,43,46,48,49,49,49,49,49,49,49,46,42,39,39,39,39,39,39,40,40,40,40,32,25,20,16,16,16,16,16,16,16,16,19,27,29,29,29,29,29,29,29,29,29,29,29,29,29,29,29,29,29,29,20,9,6,6,6,6,6,6,10,25,31,33,33,33,33,33,33,34,34,34,19,15,15,15,15,15,15,15,15,15,15,14,12,12,12,12,12,14,15,15,15,15,15,15,15,15,14,13,13,13,15,16,17,18,19,19,19,19,19,20,20,20,20,20,20,22,23,24,25,25,25,25,25,25,25,25,25,25,25,25,25,25,25,25,25,25,25,25,25,25,28,29,31,31,31,31,31,31,31,31,31,31,31,31,31,31,31,31,31,31,31,31,31,31,31,31,31,32,33,34,34,34,34,34,34,34,34,34,30,1,1,1,1,1,1,1,1,1,1,1,1,1,1,1,3,4,6,7,7,7,7,7,7,7,7,8,10,13,16,20,25,28,31,34,41,41,41,41,41,41,44],"timestamp_mouse":[18,39,58,79,98,118,138,158,178,198,218,240,258,278,298,319,340,358,378,398,418,438,458,478,498,519,538,558,578,598,618,639,658,678,698,718,738,758,778,798,818,838,858,878,898,919,939,958,978,998,1018,1039,1059,1079,1098,1118,1139,1158,1178,1198,1219,1238,1258,1278,1298,1318,1338,1358,1379,1398,1418,1438,1458,1480,1499,1518,1538,1558,1578,1598,1618,1639,1659,1679,1698,1718,1738,1758,1778,1798,1819,1838,1859,1878,1898,1918,1938,1958,1978,1998,2019,2039,2058,2078,2099,2119,2138,2158,2178,2198,2218,2238,2258,2278,2298,2319,2339,2359,2381,2398,2418,2439,2458,2479,2498,2519,2538,2558,2578,2598,2619,2638,2658,2679,2699,2718,2738,2758,2778,2799,2818,2838,2859,2878,2898,2918,2939,2958,2980,2998,3018,3038,3058,3079,3098,3118,3138,3159,3179,3199,3218,3238,3258,3278,3298,3318,3338,3358,3378,3399,3418,3438,3458,3478,3498,3518,3538,3559,3580,3598,3618,3639,3658,3679,3699,3718,3738,3758,3780,3798,3818,3838,3858,3878,3898,3918,3939,3958,3978,3999,4018,4038,4059,4078,4098,4118,4139,4158,4179,4198,4218,4239,4258,4278,4299,4318,4338,4358,4378,4398,4418,4439,4459,4479,4498,4518,4538,4558,4579,4598,4618,4638,4658,4678,4698,4719,4739,4758,4778,4798,4819,4838,4858,4878,4899,4919,4938,4958,4978,4998,5018,5038,5058,5078,5098,5118,5139,5159,5178,5198,5219,5239,5258,5278,5298,5318,5339,5359,5379,5398,5419,5438,5458,5478,5498,5518,5539,5559,5578,5598,5618,5638,5658,5678,5699,5718,5738,5758,5778,5798,5819,5838,5858,5879,5898,5918,5939,5958,5978,5999,6018,6038,6058,6078,6099,6119,6139,6158,6178,6198,6218,6238,6258,6278,6298,6318,6338,6358,6378,6398,6420,6439,6459,6479,6498,6518,6539,6558,6578,6599,6618,6638,6658,6678,6700,6719,6738,6758,6778,6798,6818,6838,6858,6880,6899,6919,6938,6958,6979,6998,7018,7039,7058,7078,7099,7118,7138,7158,7178,7199,7218,7238,7258,7278,7299,7318,7338,7358,7378,7399,7420,7439,7458,7479,7499,7519,7538,7558,7578,7599,7618,7639,7658,7678,7698,7718,7738,7758,7778,7799,7818,7839,7858,7878,7898,7918,7938,7959,7978,7999,8018,8039,8058,8078,8098,8118,8139,8159,8179,8199,8219,8239,8258,8278,8299,8318,8338,8358,8378,8399,8418,8438,8459,8478,8499,8518,8539,8558,8578,8599,8618,8638,8658,8678,8698,8718,8738,8759,8778,8799,8818,8838,8858,8878,8898,8919,8938,8958,8979,8998,9019,9039,9058,9079,9099,9118,9138,9159,9179,9199,9218,9238,9258,9278,9299,9318,9339,9358,9378,9399,9418,9438,9458,9478,9499,9518,9539,9558,9578,9600,9619,9639,9658,9678,9700,9719,9738,9758,9778,9800,9818,9839,9858,9878,9898,9918,9938,9958,9979,9999,10019,10038,10059,10078,10100,10118,10139,10159,10179,10198,10218,10238,10259,10278,10299,10318,10339,10358,10378,10398,10418,10439,10458,10478,10500,10518,10539,10558,10578,10599,10619],"xSR":741.5,"ySR":469.95,"xT1":424.9,"yT1":0,"xT2":1058.1,"yT2":0,"toosoon":0,"cond_shown":"equaldotanddens","ratio_trial":900,"smaller_num":"18","larger_num":"20","correct_side":2,"subjID":"lunagonzalez20","gender":"1","age":"10","school":"6"},{"start_time":1551900759432,"click_time":1551900760941,"finger_time":1551900760300,"fix_duration":250,"trial":36,"RT":868,"MT":641,"sideResp":2,"stimulus":"img/750/equaldotanddens/R/11_Ratio_750_L_12_R_16.png","xmouse":[831,831,831,831,831,831,831,832,831,831,831,831,831,831,831,831,831,831,831,831,831,831,831,831,831,831,831,831,831,831,831,831,831,831,831,831,831,831,831,831,831,831,836,862,881,908,953,997,1020,1032,1043,1046,1050,1056,1081,1092,1103,1110,1118,1129,1134,1138,1142,1143,1143,1142,1141,1140,1139,1134,1132,1130,1128,1126,1124,1110],"ymouse":[510,510,510,510,510,510,510,509,507,507,507,507,507,507,507,507,507,507,507,507,507,507,507,507,507,507,507,507,507,507,507,507,507,507,507,507,507,507,507,507,507,506,506,501,465,437,410,391,376,366,355,351,347,340,313,295,267,246,230,201,191,182,171,165,160,148,145,141,137,127,122,117,112,108,102,71],"timestamp_mouse":[14,43,50,70,88,108,129,148,168,189,209,228,249,269,288,308,328,349,368,388,408,428,448,468,488,508,528,549,568,588,609,628,648,668,690,709,728,748,769,788,808,828,848,868,889,909,928,948,968,989,1008,1029,1048,1069,1089,1109,1128,1148,1168,1189,1208,1228,1248,1269,1289,1309,1328,1348,1369,1389,1408,1428,1449,1469,1489,1509],"xSR":741.5,"ySR":469.95,"xT1":424.9,"yT1":0,"xT2":1058.1,"yT2":0,"toosoon":0,"cond_shown":"equaldotanddens","ratio_trial":750,"smaller_num":"12","larger_num":"16","correct_side":2,"subjID":"lunagonzalez20","gender":"1","age":"10","school":"6"},{"start_time":1551900762796,"click_time":1551900764540,"finger_time":1551900762841,"fix_duration":614.551353087082,"trial":37,"RT":45,"MT":1699,"sideResp":1,"stimulus":"img/750/equaldotsize/L/8_Ratio_750_L_4_R_3.png","xmouse":[838,841,844,845,846,846,847,848,849,849,849,849,849,849,849,849,849,849,849,849,849,849,849,849,849,849,849,849,849,849,849,849,849,849,849,849,849,849,849,849,849,849,849,849,849,849,849,849,849,849,849,849,849,849,849,849,849,841,827,816,807,792,782,770,755,720,619,500,489,483,481,478,478,477,476,475,475,477,482,484,486,488,489,489,489,489,488,487],"ymouse":[508,507,504,504,503,503,502,501,500,500,500,500,500,500,500,500,500,500,500,500,500,500,500,500,500,500,500,500,500,500,500,500,500,500,500,500,500,500,500,500,500,500,500,500,500,500,500,500,500,500,500,500,500,500,500,500,500,488,469,453,436,400,379,357,334,298,246,186,175,165,159,153,152,150,146,143,138,129,125,122,120,116,113,112,110,107,102,98],"timestamp_mouse":[5,25,45,70,85,105,124,144,165,185,204,225,244,264,284,304,325,344,365,384,404,426,445,464,484,504,525,544,564,586,605,625,644,664,684,704,724,744,764,785,804,826,844,865,884,905,926,944,964,984,1004,1026,1044,1065,1085,1104,1124,1144,1164,1184,1204,1226,1244,1265,1284,1304,1324,1344,1364,1384,1404,1426,1444,1465,1485,1505,1525,1544,1564,1585,1605,1624,1644,1664,1684,1704,1726,1744],"xSR":741.5,"ySR":469.95,"xT1":424.9,"yT1":0,"xT2":1058.1,"yT2":0,"toosoon":0,"cond_shown":"equaldotsize","ratio_trial":750,"smaller_num":"3","larger_num":"4","correct_side":1,"subjID":"lunagonzalez20","gender":"1","age":"10","school":"6"},{"start_time":1551900770107,"click_time":1551900771220,"finger_time":1551900770900,"fix_duration":445.78761714827317,"trial":38,"RT":793,"MT":320,"sideResp":2,"stimulus":"img/750/randomdotsizeEA/R/12_Ratio_750_L_3_R_4.png","xmouse":[795,795,795,795,795,795,795,794,794,794,794,793,793,793,793,793,793,793,793,793,793,793,794,794,794,794,794,794,794,794,794,794,794,794,794,795,800,810,819,835,879,967,991,1002,1007,1009,1010,1013,1015,1019,1024,1040,1046,1052,1057,1060],"ymouse":[514,514,514,514,514,514,514,514,514,514,514,515,515,516,516,518,518,519,519,520,520,520,521,521,521,521,521,521,521,521,521,521,521,521,521,522,519,499,477,440,373,250,207,178,157,145,136,125,118,109,101,81,73,68,64,62],"timestamp_mouse":[14,45,53,75,93,113,134,155,174,193,213,234,254,274,293,313,333,353,374,393,413,433,453,474,494,513,533,554,573,593,613,633,654,674,693,713,734,753,773,793,813,834,853,873,894,913,934,953,973,993,1014,1034,1053,1074,1094,1113],"xSR":741.5,"ySR":469.95,"xT1":424.9,"yT1":0,"xT2":1058.1,"yT2":0,"toosoon":0,"cond_shown":"randomdotsizeEA","ratio_trial":750,"smaller_num":"3","larger_num":"4","correct_side":2,"subjID":"lunagonzalez20","gender":"1","age":"10","school":"6"},{"start_time":1551900773465,"click_time":1551900774580,"finger_time":1551900774200,"fix_duration":1223.6097968198055,"trial":39,"RT":735,"MT":380,"sideResp":2,"stimulus":"img/750/equaldotanddens/R/2_Ratio_750_L_6_R_8.png","xmouse":[811,811,811,811,811,811,811,811,811,812,812,812,812,812,813,813,813,813,813,813,813,814,814,814,814,814,814,814,815,815,815,815,815,815,818,829,853,867,879,908,920,931,941,949,958,960,963,968,971,977,981,994,1009,1029,1060,1066],"ymouse":[537,537,537,537,537,537,537,537,537,538,538,538,538,538,539,539,539,539,539,539,539,539,539,539,540,540,540,540,540,540,540,540,540,540,539,512,455,422,393,318,282,253,230,211,186,176,167,155,147,136,132,127,123,115,101,97],"timestamp_mouse":[16,39,55,76,96,115,135,155,176,196,215,236,255,276,295,315,336,356,375,396,415,436,455,475,495,515,535,555,575,596,616,635,655,675,695,715,735,756,776,796,816,836,856,875,895,915,936,955,975,996,1015,1035,1055,1075,1095,1115],"xSR":741.5,"ySR":469.95,"xT1":424.9,"yT1":0,"xT2":1058.1,"yT2":0,"toosoon":0,"cond_shown":"equaldotanddens","ratio_trial":750,"smaller_num":"6","larger_num":"8","correct_side":2,"subjID":"lunagonzalez20","gender":"1","age":"10","school":"6"},{"start_time":1551900775853,"click_time":1551900777640,"finger_time":1551900777121,"fix_duration":551.6234209464855,"trial":40,"RT":1268,"MT":519,"sideResp":2,"stimulus":"img/750/randomdotsizeEA/R/4_Ratio_750_L_15_R_20.png","xmouse":[811,811,811,811,811,811,811,811,811,811,811,811,811,811,811,811,811,811,811,811,811,812,812,812,812,812,812,812,812,812,812,812,812,812,812,812,812,812,812,812,812,812,812,812,812,812,812,812,812,812,812,812,812,812,812,812,812,812,812,812,812,812,812,813,820,827,845,897,988,1076,1206,1224,1227,1229,1229,1225,1220,1208,1197,1187,1175,1170,1167,1166,1165,1164,1162,1160,1159,1158],"ymouse":[516,516,516,516,516,516,516,516,516,516,516,516,516,516,517,517,517,517,517,517,517,517,517,517,517,517,517,517,517,517,517,517,517,517,517,517,517,517,517,517,517,517,517,517,517,517,517,517,517,517,517,517,517,517,517,517,517,517,515,511,493,482,471,451,432,414,399,375,341,304,233,218,209,202,195,176,165,147,134,123,113,110,108,107,105,102,92,86,81,77],"timestamp_mouse":[15,27,47,67,87,107,127,147,168,188,209,228,248,267,288,307,327,347,367,388,407,429,447,467,487,508,527,548,567,587,607,627,647,667,688,709,728,748,768,787,808,827,847,867,888,909,928,949,967,988,1007,1028,1047,1068,1088,1108,1128,1149,1168,1187,1207,1227,1248,1267,1288,1308,1327,1347,1368,1388,1408,1427,1448,1467,1488,1508,1528,1547,1568,1588,1607,1627,1647,1667,1688,1707,1727,1747,1768,1787],"xSR":741.5,"ySR":469.95,"xT1":424.9,"yT1":0,"xT2":1058.1,"yT2":0,"toosoon":0,"cond_shown":"randomdotsizeEA","ratio_trial":750,"smaller_num":"15","larger_num":"20","correct_side":2,"subjID":"lunagonzalez20","gender":"1","age":"10","school":"6"},{"start_time":1551900779257,"click_time":1551900780680,"finger_time":1551900780200,"fix_duration":595.6529830672979,"trial":41,"RT":943,"MT":480,"sideResp":2,"stimulus":"img/750/equaldotanddens/R/15_Ratio_750_L_9_R_12.png","xmouse":[796,796,796,796,796,796,796,796,796,796,796,796,796,796,796,796,796,796,796,796,796,796,796,796,796,796,796,796,796,796,796,796,796,796,796,796,796,796,798,799,800,803,805,806,809,814,820,831,845,860,872,893,902,912,923,935,948,952,956,959,962,962,962,962,965,972,992,1008,1027,1043,1057,1072],"ymouse":[516,516,516,516,516,516,516,516,516,516,516,516,516,516,516,516,516,516,516,516,516,516,516,516,516,516,516,516,516,516,516,516,516,516,516,516,516,515,513,512,512,509,508,506,502,494,483,466,447,426,406,363,340,317,293,265,237,228,219,210,188,176,163,147,131,107,80,69,56,46,41,41],"timestamp_mouse":[9,23,43,63,83,103,123,144,164,183,203,223,245,264,284,303,323,345,364,383,403,424,444,463,483,503,524,543,564,583,604,624,645,665,684,703,724,743,764,783,803,823,843,863,883,903,923,943,964,983,1003,1023,1044,1064,1085,1103,1123,1143,1163,1184