[{"start_time":1551899782929,"click_time":1551899785348,"finger_time":1551899784467,"fix_duration":1218.3458165502361,"trial":0,"RT":1538,"MT":881,"sideResp":1,"stimulus":[],"xmouse":[791,791,791,791,791,791,791,791,791,791,791,791,791,791,791,791,791,791,791,791,791,791,791,791,791,791,791,791,791,791,791,791,791,791,791,791,791,791,791,791,791,791,791,791,791,791,791,791,791,791,791,791,791,791,791,791,791,791,791,791,791,791,791,791,791,791,791,791,791,791,791,791,791,791,791,791,791,783,774,764,745,736,721,700,644,634,625,619,615,612,602,594,589,583,581,579,578,575,572,571,565,564,562,558,554,552,550,548,544,541,537,537,537,534,531,529,527,527,527,527,526,524],"ymouse":[530,530,530,530,530,530,530,530,530,530,530,530,530,530,530,530,530,530,530,530,530,530,530,530,530,530,530,530,530,530,530,530,530,530,530,530,530,530,530,530,530,530,530,530,530,530,530,530,530,530,530,530,530,530,530,530,530,530,530,530,530,530,530,530,530,530,530,530,530,530,530,530,530,530,530,525,509,485,456,430,385,363,333,291,205,186,173,165,159,154,142,134,125,116,113,112,111,109,107,106,103,102,101,99,97,96,95,94,93,91,90,90,90,88,86,84,83,83,83,83,83,82],"timestamp_mouse":[0,31,38,59,78,98,118,138,157,178,198,219,239,258,277,297,319,338,358,378,399,419,438,457,477,497,517,538,557,577,598,617,637,658,678,699,718,738,758,778,797,817,837,858,878,898,919,938,957,977,997,1018,1038,1059,1077,1098,1118,1138,1157,1177,1198,1218,1237,1257,1278,1299,1318,1338,1357,1378,1398,1417,1437,1457,1478,1498,1518,1538,1558,1578,1598,1618,1638,1658,1679,1697,1718,1737,1758,1777,1798,1818,1838,1857,1877,1898,1918,1939,1958,1978,1997,2018,2039,2058,2078,2099,2118,2137,2157,2177,2197,2218,2238,2257,2278,2299,2318,2338,2358,2378,2397,2418],"xSR":741.5,"ySR":501.8,"xT1":424.9,"yT1":0,"xT2":1058.1,"yT2":0,"toosoon":0,"cond_shown":"Congruent","ratio_trial":200,"L_num":6,"L_den":15,"R_num":3,"R_den":15,"correct_side":1,"subjID":"lunagonzalez20","gender":"1","age":"10","school":"6","test":{"fix_dur":[250,1500],"timestim":1000,"targets_dim":[100,100],"targets_relative_coord":[0.3,0.7],"size_stim":[880,420],"start_dim":[100,100],"size_start":[300,300],"size_fix":60,"samplingrate":20,"img_types":["Congruent","Incongruent"],"ratios":[100,200,300],"rep_conds":19,"nTrials":120,"trials_to_rest":500,"Trials_order":[98,13,32,68,55,81,35,33,93,44,60,109,22,74,7,101,29,84,11,23,96,97,54,47,73,40,107,27,85,102,119,9,12,115,63,24,16,66,110,87,49,28,42,112,79,94,61,65,51,103,8,20,80,18,71,37,69,117,64,36,82,113,5,118,17,38,57,19,30,52,39,86,92,59,21,70,2,95,0,6,48,106,45,53,43,99,78,1,62,50,77,83,56,34,100,15,104,75,67,58,108,3,91,14,114,88,89,26,46,116,76,10,4,25,72,111,90,105,31,41],"cond_shown":["Congruent","Incongruent","Congruent","Congruent","Incongruent","Incongruent","Incongruent","Incongruent","Incongruent","Congruent","Congruent","Incongruent","Congruent","Congruent","Incongruent","Incongruent","Incongruent","Congruent","Incongruent","Incongruent","Congruent","Incongruent","Congruent","Incongruent","Incongruent","Congruent","Incongruent","Incongruent","Incongruent","Congruent","Incongruent","Incongruent","Congruent","Incongruent","Incongruent","Congruent","Congruent","Congruent","Congruent","Incongruent","Incongruent","Congruent","Congruent","Congruent","Incongruent","Congruent","Incongruent","Incongruent","Incongruent","Incongruent","Congruent","Congruent","Congruent","Congruent","Incongruent","Incongruent","Incongruent","Incongruent","Congruent","Congruent","Congruent","Incongruent","Incongruent","Congruent","Incongruent","Congruent","Incongruent","Incongruent","Congruent","Congruent","Incongruent","Congruent","Congruent","Incongruent","Incongruent","Congruent","Congruent","Incongruent","Congruent","Congruent","Congruent","Congruent","Incongruent","Incongruent","Incongruent","Incongruent","Congruent","Incongruent","Congruent","Congruent","Incongruent","Incongruent","Congruent","Congruent","Congruent","Incongruent","Congruent","Incongruent","Incongruent","Congruent","Congruent","Incongruent","Incongruent","Congruent","Congruent","Congruent","Incongruent","Congruent","Congruent","Congruent","Congruent","Congruent","Congruent","Incongruent","Congruent","Incongruent","Congruent","Incongruent","Incongruent","Incongruent"],"ratio_trial":[200,100,200,200,100,200,300,200,200,200,100,100,300,200,100,300,300,100,300,300,100,100,100,300,100,300,300,200,100,100,300,200,100,100,200,100,300,100,200,200,100,300,100,300,100,300,100,300,200,100,200,200,200,100,300,100,200,200,300,100,300,300,300,300,300,200,200,100,100,300,200,200,200,300,200,300,200,300,100,100,100,300,200,300,100,200,100,100,200,200,300,300,200,300,300,200,200,200,100,300,100,200,100,200,100,300,300,200,300,200,300,300,300,100,100,200,100,200,100,300],"left_num":[6,6,8,3,4,4,2,6,7,6,2,17,11,15,4,13,4,11,7,3,11,13,6,3,12,3,13,7,13,9,4,9,11,6,9,6,9,2,3,7,8,24,8,20,3,3,1,13,4,6,15,4,3,1,13,9,7,7,20,2,18,13,4,11,4,3,4,17,10,11,1,8,3,13,3,1,3,13,7,11,11,20,6,4,13,11,11,8,12,3,4,13,3,2,8,9,11,11,6,4,12,6,6,7,6,2,4,16,1,21,4,3,8,6,7,3,6,7,8,13],"right_num":[3,3,7,14,8,14,6,3,8,7,11,10,2,4,8,12,2,6,8,4,4,12,15,4,2,11,12,8,6,8,6,8,6,13,8,15,3,6,11,14,1,8,2,5,11,11,8,12,6,11,4,3,9,18,12,14,12,14,9,6,9,12,6,2,2,14,14,10,3,2,2,3,14,12,11,8,7,12,15,6,6,5,3,6,12,3,4,6,6,11,6,12,11,10,10,8,3,3,11,2,13,3,13,18,5,10,2,12,3,2,2,2,10,13,15,1,5,6,6,12],"left_den":[15,12,15,10,8,6,4,20,10,12,5,30,22,25,8,26,20,22,10,6,22,26,12,6,30,12,26,10,26,15,5,15,22,10,15,12,10,5,10,10,20,30,16,25,5,12,2,26,5,10,25,8,12,2,26,15,10,10,25,5,20,26,5,22,20,10,6,30,25,22,3,15,6,26,4,30,10,26,14,22,22,25,20,5,26,20,22,16,15,10,5,26,10,20,15,15,22,20,10,5,30,20,10,15,20,20,20,20,5,30,5,6,15,10,14,10,20,15,16,26],"right_den":[15,5,21,28,20,30,30,6,16,10,22,15,10,10,20,15,4,15,20,20,10,20,25,20,4,20,15,16,10,16,12,10,15,26,10,25,5,12,22,28,2,16,5,10,22,20,20,15,10,22,10,10,20,30,15,28,24,28,18,12,15,15,12,10,4,28,30,15,10,10,15,9,20,15,20,24,14,15,25,15,15,10,6,12,20,4,10,10,10,22,12,15,22,25,12,10,10,4,22,4,26,6,26,27,25,25,4,20,6,4,4,10,12,26,25,2,25,9,10,15],"correct_side":[1,2,1,2,1,1,1,2,1,2,2,2,1,1,1,2,2,1,1,1,1,2,2,1,2,2,2,1,2,1,1,2,1,1,2,2,1,2,2,1,2,1,1,1,1,2,1,2,1,1,1,1,2,2,2,1,1,1,1,2,1,2,1,1,2,2,1,2,1,1,1,1,2,2,1,2,2,2,2,1,1,1,2,1,2,2,1,2,1,2,1,2,2,2,2,2,1,2,1,1,2,2,1,2,1,2,2,1,2,1,1,1,2,1,2,2,1,2,2,2],"img_shown":["img2/200/Congruent/L/C_Dist_200_LN_6_LD_15_RN_3_RD_15_0.png","img2/100/Incongruent/R/I_Dist_100_LN_6_LD_12_RN_3_RD_5_1.png","img2/200/Congruent/L/C_Dist_200_LN_8_LD_15_RN_7_RD_21_0.png","img2/200/Congruent/R/C_Dist_200_LN_3_LD_10_RN_14_RD_28_1.png","img2/100/Incongruent/L/I_Dist_100_LN_4_LD_8_RN_8_RD_20_0.png","img2/200/Incongruent/L/I_Dist_200_LN_4_LD_6_RN_14_RD_30_0.png","img2/300/Incongruent/L/I_Dist_300_LN_2_LD_4_RN_6_RD_30_0.png","img2/200/Incongruent/R/I_Dist_200_LN_6_LD_20_RN_3_RD_6_1.png","img2/200/Incongruent/L/I_Dist_200_LN_7_LD_10_RN_8_RD_16_0.png","img2/200/Congruent/R/C_Dist_200_LN_6_LD_12_RN_7_RD_10_1.png","img2/100/Congruent/R/C_Dist_100_LN_2_LD_5_RN_11_RD_22_1.png","img2/100/Incongruent/R/I_Dist_100_LN_17_LD_30_RN_10_RD_15_1.png","img2/300/Congruent/L/C_Dist_300_LN_11_LD_22_RN_2_RD_10_0.png","img2/200/Congruent/L/C_Dist_200_LN_15_LD_25_RN_4_RD_10_0.png","img2/100/Incongruent/L/I_Dist_100_LN_4_LD_8_RN_8_RD_20_0.png","img2/300/Incongruent/R/I_Dist_300_LN_13_LD_26_RN_12_RD_15_1.png","img2/300/Incongruent/R/I_Dist_300_LN_4_LD_20_RN_2_RD_4_1.png","img2/100/Congruent/L/C_Dist_100_LN_11_LD_22_RN_6_RD_15_0.png","img2/300/Incongruent/L/I_Dist_300_LN_7_LD_10_RN_8_RD_20_0.png","img2/300/Incongruent/L/I_Dist_300_LN_3_LD_6_RN_4_RD_20_0.png","img2/100/Congruent/L/C_Dist_100_LN_11_LD_22_RN_4_RD_10_0.png","img2/100/Incongruent/R/I_Dist_100_LN_13_LD_26_RN_12_RD_20_1.png","img2/100/Congruent/R/C_Dist_100_LN_6_LD_12_RN_15_RD_25_1.png","img2/300/Incongruent/L/I_Dist_300_LN_3_LD_6_RN_4_RD_20_0.png","img2/100/Incongruent/R/I_Dist_100_LN_12_LD_30_RN_2_RD_4_1.png","img2/300/Congruent/R/C_Dist_300_LN_3_LD_12_RN_11_RD_20_1.png","img2/300/Incongruent/R/I_Dist_300_LN_13_LD_26_RN_12_RD_15_1.png","img2/200/Incongruent/L/I_Dist_200_LN_7_LD_10_RN_8_RD_16_0.png","img2/100/Incongruent/R/I_Dist_100_LN_13_LD_26_RN_6_RD_10_1.png","img2/100/Congruent/L/C_Dist_100_LN_9_LD_15_RN_8_RD_16_0.png","img2/300/Incongruent/L/I_Dist_300_LN_4_LD_5_RN_6_RD_12_0.png","img2/200/Incongruent/R/I_Dist_200_LN_9_LD_15_RN_8_RD_10_1.png","img2/100/Congruent/L/C_Dist_100_LN_11_LD_22_RN_6_RD_15_0.png","img2/100/Incongruent/L/I_Dist_100_LN_6_LD_10_RN_13_RD_26_0.png","img2/200/Incongruent/R/I_Dist_200_LN_9_LD_15_RN_8_RD_10_1.png","img2/100/Congruent/R/C_Dist_100_LN_6_LD_12_RN_15_RD_25_1.png","img2/300/Congruent/L/C_Dist_300_LN_9_LD_10_RN_3_RD_5_0.png","img2/100/Congruent/R/C_Dist_100_LN_2_LD_5_RN_6_RD_12_1.png","img2/200/Congruent/R/C_Dist_200_LN_3_LD_10_RN_11_RD_22_1.png","img2/200/Incongruent/L/I_Dist_200_LN_7_LD_10_RN_14_RD_28_0.png","img2/100/Incongruent/R/I_Dist_100_LN_8_LD_20_RN_1_RD_2_1.png","img2/300/Congruent/L/C_Dist_300_LN_24_LD_30_RN_8_RD_16_0.png","img2/100/Congruent/L/C_Dist_100_LN_8_LD_16_RN_2_RD_5_0.png","img2/300/Congruent/L/C_Dist_300_LN_20_LD_25_RN_5_RD_10_0.png","img2/100/Incongruent/L/I_Dist_100_LN_3_LD_5_RN_11_RD_22_0.png","img2/300/Congruent/R/C_Dist_300_LN_3_LD_12_RN_11_RD_20_1.png","img2/100/Incongruent/L/I_Dist_100_LN_1_LD_2_RN_8_RD_20_0.png","img2/300/Incongruent/R/I_Dist_300_LN_13_LD_26_RN_12_RD_15_1.png","img2/200/Incongruent/L/I_Dist_200_LN_4_LD_5_RN_6_RD_10_0.png","img2/100/Incongruent/L/I_Dist_100_LN_6_LD_10_RN_11_RD_22_0.png","img2/200/Congruent/L/C_Dist_200_LN_15_LD_25_RN_4_RD_10_0.png","img2/200/Congruent/L/C_Dist_200_LN_4_LD_8_RN_3_RD_10_0.png","img2/200/Congruent/R/C_Dist_200_LN_3_LD_12_RN_9_RD_20_1.png","img2/100/Congruent/R/C_Dist_100_LN_1_LD_2_RN_18_RD_30_1.png","img2/300/Incongruent/R/I_Dist_300_LN_13_LD_26_RN_12_RD_15_1.png","img2/100/Incongruent/L/I_Dist_100_LN_9_LD_15_RN_14_RD_28_0.png","img2/200/Incongruent/L/I_Dist_200_LN_7_LD_10_RN_12_RD_24_0.png","img2/200/Incongruent/L/I_Dist_200_LN_7_LD_10_RN_14_RD_28_0.png","img2/300/Congruent/L/C_Dist_300_LN_20_LD_25_RN_9_RD_18_0.png","img2/100/Congruent/R/C_Dist_100_LN_2_LD_5_RN_6_RD_12_1.png","img2/300/Congruent/L/C_Dist_300_LN_18_LD_20_RN_9_RD_15_0.png","img2/300/Incongruent/R/I_Dist_300_LN_13_LD_26_RN_12_RD_15_1.png","img2/300/Incongruent/L/I_Dist_300_LN_4_LD_5_RN_6_RD_12_0.png","img2/300/Congruent/L/C_Dist_300_LN_11_LD_22_RN_2_RD_10_0.png","img2/300/Incongruent/R/I_Dist_300_LN_4_LD_20_RN_2_RD_4_1.png","img2/200/Congruent/R/C_Dist_200_LN_3_LD_10_RN_14_RD_28_1.png","img2/200/Incongruent/L/I_Dist_200_LN_4_LD_6_RN_14_RD_30_0.png","img2/100/Incongruent/R/I_Dist_100_LN_17_LD_30_RN_10_RD_15_1.png","img2/100/Congruent/L/C_Dist_100_LN_10_LD_25_RN_3_RD_10_0.png","img2/300/Congruent/L/C_Dist_300_LN_11_LD_22_RN_2_RD_10_0.png","img2/200/Incongruent/L/I_Dist_200_LN_1_LD_3_RN_2_RD_15_0.png","img2/200/Congruent/L/C_Dist_200_LN_8_LD_15_RN_3_RD_9_0.png","img2/200/Congruent/R/C_Dist_200_LN_3_LD_6_RN_14_RD_20_1.png","img2/300/Incongruent/R/I_Dist_300_LN_13_LD_26_RN_12_RD_15_1.png","img2/200/Incongruent/L/I_Dist_200_LN_3_LD_4_RN_11_RD_20_0.png","img2/300/Congruent/R/C_Dist_300_LN_1_LD_30_RN_8_RD_24_1.png","img2/200/Congruent/R/C_Dist_200_LN_3_LD_10_RN_7_RD_14_1.png","img2/300/Incongruent/R/I_Dist_300_LN_13_LD_26_RN_12_RD_15_1.png","img2/100/Congruent/R/C_Dist_100_LN_7_LD_14_RN_15_RD_25_1.png","img2/100/Congruent/L/C_Dist_100_LN_11_LD_22_RN_6_RD_15_0.png","img2/100/Congruent/L/C_Dist_100_LN_11_LD_22_RN_6_RD_15_0.png","img2/300/Congruent/L/C_Dist_300_LN_20_LD_25_RN_5_RD_10_0.png","img2/200/Incongruent/R/I_Dist_200_LN_6_LD_20_RN_3_RD_6_1.png","img2/300/Incongruent/L/I_Dist_300_LN_4_LD_5_RN_6_RD_12_0.png","img2/100/Incongruent/R/I_Dist_100_LN_13_LD_26_RN_12_RD_20_1.png","img2/200/Incongruent/R/I_Dist_200_LN_11_LD_20_RN_3_RD_4_1.png","img2/100/Congruent/L/C_Dist_100_LN_11_LD_22_RN_4_RD_10_0.png","img2/100/Incongruent/R/I_Dist_100_LN_8_LD_16_RN_6_RD_10_1.png","img2/200/Congruent/L/C_Dist_200_LN_12_LD_15_RN_6_RD_10_0.png","img2/200/Congruent/R/C_Dist_200_LN_3_LD_10_RN_11_RD_22_1.png","img2/300/Incongruent/L/I_Dist_300_LN_4_LD_5_RN_6_RD_12_0.png","img2/300/Incongruent/R/I_Dist_300_LN_13_LD_26_RN_12_RD_15_1.png","img2/200/Congruent/R/C_Dist_200_LN_3_LD_10_RN_11_RD_22_1.png","img2/300/Congruent/R/C_Dist_300_LN_2_LD_20_RN_10_RD_25_1.png","img2/300/Congruent/R/C_Dist_300_LN_8_LD_15_RN_10_RD_12_1.png","img2/200/Incongruent/R/I_Dist_200_LN_9_LD_15_RN_8_RD_10_1.png","img2/200/Congruent/L/C_Dist_200_LN_11_LD_22_RN_3_RD_10_0.png","img2/200/Incongruent/R/I_Dist_200_LN_11_LD_20_RN_3_RD_4_1.png","img2/100/Incongruent/L/I_Dist_100_LN_6_LD_10_RN_11_RD_22_0.png","img2/300/Congruent/L/C_Dist_300_LN_4_LD_5_RN_2_RD_4_0.png","img2/100/Congruent/R/C_Dist_100_LN_12_LD_30_RN_13_RD_26_1.png","img2/200/Incongruent/R/I_Dist_200_LN_6_LD_20_RN_3_RD_6_1.png","img2/100/Incongruent/L/I_Dist_100_LN_6_LD_10_RN_13_RD_26_0.png","img2/200/Congruent/R/C_Dist_200_LN_7_LD_15_RN_18_RD_27_1.png","img2/100/Congruent/L/C_Dist_100_LN_6_LD_20_RN_5_RD_25_0.png","img2/300/Congruent/R/C_Dist_300_LN_2_LD_20_RN_10_RD_25_1.png","img2/300/Incongruent/R/I_Dist_300_LN_4_LD_20_RN_2_RD_4_1.png","img2/200/Congruent/L/C_Dist_200_LN_16_LD_20_RN_12_RD_20_0.png","img2/300/Congruent/R/C_Dist_300_LN_1_LD_5_RN_3_RD_6_1.png","img2/200/Congruent/L/C_Dist_200_LN_21_LD_30_RN_2_RD_4_0.png","img2/300/Congruent/L/C_Dist_300_LN_4_LD_5_RN_2_RD_4_0.png","img2/300/Congruent/L/C_Dist_300_LN_3_LD_6_RN_2_RD_10_0.png","img2/300/Congruent/R/C_Dist_300_LN_8_LD_15_RN_10_RD_12_1.png","img2/100/Incongruent/L/I_Dist_100_LN_6_LD_10_RN_13_RD_26_0.png","img2/100/Congruent/R/C_Dist_100_LN_7_LD_14_RN_15_RD_25_1.png","img2/200/Incongruent/R/I_Dist_200_LN_3_LD_10_RN_1_RD_2_1.png","img2/100/Congruent/L/C_Dist_100_LN_6_LD_20_RN_5_RD_25_0.png","img2/200/Incongruent/R/I_Dist_200_LN_7_LD_15_RN_6_RD_9_1.png","img2/100/Incongruent/R/I_Dist_100_LN_8_LD_16_RN_6_RD_10_1.png","img2/300/Incongruent/R/I_Dist_300_LN_13_LD_26_RN_12_RD_15_1.png"],"dist100_C":[["C_Dist_100_LN_10_LD_25_RN_3_RD_10_0.png","C_Dist_100_LN_11_LD_22_RN_4_RD_10_0.png","C_Dist_100_LN_11_LD_22_RN_6_RD_15_0.png","C_Dist_100_LN_15_LD_25_RN_13_RD_26_0.png","C_Dist_100_LN_3_LD_6_RN_2_RD_5_0.png","C_Dist_100_LN_6_LD_20_RN_5_RD_25_0.png","C_Dist_100_LN_8_LD_16_RN_2_RD_5_0.png","C_Dist_100_LN_9_LD_15_RN_8_RD_16_0.png"],["C_Dist_100_LN_1_LD_2_RN_18_RD_30_1.png","C_Dist_100_LN_1_LD_2_RN_3_RD_5_1.png","C_Dist_100_LN_12_LD_30_RN_13_RD_26_1.png","C_Dist_100_LN_2_LD_5_RN_11_RD_22_1.png","C_Dist_100_LN_2_LD_5_RN_6_RD_12_1.png","C_Dist_100_LN_3_LD_20_RN_4_RD_16_1.png","C_Dist_100_LN_4_LD_10_RN_15_RD_30_1.png","C_Dist_100_LN_4_LD_8_RN_6_RD_10_1.png","C_Dist_100_LN_6_LD_12_RN_15_RD_25_1.png","C_Dist_100_LN_7_LD_14_RN_15_RD_25_1.png","C_Dist_100_LN_7_LD_14_RN_9_RD_15_1.png"]],"dist100_I":[["I_Dist_100_LN_1_LD_2_RN_8_RD_20_0.png","I_Dist_100_LN_2_LD_4_RN_6_RD_15_0.png","I_Dist_100_LN_2_LD_4_RN_8_RD_20_0.png","I_Dist_100_LN_3_LD_5_RN_11_RD_22_0.png","I_Dist_100_LN_3_LD_5_RN_8_RD_16_0.png","I_Dist_100_LN_3_LD_6_RN_4_RD_10_0.png","I_Dist_100_LN_3_LD_9_RN_7_RD_30_0.png","I_Dist_100_LN_4_LD_8_RN_8_RD_20_0.png","I_Dist_100_LN_6_LD_10_RN_11_RD_22_0.png","I_Dist_100_LN_6_LD_10_RN_13_RD_26_0.png","I_Dist_100_LN_6_LD_10_RN_7_RD_14_0.png","I_Dist_100_LN_9_LD_10_RN_20_RD_25_0.png","I_Dist_100_LN_9_LD_15_RN_13_RD_26_0.png","I_Dist_100_LN_9_LD_15_RN_14_RD_28_0.png"],["I_Dist_100_LN_10_LD_25_RN_8_RD_16_1.png","I_Dist_100_LN_10_LD_25_RN_9_RD_18_1.png","I_Dist_100_LN_11_LD_22_RN_9_RD_15_1.png","I_Dist_100_LN_12_LD_24_RN_9_RD_15_1.png","I_Dist_100_LN_12_LD_30_RN_2_RD_4_1.png","I_Dist_100_LN_13_LD_26_RN_12_RD_20_1.png","I_Dist_100_LN_13_LD_26_RN_6_RD_10_1.png","I_Dist_100_LN_17_LD_30_RN_10_RD_15_1.png","I_Dist_100_LN_6_LD_12_RN_3_RD_5_1.png","I_Dist_100_LN_8_LD_16_RN_6_RD_10_1.png","I_Dist_100_LN_8_LD_20_RN_1_RD_2_1.png","I_Dist_100_LN_9_LD_18_RN_6_RD_10_1.png"]],"dist100_S":[["E_Dist_100_LN_2_LD_12_RN_2_RD_30_0.png","E_Dist_100_LN_6_LD_10_RN_6_RD_12_0.png"],["E_Dist_100_LN_6_LD_12_RN_6_RD_10_1.png"]],"dist200_C":[["C_Dist_200_LN_11_LD_22_RN_3_RD_10_0.png","C_Dist_200_LN_12_LD_15_RN_6_RD_10_0.png","C_Dist_200_LN_12_LD_20_RN_6_RD_15_0.png","C_Dist_200_LN_14_LD_28_RN_6_RD_20_0.png","C_Dist_200_LN_15_LD_25_RN_4_RD_10_0.png","C_Dist_200_LN_16_LD_20_RN_12_RD_20_0.png","C_Dist_200_LN_16_LD_30_RN_9_RD_27_0.png","C_Dist_200_LN_20_LD_25_RN_9_RD_15_0.png","C_Dist_200_LN_21_LD_30_RN_2_RD_4_0.png","C_Dist_200_LN_4_LD_10_RN_3_RD_15_0.png","C_Dist_200_LN_4_LD_8_RN_3_RD_10_0.png","C_Dist_200_LN_6_LD_15_RN_3_RD_15_0.png","C_Dist_200_LN_7_LD_21_RN_2_RD_15_0.png","C_Dist_200_LN_8_LD_15_RN_2_RD_6_0.png","C_Dist_200_LN_8_LD_15_RN_3_RD_9_0.png","C_Dist_200_LN_8_LD_15_RN_7_RD_21_0.png","C_Dist_200_LN_9_LD_20_RN_4_RD_16_0.png"],["C_Dist_200_LN_1_LD_2_RN_21_RD_30_1.png","C_Dist_200_LN_13_LD_26_RN_14_RD_20_1.png","C_Dist_200_LN_3_LD_10_RN_11_RD_22_1.png","C_Dist_200_LN_3_LD_10_RN_14_RD_28_1.png","C_Dist_200_LN_3_LD_10_RN_7_RD_14_1.png","C_Dist_200_LN_3_LD_12_RN_9_RD_20_1.png","C_Dist_200_LN_3_LD_6_RN_14_RD_20_1.png","C_Dist_200_LN_5_LD_10_RN_14_RD_20_1.png","C_Dist_200_LN_6_LD_12_RN_7_RD_10_1.png","C_Dist_200_LN_6_LD_20_RN_11_RD_22_1.png","C_Dist_200_LN_7_LD_15_RN_18_RD_27_1.png","C_Dist_200_LN_9_LD_30_RN_13_RD_26_1.png"]],"dist200_I":[["I_Dist_200_LN_1_LD_2_RN_3_RD_10_0.png","I_Dist_200_LN_1_LD_3_RN_2_RD_15_0.png","I_Dist_200_LN_3_LD_4_RN_11_RD_20_0.png","I_Dist_200_LN_4_LD_5_RN_6_RD_10_0.png","I_Dist_200_LN_4_LD_6_RN_14_RD_30_0.png","I_Dist_200_LN_7_LD_10_RN_12_RD_24_0.png","I_Dist_200_LN_7_LD_10_RN_14_RD_28_0.png","I_Dist_200_LN_7_LD_10_RN_8_RD_16_0.png"],["I_Dist_200_LN_11_LD_20_RN_3_RD_4_1.png","I_Dist_200_LN_14_LD_30_RN_12_RD_18_1.png","I_Dist_200_LN_14_LD_30_RN_6_RD_9_1.png","I_Dist_200_LN_3_LD_10_RN_1_RD_2_1.png","I_Dist_200_LN_4_LD_30_RN_1_RD_3_1.png","I_Dist_200_LN_6_LD_20_RN_3_RD_6_1.png","I_Dist_200_LN_7_LD_15_RN_4_RD_6_1.png","I_Dist_200_LN_7_LD_15_RN_6_RD_9_1.png","I_Dist_200_LN_9_LD_15_RN_8_RD_10_1.png"]],"dist200_S":[["E_Dist_200_LN_3_LD_6_RN_3_RD_10_0.png"],["E_Dist_200_LN_3_LD_10_RN_3_RD_6_1.png"]],"dist300_C":[["C_Dist_300_LN_11_LD_22_RN_1_RD_5_0.png","C_Dist_300_LN_11_LD_22_RN_2_RD_10_0.png","C_Dist_300_LN_11_LD_22_RN_4_RD_20_0.png","C_Dist_300_LN_12_LD_24_RN_2_RD_10_0.png","C_Dist_300_LN_18_LD_20_RN_9_RD_15_0.png","C_Dist_300_LN_20_LD_25_RN_13_RD_26_0.png","C_Dist_300_LN_20_LD_25_RN_14_RD_28_0.png","C_Dist_300_LN_20_LD_25_RN_5_RD_10_0.png","C_Dist_300_LN_20_LD_25_RN_8_RD_16_0.png","C_Dist_300_LN_20_LD_25_RN_9_RD_18_0.png","C_Dist_300_LN_24_LD_30_RN_2_RD_4_0.png","C_Dist_300_LN_24_LD_30_RN_8_RD_16_0.png","C_Dist_300_LN_3_LD_6_RN_2_RD_10_0.png","C_Dist_300_LN_4_LD_10_RN_1_RD_10_0.png","C_Dist_300_LN_4_LD_5_RN_2_RD_4_0.png","C_Dist_300_LN_8_LD_16_RN_1_RD_5_0.png","C_Dist_300_LN_9_LD_10_RN_3_RD_5_0.png"],["C_Dist_300_LN_1_LD_20_RN_7_RD_20_1.png","C_Dist_300_LN_1_LD_3_RN_19_RD_30_1.png","C_Dist_300_LN_1_LD_30_RN_8_RD_24_1.png","C_Dist_300_LN_1_LD_5_RN_11_RD_22_1.png","C_Dist_300_LN_1_LD_5_RN_3_RD_6_1.png","C_Dist_300_LN_1_LD_5_RN_6_RD_12_1.png","C_Dist_300_LN_2_LD_10_RN_12_RD_24_1.png","C_Dist_300_LN_2_LD_20_RN_10_RD_25_1.png","C_Dist_300_LN_3_LD_12_RN_11_RD_20_1.png","C_Dist_300_LN_3_LD_6_RN_4_RD_5_1.png","C_Dist_300_LN_4_LD_20_RN_13_RD_26_1.png","C_Dist_300_LN_5_LD_25_RN_6_RD_12_1.png","C_Dist_300_LN_5_LD_25_RN_7_RD_14_1.png","C_Dist_300_LN_7_LD_14_RN_20_RD_25_1.png","C_Dist_300_LN_8_LD_15_RN_10_RD_12_1.png"]],"dist300_I":[["I_Dist_300_LN_1_LD_2_RN_2_RD_10_0.png","I_Dist_300_LN_1_LD_2_RN_3_RD_15_0.png","I_Dist_300_LN_2_LD_4_RN_6_RD_30_0.png","I_Dist_300_LN_3_LD_6_RN_4_RD_20_0.png","I_Dist_300_LN_4_LD_5_RN_6_RD_12_0.png","I_Dist_300_LN_4_LD_5_RN_8_RD_16_0.png","I_Dist_300_LN_7_LD_10_RN_8_RD_20_0.png","I_Dist_300_LN_8_LD_10_RN_14_RD_28_0.png","I_Dist_300_LN_8_LD_10_RN_9_RD_18_0.png"],["I_Dist_300_LN_13_LD_26_RN_12_RD_15_1.png","I_Dist_300_LN_4_LD_20_RN_2_RD_4_1.png"]],"dist300_S":[["E_Dist_300_LN_9_LD_12_RN_9_RD_20_0.png"],["E_Dist_300_LN_18_LD_30_RN_18_RD_20_1.png","E_Dist_300_LN_3_LD_10_RN_3_RD_5_1.png","E_Dist_300_LN_9_LD_20_RN_9_RD_12_1.png"]],"dist500_C":[["C_Dist_500_LN_10_LD_13_RN_7_RD_26_0.png","C_Dist_500_LN_10_LD_15_RN_4_RD_24_0.png","C_Dist_500_LN_12_LD_16_RN_3_RD_12_0.png","C_Dist_500_LN_12_LD_18_RN_4_RD_24_0.png","C_Dist_500_LN_15_LD_18_RN_5_RD_15_0.png","C_Dist_500_LN_15_LD_20_RN_1_RD_4_0.png","C_Dist_500_LN_18_LD_27_RN_1_RD_6_0.png","C_Dist_500_LN_20_LD_24_RN_1_RD_3_0.png","C_Dist_500_LN_20_LD_24_RN_3_RD_9_0.png","C_Dist_500_LN_20_LD_24_RN_7_RD_21_0.png","C_Dist_500_LN_20_LD_28_RN_3_RD_14_0.png","C_Dist_500_LN_21_LD_28_RN_6_RD_24_0.png","C_Dist_500_LN_22_LD_28_RN_2_RD_7_0.png","C_Dist_500_LN_25_LD_30_RN_9_RD_27_0.png","C_Dist_500_LN_4_LD_6_RN_1_RD_6_0.png","C_Dist_500_LN_5_LD_6_RN_2_RD_6_0.png","C_Dist_500_LN_6_LD_9_RN_1_RD_6_0.png","C_Dist_500_LN_7_LD_10_RN_1_RD_5_0.png","C_Dist_500_LN_8_LD_12_RN_1_RD_6_0.png","C_Dist_500_LN_8_LD_12_RN_4_RD_24_0.png"],["C_Dist_500_LN_1_LD_4_RN_12_RD_16_1.png","C_Dist_500_LN_1_LD_4_RN_9_RD_12_1.png","C_Dist_500_LN_1_LD_9_RN_11_RD_18_1.png","C_Dist_500_LN_10_LD_24_RN_22_RD_24_1.png","C_Dist_500_LN_2_LD_12_RN_10_RD_15_1.png","C_Dist_500_LN_2_LD_12_RN_12_RD_18_1.png","C_Dist_500_LN_2_LD_12_RN_4_RD_6_1.png","C_Dist_500_LN_2_LD_24_RN_7_RD_12_1.png","C_Dist_500_LN_2_LD_5_RN_18_RD_20_1.png","C_Dist_500_LN_2_LD_5_RN_9_RD_10_1.png","C_Dist_500_LN_2_LD_8_RN_12_RD_16_1.png","C_Dist_500_LN_2_LD_8_RN_21_RD_28_1.png","C_Dist_500_LN_3_LD_10_RN_4_RD_5_1.png","C_Dist_500_LN_3_LD_12_RN_15_RD_20_1.png","C_Dist_500_LN_3_LD_30_RN_6_RD_10_1.png","C_Dist_500_LN_3_LD_8_RN_14_RD_16_1.png","C_Dist_500_LN_4_LD_16_RN_15_RD_20_1.png","C_Dist_500_LN_4_LD_24_RN_12_RD_18_1.png","C_Dist_500_LN_5_LD_14_RN_6_RD_7_1.png","C_Dist_500_LN_7_LD_21_RN_20_RD_24_1.png","C_Dist_500_LN_7_LD_28_RN_12_RD_16_1.png","C_Dist_500_LN_7_LD_28_RN_9_RD_12_1.png","C_Dist_500_LN_9_LD_27_RN_20_RD_24_1.png"]],"dist500_I":[["I_Dist_500_LN_2_LD_3_RN_4_RD_24_0.png","I_Dist_500_LN_5_LD_6_RN_6_RD_18_0.png","I_Dist_500_LN_7_LD_8_RN_9_RD_24_0.png"],["I_Dist_500_LN_7_LD_21_RN_5_RD_6_1.png"]],"dist500_S":[["E_Dist_500_LN_6_LD_8_RN_6_RD_24_0.png"],["E_Dist_500_LN_2_LD_12_RN_2_RD_3_1.png","E_Dist_500_LN_6_LD_24_RN_6_RD_8_1.png"]]}},{"start_time":1551899790159,"click_time":1551899792147,"finger_time":1551899791627,"fix_duration":469.2451237323869,"trial":1,"RT":1468,"MT":520,"sideResp":1,"stimulus":[],"xmouse":[797,797,797,797,797,797,797,797,797,797,797,797,797,797,797,797,797,797,797,797,797,797,797,797,797,797,797,797,797,797,797,797,797,797,797,797,797,797,797,797,797,797,797,797,797,797,797,797,797,797,797,797,797,797,797,797,797,797,797,797,797,797,797,797,797,797,797,797,797,797,797,797,797,797,796,785,768,746,739,700,690,680,663,646,609,598,592,583,571,547,543,542,542,542,542,542,542,539,537,519],"ymouse":[541,541,541,541,541,541,541,541,541,541,541,541,541,541,541,541,541,541,541,541,541,541,541,541,541,541,541,541,541,541,541,541,541,541,541,541,541,541,541,541,541,541,541,541,541,541,541,541,541,541,541,541,541,541,541,541,541,541,541,541,541,541,541,541,541,541,541,541,541,541,537,524,503,478,417,397,374,351,342,298,286,271,252,232,195,184,175,161,140,103,96,95,95,95,95,95,95,93,93,87],"timestamp_mouse":[9,28,47,68,88,109,128,148,168,187,208,228,247,268,288,308,328,348,368,388,409,427,447,468,488,508,527,547,568,588,607,627,647,668,688,707,728,747,768,788,808,827,848,868,887,907,927,948,967,988,1009,1028,1048,1067,1089,1109,1128,1147,1168,1187,1207,1228,1248,1268,1288,1308,1327,1348,1367,1387,1408,1427,1449,1468,1488,1509,1528,1549,1568,1587,1607,1627,1647,1668,1687,1707,1729,1747,1768,1787,1808,1829,1847,1868,1887,1908,1928,1948,1967,1987],"xSR":741.5,"ySR":501.8,"xT1":424.9,"yT1":0,"xT2":1058.1,"yT2":0,"toosoon":0,"cond_shown":"Incongruent","ratio_trial":100,"L_num":6,"L_den":12,"R_num":3,"R_den":5,"correct_side":2,"subjID":"lunagonzalez20","gender":"1","school":"6","age":"10"},{"start_time":1551899795249,"click_time":1551899797528,"finger_time":1551899796767,"fix_duration":960.5479064046314,"trial":2,"RT":1518,"MT":761,"sideResp":1,"stimulus":[],"xmouse":[811,811,811,811,811,811,811,811,811,811,811,811,811,811,811,811,811,811,811,811,811,811,811,811,811,811,811,811,811,811,811,811,811,811,811,811,811,811,811,811,811,811,811,811,811,811,811,811,811,811,811,811,811,811,811,811,811,811,811,811,811,811,811,811,811,811,811,811,811,811,811,811,811,811,811,811,811,811,811,811,811,811,811,811,811,811,811,811,811,811,811,811,811,811,809,808,807,806,806,804,802,798,794,786,762,748,732,704,666,588,563,539,529,520],"ymouse":[564,564,564,564,564,564,564,564,564,564,564,564,564,564,564,564,564,564,564,564,564,564,564,564,564,564,564,564,564,564,564,564,564,564,564,564,564,564,564,564,564,564,564,564,564,564,564,564,564,564,564,564,564,564,564,564,564,564,564,564,564,564,564,564,564,564,564,564,564,564,564,564,558,545,507,491,481,476,474,474,474,474,474,474,474,474,474,474,474,474,474,473,473,472,457,454,450,447,445,440,437,429,422,410,381,365,342,291,222,124,98,64,49,35],"timestamp_mouse":[20,37,59,77,99,119,138,158,178,198,218,237,259,277,299,318,338,357,377,397,418,438,458,478,498,517,539,558,577,598,617,638,659,677,697,718,738,758,777,797,817,838,857,877,898,918,939,958,978,997,1017,1038,1059,1078,1097,1117,1139,1157,1177,1198,1218,1237,1258,1277,1297,1317,1338,1359,1377,1398,1417,1438,1458,1479,1497,1518,1537,1558,1577,1598,1617,1637,1657,1677,1698,1718,1738,1758,1778,1798,1819,1839,1858,1877,1898,1917,1938,1958,1978,1997,2018,2038,2058,2077,2098,2117,2139,2158,2177,2199,2219,2238,2258,2279],"xSR":741.5,"ySR":501.8,"xT1":424.9,"yT1":0,"xT2":1058.1,"yT2":0,"toosoon":0,"cond_shown":"Congruent","ratio_trial":200,"L_num":8,"L_den":15,"R_num":7,"R_den":21,"correct_side":1,"subjID":"lunagonzalez20","gender":"1","school":"6","age":"10"},{"start_time":1551899807198,"click_time":1551899809067,"finger_time":1551899808347,"fix_duration":250,"trial":3,"RT":1149,"MT":720,"sideResp":2,"stimulus":[],"xmouse":[803,803,803,803,803,803,803,803,803,803,803,802,802,802,802,802,802,802,802,802,802,802,802,802,802,802,802,802,802,802,802,802,802,802,802,802,802,802,802,802,802,802,802,802,802,802,802,802,802,803,806,808,809,811,815,822,835,858,885,932,948,968,989,1018,1104,1141,1169,1188,1208,1221,1223,1226,1230,1236,1241,1245,1245,1245,1245,1240,1234,1228,1221,1205,1200,1194,1192,1189,1188,1188,1187,1182,1166,1155],"ymouse":[567,567,567,567,567,567,567,566,566,566,566,566,566,566,566,566,566,566,566,566,566,566,566,566,566,566,566,566,566,566,566,566,566,566,566,566,566,566,566,566,566,566,566,566,566,566,566,566,566,563,557,555,554,554,554,556,561,567,572,574,574,574,574,572,556,544,529,516,490,461,451,440,426,409,367,340,310,277,230,178,157,138,121,91,80,68,63,58,57,57,56,56,56,56],"timestamp_mouse":[14,37,49,69,89,109,128,148,169,188,209,229,248,268,288,309,329,349,369,388,410,428,450,469,489,509,529,549,569,589,608,628,649,668,688,709,729,750,769,788,809,828,848,868,889,910,928,949,968,989,1008,1029,1049,1069,1089,1108,1128,1149,1169,1189,1209,1228,1249,1270,1288,1309,1329,1348,1369,1389,1409,1429,1449,1468,1488,1509,1529,1548,1568,1588,1609,1628,1648,1670,1689,1709,1729,1748,1770,1788,1809,1829,1849,1868],"xSR":741.5,"ySR":501.8,"xT1":424.9,"yT1":0,"xT2":1058.1,"yT2":0,"toosoon":0,"cond_shown":"Congruent","ratio_trial":200,"L_num":3,"L_den":10,"R_num":14,"R_den":28,"correct_side":2,"subjID":"lunagonzalez20","gender":"1","school":"6","age":"10"},{"start_time":1551899813387,"click_time":1551899815588,"finger_time":1551899814946,"fix_duration":1499.4482621991922,"trial":4,"RT":1559,"MT":642,"sideResp":2,"stimulus":[],"xmouse":[818,818,818,818,818,818,818,818,818,818,818,818,818,818,818,818,818,818,818,818,818,818,818,818,818,818,818,818,818,818,818,818,818,818,818,818,818,818,818,818,818,818,818,818,818,818,818,818,818,818,818,818,818,818,818,818,818,818,818,818,818,818,818,818,818,818,818,818,818,818,818,818,818,818,818,818,818,818,892,1004,1222,1290,1336,1355,1371,1404,1414,1417,1417,1415,1409,1405,1398,1391,1380,1340,1302,1273,1243,1218,1188,1184,1181,1181,1179,1175,1173,1172,1171,1168,1151],"ymouse":[528,528,528,528,528,528,528,528,528,528,528,528,528,528,528,528,528,528,528,528,528,528,528,528,528,528,528,528,528,528,528,528,528,528,528,528,528,528,528,528,528,528,528,528,528,528,528,528,528,528,528,528,528,528,528,528,528,528,528,528,528,528,528,528,528,528,528,528,528,528,528,528,528,528,528,528,528,528,455,341,145,95,65,50,41,28,25,23,20,15,8,7,6,5,4,4,9,17,25,32,40,42,42,42,42,42,42,42,42,42,42],"timestamp_mouse":[1,20,39,61,79,100,121,139,160,181,200,220,241,259,280,300,319,339,359,380,400,419,440,460,479,500,519,539,561,580,600,620,640,660,679,699,720,740,760,779,799,819,839,860,880,901,919,939,959,980,1000,1020,1040,1060,1079,1100,1121,1140,1159,1179,1201,1220,1239,1260,1279,1299,1319,1339,1360,1380,1400,1420,1439,1460,1479,1499,1519,1540,1559,1580,1600,1619,1640,1660,1681,1701,1719,1739,1760,1780,1800,1819,1840,1859,1879,1900,1919,1940,1961,1979,2001,2019,2039,2059,2080,2100,2119,2140,2160,2179,2201],"xSR":741.5,"ySR":501.8,"xT1":424.9,"yT1":0,"xT2":1058.1,"yT2":0,"toosoon":0,"cond_shown":"Incongruent","ratio_trial":100,"L_num":4,"L_den":8,"R_num":8,"R_den":20,"correct_side":1,"subjID":"lunagonzalez20","gender":"1","school":"6","age":"10"},{"start_time":1551899819232,"click_time":1551899821448,"finger_time":1551899821028,"fix_duration":1364.6359283699392,"trial":5,"RT":1796,"MT":420,"sideResp":1,"stimulus":[],"xmouse":[803,803,803,803,803,803,803,803,803,803,803,803,803,803,803,803,803,803,803,803,803,803,803,803,803,803,803,803,803,803,803,803,803,803,803,803,803,803,803,803,803,803,803,803,803,803,803,803,803,803,803,803,803,803,803,803,803,803,803,803,803,803,803,803,803,803,803,803,803,803,803,803,803,803,803,803,803,803,803,803,803,803,803,803,803,803,803,802,788,766,723,674,623,597,592,589,584,579,574,573,571,570,569,566,563,559,555,550,535,521,510],"ymouse":[523,523,523,523,523,523,523,523,523,523,523,523,523,523,523,523,523,523,523,523,523,523,523,523,523,523,523,523,523,523,523,523,523,523,523,523,523,523,523,523,523,523,523,523,523,523,523,523,523,523,523,523,523,523,523,523,523,523,523,523,523,523,523,523,523,523,523,523,523,523,523,523,523,523,523,523,523,523,523,523,523,523,523,523,523,523,523,523,509,483,436,402,359,329,318,307,296,287,271,265,255,245,233,209,197,183,167,153,123,108,96],"timestamp_mouse":[19,42,54,74,94,114,135,155,174,195,215,234,255,275,295,316,334,356,375,394,416,435,454,475,494,516,535,554,575,594,615,635,654,676,695,715,734,756,774,795,815,834,854,874,894,914,935,954,975,995,1014,1036,1054,1075,1095,1115,1135,1154,1174,1195,1214,1235,1255,1274,1295,1314,1335,1355,1376,1395,1414,1435,1455,1474,1494,1514,1535,1555,1574,1594,1615,1635,1655,1675,1695,1715,1735,1754,1775,1796,1815,1835,1856,1874,1895,1915,1935,1956,1975,1995,2015,2035,2055,2074,2095,2115,2135,2155,2174,2196,2216],"xSR":741.5,"ySR":501.8,"xT1":424.9,"yT1":0,"xT2":1058.1,"yT2":0,"toosoon":0,"cond_shown":"Incongruent","ratio_trial":200,"L_num":4,"L_den":6,"R_num":14,"R_den":30,"correct_side":1,"subjID":"lunagonzalez20","gender":"1","school":"6","age":"10"},{"start_time":1551899828111,"click_time":1551899831347,"finger_time":1551899829508,"fix_duration":902.6194007990205,"trial":6,"RT":1397,"MT":1839,"sideResp":1,"stimulus":[],"xmouse":[797,797,797,797,797,797,797,797,797,797,797,797,797,797,797,797,797,797,797,797,797,797,797,797,797,797,797,797,797,797,797,797,797,797,797,797,797,797,797,797,797,797,797,797,797,797,797,797,797,797,797,797,797,797,797,797,797,797,797,797,797,797,797,797,798,798,799,804,812,816,817,817,818,818,818,817,806,800,794,786,773,756,752,736,727,715,708,705,701,698,693,692,691,689,689,688,687,686,685,683,682,682,682,682,682,682,682,682,682,682,682,682,682,682,682,682,682,682,682,682,681,681,681,681,681,681,681,681,681,681,681,681,681,681,681,681,681,680,680,679,677,675,674,672,672,670,669,665,661,656,640,630,611,599,589,565,556,548,539,532,527,518],"ymouse":[524,524,524,524,524,524,524,524,524,524,524,524,524,524,524,524,524,524,524,524,524,524,524,524,524,524,524,524,524,524,524,524,524,524,524,524,524,524,524,524,524,524,524,524,524,524,524,524,524,524,524,524,524,524,524,524,524,524,524,524,524,524,524,524,523,523,522,518,508,499,471,453,432,422,417,410,390,382,374,362,339,316,310,289,277,262,254,250,245,240,231,229,226,224,222,219,217,215,212,209,207,206,206,206,206,206,205,205,205,205,205,205,205,205,205,204,204,204,204,204,204,204,204,204,204,204,204,204,204,204,204,204,204,204,204,204,203,202,200,198,193,188,185,181,179,169,164,157,152,146,134,129,119,115,109,98,93,89,84,82,80,77],"timestamp_mouse":[17,37,56,76,97,115,135,156,176,196,216,235,255,276,296,316,336,355,377,396,416,435,455,475,496,516,536,556,576,596,617,635,656,676,695,716,736,756,776,796,816,836,857,875,895,916,936,956,975,995,1016,1035,1056,1076,1097,1116,1135,1156,1176,1197,1216,1236,1255,1276,1296,1316,1335,1355,1376,1397,1416,1435,1455,1475,1496,1515,1535,1557,1575,1595,1616,1635,1656,1675,1696,1715,1736,1756,1776,1795,1815,1837,1856,1877,1896,1915,1935,1956,1976,1996,2016,2035,2056,2076,2095,2115,2136,2156,2175,2195,2216,2236,2255,2275,2296,2316,2335,2355,2375,2396,2416,2437,2457,2476,2496,2517,2537,2556,2575,2595,2616,2635,2657,2675,2695,2715,2735,2756,2776,2796,2816,2835,2856,2876,2896,2916,2936,2957,2976,2995,3016,3036,3056,3075,3096,3115,3136,3156,3176,3196,3216,3236],"xSR":741.5,"ySR":501.8,"xT1":424.9,"yT1":0,"xT2":1058.1,"yT2":0,"toosoon":0,"cond_shown":"Incongruent","ratio_trial":300,"L_num":2,"L_den":4,"R_num":6,"R_den":30,"correct_side":1,"subjID":"lunagonzalez20","gender":"1","school":"6","age":"10"},{"start_time":1551899837969,"click_time":1551899840687,"finger_time":1551899840246,"fix_duration":982.5050123323629,"trial":7,"RT":2277,"MT":441,"sideResp":2,"stimulus":[],"xmouse":[776,776,776,776,776,776,776,776,776,776,776,776,776,776,776,776,776,776,776,776,776,776,776,776,776,776,776,776,776,776,776,776,776,776,776,776,776,776,776,776,776,776,776,776,776,776,776,776,776,776,776,776,776,776,776,776,776,776,776,776,776,776,776,776,776,776,776,776,776,776,776,776,776,776,776,776,776,776,776,776,776,776,776,776,776,776,776,776,776,776,776,776,776,776,776,776,776,776,776,776,776,776,776,776,776,776,776,776,776,776,776,777,788,928,1014,1109,1135,1154,1197,1211,1221,1228,1234,1250,1254,1254,1249,1243,1214,1197,1179,1163,1148,1136,1115,1104],"ymouse":[550,550,550,550,550,550,550,550,550,550,550,550,550,550,550,550,550,550,550,550,550,550,550,550,550,550,550,550,550,550,550,550,550,550,550,550,550,550,550,550,550,550,550,550,550,550,550,550,550,550,550,550,550,550,550,550,550,550,550,550,550,550,550,550,550,550,550,550,550,550,550,550,550,550,550,550,550,550,550,550,550,550,550,550,550,550,550,550,550,550,550,550,550,550,550,550,550,550,550,550,550,550,550,550,550,550,550,550,550,550,550,549,547,520,496,470,462,456,427,407,390,375,360,326,308,296,281,267,230,212,197,178,158,138,105,81],"timestamp_mouse":[19,41,57,79,97,117,137,157,177,198,218,238,258,277,297,317,337,358,378,397,417,437,457,478,498,517,537,557,579,598,617,638,659,677,697,718,737,757,777,797,817,838,858,878,898,918,939,958,978,998,1018,1038,1057,1077,1097,1118,1139,1159,1177,1197,1218,1237,1257,1277,1298,1318,1337,1357,1377,1398,1418,1438,1458,1477,1497,1517,1538,1557,1577,1598,1619,1639,1659,1678,1698,1718,1738,1758,1777,1797,1817,1838,1859,1878,1898,1917,1937,1958,1977,1999,2018,2039,2058,2077,2097,2117,2138,2157,2178,2197,2218,2237,2258,2277,2299,2318,2338,2357,2378,2398,2418,2438,2458,2478,2497,2518,2538,2557,2578,2598,2618,2639,2658,2678,2699,2717],"xSR":741.5,"ySR":501.8,"xT1":424.9,"yT1":0,"xT2":1058.1,"yT2":0,"toosoon":0,"cond_shown":"Incongruent","ratio_trial":200,"L_num":6,"L_den":20,"R_num":3,"R_den":6,"correct_side":2,"subjID":"lunagonzalez20","gender":"1","school":"6","age":"10"},{"start_time":1551899851460,"click_time":1551899853308,"finger_time":1551899852927,"fix_duration":250,"trial":8,"RT":1467,"MT":381,"sideResp":1,"stimulus":[],"xmouse":[746,746,746,746,746,746,746,746,746,746,746,746,746,746,746,746,746,746,746,746,746,746,746,746,746,746,746,746,746,746,746,746,746,746,746,746,746,746,746,746,746,746,746,746,746,746,746,746,746,746,746,746,746,746,746,746,746,746,746,746,746,746,746,746,746,746,746,746,746,746,746,746,746,746,742,735,709,702,696,691,686,674,666,655,646,628,600,582,564,550,530,526,523],"ymouse":[502,502,502,502,502,502,502,502,502,502,502,502,502,502,502,502,502,502,502,502,502,502,502,502,502,502,502,502,502,502,502,502,502,502,502,502,502,502,502,502,502,502,502,502,502,502,502,502,502,502,502,502,502,502,502,502,502,502,502,502,502,502,502,502,502,502,502,502,502,502,502,502,502,493,458,438,346,319,296,275,256,219,203,187,174,153,123,107,94,84,69,66,64],"timestamp_mouse":[13,34,48,67,88,107,127,147,167,187,208,227,247,269,289,307,327,348,367,388,409,427,448,468,488,507,528,548,568,587,607,627,649,668,687,707,727,749,768,787,807,828,848,867,887,908,928,948,968,988,1009,1029,1048,1067,1088,1107,1128,1148,1167,1188,1207,1228,1248,1268,1288,1308,1327,1348,1367,1387,1408,1427,1448,1467,1488,1509,1527,1548,1567,1588,1608,1627,1648,1667,1688,1708,1727,1747,1768,1788,1809,1827,1848],"xSR":741.5,"ySR":501.8,"xT1":424.9,"yT1":0,"xT2":1058.1,"yT2":0,"toosoon":0,"cond_shown":"Incongruent","ratio_trial":200,"L_num":7,"L_den":10,"R_num":8,"R_den":16,"correct_side":1,"subjID":"lunagonzalez20","gender":"1","school":"6","age":"10"},{"start_time":1551899859360,"click_time":1551899861247,"finger_time":1551899860708,"fix_duration":990.2328086201538,"trial":9,"RT":1348,"MT":539,"sideResp":2,"stimulus":[],"xmouse":[800,800,800,800,800,800,800,800,800,800,800,800,800,800,800,800,800,800,800,800,800,800,800,800,800,800,800,800,800,800,800,800,800,800,800,800,800,800,800,800,800,800,800,800,800,800,800,800,800,800,800,800,800,800,800,800,800,800,800,800,800,800,800,800,800,800,807,990,1119,1232,1330,1392,1393,1397,1400,1405,1405,1398,1394,1387,1376,1357,1296,1258,1236,1228,1228,1227,1227,1223,1221,1219,1208,1186,1158],"ymouse":[534,534,534,534,534,534,534,534,534,534,534,534,534,534,534,534,534,534,534,534,534,534,534,534,534,534,534,534,534,534,534,534,534,534,534,534,534,534,534,534,534,534,534,534,534,534,534,534,534,534,534,534,534,534,534,534,534,534,534,534,534,534,534,534,534,534,535,462,409,362,310,252,236,224,214,200,192,178,171,164,156,151,136,127,120,116,116,116,115,112,110,108,102,95,87],"timestamp_mouse":[13,27,47,67,87,107,127,147,167,187,207,227,249,267,287,308,328,348,368,388,408,427,447,467,488,507,527,547,568,588,607,627,648,667,687,707,728,749,767,787,807,828,848,867,888,909,927,948,969,989,1007,1028,1048,1067,1087,1108,1128,1148,1167,1187,1208,1227,1247,1267,1288,1307,1327,1348,1368,1387,1407,1429,1447,1468,1488,1507,1527,1548,1568,1588,1607,1628,1647,1667,1687,1707,1727,1747,1767,1787,1808,1827,1848,1867,1887],"xSR":741.5,"ySR":501.8,"xT1":424.9,"yT1":0,"xT2":1058.1,"yT2":0,"toosoon":0,"cond_shown":"Congruent","ratio_trial":200,"L_num":6,"L_den":12,"R_num":7,"R_den":10,"correct_side":2,"subjID":"lunagonzalez20","gender":"1","school":"6","age":"10"},{"start_time":1551899864208,"click_time":1551899866888,"finger_time":1551899866368,"fix_duration":619.6919365249616,"trial":10,"RT":2160,"MT":520,"sideResp":2,"stimulus":[],"xmouse":[763,763,763,763,763,763,763,763,763,763,763,763,763,763,763,763,763,763,763,763,763,763,763,763,763,763,763,763,763,763,763,763,763,763,763,763,763,763,763,763,763,763,763,763,763,763,763,763,763,763,763,763,763,763,763,763,763,763,763,762,760,760,760,760,760,760,760,760,760,760,760,760,760,760,760,759,759,760,760,760,760,760,760,760,760,760,760,760,760,760,760,760,760,760,760,760,760,760,760,760,760,760,760,760,761,782,795,806,819,835,890,938,950,956,972,1038,1073,1093,1106,1116,1141,1155,1156,1155,1152,1150,1149,1148,1146,1143,1136,1133,1133,1132,1130],"ymouse":[530,530,530,530,530,530,530,530,530,530,530,530,530,530,530,530,530,530,530,530,530,530,530,530,530,530,530,530,530,530,530,530,530,530,530,530,530,530,530,530,530,530,530,530,530,530,530,530,530,530,530,530,530,530,530,530,530,530,530,530,530,530,530,530,530,530,530,530,530,530,530,530,530,530,530,530,528,527,527,527,527,527,527,527,527,527,527,527,527,527,527,527,527,527,527,527,527,527,527,527,527,527,527,527,525,514,508,503,495,487,469,458,457,453,442,402,383,363,346,329,285,247,229,215,202,185,181,176,172,167,150,133,120,107,99],"timestamp_mouse":[1,19,39,59,79,100,121,140,159,179,200,220,239,259,279,300,319,339,359,380,401,420,439,459,480,500,520,540,559,580,599,619,640,660,680,699,719,740,759,779,801,820,839,859,880,900,920,939,959,980,999,1019,1040,1060,1079,1099,1120,1140,1160,1179,1199,1219,1239,1259,1279,1299,1321,1340,1360,1379,1401,1420,1440,1459,1479,1499,1519,1541,1559,1579,1599,1620,1639,1659,1679,1700,1720,1739,1760,1779,1799,1819,1840,1859,1880,1899,1920,1940,1960,1979,1999,2019,2039,2059,2079,2099,2119,2140,2160,2180,2199,2220,2240,2259,2280,2300,2320,2340,2360,2380,2400,2419,2439,2459,2479,2500,2519,2540,2559,2579,2600,2619,2640,2659,2680],"xSR":741.5,"ySR":501.8,"xT1":424.9,"yT1":0,"xT2":1058.1,"yT2":0,"toosoon":0,"cond_shown":"Congruent","ratio_trial":100,"L_num":2,"L_den":5,"R_num":11,"R_den":22,"correct_side":2,"subjID":"lunagonzalez20","gender":"1","school":"6","age":"10"},{"start_time":1551899882978,"click_time":1551899885647,"finger_time":1551899884808,"fix_duration":849.1160845203108,"trial":11,"RT":1830,"MT":839,"sideResp":2,"stimulus":[],"xmouse":[777,777,777,777,777,777,777,777,777,777,777,777,777,777,777,777,777,777,777,777,777,777,777,777,777,777,777,777,777,777,777,777,777,777,777,777,777,777,777,777,777,777,777,777,777,777,777,777,777,777,777,777,777,777,777,777,777,777,777,777,777,777,777,777,777,777,777,777,777,777,777,777,777,777,777,777,777,777,777,777,777,777,777,777,777,777,777,777,777,777,835,928,1105,1331,1390,1413,1436,1475,1521,1531,1531,1531,1531,1531,1531,1531,1531,1531,1531,1531,1531,1531,1531,1240,1219,1213,1209,1207,1202,1183,1174,1170,1166,1163,1162,1161,1161,1161,1161,1161,1161,1161,1161,1157],"ymouse":[523,523,523,523,523,523,523,523,523,523,523,523,523,523,523,523,523,523,523,523,523,523,523,523,523,523,523,523,523,523,523,523,523,523,523,523,523,523,523,523,523,523,523,523,523,523,523,523,523,523,523,523,523,522,522,522,522,522,522,522,522,522,522,522,522,522,522,522,522,522,522,522,522,522,522,522,522,522,522,522,522,522,522,522,522,522,522,522,522,522,507,492,459,401,345,298,242,153,33,3,3,3,3,3,3,3,3,3,3,3,3,3,3,8,37,45,49,51,52,54,54,54,54,54,53,53,53,53,53,53,53,53,53,52],"timestamp_mouse":[10,37,49,69,91,109,130,149,170,190,209,229,249,269,289,310,329,349,369,390,410,429,449,469,489,509,529,549,569,589,609,631,650,671,690,710,730,751,769,789,811,830,850,869,889,910,930,950,969,989,1011,1030,1049,1069,1090,1109,1129,1149,1169,1189,1210,1230,1250,1269,1289,1309,1329,1349,1369,1389,1410,1430,1449,1469,1490,1509,1529,1550,1569,1589,1609,1629,1649,1669,1689,1709,1729,1749,1769,1791,1809,1829,1850,1870,1889,1909,1929,1949,1970,1989,2010,2030,2050,2071,2090,2110,2129,2150,2170,2189,2209,2229,2250,2270,2289,2309,2329,2349,2369,2389,2409,2429,2449,2469,2489,2509,2529,2550,2570,2590,2610,2629,2649,2669],"xSR":741.5,"ySR":501.8,"xT1":424.9,"yT1":0,"xT2":1058.1,"yT2":0,"toosoon":0,"cond_shown":"Incongruent","ratio_trial":100,"L_num":17,"L_den":30,"R_num":10,"R_den":15,"correct_side":2,"subjID":"lunagonzalez20","gender":"1","school":"6","age":"10"},{"start_time":1551899889849,"click_time":1551899891749,"finger_time":1551899891307,"fix_duration":920.1240046825716,"trial":12,"RT":1458,"MT":442,"sideResp":1,"stimulus":[],"xmouse":[766,766,766,766,766,766,766,766,766,766,766,766,766,766,766,766,766,766,766,766,766,766,766,766,766,766,766,766,766,766,766,766,766,766,766,766,766,766,766,766,766,766,766,766,766,766,766,766,766,766,766,766,766,766,766,766,766,766,766,766,766,766,766,766,766,766,766,766,766,766,766,761,742,727,716,709,694,679,667,650,606,589,573,568,566,566,565,564,561,557,548,543,537,527,522],"ymouse":[554,554,554,554,554,554,554,554,554,554,554,554,554,554,554,554,554,554,554,554,554,554,554,554,554,554,554,554,554,554,554,554,554,554,554,554,554,554,554,554,554,554,554,554,554,554,554,554,554,554,554,554,554,554,554,554,554,554,554,554,554,554,554,554,554,554,554,554,554,554,554,531,480,431,402,385,366,346,329,302,234,196,170,156,145,137,133,127,120,115,105,102,98,93,90],"timestamp_mouse":[18,39,63,78,99,120,138,158,178,198,219,238,259,279,299,319,338,358,378,398,418,438,459,478,498,518,539,558,578,598,620,639,658,678,698,718,738,758,779,799,819,838,859,878,898,918,938,958,978,998,1018,1038,1058,1079,1098,1119,1138,1158,1179,1199,1220,1239,1258,1278,1298,1318,1338,1358,1378,1398,1418,1438,1458,1479,1499,1518,1538,1558,1579,1599,1618,1638,1658,1678,1698,1719,1739,1758,1778,1799,1818,1838,1858,1879,1900],"xSR":741.5,"ySR":501.8,"xT1":424.9,"yT1":0,"xT2":1058.1,"yT2":0,"toosoon":0,"cond_shown":"Congruent","ratio_trial":300,"L_num":11,"L_den":22,"R_num":2,"R_den":10,"correct_side":1,"subjID":"lunagonzalez20","gender":"1","school":"6","age":"10"},{"start_time":1551899895560,"click_time":1551899898328,"finger_time":1551899897868,"fix_duration":1330.1457047063896,"trial":13,"RT":2308,"MT":460,"sideResp":1,"stimulus":[],"xmouse":[784,784,784,784,784,784,784,784,784,784,784,784,784,784,784,784,784,784,784,784,784,784,784,784,784,784,784,784,784,784,784,784,784,784,784,784,784,784,784,784,784,784,784,784,784,784,784,784,784,784,784,784,784,784,784,784,784,784,784,784,784,784,784,784,784,784,784,784,784,784,784,784,784,784,784,784,784,784,784,784,784,784,784,784,784,784,784,784,784,784,784,784,784,784,784,784,784,784,784,784,784,784,784,784,784,784,784,784,784,784,784,784,784,783,779,767,717,686,639,568,547,547,547,547,547,547,547,547,547,547,547,547,547,547,547,547,547,428,432],"ymouse":[543,543,543,543,543,543,543,543,543,543,543,543,543,543,543,543,543,543,543,543,543,543,543,543,543,543,543,543,543,543,543,543,543,543,543,543,543,543,543,543,543,543,543,543,543,543,543,543,543,543,543,543,543,543,543,543,543,543,543,543,543,543,543,543,543,543,543,543,543,543,543,543,543,543,543,543,543,543,543,543,543,543,543,543,543,543,543,543,543,543,543,543,543,543,543,543,543,543,543,543,543,543,543,543,543,543,543,543,543,543,543,543,543,531,503,454,326,241,148,38,8,8,8,8,8,8,8,8,8,8,8,8,8,8,8,8,8,0,6],"timestamp_mouse":[25,37,48,67,87,107,127,147,169,187,207,227,247,267,288,309,327,348,367,387,407,427,447,469,488,507,527,547,567,588,608,628,648,667,688,708,728,748,767,787,807,828,847,867,888,908,927,947,967,987,1008,1027,1048,1067,1087,1107,1128,1147,1167,1187,1207,1227,1247,1268,1287,1307,1328,1348,1368,1388,1407,1428,1447,1468,1488,1509,1528,1549,1569,1588,1609,1627,1647,1667,1687,1707,1727,1747,1767,1787,1807,1828,1847,1868,1887,1908,1929,1947,1967,1987,2007,2027,2047,2067,2088,2107,2127,2148,2169,2187,2208,2229,2247,2268,2287,2307,2328,2348,2368,2387,2407,2427,2448,2467,2487,2507,2528,2548,2568,2587,2607,2628,2648,2668,2688,2707,2727,2749,2768],"xSR":741.5,"ySR":501.8,"xT1":424.9,"yT1":0,"xT2":1058.1,"yT2":0,"toosoon":0,"cond_shown":"Congruent","ratio_trial":200,"L_num":15,"L_den":25,"R_num":4,"R_den":10,"correct_side":1,"subjID":"lunagonzalez20","gender":"1","school":"6","age":"10"},{"start_time":1551899902097,"click_time":1551899904907,"finger_time":1551899904387,"fix_duration":1488.848179630251,"trial":14,"RT":2290,"MT":520,"sideResp":2,"stimulus":[],"xmouse":[815,815,815,815,815,815,815,815,815,815,815,815,815,815,815,815,815,815,815,815,815,815,815,815,815,815,815,815,815,815,815,815,815,815,815,815,815,815,815,815,815,815,815,815,815,815,815,815,815,815,815,815,815,815,815,815,815,815,815,815,815,815,815,815,815,815,815,815,815,815,815,815,815,815,815,815,815,815,815,815,815,815,815,815,815,815,815,815,815,815,815,815,815,815,815,815,815,815,815,815,815,815,815,815,815,815,815,815,815,815,815,815,821,828,843,877,898,910,930,937,962,969,974,980,991,1013,1019,1026,1032,1035,1037,1037,1037,1037,1038,1040,1042,1049,1068,1079,1123],"ymouse":[562,562,562,562,562,562,562,562,562,562,562,562,562,562,562,562,562,562,562,562,562,562,562,562,562,562,562,562,562,562,562,562,562,562,562,562,562,562,562,562,562,562,562,562,562,562,562,562,562,562,562,562,562,562,562,562,562,562,562,562,562,562,562,562,562,562,562,562,562,562,562,562,562,562,562,562,562,562,562,562,562,562,562,562,562,562,562,562,562,562,562,562,562,562,562,562,562,562,562,562,562,562,562,562,562,562,562,562,562,562,562,562,558,549,527,471,436,408,370,355,304,289,278,267,253,225,213,201,184,172,153,144,136,135,132,127,126,118,109,106,91],"timestamp_mouse":[12,37,50,72,90,110,130,150,171,190,211,230,252,271,290,310,330,350,370,391,411,431,450,470,490,510,531,551,570,590,611,632,651,670,690,710,730,751,770,790,810,830,851,870,891,911,930,951,970,991,1011,1030,1050,1071,1090,1111,1130,1151,1171,1191,1212,1231,1250,1270,1290,1310,1331,1351,1371,1390,1410,1430,1451,1470,1490,1511,1530,1550,1570,1592,1611,1630,1651,1670,1690,1710,1730,1751,1770,1790,1810,1831,1851,1870,1890,1910,1930,1950,1971,1990,2010,2030,2051,2070,2090,2110,2130,2150,2170,2190,2210,2230,2250,2271,2290,2310,2331,2350,2370,2390,2410,2430,2452,2470,2490,2510,2530,2551,2571,2590,2610,2631,2650,2671,2690,2710,2730,2751,2771,2790,2810],"xSR":741.5,"ySR":501.8,"xT1":424.9,"yT1":0,"xT2":1058.1,"yT2":0,"toosoon":0,"cond_shown":"Incongruent","ratio_trial":100,"L_num":4,"L_den":8,"R_num":8,"R_den":20,"correct_side":1,"subjID":"lunagonzalez20","gender":"1","school":"6","age":"10"},{"start_time":1551899907708,"click_time":1551899909327,"finger_time":1551899909108,"fix_duration":1039.6318448148618,"trial":15,"RT":1400,"MT":219,"sideResp":1,"stimulus":[],"xmouse":[810,810,810,810,810,810,810,810,810,810,810,810,810,810,810,810,810,810,810,810,810,810,810,810,810,810,810,810,810,810,810,810,810,810,810,810,810,810,810,810,810,810,810,810,810,810,810,810,810,810,810,810,810,810,810,810,810,810,810,810,810,810,810,810,810,810,810,810,810,810,799,783,773,768,760,748,719,676,642,599,556,513],"ymouse":[518,518,518,518,518,518,518,518,518,518,518,518,518,518,518,518,518,518,518,518,518,518,518,518,518,518,518,518,518,518,518,518,518,518,518,518,518,518,518,518,518,518,518,518,518,518,518,518,518,518,518,518,518,518,518,518,518,518,518,518,518,518,518,518,518,518,518,518,518,516,466,411,371,335,298,264,202,146,112,72,37,3],"timestamp_mouse":[1,19,39,59,79,99,121,139,159,179,199,219,241,260,279,299,319,339,359,380,399,420,439,460,479,499,520,539,560,579,601,619,639,660,680,699,719,739,759,779,799,819,839,859,879,900,920,939,959,979,999,1020,1039,1061,1079,1099,1120,1140,1159,1179,1201,1220,1240,1259,1279,1300,1319,1339,1360,1379,1400,1419,1439,1460,1480,1500,1519,1539,1559,1580,1599,1619],"xSR":741.5,"ySR":501.8,"xT1":424.9,"yT1":0,"xT2":1058.1,"yT2":0,"toosoon":0,"cond_shown":"Incongruent","ratio_trial":300,"L_num":13,"L_den":26,"R_num":12,"R_den":15,"correct_side":2,"subjID":"lunagonzalez20","gender":"1","school":"6","age":"10"},{"start_time":1551899911760,"click_time":1551899913527,"finger_time":1551899912989,"fix_duration":250,"trial":16,"RT":1229,"MT":538,"sideResp":2,"stimulus":[],"xmouse":[801,801,801,801,801,801,801,801,801,801,801,801,801,801,801,801,801,801,801,801,801,801,801,801,801,801,801,801,801,801,801,801,801,801,801,801,801,801,801,801,801,801,801,801,801,801,801,801,801,801,801,801,801,801,801,801,801,801,801,801,810,815,825,837,848,865,883,892,911,915,918,921,923,932,940,948,964,981,992,993,993,993,993,1021,1039,1048,1050,1053,1059],"ymouse":[521,521,521,521,521,521,521,521,521,522,522,522,522,522,522,522,522,522,522,522,522,522,522,522,522,522,522,522,522,522,522,522,522,522,522,522,522,522,522,522,522,522,522,522,522,522,522,522,522,522,522,522,522,522,522,522,522,522,522,522,507,499,485,468,453,435,400,360,267,234,211,191,175,146,136,128,119,114,111,111,111,111,111,107,105,102,101,98,92],"timestamp_mouse":[11,30,49,68,88,108,127,148,169,188,208,227,248,269,288,308,328,348,368,388,408,427,448,467,488,508,528,548,569,587,607,629,648,668,688,707,728,747,767,787,808,829,848,868,888,908,928,948,967,988,1008,1028,1048,1067,1088,1107,1128,1149,1168,1188,1208,1229,1248,1268,1288,1309,1328,1347,1367,1389,1409,1428,1448,1468,1487,1507,1529,1549,1567,1588,1608,1628,1648,1668,1688,1708,1728,1750,1767],"xSR":741.5,"ySR":501.8,"xT1":424.9,"yT1":0,"xT2":1058.1,"yT2":0,"toosoon":0,"cond_shown":"Incongruent","ratio_trial":300,"L_num":4,"L_den":20,"R_num":2,"R_den":4,"correct_side":2,"subjID":"lunagonzalez20","gender":"1","school":"6","age":"10"},{"start_time":1551899916671,"click_time":1551899918889,"finger_time":1551899918648,"fix_duration":522.6765087139853,"trial":17,"RT":1977,"MT":241,"sideResp":1,"stimulus":[],"xmouse":[803,803,803,803,803,803,803,803,803,803,803,803,803,803,803,803,803,803,803,803,803,803,803,803,803,803,803,803,803,803,803,803,803,803,803,803,803,803,803,803,803,803,803,803,803,803,803,803,803,803,803,803,803,803,803,803,803,803,803,803,803,803,803,803,803,803,803,803,803,803,803,803,803,803,803,803,803,803,803,803,803,803,803,803,803,803,803,803,803,803,803,803,803,803,803,803,803,799,792,776,749,725,697,689,686,679,669,624,586,547,510],"ymouse":[521,521,521,521,521,521,521,521,521,521,521,521,521,521,521,521,521,521,521,521,521,521,521,521,521,521,521,521,521,521,521,521,521,521,521,521,521,521,521,521,521,521,521,521,521,521,521,521,521,521,521,521,521,521,521,521,521,521,521,521,521,521,521,521,521,521,521,521,521,521,521,521,521,521,521,521,521,521,521,521,521,521,521,521,521,521,521,521,521,521,521,521,521,521,521,521,521,516,492,447,383,331,269,252,245,236,222,170,129,86,38],"timestamp_mouse":[16,39,57,76,97,117,137,158,177,197,217,237,257,277,297,316,337,357,377,397,418,438,457,478,497,516,536,557,578,598,617,637,656,676,696,716,736,757,777,797,818,838,857,877,897,917,936,957,977,996,1016,1037,1057,1076,1096,1117,1137,1157,1176,1197,1217,1237,1256,1276,1297,1318,1336,1356,1377,1397,1417,1436,1456,1476,1497,1517,1536,1557,1577,1597,1617,1636,1657,1677,1697,1717,1737,1757,1777,1797,1817,1837,1856,1876,1896,1917,1938,1957,1977,1998,2017,2037,2057,2077,2097,2117,2137,2157,2176,2196,2217],"xSR":741.5,"ySR":501.8,"xT1":424.9,"yT1":0,"xT2":1058.1,"yT2":0,"toosoon":0,"cond_shown":"Congruent","ratio_trial":100,"L_num":11,"L_den":22,"R_num":6,"R_den":15,"correct_side":1,"subjID":"lunagonzalez20","gender":"1","school":"6","age":"10"},{"start_time":1551899921959,"click_time":1551899923988,"finger_time":1551899923447,"fix_duration":510.7782506475833,"trial":18,"RT":1488,"MT":541,"sideResp":1,"stimulus":[],"xmouse":[791,791,791,791,791,791,791,790,790,790,790,789,789,789,789,789,789,789,789,789,789,789,789,789,789,789,789,789,789,789,789,789,789,789,789,789,789,789,789,789,789,789,789,789,789,789,789,789,789,789,789,789,789,789,789,789,789,789,789,789,789,789,789,789,789,789,789,789,789,789,789,788,787,786,782,780,776,771,761,757,751,745,739,731,709,692,659,644,620,600,595,590,588,583,569,558,545,535,530,529,527,524],"ymouse":[525,525,525,525,525,525,525,525,526,526,526,527,528,528,528,528,528,528,528,528,528,528,528,528,528,528,528,528,528,528,528,528,528,528,528,528,528,528,528,528,528,528,528,528,528,528,528,528,528,528,528,528,528,528,528,528,528,528,528,528,528,528,528,528,528,528,528,528,528,528,527,523,519,513,491,476,459,444,410,399,386,373,362,351,321,300,259,242,207,177,169,162,158,150,131,118,103,90,85,83,82,81],"timestamp_mouse":[9,36,49,69,89,109,129,149,169,189,209,228,248,269,290,309,329,348,369,388,409,429,449,469,489,509,529,549,569,589,610,629,650,669,689,709,729,749,768,788,810,829,848,869,888,908,928,949,969,988,1008,1029,1049,1070,1090,1109,1129,1149,1170,1189,1208,1228,1248,1268,1289,1308,1328,1349,1368,1390,1408,1430,1449,1469,1488,1509,1529,1549,1571,1588,1609,1629,1649,1668,1688,1709,1729,1749,1769,1788,1809,1829,1849,1869,1889,1909,1929,1948,1968,1990,2008,2028],"xSR":741.5,"ySR":501.8,"xT1":424.9,"yT1":0,"xT2":1058.1,"yT2":0,"toosoon":0,"cond_shown":"Incongruent","ratio_trial":300,"L_num":7,"L_den":10,"R_num":8,"R_den":20,"correct_side":1,"subjID":"lunagonzalez20","gender":"1","school":"6","age":"10"},{"start_time":1551899926237,"click_time":1551899928649,"finger_time":1551899927728,"fix_duration":848.0992937438273,"trial":19,"RT":1491,"MT":921,"sideResp":1,"stimulus":[],"xmouse":[788,788,788,788,788,788,788,788,788,788,788,788,788,788,788,788,788,788,788,788,788,788,788,788,788,788,788,788,788,788,788,788,788,788,788,788,788,788,788,788,788,788,788,788,788,788,788,788,788,788,788,788,788,788,788,788,788,788,788,788,788,788,788,788,788,788,788,788,788,788,788,785,781,776,771,763,743,730,717,708,698,689,687,686,684,684,684,684,684,684,684,684,684,684,684,684,684,684,684,684,684,684,684,682,681,680,676,673,669,661,651,617,607,597,591,574,564,553,540,531,508],"ymouse":[530,530,530,530,530,530,530,530,530,530,530,530,530,530,530,530,530,530,530,530,530,530,530,530,530,530,530,530,530,530,530,530,530,530,530,530,530,530,530,530,530,530,530,530,530,530,530,530,530,530,530,530,530,530,530,530,530,530,530,530,530,530,530,530,530,530,530,530,530,530,530,522,514,502,489,470,427,395,368,347,329,307,303,298,296,295,295,295,295,295,295,295,295,295,295,295,295,295,295,295,295,294,290,287,282,280,270,260,249,230,210,167,156,144,135,118,110,103,96,91,81],"timestamp_mouse":[13,42,51,71,92,111,131,152,171,191,210,230,251,272,291,311,331,351,372,391,411,431,451,471,491,510,531,551,571,592,611,631,650,671,692,711,731,751,770,791,810,831,851,871,890,911,931,951,971,991,1011,1032,1051,1071,1090,1111,1131,1151,1171,1191,1211,1231,1251,1271,1291,1311,1331,1351,1371,1391,1411,1431,1451,1471,1491,1511,1531,1552,1571,1591,1611,1631,1651,1670,1691,1711,1731,1751,1770,1791,1811,1830,1850,1871,1891,1911,1930,1950,1971,1991,2012,2031,2051,2071,2091,2111,2130,2152,2171,2192,2211,2231,2251,2271,2291,2311,2330,2351,2370,2391,2412],"xSR":741.5,"ySR":501.8,"xT1":424.9,"yT1":0,"xT2":1058.1,"yT2":0,"toosoon":0,"cond_shown":"Incongruent","ratio_trial":300,"L_num":3,"L_den":6,"R_num":4,"R_den":20,"correct_side":1,"subjID":"lunagonzalez20","gender":"1","school":"6","age":"10"},{"start_time":1551899930392,"click_time":1551899932168,"finger_time":1551899931928,"fix_duration":662.9563450962787,"trial":20,"RT":1536,"MT":240,"sideResp":1,"stimulus":[],"xmouse":[817,817,817,817,817,817,817,817,817,817,817,817,817,817,817,817,817,817,817,817,817,817,817,817,817,817,817,817,817,817,817,817,817,817,817,817,817,817,817,817,817,817,817,817,817,817,817,817,817,817,817,817,817,817,817,817,817,817,817,817,817,817,817,817,817,817,817,817,817,817,817,817,817,817,817,810,803,791,750,725,694,661,633,603,590,574,557,539,508],"ymouse":[532,532,532,532,532,532,532,532,532,532,532,532,532,532,532,532,532,532,532,532,532,532,532,532,532,532,532,532,532,532,532,532,532,532,532,532,532,532,532,532,532,532,532,532,532,532,532,532,532,532,532,532,532,532,532,532,532,532,532,532,532,532,532,532,532,532,532,532,532,532,532,532,532,532,532,513,498,469,384,337,286,243,214,178,163,148,133,117,95],"timestamp_mouse":[16,37,56,76,96,116,136,156,177,195,215,236,257,276,296,316,335,355,377,396,416,437,456,476,495,516,536,555,575,596,616,636,656,676,696,716,737,756,776,796,816,835,855,876,896,916,937,955,976,996,1016,1036,1056,1076,1096,1116,1136,1156,1176,1196,1215,1236,1256,1276,1296,1316,1335,1355,1376,1395,1416,1436,1457,1476,1496,1517,1536,1555,1576,1595,1616,1636,1656,1676,1695,1716,1736,1756,1776],"xSR":741.5,"ySR":501.8,"xT1":424.9,"yT1":0,"xT2":1058.1,"yT2":0,"toosoon":0,"cond_shown":"Congruent","ratio_trial":100,"L_num":11,"L_den":22,"R_num":4,"R_den":10,"correct_side":1,"subjID":"lunagonzalez20","gender":"1","school":"6","age":"10"},{"start_time":1551899934459,"click_time":1551899936148,"finger_time":1551899935887,"fix_duration":1289.7402477872317,"trial":21,"RT":1428,"MT":261,"sideResp":2,"stimulus":[],"xmouse":[804,804,804,804,804,804,804,804,804,804,804,804,804,804,804,804,804,804,804,804,804,804,804,804,804,804,804,804,804,804,804,804,804,804,804,804,804,804,804,804,804,804,804,804,804,804,804,804,804,804,804,804,804,804,804,804,804,804,804,804,804,804,804,804,804,804,804,804,803,803,805,807,808,812,820,843,872,886,894,903,937,966,1010,1048,1078],"ymouse":[547,547,547,547,547,547,547,547,547,547,547,547,547,547,547,547,547,547,547,547,547,547,547,547,547,547,547,547,547,547,547,547,547,547,547,547,547,547,547,547,547,547,547,547,547,547,547,547,547,547,547,547,547,547,547,547,547,547,547,547,547,547,547,547,547,547,547,547,546,543,511,496,478,448,388,266,195,169,157,148,121,103,80,57,37],"timestamp_mouse":[9,29,48,69,89,109,130,149,169,189,209,229,248,269,290,309,329,349,369,389,409,429,449,470,488,508,528,549,568,588,609,629,650,669,689,709,729,749,769,789,808,829,849,868,888,908,928,948,969,989,1009,1029,1049,1069,1088,1108,1129,1148,1169,1189,1209,1230,1249,1269,1289,1309,1328,1348,1368,1389,1408,1428,1449,1469,1489,1509,1528,1548,1569,1589,1609,1628,1649,1669,1688],"xSR":741.5,"ySR":501.8,"xT1":424.9,"yT1":0,"xT2":1058.1,"yT2":0,"toosoon":0,"cond_shown":"Incongruent","ratio_trial":100,"L_num":13,"L_den":26,"R_num":12,"R_den":20,"correct_side":2,"subjID":"lunagonzalez20","gender":"1","school":"6","age":"10"},{"start_time":1551899937499,"click_time":1551899938988,"finger_time":1551899938788,"fix_duration":250,"trial":22,"RT":1289,"MT":200,"sideResp":2,"stimulus":[],"xmouse":[772,772,772,772,772,772,772,772,772,772,772,772,772,772,772,772,772,772,772,772,772,772,772,772,772,772,772,772,772,772,772,772,772,772,772,772,772,772,772,772,772,772,772,772,772,772,772,772,772,772,772,772,772,772,772,772,772,772,772,772,772,772,772,780,805,839,869,885,901,963,1006,1043,1059,1070,1086],"ymouse":[537,537,537,537,537,537,537,537,537,537,537,537,537,537,537,537,537,537,537,537,537,537,537,537,537,537,537,537,537,537,537,537,537,537,537,537,537,537,537,537,537,537,537,537,537,537,537,537,537,537,537,537,537,537,537,537,537,537,537,537,537,537,537,516,482,435,391,356,325,225,170,133,118,109,95],"timestamp_mouse":[10,39,49,68,90,110,129,148,168,189,210,229,248,268,289,309,329,349,369,390,408,429,449,469,490,509,529,549,568,589,610,629,649,669,689,710,729,749,769,790,809,829,848,869,889,910,930,949,969,989,1010,1028,1048,1069,1089,1110,1129,1149,1169,1188,1209,1230,1249,1269,1289,1309,1329,1349,1370,1388,1409,1428,1450,1469,1489],"xSR":741.5,"ySR":501.8,"xT1":424.9,"yT1":0,"xT2":1058.1,"yT2":0,"toosoon":0,"cond_shown":"Congruent","ratio_trial":100,"L_num":6,"L_den":12,"R_num":15,"R_den":25,"correct_side":2,"subjID":"lunagonzalez20","gender":"1","school":"6","age":"10"},{"start_time":1551899941003,"click_time":1551899943008,"finger_time":1551899942348,"fix_duration":554.7664101250307,"trial":23,"RT":1345,"MT":660,"sideResp":1,"stimulus":[],"xmouse":[778,778,778,778,778,778,778,778,778,778,778,778,778,778,778,778,778,778,778,778,778,778,778,778,778,778,778,777,777,777,777,777,777,777,777,777,777,777,777,777,777,777,777,777,777,777,777,777,777,777,777,777,777,777,777,777,777,777,777,777,777,777,777,777,775,775,774,772,771,770,770,770,770,770,761,755,747,741,734,707,691,676,658,645,630,625,621,614,607,596,594,594,594,591,578,577,577,571,557,528,522],"ymouse":[525,525,525,525,525,525,525,525,525,525,525,525,525,525,525,525,525,525,525,525,525,525,525,525,525,525,525,525,525,525,525,525,525,525,524,524,524,524,524,524,524,524,524,524,524,524,524,524,524,524,524,524,524,524,524,524,524,524,524,524,524,524,524,524,523,520,510,495,476,437,425,411,396,381,349,332,312,301,285,243,220,199,174,156,129,120,113,103,95,87,86,86,86,86,86,86,86,85,81,73,71],"timestamp_mouse":[13,35,45,65,85,106,126,145,164,185,204,225,245,265,285,304,325,346,365,386,404,425,444,465,486,505,525,545,564,584,604,625,644,665,684,705,726,744,764,786,805,825,846,866,886,905,925,946,964,984,1006,1025,1045,1064,1084,1106,1126,1145,1165,1185,1205,1225,1245,1265,1284,1306,1325,1345,1365,1385,1405,1425,1444,1464,1485,1506,1525,1545,1564,1586,1605,1625,1645,1664,1684,1705,1725,1745,1765,1785,1805,1825,1845,1864,1884,1904,1924,1945,1965,1985,2004],"xSR":741.5,"ySR":501.8,"xT1":424.9,"yT1":0,"xT2":1058.1,"yT2":0,"toosoon":0,"cond_shown":"Incongruent","ratio_trial":300,"L_num":3,"L_den":6,"R_num":4,"R_den":20,"correct_side":1,"subjID":"lunagonzalez20","gender":"1","school":"6","age":"10"},{"start_time":1551899947784,"click_time":1551899949208,"finger_time":1551899949108,"fix_duration":1355.384003796261,"trial":24,"RT":1324,"MT":100,"sideResp":2,"stimulus":[],"xmouse":[825,825,825,825,825,825,825,825,825,825,825,825,825,825,825,825,825,825,825,825,825,825,825,825,825,825,825,825,825,825,825,825,825,825,825,825,825,825,825,825,825,825,825,825,825,825,825,825,825,825,825,825,825,825,825,825,825,825,825,825,825,825,825,825,825,826,904,964,1007,1040,1066,1116],"ymouse":[526,526,526,526,526,526,526,526,526,526,526,526,526,526,526,526,526,526,526,526,526,526,526,526,526,526,526,526,526,526,526,526,526,526,526,526,526,526,526,526,526,526,526,526,526,526,526,526,526,526,526,526,526,526,526,526,526,526,526,526,526,526,526,526,526,517,439,380,318,257,192,50],"timestamp_mouse":[10,24,44,63,83,104,123,145,164,184,205,224,245,264,284,304,324,344,364,383,403,424,444,464,484,504,525,544,564,584,604,624,643,663,684,705,724,743,763,783,803,823,844,864,884,904,924,944,964,984,1004,1024,1045,1065,1084,1103,1125,1144,1163,1183,1204,1225,1244,1265,1283,1304,1324,1343,1363,1383,1403,1424],"xSR":741.5,"ySR":501.8,"xT1":424.9,"yT1":0,"xT2":1058.1,"yT2":0,"toosoon":0,"cond_shown":"Incongruent","ratio_trial":100,"L_num":12,"L_den":30,"R_num":2,"R_den":4,"correct_side":2,"subjID":"lunagonzalez20","gender":"1","school":"6","age":"10"},{"start_time":1551899952459,"click_time":1551899954408,"finger_time":1551899953807,"fix_duration":950.0180984309854,"trial":25,"RT":1348,"MT":601,"sideResp":2,"stimulus":[],"xmouse":[797,797,797,797,797,797,797,797,797,797,797,797,797,797,797,797,797,797,797,797,797,797,797,797,797,797,797,797,797,797,797,797,797,797,797,797,797,797,797,797,797,797,797,797,797,797,797,797,797,797,797,797,797,797,797,797,797,797,797,797,797,797,797,801,808,818,833,871,891,906,926,940,950,958,958,958,958,979,1002,1014,1026,1035,1038,1038,1038,1038,1038,1038,1038,1038,1039,1042,1059,1068,1076,1083,1086,1088],"ymouse":[531,531,531,531,531,531,531,531,531,531,531,531,531,531,531,531,531,531,531,531,531,531,531,531,531,531,531,531,531,531,531,531,531,531,531,531,531,531,531,531,531,531,531,531,531,531,531,531,531,531,531,531,531,531,531,531,531,531,531,531,531,531,531,529,524,515,505,458,435,417,395,379,366,355,354,354,354,339,312,291,267,242,213,210,207,206,205,201,195,192,187,180,156,142,127,114,105,98],"timestamp_mouse":[9,29,48,72,88,109,129,150,169,188,209,229,248,269,289,309,329,350,369,390,408,428,449,469,490,510,529,548,568,589,608,629,649,669,688,708,729,749,768,789,809,829,849,868,888,909,929,949,968,990,1009,1029,1049,1070,1090,1109,1129,1150,1168,1189,1209,1229,1249,1269,1290,1309,1329,1348,1370,1390,1409,1429,1448,1470,1488,1508,1528,1548,1569,1588,1610,1628,1648,1668,1688,1710,1729,1749,1769,1788,1808,1829,1849,1868,1889,1908,1929,1949],"xSR":741.5,"ySR":501.8,"xT1":424.9,"yT1":0,"xT2":1058.1,"yT2":0,"toosoon":0,"cond_shown":"Congruent","ratio_trial":300,"L_num":3,"L_den":12,"R_num":11,"R_den":20,"correct_side":2,"subjID":"lunagonzalez20","gender":"1","school":"6","age":"10"},{"start_time":1551899960150,"click_time":1551899961948,"finger_time":1551899961589,"fix_duration":1081.8906411366231,"trial":26,"RT":1439,"MT":359,"sideResp":2,"stimulus":[],"xmouse":[816,816,816,816,816,816,816,816,816,816,816,816,816,816,816,816,816,816,816,816,816,816,816,816,816,816,816,816,816,816,816,816,816,816,816,816,816,816,816,816,816,816,816,816,816,816,816,816,816,816,816,816,816,816,816,816,816,816,816,816,816,816,816,816,816,816,816,816,816,817,841,888,944,1024,1042,1055,1065,1073,1076,1076,1076,1076,1076,1077,1079,1079,1080,1083,1087,1088],"ymouse":[570,570,570,570,570,570,570,570,570,570,570,570,570,570,570,570,570,570,570,570,570,570,570,570,570,570,570,570,570,570,570,570,570,570,570,570,570,570,570,570,570,570,570,570,570,570,570,570,570,570,570,570,570,570,570,570,570,570,570,570,570,570,570,568,568,568,568,568,568,566,552,507,458,359,304,263,236,222,216,216,216,216,216,211,206,200,192,174,126,79],"timestamp_mouse":[18,39,57,77,99,119,138,158,178,198,218,237,258,278,298,318,337,359,378,399,418,438,459,478,498,518,539,558,578,599,618,637,658,678,698,718,738,757,778,798,819,838,857,877,898,919,938,957,977,998,1018,1038,1058,1078,1097,1117,1138,1158,1178,1198,1218,1239,1258,1278,1298,1319,1337,1358,1378,1398,1417,1439,1458,1478,1497,1517,1538,1559,1578,1598,1618,1638,1657,1677,1697,1718,1738,1758,1778,1798],"xSR":741.5,"ySR":501.8,"xT1":424.9,"yT1":0,"xT2":1058.1,"yT2":0,"toosoon":0,"cond_shown":"Incongruent","ratio_trial":300,"L_num":13,"L_den":26,"R_num":12,"R_den":15,"correct_side":2,"subjID":"lunagonzalez20","gender":"1","school":"6","age":"10"},{"start_time":1551899964765,"click_time":1551899966988,"finger_time":1551899966228,"fix_duration":1136.5002138338943,"trial":27,"RT":1463,"MT":760,"sideResp":1,"stimulus":[],"xmouse":[806,806,806,806,806,806,806,806,806,806,806,806,806,806,806,806,806,806,806,806,806,806,806,806,806,806,806,808,810,810,810,810,810,810,810,810,810,810,810,810,810,810,810,810,810,810,810,810,810,810,810,810,810,810,810,810,810,810,810,810,810,810,810,810,810,810,810,810,810,810,810,810,810,810,797,789,780,777,773,767,765,761,758,755,750,747,745,742,741,739,738,737,734,731,721,716,707,706,699,693,692,688,686,675,662,645,621,587,571,543,533,523],"ymouse":[518,518,518,518,518,518,518,518,518,518,518,518,518,518,518,518,518,518,518,518,518,518,518,518,518,518,518,517,516,516,516,516,516,516,516,516,516,516,516,516,516,516,516,516,516,516,516,516,516,516,516,516,516,516,516,516,516,516,516,516,516,516,516,516,516,516,516,516,516,516,516,516,516,501,462,434,387,359,335,297,284,273,264,258,245,240,235,231,230,228,226,221,215,209,191,183,170,167,158,153,152,149,148,139,133,126,118,108,102,90,82,74],"timestamp_mouse":[12,33,43,64,83,104,123,142,162,183,204,222,242,262,283,303,322,344,363,383,403,423,443,463,482,504,522,544,564,583,603,623,643,663,683,704,723,743,763,783,804,823,842,862,883,904,923,944,963,983,1003,1022,1044,1064,1084,1103,1123,1143,1164,1183,1202,1223,1243,1263,1283,1303,1322,1343,1364,1383,1403,1423,1442,1463,1482,1503,1522,1542,1562,1583,1602,1622,1642,1662,1682,1703,1723,1743,1762,1782,1802,1822,1842,1862,1883,1902,1923,1943,1963,1982,2002,2024,2043,2064,2083,2102,2123,2142,2163,2183,2203,2223],"xSR":741.5,"ySR":501.8,"xT1":424.9,"yT1":0,"xT2":1058.1,"yT2":0,"toosoon":0,"cond_shown":"Incongruent","ratio_trial":200,"L_num":7,"L_den":10,"R_num":8,"R_den":16,"correct_side":1,"subjID":"lunagonzalez20","gender":"1","school":"6","age":"10"},{"start_time":1551899970166,"click_time":1551899972448,"finger_time":1551899971747,"fix_duration":356.3758620308129,"trial":28,"RT":1581,"MT":701,"sideResp":2,"stimulus":[],"xmouse":[807,807,807,807,807,807,807,807,807,807,808,808,808,808,808,808,808,808,808,808,808,808,808,808,808,808,808,808,808,808,808,808,808,808,808,808,808,808,808,808,808,808,808,808,808,808,808,808,808,808,808,808,808,808,808,808,808,808,808,808,808,808,808,808,808,808,808,808,808,806,806,806,806,806,806,809,809,811,813,821,830,846,871,889,932,941,945,949,949,950,950,950,951,953,957,969,975,982,989,997,1014,1023,1033,1039,1042,1047,1047,1047,1047,1047,1047,1047,1048,1054,1065],"ymouse":[540,540,540,540,540,540,540,540,540,540,540,540,540,540,540,540,540,540,540,540,540,540,540,540,540,540,540,540,540,540,540,540,540,540,540,540,540,540,540,540,540,540,540,540,540,540,540,540,540,540,540,540,540,540,540,540,540,540,540,540,540,540,540,540,540,540,540,540,540,540,540,540,540,539,537,529,526,523,518,497,476,450,412,380,299,277,262,250,246,243,241,241,239,235,227,197,182,170,157,146,128,119,112,107,104,99,99,99,99,99,99,99,98,93,83],"timestamp_mouse":[15,25,41,63,83,102,122,141,162,182,202,222,242,262,282,302,321,343,364,381,401,421,442,463,483,503,522,542,561,582,601,621,641,662,682,702,722,742,762,782,802,822,841,863,883,902,922,941,962,981,1002,1022,1042,1062,1082,1102,1121,1142,1161,1182,1202,1221,1242,1262,1282,1301,1322,1343,1361,1382,1403,1422,1442,1461,1481,1501,1521,1542,1562,1581,1601,1621,1641,1662,1682,1701,1721,1741,1762,1782,1801,1822,1841,1863,1882,1902,1921,1943,1962,1982,2001,2022,2041,2061,2082,2101,2121,2141,2161,2182,2201,2223,2241,2261,2281],"xSR":741.5,"ySR":501.8,"xT1":424.9,"yT1":0,"xT2":1058.1,"yT2":0,"toosoon":0,"cond_shown":"Incongruent","ratio_trial":100,"L_num":13,"L_den":26,"R_num":6,"R_den":10,"correct_side":2,"subjID":"lunagonzalez20","gender":"1","school":"6","age":"10"},{"start_time":1551899978559,"click_time":1551899980988,"finger_time":1551899980168,"fix_duration":250,"trial":29,"RT":1609,"MT":820,"sideResp":1,"stimulus":[],"xmouse":[794,794,794,794,794,794,794,794,794,794,794,794,794,794,794,794,794,794,794,794,794,794,794,794,794,794,794,794,794,794,794,794,794,794,794,794,794,794,794,794,794,794,794,794,794,794,794,794,794,794,794,794,794,794,794,794,794,794,794,794,794,794,794,794,794,794,794,794,794,794,794,794,794,794,794,794,794,788,788,785,780,765,758,748,735,710,702,694,688,684,678,676,673,671,666,659,641,627,615,601,575,568,563,562,562,562,562,562,562,558,548,542,538,536,536,536,536,536,536,535,526,521],"ymouse":[539,539,539,539,539,539,539,539,539,539,539,539,539,539,539,539,539,539,539,539,539,539,539,539,539,539,539,539,539,539,539,539,539,539,539,539,539,539,539,539,539,539,539,539,539,539,539,539,539,539,539,539,539,539,539,539,539,539,539,539,539,539,539,539,539,539,539,539,539,539,539,539,539,539,539,539,539,531,527,517,500,448,424,400,369,310,290,272,258,249,233,227,222,218,210,198,167,143,121,97,49,35,27,25,25,25,25,25,25,25,25,26,27,27,27,27,27,27,27,28,33,36],"timestamp_mouse":[9,43,49,69,88,108,128,148,169,189,208,228,249,269,288,309,329,351,368,389,408,429,449,469,488,510,529,548,569,588,608,628,650,668,688,708,728,748,769,789,809,828,848,868,890,909,929,949,968,988,1008,1030,1050,1069,1088,1108,1129,1149,1169,1188,1208,1229,1248,1268,1288,1308,1330,1349,1369,1388,1409,1428,1448,1468,1489,1509,1530,1549,1569,1589,1609,1629,1648,1668,1688,1709,1728,1748,1768,1788,1809,1828,1848,1869,1889,1909,1928,1948,1968,1988,2009,2028,2048,2069,2089,2109,2129,2148,2168,2189,2209,2228,2248,2268,2290,2309,2329,2348,2368,2389,2409,2429],"xSR":741.5,"ySR":501.8,"xT1":424.9,"yT1":0,"xT2":1058.1,"yT2":0,"toosoon":0,"cond_shown":"Congruent","ratio_trial":100,"L_num":9,"L_den":15,"R_num":8,"R_den":16,"correct_side":1,"subjID":"lunagonzalez20","gender":"1","school":"6","age":"10"},{"start_time":1551899985540,"click_time":1551899987388,"finger_time":1551899986668,"fix_duration":250,"trial":30,"RT":1128,"MT":720,"sideResp":1,"stimulus":[],"xmouse":[799,799,799,799,799,799,799,799,799,799,796,794,794,794,794,794,794,794,794,794,794,794,794,794,794,794,794,794,794,794,794,794,794,794,794,794,794,794,794,794,794,794,794,794,794,794,794,794,794,794,794,794,794,799,800,800,800,798,793,787,784,778,766,754,734,712,692,692,692,692,692,692,692,692,692,692,692,692,692,692,692,692,692,692,692,692,692,692,692,692,692,493,487],"ymouse":[549,549,549,549,549,549,549,549,549,549,545,536,536,536,536,536,536,536,536,536,536,536,536,536,536,536,536,536,536,536,536,536,536,536,536,536,536,536,536,536,536,536,536,536,536,536,536,536,536,536,536,536,536,523,512,504,494,480,444,410,380,341,233,167,109,60,10,10,10,10,10,10,10,10,10,10,10,10,10,10,10,10,10,10,10,10,10,10,10,10,10,0,13],"timestamp_mouse":[9,38,48,68,87,108,128,147,167,187,208,228,248,267,288,308,327,348,367,387,407,427,447,467,488,508,529,549,569,587,607,627,648,667,688,707,727,748,768,787,808,828,848,868,888,907,929,947,967,987,1008,1028,1047,1067,1087,1107,1128,1147,1167,1187,1207,1227,1248,1267,1288,1308,1327,1347,1368,1387,1407,1427,1447,1468,1487,1507,1528,1549,1567,1587,1607,1627,1648,1667,1687,1707,1727,1748,1768,1788,1807,1827,1848],"xSR":741.5,"ySR":501.8,"xT1":424.9,"yT1":0,"xT2":1058.1,"yT2":0,"toosoon":0,"cond_shown":"Incongruent","ratio_trial":300,"L_num":4,"L_den":5,"R_num":6,"R_den":12,"correct_side":1,"subjID":"lunagonzalez20","gender":"1","school":"6","age":"10"},{"start_time":1551899989599,"click_time":1551899991207,"finger_time":1551899990727,"fix_duration":250,"trial":31,"RT":1128,"MT":480,"sideResp":2,"stimulus":[],"xmouse":[827,827,827,827,827,827,827,827,827,827,827,827,827,827,827,827,827,827,827,827,827,827,827,827,827,827,827,827,827,827,827,827,827,827,827,827,827,827,827,827,827,827,827,827,827,827,827,827,827,827,827,827,826,829,830,836,846,857,865,888,904,923,937,952,975,983,995,1010,1022,1030,1032,1033,1033,1034,1034,1034,1034,1036,1042,1058,1068],"ymouse":[537,537,537,537,537,537,537,537,537,537,537,537,537,537,537,537,537,537,537,537,537,537,537,537,537,537,537,537,537,537,537,537,537,537,537,537,537,537,537,537,537,537,537,537,537,537,537,537,537,537,537,537,537,533,532,528,520,510,505,487,475,462,452,441,423,414,400,382,366,348,338,323,305,282,255,189,164,140,117,80,66],"timestamp_mouse":[13,37,49,69,89,108,128,149,168,188,209,228,249,269,288,308,328,349,369,389,408,428,448,470,489,510,530,549,569,588,608,628,649,668,690,710,729,749,769,789,808,829,848,868,888,908,928,948,969,989,1008,1030,1049,1068,1088,1108,1128,1148,1169,1189,1208,1229,1249,1269,1290,1308,1328,1349,1368,1389,1408,1429,1448,1468,1488,1508,1529,1548,1568,1590,1608],"xSR":741.5,"ySR":501.8,"xT1":424.9,"yT1":0,"xT2":1058.1,"yT2":0,"toosoon":0,"cond_shown":"Incongruent","ratio_trial":200,"L_num":9,"L_den":15,"R_num":8,"R_den":10,"correct_side":2,"subjID":"lunagonzalez20","gender":"1","school":"6","age":"10"},{"start_time":1551899992812,"click_time":1551899995928,"finger_time":1551899994148,"fix_duration":302.3579490715194,"trial":32,"RT":1336,"MT":1780,"sideResp":2,"stimulus":[],"xmouse":[813,813,813,813,813,813,813,813,813,813,813,813,813,813,813,813,813,813,813,813,813,813,813,813,813,813,813,813,813,813,813,813,813,813,813,813,813,813,813,813,813,813,813,813,813,813,813,813,813,813,813,813,813,813,813,813,813,813,813,813,813,813,813,813,814,833,850,856,858,858,858,858,859,859,859,859,859,859,859,861,866,871,875,881,895,903,910,915,921,932,943,944,955,967,984,993,1001,1008,1017,1025,1035,1042,1045,1047,1059,1066,1071,1075,1078,1080,1080,1080,1080,1080,1080,1080,1080,1080,1080,1080,1080,1081,1083,1085,1088,1090,1093,1096,1099,1104,1105,1106,1107,1108,1108,1108,1108,1108,1108,1108,1108,1108,1108,1108,1108,1108,1108,1108,1108,1108,1108,1108,1108,1108,1108,1109],"ymouse":[547,547,547,547,547,547,547,547,547,547,547,547,547,547,547,547,547,547,547,547,547,547,547,547,547,547,547,547,547,547,547,547,547,547,547,547,547,547,547,547,547,547,547,547,547,547,547,547,547,547,547,547,547,547,547,547,547,547,547,547,547,547,547,547,547,537,524,519,518,517,517,517,517,517,517,517,517,517,517,515,512,509,506,502,491,485,479,475,470,461,452,451,443,434,421,415,408,399,383,369,346,331,324,319,297,288,276,266,257,247,244,243,242,241,236,229,221,214,205,191,178,169,162,157,149,145,140,137,133,125,119,116,114,111,109,108,108,106,105,105,105,105,105,105,104,104,104,104,104,104,103,103,102,102,101,99],"timestamp_mouse":[15,40,56,76,95,115,135,156,175,196,215,236,256,275,295,315,335,355,375,396,415,436,455,475,497,515,536,556,577,595,615,636,655,675,695,715,736,756,775,797,816,835,855,876,895,915,935,955,977,996,1015,1035,1055,1075,1096,1115,1135,1155,1176,1196,1215,1235,1255,1275,1295,1315,1336,1356,1376,1396,1415,1435,1456,1476,1497,1517,1536,1556,1576,1596,1617,1635,1655,1676,1695,1715,1736,1756,1775,1795,1815,1835,1855,1876,1895,1915,1935,1956,1975,1995,2015,2035,2055,2076,2095,2115,2136,2155,2175,2195,2215,2235,2255,2275,2296,2315,2335,2356,2376,2395,2416,2435,2455,2475,2495,2515,2536,2555,2575,2595,2616,2635,2656,2675,2696,2715,2736,2755,2775,2795,2815,2835,2856,2876,2896,2915,2935,2955,2975,2995,3015,3035,3055,3075,3096,3116],"xSR":741.5,"ySR":501.8,"xT1":424.9,"yT1":0,"xT2":1058.1,"yT2":0,"toosoon":0,"cond_shown":"Congruent","ratio_trial":100,"L_num":11,"L_den":22,"R_num":6,"R_den":15,"correct_side":1,"subjID":"lunagonzalez20","gender":"1","school":"6","age":"10"},{"start_time":1551900000538,"click_time":1551900003387,"finger_time":1551900002868,"fix_duration":250,"trial":33,"RT":2330,"MT":519,"sideResp":2,"stimulus":[],"xmouse":[801,801,801,801,801,801,801,801,801,801,801,801,801,801,801,801,801,801,801,801,801,801,801,801,801,801,801,801,801,801,801,801,801,801,801,801,801,801,801,801,801,801,801,801,801,801,801,801,801,801,801,801,801,801,801,801,801,801,801,801,801,801,801,801,801,801,801,801,801,801,801,801,801,801,801,801,801,801,801,801,801,801,801,801,801,801,801,801,801,801,801,801,801,801,801,801,801,801,801,801,801,801,801,801,801,801,801,801,801,801,801,801,801,801,812,814,817,827,842,867,878,878,879,880,889,899,916,935,947,968,974,980,986,992,997,997,998,1001,1007,1029,1059,1092,1107],"ymouse":[527,527,527,527,527,527,527,527,527,527,527,527,527,527,527,527,527,527,527,527,527,527,527,527,527,527,527,527,527,527,527,527,527,527,527,527,527,527,527,527,527,527,527,527,527,527,527,527,527,527,527,527,527,527,527,527,527,527,527,527,527,527,527,527,527,527,527,527,527,527,527,527,527,527,527,527,527,527,527,527,527,527,527,527,527,527,527,527,527,527,527,527,527,527,527,527,527,527,527,527,527,527,527,527,527,527,527,527,527,527,527,527,527,527,514,502,495,484,474,457,446,442,431,424,406,394,378,363,347,314,298,285,275,266,260,257,249,237,223,188,151,106,80],"timestamp_mouse":[10,30,50,70,89,109,129,150,170,189,210,229,249,269,289,309,330,349,369,389,409,429,449,469,489,509,530,549,569,589,609,629,649,669,689,710,729,751,770,790,811,830,850,870,889,910,931,950,969,990,1010,1029,1050,1071,1090,1110,1130,1149,1169,1190,1209,1229,1250,1270,1289,1309,1329,1350,1370,1391,1410,1430,1450,1470,1490,1509,1529,1550,1569,1590,1609,1629,1650,1671,1690,1711,1729,1750,1770,1790,1809,1830,1850,1870,1889,1909,1929,1949,1969,1990,2010,2029,2051,2071,2091,2109,2129,2151,2170,2189,2209,2229,2249,2269,2289,2309,2330,2350,2371,2390,2409,2429,2450,2470,2490,2510,2530,2549,2570,2590,2610,2629,2650,2669,2689,2709,2729,2749,2769,2790,2809,2829,2849],"xSR":741.5,"ySR":501.8,"xT1":424.9,"yT1":0,"xT2":1058.1,"yT2":0,"toosoon":0,"cond_shown":"Incongruent","ratio_trial":100,"L_num":6,"L_den":10,"R_num":13,"R_den":26,"correct_side":1,"subjID":"lunagonzalez20","gender":"1","school":"6","age":"10"},{"start_time":1551900005475,"click_time":1551900006887,"finger_time":1551900006608,"fix_duration":546.7708101417419,"trial":34,"RT":1133,"MT":279,"sideResp":2,"stimulus":[],"xmouse":[819,819,819,819,819,819,819,819,819,819,819,819,819,819,819,819,819,819,819,819,819,819,819,819,819,819,819,819,819,819,819,819,819,819,819,819,819,819,819,819,819,819,819,819,819,819,819,819,819,819,819,819,819,819,819,839,856,884,903,923,941,959,995,1017,1031,1041,1055,1070,1077,1083,1087],"ymouse":[537,537,537,537,537,537,537,537,537,537,537,537,537,537,537,537,537,537,537,537,537,537,537,537,537,537,537,537,537,537,537,537,537,537,537,537,537,537,537,537,537,537,537,537,537,537,537,537,537,537,537,537,537,537,537,525,507,464,434,404,380,356,314,280,258,234,200,148,123,103,86],"timestamp_mouse":[12,32,53,72,93,113,133,152,172,194,213,233,253,273,292,312,332,352,373,392,412,432,452,472,493,513,533,553,572,592,613,632,653,672,693,713,732,752,773,792,812,832,852,873,893,912,933,953,973,992,1012,1033,1052,1072,1092,1112,1133,1153,1172,1192,1213,1233,1253,1272,1293,1313,1333,1353,1372,1393,1412],"xSR":741.5,"ySR":501.8,"xT1":424.9,"yT1":0,"xT2":1058.1,"yT2":0,"toosoon":0,"cond_shown":"Incongruent","ratio_trial":200,"L_num":9,"L_den":15,"R_num":8,"R_den":10,"correct_side":2,"subjID":"lunagonzalez20","gender":"1","school":"6","age":"10"},{"start_time":1551900009290,"click_time":1551900011127,"finger_time":1551900010888,"fix_duration":1259.5354186444245,"trial":35,"RT":1598,"MT":239,"sideResp":2,"stimulus":[],"xmouse":[789,789,789,789,789,789,789,789,789,789,789,789,789,789,789,789,789,789,789,789,789,789,789,789,789,789,789,789,789,789,789,789,789,789,789,789,789,789,789,789,789,789,789,789,789,789,789,789,789,789,789,789,789,789,789,789,789,789,789,789,789,789,789,789,789,789,789,789,789,789,789,789,789,789,789,789,789,822,838,857,893,930,1031,1068,1086,1096,1102,1106,1109,1109,1111,1111],"ymouse":[538,538,538,538,538,538,538,538,538,538,538,538,538,538,538,538,538,538,538,538,538,538,538,538,538,538,538,538,538,538,538,538,538,538,538,538,538,538,538,538,538,538,538,538,538,538,538,538,538,538,538,538,538,538,538,538,538,538,538,538,538,538,538,538,538,538,538,538,538,538,538,538,538,538,538,538,538,525,514,497,462,424,303,251,208,172,148,117,108,104,100,98],"timestamp_mouse":[19,37,58,77,97,117,139,158,177,198,217,237,258,277,298,318,338,358,377,397,417,438,459,478,497,517,537,557,578,598,617,638,657,677,699,717,737,759,778,797,817,837,859,878,897,917,937,958,978,998,1017,1037,1057,1077,1097,1117,1139,1157,1178,1197,1218,1238,1257,1277,1297,1317,1337,1358,1377,1397,1417,1437,1458,1477,1499,1518,1537,1557,1578,1598,1618,1638,1658,1677,1697,1718,1737,1758,1777,1797,1817,1837],"xSR":741.5,"ySR":501.8,"xT1":424.9,"yT1":0,"xT2":1058.1,"yT2":0,"toosoon":0,"cond_shown":"Congruent","ratio_trial":100,"L_num":6,"L_den":12,"R_num":15,"R_den":25,"correct_side":2,"subjID":"lunagonzalez20","gender":"1","school":"6","age":"10"},{"start_time":1551900012600,"click_time":1551900017349,"finger_time":1551900014947,"fix_duration":371.88465112530275,"trial":36,"RT":2347,"MT":2402,"sideResp":1,"stimulus":[],"xmouse":[775,775,775,775,775,775,775,775,775,775,775,775,775,775,775,775,775,775,775,775,775,775,775,775,775,775,775,775,775,775,775,775,775,775,775,775,775,775,775,775,775,775,775,775,775,775,775,775,775,775,775,775,775,775,775,775,775,775,775,775,775,775,775,775,775,775,775,775,775,775,775,775,775,775,775,775,775,775,775,775,775,775,775,775,775,775,775,775,775,775,775,775,775,775,775,775,775,780,784,786,787,789,802,806,808,812,814,817,817,817,817,817,817,817,820,828,840,855,906,943,979,1014,1043,1068,1073,1078,1079,1079,1079,1079,1079,1079,1079,1079,1079,1079,1077,1020,993,975,957,932,780,706,608,512,431,360,288,274,264,261,258,257,256,256,256,256,256,256,256,256,256,256,256,256,256,256,256,256,256,256,256,256,256,256,256,256,256,256,256,260,260,260,260,261,261,261,272,279,284,290,305,314,325,338,352,363,372,379,387,396,404,411,411,411,411,411,411,411,411,411,411,411,411,411,411,411,411,411,411,411,411,411,411,411,411,411,411,411,411,411,411,411,411,411,421,446],"ymouse":[552,552,552,552,552,552,552,552,552,552,552,552,552,552,552,552,552,552,552,552,552,552,552,552,552,552,552,552,552,552,552,552,552,552,552,552,552,552,552,552,552,552,552,552,552,552,552,552,552,552,552,552,552,552,552,552,552,552,552,552,552,552,552,552,552,552,552,552,552,552,552,552,552,552,552,552,552,552,552,552,552,552,552,552,552,552,552,552,552,552,552,552,552,552,552,552,552,548,546,544,543,542,534,531,529,525,522,520,520,519,519,519,519,519,516,511,503,491,453,427,401,371,340,312,306,301,300,300,300,300,300,300,300,300,300,300,297,282,275,269,261,251,219,206,189,170,148,126,95,89,83,79,73,69,63,61,61,61,61,61,61,61,61,61,61,61,61,61,61,61,61,61,61,61,61,61,61,61,61,61,61,61,61,61,61,61,61,61,67,71,74,78,87,91,94,96,97,97,97,97,96,95,92,90,90,90,90,90,90,90,90,90,90,90,90,90,90,90,90,90,90,90,90,90,90,90,90,90,90,90,90,90,90,90,90,90,88,84],"timestamp_mouse":[9,27,57,67,88,108,127,148,167,187,207,227,248,268,288,308,328,349,367,387,407,428,447,468,487,508,528,547,569,587,607,627,649,668,688,707,728,748,768,788,807,828,847,867,888,907,927,948,968,988,1007,1027,1047,1068,1087,1107,1127,1149,1169,1187,1207,1228,1247,1268,1288,1308,1327,1347,1368,1387,1407,1428,1447,1468,1487,1507,1527,1547,1567,1587,1608,1627,1647,1667,1687,1709,1728,1748,1768,1787,1807,1827,1847,1867,1889,1907,1927,1947,1967,1988,2007,2028,2048,2068,2087,2107,2128,2147,2167,2187,2207,2228,2248,2268,2287,2307,2328,2347,2367,2387,2408,2427,2447,2467,2487,2507,2527,2548,2568,2587,2607,2628,2648,2667,2687,2707,2727,2749,2767,2787,2808,2827,2849,2868,2887,2908,2927,2947,2967,2987,3007,3028,3048,3068,3088,3107,3128,3148,3167,3188,3208,3228,3247,3268,3287,3307,3327,3348,3367,3388,3409,3427,3448,3468,3488,3509,3527,3548,3569,3588,3607,3628,3649,3668,3687,3707,3727,3748,3767,3788,3807,3828,3848,3867,3888,3907,3927,3947,3967,3987,4007,4027,4048,4067,4088,4107,4127,4149,4167,4187,4208,4228,4249,4269,4287,4308,4328,4348,4368,4387,4408,4427,4447,4467,4488,4507,4528,4549,4567,4588,4609,4627,4648,4667,4687,4708,4727,4749],"xSR":741.5,"ySR":501.8,"xT1":424.9,"yT1":0,"xT2":1058.1,"yT2":0,"toosoon":0,"cond_shown":"Congruent","ratio_trial":300,"L_num":9,"L_den":10,"R_num":3,"R_den":5,"correct_side":1,"subjID":"lunagonzalez20","gender":"1","school":"6","age":"10"},{"start_time":1551900021979,"click_time":1551900023887,"finger_time":1551900023607,"fix_duration":250,"trial":37,"RT":1628,"MT":280,"sideResp":1,"stimulus":[],"xmouse":[786,786,786,786,786,786,786,786,786,786,786,786,786,786,786,786,786,786,786,786,786,786,786,786,786,786,786,786,786,786,786,786,786,786,786,786,786,786,786,786,786,786,786,786,786,786,786,786,786,786,786,786,786,786,786,786,786,786,786,786,786,786,786,786,786,786,786,786,786,786,786,786,786,786,786,786,786,786,783,776,769,762,751,739,709,686,667,646,628,566,539,525,513,504,500,500],"ymouse":[547,547,547,547,547,547,547,547,547,547,547,547,547,547,547,547,547,547,547,547,547,547,547,547,547,547,547,547,547,547,547,547,547,547,547,547,547,547,547,547,547,547,547,547,547,547,547,547,547,547,547,547,547,547,547,547,547,547,547,547,547,547,547,547,547,547,547,547,547,547,547,547,547,547,547,547,547,547,538,526,509,497,481,465,421,390,365,337,309,219,180,156,134,115,104,94],"timestamp_mouse":[9,28,48,68,88,109,128,148,169,189,209,228,248,269,289,309,328,348,369,389,409,429,449,468,488,508,528,548,569,589,609,629,649,669,688,708,729,748,768,788,808,828,848,869,889,909,928,948,969,988,1009,1029,1050,1069,1088,1108,1129,1148,1168,1189,1210,1229,1248,1268,1288,1308,1328,1349,1368,1388,1409,1429,1448,1468,1488,1508,1528,1548,1568,1588,1609,1628,1649,1668,1688,1708,1728,1749,1769,1789,1808,1828,1849,1869,1889,1908],"xSR":741.5,"ySR":501.8,"xT1":424.9,"yT1":0,"xT2":1058.1,"yT2":0,"toosoon":0,"cond_shown":"Congruent","ratio_trial":100,"L_num":2,"L_den":5,"R_num":6,"R_den":12,"correct_side":2,"subjID":"lunagonzalez20","gender":"1","school":"6","age":"10"},{"start_time":1551900025937,"click_time":1551900027567,"finger_time":1551900027429,"fix_duration":507.8756232486562,"trial":38,"RT":1492,"MT":138,"sideResp":2,"stimulus":[],"xmouse":[803,803,803,803,803,803,803,803,803,803,803,803,803,803,803,803,803,803,803,803,803,803,803,803,803,803,803,803,803,803,803,803,803,803,803,803,803,803,803,803,803,803,803,803,803,803,803,803,803,803,803,803,803,803,803,803,803,803,803,803,803,803,803,803,803,803,803,803,803,803,803,803,818,834,847,870,914,998,1037,1063,1091,1132],"ymouse":[535,535,535,535,535,535,535,535,535,535,535,535,535,535,535,535,535,535,535,535,535,535,535,535,535,535,535,535,535,535,535,535,535,535,535,535,535,535,535,535,535,535,535,535,535,535,535,535,535,535,535,535,535,535,535,535,535,535,535,535,535,535,535,535,535,535,535,535,535,535,535,535,529,516,503,479,438,327,265,206,136,50],"timestamp_mouse":[13,33,52,71,91,111,131,150,172,191,211,231,251,271,290,310,331,351,371,391,411,430,452,471,491,510,530,550,570,590,611,630,650,670,690,711,732,751,771,790,811,831,851,872,890,911,932,951,971,990,1010,1031,1051,1071,1091,1111,1131,1151,1170,1190,1210,1231,1250,1271,1291,1310,1330,1351,1370,1390,1410,1431,1451,1470,1492,1510,1530,1550,1570,1591,1610,1630],"xSR":741.5,"ySR":501.8,"xT1":424.9,"yT1":0,"xT2":1058.1,"yT2":0,"toosoon":0,"cond_shown":"Congruent","ratio_trial":200,"L_num":3,"L_den":10,"R_num":11,"R_den":22,"correct_side":2,"subjID":"lunagonzalez20","gender":"1","school":"6","age":"10"},{"start_time":1551900031384,"click_time":1551900034391,"finger_time":1551900033470,"fix_duration":1214.4227154003768,"trial":39,"RT":2086,"MT":921,"sideResp":1,"stimulus":[],"xmouse":[788,787,787,787,787,787,787,787,787,787,787,787,787,787,787,787,787,787,787,787,787,787,787,787,787,787,787,787,787,787,787,787,787,787,787,787,787,787,787,787,787,787,787,787,787,787,787,787,787,787,787,787,787,787,787,787,787,787,787,787,787,787,787,787,787,787,787,787,787,787,787,787,787,787,787,787,787,787,787,787,787,787,787,787,787,787,787,787,787,787,787,787,787,787,787,787,787,787,787,787,787,787,784,779,770,748,741,730,720,709,698,682,675,671,669,667,662,655,647,641,634,631,631,631,631,631,630,630,629,623,612,587,580,576,575,573,573,573,573,573,573,573,573,571,559,553,545,543,537,530,522],"ymouse":[530,530,530,530,530,531,531,531,531,531,531,531,531,531,531,531,531,531,531,531,531,531,531,531,531,531,531,531,531,531,531,531,531,531,531,531,531,531,531,531,531,531,531,531,531,531,531,531,531,531,531,531,531,531,531,531,531,531,531,531,531,531,531,531,531,531,531,531,531,531,531,531,531,531,531,531,531,531,531,531,531,531,531,531,531,531,531,531,531,531,531,531,531,531,531,531,531,531,531,531,531,531,524,512,491,441,422,398,377,358,342,322,318,316,314,314,309,303,293,285,275,271,271,271,271,271,271,271,268,252,227,171,152,138,120,109,108,108,108,108,108,108,107,104,97,93,88,87,84,81,80],"timestamp_mouse":[14,36,43,63,85,104,123,143,164,183,203,223,243,263,283,304,323,343,364,386,405,425,445,466,486,505,525,545,565,585,605,625,646,666,685,705,725,746,765,785,806,826,846,865,885,906,925,946,965,985,1005,1025,1046,1067,1085,1106,1127,1146,1165,1185,1205,1225,1245,1265,1285,1306,1326,1345,1365,1385,1406,1425,1446,1466,1487,1507,1525,1545,1566,1586,1605,1625,1646,1667,1685,1705,1726,1745,1765,1786,1805,1825,1845,1865,1886,1905,1925,1946,1965,1986,2006,2026,2045,2065,2086,2106,2126,2145,2166,2185,2206,2225,2245,2265,2286,2306,2325,2345,2365,2385,2405,2425,2445,2466,2485,2505,2525,2545,2565,2585,2606,2626,2646,2666,2685,2706,2725,2745,2765,2786,2806,2825,2845,2865,2885,2905,2926,2945,2965,2985,3006],"xSR":741.5,"ySR":501.8,"xT1":424.9,"yT1":0,"xT2":1058.1,"yT2":0,"toosoon":0,"cond_shown":"Incongruent","ratio_trial":200,"L_num":7,"L_den":10,"R_num":14,"R_den":28,"correct_side":1,"subjID":"lunagonzalez20","gender":"1","school":"6","age":"10"},{"start_time":1551900037494,"click_time":1551900045669,"finger_time":1551900044310,"fix_duration":1482.4388131772469,"trial":40,"RT":6816,"MT":1359,"sideResp":1,"stimulus":[],"xmouse":[791,791,791,791,791,791,791,791,791,791,791,791,791,791,791,791,791,791,791,791,791,791,791,791,791,791,791,791,791,791,791,791,791,791,791,791,791,791,791,791,791,791,791,791,791,791,791,791,791,791,791,791,791,791,791,791,791,791,791,791,791,791,791,791,791,791,791,791,791,791,791,791,791,791,791,791,791,791,791,791,791,791,791,791,791,791,791,791,791,791,791,791,791,791,791,791,791,791,791,791,791,791,791,791,791,791,791,791,791,791,791,791,791,791,791,791,791,791,791,791,791,791,791,791,791,791,791,791,791,791,791,791,791,791,791,791,791,791,791,791,791,791,791,791,791,791,791,791,791,791,791,791,791,791,791,791,791,791,791,791,791,791,791,791,791,791,791,791,791,791,791,791,791,791,791,791,791,791,791,791,791,791,791,791,791,791,791,791,791,791,791,791,791,791,791,791,791,791,791,791,791,791,791,791,791,791,791,791,791,791,791,791,791,791,791,791,791,791,791,791,791,791,791,791,791,791,791,791,791,791,791,791,791,791,791,791,791,791,791,791,791,791,791,791,791,791,791,791,791,791,791,791,791,791,791,791,791,791,791,791,791,791,791,791,791,791,791,791,791,791,791,791,791,791,791,791,791,791,791,791,791,791,791,791,791,791,791,791,791,791,791,791,791,791,792,792,792,792,792,792,792,792,792,792,792,792,792,792,792,792,792,794,794,794,794,794,794,794,794,794,794,795,795,795,795,795,795,795,795,795,795,795,795,795,795,795,795,795,795,795,780,773,765,758,743,735,720,715,702,689,681,657,649,642,639,636,636,636,635,635,635,633,632,624,616,607,590,585,579,574,568,564,562,561,558,557,553,552,549,548,548,548,548,548,548,548,548,548,548,548,548,548,548,548,548,548,548,548,548,545,542,542,542,540,530,526,526,526,522],"ymouse":[517,517,517,517,517,517,517,517,517,517,517,517,517,517,517,517,517,517,517,517,517,517,517,517,517,517,517,517,517,517,517,517,517,517,517,517,517,517,517,517,517,517,517,517,517,517,517,517,517,517,517,517,517,517,517,517,517,517,517,517,517,517,517,517,517,517,517,517,517,517,517,517,517,517,517,517,517,517,517,517,517,517,517,517,517,517,517,517,517,517,517,517,517,517,517,517,517,517,517,517,517,517,517,517,517,517,517,517,517,517,517,517,517,517,517,517,517,517,517,517,517,517,517,517,517,517,517,517,517,517,517,517,517,517,517,517,517,517,517,517,517,517,517,517,517,517,517,517,517,517,517,517,517,517,517,517,517,517,517,517,517,517,517,517,517,517,517,517,517,517,517,517,517,517,517,517,517,517,517,517,517,517,517,517,517,517,517,517,517,517,517,517,517,517,517,517,517,517,517,517,517,517,517,517,517,517,517,517,517,517,517,517,517,517,517,517,517,517,517,517,517,517,517,517,517,517,517,517,517,517,517,517,517,517,517,517,517,517,517,517,517,517,517,517,517,517,517,517,517,517,517,517,517,517,517,517,517,517,517,517,517,517,517,517,517,517,517,517,517,517,517,517,517,517,517,517,517,517,517,517,517,517,517,517,517,517,517,517,517,517,517,517,517,517,517,517,517,517,517,517,517,517,517,517,517,517,517,517,517,517,517,517,517,517,516,516,516,516,516,516,516,515,515,515,515,515,515,515,515,515,515,515,515,515,515,515,515,515,515,512,477,462,448,435,414,403,382,376,362,347,331,287,268,251,240,227,225,223,222,220,218,212,208,192,178,163,139,130,118,107,88,77,70,64,56,51,43,37,34,32,32,32,32,32,32,32,32,32,32,32,32,32,32,32,32,32,32,32,32,32,32,32,32,32,32,32,32,32,32],"timestamp_mouse":[16,36,58,75,95,115,136,155,175,195,216,235,255,276,296,315,335,356,375,395,416,435,455,475,495,516,537,556,575,595,615,636,655,675,695,716,735,755,775,795,815,836,856,876,895,915,935,955,976,996,1017,1037,1056,1077,1096,1115,1135,1155,1176,1195,1215,1235,1255,1275,1295,1315,1336,1355,1375,1397,1415,1435,1456,1475,1496,1517,1535,1555,1576,1595,1616,1636,1655,1676,1696,1716,1736,1755,1776,1795,1815,1835,1856,1875,1895,1915,1935,1955,1975,1995,2015,2035,2056,2075,2096,2117,2135,2155,2175,2196,2215,2235,2255,2275,2295,2315,2335,2356,2376,2396,2415,2435,2457,2475,2495,2515,2535,2555,2575,2595,2615,2635,2655,2676,2696,2715,2735,2756,2775,2795,2815,2835,2855,2875,2895,2915,2935,2956,2975,2995,3015,3035,3055,3075,3096,3117,3135,3155,3176,3196,3216,3235,3256,3276,3296,3316,3335,3355,3376,3395,3415,3435,3456,3477,3496,3515,3535,3555,3575,3595,3616,3635,3655,3676,3696,3716,3735,3755,3776,3795,3815,3836,3855,3875,3895,3915,3935,3955,3975,3995,4015,4036,4056,4077,4096,4115,4136,4155,4175,4195,4216,4236,4255,4276,4295,4316,4337,4355,4376,4395,4415,4435,4456,4477,4495,4515,4535,4555,4575,4595,4616,4635,4655,4675,4696,4716,4735,4756,4775,4796,4815,4835,4855,4875,4895,4916,4935,4955,4975,4995,5015,5036,5055,5076,5096,5117,5135,5155,5175,5195,5215,5235,5255,5276,5295,5316,5337,5356,5376,5396,5415,5435,5455,5475,5495,5515,5536,5556,5576,5596,5617,5635,5655,5675,5696,5716,5736,5756,5776,5796,5815,5835,5855,5875,5895,5916,5935,5955,5975,5996,6015,6036,6055,6077,6097,6115,6135,6155,6175,6195,6215,6235,6256,6275,6296,6316,6336,6356,6376,6395,6415,6435,6456,6475,6495,6515,6536,6556,6575,6596,6615,6636,6655,6675,6695,6715,6736,6756,6776,6795,6816,6835,6856,6875,6895,6916,6935,6955,6975,6995,7015,7035,7055,7075,7095,7117,7135,7155,7176,7196,7216,7235,7256,7275,7295,7315,7335,7355,7376,7396,7417,7435,7456,7475,7496,7515,7536,7555,7576,7597,7615,7635,7655,7675,7695,7715,7735,7755,7775,7795,7816,7835,7855,7876,7895,7916,7936,7956,7976,7995,8015,8036,8055,8075,8096,8116,8136,8155,8175],"xSR":741.5,"ySR":501.8,"xT1":424.9,"yT1":0,"xT2":1058.1,"yT2":0,"toosoon":0,"cond_shown":"Incongruent","ratio_trial":100,"L_num":8,"L_den":20,"R_num":1,"R_den":2,"correct_side":2,"subjID":"lunagonzalez20","gender":"1","school":"6","age":"10"},{"start_time":1551900048137,"click_time":1551900049230,"finger_time":1551900049150,"fix_duration":686.0000393251448,"trial":41,"RT":1013,"MT":80,"sideResp":1,"stimulus":[],"xmouse":[802,802,802,802,802,802,802,802,802,802,802,802,802,802,802,802,802,802,802,802,802,802,802,802,802,802,802,802,802,802,802,802,802,802,802,802,802,802,802,802,802,802,802,802,802,802,802,80