[{"start_time":1551887081745,"click_time":1551887087554,"finger_time":1551887081754,"fix_duration":544.00366009647,"trial":0,"RT":9,"MT":5800,"sideResp":2,"stimulus":[],"xmouse":[785,785,785,785,785,785,785,785,785,785,785,785,785,785,785,785,785,785,785,785,786,787,787,787,787,787,787,787,787,787,787,787,787,787,787,787,787,787,776,758,740,727,716,714,714,714,714,714,714,715,721,746,756,760,761,761,761,761,761,761,761,761,761,761,761,761,761,761,761,761,767,796,812,824,824,824,825,823,820,816,814,808,801,792,783,768,761,761,761,761,785,955,1030,1050,1050,1048,927,845,789,767,762,761,764,770,776,790,800,800,800,800,800,800,800,800,800,800,800,800,800,800,800,800,800,800,800,800,800,800,800,800,800,800,800,797,795,792,783,781,780,780,780,780,780,780,778,774,765,762,755,744,731,716,715,715,715,715,715,715,715,715,715,715,715,715,715,715,715,715,715,715,715,715,715,715,714,710,710,710,710,710,710,710,710,710,710,710,710,710,710,711,711,710,710,710,710,710,710,710,710,710,710,709,709,709,709,709,705,705,705,705,705,705,705,705,706,713,715,715,715,715,715,715,715,715,715,715,715,715,715,715,715,715,715,715,715,715,715,711,705,702,699,691,684,680,680,680,704,722,748,792,846,995,1071,1071,1182,1220,1239,1242,1246,1256,1271,1304,1323,1338,1348,1356,1357,1352,1337,1326,1323,1321,1321,1321,1321,1321,1308,1296,1283,1272,1267,1261,1255,1248,1241,1227,1186,1174,1165,1160,1155],"ymouse":[507,507,507,507,507,507,507,507,507,507,507,507,507,507,507,507,507,507,507,507,507,507,507,507,507,507,507,507,507,507,507,507,507,507,507,507,507,507,515,529,542,555,574,578,582,583,583,583,583,584,587,595,599,600,600,600,600,600,602,602,602,602,602,602,602,602,602,602,604,606,612,628,636,641,641,641,641,645,645,645,645,645,644,640,637,630,627,627,627,626,629,705,734,741,741,741,703,679,656,644,641,639,634,629,625,620,620,620,620,620,620,620,620,620,620,620,620,620,620,620,620,620,620,620,620,620,620,620,620,620,620,620,620,620,620,619,616,615,615,615,615,615,615,615,615,615,617,618,618,618,616,606,604,604,604,604,604,604,604,604,604,604,604,604,604,604,604,604,607,607,607,607,607,607,605,599,598,598,598,598,598,598,598,598,598,598,598,598,596,596,595,595,595,595,595,595,595,595,595,595,595,594,594,594,594,594,608,609,609,609,609,609,609,609,615,619,619,619,619,619,619,619,619,620,620,620,620,620,620,620,620,620,620,620,620,620,620,624,620,615,611,603,598,593,592,590,575,570,568,568,568,568,568,568,565,559,556,554,550,540,523,490,476,464,453,441,420,404,385,371,364,342,326,310,296,284,241,224,207,193,184,170,161,152,145,134,110,102,96,90,86],"timestamp_mouse":[9,29,49,68,90,110,129,150,169,188,208,228,248,269,289,309,328,348,368,388,410,429,449,469,488,508,530,550,569,589,609,628,650,669,689,710,730,749,768,788,810,829,849,870,888,908,929,948,969,990,1010,1029,1048,1069,1089,1110,1128,1149,1168,1188,1208,1229,1249,1268,1288,1308,1328,1349,1369,1390,1409,1429,1449,1470,1489,1508,1529,1548,1568,1588,1609,1628,1649,1668,1688,1710,1730,1749,1770,1789,1808,1829,1850,1869,1889,1909,1928,1948,1968,1989,2009,2028,2050,2068,2088,2108,2129,2148,2169,2188,2210,2229,2249,2269,2288,2310,2329,2349,2370,2388,2410,2430,2448,2469,2489,2509,2528,2549,2568,2590,2610,2628,2650,2668,2689,2710,2728,2749,2768,2788,2809,2830,2849,2870,2889,2909,2929,2949,2970,2989,3008,3029,3050,3068,3088,3109,3129,3148,3168,3189,3210,3229,3249,3270,3289,3310,3329,3348,3368,3389,3408,3430,3449,3469,3490,3510,3530,3549,3568,3588,3609,3629,3650,3669,3690,3710,3729,3749,3768,3789,3810,3830,3849,3869,3890,3908,3929,3949,3968,3989,4008,4028,4049,4069,4089,4110,4129,4149,4168,4189,4210,4229,4248,4268,4289,4309,4329,4349,4369,4389,4408,4429,4449,4468,4489,4509,4529,4550,4569,4589,4610,4628,4648,4669,4688,4709,4728,4750,4769,4789,4810,4829,4848,4868,4889,4910,4929,4949,4968,4989,5009,5029,5049,5068,5088,5109,5128,5148,5169,5189,5209,5229,5248,5268,5288,5309,5329,5349,5369,5388,5408,5428,5448,5470,5490,5510,5529,5549,5568,5589,5609,5628,5648,5669,5688,5709,5728,5749,5768,5789,5808],"xSR":741.5,"ySR":469.95,"xT1":424.9,"yT1":0,"xT2":1058.1,"yT2":0,"toosoon":0,"cond_shown":"Incongruent","ratio_trial":200,"L_num":14,"L_den":30,"R_num":12,"R_den":18,"correct_side":2,"subjID":"MANUELFRANCISCOVEGARINCON1","gender":"2","age":"12","school":"SEXTO","test":{"fix_dur":[250,1500],"timestim":1000,"targets_dim":[100,100],"targets_relative_coord":[0.3,0.7],"size_stim":[880,420],"start_dim":[100,100],"size_start":[300,300],"size_fix":60,"samplingrate":20,"img_types":["Congruent","Incongruent"],"ratios":[100,200,300],"rep_conds":19,"nTrials":120,"trials_to_rest":500,"Trials_order":[3,58,67,25,16,99,22,44,54,84,29,98,96,20,118,103,87,93,78,113,64,104,43,1,79,92,116,42,90,63,45,101,21,11,86,97,60,31,41,9,19,33,110,68,114,95,5,53,36,40,83,69,17,100,18,71,7,85,4,89,32,48,81,8,111,13,65,88,30,47,51,66,12,15,50,39,117,61,52,56,119,10,91,35,2,72,26,115,107,76,0,112,49,105,28,57,82,59,106,94,37,27,34,24,75,73,77,102,70,62,6,55,109,38,46,108,80,14,23,74],"cond_shown":["Incongruent","Congruent","Incongruent","Incongruent","Congruent","Incongruent","Congruent","Congruent","Congruent","Congruent","Incongruent","Congruent","Congruent","Congruent","Congruent","Incongruent","Incongruent","Incongruent","Congruent","Incongruent","Congruent","Congruent","Incongruent","Incongruent","Incongruent","Congruent","Congruent","Congruent","Congruent","Incongruent","Incongruent","Incongruent","Incongruent","Incongruent","Congruent","Incongruent","Congruent","Incongruent","Incongruent","Incongruent","Incongruent","Incongruent","Congruent","Congruent","Congruent","Incongruent","Incongruent","Incongruent","Congruent","Congruent","Incongruent","Incongruent","Incongruent","Congruent","Congruent","Incongruent","Incongruent","Incongruent","Congruent","Incongruent","Congruent","Congruent","Incongruent","Congruent","Incongruent","Incongruent","Incongruent","Congruent","Congruent","Incongruent","Incongruent","Congruent","Congruent","Incongruent","Congruent","Incongruent","Incongruent","Incongruent","Congruent","Congruent","Incongruent","Congruent","Incongruent","Incongruent","Congruent","Congruent","Congruent","Incongruent","Incongruent","Congruent","Congruent","Congruent","Incongruent","Incongruent","Congruent","Incongruent","Congruent","Incongruent","Congruent","Congruent","Incongruent","Incongruent","Congruent","Congruent","Incongruent","Incongruent","Incongruent","Congruent","Congruent","Congruent","Congruent","Incongruent","Incongruent","Congruent","Congruent","Congruent","Congruent","Congruent","Incongruent","Congruent"],"ratio_trial":[200,300,100,100,300,200,300,200,100,100,300,200,100,200,300,100,200,200,100,300,300,200,100,100,100,200,200,100,100,200,200,300,200,300,200,100,100,100,300,200,100,200,200,200,100,300,300,300,100,300,300,200,300,300,100,300,100,100,300,300,200,100,200,200,200,100,300,300,100,300,200,100,100,200,200,200,200,100,300,200,300,300,100,300,200,100,200,100,300,300,100,300,100,200,300,200,300,300,300,300,100,200,300,100,200,100,300,100,300,200,100,100,100,200,300,100,200,200,300,200],"left_num":[14,4,2,10,1,1,1,6,12,4,8,20,8,20,4,6,4,7,12,4,24,16,3,9,13,16,4,15,11,7,7,4,3,4,5,9,4,8,4,7,6,7,4,4,10,13,13,4,10,3,4,4,7,1,12,13,6,10,18,13,21,3,4,8,14,9,4,18,2,3,6,3,4,9,3,7,14,9,20,4,8,3,10,4,8,3,20,3,4,20,2,20,4,6,1,4,7,1,2,20,2,14,8,12,7,9,2,9,11,5,8,3,2,3,1,15,9,1,7,16],"right_num":[12,1,8,9,11,2,6,3,13,15,14,9,2,9,2,3,6,4,13,2,8,12,8,6,12,12,3,13,6,14,14,2,11,6,14,14,15,6,8,12,3,12,3,3,3,12,12,2,3,2,8,14,8,7,13,12,3,9,9,12,2,2,14,7,6,6,8,9,11,4,3,4,15,8,11,8,6,20,14,3,9,11,9,2,3,4,9,7,2,13,11,8,8,3,6,1,20,3,12,14,8,6,10,13,8,20,6,8,1,14,2,11,8,14,3,13,13,21,8,12],"left_den":[30,10,4,25,5,3,5,15,30,10,10,25,16,25,5,12,5,15,30,20,30,20,5,18,26,20,10,25,22,10,10,20,4,5,10,15,10,16,5,10,12,10,8,10,25,26,26,20,25,6,5,6,10,20,30,26,12,25,20,26,30,6,6,15,30,18,5,20,5,6,20,20,10,15,10,10,30,10,25,8,10,12,25,20,15,20,25,9,20,25,5,25,8,20,5,30,14,2,10,25,4,30,15,30,10,10,4,15,22,10,16,5,4,10,5,25,30,2,10,20],"right_den":[18,10,20,18,22,15,12,15,26,30,28,15,5,15,4,5,10,6,26,4,16,20,16,10,20,20,15,26,15,28,28,4,20,12,20,28,30,10,16,24,5,24,10,15,10,15,15,4,10,10,16,30,20,20,26,15,5,18,15,15,4,5,30,21,9,10,16,15,22,20,6,16,30,10,22,16,9,25,28,10,18,20,18,4,9,16,15,30,4,26,22,16,20,6,12,3,25,15,24,28,20,9,12,26,16,25,30,16,5,20,5,22,20,28,6,26,26,30,20,20],"correct_side":[2,1,1,2,2,1,2,1,2,2,1,1,1,1,1,2,1,2,2,2,1,1,1,2,2,1,1,1,1,1,1,2,1,1,2,1,2,2,1,1,2,1,1,1,1,2,2,2,1,1,1,1,1,2,2,2,2,2,1,2,1,1,1,1,2,2,1,1,2,1,2,2,2,2,2,1,2,1,1,1,1,2,2,2,1,2,1,1,2,1,2,1,1,2,2,2,2,1,2,1,1,2,2,2,1,1,1,1,1,2,1,1,1,2,2,1,2,2,1,1],"img_shown":["img2/200/Incongruent/R/I_Dist_200_LN_14_LD_30_RN_12_RD_18_1.png","img2/300/Congruent/L/C_Dist_300_LN_4_LD_10_RN_1_RD_10_0.png","img2/100/Incongruent/L/I_Dist_100_LN_2_LD_4_RN_8_RD_20_0.png","img2/100/Incongruent/R/I_Dist_100_LN_10_LD_25_RN_9_RD_18_1.png","img2/300/Congruent/R/C_Dist_300_LN_1_LD_5_RN_11_RD_22_1.png","img2/200/Incongruent/L/I_Dist_200_LN_1_LD_3_RN_2_RD_15_0.png","img2/300/Congruent/R/C_Dist_300_LN_1_LD_5_RN_6_RD_12_1.png","img2/200/Congruent/L/C_Dist_200_LN_6_LD_15_RN_3_RD_15_0.png","img2/100/Congruent/R/C_Dist_100_LN_12_LD_30_RN_13_RD_26_1.png","img2/100/Congruent/R/C_Dist_100_LN_4_LD_10_RN_15_RD_30_1.png","img2/300/Incongruent/L/I_Dist_300_LN_8_LD_10_RN_14_RD_28_0.png","img2/200/Congruent/L/C_Dist_200_LN_20_LD_25_RN_9_RD_15_0.png","img2/100/Congruent/L/C_Dist_100_LN_8_LD_16_RN_2_RD_5_0.png","img2/200/Congruent/L/C_Dist_200_LN_20_LD_25_RN_9_RD_15_0.png","img2/300/Congruent/L/C_Dist_300_LN_4_LD_5_RN_2_RD_4_0.png","img2/100/Incongruent/R/I_Dist_100_LN_6_LD_12_RN_3_RD_5_1.png","img2/200/Incongruent/L/I_Dist_200_LN_4_LD_5_RN_6_RD_10_0.png","img2/200/Incongruent/R/I_Dist_200_LN_7_LD_15_RN_4_RD_6_1.png","img2/100/Congruent/R/C_Dist_100_LN_12_LD_30_RN_13_RD_26_1.png","img2/300/Incongruent/R/I_Dist_300_LN_4_LD_20_RN_2_RD_4_1.png","img2/300/Congruent/L/C_Dist_300_LN_24_LD_30_RN_8_RD_16_0.png","img2/200/Congruent/L/C_Dist_200_LN_16_LD_20_RN_12_RD_20_0.png","img2/100/Incongruent/L/I_Dist_100_LN_3_LD_5_RN_8_RD_16_0.png","img2/100/Incongruent/R/I_Dist_100_LN_9_LD_18_RN_6_RD_10_1.png","img2/100/Incongruent/R/I_Dist_100_LN_13_LD_26_RN_12_RD_20_1.png","img2/200/Congruent/L/C_Dist_200_LN_16_LD_20_RN_12_RD_20_0.png","img2/200/Congruent/L/C_Dist_200_LN_4_LD_10_RN_3_RD_15_0.png","img2/100/Congruent/L/C_Dist_100_LN_15_LD_25_RN_13_RD_26_0.png","img2/100/Congruent/L/C_Dist_100_LN_11_LD_22_RN_6_RD_15_0.png","img2/200/Incongruent/L/I_Dist_200_LN_7_LD_10_RN_14_RD_28_0.png","img2/200/Incongruent/L/I_Dist_200_LN_7_LD_10_RN_14_RD_28_0.png","img2/300/Incongruent/R/I_Dist_300_LN_4_LD_20_RN_2_RD_4_1.png","img2/200/Incongruent/L/I_Dist_200_LN_3_LD_4_RN_11_RD_20_0.png","img2/300/Incongruent/L/I_Dist_300_LN_4_LD_5_RN_6_RD_12_0.png","img2/200/Congruent/R/C_Dist_200_LN_5_LD_10_RN_14_RD_20_1.png","img2/100/Incongruent/L/I_Dist_100_LN_9_LD_15_RN_14_RD_28_0.png","img2/100/Congruent/R/C_Dist_100_LN_4_LD_10_RN_15_RD_30_1.png","img2/100/Incongruent/R/I_Dist_100_LN_8_LD_16_RN_6_RD_10_1.png","img2/300/Incongruent/L/I_Dist_300_LN_4_LD_5_RN_8_RD_16_0.png","img2/200/Incongruent/L/I_Dist_200_LN_7_LD_10_RN_12_RD_24_0.png","img2/100/Incongruent/R/I_Dist_100_LN_6_LD_12_RN_3_RD_5_1.png","img2/200/Incongruent/L/I_Dist_200_LN_7_LD_10_RN_12_RD_24_0.png","img2/200/Congruent/L/C_Dist_200_LN_4_LD_8_RN_3_RD_10_0.png","img2/200/Congruent/L/C_Dist_200_LN_4_LD_10_RN_3_RD_15_0.png","img2/100/Congruent/L/C_Dist_100_LN_10_LD_25_RN_3_RD_10_0.png","img2/300/Incongruent/R/I_Dist_300_LN_13_LD_26_RN_12_RD_15_1.png","img2/300/Incongruent/R/I_Dist_300_LN_13_LD_26_RN_12_RD_15_1.png","img2/300/Incongruent/R/I_Dist_300_LN_4_LD_20_RN_2_RD_4_1.png","img2/100/Congruent/L/C_Dist_100_LN_10_LD_25_RN_3_RD_10_0.png","img2/300/Congruent/L/C_Dist_300_LN_3_LD_6_RN_2_RD_10_0.png","img2/300/Incongruent/L/I_Dist_300_LN_4_LD_5_RN_8_RD_16_0.png","img2/200/Incongruent/L/I_Dist_200_LN_4_LD_6_RN_14_RD_30_0.png","img2/300/Incongruent/L/I_Dist_300_LN_7_LD_10_RN_8_RD_20_0.png","img2/300/Congruent/R/C_Dist_300_LN_1_LD_20_RN_7_RD_20_1.png","img2/100/Congruent/R/C_Dist_100_LN_12_LD_30_RN_13_RD_26_1.png","img2/300/Incongruent/R/I_Dist_300_LN_13_LD_26_RN_12_RD_15_1.png","img2/100/Incongruent/R/I_Dist_100_LN_6_LD_12_RN_3_RD_5_1.png","img2/100/Incongruent/R/I_Dist_100_LN_10_LD_25_RN_9_RD_18_1.png","img2/300/Congruent/L/C_Dist_300_LN_18_LD_20_RN_9_RD_15_0.png","img2/300/Incongruent/R/I_Dist_300_LN_13_LD_26_RN_12_RD_15_1.png","img2/200/Congruent/L/C_Dist_200_LN_21_LD_30_RN_2_RD_4_0.png","img2/100/Congruent/L/C_Dist_100_LN_3_LD_6_RN_2_RD_5_0.png","img2/200/Incongruent/L/I_Dist_200_LN_4_LD_6_RN_14_RD_30_0.png","img2/200/Congruent/L/C_Dist_200_LN_8_LD_15_RN_7_RD_21_0.png","img2/200/Incongruent/R/I_Dist_200_LN_14_LD_30_RN_6_RD_9_1.png","img2/100/Incongruent/R/I_Dist_100_LN_9_LD_18_RN_6_RD_10_1.png","img2/300/Incongruent/L/I_Dist_300_LN_4_LD_5_RN_8_RD_16_0.png","img2/300/Congruent/L/C_Dist_300_LN_18_LD_20_RN_9_RD_15_0.png","img2/100/Congruent/R/C_Dist_100_LN_2_LD_5_RN_11_RD_22_1.png","img2/300/Incongruent/L/I_Dist_300_LN_3_LD_6_RN_4_RD_20_0.png","img2/200/Incongruent/R/I_Dist_200_LN_6_LD_20_RN_3_RD_6_1.png","img2/100/Congruent/R/C_Dist_100_LN_3_LD_20_RN_4_RD_16_1.png","img2/100/Congruent/R/C_Dist_100_LN_4_LD_10_RN_15_RD_30_1.png","img2/200/Incongruent/R/I_Dist_200_LN_9_LD_15_RN_8_RD_10_1.png","img2/200/Congruent/R/C_Dist_200_LN_3_LD_10_RN_11_RD_22_1.png","img2/200/Incongruent/L/I_Dist_200_LN_7_LD_10_RN_8_RD_16_0.png","img2/200/Incongruent/R/I_Dist_200_LN_14_LD_30_RN_6_RD_9_1.png","img2/100/Incongruent/L/I_Dist_100_LN_9_LD_10_RN_20_RD_25_0.png","img2/300/Congruent/L/C_Dist_300_LN_20_LD_25_RN_14_RD_28_0.png","img2/200/Congruent/L/C_Dist_200_LN_4_LD_8_RN_3_RD_10_0.png","img2/300/Incongruent/L/I_Dist_300_LN_8_LD_10_RN_9_RD_18_0.png","img2/300/Congruent/R/C_Dist_300_LN_3_LD_12_RN_11_RD_20_1.png","img2/100/Incongruent/R/I_Dist_100_LN_10_LD_25_RN_9_RD_18_1.png","img2/300/Incongruent/R/I_Dist_300_LN_4_LD_20_RN_2_RD_4_1.png","img2/200/Congruent/L/C_Dist_200_LN_8_LD_15_RN_3_RD_9_0.png","img2/100/Congruent/R/C_Dist_100_LN_3_LD_20_RN_4_RD_16_1.png","img2/200/Congruent/L/C_Dist_200_LN_20_LD_25_RN_9_RD_15_0.png","img2/100/Incongruent/L/I_Dist_100_LN_3_LD_9_RN_7_RD_30_0.png","img2/300/Incongruent/R/I_Dist_300_LN_4_LD_20_RN_2_RD_4_1.png","img2/300/Congruent/L/C_Dist_300_LN_20_LD_25_RN_13_RD_26_0.png","img2/100/Congruent/R/C_Dist_100_LN_2_LD_5_RN_11_RD_22_1.png","img2/300/Congruent/L/C_Dist_300_LN_20_LD_25_RN_8_RD_16_0.png","img2/100/Incongruent/L/I_Dist_100_LN_4_LD_8_RN_8_RD_20_0.png","img2/200/Incongruent/R/I_Dist_200_LN_6_LD_20_RN_3_RD_6_1.png","img2/300/Congruent/R/C_Dist_300_LN_1_LD_5_RN_6_RD_12_1.png","img2/200/Incongruent/R/I_Dist_200_LN_4_LD_30_RN_1_RD_3_1.png","img2/300/Congruent/R/C_Dist_300_LN_7_LD_14_RN_20_RD_25_1.png","img2/300/Incongruent/L/I_Dist_300_LN_1_LD_2_RN_3_RD_15_0.png","img2/300/Congruent/R/C_Dist_300_LN_2_LD_10_RN_12_RD_24_1.png","img2/300/Congruent/L/C_Dist_300_LN_20_LD_25_RN_14_RD_28_0.png","img2/100/Incongruent/L/I_Dist_100_LN_2_LD_4_RN_8_RD_20_0.png","img2/200/Incongruent/R/I_Dist_200_LN_14_LD_30_RN_6_RD_9_1.png","img2/300/Congruent/R/C_Dist_300_LN_8_LD_15_RN_10_RD_12_1.png","img2/100/Congruent/R/C_Dist_100_LN_12_LD_30_RN_13_RD_26_1.png","img2/200/Incongruent/L/I_Dist_200_LN_7_LD_10_RN_8_RD_16_0.png","img2/100/Incongruent/L/I_Dist_100_LN_9_LD_10_RN_20_RD_25_0.png","img2/300/Incongruent/L/I_Dist_300_LN_2_LD_4_RN_6_RD_30_0.png","img2/100/Congruent/L/C_Dist_100_LN_9_LD_15_RN_8_RD_16_0.png","img2/300/Congruent/L/C_Dist_300_LN_11_LD_22_RN_1_RD_5_0.png","img2/200/Congruent/R/C_Dist_200_LN_5_LD_10_RN_14_RD_20_1.png","img2/100/Congruent/L/C_Dist_100_LN_8_LD_16_RN_2_RD_5_0.png","img2/100/Incongruent/L/I_Dist_100_LN_3_LD_5_RN_11_RD_22_0.png","img2/100/Incongruent/L/I_Dist_100_LN_2_LD_4_RN_8_RD_20_0.png","img2/200/Congruent/R/C_Dist_200_LN_3_LD_10_RN_14_RD_28_1.png","img2/300/Congruent/R/C_Dist_300_LN_1_LD_5_RN_3_RD_6_1.png","img2/100/Congruent/L/C_Dist_100_LN_15_LD_25_RN_13_RD_26_0.png","img2/200/Congruent/R/C_Dist_200_LN_9_LD_30_RN_13_RD_26_1.png","img2/200/Congruent/R/C_Dist_200_LN_1_LD_2_RN_21_RD_30_1.png","img2/300/Incongruent/L/I_Dist_300_LN_7_LD_10_RN_8_RD_20_0.png","img2/200/Congruent/L/C_Dist_200_LN_16_LD_20_RN_12_RD_20_0.png"],"dist100_C":[["C_Dist_100_LN_10_LD_25_RN_3_RD_10_0.png","C_Dist_100_LN_11_LD_22_RN_4_RD_10_0.png","C_Dist_100_LN_11_LD_22_RN_6_RD_15_0.png","C_Dist_100_LN_15_LD_25_RN_13_RD_26_0.png","C_Dist_100_LN_3_LD_6_RN_2_RD_5_0.png","C_Dist_100_LN_6_LD_20_RN_5_RD_25_0.png","C_Dist_100_LN_8_LD_16_RN_2_RD_5_0.png","C_Dist_100_LN_9_LD_15_RN_8_RD_16_0.png"],["C_Dist_100_LN_1_LD_2_RN_18_RD_30_1.png","C_Dist_100_LN_1_LD_2_RN_3_RD_5_1.png","C_Dist_100_LN_12_LD_30_RN_13_RD_26_1.png","C_Dist_100_LN_2_LD_5_RN_11_RD_22_1.png","C_Dist_100_LN_2_LD_5_RN_6_RD_12_1.png","C_Dist_100_LN_3_LD_20_RN_4_RD_16_1.png","C_Dist_100_LN_4_LD_10_RN_15_RD_30_1.png","C_Dist_100_LN_4_LD_8_RN_6_RD_10_1.png","C_Dist_100_LN_6_LD_12_RN_15_RD_25_1.png","C_Dist_100_LN_7_LD_14_RN_15_RD_25_1.png","C_Dist_100_LN_7_LD_14_RN_9_RD_15_1.png"]],"dist100_I":[["I_Dist_100_LN_1_LD_2_RN_8_RD_20_0.png","I_Dist_100_LN_2_LD_4_RN_6_RD_15_0.png","I_Dist_100_LN_2_LD_4_RN_8_RD_20_0.png","I_Dist_100_LN_3_LD_5_RN_11_RD_22_0.png","I_Dist_100_LN_3_LD_5_RN_8_RD_16_0.png","I_Dist_100_LN_3_LD_6_RN_4_RD_10_0.png","I_Dist_100_LN_3_LD_9_RN_7_RD_30_0.png","I_Dist_100_LN_4_LD_8_RN_8_RD_20_0.png","I_Dist_100_LN_6_LD_10_RN_11_RD_22_0.png","I_Dist_100_LN_6_LD_10_RN_13_RD_26_0.png","I_Dist_100_LN_6_LD_10_RN_7_RD_14_0.png","I_Dist_100_LN_9_LD_10_RN_20_RD_25_0.png","I_Dist_100_LN_9_LD_15_RN_13_RD_26_0.png","I_Dist_100_LN_9_LD_15_RN_14_RD_28_0.png"],["I_Dist_100_LN_10_LD_25_RN_8_RD_16_1.png","I_Dist_100_LN_10_LD_25_RN_9_RD_18_1.png","I_Dist_100_LN_11_LD_22_RN_9_RD_15_1.png","I_Dist_100_LN_12_LD_24_RN_9_RD_15_1.png","I_Dist_100_LN_12_LD_30_RN_2_RD_4_1.png","I_Dist_100_LN_13_LD_26_RN_12_RD_20_1.png","I_Dist_100_LN_13_LD_26_RN_6_RD_10_1.png","I_Dist_100_LN_17_LD_30_RN_10_RD_15_1.png","I_Dist_100_LN_6_LD_12_RN_3_RD_5_1.png","I_Dist_100_LN_8_LD_16_RN_6_RD_10_1.png","I_Dist_100_LN_8_LD_20_RN_1_RD_2_1.png","I_Dist_100_LN_9_LD_18_RN_6_RD_10_1.png"]],"dist100_S":[["E_Dist_100_LN_2_LD_12_RN_2_RD_30_0.png","E_Dist_100_LN_6_LD_10_RN_6_RD_12_0.png"],["E_Dist_100_LN_6_LD_12_RN_6_RD_10_1.png"]],"dist200_C":[["C_Dist_200_LN_11_LD_22_RN_3_RD_10_0.png","C_Dist_200_LN_12_LD_15_RN_6_RD_10_0.png","C_Dist_200_LN_12_LD_20_RN_6_RD_15_0.png","C_Dist_200_LN_14_LD_28_RN_6_RD_20_0.png","C_Dist_200_LN_15_LD_25_RN_4_RD_10_0.png","C_Dist_200_LN_16_LD_20_RN_12_RD_20_0.png","C_Dist_200_LN_16_LD_30_RN_9_RD_27_0.png","C_Dist_200_LN_20_LD_25_RN_9_RD_15_0.png","C_Dist_200_LN_21_LD_30_RN_2_RD_4_0.png","C_Dist_200_LN_4_LD_10_RN_3_RD_15_0.png","C_Dist_200_LN_4_LD_8_RN_3_RD_10_0.png","C_Dist_200_LN_6_LD_15_RN_3_RD_15_0.png","C_Dist_200_LN_7_LD_21_RN_2_RD_15_0.png","C_Dist_200_LN_8_LD_15_RN_2_RD_6_0.png","C_Dist_200_LN_8_LD_15_RN_3_RD_9_0.png","C_Dist_200_LN_8_LD_15_RN_7_RD_21_0.png","C_Dist_200_LN_9_LD_20_RN_4_RD_16_0.png"],["C_Dist_200_LN_1_LD_2_RN_21_RD_30_1.png","C_Dist_200_LN_13_LD_26_RN_14_RD_20_1.png","C_Dist_200_LN_3_LD_10_RN_11_RD_22_1.png","C_Dist_200_LN_3_LD_10_RN_14_RD_28_1.png","C_Dist_200_LN_3_LD_10_RN_7_RD_14_1.png","C_Dist_200_LN_3_LD_12_RN_9_RD_20_1.png","C_Dist_200_LN_3_LD_6_RN_14_RD_20_1.png","C_Dist_200_LN_5_LD_10_RN_14_RD_20_1.png","C_Dist_200_LN_6_LD_12_RN_7_RD_10_1.png","C_Dist_200_LN_6_LD_20_RN_11_RD_22_1.png","C_Dist_200_LN_7_LD_15_RN_18_RD_27_1.png","C_Dist_200_LN_9_LD_30_RN_13_RD_26_1.png"]],"dist200_I":[["I_Dist_200_LN_1_LD_2_RN_3_RD_10_0.png","I_Dist_200_LN_1_LD_3_RN_2_RD_15_0.png","I_Dist_200_LN_3_LD_4_RN_11_RD_20_0.png","I_Dist_200_LN_4_LD_5_RN_6_RD_10_0.png","I_Dist_200_LN_4_LD_6_RN_14_RD_30_0.png","I_Dist_200_LN_7_LD_10_RN_12_RD_24_0.png","I_Dist_200_LN_7_LD_10_RN_14_RD_28_0.png","I_Dist_200_LN_7_LD_10_RN_8_RD_16_0.png"],["I_Dist_200_LN_11_LD_20_RN_3_RD_4_1.png","I_Dist_200_LN_14_LD_30_RN_12_RD_18_1.png","I_Dist_200_LN_14_LD_30_RN_6_RD_9_1.png","I_Dist_200_LN_3_LD_10_RN_1_RD_2_1.png","I_Dist_200_LN_4_LD_30_RN_1_RD_3_1.png","I_Dist_200_LN_6_LD_20_RN_3_RD_6_1.png","I_Dist_200_LN_7_LD_15_RN_4_RD_6_1.png","I_Dist_200_LN_7_LD_15_RN_6_RD_9_1.png","I_Dist_200_LN_9_LD_15_RN_8_RD_10_1.png"]],"dist200_S":[["E_Dist_200_LN_3_LD_6_RN_3_RD_10_0.png"],["E_Dist_200_LN_3_LD_10_RN_3_RD_6_1.png"]],"dist300_C":[["C_Dist_300_LN_11_LD_22_RN_1_RD_5_0.png","C_Dist_300_LN_11_LD_22_RN_2_RD_10_0.png","C_Dist_300_LN_11_LD_22_RN_4_RD_20_0.png","C_Dist_300_LN_12_LD_24_RN_2_RD_10_0.png","C_Dist_300_LN_18_LD_20_RN_9_RD_15_0.png","C_Dist_300_LN_20_LD_25_RN_13_RD_26_0.png","C_Dist_300_LN_20_LD_25_RN_14_RD_28_0.png","C_Dist_300_LN_20_LD_25_RN_5_RD_10_0.png","C_Dist_300_LN_20_LD_25_RN_8_RD_16_0.png","C_Dist_300_LN_20_LD_25_RN_9_RD_18_0.png","C_Dist_300_LN_24_LD_30_RN_2_RD_4_0.png","C_Dist_300_LN_24_LD_30_RN_8_RD_16_0.png","C_Dist_300_LN_3_LD_6_RN_2_RD_10_0.png","C_Dist_300_LN_4_LD_10_RN_1_RD_10_0.png","C_Dist_300_LN_4_LD_5_RN_2_RD_4_0.png","C_Dist_300_LN_8_LD_16_RN_1_RD_5_0.png","C_Dist_300_LN_9_LD_10_RN_3_RD_5_0.png"],["C_Dist_300_LN_1_LD_20_RN_7_RD_20_1.png","C_Dist_300_LN_1_LD_3_RN_19_RD_30_1.png","C_Dist_300_LN_1_LD_30_RN_8_RD_24_1.png","C_Dist_300_LN_1_LD_5_RN_11_RD_22_1.png","C_Dist_300_LN_1_LD_5_RN_3_RD_6_1.png","C_Dist_300_LN_1_LD_5_RN_6_RD_12_1.png","C_Dist_300_LN_2_LD_10_RN_12_RD_24_1.png","C_Dist_300_LN_2_LD_20_RN_10_RD_25_1.png","C_Dist_300_LN_3_LD_12_RN_11_RD_20_1.png","C_Dist_300_LN_3_LD_6_RN_4_RD_5_1.png","C_Dist_300_LN_4_LD_20_RN_13_RD_26_1.png","C_Dist_300_LN_5_LD_25_RN_6_RD_12_1.png","C_Dist_300_LN_5_LD_25_RN_7_RD_14_1.png","C_Dist_300_LN_7_LD_14_RN_20_RD_25_1.png","C_Dist_300_LN_8_LD_15_RN_10_RD_12_1.png"]],"dist300_I":[["I_Dist_300_LN_1_LD_2_RN_2_RD_10_0.png","I_Dist_300_LN_1_LD_2_RN_3_RD_15_0.png","I_Dist_300_LN_2_LD_4_RN_6_RD_30_0.png","I_Dist_300_LN_3_LD_6_RN_4_RD_20_0.png","I_Dist_300_LN_4_LD_5_RN_6_RD_12_0.png","I_Dist_300_LN_4_LD_5_RN_8_RD_16_0.png","I_Dist_300_LN_7_LD_10_RN_8_RD_20_0.png","I_Dist_300_LN_8_LD_10_RN_14_RD_28_0.png","I_Dist_300_LN_8_LD_10_RN_9_RD_18_0.png"],["I_Dist_300_LN_13_LD_26_RN_12_RD_15_1.png","I_Dist_300_LN_4_LD_20_RN_2_RD_4_1.png"]],"dist300_S":[["E_Dist_300_LN_9_LD_12_RN_9_RD_20_0.png"],["E_Dist_300_LN_18_LD_30_RN_18_RD_20_1.png","E_Dist_300_LN_3_LD_10_RN_3_RD_5_1.png","E_Dist_300_LN_9_LD_20_RN_9_RD_12_1.png"]],"dist500_C":[["C_Dist_500_LN_10_LD_13_RN_7_RD_26_0.png","C_Dist_500_LN_10_LD_15_RN_4_RD_24_0.png","C_Dist_500_LN_12_LD_16_RN_3_RD_12_0.png","C_Dist_500_LN_12_LD_18_RN_4_RD_24_0.png","C_Dist_500_LN_15_LD_18_RN_5_RD_15_0.png","C_Dist_500_LN_15_LD_20_RN_1_RD_4_0.png","C_Dist_500_LN_18_LD_27_RN_1_RD_6_0.png","C_Dist_500_LN_20_LD_24_RN_1_RD_3_0.png","C_Dist_500_LN_20_LD_24_RN_3_RD_9_0.png","C_Dist_500_LN_20_LD_24_RN_7_RD_21_0.png","C_Dist_500_LN_20_LD_28_RN_3_RD_14_0.png","C_Dist_500_LN_21_LD_28_RN_6_RD_24_0.png","C_Dist_500_LN_22_LD_28_RN_2_RD_7_0.png","C_Dist_500_LN_25_LD_30_RN_9_RD_27_0.png","C_Dist_500_LN_4_LD_6_RN_1_RD_6_0.png","C_Dist_500_LN_5_LD_6_RN_2_RD_6_0.png","C_Dist_500_LN_6_LD_9_RN_1_RD_6_0.png","C_Dist_500_LN_7_LD_10_RN_1_RD_5_0.png","C_Dist_500_LN_8_LD_12_RN_1_RD_6_0.png","C_Dist_500_LN_8_LD_12_RN_4_RD_24_0.png"],["C_Dist_500_LN_1_LD_4_RN_12_RD_16_1.png","C_Dist_500_LN_1_LD_4_RN_9_RD_12_1.png","C_Dist_500_LN_1_LD_9_RN_11_RD_18_1.png","C_Dist_500_LN_10_LD_24_RN_22_RD_24_1.png","C_Dist_500_LN_2_LD_12_RN_10_RD_15_1.png","C_Dist_500_LN_2_LD_12_RN_12_RD_18_1.png","C_Dist_500_LN_2_LD_12_RN_4_RD_6_1.png","C_Dist_500_LN_2_LD_24_RN_7_RD_12_1.png","C_Dist_500_LN_2_LD_5_RN_18_RD_20_1.png","C_Dist_500_LN_2_LD_5_RN_9_RD_10_1.png","C_Dist_500_LN_2_LD_8_RN_12_RD_16_1.png","C_Dist_500_LN_2_LD_8_RN_21_RD_28_1.png","C_Dist_500_LN_3_LD_10_RN_4_RD_5_1.png","C_Dist_500_LN_3_LD_12_RN_15_RD_20_1.png","C_Dist_500_LN_3_LD_30_RN_6_RD_10_1.png","C_Dist_500_LN_3_LD_8_RN_14_RD_16_1.png","C_Dist_500_LN_4_LD_16_RN_15_RD_20_1.png","C_Dist_500_LN_4_LD_24_RN_12_RD_18_1.png","C_Dist_500_LN_5_LD_14_RN_6_RD_7_1.png","C_Dist_500_LN_7_LD_21_RN_20_RD_24_1.png","C_Dist_500_LN_7_LD_28_RN_12_RD_16_1.png","C_Dist_500_LN_7_LD_28_RN_9_RD_12_1.png","C_Dist_500_LN_9_LD_27_RN_20_RD_24_1.png"]],"dist500_I":[["I_Dist_500_LN_2_LD_3_RN_4_RD_24_0.png","I_Dist_500_LN_5_LD_6_RN_6_RD_18_0.png","I_Dist_500_LN_7_LD_8_RN_9_RD_24_0.png"],["I_Dist_500_LN_7_LD_21_RN_5_RD_6_1.png"]],"dist500_S":[["E_Dist_500_LN_6_LD_8_RN_6_RD_24_0.png"],["E_Dist_500_LN_2_LD_12_RN_2_RD_3_1.png","E_Dist_500_LN_6_LD_24_RN_6_RD_8_1.png"]]}},{"start_time":1551887090057,"click_time":1551887092014,"finger_time":1551887091635,"fix_duration":1181.7182524304292,"trial":1,"RT":1578,"MT":379,"sideResp":1,"stimulus":[],"xmouse":[777,777,777,777,777,777,777,777,777,777,777,777,777,777,777,777,777,777,778,778,778,778,778,778,778,778,778,778,778,778,778,778,778,778,778,778,778,778,778,778,778,778,778,778,778,778,778,778,778,778,778,778,778,778,778,778,778,778,778,778,778,778,778,778,778,778,778,778,778,778,778,778,778,778,778,778,778,778,771,751,698,677,656,639,623,598,588,576,553,530,521,520,520,520,517,508,506,500],"ymouse":[602,602,602,602,602,602,602,602,602,602,602,602,602,602,602,602,602,602,601,601,601,601,601,601,601,601,601,601,601,601,601,601,601,601,601,601,601,601,601,601,601,601,601,601,601,601,601,601,601,601,601,601,601,601,601,601,601,601,601,601,601,601,601,601,601,601,601,601,601,601,601,601,601,601,601,601,601,601,572,536,470,439,407,369,315,193,127,48,0,0,0,0,0,0,0,0,0,1],"timestamp_mouse":[18,36,57,77,96,116,137,157,176,198,218,238,257,278,296,317,338,356,378,397,416,436,458,476,497,517,538,556,576,597,616,636,657,678,696,716,737,756,778,797,818,836,856,877,896,917,937,957,977,998,1017,1037,1056,1077,1096,1116,1138,1157,1177,1197,1217,1237,1257,1278,1297,1318,1337,1357,1376,1398,1418,1436,1458,1478,1496,1518,1537,1557,1578,1598,1617,1636,1657,1676,1697,1717,1736,1756,1776,1796,1817,1837,1856,1877,1897,1917,1937,1956],"xSR":741.5,"ySR":573.95,"xT1":424.9,"yT1":0,"xT2":1058.1,"yT2":0,"toosoon":0,"cond_shown":"Congruent","ratio_trial":300,"L_num":4,"L_den":10,"R_num":1,"R_den":10,"correct_side":1,"subjID":"MANUELFRANCISCOVEGARINCON1","gender":"2","school":"SEXTO","age":"12"},{"start_time":1551887093808,"click_time":1551887095494,"finger_time":1551887094174,"fix_duration":253.59208759140273,"trial":2,"RT":366,"MT":1320,"sideResp":2,"stimulus":[],"xmouse":[745,745,745,745,745,745,745,745,745,745,745,745,745,745,749,756,764,774,798,808,814,817,817,817,817,817,817,817,817,817,817,817,817,817,817,817,819,823,834,839,845,851,863,894,929,963,996,1027,1076,1096,1112,1133,1141,1155,1159,1161,1162,1164,1168,1168,1168,1170,1171,1171,1164,1161,1161,1161,1161,1159,1150,1132,1094,1066,1059,1058,1056,1052,1049,1048,1048,1049,1050,1055,1059],"ymouse":[615,615,615,615,615,615,615,615,615,615,615,615,615,616,621,629,639,652,678,689,695,697,697,698,698,698,698,698,698,698,698,698,698,698,698,698,697,685,659,649,636,624,607,565,527,494,463,432,389,371,355,329,313,283,269,252,233,218,190,179,172,163,152,120,110,107,107,107,107,107,107,107,106,105,103,102,100,92,84,73,69,65,64,60,59],"timestamp_mouse":[8,30,45,65,87,105,126,146,165,187,205,226,247,265,285,306,327,346,366,387,406,426,446,466,486,505,527,545,567,586,606,626,646,667,685,706,726,746,765,786,805,825,846,866,885,907,926,946,967,985,1006,1026,1045,1065,1086,1106,1125,1146,1166,1186,1206,1226,1246,1265,1285,1306,1327,1346,1366,1387,1405,1426,1445,1466,1485,1506,1526,1546,1566,1587,1607,1627,1647,1666,1686],"xSR":741.5,"ySR":573.95,"xT1":424.9,"yT1":0,"xT2":1058.1,"yT2":0,"toosoon":0,"cond_shown":"Incongruent","ratio_trial":100,"L_num":2,"L_den":4,"R_num":8,"R_den":20,"correct_side":1,"subjID":"MANUELFRANCISCOVEGARINCON1","gender":"2","school":"SEXTO","age":"12"},{"start_time":1551887097046,"click_time":1551887098874,"finger_time":1551887098373,"fix_duration":250,"trial":3,"RT":1327,"MT":501,"sideResp":1,"stimulus":[],"xmouse":[782,782,782,782,782,782,782,782,782,782,782,782,782,782,782,782,782,782,782,782,782,782,782,782,782,782,782,782,782,782,782,782,782,782,782,782,782,782,782,782,782,782,782,782,782,782,782,782,782,782,782,782,782,782,782,782,782,782,782,782,782,782,782,780,777,774,764,762,760,752,742,656,611,573,546,520,460,434,417,401,384,380,380,380,380,380,381,388,392,404,409,431],"ymouse":[623,623,623,623,623,623,623,623,623,623,623,623,623,623,623,623,623,623,623,623,623,623,623,623,623,623,623,623,623,623,623,623,623,623,623,623,623,623,623,623,623,623,623,623,623,623,623,623,623,623,623,623,623,623,623,623,623,623,623,623,623,623,623,612,605,591,550,528,497,450,374,158,81,17,0,0,0,0,0,0,0,0,0,0,1,4,10,25,32,42,46,57],"timestamp_mouse":[9,44,49,68,87,109,129,147,169,187,208,228,247,269,289,309,329,348,367,388,409,429,449,468,487,509,529,548,569,589,607,627,648,667,688,707,727,749,769,789,808,829,848,869,887,907,929,948,967,989,1008,1029,1048,1069,1088,1107,1127,1148,1168,1188,1207,1228,1248,1267,1289,1308,1327,1347,1368,1389,1409,1427,1447,1467,1487,1508,1527,1547,1568,1588,1608,1628,1648,1668,1688,1707,1727,1747,1767,1787,1809,1828],"xSR":741.5,"ySR":573.95,"xT1":424.9,"yT1":0,"xT2":1058.1,"yT2":0,"toosoon":0,"cond_shown":"Incongruent","ratio_trial":100,"L_num":10,"L_den":25,"R_num":9,"R_den":18,"correct_side":2,"subjID":"MANUELFRANCISCOVEGARINCON1","gender":"2","school":"SEXTO","age":"12"},{"start_time":1551887102155,"click_time":1551887103474,"finger_time":1551887102834,"fix_duration":939.5804191057398,"trial":4,"RT":679,"MT":640,"sideResp":2,"stimulus":[],"xmouse":[798,798,798,798,798,798,798,798,798,798,798,798,798,798,798,798,798,798,798,798,798,798,799,799,799,799,799,800,801,801,801,802,808,815,847,868,1031,1117,1209,1305,1407,1509,1509,1509,1509,1509,1582,1565,1537,1494,1456,1374,1335,1301,1252,1241,1210,1209,1209,1209,1209,1209,1209,1206,1198,1176,1147],"ymouse":[670,670,670,670,670,670,670,670,670,670,670,670,670,670,670,670,670,670,667,666,663,661,660,660,660,660,659,658,657,657,657,656,654,652,644,641,566,496,415,335,270,232,232,232,232,232,208,208,208,199,188,158,138,118,93,88,74,74,74,74,74,74,73,71,69,60,54],"timestamp_mouse":[1,33,39,59,79,98,119,138,160,179,198,219,238,260,279,300,318,338,359,379,399,419,438,460,478,499,519,540,558,579,600,618,638,659,679,699,719,740,758,778,798,820,840,859,878,899,919,938,959,980,999,1019,1038,1059,1079,1099,1119,1138,1159,1178,1199,1219,1239,1259,1278,1299,1319],"xSR":741.5,"ySR":573.95,"xT1":424.9,"yT1":0,"xT2":1058.1,"yT2":0,"toosoon":0,"cond_shown":"Congruent","ratio_trial":300,"L_num":1,"L_den":5,"R_num":11,"R_den":22,"correct_side":2,"subjID":"MANUELFRANCISCOVEGARINCON1","gender":"2","school":"SEXTO","age":"12"},{"start_time":1551887105325,"click_time":1551887106774,"finger_time":1551887105994,"fix_duration":250,"trial":5,"RT":669,"MT":780,"sideResp":2,"stimulus":[],"xmouse":[755,755,755,755,755,755,755,755,755,755,755,755,755,755,755,755,755,755,755,755,755,755,755,755,756,756,756,756,756,760,770,790,812,851,861,867,869,869,867,863,857,845,808,787,769,756,748,746,746,746,746,748,758,769,780,798,811,844,869,897,926,952,993,1005,1014,1034,1051,1095,1105,1111,1115,1116,1116],"ymouse":[607,607,607,607,607,607,607,607,607,607,607,607,607,607,607,607,607,607,607,607,607,607,607,607,606,606,606,606,606,603,602,596,584,537,510,490,472,464,463,462,461,457,437,424,410,397,376,340,317,297,281,270,246,232,218,208,204,200,198,198,198,197,189,186,182,171,159,137,132,127,119,108,84],"timestamp_mouse":[9,34,48,68,90,109,128,150,170,189,209,230,250,270,289,308,330,350,369,388,410,430,450,469,488,509,530,549,569,589,609,629,649,669,688,708,729,750,768,788,808,828,848,868,890,909,928,948,968,989,1010,1029,1049,1068,1088,1110,1129,1148,1168,1189,1208,1230,1248,1270,1290,1309,1329,1348,1369,1389,1409,1430,1448],"xSR":741.5,"ySR":573.95,"xT1":424.9,"yT1":0,"xT2":1058.1,"yT2":0,"toosoon":0,"cond_shown":"Incongruent","ratio_trial":200,"L_num":1,"L_den":3,"R_num":2,"R_den":15,"correct_side":1,"subjID":"MANUELFRANCISCOVEGARINCON1","gender":"2","school":"SEXTO","age":"12"},{"start_time":1551887109528,"click_time":1551887112655,"finger_time":1551887111853,"fix_duration":1371.5733947068295,"trial":6,"RT":2325,"MT":802,"sideResp":2,"stimulus":[],"xmouse":[762,762,762,762,762,762,762,762,762,762,762,762,762,762,762,762,762,762,762,762,762,762,762,762,762,762,762,762,762,762,762,762,762,762,762,762,762,762,762,762,762,762,762,762,762,762,762,762,762,762,762,762,762,762,762,762,762,762,762,762,762,762,762,762,762,762,762,762,762,762,762,762,762,762,762,762,762,762,762,762,762,762,762,762,762,762,762,762,762,762,762,762,762,762,762,762,762,762,762,762,762,762,762,762,762,762,762,762,762,762,764,770,813,828,838,840,845,872,894,911,928,938,961,982,1015,1058,1136,1190,1199,1215,1248,1289,1345,1353,1354,1354,1332,1279,1259,1244,1236,1233,1229,1229,1229,1229,1229,1229,1229,1226,1218,1209,1188,1184,1179,1169,1152],"ymouse":[604,604,604,604,604,604,604,604,604,604,604,604,604,604,604,604,604,604,604,604,604,604,604,604,604,604,604,604,604,604,604,604,604,604,604,604,604,604,604,604,604,604,604,604,604,604,604,604,604,604,604,604,604,604,604,604,604,604,604,604,604,604,604,604,604,604,604,604,604,604,604,604,604,604,604,604,604,604,604,604,604,604,604,604,604,604,604,604,604,604,604,604,604,604,604,604,604,604,604,604,604,604,604,604,604,604,604,604,604,604,602,598,587,582,576,574,570,545,526,510,498,486,468,454,436,408,350,312,307,290,249,187,98,90,88,85,32,0,0,0,0,0,0,0,0,0,0,0,0,0,2,3,4,5,6,8,11],"timestamp_mouse":[9,31,46,65,85,105,127,147,165,187,205,225,246,265,286,305,325,347,367,386,406,426,445,467,485,507,525,547,567,585,605,626,646,665,685,706,727,745,767,786,805,827,847,866,886,907,925,945,966,985,1006,1026,1046,1067,1085,1106,1126,1146,1165,1185,1206,1226,1246,1266,1286,1306,1327,1346,1366,1386,1405,1426,1445,1465,1487,1506,1525,1547,1566,1585,1607,1627,1646,1667,1686,1705,1726,1747,1765,1786,1806,1825,1847,1867,1886,1907,1925,1946,1967,1985,2006,2026,2047,2065,2086,2107,2125,2145,2166,2186,2205,2225,2246,2267,2286,2307,2325,2345,2367,2386,2406,2425,2445,2466,2486,2505,2527,2545,2567,2586,2607,2626,2645,2665,2686,2706,2726,2745,2766,2786,2806,2826,2847,2866,2886,2906,2925,2946,2967,2987,3007,3026,3047,3067,3085,3105,3127],"xSR":741.5,"ySR":573.95,"xT1":424.9,"yT1":0,"xT2":1058.1,"yT2":0,"toosoon":0,"cond_shown":"Congruent","ratio_trial":300,"L_num":1,"L_den":5,"R_num":6,"R_den":12,"correct_side":2,"subjID":"MANUELFRANCISCOVEGARINCON1","gender":"2","school":"SEXTO","age":"12"},{"start_time":1551887116948,"click_time":1551887118874,"finger_time":1551887118514,"fix_duration":1253.623754514037,"trial":7,"RT":1566,"MT":360,"sideResp":1,"stimulus":[],"xmouse":[804,804,804,804,804,804,804,804,804,804,804,804,804,804,804,804,804,804,804,804,804,804,804,804,804,804,804,804,804,804,804,804,804,804,804,804,804,804,804,804,804,804,804,804,802,801,799,799,799,799,799,799,799,799,799,799,799,799,799,799,799,799,799,799,799,799,799,799,799,799,799,799,799,799,799,799,800,796,784,769,755,715,690,665,644,614,559,548,543,540,540,540,540,537,532,520,505],"ymouse":[643,643,643,643,643,643,643,643,643,643,643,643,643,643,643,643,643,643,643,643,643,643,643,643,643,643,643,643,643,643,643,643,643,643,643,643,643,643,643,643,643,643,643,643,641,638,634,634,634,634,634,634,634,634,634,634,634,634,634,634,634,634,634,634,634,634,634,634,634,634,634,634,634,634,634,630,618,581,558,533,504,434,387,330,282,209,67,31,5,0,0,0,0,0,0,0,2],"timestamp_mouse":[10,41,46,67,85,107,125,146,167,187,206,226,246,265,287,305,326,345,367,387,407,427,445,466,487,506,527,545,566,587,606,626,647,666,686,707,726,747,767,786,806,827,847,865,886,905,926,947,967,986,1005,1026,1047,1065,1085,1107,1126,1146,1167,1187,1205,1227,1245,1266,1286,1307,1325,1346,1365,1385,1405,1425,1446,1466,1485,1505,1525,1545,1566,1586,1606,1625,1645,1665,1687,1707,1726,1745,1766,1785,1806,1826,1846,1866,1887,1905,1925],"xSR":741.5,"ySR":573.95,"xT1":424.9,"yT1":0,"xT2":1058.1,"yT2":0,"toosoon":0,"cond_shown":"Congruent","ratio_trial":200,"L_num":6,"L_den":15,"R_num":3,"R_den":15,"correct_side":1,"subjID":"MANUELFRANCISCOVEGARINCON1","gender":"2","school":"SEXTO","age":"12"},{"start_time":1551887121404,"click_time":1551887123335,"finger_time":1551887122913,"fix_duration":1068.3021315205774,"trial":8,"RT":1509,"MT":422,"sideResp":1,"stimulus":[],"xmouse":[756,756,756,756,756,756,756,756,756,756,756,756,756,756,756,756,756,756,756,756,756,756,756,756,756,756,756,756,756,756,756,756,756,756,756,756,756,756,756,756,756,756,756,756,756,756,756,756,756,756,756,758,758,758,758,758,758,758,758,758,758,758,758,758,758,758,758,758,758,758,759,759,759,757,747,728,707,681,652,635,609,584,545,528,527,527,527,528,529,529,529,529,528,526,526,525,523],"ymouse":[666,666,666,666,666,666,666,666,666,666,666,666,666,666,666,666,666,666,666,666,666,666,666,666,666,666,666,666,666,666,666,666,666,666,666,666,666,666,666,666,666,666,666,666,666,666,666,666,666,666,665,662,662,662,662,662,662,662,662,662,662,662,662,662,662,662,662,662,662,662,658,655,649,630,608,576,539,490,403,344,282,225,147,87,66,53,43,36,31,19,17,15,14,14,14,14,14],"timestamp_mouse":[9,40,50,70,89,109,130,149,171,189,211,231,250,270,289,309,330,351,370,391,411,429,450,469,490,509,531,551,570,590,611,630,651,670,689,710,729,750,770,789,811,829,851,869,891,910,931,951,969,991,1009,1030,1050,1069,1090,1110,1129,1151,1170,1189,1211,1231,1249,1270,1289,1309,1331,1350,1371,1390,1410,1430,1449,1469,1491,1509,1529,1549,1569,1589,1610,1629,1649,1669,1690,1710,1730,1749,1769,1791,1810,1830,1849,1869,1891,1910,1931],"xSR":741.5,"ySR":573.95,"xT1":424.9,"yT1":0,"xT2":1058.1,"yT2":0,"toosoon":0,"cond_shown":"Congruent","ratio_trial":100,"L_num":12,"L_den":30,"R_num":13,"R_den":26,"correct_side":2,"subjID":"MANUELFRANCISCOVEGARINCON1","gender":"2","school":"SEXTO","age":"12"},{"start_time":1551887125205,"click_time":1551887126633,"finger_time":1551887125934,"fix_duration":250,"trial":9,"RT":729,"MT":699,"sideResp":2,"stimulus":[],"xmouse":[786,786,786,786,786,786,786,786,786,786,787,788,789,791,792,794,795,795,795,795,795,795,795,795,795,795,795,795,795,795,795,795,795,795,802,818,835,855,889,899,907,911,914,914,914,914,914,921,971,1031,1130,1157,1220,1240,1242,1242,1242,1242,1242,1242,1242,1242,1242,1222,1208,1190,1179,1167,1152,1142,1138,1137],"ymouse":[600,600,600,600,600,600,600,600,600,600,601,600,599,592,588,585,583,582,582,582,582,582,582,582,582,582,582,582,582,582,582,582,582,582,582,579,570,551,491,469,456,447,442,440,440,440,438,432,393,353,278,257,198,159,150,149,149,149,149,149,149,149,148,143,139,134,131,126,117,107,101,97],"timestamp_mouse":[10,36,49,69,89,110,128,149,169,189,209,228,248,268,289,308,330,349,368,388,408,429,449,468,489,510,529,550,569,588,609,628,648,670,690,709,729,750,768,788,809,829,850,869,889,908,930,948,969,989,1010,1028,1049,1069,1090,1109,1130,1149,1169,1188,1210,1230,1249,1268,1289,1309,1329,1348,1369,1390,1409,1428],"xSR":741.5,"ySR":573.95,"xT1":424.9,"yT1":0,"xT2":1058.1,"yT2":0,"toosoon":0,"cond_shown":"Congruent","ratio_trial":100,"L_num":4,"L_den":10,"R_num":15,"R_den":30,"correct_side":2,"subjID":"MANUELFRANCISCOVEGARINCON1","gender":"2","school":"SEXTO","age":"12"},{"start_time":1551887128355,"click_time":1551887129433,"finger_time":1551887128935,"fix_duration":279.44496602157943,"trial":10,"RT":580,"MT":498,"sideResp":2,"stimulus":[],"xmouse":[789,789,789,789,789,789,789,789,789,789,789,789,789,789,789,789,789,789,789,789,789,789,789,789,789,789,789,789,789,790,791,798,804,811,816,823,826,826,826,826,826,826,827,835,847,866,937,962,985,1007,1035,1070,1075,1077,1077],"ymouse":[615,615,615,615,615,615,615,615,615,615,615,615,615,615,615,615,604,596,590,582,577,574,574,574,574,574,574,574,574,571,571,570,569,569,566,562,560,558,556,555,552,550,539,526,510,484,402,368,333,291,239,151,128,109,96],"timestamp_mouse":[1,19,39,58,80,99,119,139,158,179,198,219,238,259,280,298,319,340,358,379,399,419,440,458,480,499,518,538,559,580,599,619,639,658,680,700,719,740,758,779,798,818,839,859,880,898,918,940,960,979,1000,1018,1040,1060,1078],"xSR":741.5,"ySR":573.95,"xT1":424.9,"yT1":0,"xT2":1058.1,"yT2":0,"toosoon":0,"cond_shown":"Incongruent","ratio_trial":300,"L_num":8,"L_den":10,"R_num":14,"R_den":28,"correct_side":1,"subjID":"MANUELFRANCISCOVEGARINCON1","gender":"2","school":"SEXTO","age":"12"},{"start_time":1551887133415,"click_time":1551887134793,"finger_time":1551887134174,"fix_duration":378.2632364232694,"trial":11,"RT":759,"MT":619,"sideResp":1,"stimulus":[],"xmouse":[770,770,770,770,770,770,770,770,770,770,770,770,770,770,770,770,770,770,770,770,770,770,770,770,770,770,770,770,770,770,770,770,770,770,770,770,770,733,700,660,637,595,511,456,404,361,340,336,336,336,336,336,342,348,356,365,377,402,412,415,415,415,417,418,420,423,425,430,444],"ymouse":[618,618,618,618,618,618,618,618,618,618,618,618,618,618,618,618,618,618,618,618,618,618,618,618,618,618,618,618,618,618,618,618,618,618,618,612,599,457,328,193,68,0,0,0,0,0,0,0,0,0,8,13,49,68,84,101,116,136,141,142,142,142,142,142,140,130,120,107,80],"timestamp_mouse":[19,50,58,79,99,119,139,159,180,198,219,239,258,280,300,320,339,360,379,400,420,439,460,480,500,520,539,559,579,599,619,640,658,680,700,719,739,759,778,798,819,839,859,878,898,919,939,960,979,999,1019,1039,1059,1079,1098,1118,1138,1159,1179,1199,1218,1239,1260,1279,1298,1318,1338,1358,1378],"xSR":741.5,"ySR":573.95,"xT1":424.9,"yT1":0,"xT2":1058.1,"yT2":0,"toosoon":0,"cond_shown":"Congruent","ratio_trial":200,"L_num":20,"L_den":25,"R_num":9,"R_den":15,"correct_side":1,"subjID":"MANUELFRANCISCOVEGARINCON1","gender":"2","school":"SEXTO","age":"12"},{"start_time":1551887137331,"click_time":1551887138373,"finger_time":1551887137973,"fix_duration":1375.020963713799,"trial":12,"RT":642,"MT":400,"sideResp":1,"stimulus":[],"xmouse":[754,754,754,754,754,754,754,754,754,754,754,754,754,754,754,754,754,754,754,754,754,754,754,754,754,754,754,754,754,754,754,754,730,703,681,666,653,637,629,621,617,609,595,594,593,593,593,591,584,572,553,528,490],"ymouse":[647,647,647,647,647,647,647,647,647,647,647,647,647,647,647,647,647,647,647,647,647,647,647,647,647,647,647,647,647,647,647,637,573,511,465,438,408,362,333,301,273,246,202,194,193,192,192,184,172,157,134,106,61],"timestamp_mouse":[12,24,44,63,82,102,123,142,162,184,202,224,242,263,282,304,322,342,362,383,402,424,442,463,483,503,522,544,564,583,604,624,642,662,683,703,723,743,762,783,804,823,842,862,882,903,922,942,962,984,1003,1024,1042],"xSR":741.5,"ySR":573.95,"xT1":424.9,"yT1":0,"xT2":1058.1,"yT2":0,"toosoon":0,"cond_shown":"Congruent","ratio_trial":100,"L_num":8,"L_den":16,"R_num":2,"R_den":5,"correct_side":1,"subjID":"MANUELFRANCISCOVEGARINCON1","gender":"2","school":"SEXTO","age":"12"},{"start_time":1551887139613,"click_time":1551887140795,"finger_time":1551887140396,"fix_duration":338.58571848129236,"trial":13,"RT":783,"MT":399,"sideResp":1,"stimulus":[],"xmouse":[782,782,782,782,782,782,782,782,782,782,782,782,782,782,782,782,782,782,782,782,782,782,782,782,782,782,782,782,782,782,782,782,782,782,782,782,782,781,766,751,727,693,657,637,630,624,620,615,613,613,613,612,611,600,587,568,539,512,474,466],"ymouse":[617,617,617,617,617,617,617,617,617,617,617,617,617,617,617,617,617,617,617,617,617,617,617,617,617,617,617,617,617,617,617,617,617,617,617,617,618,611,583,557,517,468,409,363,337,317,292,272,261,253,252,249,243,224,208,188,163,140,106,96],"timestamp_mouse":[8,34,41,61,82,102,121,141,163,181,202,221,241,261,281,302,322,341,363,382,403,423,441,462,482,501,522,543,562,583,603,623,641,661,683,702,722,742,761,783,801,822,841,861,881,902,922,942,961,982,1002,1021,1041,1061,1081,1101,1123,1142,1161,1181],"xSR":741.5,"ySR":573.95,"xT1":424.9,"yT1":0,"xT2":1058.1,"yT2":0,"toosoon":0,"cond_shown":"Congruent","ratio_trial":200,"L_num":20,"L_den":25,"R_num":9,"R_den":15,"correct_side":1,"subjID":"MANUELFRANCISCOVEGARINCON1","gender":"2","school":"SEXTO","age":"12"},{"start_time":1551887145104,"click_time":1551887146875,"finger_time":1551887146094,"fix_duration":1428.645350533955,"trial":14,"RT":990,"MT":781,"sideResp":1,"stimulus":[],"xmouse":[804,804,804,804,804,804,804,804,804,804,804,804,804,804,804,804,804,804,804,804,804,804,804,804,804,804,804,804,804,804,804,804,804,804,804,804,804,804,804,804,804,804,804,804,804,804,794,782,767,722,700,681,659,601,562,517,475,428,395,385,375,369,368,368,368,368,368,368,371,371,371,371,371,372,378,386,394,397,397,397,398,399,399,400,400,400,400,409,430],"ymouse":[666,666,666,666,666,666,666,666,666,666,666,666,666,666,666,666,666,666,666,666,666,666,666,666,666,666,666,666,666,666,666,666,666,666,666,666,666,666,666,666,666,666,666,666,666,666,654,641,624,578,555,532,502,420,365,304,244,171,103,79,61,49,45,41,40,39,39,39,36,35,35,35,35,35,30,29,28,28,28,28,27,27,27,26,26,26,25,25,34],"timestamp_mouse":[11,34,51,70,90,111,130,150,171,190,210,230,251,270,290,311,330,350,371,390,411,431,451,470,490,510,531,550,570,592,610,631,650,671,690,712,732,752,772,790,811,832,851,871,892,910,931,951,970,990,1011,1031,1051,1070,1090,1110,1130,1152,1171,1190,1210,1231,1250,1270,1291,1310,1330,1352,1371,1390,1411,1431,1450,1470,1490,1511,1531,1551,1571,1591,1610,1630,1650,1670,1691,1712,1732,1751,1771],"xSR":741.5,"ySR":573.95,"xT1":424.9,"yT1":0,"xT2":1058.1,"yT2":0,"toosoon":0,"cond_shown":"Congruent","ratio_trial":300,"L_num":4,"L_den":5,"R_num":2,"R_den":4,"correct_side":1,"subjID":"MANUELFRANCISCOVEGARINCON1","gender":"2","school":"SEXTO","age":"12"},{"start_time":1551887149101,"click_time":1551887150796,"finger_time":1551887150236,"fix_duration":824.4533541970906,"trial":15,"RT":1135,"MT":560,"sideResp":1,"stimulus":[],"xmouse":[769,769,769,769,769,769,769,769,769,769,769,769,769,769,769,769,769,769,769,769,769,769,769,769,769,769,769,769,769,769,769,769,769,769,769,769,769,769,769,769,769,769,769,769,769,769,769,769,769,769,769,769,769,769,770,770,741,724,611,591,587,583,580,577,574,573,571,568,559,551,544,539,534,522,517,514,509,505,498,490,488,487,485,483,483],"ymouse":[609,609,609,609,609,609,609,609,609,609,609,609,609,609,609,609,609,609,609,609,609,609,609,609,609,609,609,609,609,609,609,609,609,609,609,609,609,609,609,609,609,609,609,609,609,609,609,609,609,609,609,609,609,609,609,606,572,558,469,452,447,438,430,416,407,397,386,371,344,335,326,316,303,266,247,228,209,195,175,152,142,131,119,100,93],"timestamp_mouse":[15,39,54,74,93,115,133,155,175,193,214,234,255,274,293,314,334,354,374,394,413,434,454,474,495,514,533,553,573,594,615,634,653,674,694,713,734,755,774,794,813,834,853,873,895,913,934,955,974,994,1014,1033,1054,1073,1093,1113,1135,1154,1173,1194,1214,1234,1254,1274,1295,1313,1334,1355,1373,1395,1414,1433,1454,1473,1493,1514,1534,1553,1573,1595,1614,1633,1654,1674,1695],"xSR":741.5,"ySR":573.95,"xT1":424.9,"yT1":0,"xT2":1058.1,"yT2":0,"toosoon":0,"cond_shown":"Incongruent","ratio_trial":100,"L_num":6,"L_den":12,"R_num":3,"R_den":5,"correct_side":2,"subjID":"MANUELFRANCISCOVEGARINCON1","gender":"2","school":"SEXTO","age":"12"},{"start_time":1551887154976,"click_time":1551887156774,"finger_time":1551887156415,"fix_duration":959.3016855891951,"trial":16,"RT":1439,"MT":359,"sideResp":2,"stimulus":[],"xmouse":[772,772,772,772,772,772,777,782,788,813,820,820,820,820,820,820,820,820,820,820,820,820,820,820,820,820,820,820,820,820,820,820,820,820,820,820,820,820,820,820,820,820,820,820,820,820,820,820,820,820,820,820,820,820,820,820,820,820,820,820,820,820,820,820,820,820,820,820,821,825,841,850,861,875,891,902,917,930,949,968,1008,1027,1046,1068,1083,1103,1110,1113,1115,1115],"ymouse":[627,627,627,627,627,627,624,623,623,630,633,633,633,633,633,633,633,633,633,633,633,633,633,633,633,633,633,633,633,633,633,633,633,633,633,633,633,633,633,633,633,633,633,633,633,633,633,633,633,633,633,633,633,633,633,633,633,633,633,633,633,633,633,633,633,633,633,633,633,630,616,606,598,579,554,536,512,490,463,433,364,332,298,260,232,183,159,135,110,67],"timestamp_mouse":[31,38,59,78,99,118,139,158,179,198,220,239,259,279,299,318,340,359,379,398,419,438,458,479,500,518,539,558,579,600,618,638,660,678,698,719,738,758,778,799,819,839,858,879,898,918,940,959,979,998,1018,1039,1059,1079,1099,1119,1138,1158,1178,1198,1218,1240,1258,1280,1300,1319,1339,1358,1378,1398,1420,1439,1459,1478,1498,1518,1539,1558,1578,1598,1618,1639,1659,1678,1698,1718,1738,1759,1780,1798],"xSR":741.5,"ySR":573.95,"xT1":424.9,"yT1":0,"xT2":1058.1,"yT2":0,"toosoon":0,"cond_shown":"Incongruent","ratio_trial":200,"L_num":4,"L_den":5,"R_num":6,"R_den":10,"correct_side":1,"subjID":"MANUELFRANCISCOVEGARINCON1","gender":"2","school":"SEXTO","age":"12"},{"start_time":1551887158852,"click_time":1551887160375,"finger_time":1551887159015,"fix_duration":336.2331547056658,"trial":17,"RT":163,"MT":1360,"sideResp":1,"stimulus":[],"xmouse":[816,816,816,816,816,808,767,744,731,728,728,728,728,728,728,728,728,728,728,728,728,728,728,728,728,728,728,728,728,728,736,754,792,808,817,822,822,822,822,822,822,822,822,818,815,810,810,802,791,772,726,630,574,516,461,428,407,405,405,405,405,405,405,404,398,392,385,384,384,384,384,391,398,408,416,423,430],"ymouse":[666,666,666,666,666,666,666,666,666,666,666,666,666,666,666,666,666,666,666,666,666,666,666,666,666,666,666,666,666,666,666,666,666,666,666,666,666,666,666,666,666,666,666,660,653,630,603,478,397,301,141,0,0,0,0,0,0,0,0,0,0,0,0,0,5,10,21,23,23,23,23,23,23,23,23,22,20],"timestamp_mouse":[10,22,47,63,83,102,122,144,163,183,202,223,243,262,283,304,322,343,363,382,403,423,443,464,483,502,523,542,563,583,603,622,642,663,682,702,723,742,763,782,803,824,842,862,883,903,923,944,962,983,1003,1022,1042,1062,1082,1102,1122,1142,1162,1183,1203,1223,1242,1263,1283,1303,1322,1342,1363,1382,1403,1422,1442,1463,1483,1503,1523],"xSR":741.5,"ySR":573.95,"xT1":424.9,"yT1":0,"xT2":1058.1,"yT2":0,"toosoon":0,"cond_shown":"Incongruent","ratio_trial":200,"L_num":7,"L_den":15,"R_num":4,"R_den":6,"correct_side":2,"subjID":"MANUELFRANCISCOVEGARINCON1","gender":"2","school":"SEXTO","age":"12"},{"start_time":1551887162992,"click_time":1551887165874,"finger_time":1551887164415,"fix_duration":1155.0265027474284,"trial":18,"RT":1423,"MT":1459,"sideResp":2,"stimulus":[],"xmouse":[793,793,793,793,793,793,793,793,793,793,793,793,793,793,793,793,793,793,793,793,793,793,793,793,793,793,793,793,793,793,793,793,793,793,793,793,793,793,793,793,793,793,793,793,793,793,793,793,793,793,793,793,793,793,793,793,793,793,793,793,793,793,793,793,793,793,793,797,801,820,832,843,857,866,885,897,912,925,938,962,972,980,984,988,998,1002,1005,1009,1013,1016,1016,1017,1018,1021,1024,1029,1032,1034,1036,1039,1039,1039,1040,1040,1040,1042,1044,1046,1047,1048,1049,1050,1050,1051,1052,1052,1052,1052,1052,1054,1056,1059,1061,1061,1061,1061,1061,1061,1061,1061,1061,1061,1061,1061,1061,1061,1061,1061,1061,1061,1061,1061,1061,1061,1062],"ymouse":[652,652,652,652,652,652,652,652,652,652,652,652,652,652,652,652,652,652,652,652,652,652,652,652,652,652,652,652,652,652,652,652,652,652,652,652,652,652,652,652,652,652,652,652,652,652,652,652,652,652,652,652,652,652,652,652,652,652,652,652,652,652,652,652,652,652,652,649,645,621,603,585,552,532,493,473,455,435,418,383,370,360,351,341,280,253,230,212,201,190,188,185,182,177,173,167,164,161,159,154,153,152,151,151,151,144,140,137,134,130,125,122,118,117,116,116,116,116,115,112,109,105,103,103,103,103,103,103,103,103,103,103,103,103,103,103,103,103,103,103,103,103,103,103,98],"timestamp_mouse":[9,31,42,63,83,103,122,144,162,182,202,223,243,264,282,302,324,343,364,383,403,422,444,462,483,504,523,544,562,584,603,623,643,664,682,702,723,742,764,783,803,824,843,862,882,904,922,943,963,984,1002,1023,1042,1064,1083,1102,1124,1143,1164,1182,1202,1223,1243,1262,1283,1302,1322,1343,1363,1382,1404,1423,1442,1462,1483,1503,1523,1544,1563,1582,1602,1622,1643,1663,1682,1702,1723,1742,1762,1782,1804,1823,1843,1862,1882,1902,1922,1942,1962,1982,2002,2022,2044,2062,2082,2102,2123,2142,2162,2183,2204,2222,2243,2263,2283,2303,2322,2343,2362,2382,2402,2422,2443,2464,2483,2502,2523,2543,2562,2584,2604,2622,2642,2663,2684,2702,2722,2742,2762,2782,2802,2823,2843,2863,2882],"xSR":741.5,"ySR":573.95,"xT1":424.9,"yT1":0,"xT2":1058.1,"yT2":0,"toosoon":0,"cond_shown":"Congruent","ratio_trial":100,"L_num":12,"L_den":30,"R_num":13,"R_den":26,"correct_side":2,"subjID":"MANUELFRANCISCOVEGARINCON1","gender":"2","school":"SEXTO","age":"12"},{"start_time":1551887168916,"click_time":1551887170915,"finger_time":1551887170254,"fix_duration":1400.9817009100923,"trial":19,"RT":1338,"MT":661,"sideResp":1,"stimulus":[],"xmouse":[781,781,781,781,781,781,781,781,781,781,781,781,781,781,781,781,781,781,781,781,781,781,781,781,781,781,781,781,781,781,781,781,781,781,781,781,781,781,781,781,781,781,781,781,781,781,781,781,781,781,781,781,781,781,781,781,781,781,781,781,781,781,781,781,779,778,773,765,762,760,757,756,754,754,752,748,739,727,721,715,707,699,682,669,657,645,629,614,608,605,604,604,604,604,602,598,582,552,535,519],"ymouse":[602,602,602,602,602,602,602,602,602,602,602,602,602,602,602,602,602,602,602,602,602,602,602,602,602,602,602,602,602,602,602,602,602,602,602,602,602,602,602,602,602,602,602,602,602,602,602,602,602,602,602,602,602,602,602,602,602,602,602,602,602,602,602,602,592,588,570,547,537,527,518,510,489,476,459,441,411,368,350,330,311,291,249,226,204,186,165,143,136,133,131,130,129,128,126,121,110,93,85,79],"timestamp_mouse":[19,41,58,80,98,118,139,160,178,198,220,239,260,279,299,318,340,358,379,399,419,439,459,478,498,520,538,560,580,598,619,640,658,679,699,719,739,759,778,799,820,838,858,878,898,920,938,958,979,998,1018,1038,1059,1078,1098,1118,1138,1158,1178,1200,1218,1239,1258,1280,1299,1319,1338,1358,1378,1398,1418,1438,1458,1478,1499,1519,1538,1558,1579,1598,1619,1639,1659,1679,1698,1719,1738,1758,1779,1799,1818,1838,1859,1879,1898,1919,1939,1959,1979,1999],"xSR":741.5,"ySR":573.95,"xT1":424.9,"yT1":0,"xT2":1058.1,"yT2":0,"toosoon":0,"cond_shown":"Incongruent","ratio_trial":300,"L_num":4,"L_den":20,"R_num":2,"R_den":4,"correct_side":2,"subjID":"MANUELFRANCISCOVEGARINCON1","gender":"2","school":"SEXTO","age":"12"},{"start_time":1551887177652,"click_time":1551887179695,"finger_time":1551887179035,"fix_duration":1337.2224561803098,"trial":20,"RT":1383,"MT":660,"sideResp":1,"stimulus":[],"xmouse":[789,789,789,789,789,789,789,789,789,789,789,789,789,789,789,789,789,789,789,789,789,789,789,789,789,789,789,789,789,789,789,789,789,789,790,790,790,790,790,790,790,790,790,790,790,790,790,790,790,790,790,790,790,790,790,790,790,790,790,790,790,790,790,790,790,790,790,789,786,777,774,773,773,773,773,773,769,765,760,754,746,737,700,678,651,625,583,572,566,558,548,516,507,502,501,500,500,500,500,500,500,498,497],"ymouse":[605,605,605,605,605,605,605,605,605,605,605,605,605,605,605,605,605,605,605,605,605,605,605,605,605,605,605,605,605,605,605,605,605,605,604,600,590,587,586,586,586,585,585,585,585,585,585,585,585,585,585,585,585,585,585,585,585,585,585,585,585,585,585,585,585,585,585,580,576,567,562,561,561,561,561,558,544,532,515,496,472,448,354,308,258,211,125,101,77,54,24,0,0,0,0,0,0,0,0,0,0,0,1],"timestamp_mouse":[10,35,42,63,82,102,122,144,163,184,202,223,244,263,283,303,324,342,364,384,403,423,444,464,483,502,524,543,563,583,603,622,642,664,683,704,722,742,763,782,803,823,843,863,883,902,923,943,964,982,1002,1023,1042,1063,1082,1104,1123,1144,1162,1183,1203,1223,1242,1262,1284,1302,1323,1342,1363,1383,1402,1423,1443,1462,1484,1503,1522,1544,1562,1582,1602,1622,1642,1662,1682,1702,1723,1743,1763,1782,1802,1822,1842,1862,1882,1902,1923,1942,1963,1983,2003,2023,2043],"xSR":741.5,"ySR":573.95,"xT1":424.9,"yT1":0,"xT2":1058.1,"yT2":0,"toosoon":0,"cond_shown":"Congruent","ratio_trial":300,"L_num":24,"L_den":30,"R_num":8,"R_den":16,"correct_side":1,"subjID":"MANUELFRANCISCOVEGARINCON1","gender":"2","school":"SEXTO","age":"12"},{"start_time":1551887182753,"click_time":1551887184855,"finger_time":1551887184154,"fix_duration":1056.4274753387394,"trial":21,"RT":1401,"MT":701,"sideResp":1,"stimulus":[],"xmouse":[747,747,747,747,747,747,747,747,747,747,747,747,747,747,747,747,747,747,747,747,747,747,747,747,747,747,747,747,747,747,747,747,747,747,747,747,747,747,747,747,747,747,747,747,747,747,747,747,747,747,747,747,747,747,747,747,747,747,747,747,747,747,747,747,747,747,747,747,748,743,703,593,541,497,472,447,398,387,387,387,388,390,390,390,390,390,390,390,390,390,390,392,395,400,402,410,416,417,417,417,417,417,419,420,423,427],"ymouse":[649,649,649,649,649,649,649,649,649,649,649,649,649,649,649,649,649,649,649,649,649,649,649,649,649,649,649,649,649,649,649,649,649,649,649,649,649,649,649,649,649,649,649,649,649,649,649,649,649,649,649,649,649,649,649,649,649,649,649,649,649,649,649,649,649,649,649,649,649,641,585,425,339,262,215,161,14,0,0,0,0,0,0,0,0,0,0,0,0,0,1,5,8,11,12,14,16,17,18,18,19,21,24,26,29,32],"timestamp_mouse":[8,38,54,61,81,101,121,141,162,182,201,221,242,262,283,301,322,341,361,381,401,421,441,461,481,502,521,541,562,581,602,622,641,661,681,701,721,741,762,781,801,822,841,862,881,901,921,941,961,981,1002,1023,1041,1062,1082,1101,1121,1143,1161,1182,1202,1221,1241,1262,1281,1302,1321,1341,1362,1383,1401,1421,1441,1462,1482,1501,1521,1542,1562,1581,1601,1621,1642,1661,1681,1702,1723,1743,1761,1783,1802,1821,1841,1861,1882,1901,1921,1942,1961,1981,2002,2021,2043,2063,2081,2102],"xSR":741.5,"ySR":573.95,"xT1":424.9,"yT1":0,"xT2":1058.1,"yT2":0,"toosoon":0,"cond_shown":"Congruent","ratio_trial":200,"L_num":16,"L_den":20,"R_num":12,"R_den":20,"correct_side":1,"subjID":"MANUELFRANCISCOVEGARINCON1","gender":"2","school":"SEXTO","age":"12"},{"start_time":1551887186957,"click_time":1551887188994,"finger_time":1551887188475,"fix_duration":780.1313698159372,"trial":22,"RT":1518,"MT":519,"sideResp":1,"stimulus":[],"xmouse":[784,784,784,784,784,784,784,784,784,784,784,784,784,784,784,784,784,784,784,784,784,784,784,784,784,784,784,784,784,784,784,784,784,784,784,784,784,784,784,784,784,784,784,784,784,784,784,784,784,784,784,784,784,784,784,784,784,784,784,784,784,784,784,784,784,784,784,784,784,784,784,784,784,784,785,778,773,764,755,747,722,698,671,643,611,585,576,565,556,539,514,507,504,503,502,502,502,501,501,501,499,496],"ymouse":[594,594,594,594,594,594,594,594,594,594,594,594,594,594,594,594,594,594,594,594,594,594,594,594,594,594,594,594,594,594,594,594,594,594,594,594,594,594,594,594,594,594,594,594,594,594,594,594,594,594,594,594,594,594,594,594,594,594,594,594,594,594,594,594,594,594,594,594,594,594,594,594,594,594,595,570,552,530,507,482,421,378,333,280,211,145,109,74,41,0,0,0,0,0,0,0,0,0,0,0,0,3],"timestamp_mouse":[32,37,57,77,98,117,137,157,177,198,217,237,258,277,298,318,337,357,378,397,417,437,457,477,497,517,538,558,578,597,617,637,658,677,697,719,737,758,777,798,818,837,859,877,897,917,937,958,977,997,1017,1039,1058,1077,1098,1118,1137,1158,1177,1198,1217,1238,1259,1279,1297,1317,1337,1359,1378,1399,1417,1438,1457,1477,1498,1518,1537,1558,1577,1597,1617,1637,1657,1679,1698,1718,1737,1757,1778,1798,1817,1837,1858,1877,1898,1918,1938,1957,1977,1997,2017,2037],"xSR":741.5,"ySR":573.95,"xT1":424.9,"yT1":0,"xT2":1058.1,"yT2":0,"toosoon":0,"cond_shown":"Incongruent","ratio_trial":100,"L_num":3,"L_den":5,"R_num":8,"R_den":16,"correct_side":1,"subjID":"MANUELFRANCISCOVEGARINCON1","gender":"2","school":"SEXTO","age":"12"},{"start_time":1551887191024,"click_time":1551887193074,"finger_time":1551887192515,"fix_duration":826.3586883265472,"trial":23,"RT":1491,"MT":559,"sideResp":2,"stimulus":[],"xmouse":[783,783,783,783,783,783,783,783,783,783,783,783,783,783,783,783,783,783,783,783,783,783,783,783,783,783,783,783,783,783,783,783,783,783,783,783,783,783,783,783,783,783,783,783,783,783,783,783,783,783,783,783,783,783,783,783,783,783,783,783,783,783,783,783,783,783,783,783,783,783,783,783,783,785,807,831,852,899,927,964,1016,1064,1173,1200,1215,1225,1229,1232,1230,1225,1218,1214,1197,1195,1194,1194,1193,1192,1191,1190,1188,1179,1080],"ymouse":[582,582,582,582,582,582,582,582,582,582,582,582,582,582,582,582,582,582,582,582,582,582,582,582,582,582,582,582,582,582,582,582,582,582,582,582,582,582,582,582,582,582,582,582,582,582,582,582,582,582,582,582,582,582,582,582,582,582,582,582,582,582,582,582,582,582,582,582,582,582,582,582,582,582,567,552,538,495,466,437,403,373,308,287,269,251,233,196,175,157,143,133,115,113,113,113,112,112,111,109,108,104,79],"timestamp_mouse":[10,34,50,71,91,111,132,150,171,190,211,232,251,272,291,311,330,351,371,390,412,430,451,472,491,511,530,552,572,591,611,632,651,670,692,712,731,750,772,792,811,830,851,870,891,911,932,950,971,992,1010,1030,1051,1070,1092,1110,1130,1150,1172,1190,1212,1231,1250,1271,1291,1310,1330,1350,1370,1391,1410,1430,1450,1470,1491,1511,1532,1550,1570,1591,1612,1630,1650,1670,1690,1711,1730,1750,1770,1790,1811,1830,1850,1871,1890,1911,1930,1951,1970,1990,2011,2032,2050],"xSR":741.5,"ySR":573.95,"xT1":424.9,"yT1":0,"xT2":1058.1,"yT2":0,"toosoon":0,"cond_shown":"Incongruent","ratio_trial":100,"L_num":9,"L_den":18,"R_num":6,"R_den":10,"correct_side":2,"subjID":"MANUELFRANCISCOVEGARINCON1","gender":"2","school":"SEXTO","age":"12"},{"start_time":1551887197261,"click_time":1551887199914,"finger_time":1551887198774,"fix_duration":626.9658042621738,"trial":24,"RT":1513,"MT":1140,"sideResp":2,"stimulus":[],"xmouse":[814,814,814,814,814,814,814,814,814,814,814,814,814,814,814,814,814,814,814,814,814,814,814,814,814,814,814,814,814,814,814,814,814,814,814,814,814,814,814,814,814,814,814,814,814,814,814,814,814,814,814,814,814,814,814,814,814,814,814,814,814,814,814,814,814,814,814,814,814,814,814,814,814,813,804,757,737,718,703,678,628,593,565,550,543,532,530,528,524,521,520,520,520,520,520,520,520,520,520,520,520,520,520,520,520,520,520,520,521,522,532,545,570,612,679,866,973,1079,1166,1257,1293,1296,1296,1295,1293,1286,1271,1243,1204,1138,1130,1129,1125],"ymouse":[633,633,633,633,633,633,633,633,633,633,633,633,633,633,633,633,633,633,633,633,633,633,633,633,633,633,633,633,633,633,633,633,633,633,633,633,633,633,633,633,633,633,633,633,633,633,633,633,633,633,633,633,633,633,633,633,633,633,633,633,633,633,633,633,633,633,633,633,633,633,633,633,633,633,620,554,524,496,472,427,342,293,247,221,204,181,174,168,160,154,152,152,152,152,152,152,152,152,152,152,152,152,151,151,151,151,151,151,151,151,151,153,162,178,202,256,284,298,302,300,286,282,277,270,262,224,177,109,23,0,0,0,3],"timestamp_mouse":[13,33,54,74,93,114,133,154,174,194,215,233,253,275,293,314,334,353,374,393,413,435,453,474,493,513,534,553,573,595,614,633,653,674,693,713,733,754,773,793,814,834,855,874,894,914,933,955,974,994,1015,1033,1054,1073,1095,1113,1133,1154,1173,1195,1213,1234,1253,1274,1294,1314,1333,1353,1373,1395,1413,1433,1455,1473,1495,1513,1533,1553,1573,1593,1613,1633,1653,1673,1693,1713,1733,1754,1775,1794,1814,1833,1853,1873,1894,1914,1935,1953,1973,1994,2014,2034,2053,2073,2094,2113,2133,2154,2173,2193,2214,2234,2253,2274,2293,2313,2335,2354,2374,2395,2413,2434,2453,2474,2493,2514,2535,2554,2573,2593,2613,2633,2653],"xSR":741.5,"ySR":573.95,"xT1":424.9,"yT1":0,"xT2":1058.1,"yT2":0,"toosoon":0,"cond_shown":"Incongruent","ratio_trial":100,"L_num":13,"L_den":26,"R_num":12,"R_den":20,"correct_side":2,"subjID":"MANUELFRANCISCOVEGARINCON1","gender":"2","school":"SEXTO","age":"12"},{"start_time":1551887202864,"click_time":1551887204855,"finger_time":1551887204375,"fix_duration":1127.262290498615,"trial":25,"RT":1511,"MT":480,"sideResp":1,"stimulus":[],"xmouse":[773,773,773,773,773,773,773,773,773,773,773,773,773,773,773,773,773,773,773,773,773,773,773,773,773,773,773,773,773,773,773,773,773,773,773,773,773,773,773,773,773,773,773,773,773,773,773,773,773,773,773,773,773,773,773,773,773,773,773,773,773,773,773,773,773,773,773,773,773,773,773,773,768,763,747,700,680,658,638,617,597,586,576,565,554,542,528,526,526,526,526,526,525,525,525,525,525,525,524,523],"ymouse":[646,646,646,646,646,646,646,646,646,646,646,646,646,646,646,646,646,646,646,646,646,646,646,646,646,646,646,646,646,646,646,646,646,646,646,646,646,646,646,646,646,646,646,646,646,646,646,646,646,646,646,646,646,646,646,646,646,646,646,646,646,646,646,646,646,646,646,646,646,646,646,646,637,629,599,503,455,394,338,270,199,167,141,116,90,60,14,3,1,0,0,0,0,0,0,0,0,0,0,2],"timestamp_mouse":[11,44,50,70,91,111,131,151,171,190,212,230,251,271,291,310,330,351,372,392,411,430,451,472,492,512,530,551,571,592,611,631,651,670,691,711,732,750,771,791,811,830,851,870,890,911,930,952,971,991,1011,1030,1051,1070,1091,1110,1132,1152,1171,1190,1212,1231,1251,1271,1290,1310,1331,1350,1372,1390,1410,1431,1450,1470,1490,1511,1531,1550,1571,1590,1611,1632,1650,1670,1690,1711,1732,1751,1772,1791,1811,1831,1851,1871,1891,1911,1930,1951,1970,1991],"xSR":741.5,"ySR":573.95,"xT1":424.9,"yT1":0,"xT2":1058.1,"yT2":0,"toosoon":0,"cond_shown":"Congruent","ratio_trial":200,"L_num":16,"L_den":20,"R_num":12,"R_den":20,"correct_side":1,"subjID":"MANUELFRANCISCOVEGARINCON1","gender":"2","school":"SEXTO","age":"12"},{"start_time":1551887207362,"click_time":1551887208974,"finger_time":1551887208695,"fix_duration":1105.376081379019,"trial":26,"RT":1333,"MT":279,"sideResp":1,"stimulus":[],"xmouse":[804,804,804,804,804,804,804,804,804,804,804,804,804,804,804,804,804,804,804,804,804,804,804,804,804,804,804,804,804,804,804,804,804,804,804,804,804,804,804,804,804,804,804,804,804,804,804,804,804,804,804,804,804,804,804,804,804,804,804,804,804,804,804,804,803,784,765,754,748,740,732,714,699,679,648,631,608,590,576,557,518],"ymouse":[604,604,604,604,604,604,604,604,604,604,604,604,604,604,604,604,604,604,604,604,604,604,604,604,604,604,604,604,604,604,604,604,604,604,604,604,604,604,604,604,604,604,604,604,604,604,604,604,604,604,604,604,604,604,604,604,604,604,604,604,604,604,604,604,604,580,562,546,533,516,498,455,423,375,306,266,214,182,152,113,24],"timestamp_mouse":[13,32,53,72,92,113,133,152,172,193,213,233,254,273,292,312,333,352,373,392,413,432,452,474,492,514,532,554,572,592,614,632,652,672,692,714,732,752,772,792,814,832,853,874,892,913,934,953,973,994,1014,1032,1053,1074,1092,1113,1132,1152,1173,1192,1214,1234,1252,1273,1292,1312,1333,1353,1372,1393,1413,1432,1453,1473,1493,1513,1533,1552,1572,1594,1612],"xSR":741.5,"ySR":573.95,"xT1":424.9,"yT1":0,"xT2":1058.1,"yT2":0,"toosoon":0,"cond_shown":"Congruent","ratio_trial":200,"L_num":4,"L_den":10,"R_num":3,"R_den":15,"correct_side":1,"subjID":"MANUELFRANCISCOVEGARINCON1","gender":"2","school":"SEXTO","age":"12"},{"start_time":1551887211100,"click_time":1551887212655,"finger_time":1551887212515,"fix_duration":924.3973873308161,"trial":27,"RT":1415,"MT":140,"sideResp":1,"stimulus":[],"xmouse":[796,796,796,796,796,796,796,796,796,796,796,796,796,796,796,796,796,796,796,796,796,796,796,796,796,796,796,796,796,796,796,796,796,796,796,796,796,796,796,796,796,796,796,796,796,796,796,796,796,796,796,796,796,796,796,796,796,796,796,796,796,796,796,796,796,796,796,796,796,770,725,687,660,625,572,538,505,447],"ymouse":[594,594,594,594,594,594,594,594,594,594,594,594,594,594,594,594,594,594,594,594,594,594,594,594,594,594,594,594,594,594,594,594,594,594,594,594,594,594,594,594,594,594,594,594,594,594,594,594,594,594,594,594,594,594,594,594,594,594,594,594,594,594,594,594,594,594,594,594,594,579,554,530,507,478,367,289,211,95],"timestamp_mouse":[15,51,55,75,95,114,134,155,175,194,214,234,254,275,295,315,335,356,376,395,414,435,455,475,496,516,536,555,574,595,616,635,655,675,694,716,735,755,775,794,816,836,856,876,895,915,934,956,974,994,1015,1035,1055,1075,1095,1116,1134,1154,1174,1195,1215,1234,1254,1274,1296,1314,1336,1354,1375,1395,1415,1434,1456,1475,1494,1514,1534,1554],"xSR":741.5,"ySR":573.95,"xT1":424.9,"yT1":0,"xT2":1058.1,"yT2":0,"toosoon":0,"cond_shown":"Congruent","ratio_trial":100,"L_num":15,"L_den":25,"R_num":13,"R_den":26,"correct_side":1,"subjID":"MANUELFRANCISCOVEGARINCON1","gender":"2","school":"SEXTO","age":"12"},{"start_time":1551887215291,"click_time":1551887217015,"finger_time":1551887216654,"fix_duration":1315.996841987054,"trial":28,"RT":1363,"MT":361,"sideResp":2,"stimulus":[],"xmouse":[766,766,766,770,774,789,793,796,797,798,798,798,798,798,798,798,798,798,798,798,798,798,798,798,798,798,798,798,798,798,798,798,798,798,798,798,798,798,798,798,798,798,798,798,798,798,798,798,798,798,798,798,798,798,798,798,798,798,798,798,798,798,798,798,798,798,798,804,821,867,894,917,937,952,987,1010,1030,1047,1064,1079,1085,1088,1092,1094,1097,1097,1098],"ymouse":[617,617,617,618,618,620,620,620,620,620,620,620,620,620,620,620,620,620,620,620,620,620,620,620,620,620,620,620,620,620,620,620,620,620,620,620,620,620,620,620,620,610,605,599,596,596,596,596,596,596,596,596,596,596,596,596,596,596,596,596,596,596,596,596,596,596,592,586,562,508,485,468,450,432,384,352,322,288,245,207,192,179,165,152,120,101,82],"timestamp_mouse":[10,32,43,64,83,103,124,143,163,183,205,223,243,264,284,305,323,345,363,384,403,424,444,463,485,503,524,543,565,583,604,625,643,663,684,705,723,743,763,785,803,824,844,864,884,904,925,944,964,984,1003,1024,1045,1064,1084,1104,1125,1144,1164,1184,1204,1225,1243,1263,1285,1303,1324,1344,1363,1384,1403,1423,1444,1463,1483,1503,1524,1544,1564,1584,1603,1624,1644,1663,1683,1704,1724],"xSR":741.5,"ySR":573.95,"xT1":424.9,"yT1":0,"xT2":1058.1,"yT2":0,"toosoon":0,"cond_shown":"Congruent","ratio_trial":100,"L_num":11,"L_den":22,"R_num":6,"R_den":15,"correct_side":1,"subjID":"MANUELFRANCISCOVEGARINCON1","gender":"2","school":"SEXTO","age":"12"},{"start_time":1551887219370,"click_time":1551887220975,"finger_time":1551887220475,"fix_duration":1374.8562801604148,"trial":29,"RT":1105,"MT":500,"sideResp":1,"stimulus":[],"xmouse":[795,795,795,795,795,795,795,795,795,795,795,795,795,795,795,795,795,795,795,795,795,795,795,795,795,795,795,795,795,795,795,795,795,795,795,795,795,795,795,795,795,795,795,795,795,795,795,795,795,795,795,795,795,792,784,758,734,710,687,667,645,605,595,584,571,555,547,543,539,538,537,537,535,535,535,535,535,533,531,528,520],"ymouse":[628,628,628,628,628,628,628,628,628,628,628,628,628,628,628,628,628,628,628,628,628,628,628,628,628,628,628,628,628,628,628,628,628,628,628,628,628,628,628,628,628,628,628,628,628,628,628,628,628,628,628,628,628,625,608,563,525,473,417,371,320,230,204,179,147,110,94,82,72,67,64,63,61,61,61,61,61,61,61,61,56],"timestamp_mouse":[10,38,45,65,84,104,125,145,164,185,206,224,246,264,285,305,325,345,366,385,404,424,445,464,484,504,524,545,564,586,605,624,646,665,685,704,724,745,765,784,804,825,845,866,884,905,924,946,964,985,1004,1026,1044,1065,1084,1105,1125,1144,1164,1185,1204,1225,1245,1266,1284,1305,1324,1345,1365,1385,1405,1424,1445,1464,1485,1505,1525,1545,1565,1586,1605],"xSR":741.5,"ySR":573.95,"xT1":424.9,"yT1":0,"xT2":1058.1,"yT2":0,"toosoon":0,"cond_shown":"Incongruent","ratio_trial":200,"L_num":7,"L_den":10,"R_num":14,"R_den":28,"correct_side":1,"subjID":"MANUELFRANCISCOVEGARINCON1","gender":"2","school":"SEXTO","age":"12"},{"start_time":1551887223476,"click_time":1551887225075,"finger_time":1551887224694,"fix_duration":581.5226573133431,"trial":30,"RT":1218,"MT":381,"sideResp":1,"stimulus":[],"xmouse":[781,781,781,781,781,781,781,781,781,781,781,781,781,781,781,781,781,781,781,781,781,781,781,781,781,781,781,781,781,781,781,781,781,781,781,781,781,781,781,781,781,781,781,781,781,781,781,781,781,781,781,781,781,781,781,781,781,781,781,781,694,662,661,658,640,632,624,617,612,612,612,610,608,604,587,576,567,556,545,517],"ymouse":[626,626,626,626,626,626,626,626,626,626,626,626,626,626,626,626,626,626,626,626,626,626,626,626,626,626,626,626,626,626,626,626,626,626,626,626,626,626,626,626,626,626,626,626,626,626,626,626,626,626,626,626,626,626,626,626,626,626,626,627,627,610,589,565,459,399,337,290,243,198,183,174,168,162,138,120,102,82,62,28],"timestamp_mouse":[18,38,58,79,100,120,139,160,179,199,219,239,258,279,298,320,338,360,379,399,420,438,458,480,498,518,538,559,578,599,618,639,659,678,698,718,740,759,779,798,818,840,858,879,898,918,938,959,978,998,1019,1039,1058,1079,1098,1119,1139,1158,1178,1198,1218,1239,1259,1278,1298,1319,1338,1358,1379,1398,1418,1439,1459,1478,1498,1518,1538,1559,1578,1598],"xSR":741.5,"ySR":573.95,"xT1":424.9,"yT1":0,"xT2":1058.1,"yT2":0,"toosoon":0,"cond_shown":"Incongruent","ratio_trial":200,"L_num":7,"L_den":10,"R_num":14,"R_den":28,"correct_side":1,"subjID":"MANUELFRANCISCOVEGARINCON1","gender":"2","school":"SEXTO","age":"12"},{"start_time":1551887227150,"click_time":1551887229274,"finger_time":1551887228835,"fix_duration":874.3454417950331,"trial":31,"RT":1685,"MT":439,"sideResp":1,"stimulus":[],"xmouse":[773,773,773,773,773,773,773,773,773,773,773,773,773,773,773,773,773,773,773,773,773,773,773,773,773,773,773,773,773,773,773,773,773,773,773,773,773,773,773,773,773,773,773,773,773,773,773,773,773,773,773,773,773,773,773,773,773,773,773,773,773,773,773,773,773,773,773,773,773,773,773,773,773,773,773,773,773,773,773,773,773,773,763,748,730,718,716,716,715,710,690,652,641,637,630,613,590,580,573,571,568,563,558,550,542,527,498],"ymouse":[664,664,664,664,664,664,664,664,664,664,664,664,664,664,664,664,664,664,664,664,664,664,664,664,664,664,664,664,664,664,664,664,664,664,664,664,664,664,664,664,664,664,664,664,664,664,664,664,664,664,664,664,664,664,664,664,664,664,664,664,664,664,664,664,664,664,664,664,664,664,664,664,664,664,664,664,664,664,664,664,664,659,639,622,603,590,588,588,584,567,525,444,412,387,360,319,264,240,220,201,183,150,134,113,92,65,36],"timestamp_mouse":[10,25,46,64,84,104,126,144,164,184,205,226,245,265,284,305,326,344,366,386,405,424,446,464,485,504,525,545,564,585,605,624,644,665,686,705,725,744,766,785,805,826,844,865,886,905,925,945,964,984,1004,1024,1046,1064,1085,1105,1126,1144,1164,1185,1204,1224,1244,1265,1285,1304,1325,1344,1366,1386,1406,1424,1445,1464,1485,1504,1525,1545,1566,1584,1605,1624,1645,1665,1685,1704,1724,1746,1764,1784,1805,1825,1844,1865,1885,1905,1924,1945,1964,1984,2004,2024,2045,2064,2085,2104,2124],"xSR":741.5,"ySR":573.95,"xT1":424.9,"yT1":0,"xT2":1058.1,"yT2":0,"toosoon":0,"cond_shown":"Incongruent","ratio_trial":300,"L_num":4,"L_den":20,"R_num":2,"R_den":4,"correct_side":2,"subjID":"MANUELFRANCISCOVEGARINCON1","gender":"2","school":"SEXTO","age":"12"},{"start_time":1551887232466,"click_time":1551887233636,"finger_time":1551887233255,"fix_duration":250,"trial":32,"RT":789,"MT":381,"sideResp":1,"stimulus":[],"xmouse":[828,828,828,828,828,828,828,828,828,828,828,828,828,828,828,828,828,828,828,828,828,828,828,828,828,828,828,828,828,828,828,828,828,828,828,828,828,814,806,788,767,709,678,651,642,640,640,640,640,640,640,640,639,634,625,588,555,517,492],"ymouse":[631,631,631,631,631,631,631,631,631,631,631,631,631,631,631,631,631,631,631,631,631,631,631,631,631,631,631,631,631,631,631,631,631,631,631,631,631,617,609,570,521,401,341,295,273,266,266,266,266,266,266,266,263,251,235,184,149,114,93],"timestamp_mouse":[10,42,49,68,88,109,128,149,170,188,208,228,250,268,289,309,329,348,370,389,408,429,449,470,489,510,529,549,570,590,608,628,648,668,689,710,729,749,769,789,808,828,848,869,890,909,928,948,969,989,1009,1028,1049,1069,1088,1108,1128,1148,1169],"xSR":741.5,"ySR":573.95,"xT1":424.9,"yT1":0,"xT2":1058.1,"yT2":0,"toosoon":0,"cond_shown":"Incongruent","ratio_trial":200,"L_num":3,"L_den":4,"R_num":11,"R_den":20,"correct_side":1,"subjID":"MANUELFRANCISCOVEGARINCON1","gender":"2","school":"SEXTO","age":"12"},{"start_time":1551887236426,"click_time":1551887237915,"finger_time":1551887237474,"fix_duration":1151.9647218507046,"trial":33,"RT":1048,"MT":441,"sideResp":1,"stimulus":[],"xmouse":[766,766,766,766,766,766,766,766,766,766,766,766,766,766,766,766,766,766,766,766,766,766,766,766,766,766,766,766,766,766,766,766,766,766,766,766,766,766,766,766,766,766,766,766,766,766,766,766,766,767,767,763,755,751,747,741,735,704,679,650,603,576,544,538,525,521,514,509,505,495,481,469,465,464,461],"ymouse":[616,616,616,616,616,616,616,616,616,616,616,616,616,616,616,616,616,616,616,616,616,616,616,616,616,616,616,616,616,616,616,616,616,616,616,616,616,616,616,616,616,616,616,616,616,616,616,616,616,617,612,600,573,557,541,523,499,399,332,257,146,89,20,5,0,0,0,0,0,0,0,0,0,0,2],"timestamp_mouse":[10,32,50,68,88,108,129,148,169,188,208,229,248,270,289,309,328,349,368,390,409,429,448,469,490,509,528,549,570,588,608,629,650,670,690,708,729,750,770,789,809,828,849,868,889,909,929,948,968,988,1009,1028,1048,1068,1088,1109,1130,1149,1170,1190,1208,1229,1248,1269,1288,1308,1328,1348,1368,1388,1410,1430,1449,1468,1488],"xSR":741.5,"ySR":573.95,"xT1":424.9,"yT1":0,"xT2":1058.1,"yT2":0,"toosoon":0,"cond_shown":"Incongruent","ratio_trial":300,"L_num":4,"L_den":5,"R_num":6,"R_den":12,"correct_side":1,"subjID":"MANUELFRANCISCOVEGARINCON1","gender":"2","school":"SEXTO","age":"12"},{"start_time":1551887239588,"click_time":1551887241014,"finger_time":1551887240715,"fix_duration":913.7915005566398,"trial":34,"RT":1127,"MT":299,"sideResp":1,"stimulus":[],"xmouse":[782,782,782,782,782,782,782,782,782,782,782,782,782,782,782,782,782,782,782,782,782,782,782,782,782,782,782,782,782,782,782,782,782,782,782,782,782,782,782,782,782,782,782,782,782,782,782,782,782,782,782,782,782,782,771,752,721,681,645,612,559,540,518,507,501,493,489,487,483,479,477,475],"ymouse":[644,644,644,644,644,644,644,644,644,644,644,644,644,644,644,644,644,644,644,644,644,644,644,644,644,644,644,644,644,644,644,644,644,644,644,644,644,644,644,644,644,644,644,644,644,644,644,644,644,644,644,644,644,644,630,602,558,501,451,405,332,304,269,249,231,202,188,170,151,120,105,91],"timestamp_mouse":[19,38,47,66,86,106,127,148,166,186,206,226,247,268,287,306,327,346,367,386,407,428,446,466,487,506,527,546,566,587,606,626,648,667,686,706,727,746,766,786,808,827,846,867,886,908,926,946,966,986,1007,1027,1047,1066,1086,1108,1127,1147,1166,1187,1207,1226,1246,1266,1286,1306,1326,1346,1367,1387,1406,1426],"xSR":741.5,"ySR":573.95,"xT1":424.9,"yT1":0,"xT2":1058.1,"yT2":0,"toosoon":0,"cond_shown":"Congruent","ratio_trial":200,"L_num":5,"L_den":10,"R_num":14,"R_den":20,"correct_side":2,"subjID":"MANUELFRANCISCOVEGARINCON1","gender":"2","school":"SEXTO","age":"12"},{"start_time":1551887253756,"click_time":1551887255656,"finger_time":1551887255094,"fix_duration":1179.1158616583991,"trial":35,"RT":1338,"MT":562,"sideResp":1,"stimulus":[],"xmouse":[805,805,805,805,805,805,805,805,805,805,805,805,805,805,805,805,805,805,805,805,805,805,805,805,805,805,805,805,805,805,805,805,805,805,805,805,805,805,805,805,805,805,805,805,805,805,805,805,805,805,805,805,805,805,805,805,805,805,805,805,805,805,805,805,805,805,805,805,798,782,766,739,732,729,727,727,721,707,692,673,649,595,580,572,569,568,566,566,566,562,558,550,542,533,525,516],"ymouse":[642,642,642,642,642,642,642,642,642,642,642,642,642,642,642,642,642,642,642,642,642,642,642,642,642,642,642,642,642,642,642,642,642,642,642,642,642,642,642,642,642,642,642,642,642,642,642,642,642,642,642,642,642,642,642,642,642,642,642,642,642,642,642,642,642,641,602,566,514,460,405,315,281,258,243,235,230,226,220,210,195,153,140,132,130,129,129,129,128,124,120,112,108,104,99,93],"timestamp_mouse":[1,33,39,58,78,99,118,139,159,179,198,219,238,260,278,298,319,338,358,379,399,418,440,458,478,499,518,538,558,578,600,619,638,659,679,699,718,738,759,779,799,818,838,858,879,899,918,939,959,979,1000,1019,1038,1058,1079,1099,1118,1139,1158,1178,1199,1218,1238,1259,1279,1298,1319,1338,1358,1379,1398,1419,1439,1459,1478,1499,1519,1540,1558,1578,1599,1619,1638,1658,1679,1699,1719,1739,1759,1779,1798,1818,1839,1859,1878,1899],"xSR":741.5,"ySR":573.95,"xT1":424.9,"yT1":0,"xT2":1058.1,"yT2":0,"toosoon":0,"cond_shown":"Incongruent","ratio_trial":100,"L_num":9,"L_den":15,"R_num":14,"R_den":28,"correct_side":1,"subjID":"MANUELFRANCISCOVEGARINCON1","gender":"2","school":"SEXTO","age":"12"},{"start_time":1551887257279,"click_time":1551887259315,"finger_time":1551887258194,"fix_duration":404.9506389345143,"trial":36,"RT":915,"MT":1121,"sideResp":2,"stimulus":[],"xmouse":[803,803,803,803,803,803,803,803,803,803,803,803,803,803,803,803,803,803,803,803,803,803,803,803,803,803,803,803,803,803,803,803,803,803,803,803,803,803,803,803,803,803,803,803,802,798,795,786,772,739,726,718,709,696,585,481,389,337,316,306,309,317,324,325,327,331,336,345,366,433,457,479,499,520,568,609,660,745,775,920,950,971,985,995,1007,1021,1045,1083,1151,1235,1253,1254,1250,1232,1203,1203,1203,1203,1202,1174,1155,1143],"ymouse":[607,607,607,607,607,607,607,607,607,607,607,607,607,607,607,607,607,607,607,607,607,607,607,607,607,607,607,607,607,607,607,607,607,607,607,607,607,607,607,607,607,607,607,605,593,569,539,494,440,326,293,271,256,247,228,212,185,159,141,113,108,103,102,101,101,101,101,101,103,122,132,141,149,158,181,200,225,259,270,288,283,273,264,257,251,246,239,233,215,177,162,150,138,124,108,108,108,108,108,103,100,96],"timestamp_mouse":[21,45,56,76,95,115,136,157,175,196,215,236,255,275,295,315,335,355,375,395,417,435,455,475,495,516,536,555,576,595,615,636,657,676,695,715,735,755,777,795,815,836,857,875,896,915,936,955,976,995,1015,1035,1056,1076,1096,1117,1135,1156,1176,1195,1215,1235,1256,1277,1295,1315,1336,1356,1375,1395,1416,1436,1456,1475,1496,1516,1535,1555,1577,1596,1616,1635,1655,1676,1695,1716,1736,1756,1776,1795,1815,1835,1855,1876,1895,1916,1937,1955,1975,1995,2017,2036],"xSR":741.5,"ySR":573.95,"xT1":424.9,"yT1":0,"xT2":1058.1,"yT2":0,"toosoon":0,"cond_shown":"Congruent","ratio_trial":100,"L_num":4,"L_den":10,"R_num":15,"R_den":30,"correct_side":2,"subjID":"MANUELFRANCISCOVEGARINCON1","gender":"2","school":"SEXTO","age":"12"},{"start_time":1551887261428,"click_time":1551887263494,"finger_time":1551887262874,"fix_duration":872.3684722285329,"trial":37,"RT":1446,"MT":620,"sideResp":2,"stimulus":[],"xmouse":[764,764,764,764,764,764,764,764,764,764,764,764,764,764,764,764,764,764,764,764,765,765,766,766,766,766,767,767,767,767,768,768,768,768,768,769,769,769,769,769,769,769,769,769,769,769,769,769,769,769,769,769,769,769,769,769,769,769,769,769,769,769,769,769,769,769,769,770,770,771,772,779,827,867,925,1007,1096,1273,1332,1368,1386,1395,1400,1400,1401,1401,1397,1358,1339,1323,1304,1296,1270,1257,1257,1257,1257,1257,1255,1245,1216,1194,1172,1105],"ymouse":[628,628,628,628,628,628,628,628,628,628,628,628,628,628,628,628,628,628,628,626,625,624,621,620,618,617,616,614,613,613,611,610,607,606,604,603,602,600,600,600,600,600,600,600,600,600,600,600,600,600,600,600,600,600,600,600,600,600,600,600,600,600,600,600,600,600,600,598,596,593,588,580,523,475,406,326,245,98,48,14,0,0,0,0,0,0,0,0,0,0,0,0,0,0,0,0,0,0,2,2,2,2,2,2],"timestamp_mouse":[8,26,59,66,87,105,126,145,167,185,206,226,245,266,287,306,325,345,366,385,405,425,446,465,486,506,527,546,565,586,606,626,645,666,685,706,727,746,765,786,807,826,846,865,887,905,927,946,965,987,1006,1026,1046,1066,1086,1105,1127,1145,1166,1185,1206,1226,1246,1266,1285,1305,1325,1346,1365,1387,1407,1425,1446,1466,1486,1507,1527,1546,1567,1585,1606,1625,1647,1666,1686,1705,1726,1746,1765,1786,1805,1825,1846,1866,1887,1907,1926,1946,1967,1986,2006,2025,2045,2065],"xSR":741.5,"ySR":573.95,"xT1":424.9,"yT1":0,"xT2":1058.1,"yT2":0,"toosoon":0,"cond_shown":"Incongruent","ratio_trial":100,"L_num":8,"L_den":16,"R_num":6,"R_den":10,"correct_side":2,"subjID":"MANUELFRANCISCOVEGARINCON1","gender":"2","school":"SEXTO","age":"12"},{"start_time":1551887265732,"click_time":1551887266973,"finger_time":1551887266473,"fix_duration":977.5939224012783,"trial":38,"RT":741,"MT":500,"sideResp":1,"stimulus":[],"xmouse":[792,792,791,791,791,791,791,791,791,791,791,791,791,791,791,791,791,791,791,791,791,791,791,791,791,791,791,791,791,791,791,791,791,791,791,791,791,791,786,771,744,712,688,654,640,635,626,622,617,612,603,593,582,559,548,532,520,510,503,502,501,497,492],"ymouse":[627,627,627,627,627,627,627,627,627,626,626,625,625,625,625,625,625,625,625,625,625,625,625,625,625,625,625,625,625,625,625,625,624,620,614,610,583,551,427,337,245,144,60,0,0,0,0,0,0,0,0,0,0,0,0,0,0,0,0,0,0,0,1],"timestamp_mouse":[11,23,42,61,81,102,123,141,162,181,202,222,242,261,282,302,323,341,361,382,401,421,442,462,482,503,522,542,562,581,603,621,642,661,683,702,721,741,761,782,802,822,842,861,882,902,923,942,962,981,1001,1023,1041,1062,1082,1102,1121,1142,1161,1182,1201,1222,1241],"xSR":741.5,"ySR":573.95,"xT1":424.9,"yT1":0,"xT2":1058.1,"yT2":0,"toosoon":0,"cond_shown":"Incongruent","ratio_trial":300,"L_num":4,"L_den":5,"R_num":8,"R_den":16,"correct_side":1,"subjID":"MANUELFRANCISCOVEGARINCON1","gender":"2","school":"SEXTO","age":"12"},{"start_time":1551887268737,"click_time":1551887270153,"finger_time":1551887269434,"fix_duration":321.641567734146,"trial":39,"RT":697,"MT":719,"sideResp":1,"stimulus":[],"xmouse":[786,786,786,786,786,786,786,786,786,786,786,786,786,786,786,786,786,786,786,786,786,786,786,786,786,786,786,786,786,786,784,779,772,768,760,746,725,718,713,710,708,708,707,707,707,707,697,684,659,626,581,516,492,476,471,471,471,467,462,459,457,457,456,455,455,455,455,455,455,455,455],"ymouse":[649,649,649,649,649,649,649,649,648,647,646,645,641,640,640,640,640,640,640,640,640,640,640,640,640,640,640,640,638,636,629,613,599,581,556,501,429,405,388,377,372,369,367,364,358,347,309,280,235,174,111,0,0,0,0,0,0,0,0,0,0,0,0,0,0,0,0,0,0,0,1],"timestamp_mouse":[16,37,56,78,98,116,136,157,176,198,217,236,258,277,297,317,336,356,378,397,416,436,458,476,497,516,538,556,577,597,617,637,656,677,697,716,737,757,777,796,816,837,857,877,898,918,937,956,977,997,1016,1038,1057,1076,1097,1117,1136,1158,1177,1198,1217,1237,1257,1277,1297,1317,1337,1356,1376,1396,1416],"xSR":741.5,"ySR":573.95,"xT1":424.9,"yT1":0,"xT2":1058.1,"yT2":0,"toosoon":0,"cond_shown":"Incongruent","ratio_trial":200,"L_num":7,"L_den":10,"R_num":12,"R_den":24,"correct_side":1,"subjID":"MANUELFRANCISCOVEGARINCON1","gender":"2","school":"SEXTO","age":"12"},{"start_time":1551887275529,"click_time":1551887277235,"finger_time":1551887276294,"fix_duration":1194.4281345446327,"trial":40,"RT":765,"MT":941,"sideResp":2,"stimulus":[],"xmouse":[823,823,823,823,823,823,823,823,823,822,822,822,822,822,822,822,822,822,821,821,821,821,821,821,821,821,821,821,821,821,821,821,821,821,821,821,819,819,819,819,820,820,820,820,820,820,820,820,820,820,820,820,820,820,820,820,820,820,820,821,824,831,874,907,951,1039,1102,1218,1253,1267,1271,1271,1271,1271,1271,1273,1273,1272,1259,1240,1215,1193,1165,1161,1159,1155],"ymouse":[644,644,644,644,644,643,643,643,643,643,643,643,643,643,643,643,643,643,643,643,643,643,643,643,643,643,643,643,643,643,643,643,643,643,633,618,602,587,568,563,562,561,561,561,561,561,561,561,561,561,561,561,561,561,561,561,561,561,561,559,557,552,512,477,425,322,249,115,77,63,61,61,61,61,60,58,56,50,44,35,25,19,11,11,11,11],"timestamp_mouse":[10,32,46,64,85,104,126,145,164,184,205,225,244,264,286,304,326,346,364,385,405,426,445,464,485,505,524,545,564,586,605,625,644,665,685,706,725,744,765,785,804,825,846,866,885,905,926,945,966,985,1005,1025,1046,1066,1084,1104,1125,1145,1164,1186,1206,1225,1245,1265,1285,1306,1325,1345,1365,1384,1405,1426,1445,1465,1484,1506,1525,1545,1564,1585,1605,1625,1646,1664,1685,1706],"xSR":741.5,"ySR":573.95,"xT1":424.9,"yT1":0,"xT2":1058.1,"yT2":0,"toosoon":0,"cond_shown":"Incongruent","ratio_trial":100,"L_num":6,"L_den":12,"R_num":3,"R_den":5,"correct_side":2,"subjID":"MANUELFRANCISCOVEGARINCON1","gender":"2","school":"SEXTO","age":"12"},{"start_time":1551887279055,"click_time":1551887280234,"finger_time":1551887280034,"fix_duration":678.745687124622,"trial":41,"RT":979,"MT":200,"sideResp":1,"stimulus":[],"xmouse":[801,801,801,801,801,801,801,801,801,801,801,801,801,801,801,801,801,801,801,801,801,801,801,801,801,801,801,801,801,801,801,801,801,801,801,801,801,801,801,801,801,801,801,801,801,801,799,796,793,785,772,683,607,538,475,433,416,415,423,430],"ymouse":[600,600,600,600,600,600,600,600,600,600,600,600,600,600,600,600,600,600,600,600,600,600,600,600,600,600,600,600,600,600,600,600,600,600,600,600,600,600,600,600,599,597,595,595,595,594,591,587,580,558,531,427,357,286,215,146,96,44,29,22],"timestamp_mouse":[0,20,39,59,79,99,119,139,159,180,198,219,238,260,278,300,318,338,359,378,400,419,438,459,478,500,518,539,559,580,598,619,639,659,679,699,719,738,760,778,799,819,839,860,879,899,918,939,960,979,1000,1019,1039,1059,1078,1100,1119,1140,1159,1179],"xSR":741.5,"ySR":573.95,"xT1":424.9,"yT1":0,"xT2":1058.1,"yT2":0,"toosoon":0,"cond_shown":"Incongruent","ratio_trial":200,"L_num":7,"L_den":10,"R_num":12,"R_den":24,"correct_side":1,"subjID":"MANUELFRANCISCOVEGARINCON1","gender":"2","school":"SEXTO","age":"12"},{"start_time":1551887282080,"click_time":1551887283493,"finger_time":1551887282973,"fix_duration":344.5756156617914,"trial":42,"RT":893,"MT":520,"sideResp":1,"stimulus":[],"xmouse":[796,796,796,796,796,795,795,795,795,795,795,795,794,794,794,792,791,791,790,790,789,789,789,789,789,789,789,789,789,789,789,789,789,789,789,789,789,789,789,789,789,788,784,776,766,746,738,731,726,726,726,726,726,726,726,727,728,729,729,723,685,664,632,596,557,551,550,550,548,533,522],"ymouse":[650,649,649,647,646,645,645,645,645,645,645,645,643,642,641,637,636,634,633,633,633,633,633,633,633,633,633,633,633,633,633,633,633,633,633,633,633,633,633,631,629,622,608,589,567,519,500,486,473,472,472,472,472,472,472,463,452,436,400,367,269,213,162,112,66,60,59,59,59,59,59],"timestamp_mouse":[18,33,57,75,94,113,135,153,174,195,213,234,254,273,294,314,334,355,373,395,415,434,453,474,494,514,534,554,573,593,613,633,655,673,694,713,733,755,773,793,814,834,853,874,893,915,935,954,974,994,1013,1033,1053,1073,1094,1114,1134,1154,1175,1193,1214,1234,1254,1274,1293,1314,1334,1354,1375,1394,1413],"xSR":741.5,"ySR":573.95,"xT1":424.9,"yT1":0,"xT2":1058.1,"yT2":0,"toosoon":0,"cond_shown":"Congruent","ratio_trial":200,"L_num":4,"L_den":8,"R_num":3,"R_den":10,"correct_side":1,"subjID":"MANUELFRANCISCOVEGARINCON1","gender":"2","school":"SEXTO","age":"12"},{"start_time":1551887285863,"click_time":1551887287814,"finger_time":1551887287374,"fix_duration":1426.027309012187,"trial":43,"RT":1511,"MT":440,"sideResp":1,"stimulus":[],"xmouse":[814,814,814,814,814,814,814,814,814,814,814,814,814,814,814,814,814,814,814,814,814,814,814,814,814,814,814,814,814,814,814,814,814,814,814,814,814,814,814,814,814,814,814,814,814,814,814,814,814,814,814,814,814,814,814,814,814,814,814,814,814,814,814,814,814,814,814,814,814,814,814,814,813,812,807,798,792,789,781,764,722,699,674,656,644,636,626,622,616,612,585,534,508,488,475,470,469,465],"ymouse":[616,616,616,616,616,616,616,616,616,616,616,616,616,616,616,616,616,616,616,616,616,616,616,616,616,616,616,616,616,616,616,616,616,616,616,616,616,616,616,616,616,616,616,616,616,616,616,616,616,616,616,616,616,616,616,616,616,616,616,616,616,616,616,616,616,616,616,616,616,616,616,616,616,613,603,562,526,473,411,303,169,115,70,39,16,0,0,0,0,0,0,0,0,0,0,0,0,4],"timestamp_mouse":[10,33,51,71,90,111,132,152,172,191,212,231,251,270,291,310,332,352,370,392,410,431,452,471,491,511,530,551,570,590,612,632,650,672,692,712,730,752,771,791,812,832,851,871,892,910,932,950,971,991,1011,1030,1050,1071,1092,1111,1131,1152,1171,1191,1211,1230,1252,1272,1292,1311,1331,1351,1372,1391,1410,1431,1450,1471,1492,1511,1532,1550,1572,1591,1611,1632,1650,1672,1691,1711,1731,1752,1771,1792,1811,1831,1852,1871,1892,1912,1931,1950],"xSR":741.5,"ySR":573.95,"xT1":424.9,"yT1":0,"xT2":1058.1,"yT2":0,"toosoon":0,"cond_shown":"Congruent","ratio_trial":200,"L_num":4,"L_den":10,"R_num":3,"R_den":15,"correct_side":1,"subjID":"MANUELFRANCISCOVEGARINCON1","gender":"2","school":"SEXTO","age":"12"},{"start_time":1551887288912,"click_time":1551887290334,"finger_time":1551887289715,"fix_duration":337.8147371374794,"trial":44,"RT":803,"MT":619,"sideResp":2,"stimulus":[],"xmouse":[748,748,748,748,748,748,748,748,748,748,748,748,748,748,748,748,748,748,748,748,748,748,748,748,748,748,748,748,748,748,748,748,748,748,748,753,756,768,780,820,864,921,995,1074,1236,1317,1395,1451,1482,1482,1482,1482,1482,1482,1474,1455,1439,1404,1322,1273,1232,1207,1196,1194,1194,1194,1194,1194,1193,1186,1173,1157],"ymouse":[654,654,654,654,654,654,654,654,654,654,654,654,654,654,654,654,654,654,654,654,654,654,654,654,654,654,654,654,654,654,654,654,654,654,654,652,650,643,636,607,565,491,395,283,75,7,0,0,0,0,0,0,0,0,0,0,0,0,0,0,0,0,0,0,0,0,0,0,0,2,6,9],"timestamp_mouse":[9,32,42,63,81,102,122,142,162,182,203,222,241,263,282,302,322,342,362,382,403,422,441,461,482,503,522,543,562,581,603,623,641,662,683,703,721,742,762,783,803,823,842,862,882,902,922,941,962,981,1001,1021,1041,1062,1082,1102,1123,1141,1162,1181,1201,1222,1243,1262,1282,1302,1321,1341,1362,1382,1402,1422],"xSR":741.5,"ySR":573.95,"xT1":424.9,"yT1":0,"xT2":1058.1,"yT2":0,"toosoon":0,"cond_shown":"Congruent","ratio_trial":100,"L_num":10,"L_den":25,"R_num":3,"R_den":10,"correct_side":1,"subjID":"MANUELFRANCISCOVEGARINCON1","gender":"2","school":"SEXTO","age":"12"},{"start_time":1551887292259,"click_time":1551887293534,"finger_time":1551887293254,"fix_duration":463.8461214015195,"trial":45,"RT":995,"MT":280,"sideResp":2,"stimulus":[],"xmouse":[780,780,780,780,780,780,780,780,780,780,780,780,780,780,780,780,780,780,780,780,780,780,780,780,780,780,780,780,780,780,780,780,780,780,780,780,780,780,780,780,780,780,780,780,781,787,795,810,826,851,911,948,987,1026,1055,1078,1103,1112,1118,1125,1129,1141,1147,1152],"ymouse":[631,631,631,631,631,632,632,632,632,632,632,632,632,632,632,632,632,632,632,632,632,632,632,632,632,632,632,632,632,632,632,632,632,632,632,632,632,632,632,632,632,632,632,632,631,625,614,602,585,551,472,429,386,340,306,275,235,221,208,189,171,131,110,89],"timestamp_mouse":[15,35,56,75,94,115,134,154,175,194,216,234,254,275,294,314,335,354,376,394,414,435,454,474,494,515,536,554,575,594,616,634,656,674,694,716,734,756,774,794,815,835,855,876,895,915,934,955,975,995,1016,1034,1055,1076,1096,1114,1134,1156,1176,1196,1214,1235,1255,1275],"xSR":741.5,"ySR":573.95,"xT1":424.9,"yT1":0,"xT2":1058.1,"yT2":0,"toosoon":0,"cond_shown":"Incongruent","ratio_trial":300,"L_num":13,"L_den":26,"R_num":12,"R_den":15,"correct_side":2,"subjID":"MANUELFRANCISCOVEGARINCON1","gender":"2","school":"SEXTO","age":"12"},{"start_time":1551887295498,"click_time":1551887296854,"finger_time":1551887296474,"fix_duration":661.3488837468362,"trial":46,"RT":976,"MT":380,"sideResp":2,"stimulus":[],"xmouse":[815,815,815,815,815,815,815,815,815,815,815,815,815,815,815,815,815,815,815,815,815,815,815,815,815,815,815,815,815,815,815,815,815,815,815,815,815,815,815,815,815,815,815,815,815,815,815,815,829,843,857,870,888,954,1007,1065,1109,1137,1143,1144,1144,1144,1144,1144,1144,1144,1144,1146],"ymouse":[584,584,584,584,584,584,584,584,584,584,584,584,584,584,584,584,584,584,584,584,584,584,584,584,584,584,584,584,584,584,584,584,584,584,584,584,584,584,584,584,584,584,584,584,584,584,584,584,567,551,531,512,489,405,338,259,192,137,117,106,106,106,106,106,106,105,104,94],"timestamp_mouse":[16,36,56,76,95,117,136,155,176,196,216,235,257,276,296,316,336,357,375,395,417,435,455,476,495,515,537,555,575,596,617,635,657,676,696,716,735,757,775,795,815,836,857,875,896,916,937,956,976,996,1016,1035,1055,1076,1095,1117,1136,1156,1175,1196,1216,1235,1256,1276,1297,1316,1337,1356],"xSR":741.5,"ySR":573.95,"xT1":424.9,"yT1":0,"xT2":1058.1,"yT2":0,"toosoon":0,"cond_shown":"Incongruent","ratio_trial":300,"L_num":13,"L_den":26,"R_num":12,"R_den":15,"correct_side":2,"subjID":"MANUELFRANCISCOVEGARINCON1","gender":"2","school":"SEXTO","age":"12"},{"start_time":1551887299624,"click_time":1551887301414,"finger_time":1551887300894,"fix_duration":849.5703370095141,"trial":47,"RT":1270,"MT":520,"sideResp":2,"stimulus":[],"xmouse":[771,771,771,771,772,772,772,772,772,772,772,772,772,772,773,773,773,774,774,774,774,774,774,774,774,774,774,774,774,774,774,774,774,775,776,776,778,780,781,781,781,782,783,783,783,783,783,783,783,783,783,783,783,783,783,783,783,783,783,784,786,786,786,853,913,972,1017,1117,1161,1196,1227,1238,1251,1258,1263,1268,1272,1277,1283,1283,1282,1277,1263,1259,1256,1251,1239,1218,1170,1147],"ymouse":[624,624,624,624,624,624,624,624,624,624,624,624,624,624,624,623,623,623,623,623,623,623,623,623,623,623,623,623,623,623,623,623,623,623,623,623,621,621,620,620,620,616,616,616,616,616,616,616,616,616,616,616,616,616,616,616,616,616,616,615,614,614,614,583,556,515,480,392,350,314,272,253,222,206,193,180,168,150,114,97,84,71,54,54,53,53,58,67,88,92],"timestamp_mouse":[11,32,50,70,90,111,131,151,169,190,211,230,250,269,289,310,330,349,370,390,409,429,451,469,489,509,531,550,569,589,610,629,651,671,690,710,731,750,769,789,809,830,850,870,890,909,931,949,970,991,1010,1029,1050,1069,1089,1110,1131,1150,1170,1190,1210,1230,1250,1270,1291,1310,1329,1350,1370,1390,1409,1429,1449,1469,1490,1510,1531,1550,1570,1590,1611,1631,1650,1669,1689,1711,1730,1749,1769,1790],"xSR":741.5,"ySR":573.95,"xT1":424.9,"yT1":0,"xT2":1058.1,"yT2":0,"toosoon":0,"cond_shown":"Incongruent","ratio_trial":300,"L_num":4,"L_den":20,"R_num":2,"R_den":4,"correct_side":2,"subjID":"MANUELFRANCISCOVEGARINCON1","gender":"2","school":"SEXTO","age":"12"},{"start_time":1551887302960,"click_time":1551887306074,"finger_time":1551887304054,"fix_duration":364.7771838922883,"trial":48,"RT":1094,"MT":2020,"sideResp":1,"stimulus":[],"xmouse":[772,772,772,772,772,772,772,772,772,772,772,772,772,772,772,772,772,772,772,772,772,772,772,772,772,772,772,772,772,772,772,772,772,772,772,772,772,772,772,772,772,772,772,772,772,772,772,774,775,778,785,786,788,803,819,923,968,1022,1079,1125,1168,1175,1178,1178,1178,1178,1178,1178,1178,1178,1178,1177,1168,1153,1148,1111,1096,1083,1070,1062,1047,1036,1025,1012,998,973,958,941,925,912,900,889,879,865,848,809,800,792,786,780,768,766,763,758,742,703,677,667,640,613,612,612,612,612,612,612,612,612,612,612,612,612,612,612,612,612,612,612,612,612,612,612,612,612,612,612,612,612,612,612,612,612,612,612,612,612,612,612,612,612,612,612,612,612,601,502],"ymouse":[588,588,588,588,588,588,588,588,588,588,588,588,588,588,588,588,588,588,588,588,588,588,588,588,588,588,588,588,588,588,588,588,588,588,588,588,588,588,588,588,588,588,588,588,588,588,588,588,588,588,589,589,589,579,568,476,423,363,312,274,235,225,220,219,219,219,219,219,219,219,219,219,222,230,232,254,265,274,283,290,302,311,321,331,347,368,379,391,400,405,406,400,389,372,352,301,283,266,252,239,222,218,213,207,194,175,164,160,147,137,137,137,137,137,137,137,137,137,137,137,137,137,137,137,137,137,137,137,137,137,137,137,137,137,137,137,137,137,137,137,137,137,137,137,137,137,137,137,137,137,137,137,137,137,136,80],"timestamp_mouse":[13,34,53,74,93,114,134,155,174,194,214,233,254,275,294,314,334,353,374,393,414,434,455,474,494,515,533,554,574,594,614,634,654,673,693,714,733,754,774,793,814,834,855,874,894,913,933,953,975,995,1014,1033,1055,1075,1094,1113,1133,1154,1174,1194,1213,1233,1254,1275,1294,1314,1335,1354,1373,1395,1414,1433,1454,1474,1494,1513,1535,1554,1574,1594,1614,1635,1653,1674,1695,1714,1734,1754,1775,1794,1814,1835,1854,1875,1894,1913,1933,1954,1973,1995,2014,2034,2054,2074,2093,2114,2133,2154,2173,2194,2214,2235,2253,2275,2295,2313,2334,2355,2373,2395,2415,2434,2454,2473,2494,2515,2534,2554,2574,2593,2615,2635,2654,2674,2694,2715,2735,2754,2773,2793,2815,2835,2854,2874,2895,2914,2934,2953,2974,2993,3014,3034,3054,3074,3093,3114],"xSR":741.5,"ySR":573.95,"xT1":424.9,"yT1":0,"xT2":1058.1,"yT2":0,"toosoon":0,"cond_shown":"Congruent","ratio_trial":100,"L_num":10,"L_den":25,"R_num":3,"R_den":10,"correct_side":1,"subjID":"MANUELFRANCISCOVEGARINCON1","gender":"2","school":"SEXTO","age":"12"},{"start_time":1551887307725,"click_time":1551887309875,"finger_time":1551887308714,"fix_duration":250,"trial":49,"RT":989,"MT":1161,"sideResp":1,"stimulus":[],"xmouse":[762,762,762,762,762,762,762,762,762,762,762,762,762,762,762,762,762,762,762,762,762,762,762,762,762,762,762,762,762,762,762,762,762,762,762,760,758,756,753,752,751,750,749,749,748,748,748,745,743,740,734,723,697,685,676,669,661,658,654,652,649,644,643,643,641,637,633,623,616,607,600,596,592,591,591,589,585,576,564,558,555,554,554,554,554,554,558,560,560,560,560,560,560,559,559,555,551,548,541,538,537,537,537,537,536,533,527,513],"ymouse":[603,603,603,603,603,603,603,603,603,603,603,603,603,603,603,603,603,603,603,603,603,603,603,603,603,603,603,603,603,603,603,603,603,603,603,602,601,600,598,597,597,597,596,596,595,595,595,593,590,587,581,573,556,549,542,537,532,529,507,488,46