[{"start_time":1551887702169,"click_time":1551887703801,"finger_time":1551887703461,"fix_duration":1163.0273000983445,"trial":0,"RT":1292,"MT":340,"sideResp":2,"stimulus":"img/250/equaldotsize/R/12_Ratio_250_L_5_R_20.png","xmouse":[821,821,821,821,821,821,821,821,821,821,822,822,822,823,823,823,823,823,823,823,823,823,823,823,823,823,823,823,823,823,823,823,823,823,823,823,823,823,823,823,823,824,824,824,824,824,823,822,820,820,820,820,820,820,820,820,820,820,820,820,820,820,822,827,874,925,980,1031,1068,1115,1138,1157,1164,1167,1167,1167,1167,1167,1167,1165,1152,1137],"ymouse":[530,530,530,530,530,530,530,530,529,529,529,529,529,529,529,529,529,529,529,529,529,529,529,529,529,529,529,529,529,529,529,529,529,529,529,529,529,529,529,529,529,529,529,529,529,529,527,527,526,526,526,526,526,526,526,526,526,526,526,526,523,522,517,511,488,470,443,408,365,257,201,160,135,110,110,110,110,110,110,108,104,99],"timestamp_mouse":[12,41,53,72,91,112,132,153,172,191,212,232,252,273,293,312,332,353,372,392,412,433,452,472,493,513,532,553,571,592,613,632,653,673,692,713,733,752,773,792,812,833,853,872,892,912,931,952,973,992,1012,1032,1052,1072,1093,1112,1133,1152,1172,1192,1213,1232,1253,1272,1292,1312,1332,1353,1372,1392,1413,1433,1453,1474,1491,1512,1532,1553,1572,1592,1612,1632],"xSR":741.5,"ySR":469.95,"xT1":424.9,"yT1":0,"xT2":1058.1,"yT2":0,"toosoon":0,"cond_shown":"equaldotsize","ratio_trial":250,"smaller_num":"5","larger_num":"20","correct_side":2,"subjID":"MANUELFRANCISCOVEGARINCON1","gender":"2","age":"12","school":"SEXTO","test":{"fix_dur":[250,1500],"timestim":300,"targets_dim":[100,100],"targets_relative_coord":[0.3,0.7],"size_stim":[880,420],"start_dim":[100,100],"size_start":[300,300],"size_fix":60,"samplingrate":20,"img_types":["equaldotsize","equaldotanddens","randomdotsizeEA"],"ratios":[250,500,750,900],"rep_conds":9,"nTrials":120,"trials_to_rest":500,"Trials_order":[0,96,77,47,6,73,68,63,36,93,104,85,62,19,60,114,89,40,83,9,101,35,74,91,102,108,71,117,24,99,107,118,103,20,54,3,72,34,50,26,76,52,37,48,81,8,88,32,42,112,25,7,84,94,53,28,106,21,86,111,45,44,10,16,4,38,70,92,61,17,59,95,12,97,56,105,39,11,46,57,2,18,5,58,67,13,116,1,78,115,80,66,119,31,27,55,49,82,100,41,69,64,22,23,75,79,30,109,43,33,113,29,15,90,87,14,98,65,51,110],"cond_shown":["equaldotsize","equaldotsize","randomdotsizeEA","randomdotsizeEA","equaldotsize","equaldotanddens","randomdotsizeEA","equaldotsize","equaldotsize","equaldotsize","randomdotsizeEA","equaldotanddens","randomdotsizeEA","equaldotanddens","equaldotsize","equaldotsize","randomdotsizeEA","equaldotanddens","randomdotsizeEA","equaldotsize","randomdotsizeEA","randomdotsizeEA","randomdotsizeEA","equaldotanddens","equaldotsize","equaldotsize","randomdotsizeEA","equaldotsize","equaldotsize","equaldotsize","randomdotsizeEA","equaldotanddens","equaldotanddens","randomdotsizeEA","equaldotsize","equaldotsize","equaldotsize","equaldotanddens","randomdotsizeEA","randomdotsizeEA","equaldotanddens","equaldotanddens","equaldotanddens","equaldotsize","equaldotsize","randomdotsizeEA","equaldotanddens","randomdotsizeEA","equaldotsize","equaldotanddens","equaldotanddens","equaldotanddens","equaldotsize","equaldotanddens","randomdotsizeEA","equaldotanddens","equaldotanddens","equaldotsize","randomdotsizeEA","equaldotsize","equaldotsize","randomdotsizeEA","equaldotanddens","equaldotanddens","equaldotanddens","randomdotsizeEA","equaldotanddens","randomdotsizeEA","equaldotanddens","randomdotsizeEA","randomdotsizeEA","randomdotsizeEA","equaldotsize","equaldotanddens","randomdotsizeEA","equaldotsize","equaldotsize","randomdotsizeEA","equaldotanddens","equaldotsize","randomdotsizeEA","equaldotsize","randomdotsizeEA","equaldotanddens","equaldotanddens","equaldotanddens","randomdotsizeEA","equaldotanddens","equaldotsize","equaldotanddens","randomdotsizeEA","equaldotsize","randomdotsizeEA","equaldotanddens","equaldotsize","equaldotanddens","equaldotanddens","equaldotanddens","equaldotanddens","randomdotsizeEA","equaldotsize","equaldotanddens","equaldotanddens","randomdotsizeEA","equaldotsize","equaldotanddens","equaldotsize","equaldotanddens","equaldotanddens","equaldotsize","randomdotsizeEA","randomdotsizeEA","equaldotsize","equaldotsize","equaldotsize","randomdotsizeEA","randomdotsizeEA","randomdotsizeEA","equaldotsize","randomdotsizeEA"],"ratio_trial":[250,250,500,900,750,250,750,500,250,900,750,250,250,750,250,750,500,500,900,900,500,900,250,750,750,250,900,900,250,500,900,900,750,750,750,500,250,900,250,250,500,500,250,250,900,750,500,750,750,500,250,750,250,900,500,500,900,900,250,500,900,750,900,500,500,250,900,750,250,500,900,900,250,250,750,900,500,900,900,900,250,750,500,900,750,250,750,250,750,750,750,750,900,750,500,750,250,900,500,500,900,500,900,900,500,750,750,250,750,900,500,500,500,750,500,250,250,500,500,250],"smaller_num":["5","3","1","18","6","4","3","1","2","18","6","3","4","3","6","3","5","4","9","18","4","9","3","3","3","3","18","18","3","6","9","18","6","9","3","4","4","18","2","3","2","2","5","6","18","18","2","6","6","6","3","3","6","9","1","6","18","18","3","5","18","15","18","2","2","2","18","15","6","2","18","9","3","4","3","9","9","9","18","18","6","9","5","18","6","6","9","3","3","15","18","6","18","3","1","9","4","18","2","5","18","2","18","9","5","15","12","2","3","9","2","10","9","18","9","4","3","1","6","3"],"larger_num":["20","12","2","20","8","16","4","2","8","20","8","12","16","4","24","4","10","8","10","20","8","10","12","4","4","12","20","20","12","12","10","20","8","12","4","8","16","20","8","12","4","4","20","24","20","24","4","8","8","12","12","4","24","10","2","12","20","20","12","10","20","20","20","4","4","8","20","20","24","4","20","10","12","16","4","10","18","10","20","20","24","12","10","20","8","24","12","12","4","20","24","8","20","4","2","12","16","20","4","10","20","4","20","10","10","20","16","8","4","10","4","20","18","24","18","16","12","2","12","12"],"correct_side":[2,1,2,1,2,2,1,2,1,1,1,2,2,1,2,1,1,1,1,1,1,2,1,1,1,1,2,1,1,1,2,1,1,2,2,1,1,2,1,2,1,2,2,1,1,1,1,2,1,1,1,1,2,2,2,1,2,1,1,1,1,2,1,2,1,1,2,2,1,1,1,2,2,2,1,2,2,2,1,2,2,2,1,1,1,2,2,2,1,2,1,1,2,1,2,2,1,2,1,1,1,1,1,2,2,2,2,1,1,2,1,2,2,1,2,1,2,2,1,2],"img_shown":["img/250/equaldotsize/R/12_Ratio_250_L_5_R_20.png","img/250/equaldotsize/L/14_Ratio_250_L_12_R_3.png","img/500/randomdotsizeEA/R/15_Ratio_500_L_1_R_2.png","img/900/randomdotsizeEA/L/8_Ratio_900_L_20_R_18.png","img/750/equaldotsize/R/2_Ratio_750_L_6_R_8.png","img/250/equaldotanddens/R/10_Ratio_250_L_4_R_16.png","img/750/randomdotsizeEA/L/10_Ratio_750_L_4_R_3.png","img/500/equaldotsize/R/12_Ratio_500_L_1_R_2.png","img/250/equaldotsize/L/7_Ratio_250_L_8_R_2.png","img/900/equaldotsize/L/4_Ratio_900_L_20_R_18.png","img/750/randomdotsizeEA/L/14_Ratio_750_L_8_R_6.png","img/250/equaldotanddens/R/11_Ratio_250_L_3_R_12.png","img/250/randomdotsizeEA/R/10_Ratio_250_L_4_R_16.png","img/750/equaldotanddens/L/10_Ratio_750_L_4_R_3.png","img/250/equaldotsize/R/6_Ratio_250_L_6_R_24.png","img/750/equaldotsize/L/9_Ratio_750_L_4_R_3.png","img/500/randomdotsizeEA/L/7_Ratio_500_L_10_R_5.png","img/500/equaldotanddens/L/8_Ratio_500_L_8_R_4.png","img/900/randomdotsizeEA/L/1_Ratio_900_L_10_R_9.png","img/900/equaldotsize/L/4_Ratio_900_L_20_R_18.png","img/500/randomdotsizeEA/L/8_Ratio_500_L_8_R_4.png","img/900/randomdotsizeEA/R/15_Ratio_900_L_9_R_10.png","img/250/randomdotsizeEA/L/15_Ratio_250_L_12_R_3.png","img/750/equaldotanddens/L/9_Ratio_750_L_4_R_3.png","img/750/equaldotsize/L/8_Ratio_750_L_4_R_3.png","img/250/equaldotsize/L/15_Ratio_250_L_12_R_3.png","img/900/randomdotsizeEA/R/9_Ratio_900_L_18_R_20.png","img/900/equaldotsize/L/2_Ratio_900_L_20_R_18.png","img/250/equaldotsize/L/14_Ratio_250_L_12_R_3.png","img/500/equaldotsize/L/13_Ratio_500_L_12_R_6.png","img/900/randomdotsizeEA/R/7_Ratio_900_L_9_R_10.png","img/900/equaldotanddens/L/4_Ratio_900_L_20_R_18.png","img/750/equaldotanddens/L/14_Ratio_750_L_8_R_6.png","img/750/randomdotsizeEA/R/15_Ratio_750_L_9_R_12.png","img/750/equaldotsize/R/7_Ratio_750_L_3_R_4.png","img/500/equaldotsize/L/8_Ratio_500_L_8_R_4.png","img/250/equaldotsize/L/2_Ratio_250_L_16_R_4.png","img/900/equaldotanddens/R/12_Ratio_900_L_18_R_20.png","img/250/randomdotsizeEA/L/3_Ratio_250_L_8_R_2.png","img/250/randomdotsizeEA/R/11_Ratio_250_L_3_R_12.png","img/500/equaldotanddens/L/5_Ratio_500_L_4_R_2.png","img/500/equaldotanddens/R/9_Ratio_500_L_2_R_4.png","img/250/equaldotanddens/R/12_Ratio_250_L_5_R_20.png","img/250/equaldotsize/L/5_Ratio_250_L_24_R_6.png","img/900/equaldotsize/L/8_Ratio_900_L_20_R_18.png","img/750/randomdotsizeEA/L/6_Ratio_750_L_24_R_18.png","img/500/equaldotanddens/L/10_Ratio_500_L_4_R_2.png","img/750/randomdotsizeEA/R/2_Ratio_750_L_6_R_8.png","img/750/equaldotsize/L/13_Ratio_750_L_8_R_6.png","img/500/equaldotanddens/L/13_Ratio_500_L_12_R_6.png","img/250/equaldotanddens/L/15_Ratio_250_L_12_R_3.png","img/750/equaldotanddens/L/8_Ratio_750_L_4_R_3.png","img/250/equaldotsize/R/6_Ratio_250_L_6_R_24.png","img/900/equaldotanddens/R/3_Ratio_900_L_9_R_10.png","img/500/randomdotsizeEA/R/12_Ratio_500_L_1_R_2.png","img/500/equaldotanddens/L/13_Ratio_500_L_12_R_6.png","img/900/equaldotanddens/R/13_Ratio_900_L_18_R_20.png","img/900/equaldotsize/L/4_Ratio_900_L_20_R_18.png","img/250/randomdotsizeEA/L/14_Ratio_250_L_12_R_3.png","img/500/equaldotsize/L/7_Ratio_500_L_10_R_5.png","img/900/equaldotsize/L/10_Ratio_900_L_20_R_18.png","img/750/randomdotsizeEA/R/3_Ratio_750_L_15_R_20.png","img/900/equaldotanddens/L/8_Ratio_900_L_20_R_18.png","img/500/equaldotanddens/R/9_Ratio_500_L_2_R_4.png","img/500/equaldotanddens/L/10_Ratio_500_L_4_R_2.png","img/250/randomdotsizeEA/L/7_Ratio_250_L_8_R_2.png","img/900/equaldotanddens/R/9_Ratio_900_L_18_R_20.png","img/750/randomdotsizeEA/R/4_Ratio_750_L_15_R_20.png","img/250/equaldotanddens/L/5_Ratio_250_L_24_R_6.png","img/500/randomdotsizeEA/L/5_Ratio_500_L_4_R_2.png","img/900/randomdotsizeEA/L/2_Ratio_900_L_20_R_18.png","img/900/randomdotsizeEA/R/5_Ratio_900_L_9_R_10.png","img/250/equaldotsize/R/9_Ratio_250_L_3_R_12.png","img/250/equaldotanddens/R/10_Ratio_250_L_4_R_16.png","img/750/randomdotsizeEA/L/8_Ratio_750_L_4_R_3.png","img/900/equaldotsize/R/7_Ratio_900_L_9_R_10.png","img/500/equaldotsize/R/1_Ratio_500_L_9_R_18.png","img/900/randomdotsizeEA/R/7_Ratio_900_L_9_R_10.png","img/900/equaldotanddens/L/2_Ratio_900_L_20_R_18.png","img/900/equaldotsize/R/14_Ratio_900_L_18_R_20.png","img/250/randomdotsizeEA/R/6_Ratio_250_L_6_R_24.png","img/750/equaldotsize/R/15_Ratio_750_L_9_R_12.png","img/500/randomdotsizeEA/L/7_Ratio_500_L_10_R_5.png","img/900/equaldotanddens/L/8_Ratio_900_L_20_R_18.png","img/750/equaldotanddens/L/13_Ratio_750_L_8_R_6.png","img/250/equaldotanddens/R/6_Ratio_250_L_6_R_24.png","img/750/randomdotsizeEA/R/15_Ratio_750_L_9_R_12.png","img/250/equaldotanddens/R/11_Ratio_250_L_3_R_12.png","img/750/equaldotsize/L/10_Ratio_750_L_4_R_3.png","img/750/equaldotanddens/R/4_Ratio_750_L_15_R_20.png","img/750/randomdotsizeEA/L/6_Ratio_750_L_24_R_18.png","img/750/equaldotsize/L/13_Ratio_750_L_8_R_6.png","img/900/randomdotsizeEA/R/12_Ratio_900_L_18_R_20.png","img/750/equaldotanddens/L/10_Ratio_750_L_4_R_3.png","img/500/equaldotsize/R/15_Ratio_500_L_1_R_2.png","img/750/equaldotanddens/R/15_Ratio_750_L_9_R_12.png","img/250/equaldotanddens/L/2_Ratio_250_L_16_R_4.png","img/900/equaldotanddens/R/14_Ratio_900_L_18_R_20.png","img/500/equaldotanddens/L/10_Ratio_500_L_4_R_2.png","img/500/randomdotsizeEA/L/7_Ratio_500_L_10_R_5.png","img/900/equaldotsize/L/8_Ratio_900_L_20_R_18.png","img/500/equaldotanddens/L/5_Ratio_500_L_4_R_2.png","img/900/equaldotanddens/L/2_Ratio_900_L_20_R_18.png","img/900/randomdotsizeEA/R/6_Ratio_900_L_9_R_10.png","img/500/equaldotsize/R/14_Ratio_500_L_5_R_10.png","img/750/equaldotanddens/R/4_Ratio_750_L_15_R_20.png","img/750/equaldotsize/R/11_Ratio_750_L_12_R_16.png","img/250/equaldotanddens/L/1_Ratio_250_L_8_R_2.png","img/750/equaldotanddens/L/9_Ratio_750_L_4_R_3.png","img/900/equaldotsize/R/15_Ratio_900_L_9_R_10.png","img/500/randomdotsizeEA/L/10_Ratio_500_L_4_R_2.png","img/500/randomdotsizeEA/R/3_Ratio_500_L_10_R_20.png","img/500/equaldotsize/R/6_Ratio_500_L_9_R_18.png","img/750/equaldotsize/L/6_Ratio_750_L_24_R_18.png","img/500/equaldotsize/R/1_Ratio_500_L_9_R_18.png","img/250/randomdotsizeEA/L/2_Ratio_250_L_16_R_4.png","img/250/randomdotsizeEA/R/4_Ratio_250_L_3_R_12.png","img/500/randomdotsizeEA/R/15_Ratio_500_L_1_R_2.png","img/500/equaldotsize/L/13_Ratio_500_L_12_R_6.png","img/250/randomdotsizeEA/R/11_Ratio_250_L_3_R_12.png"],"Rat0":[["12_Ratio_0_L_9_R_0.png","13_Ratio_0_L_6_R_0.png","5_Ratio_0_L_2_R_0.png","6_Ratio_0_L_4_R_0.png","8_Ratio_0_L_6_R_0.png"],["1_Ratio_0_L_0_R_17.png","10_Ratio_0_L_0_R_22.png","11_Ratio_0_L_0_R_1.png","14_Ratio_0_L_0_R_24.png","15_Ratio_0_L_0_R_4.png","2_Ratio_0_L_0_R_5.png","3_Ratio_0_L_0_R_17.png","4_Ratio_0_L_0_R_7.png","7_Ratio_0_L_0_R_19.png","9_Ratio_0_L_0_R_15.png"]],"Rat250":[["1_Ratio_250_L_8_R_2.png","14_Ratio_250_L_12_R_3.png","15_Ratio_250_L_12_R_3.png","2_Ratio_250_L_16_R_4.png","3_Ratio_250_L_8_R_2.png","5_Ratio_250_L_24_R_6.png","7_Ratio_250_L_8_R_2.png"],["10_Ratio_250_L_4_R_16.png","11_Ratio_250_L_3_R_12.png","12_Ratio_250_L_5_R_20.png","13_Ratio_250_L_2_R_8.png","4_Ratio_250_L_3_R_12.png","6_Ratio_250_L_6_R_24.png","8_Ratio_250_L_1_R_4.png","9_Ratio_250_L_3_R_12.png"]],"Rat500":[["10_Ratio_500_L_4_R_2.png","11_Ratio_500_L_12_R_6.png","13_Ratio_500_L_12_R_6.png","4_Ratio_500_L_18_R_9.png","5_Ratio_500_L_4_R_2.png","7_Ratio_500_L_10_R_5.png","8_Ratio_500_L_8_R_4.png"],["1_Ratio_500_L_9_R_18.png","12_Ratio_500_L_1_R_2.png","14_Ratio_500_L_5_R_10.png","15_Ratio_500_L_1_R_2.png","2_Ratio_500_L_3_R_6.png","3_Ratio_500_L_10_R_20.png","6_Ratio_500_L_9_R_18.png","9_Ratio_500_L_2_R_4.png"]],"Rat750":[["1_Ratio_750_L_20_R_15.png","10_Ratio_750_L_4_R_3.png","13_Ratio_750_L_8_R_6.png","14_Ratio_750_L_8_R_6.png","6_Ratio_750_L_24_R_18.png","8_Ratio_750_L_4_R_3.png","9_Ratio_750_L_4_R_3.png"],["11_Ratio_750_L_12_R_16.png","12_Ratio_750_L_3_R_4.png","15_Ratio_750_L_9_R_12.png","2_Ratio_750_L_6_R_8.png","3_Ratio_750_L_15_R_20.png","4_Ratio_750_L_15_R_20.png","5_Ratio_750_L_15_R_20.png","7_Ratio_750_L_3_R_4.png"]],"Rat900":[["1_Ratio_900_L_10_R_9.png","10_Ratio_900_L_20_R_18.png","2_Ratio_900_L_20_R_18.png","4_Ratio_900_L_20_R_18.png","8_Ratio_900_L_20_R_18.png"],["11_Ratio_900_L_18_R_20.png","12_Ratio_900_L_18_R_20.png","13_Ratio_900_L_18_R_20.png","14_Ratio_900_L_18_R_20.png","15_Ratio_900_L_9_R_10.png","3_Ratio_900_L_9_R_10.png","5_Ratio_900_L_9_R_10.png","6_Ratio_900_L_9_R_10.png","7_Ratio_900_L_9_R_10.png","9_Ratio_900_L_18_R_20.png"]],"Rat1000":[["10_Ratio_1000_L_16_R_16.png","11_Ratio_1000_L_6_R_6.png","12_Ratio_1000_L_14_R_14.png","13_Ratio_1000_L_20_R_20.png","15_Ratio_1000_L_15_R_15.png","2_Ratio_1000_L_17_R_17.png","4_Ratio_1000_L_9_R_9.png","5_Ratio_1000_L_6_R_6.png","6_Ratio_1000_L_19_R_19.png","8_Ratio_1000_L_14_R_14.png","9_Ratio_1000_L_25_R_25.png"],["1_Ratio_1000_L_1_R_1.png","14_Ratio_1000_L_17_R_17.png","3_Ratio_1000_L_17_R_17.png","7_Ratio_1000_L_6_R_6.png"]]}},{"start_time":1551887706489,"click_time":1551887707321,"finger_time":1551887707181,"fix_duration":1364.1732940540953,"trial":1,"RT":692,"MT":140,"sideResp":1,"stimulus":"img/250/equaldotsize/L/14_Ratio_250_L_12_R_3.png","xmouse":[787,787,787,787,787,787,787,787,787,787,787,787,787,787,787,787,787,787,787,787,787,787,787,787,787,787,787,787,787,787,787,787,777,765,745,724,689,661,599,561,526,497],"ymouse":[541,541,541,541,541,541,541,541,541,541,541,541,541,541,541,541,541,541,541,541,541,541,541,541,541,541,541,541,541,541,537,531,508,491,467,439,385,335,223,166,117,78],"timestamp_mouse":[13,36,53,73,92,112,133,153,172,192,212,233,252,271,292,312,332,352,372,392,412,433,452,473,493,512,532,552,571,592,613,632,653,672,692,712,733,751,772,792,812,832],"xSR":741.5,"ySR":469.95,"xT1":424.9,"yT1":0,"xT2":1058.1,"yT2":0,"toosoon":0,"cond_shown":"equaldotsize","ratio_trial":250,"smaller_num":"3","larger_num":"12","correct_side":1,"subjID":"MANUELFRANCISCOVEGARINCON1","gender":"2","age":"12","school":"SEXTO"},{"start_time":1551887711027,"click_time":1551887714921,"finger_time":1551887714481,"fix_duration":383.4332128977701,"trial":2,"RT":3454,"MT":440,"sideResp":2,"stimulus":"img/500/randomdotsizeEA/R/15_Ratio_500_L_1_R_2.png","xmouse":[778,778,778,778,778,778,778,778,778,778,778,778,778,778,778,778,778,778,778,778,778,778,778,778,778,778,778,778,778,778,778,778,778,778,778,778,778,778,778,778,778,778,778,778,778,778,778,778,778,778,778,778,778,778,778,778,778,778,778,778,778,778,778,778,778,778,778,778,778,778,778,778,778,778,778,778,778,778,778,778,778,778,778,778,778,778,778,778,778,778,778,778,778,778,778,778,778,778,778,778,778,778,778,778,778,778,778,778,778,778,778,778,778,778,778,778,778,778,778,778,778,778,778,778,778,778,778,778,778,778,778,778,778,778,778,778,778,778,778,778,778,778,778,778,778,778,778,778,778,778,778,778,778,778,778,778,778,778,778,778,778,778,778,778,778,781,795,800,804,806,807,814,825,836,844,847,854,857,860,864,890,897,905,914,926,939,958,960,961,964,970,1015,1036,1057,1075],"ymouse":[533,533,533,533,533,533,533,533,533,533,533,533,533,533,533,533,533,533,533,533,533,533,533,533,533,533,533,533,533,533,533,533,533,533,533,533,533,533,533,533,533,533,533,533,533,533,533,533,533,533,533,533,533,533,533,533,533,533,533,533,533,533,533,533,533,533,533,533,533,533,533,533,533,533,533,533,533,533,533,533,533,533,533,533,533,533,533,533,533,533,533,533,533,533,533,533,533,533,533,533,533,533,533,533,533,533,533,533,533,533,533,533,533,533,533,533,533,533,533,533,533,533,533,533,533,533,533,533,533,533,533,533,533,533,533,533,533,533,533,533,533,533,533,533,533,533,533,533,533,533,533,533,533,533,533,533,533,533,533,533,533,533,533,533,530,524,512,507,501,495,490,474,461,445,426,410,373,356,337,319,256,237,218,205,194,188,185,184,184,183,180,147,123,89,52],"timestamp_mouse":[14,43,54,74,94,114,134,154,175,194,214,234,254,274,295,314,335,353,375,394,414,435,454,474,495,514,535,555,574,595,615,635,653,674,695,715,735,754,774,794,815,834,854,874,895,915,933,955,975,994,1014,1033,1055,1074,1094,1114,1133,1154,1174,1194,1215,1235,1254,1274,1294,1314,1335,1354,1374,1394,1414,1435,1454,1475,1495,1514,1534,1554,1575,1594,1615,1634,1655,1675,1694,1715,1735,1753,1774,1793,1815,1835,1855,1875,1895,1914,1934,1955,1973,1995,2014,2034,2055,2074,2094,2115,2135,2155,2174,2194,2215,2235,2254,2274,2293,2314,2335,2355,2374,2395,2414,2435,2455,2474,2495,2514,2535,2554,2575,2594,2614,2634,2654,2675,2694,2715,2735,2754,2774,2794,2814,2835,2855,2874,2895,2914,2933,2954,2974,2995,3013,3035,3054,3075,3095,3114,3135,3155,3174,3194,3215,3235,3254,3274,3294,3314,3334,3353,3374,3394,3414,3433,3454,3474,3494,3513,3533,3555,3575,3594,3616,3634,3654,3674,3694,3715,3734,3754,3775,3794,3813,3834,3854,3875,3894],"xSR":741.5,"ySR":469.95,"xT1":424.9,"yT1":0,"xT2":1058.1,"yT2":0,"toosoon":0,"cond_shown":"randomdotsizeEA","ratio_trial":500,"smaller_num":"1","larger_num":"2","correct_side":2,"subjID":"MANUELFRANCISCOVEGARINCON1","gender":"2","age":"12","school":"SEXTO"},{"start_time":1551887717589,"click_time":1551887720402,"finger_time":1551887719901,"fix_duration":847.6092584739291,"trial":3,"RT":2312,"MT":501,"sideResp":2,"stimulus":"img/900/randomdotsizeEA/L/8_Ratio_900_L_20_R_18.png","xmouse":[794,794,794,794,794,794,794,794,794,794,794,794,794,794,794,794,794,794,794,794,794,794,794,794,794,794,794,794,794,794,794,794,794,794,794,794,794,794,794,794,794,794,794,794,794,794,794,794,794,794,794,794,794,794,794,794,794,794,794,794,794,794,794,794,794,794,794,794,794,794,794,794,794,794,794,794,794,794,794,794,794,794,794,794,794,794,794,794,794,794,794,794,794,794,794,794,794,794,794,794,794,795,799,802,802,802,802,802,802,806,811,813,817,826,834,844,865,899,974,1007,1035,1044,1044,1044,1044,1044,1044,1044,1044,1044,1044,1044,1044,1044,1044,1044,1044,1044,1044,1044,1106],"ymouse":[539,539,539,539,539,539,539,539,539,539,539,539,539,539,539,539,539,539,539,539,539,539,539,539,539,539,539,539,539,539,539,539,539,539,539,539,539,539,539,539,539,539,539,539,539,539,539,539,539,539,539,539,539,539,539,539,539,539,539,539,539,539,539,539,539,539,539,539,539,539,539,539,539,539,539,539,539,539,539,539,539,539,539,539,539,539,539,539,539,539,539,539,539,539,539,539,539,539,539,539,539,535,533,532,532,532,532,532,532,530,527,525,521,508,493,467,428,348,173,95,30,7,7,7,7,7,7,7,7,7,7,7,7,7,7,7,7,7,7,7,4],"timestamp_mouse":[13,34,52,73,92,113,131,153,172,192,213,231,252,272,293,312,332,352,372,393,413,433,452,473,491,513,531,552,573,593,612,633,652,673,692,713,732,752,771,792,813,833,853,873,893,912,932,951,972,992,1012,1033,1051,1072,1092,1112,1133,1153,1172,1193,1213,1233,1252,1272,1292,1313,1333,1353,1372,1392,1412,1433,1453,1472,1493,1512,1533,1552,1573,1592,1611,1633,1652,1671,1693,1713,1733,1753,1772,1792,1812,1832,1853,1872,1891,1913,1933,1953,1972,1992,2012,2033,2052,2073,2092,2112,2132,2153,2172,2192,2212,2233,2252,2273,2292,2312,2333,2353,2372,2392,2412,2432,2453,2473,2492,2512,2533,2553,2572,2592,2613,2632,2652,2672,2693,2712,2732,2752,2772,2792,2812],"xSR":741.5,"ySR":469.95,"xT1":424.9,"yT1":0,"xT2":1058.1,"yT2":0,"toosoon":0,"cond_shown":"randomdotsizeEA","ratio_trial":900,"smaller_num":"18","larger_num":"20","correct_side":1,"subjID":"MANUELFRANCISCOVEGARINCON1","gender":"2","age":"12","school":"SEXTO"},{"start_time":1551887723772,"click_time":1551887724861,"finger_time":1551887724461,"fix_duration":250,"trial":4,"RT":689,"MT":400,"sideResp":1,"stimulus":"img/750/equaldotsize/R/2_Ratio_750_L_6_R_8.png","xmouse":[762,762,762,762,762,762,762,762,762,762,762,762,762,762,762,763,764,766,768,773,775,775,775,776,776,776,776,776,776,776,776,776,776,776,771,759,741,709,640,623,610,607,606,613,614,614,613,604,581,575,573,572,568,559,513],"ymouse":[524,524,524,524,524,524,524,524,524,524,524,524,524,524,524,520,516,512,507,489,481,476,474,473,473,473,473,473,473,473,473,473,473,471,450,424,381,335,227,187,157,138,123,102,96,92,89,86,78,77,76,76,75,74,74],"timestamp_mouse":[10,36,49,69,89,110,129,149,170,189,210,228,250,269,290,309,330,349,368,389,409,429,449,470,490,509,530,550,569,589,608,629,649,669,689,708,729,750,770,789,809,830,849,870,889,909,929,950,970,988,1009,1029,1049,1069,1088],"xSR":741.5,"ySR":469.95,"xT1":424.9,"yT1":0,"xT2":1058.1,"yT2":0,"toosoon":0,"cond_shown":"equaldotsize","ratio_trial":750,"smaller_num":"6","larger_num":"8","correct_side":2,"subjID":"MANUELFRANCISCOVEGARINCON1","gender":"2","age":"12","school":"SEXTO"},{"start_time":1551887727494,"click_time":1551887728542,"finger_time":1551887728301,"fix_duration":250,"trial":5,"RT":807,"MT":241,"sideResp":2,"stimulus":"img/250/equaldotanddens/R/10_Ratio_250_L_4_R_16.png","xmouse":[763,763,763,763,763,763,763,763,763,763,763,763,763,763,763,763,763,763,763,763,763,763,763,763,763,763,763,763,763,763,763,763,763,763,764,765,769,775,797,811,830,864,896,995,1048,1089,1106,1115,1120,1123,1128,1134,1142],"ymouse":[511,511,511,511,511,511,511,511,511,511,511,511,511,511,511,511,511,511,511,511,511,511,511,511,511,511,511,511,511,511,511,511,511,511,511,510,509,508,497,484,464,418,376,267,222,184,165,147,138,136,130,122,97],"timestamp_mouse":[8,30,48,68,86,107,127,147,168,188,207,228,248,266,288,307,327,347,368,387,407,427,447,467,488,508,527,547,567,587,608,626,647,666,688,707,727,748,768,787,807,828,847,867,887,907,927,947,967,987,1007,1027,1048],"xSR":741.5,"ySR":469.95,"xT1":424.9,"yT1":0,"xT2":1058.1,"yT2":0,"toosoon":0,"cond_shown":"equaldotanddens","ratio_trial":250,"smaller_num":"4","larger_num":"16","correct_side":2,"subjID":"MANUELFRANCISCOVEGARINCON1","gender":"2","age":"12","school":"SEXTO"},{"start_time":1551887729777,"click_time":1551887733142,"finger_time":1551887731701,"fix_duration":313.80620047285225,"trial":6,"RT":1924,"MT":1441,"sideResp":2,"stimulus":"img/750/randomdotsizeEA/L/10_Ratio_750_L_4_R_3.png","xmouse":[798,798,798,798,798,798,798,798,798,798,798,798,798,798,798,798,798,798,798,798,798,798,798,798,798,798,798,798,798,798,798,798,798,798,798,798,798,798,798,798,798,798,798,798,798,798,798,798,798,798,798,798,798,798,798,798,798,798,798,798,798,798,798,798,798,798,798,798,798,798,798,798,798,798,798,798,798,798,798,798,798,798,798,798,798,798,798,798,798,798,798,798,797,795,783,776,771,767,759,758,756,755,754,754,753,753,753,753,753,753,753,753,753,753,751,749,747,745,744,744,744,744,744,744,744,744,744,744,744,743,742,742,742,742,742,742,742,741,739,722,704,687,670,668,668,668,668,668,681,750,796,849,885,920,925,938,962,1017,1076,1151,1164,1172,1175,1178,1179,1180,1178,1163,1120],"ymouse":[532,532,532,532,532,532,532,532,532,532,532,532,532,532,532,532,532,532,532,532,532,532,532,532,532,532,532,532,532,532,532,532,532,532,532,532,532,532,532,532,532,532,532,532,532,532,532,532,532,532,532,532,532,532,532,532,532,532,532,532,532,532,532,532,532,532,532,532,532,532,532,532,532,532,532,532,532,532,532,532,532,532,532,532,532,532,532,532,532,532,532,532,530,526,497,481,466,449,424,416,411,407,406,405,404,404,404,404,404,404,404,404,404,404,401,399,396,395,395,395,395,395,395,395,395,395,395,395,394,393,392,392,392,392,391,389,388,385,382,364,351,338,324,321,321,321,321,321,321,336,347,359,364,363,353,336,309,274,235,190,178,171,164,157,154,150,140,119,51],"timestamp_mouse":[9,35,44,65,84,104,124,144,165,184,204,225,243,265,284,303,325,344,364,385,403,424,445,463,485,503,524,543,564,585,605,624,644,665,685,705,724,744,765,784,805,824,845,864,884,905,924,944,965,985,1005,1024,1044,1064,1085,1104,1124,1143,1165,1185,1205,1224,1244,1264,1285,1303,1324,1344,1363,1385,1404,1424,1445,1464,1485,1503,1524,1544,1564,1585,1604,1625,1644,1665,1685,1704,1724,1744,1765,1784,1804,1825,1844,1863,1885,1904,1924,1944,1965,1984,2005,2024,2045,2064,2085,2104,2125,2144,2164,2184,2204,2224,2244,2265,2284,2303,2324,2344,2364,2384,2405,2425,2444,2464,2484,2504,2525,2544,2564,2584,2604,2624,2645,2664,2684,2704,2724,2745,2765,2784,2804,2825,2845,2865,2884,2904,2925,2944,2964,2984,3005,3024,3044,3065,3083,3104,3125,3144,3164,3184,3204,3225,3244,3266,3284,3304,3324,3344,3365],"xSR":741.5,"ySR":469.95,"xT1":424.9,"yT1":0,"xT2":1058.1,"yT2":0,"toosoon":0,"cond_shown":"randomdotsizeEA","ratio_trial":750,"smaller_num":"3","larger_num":"4","correct_side":1,"subjID":"MANUELFRANCISCOVEGARINCON1","gender":"2","age":"12","school":"SEXTO"},{"start_time":1551887734524,"click_time":1551887736261,"finger_time":1551887735902,"fix_duration":442.6348286146995,"trial":7,"RT":1378,"MT":359,"sideResp":1,"stimulus":"img/500/equaldotsize/R/12_Ratio_500_L_1_R_2.png","xmouse":[802,802,802,802,802,802,802,802,802,802,802,802,802,802,802,802,802,802,802,802,802,802,802,802,802,802,802,802,802,802,802,802,802,802,802,802,802,802,802,802,802,802,802,802,802,802,802,802,802,802,802,802,802,802,802,802,802,802,802,802,802,802,802,801,800,793,781,771,757,746,721,691,688,681,676,668,653,638,618,593,566,527,527,527,527,527,465],"ymouse":[520,520,520,520,520,520,520,520,520,520,520,520,520,520,520,520,520,520,520,520,520,520,520,520,520,520,520,520,520,520,520,520,520,520,520,520,520,520,520,520,520,520,520,520,520,520,520,520,520,520,520,520,520,520,520,520,520,520,520,520,520,520,520,520,518,508,490,472,438,400,331,248,221,199,181,160,130,111,88,60,36,0,0,0,0,0,7],"timestamp_mouse":[17,37,58,78,98,117,138,158,176,198,217,237,257,277,298,318,336,357,378,398,418,438,457,476,498,517,537,557,578,598,618,638,658,678,697,717,738,757,778,798,817,838,858,878,896,918,937,957,976,998,1017,1037,1057,1077,1097,1118,1136,1158,1177,1197,1217,1236,1257,1277,1296,1317,1338,1357,1378,1397,1417,1437,1457,1477,1497,1518,1538,1557,1577,1596,1617,1637,1658,1677,1698,1718,1737],"xSR":741.5,"ySR":469.95,"xT1":424.9,"yT1":0,"xT2":1058.1,"yT2":0,"toosoon":0,"cond_shown":"equaldotsize","ratio_trial":500,"smaller_num":"1","larger_num":"2","correct_side":2,"subjID":"MANUELFRANCISCOVEGARINCON1","gender":"2","age":"12","school":"SEXTO"},{"start_time":1551887738340,"click_time":1551887739781,"finger_time":1551887739401,"fix_duration":877.4147488172048,"trial":8,"RT":1061,"MT":380,"sideResp":1,"stimulus":"img/250/equaldotsize/L/7_Ratio_250_L_8_R_2.png","xmouse":[760,760,760,760,761,762,765,766,766,766,766,766,766,766,766,766,766,766,766,766,766,766,766,766,766,766,766,766,766,766,766,766,766,766,766,766,766,766,766,766,766,766,766,766,766,766,766,766,766,766,766,767,758,719,700,588,588,588,588,588,588,588,588,588,588,588,588,588,588,588,397,421,436],"ymouse":[541,541,541,541,541,541,541,541,541,541,541,541,541,541,541,541,541,541,541,541,541,541,541,541,541,541,541,541,541,541,541,541,541,541,541,541,541,541,541,541,541,541,541,541,541,541,541,541,541,541,541,536,497,361,294,30,30,30,30,30,30,30,30,30,30,30,30,30,30,30,6,52,72],"timestamp_mouse":[9,34,41,61,81,101,121,141,161,181,201,221,241,262,281,301,321,341,360,380,401,421,442,460,481,501,520,541,561,581,601,622,642,660,681,701,722,741,761,781,801,821,842,861,881,900,922,941,961,981,1001,1021,1042,1061,1082,1102,1121,1141,1162,1181,1202,1222,1241,1262,1281,1301,1322,1341,1362,1381,1402,1421,1441],"xSR":741.5,"ySR":469.95,"xT1":424.9,"yT1":0,"xT2":1058.1,"yT2":0,"toosoon":0,"cond_shown":"equaldotsize","ratio_trial":250,"smaller_num":"2","larger_num":"8","correct_side":1,"subjID":"MANUELFRANCISCOVEGARINCON1","gender":"2","age":"12","school":"SEXTO"},{"start_time":1551887741259,"click_time":1551887743801,"finger_time":1551887742261,"fix_duration":377.82554955299895,"trial":9,"RT":1002,"MT":1540,"sideResp":2,"stimulus":"img/900/equaldotsize/L/4_Ratio_900_L_20_R_18.png","xmouse":[773,773,773,773,773,773,773,773,773,773,773,773,773,773,773,773,773,773,773,773,773,773,773,773,773,773,773,773,773,773,773,773,773,773,773,773,773,773,773,773,773,773,773,773,773,773,778,783,805,821,857,880,901,919,939,944,948,951,954,957,974,984,995,1003,1006,1010,1011,1012,1015,1016,1017,1018,1018,1019,1019,1022,1026,1032,1037,1040,1044,1044,1044,1044,1044,1044,1045,1047,1049,1050,1053,1055,1057,1059,1061,1061,1061,1061,1061,1062,1063,1064,1065,1065,1065,1066,1066,1066,1066,1066,1066,1066,1066,1067,1067,1068,1068,1069,1069,1069,1069,1069,1069,1069,1069,1069,1070,1071],"ymouse":[561,561,561,561,561,561,561,561,561,561,561,561,561,561,561,561,561,561,561,561,561,561,561,561,561,561,561,561,561,561,561,561,561,561,561,561,561,561,561,561,561,561,561,561,561,561,552,545,520,500,450,419,390,365,330,320,311,303,298,292,266,251,235,221,209,198,194,190,183,180,168,164,161,160,159,154,149,139,131,125,118,118,118,118,118,118,117,116,115,115,114,113,113,113,112,112,112,112,112,112,110,109,109,108,108,106,105,105,105,105,105,105,105,105,104,103,102,102,102,102,102,102,102,102,102,101,100,99],"timestamp_mouse":[11,22,42,62,82,103,122,142,162,182,203,223,242,262,282,302,321,343,363,382,402,421,443,462,483,502,521,543,563,583,602,623,642,662,681,702,723,742,762,782,803,822,843,863,883,903,922,943,963,982,1002,1022,1042,1063,1083,1102,1122,1142,1162,1183,1202,1222,1242,1262,1282,1302,1322,1342,1362,1382,1402,1422,1442,1462,1482,1502,1522,1542,1561,1581,1602,1622,1642,1663,1682,1702,1722,1742,1762,1781,1802,1822,1843,1862,1882,1902,1923,1942,1961,1982,2002,2022,2042,2062,2083,2102,2122,2142,2163,2181,2202,2222,2242,2262,2282,2302,2322,2342,2362,2383,2401,2421,2443,2463,2482,2502,2522,2542],"xSR":741.5,"ySR":469.95,"xT1":424.9,"yT1":0,"xT2":1058.1,"yT2":0,"toosoon":0,"cond_shown":"equaldotsize","ratio_trial":900,"smaller_num":"18","larger_num":"20","correct_side":1,"subjID":"MANUELFRANCISCOVEGARINCON1","gender":"2","age":"12","school":"SEXTO"},{"start_time":1551887751458,"click_time":1551887752842,"finger_time":1551887752361,"fix_duration":336.28194171345615,"trial":10,"RT":903,"MT":481,"sideResp":1,"stimulus":"img/750/randomdotsizeEA/L/14_Ratio_750_L_8_R_6.png","xmouse":[801,801,801,801,801,801,801,801,801,801,801,801,801,801,801,801,801,801,801,801,801,801,801,801,801,801,801,801,801,801,801,801,801,801,801,801,801,801,801,801,801,801,801,800,796,754,691,589,412,412,412,412,412,412,412,412,412,412,412,412,412,412,412,412,412,412,412,412,420,430],"ymouse":[531,531,531,531,531,531,531,531,531,531,531,531,531,531,531,531,531,531,531,531,531,531,531,531,531,531,531,531,531,531,531,531,531,531,531,531,531,531,531,531,531,531,531,531,528,455,368,242,39,39,39,39,39,39,39,39,39,39,39,39,39,39,39,39,39,39,39,3,12,24],"timestamp_mouse":[9,35,43,64,84,103,123,143,164,183,203,224,243,263,283,303,323,344,364,384,404,423,443,464,483,504,523,544,563,583,603,624,644,663,684,702,724,743,764,784,802,824,843,862,884,903,923,943,964,983,1003,1023,1043,1064,1083,1103,1124,1144,1164,1183,1203,1224,1243,1264,1283,1304,1323,1342,1364,1383],"xSR":741.5,"ySR":469.95,"xT1":424.9,"yT1":0,"xT2":1058.1,"yT2":0,"toosoon":0,"cond_shown":"randomdotsizeEA","ratio_trial":750,"smaller_num":"6","larger_num":"8","correct_side":1,"subjID":"MANUELFRANCISCOVEGARINCON1","gender":"2","age":"12","school":"SEXTO"},{"start_time":1551887755851,"click_time":1551887757122,"finger_time":1551887756542,"fix_duration":568.9002695004147,"trial":11,"RT":691,"MT":580,"sideResp":2,"stimulus":"img/250/equaldotanddens/R/11_Ratio_250_L_3_R_12.png","xmouse":[773,773,773,773,773,773,773,771,770,770,770,770,772,773,773,773,773,773,773,773,773,773,773,773,773,773,773,773,773,773,773,773,783,805,917,958,1002,1057,1130,1321,1380,1411,1416,1417,1415,1413,1413,1413,1410,1404,1340,1282,1236,1211,1197,1193,1192,1190,1190,1186,1182,1174,1163,1150],"ymouse":[517,517,517,517,517,517,517,519,522,523,525,527,531,533,533,533,533,533,533,533,533,533,533,533,533,533,533,533,533,533,533,533,533,524,460,440,410,371,320,186,134,95,72,56,47,44,44,44,42,39,23,14,8,3,3,4,5,6,6,13,17,23,29,35],"timestamp_mouse":[10,37,50,71,91,110,131,150,171,190,210,230,251,270,291,310,331,351,371,391,409,430,450,469,490,510,531,549,570,591,610,630,650,671,691,710,731,750,770,791,809,830,850,871,891,910,931,950,970,990,1010,1030,1051,1070,1091,1110,1130,1151,1170,1191,1210,1230,1250,1271],"xSR":741.5,"ySR":469.95,"xT1":424.9,"yT1":0,"xT2":1058.1,"yT2":0,"toosoon":0,"cond_shown":"equaldotanddens","ratio_trial":250,"smaller_num":"3","larger_num":"12","correct_side":2,"subjID":"MANUELFRANCISCOVEGARINCON1","gender":"2","age":"12","school":"SEXTO"},{"start_time":1551887758472,"click_time":1551887760742,"finger_time":1551887759401,"fix_duration":608.5431073003002,"trial":12,"RT":929,"MT":1341,"sideResp":2,"stimulus":"img/250/randomdotsizeEA/R/10_Ratio_250_L_4_R_16.png","xmouse":[790,790,790,790,790,790,790,790,790,790,790,790,790,790,790,790,790,790,790,790,790,790,790,790,790,790,790,790,790,790,790,790,790,790,790,790,790,790,790,790,790,790,790,789,776,762,738,714,682,653,639,627,612,606,594,592,591,589,588,587,587,587,587,587,587,587,589,594,596,620,635,654,678,704,743,760,780,804,868,883,892,897,903,912,953,973,992,1003,1008,1016,1024,1032,1038,1046,1049,1051,1051,1051,1051,1051,1051,1052,1052,1052,1052,1052,1052,1052,1052,1052,1052,1052,1054,1061],"ymouse":[534,534,534,534,534,534,534,534,534,534,534,534,534,534,534,534,534,534,534,534,534,534,534,534,534,534,534,534,534,534,534,534,534,534,534,534,534,534,534,534,534,534,534,535,521,498,454,395,318,247,214,185,152,126,85,70,63,56,51,48,48,48,48,48,48,48,48,49,49,51,51,51,51,54,60,60,63,66,76,80,80,80,80,80,80,80,80,80,79,75,74,73,73,71,70,69,69,69,69,69,69,69,69,69,69,69,69,69,69,69,69,69,69,69],"timestamp_mouse":[9,37,50,69,89,109,130,149,170,189,210,229,248,270,290,310,328,349,369,390,409,431,451,470,490,509,529,549,569,590,610,630,650,670,691,710,729,749,769,789,811,829,849,869,889,909,929,950,969,989,1010,1029,1050,1071,1090,1109,1130,1150,1169,1189,1209,1230,1249,1270,1289,1309,1330,1350,1370,1389,1409,1429,1450,1470,1490,1510,1530,1549,1570,1589,1609,1631,1650,1670,1689,1709,1729,1750,1770,1789,1809,1830,1850,1871,1889,1910,1929,1951,1970,1989,2009,2029,2050,2071,2090,2109,2129,2149,2169,2190,2210,2229,2250,2269],"xSR":741.5,"ySR":469.95,"xT1":424.9,"yT1":0,"xT2":1058.1,"yT2":0,"toosoon":0,"cond_shown":"randomdotsizeEA","ratio_trial":250,"smaller_num":"4","larger_num":"16","correct_side":2,"subjID":"MANUELFRANCISCOVEGARINCON1","gender":"2","age":"12","school":"SEXTO"},{"start_time":1551887762761,"click_time":1551887763961,"finger_time":1551887763561,"fix_duration":857.4524367723367,"trial":13,"RT":800,"MT":400,"sideResp":1,"stimulus":"img/750/equaldotanddens/L/10_Ratio_750_L_4_R_3.png","xmouse":[763,763,763,763,763,763,763,763,763,763,763,763,763,763,763,763,763,763,763,763,763,763,763,763,763,763,763,763,763,763,763,763,763,763,763,763,763,763,763,764,735,704,671,637,603,563,563,563,563,563,563,563,563,563,563,563,563,563,563,563,494],"ymouse":[489,489,489,489,489,489,489,489,489,489,489,489,489,489,489,489,489,489,489,489,489,489,489,489,489,489,489,489,489,489,489,489,489,489,489,489,489,489,489,489,413,340,262,186,118,11,11,11,11,11,11,11,11,11,11,11,11,11,11,11,2],"timestamp_mouse":[8,30,40,61,82,102,120,140,161,180,201,221,240,260,281,300,320,341,361,380,402,420,440,461,492,500,520,541,560,580,601,621,641,661,682,702,722,740,760,781,800,821,841,860,881,900,920,940,960,980,1001,1020,1040,1061,1081,1101,1121,1140,1160,1180,1200],"xSR":741.5,"ySR":469.95,"xT1":424.9,"yT1":0,"xT2":1058.1,"yT2":0,"toosoon":0,"cond_shown":"equaldotanddens","ratio_trial":750,"smaller_num":"3","larger_num":"4","correct_side":1,"subjID":"MANUELFRANCISCOVEGARINCON1","gender":"2","age":"12","school":"SEXTO"},{"start_time":1551887765778,"click_time":1551887766721,"finger_time":1551887766582,"fix_duration":654.0147546269445,"trial":14,"RT":804,"MT":139,"sideResp":2,"stimulus":"img/250/equaldotsize/R/6_Ratio_250_L_6_R_24.png","xmouse":[763,763,763,763,763,763,763,763,763,763,763,763,763,763,763,763,763,763,763,763,763,763,763,763,763,763,763,763,763,763,763,763,763,763,763,763,763,763,771,791,807,828,854,953,993,1032,1058,1068],"ymouse":[494,494,494,494,494,494,494,494,494,494,494,494,494,494,494,494,494,494,494,494,494,494,494,494,494,494,494,494,494,494,494,494,494,494,494,494,494,494,489,473,459,438,406,264,192,118,66,42],"timestamp_mouse":[8,36,44,64,83,104,123,143,163,184,203,223,243,263,283,303,324,343,364,384,403,423,443,463,483,504,524,545,563,583,603,623,644,663,684,703,724,743,763,783,804,823,843,865,883,903,923,943],"xSR":741.5,"ySR":469.95,"xT1":424.9,"yT1":0,"xT2":1058.1,"yT2":0,"toosoon":0,"cond_shown":"equaldotsize","ratio_trial":250,"smaller_num":"6","larger_num":"24","correct_side":2,"subjID":"MANUELFRANCISCOVEGARINCON1","gender":"2","age":"12","school":"SEXTO"},{"start_time":1551887767934,"click_time":1551887769242,"finger_time":1551887768761,"fix_duration":250,"trial":15,"RT":827,"MT":481,"sideResp":1,"stimulus":"img/750/equaldotsize/L/9_Ratio_750_L_4_R_3.png","xmouse":[780,780,780,780,780,780,780,780,780,780,780,780,780,780,780,780,780,780,780,780,780,780,780,780,780,780,780,780,780,780,780,780,780,780,780,780,780,780,780,780,770,712,639,569,529,517,525,536,546,550,551,551,551,551,551,551,545,537,529,520,510,509,509,508,507,502],"ymouse":[507,507,507,507,507,507,507,507,507,507,507,507,507,507,507,507,507,507,507,507,507,507,507,507,507,507,507,507,507,507,507,507,507,507,507,507,507,507,507,507,497,452,403,359,327,303,275,259,242,223,194,192,191,191,191,191,185,172,158,142,127,125,125,124,118,85],"timestamp_mouse":[8,39,47,67,87,108,128,147,167,189,208,227,247,268,287,307,327,348,368,388,407,428,448,468,487,507,529,549,568,589,607,628,649,667,687,709,727,747,769,787,807,827,848,867,888,907,927,947,967,987,1009,1027,1048,1068,1087,1107,1127,1147,1167,1187,1208,1227,1247,1267,1287,1308],"xSR":741.5,"ySR":469.95,"xT1":424.9,"yT1":0,"xT2":1058.1,"yT2":0,"toosoon":0,"cond_shown":"equaldotsize","ratio_trial":750,"smaller_num":"3","larger_num":"4","correct_side":1,"subjID":"MANUELFRANCISCOVEGARINCON1","gender":"2","age":"12","school":"SEXTO"},{"start_time":1551887770385,"click_time":1551887772202,"finger_time":1551887771242,"fix_duration":321.3637339132389,"trial":16,"RT":857,"MT":960,"sideResp":1,"stimulus":"img/500/randomdotsizeEA/L/7_Ratio_500_L_10_R_5.png","xmouse":[794,794,794,794,794,794,794,794,794,794,794,794,794,794,794,794,794,794,794,794,794,794,794,794,794,794,794,794,794,794,794,794,794,794,794,794,794,794,794,795,799,811,884,929,963,978,988,995,997,998,998,998,998,986,978,968,957,926,903,870,833,797,761,747,744,740,732,718,687,671,655,640,622,616,614,611,608,606,601,600,597,592,558,549,547,546,546,546,538,530,520],"ymouse":[517,517,517,517,517,517,517,517,517,517,517,517,517,517,517,517,517,517,517,517,517,517,517,517,517,517,517,517,517,517,517,517,517,517,517,517,517,517,517,516,510,498,413,350,303,276,248,221,197,196,196,196,196,205,206,209,212,222,226,230,237,242,244,243,241,238,227,211,169,149,126,104,73,59,57,55,52,51,49,49,48,47,36,33,33,33,33,33,33,33,35],"timestamp_mouse":[17,40,56,77,96,116,137,157,178,196,216,236,257,277,296,318,336,356,377,396,417,436,457,477,497,518,536,556,576,596,616,636,657,676,696,717,736,756,776,796,817,837,857,876,896,916,936,957,976,997,1017,1036,1056,1077,1096,1116,1136,1157,1176,1196,1216,1236,1257,1276,1296,1317,1337,1357,1376,1397,1417,1437,1456,1477,1496,1517,1538,1557,1577,1596,1616,1636,1657,1676,1697,1716,1737,1757,1776,1796,1817],"xSR":741.5,"ySR":469.95,"xT1":424.9,"yT1":0,"xT2":1058.1,"yT2":0,"toosoon":0,"cond_shown":"randomdotsizeEA","ratio_trial":500,"smaller_num":"5","larger_num":"10","correct_side":1,"subjID":"MANUELFRANCISCOVEGARINCON1","gender":"2","age":"12","school":"SEXTO"},{"start_time":1551887773834,"click_time":1551887775141,"finger_time":1551887774661,"fix_duration":552.6175710637134,"trial":17,"RT":827,"MT":480,"sideResp":1,"stimulus":"img/500/equaldotanddens/L/8_Ratio_500_L_8_R_4.png","xmouse":[769,769,769,772,773,774,775,775,776,776,776,776,777,777,777,777,778,778,778,778,778,778,778,778,778,778,778,778,778,778,778,778,778,778,778,778,778,778,777,764,743,676,652,637,626,617,605,599,592,584,570,559,558,558,558,555,543,534,526,521,520,516,513,512,512,512],"ymouse":[520,520,520,520,520,520,520,520,520,520,520,520,520,520,520,520,520,520,520,520,520,520,520,520,520,520,519,519,519,519,519,519,519,519,519,519,519,517,516,505,487,431,404,385,369,355,332,323,310,297,273,242,233,227,216,201,158,141,128,121,119,115,108,105,103,99],"timestamp_mouse":[9,39,48,67,88,109,127,147,168,188,209,227,248,268,288,309,327,348,367,388,408,427,448,469,488,508,529,547,568,587,608,627,649,667,688,708,727,747,768,787,807,827,847,869,888,907,927,949,968,988,1007,1027,1047,1067,1087,1107,1127,1149,1167,1188,1208,1228,1247,1268,1287,1307],"xSR":741.5,"ySR":469.95,"xT1":424.9,"yT1":0,"xT2":1058.1,"yT2":0,"toosoon":0,"cond_shown":"equaldotanddens","ratio_trial":500,"smaller_num":"4","larger_num":"8","correct_side":1,"subjID":"MANUELFRANCISCOVEGARINCON1","gender":"2","age":"12","school":"SEXTO"},{"start_time":1551887778545,"click_time":1551887779461,"finger_time":1551887779361,"fix_duration":802.5249527488368,"trial":18,"RT":816,"MT":100,"sideResp":2,"stimulus":"img/900/randomdotsizeEA/L/1_Ratio_900_L_10_R_9.png","xmouse":[785,785,785,785,785,785,785,785,785,785,785,785,785,785,785,785,785,785,785,785,785,785,785,785,785,785,785,785,785,785,785,785,785,785,785,785,785,785,785,814,860,920,976,1021,1055,1092],"ymouse":[525,525,525,525,525,525,525,525,525,525,525,525,525,525,525,525,525,525,525,525,525,525,525,525,525,525,525,525,525,525,525,525,525,525,525,525,525,525,525,506,474,431,388,341,278,86],"timestamp_mouse":[34,36,56,76,98,118,138,156,177,198,216,238,256,276,298,317,337,356,378,396,416,436,456,477,497,516,537,556,576,597,618,637,656,677,696,717,736,757,776,797,816,836,857,877,897,916],"xSR":741.5,"ySR":469.95,"xT1":424.9,"yT1":0,"xT2":1058.1,"yT2":0,"toosoon":0,"cond_shown":"randomdotsizeEA","ratio_trial":900,"smaller_num":"9","larger_num":"10","correct_side":1,"subjID":"MANUELFRANCISCOVEGARINCON1","gender":"2","age":"12","school":"SEXTO"},{"start_time":1551887780743,"click_time":1551887782001,"finger_time":1551887781541,"fix_duration":358.2650628059024,"trial":19,"RT":798,"MT":460,"sideResp":1,"stimulus":"img/900/equaldotsize/L/4_Ratio_900_L_20_R_18.png","xmouse":[791,791,790,790,790,790,790,790,790,790,790,790,790,790,790,790,790,790,790,790,790,790,790,790,790,790,790,790,790,790,790,790,790,790,790,790,790,790,783,773,741,690,668,661,657,656,656,656,656,656,652,644,639,634,631,629,618,605,591,585,579,559,543,523],"ymouse":[546,546,544,544,544,544,544,544,544,544,544,544,544,544,544,544,544,544,544,544,544,544,544,544,544,544,544,544,544,544,544,544,544,544,544,544,544,544,528,506,423,221,140,88,65,59,59,59,58,58,57,55,53,52,52,52,52,49,45,43,42,40,40,38],"timestamp_mouse":[1,31,39,58,78,98,118,139,158,178,198,218,239,260,279,299,318,339,359,379,400,418,440,458,479,498,519,538,558,578,598,618,638,658,678,699,719,740,760,779,798,818,838,859,879,898,918,938,960,978,998,1018,1039,1058,1078,1098,1118,1139,1158,1179,1198,1218,1238,1258],"xSR":741.5,"ySR":469.95,"xT1":424.9,"yT1":0,"xT2":1058.1,"yT2":0,"toosoon":0,"cond_shown":"equaldotsize","ratio_trial":900,"smaller_num":"18","larger_num":"20","correct_side":1,"subjID":"MANUELFRANCISCOVEGARINCON1","gender":"2","age":"12","school":"SEXTO"},{"start_time":1551887784634,"click_time":1551887786702,"finger_time":1551887785582,"fix_duration":250,"trial":20,"RT":948,"MT":1120,"sideResp":1,"stimulus":"img/500/randomdotsizeEA/L/8_Ratio_500_L_8_R_4.png","xmouse":[774,774,774,774,774,774,774,774,774,774,774,774,774,774,774,774,774,774,774,774,774,774,774,774,774,774,774,774,774,774,774,774,774,774,774,774,774,774,774,774,775,784,786,787,789,802,809,818,832,848,851,859,861,861,861,861,861,861,861,859,856,826,797,764,717,682,679,674,666,654,645,649,650,641,598,598,598,598,598,598,598,598,598,598,598,195,193,201,223,272,299,344,363,380,384,385,386,386,386,387,390,412,422,428],"ymouse":[516,516,516,516,516,516,516,516,516,514,514,514,514,514,514,514,514,514,514,514,514,514,514,514,514,514,514,514,514,514,514,514,514,514,514,514,514,514,514,514,512,505,503,502,498,482,475,467,460,453,451,447,446,446,446,446,446,446,446,446,446,446,444,438,424,401,392,376,348,297,152,118,98,79,28,28,28,28,28,28,28,28,28,28,28,8,25,39,57,89,101,116,122,124,124,124,124,122,120,117,110,96,92,91],"timestamp_mouse":[9,42,47,67,87,107,127,149,167,187,209,228,247,267,288,307,327,347,368,387,407,427,448,467,487,508,528,547,568,587,607,628,648,667,687,709,727,748,767,788,808,827,848,868,887,908,927,948,969,987,1008,1027,1047,1068,1088,1109,1128,1147,1167,1188,1207,1227,1247,1267,1288,1308,1328,1348,1368,1387,1408,1427,1448,1467,1488,1508,1528,1547,1567,1588,1608,1627,1647,1667,1687,1708,1727,1747,1767,1787,1807,1828,1847,1868,1888,1909,1927,1949,1967,1987,2008,2028,2047,2068],"xSR":741.5,"ySR":469.95,"xT1":424.9,"yT1":0,"xT2":1058.1,"yT2":0,"toosoon":0,"cond_shown":"randomdotsizeEA","ratio_trial":500,"smaller_num":"4","larger_num":"8","correct_side":1,"subjID":"MANUELFRANCISCOVEGARINCON1","gender":"2","age":"12","school":"SEXTO"},{"start_time":1551887788310,"click_time":1551887789361,"finger_time":1551887789161,"fix_duration":388.2220998249902,"trial":21,"RT":851,"MT":200,"sideResp":1,"stimulus":"img/900/randomdotsizeEA/R/15_Ratio_900_L_9_R_10.png","xmouse":[787,787,787,787,787,785,785,785,785,785,785,785,785,785,785,785,785,785,785,785,785,785,785,785,785,785,785,785,785,785,785,785,785,785,785,785,785,785,785,785,781,772,743,724,702,658,641,574,566,564,564,511,464],"ymouse":[523,523,523,523,523,523,523,523,523,523,523,523,523,523,523,523,523,523,523,523,523,523,523,523,523,523,523,523,523,523,523,523,523,523,523,522,520,511,507,501,490,479,457,448,439,427,422,392,378,351,304,126,21],"timestamp_mouse":[11,31,51,71,91,111,132,153,171,192,211,232,253,272,292,312,332,351,371,392,411,432,451,472,493,512,532,552,572,592,612,632,652,672,691,711,732,751,771,791,811,832,851,872,892,911,931,951,971,991,1011,1033,1051],"xSR":741.5,"ySR":469.95,"xT1":424.9,"yT1":0,"xT2":1058.1,"yT2":0,"toosoon":0,"cond_shown":"randomdotsizeEA","ratio_trial":900,"smaller_num":"9","larger_num":"10","correct_side":2,"subjID":"MANUELFRANCISCOVEGARINCON1","gender":"2","age":"12","school":"SEXTO"},{"start_time":1551887791021,"click_time":1551887792181,"finger_time":1551887791702,"fix_duration":558.307894120555,"trial":22,"RT":681,"MT":479,"sideResp":1,"stimulus":"img/250/randomdotsizeEA/L/15_Ratio_250_L_12_R_3.png","xmouse":[789,789,789,790,790,790,790,790,790,790,790,790,790,790,790,790,790,790,790,790,790,790,790,790,790,790,790,790,790,790,791,790,772,758,739,723,707,674,654,632,607,592,584,582,576,571,562,550,549,548,545,536,522,511,503,501,501,500,499],"ymouse":[531,531,531,531,531,531,531,531,531,531,531,531,531,531,531,531,531,531,531,531,531,531,531,531,531,531,531,531,531,531,531,530,522,514,499,483,461,400,357,308,270,249,235,229,221,212,199,181,177,175,172,158,137,122,112,110,110,100,93],"timestamp_mouse":[8,21,40,61,81,100,121,140,160,182,201,220,240,260,280,301,321,341,361,381,400,420,440,460,480,500,520,541,561,580,601,621,640,660,681,701,720,740,762,780,800,821,840,860,880,901,920,940,961,981,1000,1020,1040,1060,1080,1101,1120,1140,1160],"xSR":741.5,"ySR":469.95,"xT1":424.9,"yT1":0,"xT2":1058.1,"yT2":0,"toosoon":0,"cond_shown":"randomdotsizeEA","ratio_trial":250,"smaller_num":"3","larger_num":"12","correct_side":1,"subjID":"MANUELFRANCISCOVEGARINCON1","gender":"2","age":"12","school":"SEXTO"},{"start_time":1551887793294,"click_time":1551887795062,"finger_time":1551887794561,"fix_duration":250,"trial":23,"RT":1267,"MT":501,"sideResp":2,"stimulus":"img/750/equaldotanddens/L/9_Ratio_750_L_4_R_3.png","xmouse":[769,769,769,769,769,769,769,769,769,769,769,769,769,769,769,769,769,769,769,769,769,769,769,769,769,769,769,769,769,769,769,769,769,769,769,769,769,769,769,769,769,769,769,769,769,768,767,765,763,763,763,763,763,763,763,763,763,763,762,763,765,768,773,792,807,827,854,888,924,941,962,984,994,1018,1031,1046,1062,1068,1068,1068,1068,1068,1068,1068,1068,1069,1074,1083,1090],"ymouse":[530,530,530,530,530,530,530,530,530,530,530,530,530,530,530,530,530,530,530,530,530,530,530,530,530,530,530,530,530,530,530,530,530,530,530,530,530,530,530,530,530,530,530,530,530,528,528,525,524,524,524,524,524,524,524,524,524,524,517,514,508,501,493,462,445,428,410,388,351,325,279,239,223,187,167,150,135,129,129,129,129,129,129,129,129,128,123,109,85],"timestamp_mouse":[11,30,47,68,87,107,127,148,168,188,208,228,247,268,287,308,327,347,368,387,408,428,448,469,488,507,528,548,569,588,607,627,648,667,687,707,729,748,768,787,807,828,847,868,887,907,928,947,969,987,1007,1029,1047,1067,1087,1108,1129,1147,1167,1187,1208,1228,1247,1267,1287,1307,1327,1347,1367,1387,1407,1427,1448,1467,1487,1508,1528,1547,1567,1588,1607,1627,1648,1667,1688,1707,1727,1747,1768],"xSR":741.5,"ySR":469.95,"xT1":424.9,"yT1":0,"xT2":1058.1,"yT2":0,"toosoon":0,"cond_shown":"equaldotanddens","ratio_trial":750,"smaller_num":"3","larger_num":"4","correct_side":1,"subjID":"MANUELFRANCISCOVEGARINCON1","gender":"2","age":"12","school":"SEXTO"},{"start_time":1551887796651,"click_time":1551887797862,"finger_time":1551887797541,"fix_duration":589.7299946256645,"trial":24,"RT":890,"MT":321,"sideResp":1,"stimulus":"img/750/equaldotsize/L/8_Ratio_750_L_4_R_3.png","xmouse":[806,818,818,829,829,829,829,829,829,829,829,829,829,829,829,829,829,829,829,829,829,829,829,829,829,829,829,829,829,829,829,829,829,829,829,829,829,829,827,824,809,798,787,771,737,623,554,510,500,498,497,495,492,488,483,481,484,489,491,492,492],"ymouse":[532,532,532,532,532,532,532,532,532,532,532,532,532,532,532,532,532,532,532,532,532,532,532,532,532,532,532,532,532,532,532,532,532,532,532,532,532,532,532,532,529,524,513,490,452,327,259,210,191,183,174,168,161,152,143,136,130,125,120,109,76],"timestamp_mouse":[17,42,50,70,91,111,130,150,172,192,211,231,250,270,291,311,330,350,371,391,411,430,452,471,491,511,531,550,570,592,610,630,650,670,690,710,731,750,770,791,810,830,851,870,890,910,932,951,970,990,1011,1030,1050,1070,1090,1110,1130,1150,1170,1191,1211],"xSR":741.5,"ySR":469.95,"xT1":424.9,"yT1":0,"xT2":1058.1,"yT2":0,"toosoon":0,"cond_shown":"equaldotsize","ratio_trial":750,"smaller_num":"3","larger_num":"4","correct_side":1,"subjID":"MANUELFRANCISCOVEGARINCON1","gender":"2","age":"12","school":"SEXTO"},{"start_time":1551887799175,"click_time":1551887800441,"finger_time":1551887799902,"fix_duration":250,"trial":25,"RT":727,"MT":539,"sideResp":1,"stimulus":"img/250/equaldotsize/L/15_Ratio_250_L_12_R_3.png","xmouse":[775,775,775,775,775,775,775,775,775,775,777,778,778,778,778,778,780,780,781,781,782,782,782,782,782,782,782,782,782,782,782,782,782,782,772,745,691,627,578,539,535,530,528,522,499,494,492,492,492,497,499,499,500,502,504,505,505,506,506,505,505,503,502,498],"ymouse":[524,524,524,524,524,524,524,524,524,524,524,524,524,524,524,524,524,524,525,525,525,525,525,525,525,525,525,525,525,525,525,525,525,525,516,488,437,386,340,296,287,278,271,261,228,216,209,202,199,191,185,176,168,156,147,145,141,139,133,121,117,110,105,95],"timestamp_mouse":[8,31,46,66,87,106,126,146,166,187,206,227,246,268,286,306,328,346,366,386,406,426,446,466,488,506,527,547,566,586,607,627,646,667,687,706,727,747,766,786,807,827,846,866,886,907,926,946,966,986,1007,1027,1048,1067,1086,1106,1127,1147,1167,1186,1207,1228,1247,1266],"xSR":741.5,"ySR":469.95,"xT1":424.9,"yT1":0,"xT2":1058.1,"yT2":0,"toosoon":0,"cond_shown":"equaldotsize","ratio_trial":250,"smaller_num":"3","larger_num":"12","correct_side":1,"subjID":"MANUELFRANCISCOVEGARINCON1","gender":"2","age":"12","school":"SEXTO"},{"start_time":1551887801293,"click_time":1551887802761,"finger_time":1551887802261,"fix_duration":250,"trial":26,"RT":968,"MT":500,"sideResp":1,"stimulus":"img/900/randomdotsizeEA/R/9_Ratio_900_L_18_R_20.png","xmouse":[793,793,793,793,793,793,793,793,793,793,793,793,793,793,793,793,793,793,793,793,793,793,793,793,793,793,793,793,793,793,793,792,786,773,770,769,769,769,769,769,769,769,769,769,769,767,764,754,715,681,637,591,559,537,535,531,527,502,492,488,488,488,488,488,488,487,487,487,487,487,487,487,487,486],"ymouse":[548,548,548,548,548,548,548,548,548,548,548,548,548,548,548,548,548,548,548,548,548,548,548,548,548,548,548,548,548,548,547,544,537,523,518,516,516,516,516,516,516,516,516,516,513,509,506,493,458,431,397,358,323,257,217,182,156,121,114,111,111,111,111,111,111,111,110,110,110,109,109,108,104,97],"timestamp_mouse":[8,34,48,69,88,109,130,149,168,188,208,228,249,270,288,309,328,348,369,389,408,429,449,469,488,508,530,548,569,589,610,630,648,668,688,710,729,749,768,788,809,830,848,868,888,908,928,949,968,988,1009,1030,1048,1068,1088,1108,1128,1149,1168,1188,1209,1229,1249,1269,1289,1308,1328,1350,1368,1388,1408,1428,1449,1468],"xSR":741.5,"ySR":469.95,"xT1":424.9,"yT1":0,"xT2":1058.1,"yT2":0,"toosoon":0,"cond_shown":"randomdotsizeEA","ratio_trial":900,"smaller_num":"18","larger_num":"20","correct_side":2,"subjID":"MANUELFRANCISCOVEGARINCON1","gender":"2","age":"12","school":"SEXTO"},{"start_time":1551887804272,"click_time":1551887804722,"finger_time":1551887804622,"fix_duration":609.1522727095297,"trial":27,"RT":350,"MT":100,"sideResp":2,"stimulus":"img/900/equaldotsize/L/2_Ratio_900_L_20_R_18.png","xmouse":[800,800,800,800,800,800,800,800,800,800,800,800,800,801,810,817,831,885,937,1042,1086,1113,1139],"ymouse":[531,531,531,531,531,531,531,531,531,531,531,531,532,532,526,519,506,469,420,285,217,158,73],"timestamp_mouse":[11,35,51,69,90,109,129,150,170,190,209,229,249,269,289,310,329,350,369,389,409,430,449],"xSR":741.5,"ySR":469.95,"xT1":424.9,"yT1":0,"xT2":1058.1,"yT2":0,"toosoon":0,"cond_shown":"equaldotsize","ratio_trial":900,"smaller_num":"18","larger_num":"20","correct_side":1,"subjID":"MANUELFRANCISCOVEGARINCON1","gender":"2","age":"12","school":"SEXTO"},{"start_time":1551887806269,"click_time":1551887807281,"finger_time":1551887807122,"fix_duration":305.6779972157141,"trial":28,"RT":853,"MT":159,"sideResp":1,"stimulus":"img/250/equaldotsize/L/14_Ratio_250_L_12_R_3.png","xmouse":[775,775,775,775,775,775,775,775,775,775,775,775,778,780,784,784,785,785,785,785,785,785,785,785,786,783,781,780,780,780,780,780,780,780,780,780,780,780,780,779,772,758,732,697,647,627,607,586,541,529,523],"ymouse":[510,510,510,510,510,510,510,510,510,510,510,510,510,510,510,510,510,510,510,510,510,510,510,510,510,515,517,517,517,517,517,517,517,517,517,517,517,517,517,517,508,489,446,385,300,267,231,196,120,98,85],"timestamp_mouse":[16,40,53,73,94,113,133,152,172,192,213,232,252,272,292,313,333,352,372,393,414,433,452,472,492,513,533,553,572,592,614,633,652,672,692,712,732,753,772,793,812,832,853,873,892,912,933,952,973,992,1012],"xSR":741.5,"ySR":469.95,"xT1":424.9,"yT1":0,"xT2":1058.1,"yT2":0,"toosoon":0,"cond_shown":"equaldotsize","ratio_trial":250,"smaller_num":"3","larger_num":"12","correct_side":1,"subjID":"MANUELFRANCISCOVEGARINCON1","gender":"2","age":"12","school":"SEXTO"},{"start_time":1551887808513,"click_time":1551887810462,"finger_time":1551887810043,"fix_duration":390.07867591836987,"trial":29,"RT":1530,"MT":419,"sideResp":1,"stimulus":"img/500/equaldotsize/L/13_Ratio_500_L_12_R_6.png","xmouse":[764,764,764,764,764,764,764,764,764,764,764,764,764,764,764,764,764,764,764,764,764,764,764,764,764,764,764,764,761,756,751,748,742,742,742,742,742,742,742,742,742,742,742,742,742,742,742,742,742,742,742,742,742,742,742,742,742,742,742,742,742,742,744,749,752,753,755,755,755,755,755,755,755,755,755,747,735,692,662,629,592,564,538,538,538,541,544,545,545,542,541,540,539,538,536,536,531,508],"ymouse":[522,522,522,522,522,522,522,522,522,523,523,523,523,523,523,523,523,523,523,523,523,523,523,523,523,523,523,523,524,522,520,518,515,514,514,514,514,514,514,514,514,514,514,514,514,514,514,514,514,514,514,514,514,514,514,514,514,514,514,514,514,514,514,513,513,513,512,512,512,512,512,512,512,512,509,495,476,406,353,295,228,164,87,83,80,74,65,44,33,27,23,22,21,21,21,21,21,30],"timestamp_mouse":[8,41,49,68,88,108,128,148,168,188,208,228,248,268,289,308,328,350,368,388,408,429,448,470,488,509,528,548,568,588,608,628,648,670,688,708,729,748,768,788,808,828,850,869,888,908,929,949,970,988,1009,1029,1048,1068,1089,1109,1130,1150,1169,1189,1208,1228,1248,1269,1288,1308,1329,1348,1368,1389,1409,1429,1449,1469,1488,1508,1530,1548,1568,1588,1609,1628,1648,1669,1689,1708,1728,1748,1768,1788,1809,1829,1849,1869,1889,1908,1928,1949],"xSR":741.5,"ySR":469.95,"xT1":424.9,"yT1":0,"xT2":1058.1,"yT2":0,"toosoon":0,"cond_shown":"equaldotsize","ratio_trial":500,"smaller_num":"6","larger_num":"12","correct_side":1,"subjID":"MANUELFRANCISCOVEGARINCON1","gender":"2","age":"12","school":"SEXTO"},{"start_time":1551887811655,"click_time":1551887813081,"finger_time":1551887812402,"fix_duration":250,"trial":30,"RT":747,"MT":679,"sideResp":2,"stimulus":"img/900/randomdotsizeEA/R/7_Ratio_900_L_9_R_10.png","xmouse":[759,759,759,759,759,759,759,759,759,759,759,759,759,759,759,759,759,759,759,759,759,759,759,759,759,759,759,759,759,759,759,759,759,759,759,755,747,739,729,707,668,646,625,608,594,585,585,585,585,585,585,585,585,585,587,598,615,634,663,733,824,846,861,873,892,987,1031,1056,1071,1076,1084,1089],"ymouse":[523,523,523,523,523,523,523,523,523,523,523,523,523,523,523,523,523,523,523,523,523,523,523,523,523,523,523,523,523,523,523,523,523,523,523,519,509,496,480,446,378,338,304,277,255,239,239,239,239,239,239,239,239,239,238,239,243,248,257,275,288,288,288,288,277,209,178,159,144,133,108,90],"timestamp_mouse":[8,26,46,66,86,108,127,147,167,188,207,226,246,266,286,306,326,348,367,386,406,427,446,466,486,506,527,546,567,586,606,628,647,666,686,706,726,747,767,787,806,826,847,867,886,906,927,946,966,986,1006,1026,1048,1067,1087,1106,1126,1147,1167,1187,1206,1226,1248,1267,1286,1306,1327,1346,1366,1387,1406,1426],"xSR":741.5,"ySR":469.95,"xT1":424.9,"yT1":0,"xT2":1058.1,"yT2":0,"toosoon":0,"cond_shown":"randomdotsizeEA","ratio_trial":900,"smaller_num":"9","larger_num":"10","correct_side":2,"subjID":"MANUELFRANCISCOVEGARINCON1","gender":"2","age":"12","school":"SEXTO"},{"start_time":1551887815038,"click_time":1551887816181,"finger_time":1551887816041,"fix_duration":1074.4532176396992,"trial":31,"RT":1003,"MT":140,"sideResp":1,"stimulus":"img/900/equaldotanddens/L/4_Ratio_900_L_20_R_18.png","xmouse":[774,774,774,774,774,774,774,774,774,774,774,774,774,774,774,774,774,774,774,774,774,774,774,774,774,774,774,774,774,774,774,774,774,774,774,774,774,774,774,774,774,774,774,774,774,774,774,774,769,763,741,686,655,628,601,569,517,505],"ymouse":[521,521,521,521,521,521,521,521,521,521,521,521,521,521,521,521,521,521,521,521,521,521,521,521,521,521,521,521,521,521,521,521,521,521,521,521,521,521,521,521,521,521,521,521,521,521,521,521,509,502,479,432,403,366,309,231,109,89],"timestamp_mouse":[9,36,44,63,83,103,124,144,163,183,203,223,244,264,285,303,323,343,364,383,404,423,443,463,483,504,523,543,564,584,604,623,643,665,683,704,723,744,763,784,805,824,845,865,884,904,924,943,963,983,1003,1023,1044,1063,1085,1104,1123,1143],"xSR":741.5,"ySR":469.95,"xT1":424.9,"yT1":0,"xT2":1058.1,"yT2":0,"toosoon":0,"cond_shown":"equaldotanddens","ratio_trial":900,"smaller_num":"18","larger_num":"20","correct_side":1,"subjID":"MANUELFRANCISCOVEGARINCON1","gender":"2","age":"12","school":"SEXTO"},{"start_time":1551887818885,"click_time":1551887820042,"finger_time":1551887819602,"fix_duration":1343.0797310207845,"trial":32,"RT":717,"MT":440,"sideResp":1,"stimulus":"img/750/equaldotanddens/L/14_Ratio_750_L_8_R_6.png","xmouse":[787,787,787,787,787,787,787,787,787,787,787,787,787,787,787,787,787,787,787,787,787,787,787,787,787,787,787,787,787,787,787,787,787,781,772,761,749,718,689,677,669,660,656,651,650,650,640,629,618,618,618,618,618,618,618,554,536,520],"ymouse":[485,485,485,485,485,485,485,485,485,485,485,485,485,485,485,485,485,485,485,485,485,485,485,485,485,485,485,485,485,485,485,485,485,481,472,460,439,367,251,205,175,150,135,111,102,89,62,36,3,3,3,3,3,3,3,1,6,10],"timestamp_mouse":[16,40,55,75,97,116,137,157,175,195,216,235,255,277,296,316,335,357,377,395,416,436,455,476,497,515,535,557,577,596,617,635,657,676,695,717,735,756,776,796,816,837,856,876,897,917,936,956,975,997,1016,1037,1056,1076,1095,1115,1135,1156],"xSR":741.5,"ySR":469.95,"xT1":424.9,"yT1":0,"xT2":1058.1,"yT2":0,"toosoon":0,"cond_shown":"equaldotanddens","ratio_trial":750,"smaller_num":"6","larger_num":"8","correct_side":1,"subjID":"MANUELFRANCISCOVEGARINCON1","gender":"2","age":"12","school":"SEXTO"},{"start_time":1551887821520,"click_time":1551887823001,"finger_time":1551887822501,"fix_duration":317.03252658803507,"trial":33,"RT":981,"MT":500,"sideResp":2,"stimulus":"img/750/randomdotsizeEA/R/15_Ratio_750_L_9_R_12.png","xmouse":[779,779,779,779,779,779,779,779,779,779,779,779,779,779,779,779,779,779,779,779,779,779,779,779,779,779,779,779,779,779,779,779,779,779,779,779,779,779,779,779,779,779,779,779,784,795,806,828,839,857,887,976,1028,1064,1090,1098,1102,1108,1111,1117,1120,1121,1123,1123,1123,1123,1123,1123,1123,1123,1123,1126,1135,1139,1142],"ymouse":[524,524,524,524,524,524,524,524,524,524,524,524,524,524,524,524,524,524,524,524,524,524,524,524,524,524,524,524,524,524,524,524,524,524,524,524,524,524,524,524,524,524,524,524,524,522,520,510,491,444,379,267,226,200,186,182,180,178,175,171,169,168,166,166,166,166,166,166,166,166,165,155,121,104,86],"timestamp_mouse":[8,36,42,60,81,102,120,140,161,181,201,221,240,261,280,300,320,341,360,380,402,420,442,461,480,501,520,542,560,580,601,620,642,661,680,702,720,742,761,780,801,820,841,861,881,902,921,940,961,981,1002,1022,1040,1060,1081,1101,1120,1140,1161,1180,1201,1221,1241,1261,1281,1301,1321,1341,1360,1380,1401,1421,1440,1461,1481],"xSR":741.5,"ySR":469.95,"xT1":424.9,"yT1":0,"xT2":1058.1,"yT2":0,"toosoon":0,"cond_shown":"randomdotsizeEA","ratio_trial":750,"smaller_num":"9","larger_num":"12","correct_side":2,"subjID":"MANUELFRANCISCOVEGARINCON1","gender":"2","age":"12","school":"SEXTO"},{"start_time":1551887825101,"click_time":1551887826541,"finger_time":1551887825961,"fix_duration":1058.3627350961297,"trial":34,"RT":860,"MT":580,"sideResp":2,"stimulus":"img/750/equaldotsize/R/7_Ratio_750_L_3_R_4.png","xmouse":[784,784,784,784,784,784,784,784,784,784,784,784,784,784,784,784,784,784,784,784,784,784,784,784,784,784,784,784,785,786,786,786,786,786,786,786,786,786,786,786,792,803,817,841,852,859,864,873,895,905,912,917,923,948,959,968,979,994,1019,1041,1053,1058,1058,1058,1058,1058,1058,1058,1058,1058,1058,1058,1063],"ymouse":[504,504,504,504,504,504,504,504,504,504,504,504,504,504,504,504,504,504,504,504,504,504,504,504,504,504,504,504,504,504,504,504,504,504,504,504,504,504,504,504,502,497,490,469,454,439,429,419,399,381,363,355,345,319,306,290,269,235,179,142,121,108,103,100,100,100,100,100,100,100,100,100,94],"timestamp_mouse":[1,19,41,59,80,99,119,140,159,181,200,219,240,261,279,301,320,339,360,379,401,420,439,461,479,500,519,539,560,581,600,619,640,659,679,700,719,740,760,780,799,820,841,860,880,900,920,940,959,980,1000,1019,1039,1059,1080,1100,1120,1139,1160,1179,1201,1220,1241,1260,1281,1299,1320,1339,1360,1379,1400,1419,1440],"xSR":741.5,"ySR":469.95,"xT1":424.9,"yT1":0,"xT2":1058.1,"yT2":0,"toosoon":0,"cond_shown":"equaldotsize","ratio_trial":750,"smaller_num":"3","larger_num":"4","correct_side":2,"subjID":"MANUELFRANCISCOVEGARINCON1","gender":"2","age":"12","school":"SEXTO"},{"start_time":1551887830489,"click_time":1551887831661,"finger_time":1551887831342,"fix_duration":1306.896568559222,"trial":35,"RT":853,"MT":319,"sideResp":1,"stimulus":"img/500/equaldotsize/L/8_Ratio_500_L_8_R_4.png","xmouse":[759,759,759,759,759,759,759,759,759,759,759,759,759,759,759,759,759,759,759,759,759,759,759,759,759,759,759,759,759,759,759,759,759,759,759,759,759,759,759,759,756,750,728,712,681,643,634,619,613,612,611,599,572,529,527,527,528,525,489],"ymouse":[518,518,518,518,518,518,518,517,517,517,517,517,517,517,517,517,517,517,517,517,517,517,517,517,517,517,517,517,517,517,517,517,517,517,517,517,517,517,517,517,508,495,464,444,417,386,377,355,336,323,257,206,158,88,74,64,57,45,21],"timestamp_mouse":[18,31,51,73,91,112,133,152,171,193,212,232,252,271,293,313,332,351,371,392,411,431,451,472,492,513,532,551,571,593,612,632,651,672,692,711,732,751,772,792,811,833,853,871,892,912,933,952,971,991,1011,1031,1051,1071,1092,1111,1131,1151,1171],"xSR":741.5,"ySR":469.95,"xT1":424.9,"yT1":0,"xT2":1058.1,"yT2":0,"toosoon":0,"cond_shown":"equaldotsize","ratio_trial":500,"smaller_num":"4","larger_num":"8","correct_side":1,"subjID":"MANUELFRANCISCOVEGARINCON1","gender":"2","age":"12","school":"SEXTO"},{"start_time":1551887832933,"click_time":1551887834121,"finger_time":1551887833560,"fix_duration":250,"trial":36,"RT":627,"MT":561,"sideResp":1,"stimulus":"img/250/equaldotsize/L/2_Ratio_250_L_16_R_4.png","xmouse":[773,773,773,773,773,773,773,773,773,773,773,773,773,773,773,773,773,773,773,773,773,773,773,773,773,773,773,773,771,765,755,735,727,719,709,700,684,676,665,650,624,611,603,599,598,598,590,580,566,550,535,506,493,484,480,477,475,474,473,470],"ymouse":[488,488,488,488,488,488,488,488,488,488,488,488,488,488,488,488,488,488,488,488,488,488,488,488,488,488,488,488,488,485,475,453,444,436,424,411,379,361,345,325,284,250,229,211,196,172,152,145,140,138,136,131,127,123,121,119,115,109,103,95],"timestamp_mouse":[8,43,47,67,88,107,127,147,168,187,209,227,249,269,287,307,329,347,368,389,407,427,449,469,489,509,527,548,568,588,609,627,649,668,687,707,728,747,768,787,809,828,848,867,888,907,928,947,968,988,1008,1027,1048,1068,1089,1107,1128,1147,1168,1188],"xSR":741.5,"ySR":469.95,"xT1":424.9,"yT1":0,"xT2":1058.1,"yT2":0,"toosoon":0,"cond_shown":"equaldotsize","ratio_trial":250,"smaller_num":"4","larger_num":"16","correct_side":1,"subjID":"MANUELFRANCISCOVEGARINCON1","gender":"2","age":"12","school":"SEXTO"},{"start_time":1551887836345,"click_time":1551887837942,"finger_time":1551887837040,"fix_duration":1083.6189544539968,"trial":37,"RT":695,"MT":902,"sideResp":2,"stimulus":"img/900/equaldotanddens/R/12_Ratio_900_L_18_R_20.png","xmouse":[749,749,749,749,749,749,749,749,749,749,749,749,749,749,749,749,749,749,749,749,749,749,749,749,749,749,749,749,749,749,749,751,753,756,799,943,1004,1046,1071,1082,1098,1106,1112,1114,1114,1105,1094,1081,1072,1070,1077,1091,1113,1136,1175,1175,1175,1175,1175,1175,1175,1175,1175,1175,1175,1175,1237,1223,1214,1209,1203,1200,1199,1196,1195,1192,1189,1181,1165,1149],"ymouse":[480,480,480,480,480,480,480,480,480,480,480,480,480,480,480,480,480,480,480,480,480,480,480,480,480,480,480,480,480,480,480,480,478,473,453,428,419,404,392,385,374,367,361,358,344,311,290,267,247,231,199,179,149,118,53,53,53,53,53,53,53,53,53,53,53,53,0,16,29,37,46,49,50,52,52,52,52,50,44,37],"timestamp_mouse":[16,37,56,75,96,115,136,155,175,196,217,235,257,275,295,315,336,356,376,396,416,435,456,475,495,516,536,555,577,596,616,635,656,675,695,715,736,755,776,796,815,835,856,876,897,916,936,955,975,995,1016,1036,1056,1075,1097,1117,1137,1157,1177,1197,1217,1236,1255,1276,1296,1316,1335,1355,1375,1396,1415,1437,1457,1477,1495,1516,1535,1555,1575,1596],"xSR":741.5,"ySR":469.95,"xT1":424.9,"yT1":0,"xT2":1058.1,"yT2":0,"toosoon":0,"cond_shown":"equaldotanddens","ratio_trial":900,"smaller_num":"18","larger_num":"20","correct_side":2,"subjID":"MANUELFRANCISCOVEGARINCON1","gender":"2","age":"12","school":"SEXTO"},{"start_time":1551887839214,"click_time":1551887840241,"finger_time":1551887840081,"fix_duration":250,"trial":38,"RT":867,"MT":160,"sideResp":1,"stimulus":"img/250/randomdotsizeEA/L/3_Ratio_250_L_8_R_2.png","xmouse":[768,769,770,770,771,771,771,771,771,771,771,771,771,771,771,771,771,771,771,771,771,771,771,771,771,771,771,771,771,771,771,771,771,771,771,771,771,771,771,771,772,771,750,730,703,671,640,582,562,542,520,488],"ymouse":[517,517,517,517,517,517,517,517,517,517,517,517,517,517,517,517,517,517,517,517,517,517,517,517,517,517,517,517,517,517,517,517,517,517,517,517,517,517,517,517,516,513,489,470,444,411,360,252,204,163,121,67],"timestamp_mouse":[6,34,47,66,86,106,127,146,168,186,207,226,247,266,287,307,328,347,367,387,408,427,447,468,488,507,527,547,568,588,607,626,646,667,688,706,727,748,766,787,807,827,846,867,886,908,927,946,968,987,1007,1026],"xSR":741.5,"ySR":469.95,"xT1":424.9,"yT1":0,"xT2":1058.1,"yT2":0,"toosoon":0,"cond_shown":"randomdotsizeEA","ratio_trial":250,"smaller_num":"2","larger_num":"8","correct_side":1,"subjID":"MANUELFRANCISCOVEGARINCON1","gender":"2","age":"12","school":"SEXTO"},{"start_time":1551887841732,"click_time":1551887842900,"finger_time":1551887842501,"fix_duration":709.0040069460488,"trial":39,"RT":769,"MT":399,"sideResp":2,"stimulus":"img/250/randomdotsizeEA/R/11_Ratio_250_L_3_R_12.png","xmouse":[792,792,792,792,792,792,792,792,792,792,792,792,792,792,792,792,792,792,792,793,794,796,796,796,796,796,796,796,796,796,798,799,800,801,802,806,817,828,843,863,879,895,899,904,909,916,935,951,965,981,998,1025,1047,1064,1084,1119,1133,1141,1147],"ymouse":[511,511,511,511,511,511,511,511,511,511,511,511,511,511,511,511,511,511,511,511,511,510,510,510,510,510,510,510,510,510,510,510,509,509,508,504,495,486,474,455,434,386,368,349,334,314,296,286,275,263,247,212,184,168,156,132,119,107,97],"timestamp_mouse":[8,42,48,69,89,108,129,149,169,188,209,230,250,269,288,308,329,349,368,389,410,429,449,468,489,510,528,549,570,589,609,629,650,669,689,710,729,749,769,788,809,829,850,868,888,910,928,949,969,989,1008,1028,1049,1068,1089,1110,1128,1149,1168],"xSR":741.5,"ySR":469.95,"xT1":424.9,"yT1":0,"xT2":1058.1,"yT2":0,"toosoon":0,"cond_shown":"randomdotsizeEA","ratio_trial":250,"smaller_num":"3","larger_num":"12","correct_side":2,"subjID":"MANUELFRANCISCOVEGARINCON1","gender":"2","age":"12","school":"SEXTO"},{"start_time":1551887844494,"click_time":1551887845741,"finger_time":1551887845242,"fix_duration":432.57777048979176,"trial":40,"RT":748,"MT":499,"sideResp":1,"stimulus":"img/500/equaldotanddens/L/5_Ratio_500_L_4_R_2.png","xmouse":[781,781,781,781,781,781,781,781,781,781,781,781,781,781,781,781,781,781,781,781,781,781,781,781,781,781,781,781,781,781,781,781,781,781,779,760,750,702,655,652,652,652,648,622,609,597,595,592,592,592,592,592,588,578,571,567,563,559,548,539,533,527,522],"ymouse":[513,514,514,514,514,514,514,514,514,514,514,514,514,514,514,514,514,514,514,514,514,514,514,514,514,514,514,514,514,514,514,514,514,514,514,505,501,474,405,357,300,229,184,133,127,125,125,126,126,127,127,127,127,127,127,127,127,127,118,107,99,89,82],"timestamp_mouse":[20,35,47,66,86,107,126,148,166,187,208,227,247,266,287,307,328,346,368,387,407,428,447,468,486,508,527,546,566,586,607,627,647,667,687,707,727,748,766,786,807,828,846,867,887,907,928,948,966,986,1006,1026,1047,1067,1086,1107,1128,1147,1167,1187,1207,1227,1247],"xSR":741.5,"ySR":469.95,"xT1":424.9,"yT1":0,"xT2":1058.1,"yT2":0,"toosoon":0,"cond_shown":"equaldotanddens","ratio_trial":500,"smaller_num":"2","larger_num":"4","correct_side":1,"subjID":"MANUELFRANCISCOVEGARINCON1","gender":"2","age":"12","school":"SEXTO"},{"start_time":1551887846774,"click_time":1551887847960,"finger_time":1551887847460,"fix_duration":250,"trial":41,"RT":686,"MT":500,"sideResp":2,"stimulus":"img/500/equaldotanddens/R/9_Ratio_500_L_2_R_4.png","xmouse":[785,785,785,785,785,785,785,785,785,785,785,785,785,785,785,786,788,790,790,790,790,790,790,790,790,790,790,790,790,790,794,799,809,822,867,921,993,1058,1092,1121,1131,1139,1146,1155,1167,1173,1176,1176,1176,1175,1175,1175,1174,1172,1158,1151,1146,1144,1143,1141],"ymouse":[557,557,557,557,557,557,557,557,557,557,557,557,557,557,557,558,558,558,558,558,558,558,558,558,558,558,558,558,558,558,558,558,558,554,517,460,403,358,331,305,295,288,281,270,258,253,248,242,234,224,221,218,215,205,167,145,126,111,103,91],"timestamp_mouse":[8,27,48,66,87,108,127,147,167,187,206,228,247,266,287,307,328,347,366,387,407,427,446,467,487,506,528,547,567,587,607,627,647,667,686,707,727,748,768,787,806,826,847,867,887,907,928,947,966,987,1007,1028,1047,1067,1086,1107,1127,1146,1166,1186],"xSR":741.5,"ySR":469.95,"xT1":424.9,"yT1":0,"xT2":1058.1,"yT2":0,"toosoon":0,"cond_shown":"equaldotanddens","ratio_trial":500,"smaller_num":"2","larger_num":"4","correct_side":2,"subjID":"MANUELFRANCISCOVEGARINCON1","gender":"2","age":"12","school":"SEXTO"},{"start_time":1551887851053,"click_time":1551887852182,"finger_time":1551887851741,"fix_duration":250,"trial":42,"RT":688,"MT":441,"sideResp":2,"stimulus":"img/250/equaldotanddens/R/12_Ratio_250_L_5_R_20.png","xmouse":[788,788,788,788,788,788,788,788,788,788,788,788,788,788,788,788,788,788,788,788,788,788,788,788,788,788,788,788,789,790,795,802,811,821,834,873,887,899,907,916,922,927,933,940,951,962,965,967,970,999,1018,1037,1048,1053,1054,1056,1059],"ymouse":[520,520,520,520,520,520,520,520,520,520,520,520,520,520,520,520,520,520,520,520,520,520,520,520,520,520,520,520,520,519,516,511,504,489,462,348,297,253,224,200,179,166,154,143,132,129,128,127,126,117,112,101,91,85,83,74,67],"timestamp_mouse":[14,38,48,68,87,108,127,147,169,187,207,228,247,268,289,308,328,349,367,387,408,427,448,468,487,507,529,547,568,588,608,628,648,667,687,708,728,748,768,787,807,827,848,868,888,908,928,947,969,989,1007,1028,1048,1069,1088,1107,1129],"xSR":741.5,"ySR":469.95,"xT1":424.9,"yT1":0,"xT2":1058.1,"yT2":0,"toosoon":0,"cond_shown":"equaldotanddens","ratio_trial":250,"smaller_num":"5","larger_num":"20","correct_side":2,"subjID":"MANUELFRANCISCOVEGARINCON1","gender":"2","age":"12","school":"SEXTO"},{"start_time":1551887854276,"click_time":1551887854961,"finger_time":1551887854862,"fix_duration":833.953131117102,"trial":43,"RT":586,"MT":99,"sideResp":1,"stimulus":"img/250/equaldotsize/L/5_Ratio_250_L_24_R_6.png","xmouse":[758,758,758,758,758,758,758,758,758,758,758,758,758,758,758,758,758,758,758,758,758,758,758,758,758,758,758,758,758,727,682,625,577,531,484],"ymouse":[507,507,507,507,507,507,507,507,507,507,507,507,507,507,507,507,507,507,507,507,507,507,507,507,507,507,507,507,507,482,445,380,285,159,1],"timestamp_mouse":[8,25,45,64,85,105,125,145,166,184,205,225,246,265,285,305,324,345,365,386,405,424,444,466,485,506,525,545,565,586,605,624,645,664,685],"xSR":741.5,"ySR":469.95,"xT1":424.9,"yT1":0,"xT2":1058.1,"yT2":0,"toosoon":0,"cond_shown":"equaldotsize","ratio_trial":250,"smaller_num":"6","larger_num":"24","correct_side":1,"subjID":"MANUELFRANCISCOVEGARINCON1","gender":"2","age":"12","school":"SEXTO"},{"start_time":1551887856714,"click_time":1551887858021,"finger_time":1551887857460,"fix_duration":250,"trial":44,"RT":746,"MT":561,"sideResp":2,"stimulus":"img/900/equaldotsize/L/8_Ratio_900_L_20_R_18.png","xmouse":[788,788,788,788,788,788,788,788,788,788,788,788,788,788,788,788,788,788,788,788,788,788,788,788,788,788,788,788,788,788,788,788,788,793,800,809,825,867,889,916,929,954,960,962,964,965,967,970,972,974,977,979,986,997,1012,1031,1045,1054,1054,1054,1054,1056,1056,1056,1056,1060],"ymouse":[504,504,504,504,504,504,504,504,504,504,504,504,504,504,504,504,504,504,504,504,504,504,504,504,504,504,504,504,504,504,504,504,505,504,499,492,479,443,419,374,287,121,99,86,72,69,64,58,55,50,46,43,43,43,49,60,68,72,72,72,72,72,72,72,72,70],"timestamp_mouse":[9,35,46,66,87,107,126,148,166,186,208,226,246,267,288,306,327,348,367,386,407,428,446,466,488,508,526,548,568,586,607,627,647,667,687,707,727,746,767,787,808,828,846,866,886,907,928,947,967,987,1008,1026,1046,1067,1088,1106,1127,1146,1167,1186,1208,1226,1246,1267,1287,1307],"xSR":741.5,"ySR":469.95,"xT1":424.9,"yT1":0,"xT2":1058.1,"yT2":0,"toosoon":0,"cond_shown":"equaldotsize","ratio_trial":900,"smaller_num":"18","larger_num":"20","correct_side":1,"subjID":"MANUELFRANCISCOVEGARINCON1","gender":"2","age":"12","school":"SEXTO"},{"start_time":1551887861663,"click_time":1551887862661,"finger_time":1551887862421,"fix_duration":820.8051467020227,"trial":45,"RT":758,"MT":240,"sideResp":1,"stimulus":"img/750/randomdotsizeEA/L/6_Ratio_750_L_24_R_18.png","xmouse":[814,814,814,814,814,814,814,814,814,814,814,814,814,814,814,814,814,814,814,814,814,814,814,814,814,814,814,814,814,813,813,813,813,813,816,818,819,819,807,745,697,653,616,583,527,501,476,457,438,427],"ymouse":[535,535,535,535,535,535,535,535,535,535,535,535,535,535,535,535,535,535,535,535,535,535,535,535,535,535,535,535,535,534,532,528,525,518,501,491,477,461,419,325,273,231,194,170,142,133,123,115,106,99],"timestamp_mouse":[18,39,57,77,98,119,137,157,177,198,219,237,257,279,297,318,338,357,378,397,417,437,457,478,498,517,537,557,577,597,617,638,658,677,698,717,738,758,778,797,817,838,858,878,898,917,938,958,978,997],"xSR":741.5,"ySR":469.95,"xT1":424.9,"yT1":0,"xT2":1058.1,"yT2":0,"toosoon":0,"cond_shown":"randomdotsizeEA","ratio_trial":750,"smaller_num":"18","larger_num":"24","correct_side":1,"subjID":"MANUELFRANCISCOVEGARINCON1","gender":"2","age":"12","school":"SEXTO"},{"start_time":1551887864650,"click_time":1551887865701,"finger_time":1551887865320,"fix_duration":1088.223541800294,"trial":46,"RT":670,"MT":381,"sideResp":1,"stimulus":"img/500/equaldotanddens/L/10_Ratio_500_L_4_R_2.png","xmouse":[826,826,826,826,826,826,826,826,826,826,826,826,826,826,826,826,826,826,826,826,826,826,826,826,826,826,826,826,826,826,826,826,826,845,856,897,902,903,903,903,900,895,891,883,824,764,692,642,601,559,524,508,494],"ymouse":[501,501,501,501,501,501,501,501,501,501,501,501,501,501,501,501,501,501,501,501,501,501,501,501,501,501,501,501,501,501,501,501,501,496,493,485,483,482,482,477,468,464,461,455,419,387,349,320,294,260,186,127,55],"timestamp_mouse":[11,41,50,72,91,111,132,152,170,190,211,231,252,270,292,311,332,351,370,392,410,431,450,471,491,510,532,550,570,591,610,631,650,670,691,710,731,751,770,791,810,831,850,871,892,910,931,951,972,991,1010,1031,1051],"xSR":741.5,"ySR":469.95,"xT1":424.9,"yT1":0,"xT2":1058.1,"yT2":0,"toosoon":0,"cond_shown":"equaldotanddens","ratio_trial":500,"smaller_num":"2","larger_num":"4","correct_side":1,"subjID":"MANUELFRANCISCOVEGARINCON1","gender":"2","age":"12","school":"SEXTO"},{"start_time":1551887867931,"click_time":1551887869121,"finger_time":1551887868642,"fix_duration":1069.9175320635657,"trial":47,"RT":711,"MT":479,"sideResp":1,"stimulus":"img/750/randomdotsizeEA/R/2_Ratio_750_L_6_R_8.png","xmouse":[787,787,787,787,787,787,787,787,787,787,787,787,787,787,787,787,787,787,787,787,787,787,787,787,787,787,787,787,787,787,787,787,787,785,780,777,767,759,745,728,678,653,635,618,605,583,565,558,553,551,549,544,540,536,534,532,532,531,528,521],"ymouse":[509,509,509,509,509,509,509,509,509,509,509,509,509,509,509,509,509,509,509,509,509,509,509,509,509,509,509,509,509,509,508,495,487,480,473,469,454,439,417,389,308,277,255,235,216,189,168,159,153,148,144,125,114,106,101,97,97,95,92,85],"timestamp_mouse":[9,33,50,70,90,110,130,149,170,190,210,230,249,269,290,311,329,349,369,390,411,429,451,470,489,509,531,549,569,591,609,630,650,670,689,711,729,750,770,790,811,830,849,869,890,910,930,950,970,989,1009,1030,1051,1070,1089,1111,1129,1149,1169,1190],"xSR":741.5,"ySR":469.95,"xT1":424.9,"yT1":0,"xT2":1058.1,"yT2":0,"toosoon":0,"cond_shown":"randomdotsizeEA","ratio_trial":750,"smaller_num":"6","larger_num":"8","correct_side":2,"subjID":"MANUELFRANCISCOVEGARINCON1","gender":"2","age":"12","school":"SEXTO"},{"start_time":1551887870969,"click_time":1551887871960,"finger_time":1551887871361,"fix_duration":807.6160896736931,"trial":48,"RT":392,"MT":599,"sideResp":1,"stimulus":"img/750/equaldotsize/L/13_Ratio_750_L_8_R_6.png","xmouse":[811,811,811,811,811,811,811,811,811,811,811,811,811,811,811,812,814,815,817,819,819,819,819,819,819,819,819,819,819,819,819,819,819,819,819,819,813,798,778,725,701,685,668,643,601,582,562,545,529,492],"ymouse":[500,499,499,498,497,497,496,495,495,495,495,495,495,495,495,490,485,478,471,454,448,442,439,438,437,437,437,437,437,437,437,437,437,437,437,436,429,418,404,360,330,303,269,211,139,118,106,101,98,91],"timestamp_mouse":[14,39,51,73,92,112,132,152,171,192,211,231,253,271,291,311,333,352,372,392,413,432,452,472,491,512,532,552,571,591,612,633,652,673,692,712,731,753,772,792,812,832,852,873,892,912,932,952,972,991],"xSR":741.5,"ySR":469.95,"xT1":424.9,"yT1":0,"xT2":1058.1,"yT2":0,"toosoon":0,"cond_shown":"equaldotsize","ratio_trial":750,"smaller_num":"6","larger_num":"8","correct_side":1,"subjID":"MANUELFRANCISCOVEGARINCON1","gender":"2","age":"12","school":"SEXTO"},{"start_time":1551887873811,"click_time":1551887874702,"finger_time":1551887874260,"fix_duration":968.6600450295733,"trial":49,"RT":449,"MT":442,"sideResp":1,"stimulus":"img/500/equaldotanddens/L/13_Ratio_500_L_12_R_6.png","xmouse":[799,799,799,799,799,799,799,799,799,799,799,799,799,799,799,799,800,802,804,805,809,814,827,834,842,848,853,859,860,860,860,860,860,860,860,860,858,839,816,791,749,686,594,544,501],"ymouse":[528,528,528,528,528,528,528,528,528,528,528,528,528,528,528,528,526,518,511,501,486,477,454,441,426,410,395,371,365,361,360,360,360,360,360,359,359,356,353,349,337,294,172,103,43],"timestamp_mouse":[11,36,50,70,91,109,131,149,169,190,209,230,250,269,290,309,330,350,370,390,411,430,449,470,489,510,530,549,569,591,611,629,649,669,689,709,729,750,770,789,810,830,849,870,891],"xSR":741.5,"ySR":469.95,"xT1":424.9,"yT1":0,"xT2":1058.1,"yT2":0,"toosoon":0,"cond_shown":"equaldotanddens","ratio_trial":500,"smaller_num":"6","larger_num":"12","correct_side":1,"subjID":"MANUELFRANCISCOVEGARINCON1","gender":"2","age":"12","school":"SEXTO"},{"start_time":1551887876578,"click_time":1551887877681,"finger_time":1551887877242,"fix_duration":755.4367792882427,"trial":50,"RT":664,"MT":439,"sideResp":1,"stimulus":"img/250/equaldotanddens/L/15_Ratio_250_L_12_R_3.png","xmouse":[810,810,810,810,810,810,810,810,810,810,810,810,810,810,810,810,810,810,810,804,800,797,793,791,791,791,791,791,791,791,791,791,790,788,752,724,678,629,586,521,490,460,438,424,421,421,421,424,425,429,430,432,436,440,444,448],"ymouse":[502,502,502,502,502,502,502,502,502,502,502,502,502,502,502,502,502,502,498,489,485,480,475,473,472,472,472,472,472,472,472,472,472,469,441,420,393,358,331,274,251,224,203,181,156,143,133,124,120,113,113,111,110,107,100,93],"timestamp_mouse":[9,23,43,62,83,102,123,143,163,182,203,223,242,264,283,302,323,343,364,383,403,423,444,463,482,504,522,544,564,582,604,622,642,664,683,703,723,743,763,783,803,822,842,863,884,902,922,942,963,983,1003,1023,1044,1063,1083,1102],"xSR":741.5,"ySR":469.95,"xT1":424.9,"yT1":0,"xT2":1058.1,"yT2":0,"toosoon":0,"cond_shown":"equaldotanddens","ratio_trial":250,"smaller_num":"3","larger_num":"12","correct_side":1,"subjID":"MANUELFRANCISCOVEGARINCON1","gender":"2","age":"12","school":"SEXTO"},{"start_time":1551887881860,"click_time":1551887882960,"finger_time":1551887882300,"fix_duration":1457.8610743081933,"trial":51,"RT":440,"MT":660,"sideResp":1,"stimulus":"img/750/equaldotanddens/L/8_Ratio_750_L_4_R_3.png","xmouse":[790,790,790,790,790,790,790,790,790,790,790,790,790,790,790,790,790,789,789,796,805,809,811,812,813,813,813,813,813,813,813,813,813,813,813,813,813,814,823,829,858,868,876,882,883,883,883,883,883,875,857,829,776,696,598,433],"ymouse":[509,509,509,509,509,509,509,509,509,509,509,509,509,509,509,509,509,507,502,491,476,470,467,464,461,461,461,461,461,461,461,461,461,461,461,461,461,460,451,447,409,392,380,370,364,363,363,363,363,356,341,319,255,170,103,7],"timestamp_mouse":[14,36,41,62,81,100,122,141,160,181,200,222,240,260,282,300,320,341,361,381,400,421,440,462,481,501,521,540,561,580,601,620,640,660,682,701,721,740,761,781,801,820,841,861,882,900,920,941,961,982,1000,1021,1041,1062,1081,1100],"xSR":741.5,"ySR":469.95,"xT1":424.9,"yT1":0,"xT2":1058.1,"yT2":0,"toosoon":0,"cond_shown":"equaldotanddens","ratio_trial":750,"smaller_num":"3","larger_num":"4","correct_side":1,"subjID":"MANUELFRANCISCOVEGARINCON1","gender":"2","age":"12","school":"SEXTO"},{"start_time":1551887886089,"click_time":1551887887241,"finger_time":1551887886800,"fix_duration":1427.6371295779882,"trial":52,"RT":711,"MT":441,"sideResp":2,"stimulus":"img/250/equaldotsize/R/6_Ratio_250_L_6_R_24.png","xmouse":[795,795,795,795,795,795,795,795,795,795,795,795,795,795,795,795,795,795,795,795,795,795,795,795,795,795,795,795,795,795,795,797,804,812,815,819,835,858,870,881,889,894,896,896,897,913,930,1001,1079,1095,1102,1105,1107,1110,1115,1118,1122,1123],"ymouse":[510,510,510,510,510,510,510,510,510,510,510,510,510,510,510,510,510,510,510,510,510,510,510,510,510,510,510,510,510,510,508,503,498,481,474,463,441,408,390,375,364,357,352,352,352,333,321,272,226,211,199,191,187,182,173,164,141,79],"timestamp_mouse":[12,37,53,73,92,111,132,153,172,192,211,233,251,272,292,312,332,353,371,393,411,431,453,473,492,511,533,552,571,592,611,633,652,672,692,711,733,753,772,792,811,833,853,871,893,912,933,952,972,992,1012,1033,1052,1071,1092,1113,1132,1152],"xSR":741.5,"ySR":469.95,"xT1":424.9,"yT1":0,"xT2":1058.1,"yT2":0,"toosoon":0,"cond_shown":"equaldotsize","ratio_trial":250,"smaller_num":"6","larger_num":"24","correct_side":2,"subjID":"MANUELFRANCISCOVEGARINCON1","gender":"2","age":"12","school":"SEXTO"},{"start_time":1551887892624,"click_time":1551887895201,"finger_time":1551887894541,"fix_duration":1341.4934699458363,"trial":53,"RT":1917,"MT":660,"sideResp":1,"stimulus":"img/900/equaldotanddens/R/3_Ratio_900_L_9_R_10.png","xmouse":[780,780,780,780,780,780,780,780,780,780,780,780,780,780,780,780,780,780,780,780,780,780,780,780,780,780,780,780,780,780,780,780,780,780,780,780,780,780,780,780,780,780,780,780,780,780,780,780,780,780,780,780,780,780,780,780,780,780,780,780,780,780,780,780,780,780,780,780,780,780,780,780,780,780,780,780,780,780,780,780,780,780,780,780,780,780,780,780,780,780,780,777,767,753,742,732,726,726,726,726,726,726,726,723,717,703,625,573,544,532,529,529,529,529,529,529,530,533,538,546,551,553,553,553,551,549,543,529,498],"ymouse":[517,517,517,517,517,517,517,517,517,517,517,517,517,517,517,517,517,517,517,517,517,517,517,517,517,517,517,517,517,517,517,517,517,517,517,517,517,517,517,517,517,517,517,517,517,517,517,517,517,517,517,517,517,517,517,517,517,517,517,517,517,517,517,517,517,517,517,517,517,517,517,517,517,517,517,517,517,517,517,517,517,517,517,517,517,517,517,517,517,517,517,516,515,513,510,507,506,506,506,506,506,506,506,500,489,475,415,378,356,344,335,326,320,313,305,298,287,279,270,253,243,227,222,218,214,208,179,134,54],"timestamp_mouse":[17,38,58,76,96,116,137,157,177,198,216,236,257,277,297,317,336,357,377,398,417,436,456,476,497,518,536,556,576,598,616,638,656,677,697,716,737,757,777,798,817,836,858,876,898,916,936,957,978,996,1016,1038,1057,1076,1097,1117,1136,1157,1177,1196,1218,1236,1256,1276,1298,1316,1337,1358,1376,1396,1416,1437,1457,1476,1498,1516,1537,1556,1578,1598,1618,1636,1658,1678,1697,1716,1736,1758,1778,1796,1818,1838,1857,1876,1897,1917,1937,1957,1977,1997,2016,2036,2056,2078,2097,2118,2136,2156,2177,2196,2217,2237,2257,2276,2297,2318,2336,2357,2376,2396,2417,2437,2457,2478,2498,2518,2537,2557,2577],"xSR":741.5,"ySR":469.95,"xT1":424.9,"yT1":0,"xT2":1058.1,"yT2":0,"toosoon":0,"cond_shown":"equaldotanddens","ratio_trial":900,"smaller_num":"9","larger_num":"10","correct_side":2,"subjID":"MANUELFRANCISCOVEGARINCON1","gender":"2","age":"12","school":"SEXTO"},{"start_time":1551887897816,"click_time":1551887899240,"finger_time":1551887898621,"fix_duration":1454.447660340491,"trial":54,"RT":805,"MT":619,"sideResp":2,"stimulus":"img/500/randomdotsizeEA/R/12_Ratio_500_L_1_R_2.png","xmouse":[804,804,804,804,804,803,797,779,771,766,766,766,766,766,766,766,766,766,766,766,766,766,766,766,766,766,766,766,766,765,765,765,766,766,767,767,767,767,760,745,712,683,678,678,679,684,692,713,725,741,763,800,841,862,887,927,961,981,982,982,984,993,1033,1062,1081,1090,1097,1103,1110,1118,1123,1144],"ymouse":[515,515,515,515,515,515,515,511,511,510,510,510,510,510,510,510,510,510,510,510,510,510,510,510,510,510,510,510,510,509,509,509,508,508,507,507,505,501,493,481,457,423,410,399,388,377,370,365,363,361,358,349,325,304,283,258,241,229,229,229,224,214,189,177,167,160,151,137,129,118,114,94],"timestamp_mouse":[9,25,44,66,84,106,126,145,165,185,205,224,246,265,285,305,324,344,366,386,404,425,445,466,485,504,524,544,565,584,604,625,644,664,686,705,724,744,765,784,805,826,844,865,885,905,925,945,965,986,1005,1024,1045,1065,1085,1105,1125,1145,1164,1185,1205,1225,1245,1265,1285,1305,1324,1345,1364,1385,1404,1424],"xSR":741.5,"ySR":469.95,"xT1":424.9,"yT1":0,"xT2":1058.1,"yT2":0,"toosoon":0,"cond_shown":"randomdotsizeEA","ratio_trial":500,"smaller_num":"1","larger_num":"2","correct_side":2,"subjID":"MANUELFRANCISCOVEGARINCON1","gender":"2","age":"12","school":"SEXTO"},{"start_time":1551887901827,"click_time":1551887903101,"finger_time":1551887902440,"fix_duration":1145.5904016862862,"trial":55,"RT":613,"MT":661,"sideResp":1,"stimulus":"img/500/equaldotanddens/L/13_Ratio_500_L_12_R_6.png","xmouse":[807,807,807,807,807,807,807,807,807,807,807,807,807,807,807,807,807,807,807,807,807,807,807,807,807,807,807,804,801,794,782,768,762,760,757,756,750,740,722,694,638,573,557,544,536,528,518,517,517,518,521,527,531,532,532,532,532,532,532,532,532,521,512,505],"ymouse":[494,494,494,494,494,494,494,494,494,494,494,494,494,494,494,494,494,494,494,494,494,494,494,494,494,494,494,488,485,479,469,457,452,450,447,445,431,410,383,347,288,238,226,219,214,211,203,201,198,195,189,178,168,162,155,150,149,149,149,149,147,125,101,77],"timestamp_mouse":[14,33,53,73,94,114,134,153,173,193,215,234,254,273,294,313,335,353,373,394,413,434,453,473,493,514,533,554,573,594,613,633,654,674,693,713,734,754,775,794,815,834,854,875,893,914,933,953,975,994,1014,1033,1054,1075,1093,1114,1133,1154,1175,1194,1214,1233,1253,1274],"xSR":741.5,"ySR":469.95,"xT1":424.9,"yT1":0,"xT2":1058.1,"yT2":0,"toosoon":0,"cond_shown":"equaldotanddens","ratio_trial":500,"smaller_num":"6","larger_num":"12","correct_side":1,"subjID":"MANUELFRANCISCOVEGARINCON1","gender":"2","age":"12","school":"SEXTO"},{"start_time":1551887905153,"click_time":1551887906741,"finger_time":1551887906061,"fix_duration":1231.2403164868847,"trial":56,"RT":908,"MT":680,"sideResp":1,"stimulus":"img/900/equaldotanddens/R/13_Ratio_900_L_18_R_20.png","xmouse":[809,809,809,809,809,809,809,809,809,809,809,809,809,809,809,809,809,809,809,809,809,809,809,809,809,809,809,809,809,809,809,809,809,809,809,809,809,809,809,809,809,809,808,796,777,727,704,684,670,656,627,618,612,609,607,603,598,591,586,568,561,554,548,543,535,526,523,521,520,520,520,520,520,520,520,520,520,520,518,507],"ymouse":[501,501,501,501,501,501,501,501,501,501,501,501,501,501,501,501,501,501,501,501,501,501,501,501,501,501,501,501,501,501,501,501,501,501,501,501,501,501,501,501,501,501,502,497,486,449,429,409,387,359,314,301,294,289,285,274,260,242,221,180,162,150,140,133,122,109,104,102,101,101,101,101,101,101,101,101,101,101,100,93],"timestamp_mouse":[8,40,48,67,88,107,128,147,167,187,208,228,247,268,288,308,327,349,367,388,407,428,449,468,488,508,529,547,569,588,608,628,649,668,688,708,727,749,768,787,807,829,848,868,888,908,928,947,969,989,1008,1028,1048,1069,1088,1108,1128,1148,1169,1189,1208,1228,1248,1268,1287,1307,1327,1348,1368,1388,1408,1427,1448,1469,1487,1508,1527,1547,1568,1588],"xSR":741.5,"ySR":469.95,"xT1":424.9,"yT1":0,"xT2":1058.1,"yT2":0,"toosoon":0,"cond_shown":"equaldotanddens","ratio_trial":900,"smaller_num":"18","larger_num":"20","correct_side":2,"subjID":"MANUELFRANCISCOVEGARINCON1","gender":"2","age":"12","school":"SEXTO"},{"start_time":1551887907813,"click_time":1551887909061,"finger_time":1551887908722,"fix_duration":250,"trial":57,"RT":909,"MT":339,"sideResp":2,"stimulus":"img/900/equaldotsize/L/4_Ratio_900_L_20_R_18.png","xmouse":[832,831,831,831,831,831,831,830,829,829,828,827,827,826,824,823,823,823,823,823,823,823,823,823,823,823,823,823,823,823,823,823,823,823,819,817,813,812,812,812,812,812,809,797,778,750,691,674,671,671,671,686,815,868,924,972,1016,1053,1065,1073,1083,1098,1114],"ymouse":[515,516,517,517,517,517,517,518,519,520,521,521,522,522,523,524,524,524,524,524,524,524,524,524,524,524,524,524,524,524,524,524,524,524,524,524,524,523,523,523,523,523,519,503,485,466,437,430,429,429,429,423,369,341,309,289,269,246,233,218,199,164,93],"timestamp_mouse":[9,35,47,68,88,107,129,148,167,187,208,227,247,268,287,309,329,347,368,387,408,427,448,468,487,509,528,547,568,588,608,629,649,668,689,708,727,748,767,788,809,827,847,868,887,909,929,947,967,988,1007,1028,1048,1068,1088,1107,1129,1147,1168,1188,1209,1228,1247],"xSR":741.5,"ySR":469.95,"xT1":424.9,"yT1":0,"xT2":1058.1,"yT2":0,"toosoon":0,"cond_shown":"equaldotsize","ratio_trial":900,"smaller_num":"18","larger_num":"20","correct_side":1,"subjID":"MANUELFRANCISCOVEGARINCON1","gender":"2","age":"12","school":"SEXTO"},{"start_time":1551887911552,"click_time":1551887912821,"finger_time":1551887912380,"fix_duration":1430.9070389690355,"trial":58,"RT":828,"MT":441,"sideResp":1,"stimulus":"img/250/randomdotsizeEA/L/14_Ratio_250_L_12_R_3.png","xmouse":[803,803,803,803,803,803,803,803,803,803,803,803,803,803,803,803,803,803,803,803,803,803,803,803,803,803,803,803,803,803,803,803,803,803,803,803,803,803,803,802,755,697,633,592,512,500,498,498,498,498,486,471,457,456,455,455,455,458,465,468,474,482,487,498],"ymouse":[522,522,522,522,522,522,522,522,522,522,522,522,522,522,522,522,522,522,522,522,522,522,522,522,522,522,522,522,522,522,522,522,522,522,522,522,522,522,522,522,494,463,424,386,308,299,298,298,298,297,252,217,185,179,179,179,179,172,162,155,139,126,114,99],"timestamp_mouse":[9,39,48,69,88,108,129,149,169,188,208,229,249,269,290,308,329,348,369,389,408,429,448,469,488,509,528,550,569,589,608,628,649,669,688,709,729,749,768,788,809,828,850,869,890,908,929,950,969,989,1009,1030,1049,1068,1089,1108,1129,1149,1169,1190,1208,1230,1248,1269],"xSR":741.5,"ySR":469.95,"xT1":424.9,"yT1":0,"xT2":1058.1,"yT2":0,"toosoon":0,"cond_shown":"randomdotsizeEA","ratio_trial":250,"smaller_num":"3","larger_num":"12","correct_side":1,"subjID":"MANUELFRANCISCOVEGARINCON1","gender":"2","age":"12","school":"SEXTO"},{"start_time":1551887916023,"click_time":1551887917141,"finger_time":1551887916761,"fix_duration":1399.6793222023512,"trial":59,"RT":738,"MT":380,"sideResp":1,"stimulus":"img/500/equaldotsize/L/7_Ratio_500_L_10_R_5.png","xmouse":[782,782,782,782,782,782,782,782,782,782,782,782,782,782,782,782,782,782,782,782,782,782,782,782,782,782,782,782,782,782,782,782,782,782,780,771,709,665,623,595,570,558,554,550,548,546,543,542,542,542,542,537,530,519,503,488],"ymouse":[494,494,494,494,494,494,494,494,494,494,494,494,494,494,494,494,494,494,494,494,494,494,494,494,494,494,494,494,494,494,494,494,494,494,489,480,430,396,363,341,318,307,304,298,293,288,279,275,270,262,243,195,165,134,101,75],"timestamp_mouse":[18,37,58,78,97,117,139,157,177,198,217,237,259,279,299,318,337,357,378,397,417,438,458,479,497,517,539,558,579,597,617,637,659,678,697,719,738,757,778,797,818,837,858,878,898,918,938,958,978,998,1018,1037,1058,1078,1097,1118],"xSR":741.5,"ySR":469.95,"xT1":424.9,"yT1":0,"xT2":1058.1,"yT2":0,"toosoon":0,"cond_shown":"equaldotsize","ratio_trial":500,"smaller_num":"5","larger_num":"10","correct_side":1,"subjID":"MANUELFRANCISCOVEGARINCON1","gender":"2","age":"12","school":"SEXTO"},{"start_time":1551887918796,"click_time":1551887920541,"finger_time":1551887919742,"fix_duration":334.8588002507719,"trial":60,"RT":946,"MT":799,"sideResp":1,"stimulus":"img/900/equaldotsize/L/10_Ratio_900_L_20_R_18.png","xmouse":[755,755,755,755,755,755,755,755,755,755,755,755,755,755,755,755,755,755,755,755,755,755,755,755,755,755,755,755,755,755,755,755,755,755,755,755,755,755,755,755,755,755,755,755,755,754,753,746,702,672,645,622,582,568,559,553,549,548,547,544,542,537,525,500,491,488,488,487,487,487,487,487,487,487,487,487,487,487,487,487,487,487,487,490,490,491,491,491],"ymouse":[497,497,497,497,497,497,497,497,497,497,497,497,497,497,497,497,497,497,497,497,497,497,497,497,497,497,497,497,497,497,497,497,497,497,497,497,497,497,497,497,497,497,497,497,497,496,487,453,360,317,282,256,216,206,200,195,192,191,188,184,179,169,151,125,116,114,112,109,108,108,108,108,108,108,108,108,108,108,108,108,108,108,106,102,101,100,100,99],"timestamp_mouse":[8,25,44,64,86,104,126,144,164,184,205,225,245,264,284,305,324,344,366,384,406,425,446,466,485,504,524,544,565,584,604,625,645,664,686,704,726,746,764,784,805,825,845,865,885,904,926,946,965,984,1005,1025,1046,1065,1085,1104,1124,1144,1165,1185,1205,1224,1245,1264,1284,1305,1325,1346,1364,1385,1404,1426,1445,1465,1484,1504,1524,1545,1564,1584,1606,1625,1646,1666,1685,1705,1725,1745],"xSR":741.5,"ySR":469.95,"xT1":424.9,"yT1":0,"xT2":1058.1,"yT2":0,"toosoon":0,"cond_shown":"equaldotsize","ratio_trial":900,"smaller_num":"18","larger_num":"20","correct_side":1,"subjID":"MANUELFRANCISCOVEGARINCON1","gender":"2","age":"12","school":"SEXTO"},{"start_time":1551887922049,"click_time":1551887923301,"finger_time":1551887922821,"fix_duration":367.03453869253923,"trial":61,"RT":772,"MT":480,"sideResp":2,"stimulus":"img/750/randomdotsizeEA/R/3_Ratio_750_L_15_R_20.png","xmouse":[794,794,794,794,794,794,794,794,794,794,794,794,794,794,794,794,794,794,794,794,794,791,781,774,772,770,770,770,770,770,770,770,770,770,769,768,765,764,763,764,795,824,847,857,864,870,873,875,879,885,908,948,990,1010,1016,1016,1019,1033,1036,1050,1066,1070,1074],"ymouse":[503,503,503,503,503,503,503,503,503,503,503,503,503,503,503,503,503,503,503,503,503,503,496,492,490,488,488,488,488,488,488,488,488,488,487,481,475,471,464,447,401,360,324,306,292,274,265,257,249,234,205,191,170,164,163,162,161,155,153,143,116,101,86],"timestamp_mouse":[22,41,53,73,92,111,133,152,171,191,212,231,251,272,291,311,333,351,372,393,411,432,453,472,491,511,532,551,571,593,611,633,651,673,692,712,732,753,772,793,811,832,852,872,892,912,932,952,972,992,1011,1032,1052,1072,1093,1111,1132,1152,1172,1192,1212,1232,1252],"xSR":741.5,"ySR":469.95,"xT1":424.9,"yT1":0,"xT2":1058.1,"yT2":0,"toosoon":0,"cond_shown":"randomdotsizeEA","ratio_trial":750,"smaller_num":"15","larger_num":"20","correct_side":2,"subjID":"MANUELFRANCISCOVEGARINCON1","gender":"2","age":"12","school":"SEXTO"},{"start_time":1551887924732,"click_time":1551887925581,"finger_time":1551887925361,"fix_duration":250,"trial":62,"RT":629,"MT":220,"sideResp":1,"stimulus":"img/900/equaldotanddens/L/8_Ratio_900_L_20_R_18.png","xmouse":[796,796,796,796,796,796,796,796,796,796,79