[{"start_time":1551886982064,"click_time":1551886985095,"finger_time":1551886984714,"fix_duration":1087.0266024278565,"trial":0,"RT":2650,"MT":381,"sideResp":1,"stimulus":[],"xmouse":[783,783,783,783,783,783,783,783,783,783,783,783,783,783,783,783,783,783,783,783,783,783,783,783,783,783,783,783,783,783,783,783,783,783,783,783,783,783,783,783,783,783,783,783,783,783,783,783,783,783,783,783,783,783,783,783,783,783,783,783,783,783,783,783,783,783,783,783,783,783,783,783,783,783,783,783,783,783,783,783,787,790,792,794,794,794,794,794,794,794,794,794,794,794,794,794,794,794,794,794,794,794,794,794,794,794,794,794,794,794,794,794,794,794,794,794,794,794,794,794,794,794,794,794,794,794,794,794,794,794,791,782,770,741,698,682,669,663,657,639,622,602,584,559,535,530,522,518,516,511,508],"ymouse":[524,524,524,524,524,524,524,524,524,524,524,524,524,524,524,524,524,524,524,524,524,524,524,524,524,524,524,524,524,524,524,524,524,524,524,524,524,524,524,524,524,524,524,524,524,524,524,524,524,524,524,524,524,524,524,524,524,524,524,524,524,524,524,524,524,524,524,524,524,524,524,524,524,524,524,524,524,524,524,524,521,518,516,514,514,514,514,514,514,514,514,514,514,514,514,514,514,514,514,514,514,514,514,514,514,514,514,514,514,514,514,514,514,514,514,514,514,514,514,514,514,514,514,514,514,514,514,514,514,511,504,495,481,457,419,400,382,369,355,325,304,279,253,213,170,153,138,126,116,101,94],"timestamp_mouse":[9,52,70,91,110,130,150,169,190,209,229,251,270,289,309,330,350,370,389,409,430,449,471,490,509,530,550,570,589,610,631,650,670,690,710,731,750,770,789,809,829,849,869,889,909,929,950,969,990,1009,1030,1050,1069,1089,1109,1129,1149,1170,1190,1211,1230,1249,1269,1291,1311,1330,1351,1370,1389,1410,1429,1450,1471,1490,1509,1529,1550,1570,1589,1610,1631,1650,1669,1689,1709,1729,1749,1769,1789,1809,1830,1849,1870,1889,1909,1931,1950,1969,1989,2010,2030,2049,2069,2089,2109,2131,2149,2170,2191,2209,2230,2250,2270,2289,2309,2330,2350,2370,2389,2410,2430,2449,2469,2489,2511,2529,2549,2570,2590,2609,2630,2650,2670,2690,2709,2730,2749,2769,2790,2809,2830,2850,2869,2890,2910,2930,2949,2969,2990,3009,3030],"xSR":741.5,"ySR":500.5,"xT1":424.9,"yT1":0,"xT2":1058.1,"yT2":0,"toosoon":0,"cond_shown":"Incongruent","ratio_trial":100,"L_num":3,"L_den":9,"R_num":7,"R_den":30,"correct_side":1,"subjID":"maria_alejandra_medina_contreras_38","gender":"1","age":"11","school":"sexto","test":{"fix_dur":[250,1500],"timestim":1000,"targets_dim":[100,100],"targets_relative_coord":[0.3,0.7],"size_stim":[880,420],"start_dim":[100,100],"size_start":[300,300],"size_fix":60,"samplingrate":20,"img_types":["Congruent","Incongruent"],"ratios":[100,200,300],"rep_conds":19,"nTrials":120,"trials_to_rest":500,"Trials_order":[55,83,113,6,99,78,114,90,33,70,108,64,51,36,16,79,37,12,61,8,28,73,111,45,19,26,56,107,54,67,80,116,75,27,98,57,1,25,84,68,49,43,58,66,23,2,59,95,110,17,97,15,77,30,100,20,44,91,31,0,63,41,50,47,72,38,105,89,106,24,39,29,82,104,62,69,96,42,60,40,74,117,4,71,14,102,5,18,22,118,85,94,48,10,11,103,35,81,3,112,87,86,34,7,109,9,13,119,32,93,76,101,65,115,46,21,53,88,92,52],"cond_shown":["Incongruent","Incongruent","Incongruent","Congruent","Incongruent","Congruent","Congruent","Congruent","Incongruent","Congruent","Congruent","Congruent","Incongruent","Congruent","Congruent","Incongruent","Incongruent","Congruent","Incongruent","Congruent","Congruent","Incongruent","Incongruent","Incongruent","Incongruent","Congruent","Congruent","Incongruent","Congruent","Incongruent","Congruent","Congruent","Incongruent","Incongruent","Congruent","Incongruent","Incongruent","Incongruent","Congruent","Congruent","Incongruent","Incongruent","Congruent","Congruent","Incongruent","Congruent","Incongruent","Incongruent","Congruent","Incongruent","Incongruent","Incongruent","Incongruent","Congruent","Congruent","Congruent","Congruent","Incongruent","Incongruent","Congruent","Incongruent","Incongruent","Congruent","Incongruent","Congruent","Congruent","Incongruent","Incongruent","Congruent","Congruent","Incongruent","Incongruent","Congruent","Congruent","Congruent","Incongruent","Congruent","Congruent","Congruent","Congruent","Congruent","Incongruent","Congruent","Incongruent","Congruent","Congruent","Incongruent","Congruent","Congruent","Congruent","Incongruent","Congruent","Congruent","Congruent","Incongruent","Incongruent","Incongruent","Incongruent","Incongruent","Congruent","Incongruent","Congruent","Congruent","Incongruent","Incongruent","Incongruent","Incongruent","Incongruent","Congruent","Incongruent","Congruent","Incongruent","Incongruent","Incongruent","Congruent","Incongruent","Incongruent","Congruent","Congruent","Congruent"],"ratio_trial":[100,300,300,100,200,100,100,100,200,300,100,300,200,100,300,100,100,100,100,200,300,100,200,200,100,200,200,300,100,100,200,200,200,200,200,200,100,100,100,200,100,100,300,100,300,200,300,300,200,300,100,200,300,100,300,200,200,100,100,100,200,300,200,300,100,200,200,300,300,100,200,300,300,200,200,200,100,100,100,300,200,200,300,300,200,100,300,100,300,300,100,300,100,300,300,100,300,200,200,300,200,200,300,100,100,200,100,300,200,200,300,300,300,100,300,200,300,300,200,300],"left_num":[3,13,2,11,4,3,2,15,7,1,2,8,6,8,4,11,9,4,9,13,12,10,1,3,10,11,15,2,11,6,5,6,14,7,5,3,6,4,6,3,12,9,18,1,4,20,8,13,1,7,12,4,4,1,5,4,9,10,10,9,1,3,3,4,7,14,7,1,24,2,7,4,24,9,3,7,11,7,8,1,7,7,3,13,4,7,4,7,20,5,8,4,12,1,8,6,4,1,7,5,7,15,24,3,13,7,10,1,13,3,1,4,13,2,2,3,8,8,4,2],"right_num":[7,12,6,4,1,4,11,13,6,19,6,1,3,2,1,9,14,15,13,14,2,9,3,11,9,3,4,6,4,3,14,7,6,6,14,11,7,8,5,7,2,20,9,3,2,9,14,12,21,8,2,1,2,18,7,3,4,8,8,8,2,4,14,6,9,6,14,2,8,6,4,2,8,13,11,8,6,9,2,11,18,4,2,12,3,9,2,9,14,7,6,13,13,8,9,13,2,2,14,6,4,4,8,8,12,8,9,3,14,1,11,6,12,8,12,1,9,1,3,12],"left_den":[9,26,4,22,30,20,5,25,15,3,5,16,20,16,10,22,15,10,15,26,24,25,2,4,25,22,25,4,22,12,10,12,30,15,10,4,10,8,20,10,30,10,20,2,20,25,10,26,2,10,30,30,20,2,25,8,20,25,25,15,3,6,10,5,14,28,10,2,30,5,15,20,30,30,10,10,22,14,16,5,15,15,6,26,8,14,20,14,25,25,16,20,30,30,10,10,20,3,10,25,15,25,30,5,26,10,25,2,26,10,5,5,26,4,10,10,10,16,10,10],"right_den":[30,15,30,10,3,16,22,26,9,30,12,5,6,5,10,15,28,30,26,20,10,18,10,20,18,10,10,30,10,5,20,10,9,9,20,20,14,20,25,14,4,25,15,5,4,15,28,15,30,20,4,3,4,30,14,10,16,16,16,16,15,20,28,12,15,20,28,10,16,12,6,4,16,26,22,16,15,15,5,22,27,6,10,15,10,15,4,15,28,14,10,26,26,24,18,26,4,15,28,12,6,10,16,16,20,16,18,15,20,2,22,12,15,20,24,2,18,5,15,24],"correct_side":[1,2,1,1,2,2,2,1,2,2,2,1,2,1,1,2,1,2,1,2,1,2,1,1,2,1,1,1,1,2,2,2,2,2,2,1,1,1,1,2,2,1,1,2,2,1,1,2,2,1,2,2,2,2,2,1,1,2,2,1,1,1,2,1,2,1,1,1,1,2,2,2,1,2,2,1,1,2,1,2,2,2,1,2,1,2,2,2,1,2,2,2,2,2,1,1,2,1,1,2,2,1,1,1,2,1,2,1,2,2,2,1,2,1,2,2,1,1,1,2],"img_shown":["img2/100/Incongruent/L/I_Dist_100_LN_3_LD_9_RN_7_RD_30_0.png","img2/300/Incongruent/R/I_Dist_300_LN_13_LD_26_RN_12_RD_15_1.png","img2/300/Incongruent/L/I_Dist_300_LN_2_LD_4_RN_6_RD_30_0.png","img2/100/Congruent/L/C_Dist_100_LN_11_LD_22_RN_4_RD_10_0.png","img2/200/Incongruent/R/I_Dist_200_LN_4_LD_30_RN_1_RD_3_1.png","img2/100/Congruent/R/C_Dist_100_LN_3_LD_20_RN_4_RD_16_1.png","img2/100/Congruent/R/C_Dist_100_LN_2_LD_5_RN_11_RD_22_1.png","img2/100/Congruent/L/C_Dist_100_LN_15_LD_25_RN_13_RD_26_0.png","img2/200/Incongruent/R/I_Dist_200_LN_7_LD_15_RN_6_RD_9_1.png","img2/300/Congruent/R/C_Dist_300_LN_1_LD_3_RN_19_RD_30_1.png","img2/100/Congruent/R/C_Dist_100_LN_2_LD_5_RN_6_RD_12_1.png","img2/300/Congruent/L/C_Dist_300_LN_8_LD_16_RN_1_RD_5_0.png","img2/200/Incongruent/R/I_Dist_200_LN_6_LD_20_RN_3_RD_6_1.png","img2/100/Congruent/L/C_Dist_100_LN_8_LD_16_RN_2_RD_5_0.png","img2/300/Congruent/L/C_Dist_300_LN_4_LD_10_RN_1_RD_10_0.png","img2/100/Incongruent/R/I_Dist_100_LN_11_LD_22_RN_9_RD_15_1.png","img2/100/Incongruent/L/I_Dist_100_LN_9_LD_15_RN_14_RD_28_0.png","img2/100/Congruent/R/C_Dist_100_LN_4_LD_10_RN_15_RD_30_1.png","img2/100/Incongruent/L/I_Dist_100_LN_9_LD_15_RN_13_RD_26_0.png","img2/200/Congruent/R/C_Dist_200_LN_13_LD_26_RN_14_RD_20_1.png","img2/300/Congruent/L/C_Dist_300_LN_12_LD_24_RN_2_RD_10_0.png","img2/100/Incongruent/R/I_Dist_100_LN_10_LD_25_RN_9_RD_18_1.png","img2/200/Incongruent/L/I_Dist_200_LN_1_LD_2_RN_3_RD_10_0.png","img2/200/Incongruent/L/I_Dist_200_LN_3_LD_4_RN_11_RD_20_0.png","img2/100/Incongruent/R/I_Dist_100_LN_10_LD_25_RN_9_RD_18_1.png","img2/200/Congruent/L/C_Dist_200_LN_11_LD_22_RN_3_RD_10_0.png","img2/200/Congruent/L/C_Dist_200_LN_15_LD_25_RN_4_RD_10_0.png","img2/300/Incongruent/L/I_Dist_300_LN_2_LD_4_RN_6_RD_30_0.png","img2/100/Congruent/L/C_Dist_100_LN_11_LD_22_RN_4_RD_10_0.png","img2/100/Incongruent/R/I_Dist_100_LN_6_LD_12_RN_3_RD_5_1.png","img2/200/Congruent/R/C_Dist_200_LN_5_LD_10_RN_14_RD_20_1.png","img2/200/Congruent/R/C_Dist_200_LN_6_LD_12_RN_7_RD_10_1.png","img2/200/Incongruent/R/I_Dist_200_LN_14_LD_30_RN_6_RD_9_1.png","img2/200/Incongruent/R/I_Dist_200_LN_7_LD_15_RN_6_RD_9_1.png","img2/200/Congruent/R/C_Dist_200_LN_5_LD_10_RN_14_RD_20_1.png","img2/200/Incongruent/L/I_Dist_200_LN_3_LD_4_RN_11_RD_20_0.png","img2/100/Incongruent/L/I_Dist_100_LN_6_LD_10_RN_7_RD_14_0.png","img2/100/Incongruent/L/I_Dist_100_LN_4_LD_8_RN_8_RD_20_0.png","img2/100/Congruent/L/C_Dist_100_LN_6_LD_20_RN_5_RD_25_0.png","img2/200/Congruent/R/C_Dist_200_LN_3_LD_10_RN_7_RD_14_1.png","img2/100/Incongruent/R/I_Dist_100_LN_12_LD_30_RN_2_RD_4_1.png","img2/100/Incongruent/L/I_Dist_100_LN_9_LD_10_RN_20_RD_25_0.png","img2/300/Congruent/L/C_Dist_300_LN_18_LD_20_RN_9_RD_15_0.png","img2/100/Congruent/R/C_Dist_100_LN_1_LD_2_RN_3_RD_5_1.png","img2/300/Incongruent/R/I_Dist_300_LN_4_LD_20_RN_2_RD_4_1.png","img2/200/Congruent/L/C_Dist_200_LN_20_LD_25_RN_9_RD_15_0.png","img2/300/Incongruent/L/I_Dist_300_LN_8_LD_10_RN_14_RD_28_0.png","img2/300/Incongruent/R/I_Dist_300_LN_13_LD_26_RN_12_RD_15_1.png","img2/200/Congruent/R/C_Dist_200_LN_1_LD_2_RN_21_RD_30_1.png","img2/300/Incongruent/L/I_Dist_300_LN_7_LD_10_RN_8_RD_20_0.png","img2/100/Incongruent/R/I_Dist_100_LN_12_LD_30_RN_2_RD_4_1.png","img2/200/Incongruent/R/I_Dist_200_LN_4_LD_30_RN_1_RD_3_1.png","img2/300/Incongruent/R/I_Dist_300_LN_4_LD_20_RN_2_RD_4_1.png","img2/100/Congruent/R/C_Dist_100_LN_1_LD_2_RN_18_RD_30_1.png","img2/300/Congruent/R/C_Dist_300_LN_5_LD_25_RN_7_RD_14_1.png","img2/200/Congruent/L/C_Dist_200_LN_4_LD_8_RN_3_RD_10_0.png","img2/200/Congruent/L/C_Dist_200_LN_9_LD_20_RN_4_RD_16_0.png","img2/100/Incongruent/R/I_Dist_100_LN_10_LD_25_RN_8_RD_16_1.png","img2/100/Incongruent/R/I_Dist_100_LN_10_LD_25_RN_8_RD_16_1.png","img2/100/Congruent/L/C_Dist_100_LN_9_LD_15_RN_8_RD_16_0.png","img2/200/Incongruent/L/I_Dist_200_LN_1_LD_3_RN_2_RD_15_0.png","img2/300/Incongruent/L/I_Dist_300_LN_3_LD_6_RN_4_RD_20_0.png","img2/200/Congruent/R/C_Dist_200_LN_3_LD_10_RN_14_RD_28_1.png","img2/300/Incongruent/L/I_Dist_300_LN_4_LD_5_RN_6_RD_12_0.png","img2/100/Congruent/R/C_Dist_100_LN_7_LD_14_RN_9_RD_15_1.png","img2/200/Congruent/L/C_Dist_200_LN_14_LD_28_RN_6_RD_20_0.png","img2/200/Incongruent/L/I_Dist_200_LN_7_LD_10_RN_14_RD_28_0.png","img2/300/Incongruent/L/I_Dist_300_LN_1_LD_2_RN_2_RD_10_0.png","img2/300/Congruent/L/C_Dist_300_LN_24_LD_30_RN_8_RD_16_0.png","img2/100/Congruent/R/C_Dist_100_LN_2_LD_5_RN_6_RD_12_1.png","img2/200/Incongruent/R/I_Dist_200_LN_7_LD_15_RN_4_RD_6_1.png","img2/300/Incongruent/R/I_Dist_300_LN_4_LD_20_RN_2_RD_4_1.png","img2/300/Congruent/L/C_Dist_300_LN_24_LD_30_RN_8_RD_16_0.png","img2/200/Congruent/R/C_Dist_200_LN_9_LD_30_RN_13_RD_26_1.png","img2/200/Congruent/R/C_Dist_200_LN_3_LD_10_RN_11_RD_22_1.png","img2/200/Incongruent/L/I_Dist_200_LN_7_LD_10_RN_8_RD_16_0.png","img2/100/Congruent/L/C_Dist_100_LN_11_LD_22_RN_6_RD_15_0.png","img2/100/Congruent/R/C_Dist_100_LN_7_LD_14_RN_9_RD_15_1.png","img2/100/Congruent/L/C_Dist_100_LN_8_LD_16_RN_2_RD_5_0.png","img2/300/Congruent/R/C_Dist_300_LN_1_LD_5_RN_11_RD_22_1.png","img2/200/Congruent/R/C_Dist_200_LN_7_LD_15_RN_18_RD_27_1.png","img2/200/Incongruent/R/I_Dist_200_LN_7_LD_15_RN_4_RD_6_1.png","img2/300/Congruent/L/C_Dist_300_LN_3_LD_6_RN_2_RD_10_0.png","img2/300/Incongruent/R/I_Dist_300_LN_13_LD_26_RN_12_RD_15_1.png","img2/200/Congruent/L/C_Dist_200_LN_4_LD_8_RN_3_RD_10_0.png","img2/100/Congruent/R/C_Dist_100_LN_7_LD_14_RN_9_RD_15_1.png","img2/300/Incongruent/R/I_Dist_300_LN_4_LD_20_RN_2_RD_4_1.png","img2/100/Congruent/R/C_Dist_100_LN_7_LD_14_RN_9_RD_15_1.png","img2/300/Congruent/L/C_Dist_300_LN_20_LD_25_RN_14_RD_28_0.png","img2/300/Congruent/R/C_Dist_300_LN_5_LD_25_RN_7_RD_14_1.png","img2/100/Incongruent/R/I_Dist_100_LN_8_LD_16_RN_6_RD_10_1.png","img2/300/Congruent/R/C_Dist_300_LN_4_LD_20_RN_13_RD_26_1.png","img2/100/Congruent/R/C_Dist_100_LN_12_LD_30_RN_13_RD_26_1.png","img2/300/Congruent/R/C_Dist_300_LN_1_LD_30_RN_8_RD_24_1.png","img2/300/Incongruent/L/I_Dist_300_LN_8_LD_10_RN_9_RD_18_0.png","img2/100/Incongruent/L/I_Dist_100_LN_6_LD_10_RN_13_RD_26_0.png","img2/300/Incongruent/R/I_Dist_300_LN_4_LD_20_RN_2_RD_4_1.png","img2/200/Incongruent/L/I_Dist_200_LN_1_LD_3_RN_2_RD_15_0.png","img2/200/Incongruent/L/I_Dist_200_LN_7_LD_10_RN_14_RD_28_0.png","img2/300/Congruent/R/C_Dist_300_LN_5_LD_25_RN_6_RD_12_1.png","img2/200/Incongruent/R/I_Dist_200_LN_7_LD_15_RN_4_RD_6_1.png","img2/200/Congruent/L/C_Dist_200_LN_15_LD_25_RN_4_RD_10_0.png","img2/300/Congruent/L/C_Dist_300_LN_24_LD_30_RN_8_RD_16_0.png","img2/100/Incongruent/L/I_Dist_100_LN_3_LD_5_RN_8_RD_16_0.png","img2/100/Incongruent/R/I_Dist_100_LN_13_LD_26_RN_12_RD_20_1.png","img2/200/Incongruent/L/I_Dist_200_LN_7_LD_10_RN_8_RD_16_0.png","img2/100/Incongruent/R/I_Dist_100_LN_10_LD_25_RN_9_RD_18_1.png","img2/300/Incongruent/L/I_Dist_300_LN_1_LD_2_RN_3_RD_15_0.png","img2/200/Congruent/R/C_Dist_200_LN_13_LD_26_RN_14_RD_20_1.png","img2/200/Incongruent/R/I_Dist_200_LN_3_LD_10_RN_1_RD_2_1.png","img2/300/Congruent/R/C_Dist_300_LN_1_LD_5_RN_11_RD_22_1.png","img2/300/Incongruent/L/I_Dist_300_LN_4_LD_5_RN_6_RD_12_0.png","img2/300/Incongruent/R/I_Dist_300_LN_13_LD_26_RN_12_RD_15_1.png","img2/100/Incongruent/L/I_Dist_100_LN_2_LD_4_RN_8_RD_20_0.png","img2/300/Congruent/R/C_Dist_300_LN_2_LD_10_RN_12_RD_24_1.png","img2/200/Incongruent/R/I_Dist_200_LN_3_LD_10_RN_1_RD_2_1.png","img2/300/Incongruent/L/I_Dist_300_LN_8_LD_10_RN_9_RD_18_0.png","img2/300/Congruent/L/C_Dist_300_LN_8_LD_16_RN_1_RD_5_0.png","img2/200/Congruent/L/C_Dist_200_LN_4_LD_10_RN_3_RD_15_0.png","img2/300/Congruent/R/C_Dist_300_LN_2_LD_10_RN_12_RD_24_1.png"],"dist100_C":[["C_Dist_100_LN_10_LD_25_RN_3_RD_10_0.png","C_Dist_100_LN_11_LD_22_RN_4_RD_10_0.png","C_Dist_100_LN_11_LD_22_RN_6_RD_15_0.png","C_Dist_100_LN_15_LD_25_RN_13_RD_26_0.png","C_Dist_100_LN_3_LD_6_RN_2_RD_5_0.png","C_Dist_100_LN_6_LD_20_RN_5_RD_25_0.png","C_Dist_100_LN_8_LD_16_RN_2_RD_5_0.png","C_Dist_100_LN_9_LD_15_RN_8_RD_16_0.png"],["C_Dist_100_LN_1_LD_2_RN_18_RD_30_1.png","C_Dist_100_LN_1_LD_2_RN_3_RD_5_1.png","C_Dist_100_LN_12_LD_30_RN_13_RD_26_1.png","C_Dist_100_LN_2_LD_5_RN_11_RD_22_1.png","C_Dist_100_LN_2_LD_5_RN_6_RD_12_1.png","C_Dist_100_LN_3_LD_20_RN_4_RD_16_1.png","C_Dist_100_LN_4_LD_10_RN_15_RD_30_1.png","C_Dist_100_LN_4_LD_8_RN_6_RD_10_1.png","C_Dist_100_LN_6_LD_12_RN_15_RD_25_1.png","C_Dist_100_LN_7_LD_14_RN_15_RD_25_1.png","C_Dist_100_LN_7_LD_14_RN_9_RD_15_1.png"]],"dist100_I":[["I_Dist_100_LN_1_LD_2_RN_8_RD_20_0.png","I_Dist_100_LN_2_LD_4_RN_6_RD_15_0.png","I_Dist_100_LN_2_LD_4_RN_8_RD_20_0.png","I_Dist_100_LN_3_LD_5_RN_11_RD_22_0.png","I_Dist_100_LN_3_LD_5_RN_8_RD_16_0.png","I_Dist_100_LN_3_LD_6_RN_4_RD_10_0.png","I_Dist_100_LN_3_LD_9_RN_7_RD_30_0.png","I_Dist_100_LN_4_LD_8_RN_8_RD_20_0.png","I_Dist_100_LN_6_LD_10_RN_11_RD_22_0.png","I_Dist_100_LN_6_LD_10_RN_13_RD_26_0.png","I_Dist_100_LN_6_LD_10_RN_7_RD_14_0.png","I_Dist_100_LN_9_LD_10_RN_20_RD_25_0.png","I_Dist_100_LN_9_LD_15_RN_13_RD_26_0.png","I_Dist_100_LN_9_LD_15_RN_14_RD_28_0.png"],["I_Dist_100_LN_10_LD_25_RN_8_RD_16_1.png","I_Dist_100_LN_10_LD_25_RN_9_RD_18_1.png","I_Dist_100_LN_11_LD_22_RN_9_RD_15_1.png","I_Dist_100_LN_12_LD_24_RN_9_RD_15_1.png","I_Dist_100_LN_12_LD_30_RN_2_RD_4_1.png","I_Dist_100_LN_13_LD_26_RN_12_RD_20_1.png","I_Dist_100_LN_13_LD_26_RN_6_RD_10_1.png","I_Dist_100_LN_17_LD_30_RN_10_RD_15_1.png","I_Dist_100_LN_6_LD_12_RN_3_RD_5_1.png","I_Dist_100_LN_8_LD_16_RN_6_RD_10_1.png","I_Dist_100_LN_8_LD_20_RN_1_RD_2_1.png","I_Dist_100_LN_9_LD_18_RN_6_RD_10_1.png"]],"dist100_S":[["E_Dist_100_LN_2_LD_12_RN_2_RD_30_0.png","E_Dist_100_LN_6_LD_10_RN_6_RD_12_0.png"],["E_Dist_100_LN_6_LD_12_RN_6_RD_10_1.png"]],"dist200_C":[["C_Dist_200_LN_11_LD_22_RN_3_RD_10_0.png","C_Dist_200_LN_12_LD_15_RN_6_RD_10_0.png","C_Dist_200_LN_12_LD_20_RN_6_RD_15_0.png","C_Dist_200_LN_14_LD_28_RN_6_RD_20_0.png","C_Dist_200_LN_15_LD_25_RN_4_RD_10_0.png","C_Dist_200_LN_16_LD_20_RN_12_RD_20_0.png","C_Dist_200_LN_16_LD_30_RN_9_RD_27_0.png","C_Dist_200_LN_20_LD_25_RN_9_RD_15_0.png","C_Dist_200_LN_21_LD_30_RN_2_RD_4_0.png","C_Dist_200_LN_4_LD_10_RN_3_RD_15_0.png","C_Dist_200_LN_4_LD_8_RN_3_RD_10_0.png","C_Dist_200_LN_6_LD_15_RN_3_RD_15_0.png","C_Dist_200_LN_7_LD_21_RN_2_RD_15_0.png","C_Dist_200_LN_8_LD_15_RN_2_RD_6_0.png","C_Dist_200_LN_8_LD_15_RN_3_RD_9_0.png","C_Dist_200_LN_8_LD_15_RN_7_RD_21_0.png","C_Dist_200_LN_9_LD_20_RN_4_RD_16_0.png"],["C_Dist_200_LN_1_LD_2_RN_21_RD_30_1.png","C_Dist_200_LN_13_LD_26_RN_14_RD_20_1.png","C_Dist_200_LN_3_LD_10_RN_11_RD_22_1.png","C_Dist_200_LN_3_LD_10_RN_14_RD_28_1.png","C_Dist_200_LN_3_LD_10_RN_7_RD_14_1.png","C_Dist_200_LN_3_LD_12_RN_9_RD_20_1.png","C_Dist_200_LN_3_LD_6_RN_14_RD_20_1.png","C_Dist_200_LN_5_LD_10_RN_14_RD_20_1.png","C_Dist_200_LN_6_LD_12_RN_7_RD_10_1.png","C_Dist_200_LN_6_LD_20_RN_11_RD_22_1.png","C_Dist_200_LN_7_LD_15_RN_18_RD_27_1.png","C_Dist_200_LN_9_LD_30_RN_13_RD_26_1.png"]],"dist200_I":[["I_Dist_200_LN_1_LD_2_RN_3_RD_10_0.png","I_Dist_200_LN_1_LD_3_RN_2_RD_15_0.png","I_Dist_200_LN_3_LD_4_RN_11_RD_20_0.png","I_Dist_200_LN_4_LD_5_RN_6_RD_10_0.png","I_Dist_200_LN_4_LD_6_RN_14_RD_30_0.png","I_Dist_200_LN_7_LD_10_RN_12_RD_24_0.png","I_Dist_200_LN_7_LD_10_RN_14_RD_28_0.png","I_Dist_200_LN_7_LD_10_RN_8_RD_16_0.png"],["I_Dist_200_LN_11_LD_20_RN_3_RD_4_1.png","I_Dist_200_LN_14_LD_30_RN_12_RD_18_1.png","I_Dist_200_LN_14_LD_30_RN_6_RD_9_1.png","I_Dist_200_LN_3_LD_10_RN_1_RD_2_1.png","I_Dist_200_LN_4_LD_30_RN_1_RD_3_1.png","I_Dist_200_LN_6_LD_20_RN_3_RD_6_1.png","I_Dist_200_LN_7_LD_15_RN_4_RD_6_1.png","I_Dist_200_LN_7_LD_15_RN_6_RD_9_1.png","I_Dist_200_LN_9_LD_15_RN_8_RD_10_1.png"]],"dist200_S":[["E_Dist_200_LN_3_LD_6_RN_3_RD_10_0.png"],["E_Dist_200_LN_3_LD_10_RN_3_RD_6_1.png"]],"dist300_C":[["C_Dist_300_LN_11_LD_22_RN_1_RD_5_0.png","C_Dist_300_LN_11_LD_22_RN_2_RD_10_0.png","C_Dist_300_LN_11_LD_22_RN_4_RD_20_0.png","C_Dist_300_LN_12_LD_24_RN_2_RD_10_0.png","C_Dist_300_LN_18_LD_20_RN_9_RD_15_0.png","C_Dist_300_LN_20_LD_25_RN_13_RD_26_0.png","C_Dist_300_LN_20_LD_25_RN_14_RD_28_0.png","C_Dist_300_LN_20_LD_25_RN_5_RD_10_0.png","C_Dist_300_LN_20_LD_25_RN_8_RD_16_0.png","C_Dist_300_LN_20_LD_25_RN_9_RD_18_0.png","C_Dist_300_LN_24_LD_30_RN_2_RD_4_0.png","C_Dist_300_LN_24_LD_30_RN_8_RD_16_0.png","C_Dist_300_LN_3_LD_6_RN_2_RD_10_0.png","C_Dist_300_LN_4_LD_10_RN_1_RD_10_0.png","C_Dist_300_LN_4_LD_5_RN_2_RD_4_0.png","C_Dist_300_LN_8_LD_16_RN_1_RD_5_0.png","C_Dist_300_LN_9_LD_10_RN_3_RD_5_0.png"],["C_Dist_300_LN_1_LD_20_RN_7_RD_20_1.png","C_Dist_300_LN_1_LD_3_RN_19_RD_30_1.png","C_Dist_300_LN_1_LD_30_RN_8_RD_24_1.png","C_Dist_300_LN_1_LD_5_RN_11_RD_22_1.png","C_Dist_300_LN_1_LD_5_RN_3_RD_6_1.png","C_Dist_300_LN_1_LD_5_RN_6_RD_12_1.png","C_Dist_300_LN_2_LD_10_RN_12_RD_24_1.png","C_Dist_300_LN_2_LD_20_RN_10_RD_25_1.png","C_Dist_300_LN_3_LD_12_RN_11_RD_20_1.png","C_Dist_300_LN_3_LD_6_RN_4_RD_5_1.png","C_Dist_300_LN_4_LD_20_RN_13_RD_26_1.png","C_Dist_300_LN_5_LD_25_RN_6_RD_12_1.png","C_Dist_300_LN_5_LD_25_RN_7_RD_14_1.png","C_Dist_300_LN_7_LD_14_RN_20_RD_25_1.png","C_Dist_300_LN_8_LD_15_RN_10_RD_12_1.png"]],"dist300_I":[["I_Dist_300_LN_1_LD_2_RN_2_RD_10_0.png","I_Dist_300_LN_1_LD_2_RN_3_RD_15_0.png","I_Dist_300_LN_2_LD_4_RN_6_RD_30_0.png","I_Dist_300_LN_3_LD_6_RN_4_RD_20_0.png","I_Dist_300_LN_4_LD_5_RN_6_RD_12_0.png","I_Dist_300_LN_4_LD_5_RN_8_RD_16_0.png","I_Dist_300_LN_7_LD_10_RN_8_RD_20_0.png","I_Dist_300_LN_8_LD_10_RN_14_RD_28_0.png","I_Dist_300_LN_8_LD_10_RN_9_RD_18_0.png"],["I_Dist_300_LN_13_LD_26_RN_12_RD_15_1.png","I_Dist_300_LN_4_LD_20_RN_2_RD_4_1.png"]],"dist300_S":[["E_Dist_300_LN_9_LD_12_RN_9_RD_20_0.png"],["E_Dist_300_LN_18_LD_30_RN_18_RD_20_1.png","E_Dist_300_LN_3_LD_10_RN_3_RD_5_1.png","E_Dist_300_LN_9_LD_20_RN_9_RD_12_1.png"]],"dist500_C":[["C_Dist_500_LN_10_LD_13_RN_7_RD_26_0.png","C_Dist_500_LN_10_LD_15_RN_4_RD_24_0.png","C_Dist_500_LN_12_LD_16_RN_3_RD_12_0.png","C_Dist_500_LN_12_LD_18_RN_4_RD_24_0.png","C_Dist_500_LN_15_LD_18_RN_5_RD_15_0.png","C_Dist_500_LN_15_LD_20_RN_1_RD_4_0.png","C_Dist_500_LN_18_LD_27_RN_1_RD_6_0.png","C_Dist_500_LN_20_LD_24_RN_1_RD_3_0.png","C_Dist_500_LN_20_LD_24_RN_3_RD_9_0.png","C_Dist_500_LN_20_LD_24_RN_7_RD_21_0.png","C_Dist_500_LN_20_LD_28_RN_3_RD_14_0.png","C_Dist_500_LN_21_LD_28_RN_6_RD_24_0.png","C_Dist_500_LN_22_LD_28_RN_2_RD_7_0.png","C_Dist_500_LN_25_LD_30_RN_9_RD_27_0.png","C_Dist_500_LN_4_LD_6_RN_1_RD_6_0.png","C_Dist_500_LN_5_LD_6_RN_2_RD_6_0.png","C_Dist_500_LN_6_LD_9_RN_1_RD_6_0.png","C_Dist_500_LN_7_LD_10_RN_1_RD_5_0.png","C_Dist_500_LN_8_LD_12_RN_1_RD_6_0.png","C_Dist_500_LN_8_LD_12_RN_4_RD_24_0.png"],["C_Dist_500_LN_1_LD_4_RN_12_RD_16_1.png","C_Dist_500_LN_1_LD_4_RN_9_RD_12_1.png","C_Dist_500_LN_1_LD_9_RN_11_RD_18_1.png","C_Dist_500_LN_10_LD_24_RN_22_RD_24_1.png","C_Dist_500_LN_2_LD_12_RN_10_RD_15_1.png","C_Dist_500_LN_2_LD_12_RN_12_RD_18_1.png","C_Dist_500_LN_2_LD_12_RN_4_RD_6_1.png","C_Dist_500_LN_2_LD_24_RN_7_RD_12_1.png","C_Dist_500_LN_2_LD_5_RN_18_RD_20_1.png","C_Dist_500_LN_2_LD_5_RN_9_RD_10_1.png","C_Dist_500_LN_2_LD_8_RN_12_RD_16_1.png","C_Dist_500_LN_2_LD_8_RN_21_RD_28_1.png","C_Dist_500_LN_3_LD_10_RN_4_RD_5_1.png","C_Dist_500_LN_3_LD_12_RN_15_RD_20_1.png","C_Dist_500_LN_3_LD_30_RN_6_RD_10_1.png","C_Dist_500_LN_3_LD_8_RN_14_RD_16_1.png","C_Dist_500_LN_4_LD_16_RN_15_RD_20_1.png","C_Dist_500_LN_4_LD_24_RN_12_RD_18_1.png","C_Dist_500_LN_5_LD_14_RN_6_RD_7_1.png","C_Dist_500_LN_7_LD_21_RN_20_RD_24_1.png","C_Dist_500_LN_7_LD_28_RN_12_RD_16_1.png","C_Dist_500_LN_7_LD_28_RN_9_RD_12_1.png","C_Dist_500_LN_9_LD_27_RN_20_RD_24_1.png"]],"dist500_I":[["I_Dist_500_LN_2_LD_3_RN_4_RD_24_0.png","I_Dist_500_LN_5_LD_6_RN_6_RD_18_0.png","I_Dist_500_LN_7_LD_8_RN_9_RD_24_0.png"],["I_Dist_500_LN_7_LD_21_RN_5_RD_6_1.png"]],"dist500_S":[["E_Dist_500_LN_6_LD_8_RN_6_RD_24_0.png"],["E_Dist_500_LN_2_LD_12_RN_2_RD_3_1.png","E_Dist_500_LN_6_LD_24_RN_6_RD_8_1.png"]]}},{"start_time":1551886987490,"click_time":1551886993354,"finger_time":1551886988074,"fix_duration":1135.5669483626189,"trial":1,"RT":584,"MT":5280,"sideResp":1,"stimulus":[],"xmouse":[781,781,781,781,781,781,781,781,781,780,780,780,779,779,779,779,779,778,778,778,778,777,777,776,775,775,773,770,766,739,725,718,714,714,714,714,714,714,714,714,714,714,714,714,714,714,714,717,721,733,739,744,747,752,755,755,755,755,755,755,755,755,755,755,755,755,755,755,757,758,759,760,760,760,760,760,760,760,760,760,760,760,761,763,772,775,777,778,778,778,778,778,778,778,778,778,778,778,778,778,778,778,778,778,778,778,778,778,780,780,782,782,782,782,782,782,782,782,782,782,782,782,782,782,782,782,782,782,782,782,782,782,782,782,782,782,782,782,782,782,782,782,782,782,782,782,782,782,782,782,782,782,782,782,782,782,782,782,782,782,782,782,782,782,782,782,782,782,782,782,780,780,779,779,779,779,779,779,779,779,779,779,779,779,779,779,778,777,777,777,777,777,777,777,777,777,777,776,776,776,776,775,775,775,773,766,754,734,711,668,661,660,660,660,660,660,660,660,660,662,662,662,662,662,659,659,661,667,675,704,721,740,766,773,785,786,788,791,797,812,823,836,853,890,980,1036,1083,1109,1117,1118,1109,1082,1024,752,584,422,323,266,246,251,275,326,410,592,853,966,1061,1115,1140,1149,1148,1130,1081,924,597,463,380,369,367,365,365,365,365,364,365,366,369,374,375,377,382,397,424,486],"ymouse":[533,534,534,534,534,534,534,534,534,534,534,535,536,536,536,536,536,537,537,537,537,537,537,537,537,537,537,537,537,540,540,540,540,540,540,540,540,540,540,540,540,540,540,540,540,540,540,540,542,546,548,548,548,548,548,548,548,548,548,548,548,548,548,548,548,548,548,548,548,548,548,548,547,547,547,547,547,547,547,547,547,547,546,545,544,543,543,543,543,543,543,543,543,543,543,543,543,543,543,543,543,543,543,543,543,543,543,543,542,541,539,539,539,539,539,539,539,539,539,539,539,539,539,539,539,539,539,539,539,539,539,539,539,539,539,539,539,538,538,538,538,538,538,538,538,538,538,538,538,538,538,538,538,538,538,538,538,538,538,538,538,538,538,538,538,538,538,538,538,538,538,538,539,539,539,540,540,540,540,540,540,540,540,540,540,540,540,540,540,540,540,540,540,540,540,540,540,539,538,535,531,530,528,526,515,501,484,460,433,380,368,365,364,364,364,364,364,362,362,352,347,344,343,343,358,371,384,395,408,435,448,465,485,490,497,497,497,495,490,476,468,458,446,423,372,340,315,300,296,295,298,307,318,292,241,186,130,94,73,60,57,57,60,98,165,196,223,237,246,249,249,249,247,216,146,114,96,94,96,97,97,97,97,95,91,90,88,86,85,85,85,85,85,90],"timestamp_mouse":[9,33,43,63,83,104,123,144,165,183,203,224,243,263,285,303,323,344,364,383,404,424,444,463,485,503,524,544,564,584,603,623,643,664,684,703,724,743,763,784,804,824,843,865,884,903,924,943,964,983,1004,1024,1043,1063,1085,1104,1123,1143,1163,1183,1204,1224,1245,1263,1284,1305,1323,1344,1365,1383,1403,1424,1444,1463,1483,1504,1525,1543,1563,1585,1603,1623,1644,1664,1683,1703,1724,1744,1765,1783,1804,1824,1845,1863,1884,1903,1923,1944,1965,1983,2004,2024,2044,2063,2084,2103,2123,2144,2163,2183,2203,2224,2244,2264,2283,2304,2325,2344,2363,2383,2404,2424,2443,2465,2483,2503,2525,2543,2563,2583,2604,2624,2645,2663,2684,2704,2724,2744,2763,2783,2803,2823,2844,2863,2883,2903,2923,2944,2963,2983,3003,3023,3043,3063,3084,3103,3123,3144,3163,3184,3205,3223,3244,3265,3283,3304,3325,3343,3363,3385,3405,3423,3443,3465,3484,3504,3523,3543,3564,3583,3603,3623,3644,3663,3683,3703,3724,3743,3763,3783,3803,3824,3843,3864,3885,3903,3923,3944,3963,3983,4003,4023,4044,4064,4083,4104,4123,4144,4163,4183,4203,4223,4243,4263,4283,4303,4325,4344,4364,4384,4404,4423,4443,4464,4485,4503,4523,4544,4564,4583,4603,4624,4644,4664,4683,4703,4724,4744,4764,4783,4803,4823,4843,4865,4884,4903,4923,4944,4963,4983,5003,5023,5045,5065,5083,5104,5124,5143,5163,5183,5205,5224,5243,5263,5283,5303,5324,5344,5364,5383,5404,5424,5443,5464,5485,5504,5524,5543,5564,5583,5604,5624,5644,5663,5683,5704,5725,5744,5764,5784,5803,5823,5845,5864],"xSR":741.5,"ySR":501.8,"xT1":424.9,"yT1":0,"xT2":1058.1,"yT2":0,"toosoon":0,"cond_shown":"Incongruent","ratio_trial":300,"L_num":13,"L_den":26,"R_num":12,"R_den":15,"correct_side":2,"subjID":"maria_alejandra_medina_contreras_38","gender":"1","school":"sexto","age":"11"},{"start_time":1551886996586,"click_time":1551886999594,"finger_time":1551886998673,"fix_duration":250,"trial":2,"RT":2087,"MT":921,"sideResp":1,"stimulus":[],"xmouse":[787,787,787,787,787,787,787,787,787,787,787,787,787,787,787,787,787,787,787,787,787,787,787,787,787,787,787,787,787,787,787,787,787,787,787,787,787,787,787,787,787,787,787,787,787,786,786,786,786,786,786,786,786,786,786,786,786,786,786,786,786,786,786,786,786,786,786,786,786,786,786,786,786,786,786,786,786,786,786,786,787,788,788,788,788,788,788,788,788,788,788,788,788,788,788,788,788,788,788,787,788,798,811,825,849,858,868,876,885,895,896,898,899,899,899,897,894,893,892,892,891,890,887,880,822,760,679,572,535,522,522,522,524,526,534,539,546,554,558,562,562,561,557,553,550,549,547,540,535,526,522],"ymouse":[564,564,564,564,564,564,564,564,564,564,564,564,564,564,564,564,564,564,564,564,564,564,564,564,564,564,564,564,564,564,564,564,564,564,564,564,564,564,564,564,564,564,564,564,564,565,565,565,565,565,565,565,565,565,565,565,565,565,565,565,565,565,565,565,565,565,565,565,565,565,565,565,565,565,565,565,565,565,564,559,554,551,547,546,546,546,546,546,546,546,546,546,546,546,546,546,546,546,546,546,545,538,529,519,496,485,470,456,434,414,410,407,406,403,398,394,390,384,374,357,348,341,336,329,305,288,264,233,217,212,212,211,209,205,191,183,171,151,138,114,105,95,90,85,82,82,82,80,79,77,75],"timestamp_mouse":[10,36,47,69,88,107,128,148,167,188,207,228,248,267,289,307,328,347,369,388,407,428,447,467,487,507,527,547,568,587,607,627,648,667,688,707,727,747,767,787,807,828,848,867,887,907,929,949,968,987,1008,1027,1047,1068,1089,1108,1128,1148,1169,1187,1207,1227,1247,1267,1288,1307,1327,1347,1368,1388,1408,1427,1447,1467,1487,1507,1527,1547,1567,1587,1607,1627,1647,1667,1687,1707,1727,1747,1767,1787,1807,1827,1847,1867,1887,1907,1927,1947,1967,1987,2007,2027,2047,2067,2087,2108,2127,2147,2168,2187,2207,2229,2248,2269,2287,2307,2327,2347,2368,2388,2407,2429,2448,2468,2487,2508,2528,2547,2567,2587,2607,2628,2647,2667,2687,2708,2728,2747,2767,2788,2807,2828,2847,2867,2887,2908,2928,2947,2967,2987,3008],"xSR":741.5,"ySR":501.8,"xT1":424.9,"yT1":0,"xT2":1058.1,"yT2":0,"toosoon":0,"cond_shown":"Incongruent","ratio_trial":300,"L_num":2,"L_den":4,"R_num":6,"R_den":30,"correct_side":1,"subjID":"maria_alejandra_medina_contreras_38","gender":"1","school":"sexto","age":"11"},{"start_time":1551887002014,"click_time":1551887004634,"finger_time":1551887003773,"fix_duration":1099.9745362931387,"trial":3,"RT":1759,"MT":861,"sideResp":1,"stimulus":[],"xmouse":[783,783,783,784,784,784,784,784,784,784,784,784,784,784,784,784,784,784,784,784,784,784,784,784,784,784,784,784,784,784,784,784,784,784,784,784,784,784,784,784,784,784,784,784,784,785,785,785,785,785,785,785,785,785,785,785,785,785,785,785,785,785,785,785,785,785,785,785,785,785,785,785,785,785,785,785,785,785,785,785,785,785,785,785,785,785,784,767,756,744,730,703,632,601,582,566,564,558,557,557,557,557,550,546,540,532,521,505,497,487,480,474,470,470,470,470,470,472,473,473,474,475,476,477,477,478,478,478,478,478,478],"ymouse":[532,532,532,532,532,532,533,534,534,535,535,535,535,535,535,535,536,536,536,536,536,536,536,536,536,536,537,537,538,538,538,538,538,538,538,538,538,538,538,538,538,538,538,538,538,539,539,539,539,539,539,539,539,539,539,539,539,539,539,539,539,539,539,539,539,539,539,539,539,539,539,539,539,539,539,539,539,539,539,539,539,539,539,539,539,535,532,500,483,465,441,402,323,290,268,247,243,228,225,220,213,205,181,171,160,149,138,126,121,115,110,106,102,102,102,102,102,101,101,101,101,101,101,101,100,100,100,100,100,100,99],"timestamp_mouse":[19,39,59,79,101,120,140,159,179,199,219,239,261,280,299,319,340,360,380,400,420,439,459,479,499,519,539,560,579,599,619,639,659,679,700,721,741,760,781,799,820,839,861,880,900,921,940,959,979,999,1020,1040,1060,1079,1099,1120,1139,1159,1179,1201,1219,1240,1259,1280,1300,1319,1339,1361,1380,1400,1421,1439,1460,1480,1499,1519,1539,1559,1579,1600,1621,1639,1659,1681,1700,1720,1740,1759,1780,1799,1821,1840,1859,1879,1899,1920,1940,1961,1980,1999,2019,2041,2060,2081,2100,2119,2141,2159,2179,2199,2220,2241,2261,2280,2300,2320,2340,2359,2379,2400,2421,2440,2459,2480,2500,2519,2539,2560,2580,2600,2620],"xSR":741.5,"ySR":501.8,"xT1":424.9,"yT1":0,"xT2":1058.1,"yT2":0,"toosoon":0,"cond_shown":"Congruent","ratio_trial":100,"L_num":11,"L_den":22,"R_num":4,"R_den":10,"correct_side":1,"subjID":"maria_alejandra_medina_contreras_38","gender":"1","school":"sexto","age":"11"},{"start_time":1551887006914,"click_time":1551887016273,"finger_time":1551887008694,"fix_duration":1059.1020864703,"trial":4,"RT":1780,"MT":7579,"sideResp":1,"stimulus":[],"xmouse":[770,770,770,770,770,770,770,770,770,770,770,770,770,770,770,770,770,770,770,770,771,772,772,772,773,773,773,773,773,773,773,773,773,773,773,773,773,773,773,773,773,773,773,773,773,773,773,773,773,773,773,773,773,773,773,773,773,773,773,773,773,773,773,773,773,773,773,773,773,773,773,773,773,773,773,773,773,773,773,773,773,773,773,773,774,778,794,838,867,889,908,929,945,949,951,951,951,951,951,951,951,951,950,949,949,949,949,949,949,949,949,949,949,949,949,949,949,949,946,936,921,892,854,835,816,802,793,787,786,785,784,780,763,745,721,691,649,582,565,558,557,557,557,557,564,579,601,667,702,742,769,789,792,801,810,818,828,833,837,841,843,843,840,818,778,718,655,585,580,580,584,587,603,623,653,697,754,881,935,963,977,979,972,960,942,919,889,827,799,772,750,723,710,710,710,711,718,752,787,839,888,944,973,974,976,977,979,985,988,989,989,988,982,978,975,966,951,912,888,864,841,814,790,784,782,782,782,796,813,842,912,974,1092,1141,1182,1212,1227,1229,1229,1229,1228,1228,1219,1212,1203,1187,1164,1067,1014,965,933,910,887,886,886,886,886,886,886,886,885,884,873,867,862,859,858,858,858,858,862,876,894,901,904,906,906,906,902,892,884,876,874,874,874,874,874,874,874,874,874,874,874,874,874,874,874,875,875,875,875,875,875,875,875,874,873,872,872,872,872,872,872,872,871,871,871,872,873,875,876,878,884,886,888,890,891,894,894,894,894,894,892,891,890,890,890,890,890,890,890,890,890,890,890,890,890,890,890,890,892,892,894,894,895,896,897,898,898,898,898,898,898,898,898,898,898,895,894,894,894,894,894,894,894,894,894,894,894,894,894,894,894,894,894,895,898,905,907,909,910,910,910,910,910,910,912,914,916,918,918,918,918,918,918,918,918,918,918,918,918,918,918,918,918,918,918,918,918,918,918,918,921,923,925,927,928,929,929,929,929,929,929,930,933,936,939,941,941,941,941,941,942,942,942,943,943,943,943,943,943,943,944,944,944,943,922,880,814,725,667,610,596,586,572,559,535,485],"ymouse":[523,523,523,523,523,523,523,523,523,523,523,523,523,523,523,523,523,523,523,523,523,523,523,523,523,523,523,523,523,523,523,523,523,523,523,523,523,523,523,523,523,523,523,523,523,523,523,523,523,523,523,523,523,523,523,523,523,523,523,523,523,523,523,523,523,523,523,523,523,523,523,523,523,523,523,523,523,523,523,523,523,523,523,523,523,522,520,506,488,467,444,402,354,341,335,333,332,332,332,332,332,332,331,330,329,329,328,326,325,325,325,325,325,325,325,325,325,325,324,324,324,319,313,308,300,289,284,281,280,280,280,280,275,270,262,253,240,225,223,222,222,222,222,223,227,229,232,234,234,233,229,225,224,223,221,221,220,220,219,219,219,219,218,213,207,199,189,179,179,179,178,178,178,179,186,199,215,251,265,270,271,271,260,252,245,236,228,216,216,216,216,218,224,224,225,227,230,241,246,252,259,266,266,266,266,265,263,259,255,254,253,249,248,247,247,247,247,247,247,248,252,259,270,273,275,275,276,281,283,287,296,304,322,329,334,338,340,341,341,341,340,339,334,331,326,319,309,269,249,236,230,228,228,228,228,228,228,228,228,228,229,232,250,259,267,273,276,276,276,277,275,264,249,242,240,240,240,240,244,253,266,276,278,278,278,278,277,273,273,273,273,273,273,273,272,272,269,267,267,267,267,267,267,267,268,272,276,280,281,281,281,281,281,281,281,281,281,279,277,273,271,269,261,259,255,253,251,248,248,248,248,248,251,254,259,261,262,262,262,262,262,262,262,262,262,262,262,262,262,262,261,260,260,259,259,258,256,256,256,256,256,256,256,256,256,256,257,263,265,266,266,266,266,266,266,266,266,266,267,268,270,271,273,273,274,274,274,273,272,272,272,272,272,272,272,272,272,273,276,280,282,284,285,285,285,285,285,285,285,285,285,285,285,285,285,285,285,285,285,285,285,286,294,299,302,308,312,318,320,320,320,320,320,321,320,317,315,314,314,314,314,314,313,313,313,313,313,313,313,313,313,313,313,310,306,300,271,246,212,173,150,129,125,123,119,110,100,71],"timestamp_mouse":[20,41,59,79,100,121,140,159,181,199,220,240,260,279,300,321,339,359,381,400,420,441,459,480,499,519,540,559,580,600,619,640,659,679,699,720,741,759,779,800,820,840,859,879,899,921,939,959,980,999,1020,1039,1059,1079,1099,1119,1140,1159,1180,1199,1220,1240,1261,1279,1299,1319,1339,1361,1379,1399,1421,1440,1460,1479,1500,1520,1541,1559,1580,1601,1619,1639,1659,1679,1700,1720,1739,1760,1780,1800,1819,1840,1860,1880,1900,1920,1939,1959,1980,2001,2020,2041,2059,2080,2099,2120,2141,2160,2180,2200,2220,2239,2259,2279,2301,2319,2339,2359,2379,2400,2419,2439,2459,2479,2500,2520,2539,2559,2579,2600,2620,2640,2660,2680,2699,2719,2740,2759,2779,2799,2819,2839,2859,2879,2899,2920,2939,2960,2980,2999,3021,3041,3059,3079,3099,3119,3141,3159,3180,3199,3220,3239,3259,3279,3299,3320,3339,3359,3379,3400,3419,3440,3461,3480,3500,3519,3540,3559,3580,3599,3619,3640,3660,3679,3700,3719,3739,3759,3781,3799,3819,3840,3859,3879,3901,3919,3939,3959,3979,3999,4020,4039,4059,4079,4099,4119,4140,4159,4180,4200,4220,4239,4259,4280,4301,4319,4340,4359,4380,4399,4419,4439,4460,4480,4500,4520,4539,4559,4580,4600,4619,4639,4660,4679,4699,4721,4740,4760,4779,4801,4820,4839,4859,4879,4899,4919,4939,4959,4979,5001,5019,5040,5059,5079,5100,5119,5141,5159,5179,5200,5220,5239,5259,5280,5299,5319,5340,5359,5379,5400,5421,5439,5459,5480,5500,5519,5539,5559,5579,5599,5619,5640,5659,5679,5700,5720,5740,5759,5780,5799,5819,5839,5860,5880,5899,5921,5940,5959,5980,5999,6020,6040,6060,6079,6100,6120,6141,6160,6179,6200,6219,6240,6261,6280,6300,6319,6340,6359,6381,6401,6419,6440,6459,6480,6500,6519,6540,6560,6580,6600,6620,6640,6659,6680,6699,6719,6739,6760,6780,6799,6819,6839,6860,6880,6900,6920,6940,6960,6980,7000,7020,7040,7060,7079,7100,7119,7139,7160,7179,7199,7220,7239,7259,7280,7299,7319,7339,7359,7380,7401,7420,7440,7459,7479,7500,7519,7539,7559,7581,7599,7619,7639,7659,7679,7699,7721,7740,7759,7779,7800,7819,7840,7859,7879,7900,7919,7940,7959,7979,7999,8020,8040,8061,8080,8099,8119,8139,8160,8180,8200,8220,8239,8260,8279,8299,8320,8341,8360,8379,8399,8419,8440,8460,8480,8500,8520,8539,8559,8579,8599,8619,8639,8660,8679,8700,8719,8740,8760,8779,8800,8819,8840,8859,8880,8899,8920,8940,8960,8980,8999,9019,9040,9059,9080,9099,9119,9141,9159,9179,9200,9219,9241,9259,9280,9299,9319,9340,9359],"xSR":741.5,"ySR":501.8,"xT1":424.9,"yT1":0,"xT2":1058.1,"yT2":0,"toosoon":0,"cond_shown":"Incongruent","ratio_trial":200,"L_num":4,"L_den":30,"R_num":1,"R_den":3,"correct_side":2,"subjID":"maria_alejandra_medina_contreras_38","gender":"1","school":"sexto","age":"11"},{"start_time":1551887020929,"click_time":1551887023174,"finger_time":1551887022735,"fix_duration":1372.834484939967,"trial":5,"RT":1806,"MT":439,"sideResp":2,"stimulus":[],"xmouse":[778,778,778,778,778,778,778,778,778,778,778,778,778,778,778,778,778,778,778,778,778,778,778,778,778,778,778,778,778,778,778,778,778,778,778,778,778,778,778,778,778,778,778,778,778,778,778,778,778,778,778,778,778,778,778,778,778,778,778,778,778,778,778,778,778,778,778,778,778,778,778,778,778,778,778,778,778,778,778,778,778,778,778,778,778,778,778,778,793,830,871,914,931,933,933,927,927,930,932,934,938,948,973,987,1000,1009,1018,1041,1051,1062,1071,1078,1091],"ymouse":[570,565,564,564,564,564,564,564,564,564,564,564,564,564,564,564,564,564,564,564,564,564,564,564,564,564,564,564,564,564,564,564,564,564,564,564,564,564,564,564,564,564,564,564,564,564,564,564,564,564,564,564,564,564,564,564,564,564,564,564,564,564,564,564,564,564,564,564,564,564,564,564,564,564,564,564,564,564,564,564,564,564,564,564,564,564,564,564,556,532,501,462,405,363,311,252,205,179,177,176,174,169,156,150,146,142,138,129,125,119,114,110,95],"timestamp_mouse":[4,25,44,65,84,104,125,144,164,184,205,224,245,264,284,305,325,345,364,385,404,425,445,465,484,505,525,546,565,584,606,624,644,664,684,704,724,745,765,785,806,824,845,865,884,904,925,944,965,984,1004,1026,1044,1064,1084,1105,1125,1145,1164,1184,1205,1224,1244,1264,1284,1304,1324,1344,1366,1384,1404,1424,1445,1464,1484,1505,1524,1546,1565,1586,1605,1624,1644,1665,1686,1704,1725,1745,1764,1784,1806,1825,1845,1865,1885,1905,1925,1944,1964,1985,2004,2025,2045,2065,2086,2106,2125,2145,2166,2184,2204,2225,2245],"xSR":741.5,"ySR":501.8,"xT1":424.9,"yT1":0,"xT2":1058.1,"yT2":0,"toosoon":0,"cond_shown":"Congruent","ratio_trial":100,"L_num":3,"L_den":20,"R_num":4,"R_den":16,"correct_side":2,"subjID":"maria_alejandra_medina_contreras_38","gender":"1","school":"sexto","age":"11"},{"start_time":1551887024726,"click_time":1551887027074,"finger_time":1551887026755,"fix_duration":250,"trial":6,"RT":2029,"MT":319,"sideResp":2,"stimulus":[],"xmouse":[780,781,782,784,785,786,788,788,788,788,788,788,788,788,788,788,788,788,788,788,788,788,788,788,788,788,788,788,788,788,788,788,788,788,788,788,788,788,788,788,788,788,788,788,788,788,788,788,788,788,788,788,788,788,788,788,788,788,788,788,788,788,788,788,788,788,788,788,788,788,788,788,788,788,788,788,788,788,788,788,788,788,788,788,788,788,788,788,788,788,788,788,788,788,788,788,788,788,797,811,840,873,925,938,954,970,998,1010,1021,1031,1037,1042,1050,1050,1051,1054,1057,1063],"ymouse":[556,555,554,551,550,550,547,547,547,547,547,547,547,547,547,547,547,547,547,547,547,547,547,547,547,547,547,547,547,547,547,547,547,547,547,547,547,547,547,547,547,547,547,547,547,547,547,547,547,547,547,547,547,547,547,547,547,547,547,547,547,547,547,547,547,547,547,547,547,547,547,547,547,547,547,547,547,547,547,547,547,547,547,547,547,547,547,547,547,547,547,547,547,547,547,547,547,547,543,537,524,504,461,437,411,381,335,315,295,276,258,238,191,170,149,132,115,93],"timestamp_mouse":[8,28,47,68,88,107,129,147,168,187,207,228,247,269,288,307,328,347,368,387,407,427,448,467,488,508,528,547,568,588,607,629,647,667,689,708,729,747,767,787,807,827,847,868,889,908,929,947,967,987,1008,1027,1048,1067,1089,1108,1129,1147,1167,1187,1209,1228,1248,1269,1287,1307,1327,1347,1367,1388,1407,1428,1449,1467,1487,1507,1529,1547,1568,1589,1609,1628,1647,1667,1688,1708,1728,1748,1767,1787,1807,1827,1847,1867,1887,1907,1927,1947,1968,1988,2007,2029,2047,2067,2088,2107,2129,2147,2168,2187,2207,2227,2248,2268,2288,2308,2328,2347],"xSR":741.5,"ySR":501.8,"xT1":424.9,"yT1":0,"xT2":1058.1,"yT2":0,"toosoon":0,"cond_shown":"Congruent","ratio_trial":100,"L_num":2,"L_den":5,"R_num":11,"R_den":22,"correct_side":2,"subjID":"maria_alejandra_medina_contreras_38","gender":"1","school":"sexto","age":"11"},{"start_time":1551887028545,"click_time":1551887030873,"finger_time":1551887030453,"fix_duration":250,"trial":7,"RT":1908,"MT":420,"sideResp":1,"stimulus":[],"xmouse":[800,800,800,800,800,800,800,800,800,800,800,800,800,800,800,800,800,800,800,800,800,800,800,800,800,800,800,800,800,800,800,800,800,800,800,800,800,800,800,800,800,800,800,800,800,800,800,800,800,800,800,800,800,800,800,800,800,800,800,800,800,800,800,800,800,800,800,800,800,800,800,800,800,800,800,800,800,800,800,800,800,800,800,800,800,800,800,800,800,800,800,800,800,799,797,791,751,716,674,631,585,560,559,559,559,559,559,559,560,561,562,562,562,560,551,539,512],"ymouse":[516,516,516,516,516,516,516,516,516,516,516,516,516,516,516,516,516,516,516,516,516,516,516,516,516,516,516,516,516,516,516,516,516,516,516,516,516,516,516,516,516,516,516,516,516,516,516,516,516,516,516,516,516,516,516,516,516,516,516,516,516,516,516,516,516,516,516,516,516,516,516,516,516,516,516,516,516,516,516,516,516,516,516,516,516,516,516,516,516,516,516,516,516,512,504,482,377,306,234,171,99,50,45,44,43,43,43,43,42,42,41,41,41,40,40,45,58],"timestamp_mouse":[8,42,49,68,89,109,129,149,170,189,208,228,248,269,289,308,328,349,368,389,409,429,449,468,488,509,529,550,568,588,610,630,648,669,688,710,729,748,768,789,809,829,848,868,890,909,929,949,969,989,1009,1028,1049,1069,1089,1109,1128,1149,1168,1190,1208,1228,1250,1270,1289,1308,1328,1349,1369,1389,1410,1428,1449,1470,1489,1508,1530,1548,1569,1588,1610,1629,1649,1668,1689,1709,1728,1748,1768,1788,1808,1828,1849,1868,1889,1908,1928,1948,1968,1989,2009,2028,2049,2068,2089,2108,2128,2148,2169,2189,2208,2228,2248,2270,2288,2309,2328],"xSR":741.5,"ySR":501.8,"xT1":424.9,"yT1":0,"xT2":1058.1,"yT2":0,"toosoon":0,"cond_shown":"Congruent","ratio_trial":100,"L_num":15,"L_den":25,"R_num":13,"R_den":26,"correct_side":1,"subjID":"maria_alejandra_medina_contreras_38","gender":"1","school":"sexto","age":"11"},{"start_time":1551887033573,"click_time":1551887035713,"finger_time":1551887034933,"fix_duration":1338.4276462091345,"trial":8,"RT":1360,"MT":780,"sideResp":1,"stimulus":[],"xmouse":[784,784,784,784,784,784,784,785,785,785,785,785,785,785,785,785,785,785,785,785,785,785,785,785,785,785,785,785,785,785,785,785,785,785,785,786,786,786,786,786,786,786,786,786,786,786,786,786,786,786,786,786,786,786,786,786,786,786,786,786,786,786,786,786,785,781,777,770,758,728,675,640,609,594,584,570,565,563,561,559,556,555,554,554,554,554,554,554,554,554,554,554,554,554,554,552,549,546,544,540,537,535,534,533,530,517,508,496],"ymouse":[531,531,531,532,532,532,532,533,533,533,533,533,533,533,533,533,533,533,533,533,533,533,533,533,533,533,533,533,533,533,533,533,533,533,533,534,534,534,534,534,534,534,535,536,536,536,536,536,536,536,536,536,536,536,536,536,536,536,536,536,536,536,536,537,537,534,528,519,500,462,396,354,316,293,274,236,224,215,207,198,191,189,188,188,188,188,188,188,188,188,188,188,188,188,187,181,175,170,165,159,155,154,152,150,146,129,115,98],"timestamp_mouse":[10,21,40,60,80,100,121,141,160,180,200,221,240,260,281,301,320,341,362,381,401,421,441,460,480,501,521,541,561,580,600,621,642,660,681,700,721,742,762,780,801,821,841,860,881,900,921,941,960,980,1001,1020,1040,1061,1080,1100,1121,1141,1160,1180,1200,1221,1241,1261,1280,1301,1321,1341,1360,1381,1400,1420,1440,1461,1481,1500,1520,1541,1560,1581,1600,1621,1640,1660,1680,1700,1721,1740,1760,1780,1801,1820,1840,1860,1880,1901,1921,1941,1961,1980,2001,2020,2042,2062,2081,2100,2121,2140],"xSR":741.5,"ySR":501.8,"xT1":424.9,"yT1":0,"xT2":1058.1,"yT2":0,"toosoon":0,"cond_shown":"Incongruent","ratio_trial":200,"L_num":7,"L_den":15,"R_num":6,"R_den":9,"correct_side":2,"subjID":"maria_alejandra_medina_contreras_38","gender":"1","school":"sexto","age":"11"},{"start_time":1551887038115,"click_time":1551887040034,"finger_time":1551887039473,"fix_duration":640.2541334297009,"trial":9,"RT":1358,"MT":561,"sideResp":2,"stimulus":[],"xmouse":[804,804,804,804,804,804,804,804,804,804,804,804,804,804,804,804,804,804,804,804,804,804,804,804,804,804,804,804,804,804,804,804,804,804,804,804,804,804,804,804,804,804,804,804,804,804,804,804,804,804,804,804,804,804,804,807,809,810,810,810,810,810,810,810,811,813,820,842,858,880,899,921,946,957,968,978,986,998,1002,1006,1009,1016,1018,1020,1023,1026,1028,1034,1037,1040,1042,1049,1052,1055,1058,1060],"ymouse":[559,559,559,559,559,559,559,559,559,559,559,559,559,559,559,559,559,559,559,559,559,559,559,559,559,559,559,559,559,559,559,559,559,559,559,559,559,559,559,559,559,559,559,559,559,559,559,559,559,559,559,559,559,559,559,555,554,553,553,553,553,553,553,553,553,551,546,533,522,503,487,462,423,401,376,353,335,303,289,275,262,230,217,205,195,183,173,154,145,139,132,119,112,103,94,87],"timestamp_mouse":[18,38,59,78,98,118,139,158,178,198,219,239,259,278,299,319,339,358,378,398,418,438,458,479,498,518,539,560,578,599,618,639,658,679,699,718,738,759,778,798,818,838,859,878,899,919,938,960,978,1000,1019,1038,1059,1078,1100,1118,1139,1158,1178,1198,1219,1239,1259,1278,1299,1319,1338,1358,1378,1399,1419,1439,1459,1479,1498,1519,1539,1559,1578,1599,1618,1640,1658,1679,1700,1719,1738,1758,1779,1800,1818,1840,1858,1879,1899,1919],"xSR":741.5,"ySR":501.8,"xT1":424.9,"yT1":0,"xT2":1058.1,"yT2":0,"toosoon":0,"cond_shown":"Congruent","ratio_trial":300,"L_num":1,"L_den":3,"R_num":19,"R_den":30,"correct_side":2,"subjID":"maria_alejandra_medina_contreras_38","gender":"1","school":"sexto","age":"11"},{"start_time":1551887042453,"click_time":1551887044033,"finger_time":1551887043874,"fix_duration":1379.1270347774064,"trial":10,"RT":1421,"MT":159,"sideResp":2,"stimulus":[],"xmouse":[777,777,777,777,777,777,777,777,777,777,777,777,777,778,779,780,780,780,780,780,780,780,780,780,780,780,780,780,780,780,780,780,780,780,780,780,780,780,780,780,780,780,780,780,780,780,780,780,780,780,780,780,780,780,780,780,780,780,780,780,780,780,780,780,780,780,780,784,790,801,818,874,908,946,979,1013,1043,1055,1070,1081],"ymouse":[566,566,566,566,566,566,566,566,566,566,566,566,566,566,566,566,566,566,566,566,566,566,566,566,566,566,566,566,566,566,566,566,566,566,566,566,566,566,566,566,566,566,566,566,566,566,566,566,566,566,566,566,566,566,566,566,566,566,566,566,566,566,566,566,566,566,566,563,556,544,525,468,430,378,329,264,192,162,129,98],"timestamp_mouse":[10,20,41,61,81,101,121,142,160,181,200,221,241,261,281,300,320,340,361,382,400,421,441,461,481,502,520,540,560,581,601,621,641,660,680,700,720,741,760,781,800,820,840,861,881,901,920,940,962,981,1000,1020,1041,1061,1080,1102,1120,1141,1160,1180,1201,1220,1241,1261,1280,1300,1320,1341,1361,1382,1401,1421,1441,1461,1481,1501,1521,1541,1560,1580],"xSR":741.5,"ySR":501.8,"xT1":424.9,"yT1":0,"xT2":1058.1,"yT2":0,"toosoon":0,"cond_shown":"Congruent","ratio_trial":100,"L_num":2,"L_den":5,"R_num":6,"R_den":12,"correct_side":2,"subjID":"maria_alejandra_medina_contreras_38","gender":"1","school":"sexto","age":"11"},{"start_time":1551887046116,"click_time":1551887047893,"finger_time":1551887047314,"fix_duration":762.3893050663289,"trial":11,"RT":1198,"MT":579,"sideResp":1,"stimulus":[],"xmouse":[798,798,798,798,798,798,798,798,798,798,798,798,798,798,798,798,798,798,798,798,798,798,798,798,798,798,798,798,798,798,798,798,798,798,798,798,798,798,798,798,798,798,798,798,798,798,798,798,798,798,798,798,798,798,798,798,798,798,797,795,790,789,777,771,763,754,744,720,709,699,687,671,652,642,633,624,614,596,590,586,580,563,554,546,541,536,529,526,524],"ymouse":[507,507,507,507,507,507,507,507,507,507,507,507,507,507,507,507,507,507,507,507,507,507,507,507,507,507,507,507,507,507,507,507,507,507,507,507,507,507,507,507,507,507,507,507,507,507,507,507,507,507,507,507,507,507,507,507,507,507,504,501,494,492,480,475,468,460,451,426,413,400,385,361,327,306,287,266,248,216,206,196,188,164,154,143,131,119,99,89,82],"timestamp_mouse":[18,37,57,79,97,118,137,157,177,199,218,239,259,277,297,319,339,357,377,398,417,437,458,478,498,519,538,557,579,597,617,639,657,678,698,717,737,757,777,798,817,838,857,878,898,918,937,959,977,998,1018,1038,1058,1078,1097,1119,1137,1158,1179,1198,1218,1238,1257,1277,1299,1319,1337,1358,1377,1397,1418,1438,1458,1477,1498,1519,1538,1557,1577,1598,1617,1639,1657,1677,1698,1719,1739,1757,1777],"xSR":741.5,"ySR":501.8,"xT1":424.9,"yT1":0,"xT2":1058.1,"yT2":0,"toosoon":0,"cond_shown":"Congruent","ratio_trial":300,"L_num":8,"L_den":16,"R_num":1,"R_den":5,"correct_side":1,"subjID":"maria_alejandra_medina_contreras_38","gender":"1","school":"sexto","age":"11"},{"start_time":1551887049446,"click_time":1551887051155,"finger_time":1551887050814,"fix_duration":250,"trial":12,"RT":1368,"MT":341,"sideResp":1,"stimulus":[],"xmouse":[781,781,781,780,780,780,780,780,779,779,779,779,779,779,779,779,779,779,779,778,778,778,778,778,778,778,778,778,778,778,778,778,777,777,777,777,777,777,776,776,776,776,776,776,776,776,776,776,776,776,776,775,775,774,774,774,774,774,774,774,774,774,774,774,772,770,762,751,733,706,678,627,602,578,558,539,526,521,517,515,515,515,516,517,517,513],"ymouse":[527,527,527,528,528,528,528,528,529,529,529,529,529,529,529,529,529,529,529,529,529,529,529,529,529,529,529,529,529,529,529,530,530,530,530,530,530,531,531,531,531,531,531,531,531,531,531,531,531,531,531,531,531,531,531,531,531,531,531,531,531,531,531,531,530,529,518,503,476,434,378,288,253,221,198,173,154,147,142,139,137,135,131,125,117,95],"timestamp_mouse":[8,43,47,67,87,107,128,148,169,187,208,229,247,268,289,309,328,348,368,387,409,428,448,467,487,508,527,548,569,588,608,627,648,667,687,707,728,749,768,789,807,827,847,867,888,907,928,948,969,988,1008,1027,1049,1068,1087,1107,1127,1147,1167,1188,1207,1227,1247,1267,1287,1308,1328,1348,1368,1388,1408,1427,1447,1468,1488,1508,1528,1547,1567,1589,1609,1627,1649,1668,1687,1709],"xSR":741.5,"ySR":501.8,"xT1":424.9,"yT1":0,"xT2":1058.1,"yT2":0,"toosoon":0,"cond_shown":"Incongruent","ratio_trial":200,"L_num":6,"L_den":20,"R_num":3,"R_den":6,"correct_side":2,"subjID":"maria_alejandra_medina_contreras_38","gender":"1","school":"sexto","age":"11"},{"start_time":1551887053432,"click_time":1551887054653,"finger_time":1551887054155,"fix_duration":758.1669748575687,"trial":13,"RT":723,"MT":498,"sideResp":1,"stimulus":[],"xmouse":[781,781,781,781,781,781,781,781,781,781,781,781,781,781,781,781,781,781,781,781,781,781,781,781,781,781,781,781,781,781,781,781,779,775,764,748,690,658,627,600,577,565,556,556,556,557,559,559,559,556,553,548,537,532,526,522,515,511,510,510,510,510],"ymouse":[538,538,538,538,538,538,538,538,538,538,538,538,538,538,538,538,538,538,538,538,538,538,538,538,539,539,539,539,539,539,539,539,540,540,532,518,455,404,360,319,284,257,219,209,201,197,191,177,173,167,162,156,142,133,126,120,112,107,106,105,103,99],"timestamp_mouse":[9,22,41,63,81,101,122,142,161,181,201,222,241,261,281,301,322,341,361,381,401,423,443,461,482,502,521,541,561,582,602,621,642,662,682,702,722,742,761,781,801,822,841,862,881,902,922,942,961,981,1003,1021,1042,1061,1081,1103,1121,1141,1161,1182,1201,1221],"xSR":741.5,"ySR":501.8,"xT1":424.9,"yT1":0,"xT2":1058.1,"yT2":0,"toosoon":0,"cond_shown":"Congruent","ratio_trial":100,"L_num":8,"L_den":16,"R_num":2,"R_den":5,"correct_side":1,"subjID":"maria_alejandra_medina_contreras_38","gender":"1","school":"sexto","age":"11"},{"start_time":1551887056179,"click_time":1551887057713,"finger_time":1551887057493,"fix_duration":443.04724117225356,"trial":14,"RT":1314,"MT":220,"sideResp":1,"stimulus":[],"xmouse":[784,784,784,784,784,784,784,784,784,784,784,784,784,784,784,784,784,784,784,784,784,784,784,784,784,784,784,784,784,784,784,784,784,784,784,784,784,784,784,784,784,784,784,784,784,784,784,784,784,784,784,784,784,784,784,784,784,784,784,784,784,783,780,776,754,729,685,636,554,495,487,484,482,482,479,476,467],"ymouse":[551,551,551,552,552,552,552,552,552,552,552,552,552,552,552,552,552,552,552,552,552,552,552,552,552,552,552,552,552,552,552,552,552,551,551,551,551,551,551,551,551,551,551,551,551,551,551,551,551,551,551,551,551,551,551,551,551,551,551,549,545,544,541,536,507,475,424,363,267,188,166,149,135,125,109,101,83],"timestamp_mouse":[14,42,54,75,95,114,136,154,175,194,214,234,254,276,294,314,334,355,374,396,415,434,455,476,494,514,535,554,575,595,615,635,654,674,694,715,734,756,776,794,814,835,855,874,894,914,934,954,974,994,1014,1034,1054,1074,1094,1114,1134,1154,1174,1194,1214,1234,1254,1275,1294,1314,1335,1356,1375,1394,1415,1434,1454,1474,1494,1514,1534],"xSR":741.5,"ySR":501.8,"xT1":424.9,"yT1":0,"xT2":1058.1,"yT2":0,"toosoon":0,"cond_shown":"Congruent","ratio_trial":300,"L_num":4,"L_den":10,"R_num":1,"R_den":10,"correct_side":1,"subjID":"maria_alejandra_medina_contreras_38","gender":"1","school":"sexto","age":"11"},{"start_time":1551887059267,"click_time":1551887060734,"finger_time":1551887060493,"fix_duration":572.0705990850126,"trial":15,"RT":1226,"MT":241,"sideResp":1,"stimulus":[],"xmouse":[816,816,816,816,816,816,816,816,816,816,816,816,816,816,816,816,816,816,816,816,816,816,816,816,816,816,816,816,816,816,816,816,816,816,816,816,816,816,816,816,816,816,816,816,816,816,816,816,816,816,816,816,816,816,816,816,816,814,812,801,764,741,721,699,680,671,661,650,638,606,579,553,533,521],"ymouse":[549,549,549,549,549,549,549,549,549,549,549,549,549,549,549,549,549,549,549,549,549,549,549,549,549,549,549,549,549,549,549,549,549,549,549,549,549,549,549,549,549,549,549,549,549,549,549,549,549,549,549,549,549,549,549,549,549,546,544,536,509,492,478,459,434,420,398,373,344,259,205,159,125,97],"timestamp_mouse":[10,26,46,66,86,106,126,146,166,186,206,226,246,266,286,306,326,346,366,386,406,426,446,466,486,506,526,546,566,586,606,626,646,666,686,706,726,746,766,786,806,826,847,868,887,908,928,947,967,987,1007,1027,1047,1068,1087,1106,1126,1146,1168,1186,1207,1226,1247,1266,1287,1307,1327,1346,1367,1387,1406,1427,1447,1467],"xSR":741.5,"ySR":501.8,"xT1":424.9,"yT1":0,"xT2":1058.1,"yT2":0,"toosoon":0,"cond_shown":"Incongruent","ratio_trial":100,"L_num":11,"L_den":22,"R_num":9,"R_den":15,"correct_side":2,"subjID":"maria_alejandra_medina_contreras_38","gender":"1","school":"sexto","age":"11"},{"start_time":1551887062182,"click_time":1551887063674,"finger_time":1551887063474,"fix_duration":327.67816481092535,"trial":16,"RT":1292,"MT":200,"sideResp":2,"stimulus":[],"xmouse":[789,789,789,789,789,789,789,789,789,789,789,789,789,789,789,789,789,789,789,789,789,789,789,789,789,789,789,789,789,789,789,789,789,789,789,789,789,789,789,789,789,789,789,790,791,791,792,794,794,794,794,794,794,794,796,798,800,801,802,804,805,806,807,811,845,871,898,931,964,1045,1061,1075,1082,1086,1093],"ymouse":[570,570,570,570,570,570,570,570,570,570,570,570,570,570,568,568,568,568,568,568,568,568,568,568,568,568,568,568,568,568,568,568,568,568,568,568,568,568,568,568,568,568,568,566,565,565,565,564,564,564,564,564,564,564,562,560,559,558,558,555,555,553,553,551,533,515,492,460,422,272,220,173,142,118,83],"timestamp_mouse":[12,40,51,71,91,111,131,153,172,192,212,231,253,272,292,312,331,352,373,391,412,432,453,473,492,512,532,552,571,592,611,631,652,673,691,713,731,752,773,791,812,850,852,871,892,912,931,952,971,991,1011,1032,1051,1071,1092,1112,1132,1152,1171,1191,1212,1231,1251,1271,1292,1313,1333,1351,1372,1391,1412,1431,1451,1472,1491],"xSR":741.5,"ySR":501.8,"xT1":424.9,"yT1":0,"xT2":1058.1,"yT2":0,"toosoon":0,"cond_shown":"Incongruent","ratio_trial":100,"L_num":9,"L_den":15,"R_num":14,"R_den":28,"correct_side":1,"subjID":"maria_alejandra_medina_contreras_38","gender":"1","school":"sexto","age":"11"},{"start_time":1551887065325,"click_time":1551887067054,"finger_time":1551887066374,"fix_duration":250,"trial":17,"RT":1049,"MT":680,"sideResp":2,"stimulus":[],"xmouse":[809,809,809,809,809,809,809,809,809,809,809,809,809,809,809,809,809,809,809,811,811,811,811,811,811,811,811,811,811,811,811,811,811,811,811,811,811,811,811,811,811,811,811,811,811,811,811,811,812,813,816,819,858,877,896,916,929,948,956,962,977,987,1007,1015,1023,1030,1033,1040,1045,1047,1048,1049,1049,1049,1049,1049,1049,1049,1049,1049,1049,1049,1049,1049,1049,1051,1059],"ymouse":[530,530,530,530,530,530,530,530,530,530,530,530,530,530,530,530,530,530,530,530,530,530,530,530,530,530,530,530,530,530,530,530,530,530,530,530,530,530,530,530,530,530,530,530,530,530,530,530,529,528,525,523,493,473,449,417,383,308,282,261,234,215,175,155,137,120,108,90,82,79,77,76,76,76,76,76,76,76,76,76,76,76,76,76,76,74,70],"timestamp_mouse":[8,34,48,68,88,109,128,149,170,189,208,230,248,269,289,309,329,348,368,388,408,428,448,469,488,509,528,549,569,589,609,629,648,669,688,710,729,748,769,789,810,828,849,869,889,909,929,950,969,989,1009,1029,1049,1068,1088,1109,1128,1149,1170,1188,1208,1228,1249,1269,1290,1310,1329,1348,1369,1388,1409,1428,1449,1468,1488,1508,1528,1549,1568,1589,1609,1628,1649,1668,1689,1710,1729],"xSR":741.5,"ySR":501.8,"xT1":424.9,"yT1":0,"xT2":1058.1,"yT2":0,"toosoon":0,"cond_shown":"Congruent","ratio_trial":100,"L_num":4,"L_den":10,"R_num":15,"R_den":30,"correct_side":2,"subjID":"maria_alejandra_medina_contreras_38","gender":"1","school":"sexto","age":"11"},{"start_time":1551887069559,"click_time":1551887071414,"finger_time":1551887071035,"fix_duration":1283.2115079271252,"trial":18,"RT":1476,"MT":379,"sideResp":1,"stimulus":[],"xmouse":[769,769,769,769,769,769,769,769,769,769,769,769,769,769,769,769,769,769,769,769,769,769,769,769,769,769,769,769,769,769,769,769,769,769,771,780,782,782,782,782,782,782,782,782,782,782,784,784,784,784,784,784,784,784,784,784,784,784,784,784,784,784,784,784,784,784,784,784,784,784,780,774,767,760,752,723,703,687,670,630,623,618,612,609,608,608,608,608,603,591,544,526,509],"ymouse":[550,550,550,550,550,550,550,550,550,550,550,550,550,550,550,550,550,550,550,550,550,550,550,550,550,550,550,550,550,550,550,550,550,550,549,546,545,545,545,545,545,545,545,545,545,545,545,545,545,545,545,545,545,545,545,545,545,545,545,545,545,545,545,545,545,545,545,545,545,545,539,529,517,500,480,435,408,379,353,279,258,240,224,217,214,214,211,207,194,175,118,93,65],"timestamp_mouse":[14,41,54,74,95,115,134,154,174,195,214,235,256,275,294,314,334,355,374,395,415,435,455,474,494,515,536,555,574,596,614,635,654,674,694,714,734,755,774,794,815,834,854,875,894,914,935,954,974,995,1014,1035,1055,1076,1094,1114,1136,1155,1176,1194,1214,1234,1254,1274,1295,1314,1336,1354,1375,1395,1414,1435,1455,1476,1495,1514,1534,1555,1576,1596,1614,1634,1654,1675,1695,1714,1734,1755,1775,1795,1814,1834,1855],"xSR":741.5,"ySR":501.8,"xT1":424.9,"yT1":0,"xT2":1058.1,"yT2":0,"toosoon":0,"cond_shown":"Incongruent","ratio_trial":100,"L_num":9,"L_den":15,"R_num":13,"R_den":26,"correct_side":1,"subjID":"maria_alejandra_medina_contreras_38","gender":"1","school":"sexto","age":"11"},{"start_time":1551887073187,"click_time":1551887074913,"finger_time":1551887074553,"fix_duration":810.3563837965597,"trial":19,"RT":1366,"MT":360,"sideResp":2,"stimulus":[],"xmouse":[794,794,794,794,794,794,794,794,794,794,794,794,794,794,794,794,794,794,794,794,794,794,794,794,794,794,794,794,794,794,794,794,794,794,794,794,794,794,794,794,794,794,794,794,794,794,794,794,794,794,794,794,794,794,794,794,794,794,794,794,794,794,794,794,794,807,817,837,866,938,957,972,986,998,1023,1031,1042,1051,1058,1074,1083,1091,1099,1115,1121,1128,1138],"ymouse":[572,572,572,572,572,572,572,572,572,572,572,572,572,572,572,572,572,572,572,572,572,572,572,572,572,572,572,572,572,572,572,572,572,572,572,572,572,572,572,572,572,572,572,572,572,572,572,572,572,572,572,572,572,572,572,572,572,572,572,572,572,572,572,572,572,561,554,542,525,469,449,429,409,391,350,333,312,291,273,226,207,187,170,135,118,103,79],"timestamp_mouse":[8,38,46,66,86,107,127,147,167,186,207,226,247,266,286,306,327,348,367,386,407,428,447,467,487,506,526,546,567,586,606,627,648,666,687,707,726,746,766,788,807,826,848,866,887,907,927,947,966,987,1006,1026,1046,1066,1086,1108,1126,1147,1168,1187,1207,1226,1246,1267,1287,1306,1326,1346,1366,1386,1407,1426,1446,1466,1486,1506,1528,1546,1567,1586,1607,1626,1647,1668,1686,1707,1726],"xSR":741.5,"ySR":501.8,"xT1":424.9,"yT1":0,"xT2":1058.1,"yT2":0,"toosoon":0,"cond_shown":"Congruent","ratio_trial":200,"L_num":13,"L_den":26,"R_num":14,"R_den":20,"correct_side":2,"subjID":"maria_alejandra_medina_contreras_38","gender":"1","school":"sexto","age":"11"},{"start_time":1551887076583,"click_time":1551887078414,"finger_time":1551887077935,"fix_duration":306.10142679821115,"trial":20,"RT":1352,"MT":479,"sideResp":1,"stimulus":[],"xmouse":[800,800,800,800,800,800,800,800,800,800,800,800,800,800,800,800,800,800,801,801,801,801,801,801,801,801,801,801,801,801,801,801,801,801,801,802,802,802,802,802,802,802,802,802,802,802,802,802,802,802,802,802,802,802,802,802,802,802,802,802,802,802,802,802,802,801,790,774,723,667,653,643,633,625,612,609,606,606,606,604,601,597,594,592,579,569,563,555,545,524,517,509],"ymouse":[528,528,528,528,528,528,528,528,528,528,528,528,528,528,528,528,528,528,529,529,529,529,529,529,529,529,529,529,529,529,529,529,529,529,529,529,529,529,529,529,529,529,529,529,529,529,529,529,529,529,529,529,529,529,529,529,529,529,529,529,529,529,529,529,528,521,505,480,409,323,290,267,242,223,190,179,170,163,160,153,149,146,144,143,137,132,130,125,121,107,102,95],"timestamp_mouse":[10,39,51,71,90,111,130,151,170,190,210,230,250,270,291,311,332,351,370,391,410,430,450,471,491,512,531,551,572,590,610,630,651,670,690,710,730,750,770,790,811,830,851,871,890,910,930,950,971,990,1010,1032,1051,1070,1090,1110,1130,1151,1170,1192,1210,1230,1250,1272,1291,1311,1330,1351,1371,1390,1410,1432,1451,1471,1490,1511,1530,1550,1570,1591,1610,1630,1650,1671,1690,1711,1731,1750,1771,1790,1811,1830],"xSR":741.5,"ySR":501.8,"xT1":424.9,"yT1":0,"xT2":1058.1,"yT2":0,"toosoon":0,"cond_shown":"Congruent","ratio_trial":300,"L_num":12,"L_den":24,"R_num":2,"R_den":10,"correct_side":1,"subjID":"maria_alejandra_medina_contreras_38","gender":"1","school":"sexto","age":"11"},{"start_time":1551887079789,"click_time":1551887082115,"finger_time":1551887081713,"fix_duration":313.2763845961064,"trial":21,"RT":1924,"MT":402,"sideResp":2,"stimulus":[],"xmouse":[767,767,767,767,767,767,768,769,769,771,771,771,771,771,771,771,771,771,771,771,771,771,771,771,771,771,771,771,771,771,771,771,771,771,771,771,771,771,771,771,771,771,771,771,771,771,771,771,771,771,771,771,771,771,771,771,771,771,771,771,771,771,771,771,771,771,771,771,771,771,771,771,771,771,771,771,771,771,771,771,771,771,771,771,771,771,771,771,771,771,771,771,771,773,789,806,825,845,872,896,907,922,940,962,998,1011,1020,1025,1031,1031,1031,1031,1031,1034,1041,1049,1059],"ymouse":[513,513,513,513,513,513,515,515,515,516,516,516,516,516,516,516,516,516,516,516,516,516,516,517,519,520,521,521,521,521,521,521,521,521,521,521,521,521,521,521,521,521,521,521,521,521,521,521,521,521,521,521,521,521,521,521,521,521,521,521,521,521,521,521,521,521,521,521,521,521,521,521,521,521,521,521,521,521,521,521,521,521,521,521,521,521,521,521,521,521,521,521,522,522,514,508,499,492,478,462,454,446,435,420,392,376,355,333,298,245,216,190,166,141,97,77,54],"timestamp_mouse":[8,36,44,64,84,104,124,144,165,184,204,226,244,266,286,305,325,345,365,385,404,425,445,464,485,504,524,544,565,584,604,624,645,666,684,704,726,744,764,785,805,825,845,865,884,905,925,945,965,984,1005,1025,1045,1065,1084,1105,1125,1145,1165,1184,1205,1225,1244,1264,1284,1304,1326,1344,1364,1384,1404,1424,1445,1465,1484,1505,1524,1545,1564,1584,1604,1626,1644,1664,1684,1704,1725,1744,1764,1785,1804,1824,1845,1864,1885,1905,1924,1945,1965,1984,2004,2025,2044,2064,2084,2104,2124,2144,2165,2185,2205,2224,2244,2264,2284,2305,2325],"xSR":741.5,"ySR":501.8,"xT1":424.9,"yT1":0,"xT2":1058.1,"yT2":0,"toosoon":0,"cond_shown":"Incongruent","ratio_trial":100,"L_num":10,"L_den":25,"R_num":9,"R_den":18,"correct_side":2,"subjID":"maria_alejandra_medina_contreras_38","gender":"1","school":"sexto","age":"11"},{"start_time":1551887083830,"click_time":1551887086773,"finger_time":1551887086373,"fix_duration":495.281577438606,"trial":22,"RT":2543,"MT":400,"sideResp":1,"stimulus":[],"xmouse":[806,806,806,806,806,804,804,804,804,804,804,804,804,804,804,804,804,804,804,804,804,804,804,804,804,804,804,804,804,804,804,803,801,799,799,799,799,799,799,799,799,799,799,799,799,799,799,799,799,799,799,799,799,799,799,799,799,799,799,799,799,799,799,799,799,799,799,799,799,799,799,799,799,799,799,799,799,796,789,786,783,781,781,781,781,781,781,781,781,781,781,781,781,781,781,781,781,781,781,781,781,781,781,781,781,781,781,781,781,781,781,781,781,781,781,781,781,781,781,781,781,781,781,780,779,777,766,732,707,677,650,622,589,583,581,581,581,579,574,569,563,557,553,550,543,536,528,522],"ymouse":[541,541,541,541,541,541,541,541,541,541,541,541,541,541,541,541,541,541,541,541,541,541,541,541,541,541,541,541,541,541,541,541,541,541,541,541,541,541,541,541,541,541,541,541,541,541,541,541,541,541,541,541,541,541,541,541,541,541,541,541,541,541,541,541,541,541,541,541,541,541,541,541,541,541,541,541,541,541,539,538,537,536,536,536,536,536,536,536,536,536,536,536,536,536,536,536,536,536,536,536,536,536,536,536,536,536,536,536,536,536,536,536,536,536,536,536,536,536,536,536,536,536,534,532,530,524,505,463,435,398,357,318,261,242,224,208,195,162,155,144,137,129,124,121,117,112,105,99],"timestamp_mouse":[10,25,44,64,84,104,124,144,165,183,203,225,244,264,284,304,323,344,363,383,404,424,444,463,483,504,523,544,564,584,604,624,643,663,684,703,723,744,764,784,803,824,844,863,884,904,924,943,963,984,1003,1024,1043,1063,1083,1105,1125,1143,1164,1185,1204,1223,1245,1264,1285,1303,1324,1345,1364,1385,1403,1423,1445,1464,1485,1504,1525,1543,1563,1584,1604,1625,1643,1664,1684,1704,1724,1743,1764,1783,1803,1824,1843,1864,1885,1903,1923,1943,1963,1984,2004,2025,2043,2063,2084,2104,2123,2144,2163,2184,2203,2223,2244,2263,2284,2304,2323,2343,2364,2383,2404,2425,2443,2465,2484,2504,2524,2543,2563,2583,2604,2623,2644,2663,2684,2704,2724,2743,2763,2784,2803,2825,2844,2863,2883,2904,2923,2943],"xSR":741.5,"ySR":501.8,"xT1":424.9,"yT1":0,"xT2":1058.1,"yT2":0,"toosoon":0,"cond_shown":"Incongruent","ratio_trial":200,"L_num":1,"L_den":2,"R_num":3,"R_den":10,"correct_side":1,"subjID":"maria_alejandra_medina_contreras_38","gender":"1","school":"sexto","age":"11"},{"start_time":1551887087985,"click_time":1551887089573,"finger_time":1551887089073,"fix_duration":250,"trial":23,"RT":1088,"MT":500,"sideResp":1,"stimulus":[],"xmouse":[790,790,790,790,790,790,790,790,790,790,790,790,790,790,790,790,790,790,790,790,790,790,790,790,790,790,790,790,790,790,790,790,790,790,790,790,790,790,790,790,790,790,790,790,790,790,790,790,788,784,780,771,758,746,717,702,690,678,661,655,649,641,635,629,615,606,596,584,577,564,557,550,546,544,543,540,536,529,510,502],"ymouse":[559,559,559,559,559,559,559,559,559,559,559,559,559,559,559,559,559,559,559,559,559,559,559,559,559,559,559,559,559,559,559,559,559,559,559,559,559,559,559,559,559,559,559,559,559,559,559,559,553,549,543,531,517,505,477,461,444,426,391,379,367,354,341,325,290,269,247,219,202,180,170,162,158,155,152,146,142,131,106,96],"timestamp_mouse":[8,34,48,69,89,109,128,148,168,188,210,229,248,269,288,308,328,349,368,388,408,430,448,468,488,508,529,548,570,588,609,628,649,668,688,709,728,750,770,789,808,828,849,868,889,908,928,948,969,988,1009,1030,1048,1068,1088,1108,1128,1149,1169,1188,1209,1229,1248,1269,1288,1308,1329,1348,1369,1388,1408,1428,1449,1469,1488,1509,1529,1549,1569,1588],"xSR":741.5,"ySR":501.8,"xT1":424.9,"yT1":0,"xT2":1058.1,"yT2":0,"toosoon":0,"cond_shown":"Incongruent","ratio_trial":200,"L_num":3,"L_den":4,"R_num":11,"R_den":20,"correct_side":1,"subjID":"maria_alejandra_medina_contreras_38","gender":"1","school":"sexto","age":"11"},{"start_time":1551887091546,"click_time":1551887093473,"finger_time":1551887093033,"fix_duration":930.9689793054166,"trial":24,"RT":1487,"MT":440,"sideResp":1,"stimulus":[],"xmouse":[786,786,786,786,786,786,786,786,786,786,786,786,786,786,786,786,786,786,786,786,786,786,786,786,786,786,786,786,786,786,786,786,786,786,786,786,786,786,786,786,786,786,786,786,786,786,786,786,786,786,786,786,786,786,786,786,786,786,786,786,786,786,786,786,786,786,786,786,786,786,786,785,775,759,740,717,677,661,647,633,621,602,597,592,589,582,571,567,561,554,544,524,516,510,504,500,492],"ymouse":[534,534,534,534,534,534,534,534,534,534,534,534,534,534,534,534,534,534,534,534,534,534,534,534,534,534,534,534,534,534,534,534,534,534,534,534,534,534,534,534,534,534,534,534,534,534,534,534,534,534,534,534,534,534,534,534,534,534,534,534,534,534,534,534,534,534,534,534,534,534,534,534,532,524,512,497,458,435,411,381,354,297,277,261,250,235,209,195,181,169,157,133,124,118,111,103,86],"timestamp_mouse":[10,43,49,68,87,108,127,148,168,189,207,229,248,267,288,308,327,347,368,387,410,428,448,467,487,508,527,547,567,587,608,627,647,667,687,707,728,748,768,788,809,827,848,869,887,907,927,947,968,987,1007,1027,1047,1067,1087,1108,1127,1147,1169,1188,1208,1229,1247,1268,1288,1308,1327,1348,1369,1388,1407,1428,1448,1469,1487,1508,1527,1548,1569,1589,1608,1627,1647,1667,1687,1708,1727,1747,1769,1788,1808,1827,1847,1869,1888,1908,1927],"xSR":741.5,"ySR":501.8,"xT1":424.9,"yT1":0,"xT2":1058.1,"yT2":0,"toosoon":0,"cond_shown":"Incongruent","ratio_trial":100,"L_num":10,"L_den":25,"R_num":9,"R_den":18,"correct_side":2,"subjID":"maria_alejandra_medina_contreras_38","gender":"1","school":"sexto","age":"11"},{"start_time":1551887095008,"click_time":1551887097253,"finger_time":1551887096813,"fix_duration":752.5754950940146,"trial":25,"RT":1805,"MT":440,"sideResp":1,"stimulus":[],"xmouse":[806,806,806,806,806,806,806,806,806,806,806,806,806,806,806,806,806,806,806,806,806,806,806,806,806,807,808,809,809,809,809,809,809,809,809,803,796,794,789,789,789,789,787,780,777,774,772,772,772,772,772,772,772,772,772,772,772,772,772,772,772,772,772,772,772,772,772,772,772,772,772,772,772,772,772,772,772,772,772,772,772,772,772,772,772,772,772,765,760,756,750,742,726,718,709,697,693,685,682,680,673,664,651,621,607,594,585,575,557,550,539,530,518],"ymouse":[544,544,544,544,544,544,544,544,544,544,544,544,544,544,544,544,544,544,544,544,544,544,544,544,544,543,542,541,541,541,541,541,541,541,541,540,541,541,544,544,544,545,547,558,564,569,573,574,574,574,574,574,574,574,574,574,574,574,574,574,574,574,574,574,574,574,574,574,574,574,574,574,574,574,574,574,574,574,574,574,574,574,574,574,574,574,573,543,526,512,497,482,452,438,423,404,399,387,378,369,355,339,318,269,245,223,200,180,134,117,98,81,64],"timestamp_mouse":[8,36,45,66,85,105,126,146,166,185,205,226,245,266,285,305,326,345,365,386,405,426,445,465,486,505,525,546,566,585,607,626,646,665,685,705,727,745,765,786,806,825,845,865,885,905,926,945,965,985,1006,1025,1047,1065,1085,1105,1126,1145,1165,1185,1206,1225,1245,1265,1286,1305,1325,1345,1365,1385,1406,1425,1446,1467,1485,1505,1525,1545,1566,1586,1605,1625,1645,1666,1685,1705,1725,1746,1765,1785,1805,1826,1847,1865,1885,1905,1926,1945,1965,1985,2005,2026,2046,2065,2085,2107,2126,2145,2165,2186,2205,2225,2245],"xSR":741.5,"ySR":501.8,"xT1":424.9,"yT1":0,"xT2":1058.1,"yT2":0,"toosoon":0,"cond_shown":"Congruent","ratio_trial":200,"L_num":11,"L_den":22,"R_num":3,"R_den":10,"correct_side":1,"subjID":"maria_alejandra_medina_contreras_38","gender":"1","school":"sexto","age":"11"},{"start_time":1551887100304,"click_time":1551887102614,"finger_time":1551887101174,"fix_duration":250,"trial":26,"RT":870,"MT":1440,"sideResp":1,"stimulus":[],"xmouse":[754,754,754,754,754,754,754,754,754,754,754,754,754,754,754,754,754,754,754,754,754,754,754,754,754,754,754,754,754,754,754,754,754,754,754,754,754,754,754,754,766,773,806,848,853,854,855,855,855,855,855,855,855,855,855,855,855,855,855,855,855,855,855,855,855,855,855,855,855,855,855,855,855,855,855,855,855,855,855,855,855,860,862,862,862,862,844,810,685,642,623,618,622,625,628,631,635,639,633,625,617,611,596,589,584,578,568,547,544,544,544,544,544,544,544,500],"ymouse":[584,584,584,584,584,584,584,584,584,584,584,584,584,584,584,584,584,584,584,584,584,584,584,584,584,584,584,584,584,584,584,584,584,584,584,584,584,584,584,584,583,583,586,591,589,588,587,587,587,587,587,587,587,587,587,587,587,587,587,587,587,587,587,587,587,587,587,587,587,587,587,587,587,587,587,587,587,587,587,587,587,587,587,587,587,579,550,503,396,357,334,321,316,314,311,301,282,258,164,122,95,79,60,55,49,44,32,6,1,1,1,1,1,1,1,4],"timestamp_mouse":[12,43,49,68,88,109,128,149,169,189,209,228,249,270,289,310,330,348,369,389,408,430,449,469,490,510,529,550,568,589,610,629,649,669,688,709,729,749,768,789,809,830,849,870,889,909,929,949,969,989,1010,1029,1050,1068,1090,1109,1129,1150,1168,1190,1210,1230,1250,1268,1290,1309,1329,1349,1368,1388,1408,1428,1449,1470,1490,1510,1529,1548,1569,1589,1609,1629,1650,1669,1689,1709,1730,1750,1768,1790,1809,1828,1850,1869,1889,1910,1929,1949,1968,1989,2010,2030,2051,2069,2089,2109,2130,2150,2168,2188,2209,2229,2249,2269,2288,2309],"xSR":741.5,"ySR":501.8,"xT1":424.9,"yT1":0,"xT2":1058.1,"yT2":0,"toosoon":0,"cond_shown":"Congruent","ratio_trial":200,"L_num":15,"L_den":25,"R_num":4,"R_den":10,"correct_side":1,"subjID":"maria_alejandra_medina_contreras_38","gender":"1","school":"sexto","age":"11"},{"start_time":1551887103585,"click_time":1551887105253,"finger_time":1551887104673,"fix_duration":250,"trial":27,"RT":1088,"MT":580,"sideResp":1,"stimulus":[],"xmouse":[803,803,803,803,803,803,803,803,803,803,803,803,803,803,803,803,803,803,803,803,803,803,803,803,803,803,803,803,803,803,803,803,803,803,803,803,803,803,803,803,803,803,803,803,803,803,803,803,802,796,793,791,789,788,787,787,787,787,787,786,784,777,767,752,709,683,663,644,633,607,596,583,569,556,537,528,523,511,500,489,487,486,486,484],"ymouse":[569,569,569,569,569,569,569,569,569,569,569,569,569,569,569,569,569,569,569,569,569,569,569,569,569,569,569,569,569,569,569,569,569,569,569,569,569,569,569,569,569,569,569,569,569,569,569,565,555,530,521,513,507,503,500,499,499,499,499,496,490,479,462,438,373,333,298,266,248,204,189,174,160,149,135,129,126,120,113,104,102,100,100,97],"timestamp_mouse":[8,35,47,69,87,108,128,148,169,189,208,227,248,268,287,307,329,348,368,389,407,428,449,468,487,509,528,549,567,589,608,628,648,669,689,707,729,748,768,788,808,827,847,867,887,907,928,949,969,989,1008,1027,1049,1068,1088,1107,1128,1149,1169,1187,1208,1229,1248,1268,1288,1308,1329,1347,1368,1388,1408,1428,1448,1468,1488,1509,1528,1547,1569,1587,1607,1628,1647,1668],"xSR":741.5,"ySR":501.8,"xT1":424.9,"yT1":0,"xT2":1058.1,"yT2":0,"toosoon":0,"cond_shown":"Incongruent","ratio_trial":300,"L_num":2,"L_den":4,"R_num":6,"R_den":30,"correct_side":1,"subjID":"maria_alejandra_medina_contreras_38","gender":"1","school":"sexto","age":"11"},{"start_time":1551887107366,"click_time":1551887109313,"finger_time":1551887108773,"fix_duration":1073.5893021953802,"trial":28,"RT":1407,"MT":540,"sideResp":1,"stimulus":[],"xmouse":[814,814,814,814,814,814,814,814,814,814,814,814,814,814,814,814,814,814,814,814,814,814,814,814,814,814,814,814,814,814,814,814,814,814,814,814,814,814,814,814,814,814,814,814,814,814,814,814,814,814,814,814,814,814,814,814,814,814,814,814,814,814,814,814,811,806,803,799,797,792,773,759,741,725,711,687,676,666,657,648,630,623,614,608,602,586,578,565,561,545,522,513,510,507,499,495,490,486],"ymouse":[551,551,551,551,551,551,551,551,551,551,551,551,551,551,551,551,551,551,551,551,551,551,551,551,551,551,551,551,551,551,551,551,551,551,551,551,551,551,551,551,551,551,551,551,551,551,551,551,551,551,551,551,551,551,551,551,551,551,551,551,551,551,551,551,549,544,541,538,535,527,501,484,465,447,431,403,389,374,362,349,324,313,299,284,269,234,214,185,178,157,134,127,123,119,110,106,102,98],"timestamp_mouse":[10,39,47,67,87,106,127,147,166,188,206,227,248,266,288,306,327,346,368,388,407,427,448,468,486,507,527,548,567,588,608,627,648,666,688,708,727,747,767,788,806,828,848,867,887,908,927,947,968,986,1007,1027,1047,1073,1087,1106,1127,1147,1168,1187,1206,1227,1247,1266,1287,1307,1327,1347,1366,1388,1407,1427,1446,1468,1488,1507,1528,1548,1567,1586,1607,1626,1648,1667,1687,1706,1727,1747,1766,1788,1807,1827,1847,1867,1888,1907,1928,1947],"xSR":741.5,"ySR":501.8,"xT1":424.9,"yT1":0,"xT2":1058.1,"yT2":0,"toosoon":0,"cond_shown":"Congruent","ratio_trial":100,"L_num":11,"L_den":22,"R_num":4,"R_den":10,"correct_side":1,"subjID":"maria_alejandra_medina_contreras_38","gender":"1","school":"sexto","age":"11"},{"start_time":1551887111733,"click_time":1551887113373,"finger_time":1551887112914,"fix_duration":838.1692398639063,"trial":29,"RT":1181,"MT":459,"sideResp":1,"stimulus":[],"xmouse":[786,786,786,786,786,786,786,786,786,786,786,786,786,786,786,786,786,786,786,786,786,786,786,786,786,786,786,786,786,786,786,786,786,786,786,786,786,786,786,786,786,786,786,786,786,786,786,786,786,786,786,786,782,779,776,774,766,761,755,747,737,720,712,705,696,685,670,635,614,595,580,563,550,546,544,542,536,516,507,501,497,493,479],"ymouse":[527,527,527,527,527,527,527,527,527,527,527,527,527,527,527,527,527,527,527,527,527,527,527,527,527,527,527,527,527,527,527,527,527,527,527,527,527,527,527,527,527,527,527,527,527,527,527,527,527,527,527,527,523,521,519,518,512,508,503,496,489,470,458,444,427,402,376,324,296,268,248,222,201,194,189,184,175,151,139,130,122,114,96],"timestamp_mouse":[8,20,40,60,80,100,119,141,159,179,201,221,239,259,279,300,321,341,359,381,399,421,440,460,480,500,520,540,560,580,601,620,641,660,679,701,721,739,760,779,800,821,839,860,881,901,920,941,961,980,1001,1020,1039,1060,1080,1101,1121,1140,1160,1181,1200,1221,1239,1260,1281,1300,1320,1340,1359,1380,1401,1420,1441,1460,1481,1499,1521,1539,1561,1580,1600,1619,1639],"xSR":741.5,"ySR":501.8,"xT1":424.9,"yT1":0,"xT2":1058.1,"yT2":0,"toosoon":0,"cond_shown":"Incongruent","ratio_trial":100,"L_num":6,"L_den":12,"R_num":3,"R_den":5,"correct_side":2,"subjID":"maria_alejandra_medina_contreras_38","gender":"1","school":"sexto","age":"11"},{"start_time":1551887116506,"click_time":1551887117892,"finger_time":1551887117473,"fix_duration":250,"trial":30,"RT":967,"MT":419,"sideResp":2,"stimulus":[],"xmouse":[786,786,786,786,787,788,789,789,789,789,789,789,789,789,789,789,789,789,789,789,789,789,789,789,789,789,789,789,789,789,789,789,789,789,790,793,794,798,801,801,801,801,801,804,805,807,811,825,835,847,862,879,922,934,944,951,955,962,970,972,973,973,975,979,985,993,1005,1017,1052,1071],"ymouse":[569,569,569,569,569,571,575,578,580,580,580,580,580,580,580,580,580,580,580,580,580,580,580,580,580,580,580,580,580,580,580,580,580,580,580,578,576,572,568,568,568,568,568,564,562,557,551,521,498,469,434,396,288,242,208,182,159,140,107,89,73,58,27,19,12,7,4,2,2,4],"timestamp_mouse":[8,34,47,67,87,107,128,148,168,187,207,228,247,267,288,307,327,347,368,387,408,426,447,467,488,507,527,548,568,586,608,628,647,667,687,708,728,747,768,786,808,828,847,866,887,908,928,948,967,987,1008,1027,1048,1066,1086,1107,1127,1148,1166,1187,1207,1228,1248,1267,1287,1307,1327,1347,1368,1386],"xSR":741.5,"ySR":501.8,"xT1":424.9,"yT1":0,"xT2":1058.1,"yT2":0,"toosoon":0,"cond_shown":"Congruent","ratio_trial":200,"L_num":5,"L_den":10,"R_num":14,"R_den":20,"correct_side":2,"subjID":"maria_alejandra_medina_contreras_38","gender":"1","school":"sexto","age":"11"},{"start_time":1551887119572,"click_time":1551887121093,"finger_time":1551887120772,"fix_duration":477.6582921224274,"trial":31,"RT":1200,"MT":321,"sideResp":1,"stimulus":[],"xmouse":[791,791,791,791,791,791,791,791,791,791,791,791,791,791,791,791,791,791,791,791,791,791,791,791,791,791,791,791,790,789,789,789,789,789,789,789,789,789,789,789,789,789,789,789,789,789,789,789,789,789,789,789,789,789,789,789,789,789,786,782,733,702,677,659,626,613,606,601,596,574,568,564,559,553,549,524,506],"ymouse":[541,541,541,541,541,541,541,541,541,541,541,541,541,541,541,541,541,541,541,541,541,541,541,541,541,541,541,541,541,541,541,541,541,541,541,541,541,541,541,541,541,541,541,541,541,541,541,541,541,541,541,541,541,541,541,541,541,541,540,534,471,420,361,306,216,191,179,168,158,137,133,130,126,120,116,102,92],"timestamp_mouse":[9,20,42,61,82,100,121,142,162,182,201,222,241,262,280,301,322,341,361,382,401,421,441,462,482,500,520,542,562,580,602,622,642,660,681,701,721,742,762,782,800,822,842,862,882,902,920,940,961,981,1000,1021,1040,1062,1081,1100,1121,1141,1161,1180,1200,1221,1241,1262,1282,1301,1321,1342,1361,1382,1400,1421,1442,1461,1481,1501,1521],"xSR":741.5,"ySR":501.8,"xT1":424.9,"yT1":0,"xT2":1058.1,"yT2":0,"toosoon":0,"cond_shown":"Congruent","ratio_trial":200,"L_num":6,"L_den":12,"R_num":7,"R_den":10,"correct_side":2,"subjID":"maria_alejandra_medina_contreras_38","gender":"1","school":"sexto","age":"11"},{"start_time":1551887124286,"click_time":1551887126373,"finger_time":1551887125893,"fix_duration":852.9577108258654,"trial":32,"RT":1607,"MT":480,"sideResp":1,"stimulus":[],"xmouse":[766,766,766,766,766,766,766,766,766,766,766,766,766,766,766,766,766,766,766,766,766,766,766,766,766,766,766,766,766,766,766,766,766,766,766,766,766,766,766,766,766,766,766,766,766,766,766,766,766,766,766,766,766,766,766,766,766,766,766,766,766,766,766,766,766,766,766,766,766,766,766,766,766,766,766,766,766,766,765,764,753,730,680,611,605,609,613,613,613,613,613,613,613,613,613,613,613,613,613,613,613,613,613,613,487],"ymouse":[572,572,572,572,572,572,572,572,572,572,572,572,572,572,572,572,572,572,572,572,572,572,572,572,572,572,572,572,572,572,572,572,572,572,572,572,572,572,572,572,572,572,572,572,572,572,572,572,572,572,572,572,572,572,572,572,572,572,572,572,572,572,572,572,572,572,572,572,572,572,572,572,572,572,572,572,572,572,567,538,500,469,431,379,217,121,44,14,14,14,14,14,14,14,14,14,14,14,14,14,14,14,14,14,1],"timestamp_mouse":[9,43,47,66,86,107,128,148,168,188,207,228,246,267,287,307,328,346,366,388,406,428,448,467,488,508,526,546,568,588,607,626,648,666,688,707,728,748,767,788,807,828,848,868,888,907,927,948,968,987,1007,1027,1046,1068,1086,1108,1127,1147,1168,1188,1207,1228,1248,1268,1287,1306,1328,1347,1366,1388,1408,1427,1448,1466,1488,1508,1526,1548,1567,1587,1607,1628,1647,1667,1687,1707,1727,1746,1767,1786,1808,1828,1847,1867,1887,1908,1927,1946,1968,1987,2007,2028,2048,2068,2087],"xSR":741.5,"ySR":501.8,"xT1":424.9,"yT1":0,"xT2":1058.1,"yT2":0,"toosoon":0,"cond_shown":"Incongruent","ratio_trial":200,"L_num":14,"L_den":30,"R_num":6,"R_den":9,"correct_side":2,"subjID":"maria_alejandra_medina_contreras_38","gender":"1","school":"sexto","age":"11"},{"start_time":1551887131124,"click_time":1551887133192,"finger_time":1551887132673,"fix_duration":250,"trial":33,"RT":1549,"MT":519,"sideResp":2,"stimulus":[],"xmouse":[799,799,800,800,800,800,800,801,802,802,802,803,803,804,805,805,805,806,807,807,807,808,808,808,808,808,808,808,808,808,808,808,808,808,808,807,805,804,804,803,803,803,803,803,803,803,803,803,803,803,803,803,803,803,803,803,803,803,803,803,803,803,803,803,803,803,803,803,803,803,803,803,803,803,803,806,821,919,949,966,983,997,1001,1001,1001,1001,1008,1015,1022,1035,1040,1041,1041,1041,1041,1041,1041,1041,1041,1041,1041,1041,1041,1106],"ymouse":[583,583,582,582,582,582,582,582,580,580,580,579,578,578,576,575,574,572,571,571,571,570,570,570,570,570,570,570,570,570,570,570,570,570,570,569,569,569,569,569,569,569,569,569,569,569,569,569,569,569,569,569,569,569,569,569,569,569,569,569,569,569,569,569,569,569,569,569,569,569,569,569,569,569,569,565,557,500,473,445,411,361,297,266,239,216,173,151,125,80,39,7,7,7,7,7,7,7,7,7,7,7,7,18],"timestamp_mouse":[9,29,50,69,89,108,130,149,170,189,210,228,249,269,290,309,329,348,369,389,409,428,450,469,490,510,530,549,568,589,609,628,650,669,689,709,729,749,768,789,808,829,850,870,889,910,928,950,968,988,1010,1030,1048,1068,1090,1108,1129,1150,1169,1189,1210,1229,1248,1269,1289,1310,1329,1350,1369,1390,1408,1430,1450,1468,1489,1509,1530,1549,1570,1589,1609,1630,1649,1668,1690,1709,1730,1750,1769,1789,1809,1829,1849,1869,1888,1908,1929,1950,1969,1990,2009,2029,2049,2068],"xSR":741.5,"ySR":501.8,"xT1":424.9,"yT1":0,"xT2":1058.1,"yT2":0,"toosoon":0,"cond_shown":"Incongruent","ratio_trial":200,"L_num":7,"L_den":15,"R_num":6,"R_den":9,"correct_side":2,"subjID":"maria_alejandra_medina_contreras_38","gender":"1","school":"sexto","age":"11"},{"start_time":1551887139397,"click_time":1551887140554,"finger_time":1551887140174,"fix_duration":841.5213068748674,"trial":34,"RT":777,"MT":380,"sideResp":2,"stimulus":[],"xmouse":[794,794,794,794,793,793,793,793,793,793,793,793,793,793,793,793,793,793,790,787,785,785,785,785,785,785,785,785,785,785,785,785,785,785,785,788,794,820,876,909,938,958,974,974,974,974,974,974,974,974,974,974,974,974,974,974,994,1078],"ymouse":[574,574,574,574,574,574,574,574,574,574,574,574,574,574,574,574,574,574,574,575,575,576,576,576,576,576,576,576,576,576,576,576,576,576,576,573,569,549,495,453,403,345,186,102,20,20,20,20,20,20,20,20,20,20,20,20,7,82],"timestamp_mouse":[16,41,56,75,95,117,137,155,177,196,215,236,255,277,296,316,336,356,377,396,417,435,457,477,496,517,535,556,577,597,617,636,657,677,695,716,736,757,777,796,817,836,857,875,895,916,936,956,976,996,1015,1035,1055,1076,1097,1116,1137,1157],"xSR":741.5,"ySR":501.8,"xT1":424.9,"yT1":0,"xT2":1058.1,"yT2":0,"toosoon":0,"cond_shown":"Congruent","ratio_trial":200,"L_num":5,"L_den":10,"R_num":14,"R_den":20,"correct_side":2,"subjID":"maria_alejandra_medina_contreras_38","gender":"1","school":"sexto","age":"11"},{"start_time":1551887144943,"click_time":1551887146173,"finger_time":1551887145473,"fix_duration":329.51967538376294,"trial":35,"RT":530,"MT":700,"sideResp":1,"stimulus":[],"xmouse":[789,790,790,791,791,792,792,792,793,793,793,793,793,793,793,793,793,793,797,797,802,804,805,807,809,815,829,836,842,845,848,849,849,849,849,849,849,849,849,849,849,848,844,836,830,825,807,790,768,743,695,643,619,592,564,540,513,508,505,505,505,500],"ymouse":[555,555,555,554,554,554,554,554,554,554,554,554,554,554,554,554,554,554,551,550,542,539,537,532,528,519,497,487,479,471,464,462,462,462,462,462,462,462,462,462,462,462,465,468,472,474,475,470,456,436,379,291,249,215,182,158,134,127,122,120,114,96],"timestamp_mouse":[21,44,50,69,90,111,130,150,169,190,209,229,250,270,291,309,331,351,369,391,411,430,450,471,490,510,529,551,570,589,610,630,650,670,691,709,729,750,770,789,810,830,850,869,889,910,929,951,970,989,1010,1030,1050,1071,1090,1110,1129,1150,1169,1189,1210,1230],"xSR":741.5,"ySR":501.8,"xT1":424.9,"yT1":0,"xT2":1058.1,"yT2":0,"toosoon":0,"cond_shown":"Incongruent","ratio_trial":200,"L_num":3,"L_den":4,"R_num":11,"R_den":20,"correct_side":1,"subjID":"maria_alejandra_medina_contreras_38","gender":"1","school":"sexto","age":"11"},{"start_time":1551887150867,"click_time":1551887152673,"finger_time":1551887152253,"fix_duration":1414.2504934509966,"trial":36,"RT":1386,"MT":420,"sideResp":1,"stimulus":[],"xmouse":[785,785,785,785,785,785,785,785,785,785,785,785,785,785,785,785,785,785,785,785,785,785,785,785,785,785,785,785,785,785,785,785,785,785,785,785,785,785,785,785,785,785,785,785,785,785,785,785,785,785,785,785,785,785,785,785,785,785,785,785,785,785,785,785,785,785,785,785,773,751,666,620,579,538,495,473,472,472,478,488,508,518,529,533,534,536,536,536,531,525,508],"ymouse":[566,566,566,566,566,566,566,566,566,566,566,566,566,566,566,566,566,566,566,566,566,566,566,566,566,566,566,566,566,566,566,566,566,566,566,566,566,566,566,566,566,566,566,566,566,566,566,566,566,566,566,566,566,566,566,566,566,566,566,566,566,566,566,566,566,562,554,536,503,451,331,282,246,217,190,173,171,168,164,159,149,145,140,137,136,132,130,126,121,115,95],"timestamp_mouse":[9,27,50,67,87,107,127,147,166,187,206,226,246,265,287,306,326,346,367,386,405,427,447,466,487,507,526,545,566,585,607,625,645,666,685,705,727,747,765,787,807,826,845,867,885,906,927,945,967,986,1007,1026,1045,1067,1087,1105,1127,1147,1167,1186,1207,1225,1246,1267,1285,1307,1326,1346,1365,1386,1405,1426,1445,1466,1486,1506,1526,1546,1566,1586,1605,1627,1646,1666,1686,1705,1725,1747,1766,1786,1806],"xSR":741.5,"ySR":501.8,"xT1":424.9,"yT1":0,"xT2":1058.1,"yT2":0,"toosoon":0,"cond_shown":"Incongruent","ratio_trial":100,"L_num":6,"L_den":10,"R_num":7,"R_den":14,"correct_side":1,"subjID":"maria_alejandra_medina_contreras_38","gender":"1","school":"sexto","age":"11"},{"start_time":1551887155628,"click_time":1551887157473,"finger_time":1551887157073,"fix_duration":592.6876141030003,"trial":37,"RT":1445,"MT":400,"sideResp":2,"stimulus":[],"xmouse":[774,774,774,774,774,774,774,774,774,774,774,774,774,774,774,774,774,774,774,774,774,774,774,774,774,774,774,774,774,774,774,774,774,774,774,774,774,774,774,774,774,774,774,774,774,774,774,774,774,774,774,774,774,774,774,774,774,774,774,774,774,774,774,774,774,774,774,774,774,783,790,813,922,1009,1087,1145,1176,1222,1227,1232,1235,1236,1237,1237,1237,1237,1216,1183,1173,1165,1162,1160,1156],"ymouse":[548,548,548,548,548,548,548,548,548,548,548,548,548,548,548,549,549,549,549,549,549,549,549,549,549,549,549,550,550,550,550,550,550,550,550,550,550,550,550,550,550,552,552,552,552,552,552,552,552,552,552,552,552,552,552,552,552,552,552,552,552,552,552,552,552,552,552,552,552,548,544,532,470,423,378,334,290,211,200,189,182,181,179,178,178,175,152,122,114,107,104,101,93],"timestamp_mouse":[9,24,44,65,85,106,124,144,165,184,206,226,246,265,284,306,325,345,364,385,404,426,444,466,485,505,525,546,565,586,604,624,645,664,685,705,724,746,764,784,806,825,845,864,886,904,926,946,965,986,1004,1026,1046,1065,1086,1104,1125,1145,1165,1186,1206,1224,1245,1265,1286,1306,1325,1344,1366,1384,1405,1424,1445,1465,1485,1505,1525,1545,1565,1586,1606,1624,1645,1664,1686,1705,1725,1745,1765,1785,1804,1825,1844],"xSR":741.5,"ySR":501.8,"xT1":424.9,"yT1":0,"xT2":1058.1,"yT2":0,"toosoon":0,"cond_shown":"Incongruent","ratio_trial":100,"L_num":4,"L_den":8,"R_num":8,"R_den":20,"correct_side":1,"subjID":"maria_alejandra_medina_contreras_38","gender":"1","school":"sexto","age":"11"},{"start_time":1551887158801,"click_time":1551887159813,"finger_time":1551887159212,"fix_duration":267.2255358280576,"trial":38,"RT":411,"MT":601,"sideResp":1,"stimulus":[],"xmouse":[820,820,821,821,821,821,821,822,822,822,822,823,823,823,823,824,824,827,832,832,830,825,819,806,793,782,770,748,743,739,734,728,718,703,699,696,696,696,696,695,694,690,683,666,656,643,625,594,557,536,513],"ymouse":[568,567,566,565,565,565,564,563,563,563,562,562,562,562,562,561,560,557,532,514,493,474,460,434,419,408,396,379,374,369,363,357,346,326,320,317,316,316,310,303,294,282,269,241,227,210,190,161,126,111,96],"timestamp_mouse":[12,31,54,72,92,111,131,153,172,192,212,233,252,272,291,312,332,352,371,391,411,431,451,471,492,512,532,553,572,591,613,631,652,671,691,713,732,751,771,792,811,831,851,871,891,912,933,951,971,991,1012],"xSR":741.5,"ySR":501.8,"xT1":424.9,"yT1":0,"xT2":1058.1,"yT2":0,"toosoon":0,"cond_shown":"Congruent","ratio_trial":100,"L_num":6,"L_den":20,"R_num":5,"R_den":25,"correct_side":1,"subjID":"maria_alejandra_medina_contreras_38","gender":"1","school":"sexto","age":"11"},{"start_time":1551887167845,"click_time":1551887169092,"finger_time":1551887168213,"fix_duration":772.8620399884796,"trial":39,"RT":368,"MT":879,"sideResp":2,"stimulus":[],"xmouse":[776,776,776,776,776,776,776,776,776,776,776,776,776,776,776,776,776,776,776,773,765,757,744,738,731,728,728,728,728,728,728,728,728,728,728,728,728,728,728,728,728,730,732,739,745,788,827,876,902,923,946,948,945,941,938,938,950,961,972,985,1002,1047,1070],"ymouse":[523,523,523,523,523,523,523,523,523,523,523,523,523,523,523,523,523,518,501,490,487,487,500,507,519,524,524,524,524,524,524,524,524,524,524,524,527,527,527,527,527,527,525,523,520,499,482,453,425,393,309,283,259,233,205,187,155,140,127,114,99,67,53],"timestamp_mouse":[10,26,48,67,87,108,128,147,167,188,206,228,247,267,288,306,327,347,368,388,409,427,447,467,487,508,527,547,567,587,607,628,647,668,687,707,727,747,767,787,808,827,847,867,886,908,927,946,967,986,1009,1027,1048,1068,1088,1107,1126,1147,1167,1187,1207,1226,1247],"xSR":741.5,"ySR":501.8,"xT1":424.9,"yT1":0,"xT2":1058.1,"yT2":0,"toosoon":0,"cond_shown":"Congruent","ratio_trial":200,"L_num":3,"L_den":10,"R_num":7,"R_den":14,"correct_side":2,"subjID":"maria_alejandra_medina_contreras_38","gender":"1","school":"sexto","age":"11"},{"start_time":1551887172584,"click_time":1551887174373,"finger_time":1551887173952,"fix_duration":271.7852109515195,"trial":40,"RT":1368,"MT":421,"sideResp":2,"stimulus":[],"xmouse":[773,773,773,777,778,778,779,780,780,780,780,780,780,780,780,780,780,780,780,780,780,781,782,784,785,785,785,785,785,785,785,785,785,785,785,785,785,785,785,785,785,785,785,785,785,785,785,785,785,785,785,785,785,785,785,785,785,785,785,785,785,785,785,787,790,799,811,827,856,897,915,935,955,971,989,990,990,989,988,1000,1011,1022,1031,1041,1042,1044,1048,1055,1058,1069],"ymouse":[568,568,568,571,571,573,574,577,577,577,577,577,577,577,577,577,577,577,577,577,577,578,578,578,578,578,578,578,578,578,578,578,578,578,578,578,578,578,578,578,578,578,578,578,578,578,578,578,578,578,578,578,578,578,578,578,578,578,578,578,578,578,578,578,575,567,558,545,521,483,458,419,371,324,221,182,139,109,77,57,51,45,41,36,35,34,32,32,31,29],"timestamp_mouse":[9,28,47,69,88,109,128,148,169,187,207,228,249,269,289,307,328,349,367,387,409,428,447,468,489,508,528,548,568,589,609,629,648,669,689,708,728,747,768,789,808,827,848,868,888,908,928,947,969,989,1008,1027,1048,1069,1089,1109,1129,1148,1169,1189,1209,1228,1248,1268,1287,1308,1328,1347,1368,1388,1408,1427,1447,1467,1488,1509,1529,1547,1567,1587,1607,1628,1648,1669,1688,1708,1728,1748,1768,1789],"xSR":741.5,"ySR":501.8,"xT1":424.9,"yT1":0,"xT2":1058.1,"yT2":0,"toosoon":0,"cond_shown":"Incongruent","ratio_trial":100,"L_num":12,"L_den":30,"R_num":2,"R_den":4,"correct_side":2,"subjID":"maria_alejandra_medina_contreras_38","gender":"1","school":"sexto","age":"11"},{"start_time":1551887176722,"click_time":1551887178412,"finger_time":1551887178072,"fix_duration":1068.6750675375513,"trial":41,"RT":1350,"MT":340,"sideResp":1,"stimulus":[],"xmouse":[792,792,792,792,792,792,792,792,792,792,792,792,792,792,792,792,792,792,792,792,792,792,792,792,792,792,792,792,792,792,792,792,792,792,792,792,792,792,792,792,792,792,792,792,792,792,792,792,792,792,792,792,792,792,792,792,792,792,792,792,792,792,792,792,790,787,779,736,694,680,643,624,598,587,576,563,529,513,502,495,490,486,486,479,470],"ymouse":[548,548,548,548,548,548,548,548,548,548,548,548,548,548,548,548,548,548,548,548,548,548,548,548,548,548,548,548,548,548,548,548,548,548,548,548,548,548,548,548,548,548,548,548,548,548,548,548,548,548,548,548,548,548,548,548,548,548,548,548,548,548,548,548,542,533,508,442,395,380,346,331,307,298,291,283,264,254,246,239,230,213,152,119,94],"timestamp_mouse":[9,37,50,71,90,111,130,150,171,190,210,231,249,270,291,309,330,351,370,391,411,431,450,471,491,511,531,550,570,590,611,631,651,670,690,710,731,750,771,790,811,829,851,870,889,910,930,951,970,990,1010,1030,1051,1071,1091,1110,1131,1150,1170,1189,1210,1231,1250,1270,1290,1310,1330,1350,1370,1390,1410,1430,1449,1470,1491,1510,1531,1549,1571,1590,1610,1629,1649,1670,1690],"xSR":741.5,"ySR":501.8,"xT1":424.9,"yT1":0,"xT2":1058.1,"yT2":0,"toosoon":0,"cond_shown":"Incongruent","ratio_trial":100,"L_num":9,"L_den":10,"R_num":20,"R_den":25,"correct_side":1,"subjID":"maria_alejandra_medina_contreras_38","gender":"1","school":"sexto","age":"11"},{"start_time":1551887182111,"click_time":1551887183713,"finger_time":1551887183112,"fix_duration":1437.8485023133837,"trial":42,"RT":1001,"MT":601,"sideResp":1,"stimulus":[],"xmouse":[774,774,775,776,777,777,777,778,778,779,779,779,780,781,781,781,781,781,782,782,782,782,782,782,782,782,782,782,782,782,782,782,782,782,782,782,782,781,774,766,762,761,761,761,761,761,761,761,761,761,756,754,739,699,596,480,351,351,351,351,351,351,351,351,351,351,351,351,351,351,351,351,351,351,351,351,351,351,354,396,443],"ymouse":[540,540,540,540,540,540,540,540,540,540,540,540,540,540,540,540,540,540,540,539,539,539,539,539,539,539,539,539,539,539,539,539,538,538,538,538,538,538,537,533,529,528,525,523,522,520,518,514,511,507,495,492,449,386,267,138,26,26,26,26,26,26,26,26,26,26,26,26,26,26,26,26,26,26,26,26,26,26,27,58,92],"timestamp_mouse":[9,20,43,61,81,102,122,141,161,181,202,222,240,261,281,301,322,341,361,381,401,422,442,460,481,502,522,542,561,581,602,620,642,661,681,701,721,742,760,781,801,821,841,862,881,901,921,942,961,980,1001,1021,1041,1061,1081,1100,1121,1141,1161,1182,1202,1221,1242,1261,1281,1300,1320,1342,1361,1381,1401,1422,1442,1462,1481,1501,1520,1541,1560,1580,1601],"xSR":741.5,"ySR":501.8,"xT1":424.9,"yT1":0,"xT2":1058.1,"yT2":0,"toosoon":0,"cond_shown":"Congruent","ratio_trial":300,"L_num":18,"L_den":20,"R_num":9,"R_den":15,"correct_side":1,"subjID":"maria_alejandra_medina_contreras_38","gender":"1","school":"sexto","age":"11"},{"start_time":1551887185070,"click_time":1551887186852,"finger_time":1551887186612,"fix_duration":297.5498111857526,"trial":43,"RT":1542,"MT":240,"sideResp":1,"stimulus":[],"xmouse":[812,811,811,809,808,807,807,806,806,805,803,802,802,802,802,800,799,798,798,796,794,794,793,792,792,792,791,791,791,791,790,790,789,789,788,788,788,788,788,788,788,788,788,788,788,788,788,788,788,788,788,788,788,788,788,788,788,788,788,788,788,788,788,788,788,788,788,788,788,788,788,788,788,787,783,768,759,744,716,671,569,525,500,487,472,460,456,453,450,449],"ymouse":[522,523,523,527,528,529,531,532,532,534,534,535,536,536,536,538,538,539,540,541,543,544,544,545,545,545,546,546,546,546,547,547,547,548,549,549,549,549,549,549,549,549,549,549,549,549,549,549,549,549,549,549,549,549,549,549,549,549,549,549,549,549,549,549,549,549,549,549,549,549,549,549,550,550,547,529,518,498,466,420,317,275,252,231,197,157,138,120,101,81],"timestamp_mouse":[9,32,42,61,82,102,123,143,161,183,202,223,242,263,282,302,322,342,362,381,402,423,442,461,482,503,522,542,561,582,602,622,643,662,682,703,723,741,763,783,803,821,842,863,883,902,922,941,963,982,1003,1022,1043,1062,1083,1103,1122,1143,1163,1181,1202,1222,1243,1263,1283,1303,1321,1343,1363,1381,1403,1423,1441,1461,1482,1502,1522,1542,1563,1582,1602,1622,1642,1663,1681,1702,1722,1741,1762,1782],"xSR":741.5,"ySR":501.8,"xT1":424.9,"yT1":0,"xT2":1058.1,"yT2":0,"toosoon":0,"cond_shown":"Congruent","ratio_trial":100,"L_num":1,"L_den":2,"R_num":3,"R_den":5,"correct_side":2,"subjID":"maria_alejandra_medina_contreras_38","gender":"1","school":"sexto","age":"11"},{"start_time":1551887188512,"click_time":1551887190772,"finger_time":1551887190172,"fix_duration":720.2937732877465,"trial":44,"RT":1660,"M