[{"start_time":1551887701009,"click_time":1551887703298,"finger_time":1551887702798,"fix_duration":1267.0411201878574,"trial":0,"RT":1789,"MT":500,"sideResp":2,"stimulus":"img/750/equaldotsize/R/11_Ratio_750_L_12_R_16.png","xmouse":[802,802,802,802,802,802,802,802,802,802,802,802,802,802,802,802,802,802,800,800,800,800,800,800,800,800,800,800,800,800,800,800,800,800,800,800,800,800,800,800,800,800,800,800,800,800,800,800,800,800,800,800,800,800,800,800,800,800,800,800,800,800,800,800,800,800,800,800,800,800,800,800,800,800,800,800,800,801,801,799,799,799,799,799,799,799,799,799,806,814,826,841,863,910,930,954,961,968,981,986,989,992,993,994,1005,1012,1019,1025,1037,1042,1047,1050,1054,1067],"ymouse":[533,533,533,533,533,533,533,533,533,533,533,533,533,533,533,533,533,533,534,534,535,535,535,535,535,535,535,535,535,535,535,535,535,535,535,535,535,535,535,535,535,535,535,535,535,535,535,535,535,535,535,535,535,535,535,535,535,535,535,535,535,535,535,535,535,535,535,535,535,535,535,535,535,535,533,531,527,524,517,515,515,515,515,515,515,515,515,511,499,486,468,443,406,317,274,214,185,165,140,129,120,113,108,106,101,99,98,97,92,90,86,83,80,72],"timestamp_mouse":[35,49,69,89,109,130,149,169,189,209,229,249,270,289,309,330,349,370,389,410,430,448,470,489,510,530,549,569,588,610,628,649,670,689,709,728,749,769,790,809,830,849,869,889,910,929,949,969,989,1009,1029,1048,1070,1089,1110,1130,1149,1168,1189,1209,1229,1248,1268,1289,1309,1330,1348,1370,1389,1409,1429,1450,1468,1489,1510,1529,1549,1569,1589,1609,1629,1650,1669,1689,1709,1730,1750,1769,1789,1810,1828,1848,1869,1888,1909,1929,1949,1969,1989,2009,2030,2050,2068,2088,2109,2130,2149,2169,2189,2210,2229,2249,2270,2288],"xSR":741.5,"ySR":500.5,"xT1":424.9,"yT1":0,"xT2":1058.1,"yT2":0,"toosoon":0,"cond_shown":"equaldotsize","ratio_trial":750,"smaller_num":"12","larger_num":"16","correct_side":2,"subjID":"maria_alejandra_medina_contreras_38","gender":"1","age":"11","school":"sexto","test":{"fix_dur":[250,1500],"timestim":300,"targets_dim":[100,100],"targets_relative_coord":[0.3,0.7],"size_stim":[880,420],"start_dim":[100,100],"size_start":[300,300],"size_fix":60,"samplingrate":20,"img_types":["equaldotsize","equaldotanddens","randomdotsizeEA"],"ratios":[250,500,750,900],"rep_conds":9,"nTrials":120,"trials_to_rest":500,"Trials_order":[114,36,104,20,59,81,26,61,5,80,118,98,97,68,16,89,72,88,27,110,6,77,9,87,19,65,34,94,40,0,33,48,30,67,106,105,108,10,107,4,69,96,50,90,39,71,47,17,66,49,91,24,101,11,2,76,52,93,112,115,111,119,53,58,63,3,117,84,8,57,55,23,29,28,51,25,74,83,99,86,43,12,78,79,109,1,35,7,92,113,44,54,75,18,14,73,42,21,37,95,85,102,15,38,82,13,100,32,41,60,45,22,56,70,46,64,62,31,103,116],"cond_shown":["equaldotsize","equaldotsize","randomdotsizeEA","randomdotsizeEA","randomdotsizeEA","equaldotsize","randomdotsizeEA","equaldotanddens","randomdotsizeEA","randomdotsizeEA","equaldotanddens","randomdotsizeEA","equaldotanddens","randomdotsizeEA","equaldotanddens","randomdotsizeEA","equaldotsize","equaldotanddens","equaldotsize","randomdotsizeEA","equaldotsize","randomdotsizeEA","equaldotsize","equaldotsize","equaldotanddens","randomdotsizeEA","equaldotanddens","equaldotanddens","equaldotanddens","equaldotsize","equaldotsize","equaldotsize","equaldotsize","equaldotanddens","equaldotanddens","equaldotsize","equaldotsize","equaldotanddens","randomdotsizeEA","equaldotanddens","equaldotsize","equaldotsize","randomdotsizeEA","equaldotsize","equaldotsize","randomdotsizeEA","randomdotsizeEA","randomdotsizeEA","equaldotsize","equaldotanddens","equaldotanddens","equaldotsize","randomdotsizeEA","randomdotsizeEA","randomdotsizeEA","equaldotanddens","equaldotanddens","equaldotsize","equaldotanddens","equaldotanddens","equaldotsize","randomdotsizeEA","randomdotsizeEA","equaldotanddens","equaldotsize","equaldotsize","equaldotsize","equaldotsize","randomdotsizeEA","equaldotsize","equaldotanddens","randomdotsizeEA","randomdotsizeEA","equaldotanddens","equaldotsize","equaldotanddens","randomdotsizeEA","randomdotsizeEA","equaldotsize","randomdotsizeEA","equaldotanddens","equaldotsize","equaldotsize","equaldotanddens","equaldotanddens","equaldotanddens","randomdotsizeEA","equaldotanddens","randomdotsizeEA","randomdotsizeEA","randomdotsizeEA","equaldotsize","equaldotsize","equaldotsize","randomdotsizeEA","equaldotanddens","equaldotsize","equaldotsize","equaldotanddens","randomdotsizeEA","equaldotanddens","equaldotsize","equaldotsize","randomdotsizeEA","equaldotanddens","equaldotanddens","equaldotanddens","randomdotsizeEA","randomdotsizeEA","equaldotsize","equaldotsize","equaldotanddens","randomdotsizeEA","equaldotanddens","equaldotanddens","equaldotanddens","randomdotsizeEA","equaldotanddens","equaldotanddens","randomdotsizeEA"],"ratio_trial":[750,250,750,750,900,900,250,250,500,750,900,250,250,750,500,500,250,500,500,250,750,500,900,500,750,500,900,900,500,250,900,250,750,750,900,900,250,900,900,500,900,250,250,750,500,900,900,500,750,250,750,250,500,900,250,500,500,900,500,750,500,900,500,900,500,500,900,250,750,900,750,900,500,500,500,250,250,900,500,250,750,250,750,750,250,250,900,750,750,500,750,750,500,750,250,250,750,900,250,900,250,750,500,250,900,250,500,750,500,250,900,900,750,900,900,500,250,750,750,750],"smaller_num":["12","3","15","3","18","9","2","2","6","6","18","4","2","6","2","1","5","2","6","2","3","2","18","5","3","4","18","18","9","4","18","2","6","3","9","18","3","9","9","9","9","3","6","3","1","9","9","5","3","3","3","6","2","18","3","2","1","18","6","3","6","9","4","18","5","9","18","3","15","18","3","9","3","3","1","3","3","9","6","4","12","3","3","18","6","2","9","15","3","4","12","18","1","3","3","2","18","9","1","9","3","3","9","2","18","4","9","6","2","1","18","18","3","18","18","10","2","3","3","6"],"larger_num":["16","12","20","4","20","10","8","8","12","8","20","16","8","8","4","2","20","4","12","8","4","4","20","10","4","8","20","20","18","16","20","8","8","4","10","20","12","10","10","18","10","12","24","4","2","10","10","10","4","12","4","24","4","20","12","4","2","20","12","4","12","10","8","20","10","18","20","12","20","20","4","10","6","6","2","12","12","10","12","16","16","12","4","24","24","8","10","20","4","8","16","24","2","4","12","8","24","10","4","10","12","4","18","8","20","16","18","8","4","4","20","20","4","20","20","20","8","4","4","8"],"correct_side":[2,1,1,1,1,2,1,1,1,1,1,1,2,2,1,2,2,1,1,1,1,1,1,1,1,1,1,1,1,1,2,2,1,1,1,1,1,2,1,1,1,1,1,2,2,2,1,1,2,1,2,1,1,1,2,2,2,2,1,2,1,2,1,2,2,2,1,1,2,1,1,2,2,2,2,1,2,2,1,2,2,2,2,1,1,1,2,1,1,1,2,1,2,2,1,2,1,2,2,2,2,1,1,2,2,2,2,2,1,2,1,1,1,1,2,2,1,1,2,1],"img_shown":["img/750/equaldotsize/R/11_Ratio_750_L_12_R_16.png","img/250/equaldotsize/L/14_Ratio_250_L_12_R_3.png","img/750/randomdotsizeEA/L/1_Ratio_750_L_20_R_15.png","img/750/randomdotsizeEA/L/8_Ratio_750_L_4_R_3.png","img/900/randomdotsizeEA/L/10_Ratio_900_L_20_R_18.png","img/900/equaldotsize/R/6_Ratio_900_L_9_R_10.png","img/250/randomdotsizeEA/L/7_Ratio_250_L_8_R_2.png","img/250/equaldotanddens/L/3_Ratio_250_L_8_R_2.png","img/500/randomdotsizeEA/L/11_Ratio_500_L_12_R_6.png","img/750/randomdotsizeEA/L/14_Ratio_750_L_8_R_6.png","img/900/equaldotanddens/L/8_Ratio_900_L_20_R_18.png","img/250/randomdotsizeEA/L/2_Ratio_250_L_16_R_4.png","img/250/equaldotanddens/R/13_Ratio_250_L_2_R_8.png","img/750/randomdotsizeEA/R/2_Ratio_750_L_6_R_8.png","img/500/equaldotanddens/L/10_Ratio_500_L_4_R_2.png","img/500/randomdotsizeEA/R/15_Ratio_500_L_1_R_2.png","img/250/equaldotsize/R/12_Ratio_250_L_5_R_20.png","img/500/equaldotanddens/L/5_Ratio_500_L_4_R_2.png","img/500/equaldotsize/L/11_Ratio_500_L_12_R_6.png","img/250/randomdotsizeEA/L/7_Ratio_250_L_8_R_2.png","img/750/equaldotsize/L/10_Ratio_750_L_4_R_3.png","img/500/randomdotsizeEA/L/5_Ratio_500_L_4_R_2.png","img/900/equaldotsize/L/10_Ratio_900_L_20_R_18.png","img/500/equaldotsize/L/7_Ratio_500_L_10_R_5.png","img/750/equaldotanddens/L/8_Ratio_750_L_4_R_3.png","img/500/randomdotsizeEA/L/8_Ratio_500_L_8_R_4.png","img/900/equaldotanddens/L/4_Ratio_900_L_20_R_18.png","img/900/equaldotanddens/L/4_Ratio_900_L_20_R_18.png","img/500/equaldotanddens/L/4_Ratio_500_L_18_R_9.png","img/250/equaldotsize/L/2_Ratio_250_L_16_R_4.png","img/900/equaldotsize/R/12_Ratio_900_L_18_R_20.png","img/250/equaldotsize/R/13_Ratio_250_L_2_R_8.png","img/750/equaldotsize/L/14_Ratio_750_L_8_R_6.png","img/750/equaldotanddens/L/10_Ratio_750_L_4_R_3.png","img/900/equaldotanddens/L/1_Ratio_900_L_10_R_9.png","img/900/equaldotsize/L/8_Ratio_900_L_20_R_18.png","img/250/equaldotsize/L/15_Ratio_250_L_12_R_3.png","img/900/equaldotanddens/R/3_Ratio_900_L_9_R_10.png","img/900/randomdotsizeEA/L/1_Ratio_900_L_10_R_9.png","img/500/equaldotanddens/L/4_Ratio_500_L_18_R_9.png","img/900/equaldotsize/L/1_Ratio_900_L_10_R_9.png","img/250/equaldotsize/L/15_Ratio_250_L_12_R_3.png","img/250/randomdotsizeEA/L/5_Ratio_250_L_24_R_6.png","img/750/equaldotsize/R/12_Ratio_750_L_3_R_4.png","img/500/equaldotsize/R/15_Ratio_500_L_1_R_2.png","img/900/randomdotsizeEA/R/15_Ratio_900_L_9_R_10.png","img/900/randomdotsizeEA/L/1_Ratio_900_L_10_R_9.png","img/500/randomdotsizeEA/L/7_Ratio_500_L_10_R_5.png","img/750/equaldotsize/R/12_Ratio_750_L_3_R_4.png","img/250/equaldotanddens/L/14_Ratio_250_L_12_R_3.png","img/750/equaldotanddens/R/12_Ratio_750_L_3_R_4.png","img/250/equaldotsize/L/5_Ratio_250_L_24_R_6.png","img/500/randomdotsizeEA/L/10_Ratio_500_L_4_R_2.png","img/900/randomdotsizeEA/L/10_Ratio_900_L_20_R_18.png","img/250/randomdotsizeEA/R/4_Ratio_250_L_3_R_12.png","img/500/equaldotanddens/R/9_Ratio_500_L_2_R_4.png","img/500/equaldotanddens/R/15_Ratio_500_L_1_R_2.png","img/900/equaldotsize/R/12_Ratio_900_L_18_R_20.png","img/500/equaldotanddens/L/11_Ratio_500_L_12_R_6.png","img/750/equaldotanddens/R/7_Ratio_750_L_3_R_4.png","img/500/equaldotsize/L/13_Ratio_500_L_12_R_6.png","img/900/randomdotsizeEA/R/15_Ratio_900_L_9_R_10.png","img/500/randomdotsizeEA/L/8_Ratio_500_L_8_R_4.png","img/900/equaldotanddens/R/12_Ratio_900_L_18_R_20.png","img/500/equaldotsize/R/14_Ratio_500_L_5_R_10.png","img/500/equaldotsize/R/1_Ratio_500_L_9_R_18.png","img/900/equaldotsize/L/4_Ratio_900_L_20_R_18.png","img/250/equaldotsize/L/15_Ratio_250_L_12_R_3.png","img/750/randomdotsizeEA/R/3_Ratio_750_L_15_R_20.png","img/900/equaldotsize/L/4_Ratio_900_L_20_R_18.png","img/750/equaldotanddens/L/10_Ratio_750_L_4_R_3.png","img/900/randomdotsizeEA/R/6_Ratio_900_L_9_R_10.png","img/500/randomdotsizeEA/R/2_Ratio_500_L_3_R_6.png","img/500/equaldotanddens/R/2_Ratio_500_L_3_R_6.png","img/500/equaldotsize/R/15_Ratio_500_L_1_R_2.png","img/250/equaldotanddens/L/15_Ratio_250_L_12_R_3.png","img/250/randomdotsizeEA/R/11_Ratio_250_L_3_R_12.png","img/900/randomdotsizeEA/R/15_Ratio_900_L_9_R_10.png","img/500/equaldotsize/L/13_Ratio_500_L_12_R_6.png","img/250/randomdotsizeEA/R/10_Ratio_250_L_4_R_16.png","img/750/equaldotanddens/R/11_Ratio_750_L_12_R_16.png","img/250/equaldotsize/R/4_Ratio_250_L_3_R_12.png","img/750/equaldotsize/R/7_Ratio_750_L_3_R_4.png","img/750/equaldotanddens/L/6_Ratio_750_L_24_R_18.png","img/250/equaldotanddens/L/5_Ratio_250_L_24_R_6.png","img/250/equaldotanddens/L/3_Ratio_250_L_8_R_2.png","img/900/randomdotsizeEA/R/7_Ratio_900_L_9_R_10.png","img/750/equaldotanddens/L/1_Ratio_750_L_20_R_15.png","img/750/randomdotsizeEA/L/10_Ratio_750_L_4_R_3.png","img/500/randomdotsizeEA/L/8_Ratio_500_L_8_R_4.png","img/750/randomdotsizeEA/R/11_Ratio_750_L_12_R_16.png","img/750/equaldotsize/L/6_Ratio_750_L_24_R_18.png","img/500/equaldotsize/R/15_Ratio_500_L_1_R_2.png","img/750/equaldotsize/R/12_Ratio_750_L_3_R_4.png","img/250/randomdotsizeEA/L/14_Ratio_250_L_12_R_3.png","img/250/equaldotanddens/R/13_Ratio_250_L_2_R_8.png","img/750/equaldotsize/L/6_Ratio_750_L_24_R_18.png","img/900/equaldotsize/R/15_Ratio_900_L_9_R_10.png","img/250/equaldotanddens/R/8_Ratio_250_L_1_R_4.png","img/900/randomdotsizeEA/R/7_Ratio_900_L_9_R_10.png","img/250/equaldotanddens/R/4_Ratio_250_L_3_R_12.png","img/750/equaldotsize/L/10_Ratio_750_L_4_R_3.png","img/500/equaldotsize/L/4_Ratio_500_L_18_R_9.png","img/250/randomdotsizeEA/R/13_Ratio_250_L_2_R_8.png","img/900/equaldotanddens/R/11_Ratio_900_L_18_R_20.png","img/250/equaldotanddens/R/10_Ratio_250_L_4_R_16.png","img/500/equaldotanddens/R/1_Ratio_500_L_9_R_18.png","img/750/randomdotsizeEA/R/2_Ratio_750_L_6_R_8.png","img/500/randomdotsizeEA/L/5_Ratio_500_L_4_R_2.png","img/250/equaldotsize/R/8_Ratio_250_L_1_R_4.png","img/900/equaldotsize/L/2_Ratio_900_L_20_R_18.png","img/900/equaldotanddens/L/4_Ratio_900_L_20_R_18.png","img/750/randomdotsizeEA/L/10_Ratio_750_L_4_R_3.png","img/900/equaldotanddens/L/8_Ratio_900_L_20_R_18.png","img/900/equaldotanddens/R/14_Ratio_900_L_18_R_20.png","img/500/equaldotanddens/R/3_Ratio_500_L_10_R_20.png","img/250/randomdotsizeEA/L/1_Ratio_250_L_8_R_2.png","img/750/equaldotanddens/L/10_Ratio_750_L_4_R_3.png","img/750/equaldotanddens/R/7_Ratio_750_L_3_R_4.png","img/750/randomdotsizeEA/L/14_Ratio_750_L_8_R_6.png"],"Rat0":[["12_Ratio_0_L_9_R_0.png","13_Ratio_0_L_6_R_0.png","5_Ratio_0_L_2_R_0.png","6_Ratio_0_L_4_R_0.png","8_Ratio_0_L_6_R_0.png"],["1_Ratio_0_L_0_R_17.png","10_Ratio_0_L_0_R_22.png","11_Ratio_0_L_0_R_1.png","14_Ratio_0_L_0_R_24.png","15_Ratio_0_L_0_R_4.png","2_Ratio_0_L_0_R_5.png","3_Ratio_0_L_0_R_17.png","4_Ratio_0_L_0_R_7.png","7_Ratio_0_L_0_R_19.png","9_Ratio_0_L_0_R_15.png"]],"Rat250":[["1_Ratio_250_L_8_R_2.png","14_Ratio_250_L_12_R_3.png","15_Ratio_250_L_12_R_3.png","2_Ratio_250_L_16_R_4.png","3_Ratio_250_L_8_R_2.png","5_Ratio_250_L_24_R_6.png","7_Ratio_250_L_8_R_2.png"],["10_Ratio_250_L_4_R_16.png","11_Ratio_250_L_3_R_12.png","12_Ratio_250_L_5_R_20.png","13_Ratio_250_L_2_R_8.png","4_Ratio_250_L_3_R_12.png","6_Ratio_250_L_6_R_24.png","8_Ratio_250_L_1_R_4.png","9_Ratio_250_L_3_R_12.png"]],"Rat500":[["10_Ratio_500_L_4_R_2.png","11_Ratio_500_L_12_R_6.png","13_Ratio_500_L_12_R_6.png","4_Ratio_500_L_18_R_9.png","5_Ratio_500_L_4_R_2.png","7_Ratio_500_L_10_R_5.png","8_Ratio_500_L_8_R_4.png"],["1_Ratio_500_L_9_R_18.png","12_Ratio_500_L_1_R_2.png","14_Ratio_500_L_5_R_10.png","15_Ratio_500_L_1_R_2.png","2_Ratio_500_L_3_R_6.png","3_Ratio_500_L_10_R_20.png","6_Ratio_500_L_9_R_18.png","9_Ratio_500_L_2_R_4.png"]],"Rat750":[["1_Ratio_750_L_20_R_15.png","10_Ratio_750_L_4_R_3.png","13_Ratio_750_L_8_R_6.png","14_Ratio_750_L_8_R_6.png","6_Ratio_750_L_24_R_18.png","8_Ratio_750_L_4_R_3.png","9_Ratio_750_L_4_R_3.png"],["11_Ratio_750_L_12_R_16.png","12_Ratio_750_L_3_R_4.png","15_Ratio_750_L_9_R_12.png","2_Ratio_750_L_6_R_8.png","3_Ratio_750_L_15_R_20.png","4_Ratio_750_L_15_R_20.png","5_Ratio_750_L_15_R_20.png","7_Ratio_750_L_3_R_4.png"]],"Rat900":[["1_Ratio_900_L_10_R_9.png","10_Ratio_900_L_20_R_18.png","2_Ratio_900_L_20_R_18.png","4_Ratio_900_L_20_R_18.png","8_Ratio_900_L_20_R_18.png"],["11_Ratio_900_L_18_R_20.png","12_Ratio_900_L_18_R_20.png","13_Ratio_900_L_18_R_20.png","14_Ratio_900_L_18_R_20.png","15_Ratio_900_L_9_R_10.png","3_Ratio_900_L_9_R_10.png","5_Ratio_900_L_9_R_10.png","6_Ratio_900_L_9_R_10.png","7_Ratio_900_L_9_R_10.png","9_Ratio_900_L_18_R_20.png"]],"Rat1000":[["10_Ratio_1000_L_16_R_16.png","11_Ratio_1000_L_6_R_6.png","12_Ratio_1000_L_14_R_14.png","13_Ratio_1000_L_20_R_20.png","15_Ratio_1000_L_15_R_15.png","2_Ratio_1000_L_17_R_17.png","4_Ratio_1000_L_9_R_9.png","5_Ratio_1000_L_6_R_6.png","6_Ratio_1000_L_19_R_19.png","8_Ratio_1000_L_14_R_14.png","9_Ratio_1000_L_25_R_25.png"],["1_Ratio_1000_L_1_R_1.png","14_Ratio_1000_L_17_R_17.png","3_Ratio_1000_L_17_R_17.png","7_Ratio_1000_L_6_R_6.png"]]}},{"start_time":1551887706446,"click_time":1551887707539,"finger_time":1551887707178,"fix_duration":566.5543934074603,"trial":1,"RT":732,"MT":361,"sideResp":1,"stimulus":"img/250/equaldotsize/L/14_Ratio_250_L_12_R_3.png","xmouse":[779,779,779,779,779,779,779,779,779,779,779,779,779,779,779,779,779,779,779,779,779,779,779,779,779,779,779,779,779,779,779,779,779,779,775,764,745,639,555,477,429,410,400,399,398,396,393,390,390,391,392,396,402,418,436],"ymouse":[534,534,534,534,534,534,534,534,534,534,534,534,534,534,534,534,534,534,534,534,534,534,534,534,534,534,534,534,534,534,534,534,534,534,530,513,483,388,332,284,247,223,179,155,144,135,127,112,107,102,94,85,71,63,57],"timestamp_mouse":[13,32,58,73,92,111,133,151,172,192,212,232,253,272,292,312,333,352,372,393,413,432,453,473,493,513,532,552,572,592,613,632,651,672,692,712,732,751,773,792,812,832,852,873,892,913,932,952,973,992,1012,1032,1052,1071,1093],"xSR":741.5,"ySR":501.8,"xT1":424.9,"yT1":0,"xT2":1058.1,"yT2":0,"toosoon":0,"cond_shown":"equaldotsize","ratio_trial":250,"smaller_num":"3","larger_num":"12","correct_side":1,"subjID":"maria_alejandra_medina_contreras_38","gender":"1","age":"11","school":"sexto"},{"start_time":1551887709766,"click_time":1551887711278,"finger_time":1551887710978,"fix_duration":1226.0980749060702,"trial":2,"RT":1212,"MT":300,"sideResp":2,"stimulus":"img/750/randomdotsizeEA/L/1_Ratio_750_L_20_R_15.png","xmouse":[784,784,784,784,784,784,784,784,784,784,784,784,784,784,784,784,784,784,784,784,784,784,784,784,784,784,784,784,784,784,784,784,784,784,784,784,784,784,784,784,784,784,784,784,784,784,784,784,784,784,784,784,784,784,784,784,784,784,787,808,832,880,920,957,983,998,1014,1016,1019,1021,1021,1033,1043,1056,1069,1079],"ymouse":[543,543,543,543,543,543,543,543,543,543,543,543,543,543,543,543,543,543,543,543,543,543,543,543,543,543,543,543,543,543,543,543,543,543,543,543,543,543,543,543,543,543,543,543,543,543,543,543,543,543,543,543,543,543,543,543,543,543,541,518,493,431,373,321,283,256,211,200,193,185,179,155,141,123,105,91],"timestamp_mouse":[12,36,51,72,92,111,132,153,171,192,212,233,251,273,292,313,332,353,373,393,413,433,453,471,493,513,532,553,572,593,612,633,652,673,693,712,732,753,773,792,813,832,853,872,892,912,932,953,972,992,1012,1032,1052,1073,1092,1113,1132,1152,1172,1192,1212,1232,1253,1272,1291,1312,1332,1352,1372,1393,1412,1433,1452,1472,1491,1512],"xSR":741.5,"ySR":501.8,"xT1":424.9,"yT1":0,"xT2":1058.1,"yT2":0,"toosoon":0,"cond_shown":"randomdotsizeEA","ratio_trial":750,"smaller_num":"15","larger_num":"20","correct_side":1,"subjID":"maria_alejandra_medina_contreras_38","gender":"1","age":"11","school":"sexto"},{"start_time":1551887738065,"click_time":1551887739098,"finger_time":1551887738898,"fix_duration":965.7130094452297,"trial":3,"RT":833,"MT":200,"sideResp":1,"stimulus":"img/750/randomdotsizeEA/L/8_Ratio_750_L_4_R_3.png","xmouse":[807,807,807,807,807,807,807,807,807,807,807,807,807,807,807,807,807,807,807,807,807,807,807,807,807,807,807,807,807,807,807,807,807,807,807,807,807,807,807,805,796,706,609,551,504,483,459,457,457,456,455,455],"ymouse":[556,556,556,556,556,556,556,556,556,556,556,556,556,556,556,556,556,556,556,556,556,556,556,556,556,556,556,556,556,556,556,556,556,556,556,556,556,556,556,555,540,419,300,230,177,156,128,124,122,118,106,81],"timestamp_mouse":[13,39,53,73,94,114,133,154,173,193,213,234,252,273,294,312,334,354,372,394,412,433,454,473,493,513,532,554,573,593,614,632,653,673,693,713,733,754,772,793,813,832,854,873,894,913,933,954,973,993,1014,1033],"xSR":741.5,"ySR":501.8,"xT1":424.9,"yT1":0,"xT2":1058.1,"yT2":0,"toosoon":0,"cond_shown":"randomdotsizeEA","ratio_trial":750,"smaller_num":"3","larger_num":"4","correct_side":1,"subjID":"maria_alejandra_medina_contreras_38","gender":"1","age":"11","school":"sexto"},{"start_time":1551887745006,"click_time":1551887746638,"finger_time":1551887746098,"fix_duration":446.91419549632116,"trial":4,"RT":1092,"MT":540,"sideResp":2,"stimulus":"img/900/randomdotsizeEA/L/10_Ratio_900_L_20_R_18.png","xmouse":[788,789,790,790,792,792,792,792,792,792,792,792,792,792,792,792,792,792,792,792,792,792,792,791,787,785,783,782,782,782,782,782,782,782,782,786,792,793,794,796,799,802,804,805,805,805,804,801,800,798,797,797,797,797,809,821,833,857,875,926,949,965,978,990,1003,1004,1004,1004,1002,1000,1001,1006,1010,1014,1018,1020,1020,1023,1027,1043,1054,1066],"ymouse":[540,541,541,541,544,544,545,545,545,545,545,545,545,545,545,545,545,545,545,545,545,545,545,546,546,546,546,546,546,546,546,546,546,546,546,547,548,548,548,549,550,551,552,553,553,553,553,553,552,550,549,543,532,521,489,457,429,365,307,189,135,97,71,48,21,18,18,18,18,16,15,15,15,16,21,24,26,27,28,31,34,38],"timestamp_mouse":[14,31,58,72,91,111,133,153,173,192,212,231,253,272,292,312,333,351,371,392,412,433,452,472,492,512,532,553,573,592,612,632,652,673,692,712,732,753,772,792,812,831,853,872,892,912,932,952,973,992,1011,1032,1052,1072,1092,1112,1132,1152,1172,1192,1213,1232,1252,1273,1292,1312,1332,1352,1372,1391,1412,1432,1452,1471,1492,1512,1532,1552,1572,1592,1612,1632],"xSR":741.5,"ySR":501.8,"xT1":424.9,"yT1":0,"xT2":1058.1,"yT2":0,"toosoon":0,"cond_shown":"randomdotsizeEA","ratio_trial":900,"smaller_num":"18","larger_num":"20","correct_side":1,"subjID":"maria_alejandra_medina_contreras_38","gender":"1","age":"11","school":"sexto"},{"start_time":1551887752937,"click_time":1551887754278,"finger_time":1551887753798,"fix_duration":1318.406772757178,"trial":5,"RT":861,"MT":480,"sideResp":1,"stimulus":"img/900/equaldotsize/R/6_Ratio_900_L_9_R_10.png","xmouse":[786,786,786,786,786,786,786,786,786,786,786,786,786,786,786,786,786,786,786,786,786,786,786,786,786,786,786,786,786,786,786,786,786,786,786,786,786,786,786,786,786,786,782,743,717,687,663,632,565,532,517,499,488,481,478,475,473,471,471,474,478,480,482,482,483,483,483,483],"ymouse":[569,569,569,569,569,569,569,569,569,569,569,569,569,569,569,569,569,569,569,569,569,569,569,569,569,569,569,569,569,569,569,569,569,569,569,569,569,569,569,569,569,568,544,460,421,388,366,343,286,258,243,227,216,204,199,193,190,187,180,170,161,151,140,125,117,110,104,98],"timestamp_mouse":[9,21,47,62,82,101,122,141,162,182,200,222,240,261,281,301,322,341,361,382,402,420,441,460,482,502,522,541,560,581,601,621,641,660,681,701,720,741,760,782,801,822,841,861,881,901,922,940,961,981,1001,1021,1041,1061,1081,1101,1120,1142,1161,1182,1201,1222,1241,1261,1281,1301,1321,1341],"xSR":741.5,"ySR":501.8,"xT1":424.9,"yT1":0,"xT2":1058.1,"yT2":0,"toosoon":0,"cond_shown":"equaldotsize","ratio_trial":900,"smaller_num":"9","larger_num":"10","correct_side":2,"subjID":"maria_alejandra_medina_contreras_38","gender":"1","age":"11","school":"sexto"},{"start_time":1551887755771,"click_time":1551887757038,"finger_time":1551887756778,"fix_duration":372.57341865080053,"trial":6,"RT":1007,"MT":260,"sideResp":2,"stimulus":"img/250/randomdotsizeEA/L/7_Ratio_250_L_8_R_2.png","xmouse":[806,806,806,806,806,806,806,806,806,806,806,806,806,806,806,806,806,806,806,806,806,806,806,806,806,806,806,806,806,806,806,806,806,806,806,806,806,806,806,806,806,806,806,811,814,816,817,818,821,823,830,874,913,951,981,1001,1030,1044,1049,1051,1053,1054,1056,1061],"ymouse":[543,543,543,543,543,543,543,543,543,543,543,543,543,543,543,543,543,543,543,543,543,543,543,543,543,543,543,543,543,543,543,543,543,543,543,543,543,543,543,543,543,541,536,528,521,519,515,512,508,505,492,431,371,300,220,162,111,94,87,82,80,75,72,65],"timestamp_mouse":[9,42,47,67,88,108,127,148,166,188,208,226,248,267,286,307,327,348,368,388,406,428,448,468,487,507,527,548,567,588,607,627,647,668,688,706,727,748,768,788,808,827,847,868,887,908,927,948,966,987,1007,1027,1048,1067,1087,1108,1127,1146,1167,1187,1208,1226,1248,1267],"xSR":741.5,"ySR":501.8,"xT1":424.9,"yT1":0,"xT2":1058.1,"yT2":0,"toosoon":0,"cond_shown":"randomdotsizeEA","ratio_trial":250,"smaller_num":"2","larger_num":"8","correct_side":1,"subjID":"maria_alejandra_medina_contreras_38","gender":"1","age":"11","school":"sexto"},{"start_time":1551887759589,"click_time":1551887760398,"finger_time":1551887760298,"fix_duration":250,"trial":7,"RT":709,"MT":100,"sideResp":1,"stimulus":"img/250/equaldotanddens/L/3_Ratio_250_L_8_R_2.png","xmouse":[783,780,777,774,774,774,774,774,774,774,774,774,774,774,774,774,774,774,774,774,774,774,774,774,774,774,774,774,774,774,774,774,774,774,771,695,640,598,573,546,491],"ymouse":[564,563,561,560,560,560,560,560,560,560,560,560,560,560,560,560,560,560,560,560,560,560,560,560,560,560,560,560,560,560,560,560,560,560,558,446,372,302,210,110,9],"timestamp_mouse":[15,28,55,69,90,110,128,150,169,189,210,230,250,269,290,309,330,350,368,389,410,429,449,469,490,509,530,549,570,589,609,629,650,670,690,709,730,749,769,789,809],"xSR":741.5,"ySR":501.8,"xT1":424.9,"yT1":0,"xT2":1058.1,"yT2":0,"toosoon":0,"cond_shown":"equaldotanddens","ratio_trial":250,"smaller_num":"2","larger_num":"8","correct_side":1,"subjID":"maria_alejandra_medina_contreras_38","gender":"1","age":"11","school":"sexto"},{"start_time":1551887762991,"click_time":1551887765138,"finger_time":1551887764698,"fix_duration":250,"trial":8,"RT":1707,"MT":440,"sideResp":1,"stimulus":"img/500/randomdotsizeEA/L/11_Ratio_500_L_12_R_6.png","xmouse":[799,799,799,799,799,799,799,799,799,799,799,799,799,799,799,799,799,799,799,799,799,799,799,799,799,799,799,799,799,799,799,799,799,799,799,799,799,799,799,799,799,799,799,799,799,799,799,799,799,799,799,799,799,799,799,799,799,799,799,799,799,799,799,799,799,799,799,799,799,799,799,799,799,799,799,799,799,799,799,799,799,799,798,795,789,770,762,750,740,725,704,697,691,683,673,650,644,638,632,624,604,588,569,554,541,528,525,524],"ymouse":[570,570,570,570,570,570,570,570,570,570,570,570,570,570,570,570,570,570,570,570,570,570,570,570,570,570,570,570,570,570,570,570,570,570,570,570,570,570,570,570,570,570,570,570,570,570,570,570,570,570,570,570,570,570,570,570,570,570,570,570,570,570,570,570,570,570,570,570,570,570,570,570,570,570,570,570,570,570,570,570,570,569,567,553,533,484,465,438,410,372,313,290,268,244,219,169,160,150,143,134,114,102,90,83,77,72,71,70],"timestamp_mouse":[9,27,48,67,87,108,126,147,166,187,207,227,247,267,287,308,328,347,367,387,408,427,447,467,488,507,527,547,567,588,607,627,648,667,687,707,728,747,767,786,808,827,848,866,887,907,928,948,967,988,1007,1028,1048,1067,1087,1106,1128,1148,1167,1187,1207,1228,1248,1266,1288,1307,1327,1348,1368,1388,1407,1426,1447,1468,1487,1507,1527,1548,1568,1587,1607,1627,1647,1667,1688,1707,1728,1747,1767,1787,1807,1828,1848,1867,1887,1907,1927,1948,1967,1987,2008,2027,2047,2066,2087,2107,2128,2147],"xSR":741.5,"ySR":501.8,"xT1":424.9,"yT1":0,"xT2":1058.1,"yT2":0,"toosoon":0,"cond_shown":"randomdotsizeEA","ratio_trial":500,"smaller_num":"6","larger_num":"12","correct_side":1,"subjID":"maria_alejandra_medina_contreras_38","gender":"1","age":"11","school":"sexto"},{"start_time":1551887766960,"click_time":1551887768498,"finger_time":1551887767998,"fix_duration":740.2760974462461,"trial":9,"RT":1038,"MT":500,"sideResp":2,"stimulus":"img/750/randomdotsizeEA/L/14_Ratio_750_L_8_R_6.png","xmouse":[777,777,777,777,777,777,777,777,777,777,777,777,777,777,777,777,777,777,777,777,777,777,777,777,777,777,777,777,777,777,777,777,777,777,777,777,776,776,776,776,776,776,776,776,776,776,776,783,797,813,829,860,865,865,865,865,865,868,871,880,903,999,1055,1098,1127,1148,1164,1166,1167,1169,1172,1175,1175,1175,1171,1162,1146],"ymouse":[544,544,544,544,544,544,544,544,544,544,544,544,544,544,544,544,544,544,544,544,544,544,544,544,544,544,544,544,544,544,544,544,544,544,544,544,545,545,545,545,545,545,545,545,545,545,545,544,539,533,527,517,515,514,514,514,514,513,510,501,478,360,291,238,196,164,132,127,126,124,119,112,109,103,96,86,74],"timestamp_mouse":[18,44,58,78,99,118,138,158,179,197,218,238,259,278,299,319,339,358,379,398,418,439,458,479,498,518,538,558,579,598,618,637,659,678,698,719,738,759,778,798,818,838,858,878,897,918,938,958,978,998,1018,1038,1059,1078,1098,1118,1138,1158,1178,1198,1218,1239,1259,1278,1298,1318,1337,1359,1377,1398,1418,1438,1458,1478,1498,1519,1538],"xSR":741.5,"ySR":501.8,"xT1":424.9,"yT1":0,"xT2":1058.1,"yT2":0,"toosoon":0,"cond_shown":"randomdotsizeEA","ratio_trial":750,"smaller_num":"6","larger_num":"8","correct_side":1,"subjID":"maria_alejandra_medina_contreras_38","gender":"1","age":"11","school":"sexto"},{"start_time":1551887770827,"click_time":1551887775018,"finger_time":1551887771678,"fix_duration":1368.2255053637432,"trial":10,"RT":851,"MT":3340,"sideResp":1,"stimulus":"img/900/equaldotanddens/L/8_Ratio_900_L_20_R_18.png","xmouse":[798,798,798,798,798,798,798,798,798,798,798,798,798,798,798,798,798,798,798,798,798,798,798,798,798,798,798,798,798,798,798,798,798,798,798,798,798,798,798,798,798,792,789,770,751,741,734,731,729,728,728,728,728,712,681,652,631,613,598,598,598,598,614,668,688,700,708,710,710,710,711,715,724,795,845,899,945,986,1032,1039,1040,1040,1040,1040,1040,1040,1040,1040,1040,1040,1040,1040,1039,1037,1035,1034,1031,1029,1021,1016,1012,1007,1005,1000,997,994,991,988,982,977,969,957,942,889,813,756,688,606,370,216,216,216,216,216,634,1279,1279,1279,1279,1279,1521,1399,1270,1078,1039,1027,1021,1013,970,910,842,750,629,288,156,42,0,0,0,0,0,0,38,38,38,1047,1288,1444,1556,1562,1563,1564,1563,1536,1501,1300,982,658,146,146,146,146,146,146,146,146,146,146,146,146,146,146,146,146,146,146,146,146,146,146,146,146,146,146,561,589,601,601,601,601,601,601,601,601,601,595,584,571,527,508],"ymouse":[522,522,522,522,522,522,522,522,522,522,522,522,522,522,522,522,522,522,522,522,522,522,522,522,522,522,522,522,522,522,522,522,522,522,522,522,522,522,522,522,522,508,501,465,437,423,414,408,404,403,403,403,401,363,303,257,224,195,172,172,172,172,178,203,213,219,223,224,224,224,224,224,224,225,232,240,246,250,246,239,230,215,202,182,174,172,172,172,172,172,172,171,174,178,184,189,195,199,214,223,230,237,241,252,260,268,272,277,285,288,292,294,295,292,274,257,236,210,111,36,36,36,36,36,119,297,297,297,297,297,661,626,586,522,512,507,506,503,489,473,450,425,392,295,259,225,190,156,85,55,34,24,4,4,4,35,74,120,180,193,204,217,223,225,222,183,128,78,1,1,1,1,1,1,1,1,1,1,1,1,1,1,1,1,1,1,1,1,1,1,1,1,1,1,15,22,26,26,26,26,26,26,26,26,27,29,29,29,29,29],"timestamp_mouse":[11,31,50,71,91,111,131,152,172,190,211,231,251,270,292,311,331,351,371,391,411,431,450,471,492,510,531,551,571,591,611,631,652,671,691,711,731,752,771,791,812,831,851,871,890,910,931,951,972,991,1011,1031,1052,1070,1091,1110,1131,1151,1171,1191,1211,1231,1252,1271,1291,1311,1332,1351,1371,1392,1411,1431,1452,1472,1492,1511,1531,1552,1572,1591,1611,1631,1652,1671,1692,1712,1731,1750,1771,1791,1811,1831,1852,1872,1891,1911,1932,1951,1972,1990,2011,2031,2051,2072,2091,2111,2131,2151,2171,2191,2212,2232,2251,2271,2291,2311,2331,2351,2372,2392,2411,2430,2452,2472,2492,2511,2532,2552,2571,2591,2610,2631,2652,2671,2691,2711,2730,2752,2772,2790,2811,2830,2852,2871,2892,2912,2931,2950,2970,2991,3012,3030,3050,3072,3091,3111,3131,3152,3171,3191,3211,3232,3251,3271,3291,3311,3331,3352,3372,3391,3412,3431,3452,3471,3491,3511,3530,3552,3571,3591,3611,3630,3651,3671,3691,3712,3731,3750,3770,3792,3810,3830,3851,3870,3891,3911,3931,3952,3972,3991,4011,4031,4051,4072,4091,4110,4130,4151,4172,4191],"xSR":741.5,"ySR":501.8,"xT1":424.9,"yT1":0,"xT2":1058.1,"yT2":0,"toosoon":0,"cond_shown":"equaldotanddens","ratio_trial":900,"smaller_num":"18","larger_num":"20","correct_side":1,"subjID":"maria_alejandra_medina_contreras_38","gender":"1","age":"11","school":"sexto"},{"start_time":1551887776490,"click_time":1551887777718,"finger_time":1551887777398,"fix_duration":369.58795653740407,"trial":11,"RT":908,"MT":320,"sideResp":1,"stimulus":"img/250/randomdotsizeEA/L/2_Ratio_250_L_16_R_4.png","xmouse":[792,792,792,792,792,792,792,792,792,792,792,792,792,792,792,792,792,792,792,792,792,792,792,792,792,792,792,792,792,792,792,792,792,792,792,792,792,792,792,792,792,792,791,787,777,746,724,709,700,693,682,681,674,669,661,636,623,609,592,576,539,523],"ymouse":[536,536,536,536,536,536,536,536,536,536,536,536,536,536,536,536,536,536,536,536,536,536,536,536,536,536,536,536,536,536,536,536,536,536,536,536,536,536,536,536,536,536,536,530,513,457,420,389,366,344,300,294,276,260,242,206,193,176,156,137,99,82],"timestamp_mouse":[8,38,49,67,88,108,128,149,169,189,208,228,249,268,287,308,329,348,369,388,408,429,449,468,488,509,528,548,569,589,608,627,647,669,689,708,728,748,769,788,808,829,848,868,887,908,928,948,968,989,1008,1029,1048,1068,1088,1109,1129,1148,1168,1189,1207,1228],"xSR":741.5,"ySR":501.8,"xT1":424.9,"yT1":0,"xT2":1058.1,"yT2":0,"toosoon":0,"cond_shown":"randomdotsizeEA","ratio_trial":250,"smaller_num":"4","larger_num":"16","correct_side":1,"subjID":"maria_alejandra_medina_contreras_38","gender":"1","age":"11","school":"sexto"},{"start_time":1551887779431,"click_time":1551887780479,"finger_time":1551887780098,"fix_duration":870.4212173653011,"trial":12,"RT":667,"MT":381,"sideResp":2,"stimulus":"img/250/equaldotanddens/R/13_Ratio_250_L_2_R_8.png","xmouse":[789,789,789,789,789,789,789,789,789,789,789,789,789,789,789,789,789,789,789,789,789,789,789,789,789,789,789,789,789,789,792,796,808,842,857,870,878,894,974,1023,1069,1112,1142,1174,1176,1176,1173,1172,1167,1161,1155,1145,1132],"ymouse":[570,570,570,570,570,570,570,570,570,570,570,570,570,570,570,570,570,570,570,570,570,570,570,570,570,570,570,570,570,570,569,566,557,537,527,513,502,484,426,394,362,325,288,221,190,176,163,156,140,131,122,110,98],"timestamp_mouse":[11,37,47,67,87,107,127,147,167,186,207,227,247,267,287,307,327,347,368,388,408,427,447,468,487,507,527,547,567,588,607,628,648,667,688,707,727,747,767,786,807,827,848,867,887,907,927,947,966,988,1007,1026,1048],"xSR":741.5,"ySR":501.8,"xT1":424.9,"yT1":0,"xT2":1058.1,"yT2":0,"toosoon":0,"cond_shown":"equaldotanddens","ratio_trial":250,"smaller_num":"2","larger_num":"8","correct_side":2,"subjID":"maria_alejandra_medina_contreras_38","gender":"1","age":"11","school":"sexto"},{"start_time":1551887781583,"click_time":1551887782699,"finger_time":1551887782438,"fix_duration":284.8433742831101,"trial":13,"RT":855,"MT":261,"sideResp":1,"stimulus":"img/750/randomdotsizeEA/R/2_Ratio_750_L_6_R_8.png","xmouse":[776,776,776,778,778,779,779,779,779,779,779,779,779,779,779,779,779,779,779,779,779,779,779,779,779,779,779,779,779,779,779,779,779,779,779,779,779,779,779,779,779,775,767,750,722,654,612,554,520,494,460,451,447,447,447,446],"ymouse":[546,547,547,547,547,547,547,547,547,547,547,547,547,547,547,547,547,547,547,547,547,547,547,547,547,547,547,547,547,547,547,547,547,547,547,547,547,547,547,547,543,528,501,460,410,291,233,173,144,126,108,103,102,101,101,99],"timestamp_mouse":[16,45,55,75,96,115,135,155,175,195,214,235,255,275,295,315,335,355,375,395,415,435,456,475,495,515,534,555,576,595,616,635,655,676,695,716,736,755,775,795,815,835,855,874,895,915,936,955,974,995,1014,1034,1055,1075,1095,1116],"xSR":741.5,"ySR":501.8,"xT1":424.9,"yT1":0,"xT2":1058.1,"yT2":0,"toosoon":0,"cond_shown":"randomdotsizeEA","ratio_trial":750,"smaller_num":"6","larger_num":"8","correct_side":2,"subjID":"maria_alejandra_medina_contreras_38","gender":"1","age":"11","school":"sexto"},{"start_time":1551887786196,"click_time":1551887787358,"finger_time":1551887787059,"fix_duration":597.6874245673359,"trial":14,"RT":863,"MT":299,"sideResp":1,"stimulus":"img/500/equaldotanddens/L/10_Ratio_500_L_4_R_2.png","xmouse":[774,774,774,774,774,774,774,774,774,774,774,774,774,774,774,774,774,774,774,774,774,774,774,774,774,774,774,774,774,774,774,774,774,774,774,774,774,774,774,774,776,778,778,778,778,757,749,733,726,718,699,685,665,642,618,571,548,509,484],"ymouse":[565,565,565,565,565,565,565,565,565,565,565,565,565,565,565,565,565,565,565,565,565,565,565,565,565,565,565,565,565,565,565,565,565,565,565,565,565,565,563,561,551,538,508,472,429,330,315,278,261,243,214,201,189,179,168,143,131,108,95],"timestamp_mouse":[10,23,42,61,82,102,122,143,163,182,202,222,242,263,281,302,322,343,362,382,402,423,442,462,483,502,523,542,562,583,603,622,643,663,683,703,723,743,763,782,802,821,843,863,882,902,921,941,962,982,1002,1022,1041,1061,1083,1102,1122,1142,1162],"xSR":741.5,"ySR":501.8,"xT1":424.9,"yT1":0,"xT2":1058.1,"yT2":0,"toosoon":0,"cond_shown":"equaldotanddens","ratio_trial":500,"smaller_num":"2","larger_num":"4","correct_side":1,"subjID":"maria_alejandra_medina_contreras_38","gender":"1","age":"11","school":"sexto"},{"start_time":1551887788643,"click_time":1551887790599,"finger_time":1551887790079,"fix_duration":383.2490715162575,"trial":15,"RT":1436,"MT":520,"sideResp":2,"stimulus":"img/500/randomdotsizeEA/R/15_Ratio_500_L_1_R_2.png","xmouse":[789,789,789,789,789,789,789,789,789,789,789,789,789,789,789,789,789,789,789,789,789,789,789,789,789,789,789,789,789,789,789,789,789,789,789,789,789,789,789,789,789,789,789,789,789,789,789,789,789,789,789,789,789,789,789,789,789,789,789,789,789,789,789,789,789,789,789,791,800,815,833,852,894,931,959,983,1007,1044,1062,1083,1098,1121,1129,1132,1134,1135,1137,1140,1142,1142,1143,1144,1145,1144,1143,1141,1139,1133],"ymouse":[568,568,568,568,568,568,568,568,568,568,568,568,568,568,568,568,568,568,568,568,568,568,568,568,568,568,568,568,568,568,568,568,568,568,568,568,568,568,568,568,568,568,568,568,568,568,568,568,568,568,568,568,568,568,568,568,568,568,568,568,568,568,568,568,568,568,568,566,558,549,535,520,484,454,434,416,399,369,351,331,308,264,235,220,206,195,185,164,154,147,141,135,122,114,110,104,100,92],"timestamp_mouse":[16,37,55,75,96,115,135,156,176,195,216,236,255,274,296,315,336,355,375,396,415,435,455,476,495,514,536,555,575,596,615,634,655,675,696,714,736,755,776,796,816,836,854,876,896,915,936,955,976,995,1014,1035,1054,1076,1094,1115,1135,1155,1176,1196,1216,1234,1255,1276,1295,1315,1335,1354,1375,1396,1416,1436,1455,1475,1495,1515,1536,1555,1575,1595,1635,1637,1655,1676,1695,1715,1735,1756,1775,1795,1815,1835,1854,1875,1895,1916,1936,1956],"xSR":741.5,"ySR":501.8,"xT1":424.9,"yT1":0,"xT2":1058.1,"yT2":0,"toosoon":0,"cond_shown":"randomdotsizeEA","ratio_trial":500,"smaller_num":"1","larger_num":"2","correct_side":2,"subjID":"maria_alejandra_medina_contreras_38","gender":"1","age":"11","school":"sexto"},{"start_time":1551887799524,"click_time":1551887804697,"finger_time":1551887799598,"fix_duration":306.10862876723365,"trial":16,"RT":74,"MT":5099,"sideResp":1,"stimulus":"img/250/equaldotsize/R/12_Ratio_250_L_5_R_20.png","xmouse":[776,776,776,777,777,778,780,780,780,780,783,787,789,790,790,790,790,790,790,791,793,794,794,794,794,794,794,794,794,794,794,794,794,794,794,794,794,794,794,794,794,794,794,794,794,794,794,794,794,796,796,796,796,796,796,796,796,796,796,798,802,806,812,816,816,816,816,815,815,815,815,815,815,815,815,815,815,815,815,815,815,815,815,815,815,815,815,815,815,815,815,815,815,815,815,815,815,815,815,815,815,815,815,815,815,815,815,815,815,815,815,815,815,815,815,815,815,815,815,815,815,815,815,815,815,815,815,815,815,815,815,815,815,815,815,815,815,815,811,805,800,797,793,785,782,780,780,780,780,780,780,780,780,780,780,780,780,781,782,782,782,783,783,784,784,784,785,785,785,786,787,788,789,790,790,792,792,792,793,794,795,796,797,799,800,801,801,801,802,802,802,802,802,802,802,802,802,802,802,802,802,802,802,802,802,802,802,802,802,802,802,802,802,802,802,803,803,803,803,803,803,803,803,803,803,803,803,803,803,803,803,803,803,803,803,803,803,803,803,803,803,803,803,803,803,803,803,804,795,774,739,702,671,636,625,612,596,562,439],"ymouse":[599,598,598,608,622,630,634,634,634,635,630,622,616,615,615,615,615,615,615,613,610,608,608,608,608,608,608,608,608,608,608,608,608,608,608,608,608,608,608,608,608,608,608,608,608,608,608,608,608,608,608,608,608,608,608,608,608,608,608,608,607,604,598,578,568,565,560,560,560,560,560,560,560,560,560,560,561,562,562,562,562,562,562,562,562,562,562,562,562,562,562,562,562,562,562,562,562,562,562,562,562,562,562,562,562,562,562,562,562,562,562,562,562,562,562,562,562,562,562,562,562,562,562,562,562,562,562,562,562,562,562,562,562,562,562,562,562,562,563,563,563,563,563,564,565,565,565,565,565,565,565,565,565,565,565,565,564,563,561,560,558,556,554,551,550,549,549,549,548,546,546,545,544,543,542,542,542,542,541,541,541,541,541,541,541,541,541,541,541,541,541,541,541,541,541,541,541,541,541,541,541,541,541,541,541,541,541,541,541,541,541,541,541,541,541,541,541,541,541,541,541,541,541,541,541,541,541,541,541,541,541,541,541,541,541,541,541,541,541,541,541,541,541,541,541,541,541,536,518,467,408,346,300,242,224,203,180,142,55],"timestamp_mouse":[14,46,54,74,94,114,134,155,174,195,213,234,255,274,295,315,335,354,374,395,414,433,455,475,494,515,534,554,575,595,615,633,654,674,694,715,734,755,774,793,814,834,854,874,894,915,933,955,974,995,1014,1034,1054,1073,1095,1114,1134,1154,1174,1194,1214,1235,1255,1274,1295,1314,1335,1353,1375,1394,1415,1434,1454,1474,1494,1514,1535,1555,1574,1594,1614,1634,1654,1673,1694,1714,1735,1754,1774,1794,1815,1834,1854,1873,1895,1913,1934,1954,1974,1994,2014,2034,2053,2074,2094,2114,2135,2155,2174,2194,2214,2234,2255,2273,2294,2314,2334,2354,2374,2395,2414,2434,2454,2474,2494,2513,2535,2553,2574,2594,2614,2634,2653,2675,2694,2714,2734,2754,2774,2794,2814,2835,2853,2874,2894,2913,2934,2953,2974,2995,3015,3034,3054,3075,3094,3114,3135,3154,3173,3194,3214,3235,3254,3274,3295,3315,3334,3354,3374,3394,3414,3433,3455,3474,3493,3514,3534,3554,3574,3594,3614,3635,3654,3674,3694,3714,3734,3755,3774,3795,3815,3834,3854,3874,3893,3914,3935,3954,3974,3995,4015,4033,4055,4074,4095,4115,4134,4153,4174,4195,4214,4235,4254,4275,4294,4314,4335,4354,4374,4394,4415,4434,4455,4474,4493,4515,4535,4554,4574,4595,4614,4633,4654,4675,4694,4715,4734,4755,4774,4794,4814,4835,4854,4873,4894,4914,4935,4954,4974,4994,5014,5034,5053,5074,5094,5114,5135,5155,5173],"xSR":741.5,"ySR":501.8,"xT1":424.9,"yT1":0,"xT2":1058.1,"yT2":0,"toosoon":0,"cond_shown":"equaldotsize","ratio_trial":250,"smaller_num":"5","larger_num":"20","correct_side":2,"subjID":"maria_alejandra_medina_contreras_38","gender":"1","age":"11","school":"sexto"},{"start_time":1551887820710,"click_time":1551887821698,"finger_time":1551887821477,"fix_duration":250,"trial":17,"RT":767,"MT":221,"sideResp":1,"stimulus":"img/500/equaldotanddens/L/5_Ratio_500_L_4_R_2.png","xmouse":[782,782,782,782,782,782,782,782,782,782,782,782,782,782,782,782,782,782,782,782,782,782,782,782,782,782,782,782,782,782,782,782,782,782,782,781,775,763,746,696,659,639,618,604,572,559,548,539,532,523],"ymouse":[556,556,556,556,556,556,556,556,556,556,556,556,556,556,556,556,556,556,556,556,556,556,556,556,556,556,556,556,556,556,556,556,556,556,556,548,535,508,468,376,310,273,236,210,156,136,120,108,97,87],"timestamp_mouse":[9,38,47,67,89,108,128,148,167,189,207,227,249,267,288,308,328,348,367,387,408,427,447,467,487,508,528,548,568,587,607,627,647,667,688,708,727,747,767,787,807,828,848,867,887,908,928,949,968,988],"xSR":741.5,"ySR":501.8,"xT1":424.9,"yT1":0,"xT2":1058.1,"yT2":0,"toosoon":0,"cond_shown":"equaldotanddens","ratio_trial":500,"smaller_num":"2","larger_num":"4","correct_side":1,"subjID":"maria_alejandra_medina_contreras_38","gender":"1","age":"11","school":"sexto"},{"start_time":1551887823385,"click_time":1551887824398,"finger_time":1551887824098,"fix_duration":725.6581385250216,"trial":18,"RT":713,"MT":300,"sideResp":1,"stimulus":"img/500/equaldotsize/L/11_Ratio_500_L_12_R_6.png","xmouse":[816,816,816,816,816,816,816,816,816,816,816,816,816,816,816,816,816,816,816,816,816,816,816,816,816,816,816,816,816,816,816,816,813,810,803,760,732,700,661,610,501,464,440,428,423,422,422,424,428,434,448],"ymouse":[562,562,562,562,562,562,562,562,562,562,562,562,562,562,562,562,562,562,562,562,562,562,562,562,562,562,562,562,562,562,562,562,562,557,540,474,437,400,359,314,232,202,180,167,157,150,141,134,127,119,98],"timestamp_mouse":[13,39,53,73,93,113,134,152,173,194,212,232,254,273,292,312,332,354,374,393,414,433,452,472,492,513,532,552,574,592,614,632,653,673,693,713,733,753,772,792,813,833,853,874,894,913,932,952,973,992,1013],"xSR":741.5,"ySR":501.8,"xT1":424.9,"yT1":0,"xT2":1058.1,"yT2":0,"toosoon":0,"cond_shown":"equaldotsize","ratio_trial":500,"smaller_num":"6","larger_num":"12","correct_side":1,"subjID":"maria_alejandra_medina_contreras_38","gender":"1","age":"11","school":"sexto"},{"start_time":1551887827745,"click_time":1551887828997,"finger_time":1551887828639,"fix_duration":926.3782296374179,"trial":19,"RT":894,"MT":358,"sideResp":1,"stimulus":"img/250/randomdotsizeEA/L/7_Ratio_250_L_8_R_2.png","xmouse":[782,782,782,782,782,782,782,782,782,782,782,782,782,782,782,782,782,782,782,782,782,782,782,782,782,782,782,782,782,782,782,782,782,782,782,782,782,782,782,782,781,779,774,769,765,755,747,725,714,699,691,685,670,664,660,651,638,603,582,545,522,498,473],"ymouse":[571,571,571,571,571,571,571,571,571,571,571,571,571,571,571,571,571,571,571,571,571,571,571,571,571,571,571,571,571,571,571,571,571,571,571,571,571,571,571,571,566,560,533,506,467,406,349,272,245,223,215,210,203,199,196,189,183,163,152,136,126,116,98],"timestamp_mouse":[13,32,54,74,94,113,134,154,173,194,212,234,252,274,293,314,332,353,372,393,413,432,452,474,492,512,533,552,572,593,612,633,652,672,692,712,732,753,773,792,814,833,852,872,894,913,932,952,974,992,1014,1032,1052,1072,1093,1114,1133,1152,1172,1193,1213,1232,1252],"xSR":741.5,"ySR":501.8,"xT1":424.9,"yT1":0,"xT2":1058.1,"yT2":0,"toosoon":0,"cond_shown":"randomdotsizeEA","ratio_trial":250,"smaller_num":"2","larger_num":"8","correct_side":1,"subjID":"maria_alejandra_medina_contreras_38","gender":"1","age":"11","school":"sexto"},{"start_time":1551887830384,"click_time":1551887831317,"finger_time":1551887831219,"fix_duration":303.63603310880063,"trial":20,"RT":835,"MT":98,"sideResp":1,"stimulus":"img/750/equaldotsize/L/10_Ratio_750_L_4_R_3.png","xmouse":[820,820,820,820,820,820,820,820,820,820,820,820,820,820,820,820,820,820,820,820,820,820,820,820,820,820,820,820,820,820,820,820,820,820,820,820,820,820,820,819,805,781,748,702,654,541,466],"ymouse":[565,565,565,565,565,565,565,565,565,565,565,565,565,565,565,565,565,565,565,565,565,565,565,565,565,565,565,565,565,565,565,565,565,565,565,565,565,565,565,562,523,476,415,348,277,145,75],"timestamp_mouse":[13,33,62,75,95,113,134,153,173,195,213,234,254,273,294,314,334,354,373,395,413,434,454,473,494,513,535,554,574,593,615,634,654,674,694,714,734,755,773,793,814,835,853,875,894,914,933],"xSR":741.5,"ySR":501.8,"xT1":424.9,"yT1":0,"xT2":1058.1,"yT2":0,"toosoon":0,"cond_shown":"equaldotsize","ratio_trial":750,"smaller_num":"3","larger_num":"4","correct_side":1,"subjID":"maria_alejandra_medina_contreras_38","gender":"1","age":"11","school":"sexto"},{"start_time":1551887833424,"click_time":1551887834417,"finger_time":1551887834137,"fix_duration":1004.5811580929301,"trial":21,"RT":713,"MT":280,"sideResp":1,"stimulus":"img/500/randomdotsizeEA/L/5_Ratio_500_L_4_R_2.png","xmouse":[760,760,760,760,760,760,760,760,760,760,760,760,760,760,760,760,760,760,760,760,760,760,760,760,760,760,760,760,760,760,760,760,760,757,751,726,696,670,621,600,585,568,557,535,519,510,502,496,491,491],"ymouse":[534,534,534,534,534,534,534,534,534,534,534,534,534,534,534,534,534,534,534,534,534,534,534,534,534,534,534,534,534,534,534,534,534,527,518,479,442,414,365,341,320,295,275,234,201,180,158,140,110,92],"timestamp_mouse":[13,36,54,75,93,114,135,153,174,195,213,233,254,274,293,313,333,354,374,395,414,434,455,473,494,515,534,554,573,595,613,633,654,673,695,713,733,754,773,794,813,833,855,874,893,914,934,955,975,993],"xSR":741.5,"ySR":501.8,"xT1":424.9,"yT1":0,"xT2":1058.1,"yT2":0,"toosoon":0,"cond_shown":"randomdotsizeEA","ratio_trial":500,"smaller_num":"2","larger_num":"4","correct_side":1,"subjID":"maria_alejandra_medina_contreras_38","gender":"1","age":"11","school":"sexto"},{"start_time":1551887835511,"click_time":1551887836558,"finger_time":1551887836298,"fix_duration":250,"trial":22,"RT":787,"MT":260,"sideResp":1,"stimulus":"img/900/equaldotsize/L/10_Ratio_900_L_20_R_18.png","xmouse":[765,765,765,765,765,765,765,766,766,766,766,766,766,766,766,766,766,766,766,766,766,766,766,766,766,766,766,766,766,766,766,766,766,766,766,766,764,756,742,691,644,608,568,530,479,467,461,459,457,457,457,457,458],"ymouse":[567,567,567,567,567,567,567,567,567,567,567,567,567,567,567,567,567,567,567,567,567,567,567,567,567,567,567,567,567,567,567,567,567,567,567,562,555,535,503,425,358,309,254,206,137,121,112,108,105,105,104,100,96],"timestamp_mouse":[11,27,50,68,86,107,128,147,167,188,206,227,246,268,288,307,327,347,366,388,406,426,447,466,486,507,528,548,567,587,607,628,646,666,688,707,728,746,767,787,807,826,848,868,887,907,926,948,967,987,1007,1027,1047],"xSR":741.5,"ySR":501.8,"xT1":424.9,"yT1":0,"xT2":1058.1,"yT2":0,"toosoon":0,"cond_shown":"equaldotsize","ratio_trial":900,"smaller_num":"18","larger_num":"20","correct_side":1,"subjID":"maria_alejandra_medina_contreras_38","gender":"1","age":"11","school":"sexto"},{"start_time":1551887838514,"click_time":1551887839497,"finger_time":1551887839219,"fix_duration":774.9822797033142,"trial":23,"RT":705,"MT":278,"sideResp":1,"stimulus":"img/500/equaldotsize/L/7_Ratio_500_L_10_R_5.png","xmouse":[767,767,767,767,767,767,767,767,767,767,767,767,767,767,767,767,767,767,767,767,767,767,767,767,767,767,767,767,767,767,767,767,767,766,763,759,755,748,725,691,680,651,636,623,599,587,572,558,540,503],"ymouse":[542,542,542,542,542,542,542,542,542,542,542,542,542,542,542,542,542,542,542,542,542,542,542,542,542,542,542,542,542,542,542,542,542,540,520,496,464,420,321,247,228,183,165,151,134,126,118,109,100,84],"timestamp_mouse":[8,35,44,64,85,103,123,144,163,183,205,223,243,265,283,304,324,344,364,383,404,424,445,463,484,505,524,544,563,583,605,624,643,663,683,705,724,744,765,784,803,824,845,863,883,903,924,944,963,983],"xSR":741.5,"ySR":501.8,"xT1":424.9,"yT1":0,"xT2":1058.1,"yT2":0,"toosoon":0,"cond_shown":"equaldotsize","ratio_trial":500,"smaller_num":"5","larger_num":"10","correct_side":1,"subjID":"maria_alejandra_medina_contreras_38","gender":"1","age":"11","school":"sexto"},{"start_time":1551887840869,"click_time":1551887841857,"finger_time":1551887841618,"fix_duration":730.0761708900845,"trial":24,"RT":749,"MT":239,"sideResp":1,"stimulus":"img/750/equaldotanddens/L/8_Ratio_750_L_4_R_3.png","xmouse":[776,776,776,776,776,776,776,776,776,776,776,776,776,776,776,776,776,776,776,776,776,776,776,776,776,776,776,776,776,776,776,776,776,776,776,773,754,738,720,692,644,597,575,550,543,539,532,529,525,520],"ymouse":[585,585,585,585,585,585,585,585,585,585,585,585,585,585,585,585,585,585,585,585,585,585,585,585,585,585,585,585,585,585,585,585,585,580,570,555,511,472,429,374,286,213,180,145,133,125,112,107,100,94],"timestamp_mouse":[8,28,49,69,89,108,130,149,169,189,210,228,248,268,290,309,328,348,369,389,410,428,448,469,488,510,529,550,569,590,609,628,649,669,690,709,729,749,769,789,809,828,848,868,890,910,929,949,969,988],"xSR":741.5,"ySR":501.8,"xT1":424.9,"yT1":0,"xT2":1058.1,"yT2":0,"toosoon":0,"cond_shown":"equaldotanddens","ratio_trial":750,"smaller_num":"3","larger_num":"4","correct_side":1,"subjID":"maria_alejandra_medina_contreras_38","gender":"1","age":"11","school":"sexto"},{"start_time":1551887843705,"click_time":1551887845038,"finger_time":1551887844517,"fix_duration":904.7756884413164,"trial":25,"RT":812,"MT":521,"sideResp":1,"stimulus":"img/500/randomdotsizeEA/L/8_Ratio_500_L_8_R_4.png","xmouse":[790,790,790,790,790,790,790,790,790,790,790,790,790,790,790,790,790,790,790,790,790,790,790,790,790,790,790,790,790,790,790,790,790,790,790,790,790,789,785,772,766,760,758,757,762,774,787,804,824,865,894,906,916,929,935,943,951,955,957,958,954,942,909,837,630,527,445],"ymouse":[560,560,560,560,560,560,560,560,560,560,560,560,560,560,560,560,560,560,560,560,560,560,560,560,560,560,560,560,560,560,560,560,560,560,560,560,554,548,538,508,490,469,451,433,406,393,383,372,362,335,308,289,269,225,203,180,160,146,135,124,118,113,104,90,68,67,65],"timestamp_mouse":[12,38,54,74,92,112,134,152,174,192,212,233,253,274,292,313,332,353,374,393,413,432,452,474,494,512,532,552,573,594,613,632,653,673,692,713,732,753,773,793,812,833,854,874,893,913,934,954,973,992,1013,1033,1053,1074,1092,1112,1133,1152,1173,1192,1213,1233,1253,1272,1292,1313,1333],"xSR":741.5,"ySR":501.8,"xT1":424.9,"yT1":0,"xT2":1058.1,"yT2":0,"toosoon":0,"cond_shown":"randomdotsizeEA","ratio_trial":500,"smaller_num":"4","larger_num":"8","correct_side":1,"subjID":"maria_alejandra_medina_contreras_38","gender":"1","age":"11","school":"sexto"},{"start_time":1551887847828,"click_time":1551887849059,"finger_time":1551887848598,"fix_duration":250,"trial":26,"RT":770,"MT":461,"sideResp":2,"stimulus":"img/900/equaldotanddens/L/4_Ratio_900_L_20_R_18.png","xmouse":[806,806,806,801,797,795,794,794,794,794,794,794,794,794,794,794,794,794,794,794,794,794,794,794,794,794,794,794,794,794,794,794,794,794,794,794,794,794,780,749,717,695,684,679,679,684,694,710,752,776,797,814,831,862,881,901,928,961,1033,1070,1099,1123],"ymouse":[590,580,571,538,522,517,514,513,513,513,513,513,513,513,513,513,513,513,513,513,513,513,513,513,513,513,513,513,513,513,513,513,513,513,513,513,513,512,472,412,358,319,299,285,282,279,275,266,248,240,233,226,220,202,185,172,160,146,117,109,102,99],"timestamp_mouse":[9,30,52,69,91,110,129,149,169,191,209,230,251,270,289,309,331,349,369,390,410,430,450,470,490,510,530,549,570,591,611,630,650,671,690,710,730,751,770,790,810,829,850,869,890,909,930,950,970,990,1009,1030,1051,1071,1090,1109,1130,1150,1170,1189,1211,1231],"xSR":741.5,"ySR":501.8,"xT1":424.9,"yT1":0,"xT2":1058.1,"yT2":0,"toosoon":0,"cond_shown":"equaldotanddens","ratio_trial":900,"smaller_num":"18","larger_num":"20","correct_side":1,"subjID":"maria_alejandra_medina_contreras_38","gender":"1","age":"11","school":"sexto"},{"start_time":1551887854976,"click_time":1551887856098,"finger_time":1551887855658,"fix_duration":276.96925785919314,"trial":27,"RT":682,"MT":440,"sideResp":1,"stimulus":"img/900/equaldotanddens/L/4_Ratio_900_L_20_R_18.png","xmouse":[813,813,813,813,813,813,813,813,813,813,813,813,813,813,813,813,813,813,813,813,813,813,813,813,813,813,813,813,813,813,813,813,813,808,794,769,740,734,723,710,697,670,663,656,649,642,631,624,621,616,612,599,591,580,569,553,517],"ymouse":[557,557,557,557,557,557,557,557,557,557,557,557,557,557,557,557,557,557,557,557,557,557,557,557,557,557,557,557,557,557,557,557,543,519,483,433,354,320,263,216,175,113,93,78,66,54,41,38,37,36,36,36,36,38,42,48,58],"timestamp_mouse":[9,21,43,62,81,101,123,142,163,182,201,222,241,261,283,302,321,342,362,381,402,422,442,463,481,502,523,541,562,583,601,621,641,661,682,702,721,741,761,781,803,822,843,862,881,901,922,941,962,981,1003,1022,1043,1061,1081,1102,1122],"xSR":741.5,"ySR":501.8,"xT1":424.9,"yT1":0,"xT2":1058.1,"yT2":0,"toosoon":0,"cond_shown":"equaldotanddens","ratio_trial":900,"smaller_num":"18","larger_num":"20","correct_side":1,"subjID":"maria_alejandra_medina_contreras_38","gender":"1","age":"11","school":"sexto"},{"start_time":1551887857611,"click_time":1551887858378,"finger_time":1551887857998,"fix_duration":430.9575839047024,"trial":28,"RT":387,"MT":380,"sideResp":1,"stimulus":"img/500/equaldotanddens/L/4_Ratio_500_L_18_R_9.png","xmouse":[809,809,809,809,809,809,809,809,809,809,809,809,809,809,809,809,809,815,818,830,834,839,842,844,846,846,846,839,830,810,796,771,737,704,629,585,557,530,509],"ymouse":[554,554,554,554,554,554,554,554,554,554,554,554,554,554,554,554,554,538,529,490,472,455,445,439,430,420,414,401,388,360,340,313,277,247,183,145,119,97,79],"timestamp_mouse":[8,31,47,66,86,107,126,147,168,187,206,227,246,267,288,306,327,347,366,387,407,426,446,468,487,506,526,546,567,587,607,627,646,667,688,707,727,747,767],"xSR":741.5,"ySR":501.8,"xT1":424.9,"yT1":0,"xT2":1058.1,"yT2":0,"toosoon":0,"cond_shown":"equaldotanddens","ratio_trial":500,"smaller_num":"9","larger_num":"18","correct_side":1,"subjID":"maria_alejandra_medina_contreras_38","gender":"1","age":"11","school":"sexto"},{"start_time":1551887864907,"click_time":1551887865778,"finger_time":1551887865358,"fix_duration":526.3136470027439,"trial":29,"RT":451,"MT":420,"sideResp":1,"stimulus":"img/250/equaldotsize/L/2_Ratio_250_L_16_R_4.png","xmouse":[833,833,833,833,833,833,833,833,833,833,833,833,832,831,830,828,827,826,824,807,782,762,736,705,646,633,623,612,599,577,569,566,563,562,562,562,561,557,549,535,533,531,528,520],"ymouse":[564,564,564,564,564,564,564,564,564,564,564,564,564,564,565,565,565,565,564,549,530,514,498,478,431,409,390,366,341,287,250,227,207,189,170,165,160,151,132,108,101,97,91,80],"timestamp_mouse":[12,38,51,70,90,112,130,150,170,191,210,231,250,271,291,310,332,350,371,392,410,431,451,472,491,511,532,551,570,591,610,631,652,671,691,711,731,750,770,791,812,830,850,871],"xSR":741.5,"ySR":501.8,"xT1":424.9,"yT1":0,"xT2":1058.1,"yT2":0,"toosoon":0,"cond_shown":"equaldotsize","ratio_trial":250,"smaller_num":"4","larger_num":"16","correct_side":1,"subjID":"maria_alejandra_medina_contreras_38","gender":"1","age":"11","school":"sexto"},{"start_time":1551887894480,"click_time":1551887895678,"finger_time":1551887895318,"fix_duration":462.31973827115525,"trial":30,"RT":838,"MT":360,"sideResp":2,"stimulus":"img/900/equaldotsize/R/12_Ratio_900_L_18_R_20.png","xmouse":[801,801,801,801,801,801,801,801,801,801,801,801,801,801,801,801,801,801,801,801,801,801,801,801,801,801,801,801,801,801,801,801,801,801,801,801,801,801,801,801,818,868,922,984,1040,1106,1119,1124,1125,1125,1126,1127,1127,1127,1126,1124,1123,1123,1123,1123],"ymouse":[559,559,559,559,559,559,559,559,559,559,559,559,559,559,559,559,559,559,559,559,559,559,559,559,559,559,559,559,559,559,559,559,559,559,559,559,559,559,559,556,537,483,436,377,310,203,168,150,142,139,136,135,132,126,120,114,111,107,103,98],"timestamp_mouse":[17,38,58,77,97,118,138,157,177,198,217,238,258,278,298,316,337,357,377,398,418,438,458,478,497,518,538,557,578,597,617,637,658,678,697,718,737,758,778,797,816,838,857,877,897,917,937,957,977,998,1017,1037,1056,1078,1097,1117,1137,1156,1176,1197],"xSR":741.5,"ySR":501.8,"xT1":424.9,"yT1":0,"xT2":1058.1,"yT2":0,"toosoon":0,"cond_shown":"equaldotsize","ratio_trial":900,"smaller_num":"18","larger_num":"20","correct_side":2,"subjID":"maria_alejandra_medina_contreras_38","gender":"1","age":"11","school":"sexto"},{"start_time":1551887897692,"click_time":1551887898817,"finger_time":1551887898458,"fix_duration":1092.5107020343396,"trial":31,"RT":766,"MT":359,"sideResp":2,"stimulus":"img/250/equaldotsize/R/13_Ratio_250_L_2_R_8.png","xmouse":[775,775,775,775,775,775,775,775,775,775,775,775,775,775,775,775,775,775,775,775,775,775,775,775,775,775,775,775,775,775,775,775,775,775,775,775,775,775,799,815,883,891,911,919,924,934,939,946,955,966,987,996,1015,1026,1050,1057,1063],"ymouse":[524,524,524,524,524,524,524,524,524,524,524,524,524,524,524,524,524,524,524,524,524,524,524,524,524,524,524,524,524,524,524,524,524,524,524,524,524,524,496,478,395,381,336,304,269,194,161,129,105,85,58,51,45,44,41,39,38],"timestamp_mouse":[9,25,45,65,85,105,126,146,164,185,205,224,246,265,285,304,325,345,366,385,405,425,444,465,486,506,526,546,566,585,605,626,644,666,685,704,726,745,766,785,804,824,845,866,886,906,925,945,966,984,1005,1025,1045,1066,1086,1105,1125],"xSR":741.5,"ySR":501.8,"xT1":424.9,"yT1":0,"xT2":1058.1,"yT2":0,"toosoon":0,"cond_shown":"equaldotsize","ratio_trial":250,"smaller_num":"2","larger_num":"8","correct_side":2,"subjID":"maria_alejandra_medina_contreras_38","gender":"1","age":"11","school":"sexto"},{"start_time":1551887900401,"click_time":1551887901177,"finger_time":1551887900997,"fix_duration":721.1627770663462,"trial":32,"RT":596,"MT":180,"sideResp":1,"stimulus":"img/750/equaldotsize/L/14_Ratio_750_L_8_R_6.png","xmouse":[803,803,803,803,803,803,803,803,803,803,803,803,803,803,803,803,803,803,803,803,803,803,803,803,803,803,792,772,749,698,669,640,616,595,552,540,532,527,523],"ymouse":[545,545,545,545,545,545,545,545,545,545,545,545,545,545,545,545,545,545,545,545,545,545,545,545,545,545,538,523,507,461,422,362,298,225,90,65,52,42,34],"timestamp_mouse":[16,36,57,76,96,116,136,156,175,196,216,236,256,276,296,316,336,357,376,396,416,436,456,477,496,515,536,556,576,596,616,637,655,676,695,716,736,756,775],"xSR":741.5,"ySR":501.8,"xT1":424.9,"yT1":0,"xT2":1058.1,"yT2":0,"toosoon":0,"cond_shown":"equaldotsize","ratio_trial":750,"smaller_num":"6","larger_num":"8","correct_side":1,"subjID":"maria_alejandra_medina_contreras_38","gender":"1","age":"11","school":"sexto"},{"start_time":1551887905150,"click_time":1551887905979,"finger_time":1551887905897,"fix_duration":1472.6270321764443,"trial":33,"RT":747,"MT":82,"sideResp":1,"stimulus":"img/750/equaldotanddens/L/10_Ratio_750_L_4_R_3.png","xmouse":[786,786,786,786,786,786,786,786,786,786,786,786,786,786,786,786,786,786,786,786,786,786,786,786,786,786,786,786,786,786,786,786,786,786,786,782,780,671,600,538,492,464],"ymouse":[551,551,551,551,551,551,551,551,551,551,551,551,551,551,551,551,551,551,551,551,551,551,551,551,551,551,551,551,551,551,551,551,551,551,551,547,539,399,301,209,129,67],"timestamp_mouse":[9,34,47,67,87,107,126,148,167,187,207,227,247,267,287,307,327,348,367,387,407,427,447,467,487,507,527,547,567,587,607,626,648,668,688,707,726,747,767,787,808,828],"xSR":741.5,"ySR":501.8,"xT1":424.9,"yT1":0,"xT2":1058.1,"yT2":0,"toosoon":0,"cond_shown":"equaldotanddens","ratio_trial":750,"smaller_num":"3","larger_num":"4","correct_side":1,"subjID":"maria_alejandra_medina_contreras_38","gender":"1","age":"11","school":"sexto"},{"start_time":1551887909390,"click_time":1551887910557,"finger_time":1551887910178,"fix_duration":1230.6041238225298,"trial":34,"RT":788,"MT":379,"sideResp":1,"stimulus":"img/900/equaldotanddens/L/1_Ratio_900_L_10_R_9.png","xmouse":[787,787,787,787,787,787,787,787,787,787,787,787,787,787,787,787,787,787,787,787,787,787,787,787,787,787,787,787,787,787,787,787,787,787,787,787,783,779,769,741,718,691,661,631,610,582,570,564,561,559,556,554,553,551,547,540,531,526,522],"ymouse":[564,564,564,564,564,564,564,564,564,564,564,563,563,563,562,562,562,562,562,562,562,562,562,562,562,562,561,560,560,559,557,556,553,551,549,542,532,523,509,468,435,401,357,314,276,227,204,193,188,181,172,162,152,141,127,102,81,72,65],"timestamp_mouse":[8,27,47,67,87,107,127,147,167,187,208,228,248,268,288,306,328,347,368,387,408,427,448,468,486,508,528,547,567,587,608,628,647,668,687,706,727,747,767,788,807,827,848,867,887,907,928,947,968,987,1007,1027,1047,1067,1087,1107,1127,1148,1167],"xSR":741.5,"ySR":501.8,"xT1":424.9,"yT1":0,"xT2":1058.1,"yT2":0,"toosoon":0,"cond_shown":"equaldotanddens","ratio_trial":900,"smaller_num":"9","larger_num":"10","correct_side":1,"subjID":"maria_alejandra_medina_contreras_38","gender":"1","age":"11","school":"sexto"},{"start_time":1551887925921,"click_time":1551887926957,"finger_time":1551887926638,"fix_duration":1002.7870314563552,"trial":35,"RT":717,"MT":319,"sideResp":2,"stimulus":"img/900/equaldotsize/L/8_Ratio_900_L_20_R_18.png","xmouse":[822,822,822,822,821,821,821,821,821,821,821,821,821,821,821,821,821,821,821,821,821,821,821,821,821,821,821,821,821,821,821,821,821,824,834,848,866,889,943,976,991,1001,1005,1008,1011,1014,1018,1028,1038,1045,1050,1059],"ymouse":[546,546,546,546,545,542,541,540,540,540,540,540,540,540,540,540,540,540,540,540,540,540,540,540,540,540,540,540,540,540,540,540,540,530,514,496,464,420,325,255,220,196,178,159,152,145,138,126,116,110,105,98],"timestamp_mouse":[17,42,57,77,97,116,137,156,176,197,216,236,257,277,296,316,336,357,376,397,416,436,457,477,496,515,537,558,576,596,615,636,657,675,697,717,737,755,776,796,816,836,857,876,896,916,937,957,976,995,1016,1036],"xSR":741.5,"ySR":501.8,"xT1":424.9,"yT1":0,"xT2":1058.1,"yT2":0,"toosoon":0,"cond_shown":"equaldotsize","ratio_trial":900,"smaller_num":"18","larger_num":"20","correct_side":1,"subjID":"maria_alejandra_medina_contreras_38","gender":"1","age":"11","school":"sexto"},{"start_time":1551887987109,"click_time":1551887988416,"finger_time":1551887987797,"fix_duration":250,"trial":36,"RT":688,"MT":619,"sideResp":1,"stimulus":"img/250/equaldotsize/L/15_Ratio_250_L_12_R_3.png","xmouse":[804,804,804,804,804,804,804,804,804,804,804,804,804,804,804,804,804,804,804,804,804,804,804,804,804,804,804,804,804,804,804,804,800,798,776,760,749,739,730,706,695,686,676,661,628,604,583,570,560,556,555,554,552,551,548,546,543,540,536,535,535,535,534,531,526,523],"ymouse":[549,549,549,549,549,549,549,549,549,549,549,549,549,549,549,549,549,549,549,549,549,549,549,549,549,549,549,549,549,549,549,549,544,536,478,451,433,411,390,332,311,295,278,256,214,189,168,155,146,142,141,139,137,135,129,125,121,118,113,112,112,111,109,104,96,92],"timestamp_mouse":[9,27,48,67,87,108,127,148,167,188,208,229,247,268,287,308,328,348,368,387,407,428,449,467,487,507,527,547,567,587,607,627,647,668,688,707,727,748,767,787,807,827,847,868,887,907,927,947,968,988,1007,1028,1049,1068,1087,1107,1128,1148,1168,1187,1207,1227,1248,1267,1287,1307],"xSR":741.5,"ySR":501.8,"xT1":424.9,"yT1":0,"xT2":1058.1,"yT2":0,"toosoon":0,"cond_shown":"equaldotsize","ratio_trial":250,"smaller_num":"3","larger_num":"12","correct_side":1,"subjID":"maria_alejandra_medina_contreras_38","gender":"1","age":"11","school":"sexto"},{"start_time":1551887990682,"click_time":1551887991897,"finger_time":1551887991417,"fix_duration":1382.740912507806,"trial":37,"RT":735,"MT":480,"sideResp":2,"stimulus":"img/900/equaldotanddens/R/3_Ratio_900_L_9_R_10.png","xmouse":[794,794,794,794,794,794,794,794,794,794,794,794,794,794,794,794,794,794,794,794,794,794,794,794,794,794,794,794,794,794,794,794,796,800,814,827,841,857,872,891,934,960,971,983,993,1009,1017,1028,1036,1050,1057,1064,1069,1075,1084,1098,1104,1108,1112,1115,1121],"ymouse":[556,556,556,556,556,556,556,556,556,556,556,556,556,556,556,556,556,556,556,556,556,556,556,556,556,556,556,556,556,556,556,556,556,552,532,515,491,462,434,400,325,278,257,238,226,202,193,186,180,167,161,154,149,142,135,124,119,115,109,105,95],"timestamp_mouse":[18,47,55,74,94,114,135,155,174,195,214,235,255,274,295,315,334,354,376,394,415,435,454,476,495,514,536,555,574,596,615,635,656,675,695,714,735,755,774,794,814,834,854,874,895,914,936,954,975,995,1014,1034,1054,1074,1095,1114,1135,1154,1174,1195,1215],"xSR":741.5,"ySR":501.8,"xT1":424.9,"yT1":0,"xT2":1058.1,"yT2":0,"toosoon":0,"cond_shown":"equaldotanddens","ratio_trial":900,"smaller_num":"9","larger_num":"10","correct_side":2,"subjID":"maria_alejandra_medina_contreras_38","gender":"1","age":"11","school":"sexto"},{"start_time":1551887994086,"click_time":1551887995418,"finger_time":1551887995037,"fix_duration":1146.5561991669838,"trial":38,"RT":951,"MT":381,"sideResp":1,"stimulus":"img/900/randomdotsizeEA/L/1_Ratio_900_L_10_R_9.png","xmouse":[799,799,799,799,799,799,799,799,799,799,799,799,799,799,799,799,799,799,799,799,799,799,799,799,799,799,799,799,799,799,799,799,799,799,799,799,799,799,799,799,799,799,799,799,799,797,788,766,737,700,636,601,582,571,564,558,556,553,549,545,538,531,528,528,526,525,524],"ymouse":[549,549,549,549,549,549,549,549,549,549,549,549,549,549,549,549,549,549,549,549,549,549,549,549,549,549,549,549,549,549,549,549,549,549,549,549,549,549,549,549,549,549,549,549,549,543,517,475,429,382,311,279,264,254,247,240,236,231,221,212,188,158,141,125,94,86,80],"timestamp_mouse":[11,40,50,71,91,111,130,151,171,190,211,231,250,271,290,310,331,350,370,391,410,430,451,470,490,510,530,550,570,591,611,631,651,671,690,711,730,750,771,791,812,830,850,871,891,910,930,951,970,990,1010,1031,1051,1070,1092,1110,1130,1150,1170,1191,1211,1231,1250,1270,1291,1310,1332],"xSR":741.5,"ySR":501.8,"xT1":424.9,"yT1":0,"xT2":1058.1,"yT2":0,"toosoon":0,"cond_shown":"randomdotsizeEA","ratio_trial":900,"smaller_num":"9","larger_num":"10","correct_side":1,"subjID":"maria_alejandra_medina_contreras_38","gender":"1","age":"11","school":"sexto"},{"start_time":1551887996954,"click_time":1551887997757,"finger_time":1551887997296,"fix_duration":556.1806196789518,"trial":39,"RT":342,"MT":461,"sideResp":2,"stimulus":"img/500/equaldotanddens/L/4_Ratio_500_L_18_R_9.png","xmouse":[769,769,769,769,769,769,769,769,769,769,769,769,769,769,769,772,799,830,885,915,937,963,969,973,973,973,973,971,971,971,970,970,974,981,994,1007,1023,1057,1082,1097,1108],"ymouse":[544,544,544,544,544,544,544,544,544,544,544,544,544,544,544,544,522,491,430,397,369,321,300,284,269,261,256,253,253,253,253,251,234,219,198,182,166,136,117,107,99],"timestamp_mouse":[10,24,42,63,83,103,124,142,162,183,202,223,244,262,282,304,324,342,362,382,402,423,442,463,483,502,523,544,563,583,602,622,643,662,683,702,722,742,762,782,802],"xSR":741.5,"ySR":501.8,"xT1":424.9,"yT1":0,"xT2":1058.1,"yT2":0,"toosoon":0,"cond_shown":"equaldotanddens","ratio_trial":500,"smaller_num":"9","larger_num":"18","correct_side":1,"subjID":"maria_alejandra_medina_contreras_38","gender":"1","age":"11","school":"sexto"},{"start_time":1551888006453,"click_time":1551888008317,"finger_time":1551888007556,"fix_duration":815.8668436689401,"trial":40,"RT":1103,"MT":761,"sideResp":1,"stimulus":"img/900/equaldotsize/L/1_Ratio_900_L_10_R_9.png","xmouse":[797,797,797,797,797,797,797,797,797,797,797,797,797,797,797,797,797,797,797,797,797,797,797,797,797,797,797,797,797,797,797,797,797,797,797,797,797,797,797,797,797,797,797,797,797,797,797,797,797,797,797,797,797,797,797,800,803,809,809,809,809,809,809,809,809,809,809,809,809,809,803,783,704,683,665,647,629,583,565,559,559,563,566,566,566,566,562,560,557,553,547,540,527,519],"ymouse":[512,512,512,512,512,512,512,512,512,512,512,512,512,512,512,512,512,512,512,512,512,512,512,512,512,512,512,512,512,512,512,512,512,512,512,512,512,512,512,512,512,512,512,512,512,512,512,512,512,512,512,512,512,512,512,495,482,460,460,460,460,460,460,460,460,460,460,460,460,459,457,452,419,408,392,373,352,288,255,227,206,176,164,160,155,150,140,137,131,126,121,113,103,98],"timestamp_mouse":[3,24,44,63,84,103,124,143,163,183,203,224,244,264,283,303,325,343,363,383,403,424,443,464,483,503,523,544,564,585,603,623,644,663,683,703,723,744,764,784,803,824,843,863,883,904,923,944,964,983,1003,1023,1045,1064,1084,1103,1123,1144,1163,1183,1203,1223,1244,1263,1285,1303,1324,1343,1364,1383,1403,1423,1444,1464,1484,1503,1524,1543,1563,1583,1604,1624,1643,1664,1685,1704,1724,1743,1764,1785,1803,1825,1845,1864],"xSR":741.5,"ySR":501.8,"xT1":424.9,"yT1":0,"xT2":1058.1,"yT2":0,"toosoon":0,"cond_shown":"equaldotsize","ratio_trial":900,"smaller_num":"9","larger_num":"10","correct_side":1,"subjID":"maria_alejandra_medina_contreras_38","gender":"1","age":"11","school":"sexto"},{"start_time":1551888010588,"click_time":1551888011496,"finger_time":1551888010976,"fix_duration":710.4995860112878,"trial":41,"RT":388,"MT":520,"sideResp":1,"stimulus":"img/250/equaldotsize/L/15_Ratio_250_L_12_R_3.png","xmouse":[790,790,790,790,790,790,790,790,790,790,790,790,790,790,790,792,795,797,799,808,810,811,811,803,778,686,632,577,577,577,577,577,577,577,577,577,577,577,577,577,577,577,577,407,424,456],"ymouse":[525,525,525,525,525,525,525,525,525,525,525,525,525,525,525,524,520,516,509,485,464,433,381,323,254,100,51,11,11,11,11,11,11,11,11,11,11,11,11,11,11,11,11,6,27,60],"timestamp_mouse":[11,28,49,69,89,108,129,150,169,188,209,228,250,268,288,308,328,348,369,388,408,428,450,468,488,508,528,549,568,589,608,628,648,668,689,708,729,748,768,789,809,828,848,869,888,908],"xSR":741.5,"ySR":501.8,"xT1":424.9,"yT1":0,"xT2":1058.1,"yT2":0,"toosoon":0,"cond_shown":"equaldotsize","ratio_trial":250,"smaller_num":"3","larger_num":"12","correct_side":1,"subjID":"maria_alejandra_medina_contreras_38","gender":"1","age":"11","school":"sexto"},{"start_time":1551888014200,"click_time":1551888015736,"finger_time":1551888015276,"fix_duration":1442.8314000300554,"trial":42,"RT":1076,"MT":460,"sideResp":1,"stimulus":"img/250/randomdotsizeEA/L/5_Ratio_250_L_24_R_6.png","xmouse":[768,768,768,768,768,768,768,768,768,768,768,768,768,768,768,768,768,768,768,768,768,768,768,768,768,768,768,768,768,768,768,768,768,768,768,768,768,768,767,766,766,766,766,766,766,766,766,766,766,766,766,766,766,761,755,747,740,728,709,616,554,490,434,398,364,363,363,363,363,363,368,378,389,396,411,422,432],"ymouse":[522,522,522,522,522,522,522,522,522,522,522,522,522,522,522,522,522,522,522,522,522,522,522,522,522,522,522,522,522,522,522,522,522,522,522,522,522,522,524,525,527,527,527,527,527,527,528,528,528,528,528,516,508,465,432,417,403,386,363,275,222,167,123,97,74,73,73,73,71,70,67,64,60,58,57,57,57],"timestamp_mouse":[16,37,56,77,96,117,137,157,177,196,217,237,256,276,297,317,338,356,376,396,416,436,456,476,496,516,536,556,576,596,616,637,658,676,697,716,736,757,777,797,816,836,857,877,896,916,936,956,976,998,1017,1036,1056,1076,1096,1117,1137,1156,1177,1197,1218,1236,1256,1277,1296,1317,1337,1356,1376,1396,1416,1436,1456,1476,1497,1517,1536],"xSR":741.5,"ySR":501.8,"xT1":424.9,"yT1":0,"xT2":1058.1,"yT2":0,"toosoon":0,"cond_shown":"randomdotsizeEA","ratio_trial":250,"smaller_num":"6","larger_num":"24","correct_side":1,"subjID":"maria_alejandra_medina_contreras_38","gender":"1","age":"11","school":"sexto"},{"start_time":1551888017325,"click_time":1551888018596,"finger_time":1551888018216,"fix_duration":607.8298525543709,"trial":43,"RT":891,"MT":380,"sideResp":2,"stimulus":"img/750/equaldotsize/R/12_Ratio_750_L_3_R_4.png","xmouse":[769,769,769,769,769,769,769,769,769,769,769,769,769,769,769,769,769,769,769,769,769,769,769,769,769,769,769,769,769,769,769,769,769,769,769,769,769,769,769,769,769,769,771,799,850,897,940,995,1006,1016,1022,1026,1026,1034,1042,1052,1060,1061,1054,1051,1051,1051,1057,1061],"ymouse":[528,528,528,528,528,528,528,528,528,528,528,528,528,528,528,528,528,528,528,528,528,528,528,528,528,528,528,528,528,528,528,528,528,528,528,528,528,528,528,528,528,528,528,511,478,446,409,338,314,285,265,251,239,215,202,183,161,146,111,98,90,86,77,76],"timestamp_mouse":[11,32,51,72,91,113,131,151,171,191,211,231,251,272,291,311,331,352,371,391,411,431,451,472,491,511,531,552,572,591,611,631,651,671,693,711,731,751,771,791,812,831,852,872,891,911,933,952,972,992,1011,1031,1052,1072,1092,1112,1132,1152,1173,1192,1212,1231,1252,1271],"xSR":741.5,"ySR":501.8,"xT1":424.9,"yT1":0,"xT2":1058.1,"yT2":0,"toosoon":0,"cond_shown":"equaldotsize","ratio_trial":750,"smaller_num":"3","larger_num":"4","correct_side":2,"subjID":"maria_alejandra_medina_contreras_38","gender":"1","age":"11","school":"sexto"},{"start_time":1551888020040,"click_time":1551888021217,"finger_time":1551888020738,"fix_duration":523.5437365650799,"trial":44,"RT":698,"MT":479,"sideResp":2,"stimulus":"img/500/equaldotsize/R/15_Ratio_500_L_1_R_2.png","xmouse":[777,777,777,777,777,777,777,777,777,777,777,777,777,777,777,777,777,777,777,777,777,777,777,777,777,777,777,777,777,777,777,777,779,796,826,861,908,1003,1043,1074,1093,1113,1117,1121,1121,1121,1121,1123,1124,1126,1128,1132,1140,1141,1144,1145,1146,1146,1146],"ymouse":[519,519,519,519,519,519,520,520,520,520,520,520,520,520,520,520,520,520,520,520,520,520,520,520,520,520,520,520,520,520,520,520,519,512,500,486,462,410,386,363,346,304,281,247,229,213,200,182,176,170,164,154,136,128,121,115,107,103,99],"timestamp_mouse":[17,38,56,78,97,117,136,157,176,196,216,236,256,277,296,317,336,356,376,396,416,436,456,476,497,516,536,556,576,596,616,636,656,676,698,717,737,757,776,796,816,838,858,877,897,918,937,957,977,996,1017,1037,1056,1077,1096,1116,1136,1157,1177],"xSR":741.5,"ySR":501.8,"xT1":424.9,"yT1":0,"xT2":1058.1,"yT2":0,"toosoon":0,"cond_shown":"equaldotsize","ratio_trial":500,"smaller_num":"1","larger_num":"2","correct_side":2,"subjID":"maria_alejandra_medina_contreras_38","gender":"1","age":"11","school":"sexto"},{"start_time":1551888025689,"click_time":1551888026797,"finger_time":1551888026137,"fix_duration":250,"trial":45,"RT":448,"MT":660,"sideResp":2,"stimulus":"img/900/randomdotsizeEA/R/15_Ratio_900_L_9_R_10.png","xmouse":[802,802,802,802,802,802,802,802,802,802,802,802,802,802,802,802,802,802,802,802,801,798,794,792,792,792,792,792,791,784,780,780,780,780,780,780,778,772,765,762,753,738,725,710,701,703,720,767,840,916,1032,1039,1040,1042,1057,1070],"ymouse":[538,538,538,538,538,538,538,538,538,538,538,538,538,538,538,538,538,538,538,538,527,511,497,489,486,486,486,486,486,489,490,490,490,490,482,474,464,452,440,432,405,370,342,307,258,238,211,179,148,127,91,85,84,80,72,68],"timestamp_mouse":[8,28,47,68,87,108,127,147,168,188,208,227,247,268,288,307,327,347,368,387,408,427,448,467,488,507,528,547,568,587,607,627,648,669,688,707,728,747,767,787,807,827,847,868,888,908,928,947,967,987,1007,1028,1047,1068,1088,1108],"xSR":741.5,"ySR":501.8,"xT1":424.9,"yT1":0,"xT2":1058.1,"yT2":0,"toosoon":0,"cond_shown":"randomdotsizeEA","ratio_trial":900,"smaller_num":"9","larger_num":"10","correct_side":2,"subjID":"maria_alejandra_medina_contreras_38","gender":"1","age":"11","school":"sexto"},{"start_time":1551888030631,"click_time":1551888031436,"finger_time":1551888031097,"fix_duration":674.1207896653476,"trial":46,"RT":466,"MT":339,"sideResp":2,"stimulus":"img/900/randomdotsizeEA/L/1_Ratio_900_L_10_R_9.png","xmouse":[759,759,759,759,759,759,759,759,759,759,759,759,759,758,756,755,755,755,755,755,755,764,778,789,794,801,809,819,858,888,924,956,1032,1059,1079,1092,1099,1100,1100,1100,1100],"ymouse":[551,551,551,551,551,551,551,551,551,551,551,551,551,551,551,551,551,551,551,551,551,541,514,491,479,469,457,444,411,390,364,338,252,214,181,154,136,119,103,100,97],"timestamp_mouse":[5,25,45,65,85,105,126,146,166,185,205,226,245,265,285,305,326,346,366,385,406,425,446,466,485,506,525,545,566,585,605,626,646,666,686,706,727,746,766,786,805],"xSR":741.5,"ySR":501.8,"xT1":424.9,"yT1":0,"xT2":1058.1,"yT2":0,"toosoon":0,"cond_shown":"randomdotsizeEA","ratio_trial":900,"smaller_num":"9","larger_num":"10","correct_side":1,"subjID":"maria_alejandra_medina_contreras_38","gender":"1","age":"11","school":"sexto"},{"start_time":1551888047470,"click_time":1551888048797,"finger_time":1551888047756,"fix_duration":250,"trial":47,"RT":286,"MT":1041,"sideResp":1,"stimulus":"img/500/randomdotsizeEA/L/7_Ratio_500_L_10_R_5.png","xmouse":[778,778,777,777,777,777,777,777,777,776,772,769,764,759,756,753,752,751,751,751,751,751,751,751,751,751,751,751,751,751,751,751,751,751,751,751,751,751,749,741,716,646,588,547,498,446,366,349,343,336,330,325,325,325,328,360,379,400,418,428,438,444,447,448,450,450,452],"ymouse":[637,638,640,640,640,640,640,640,640,641,649,653,663,671,680,693,698,702,704,706,707,708,708,708,708,708,708,708,708,708,708,708,708,708,708,708,708,708,690,651,588,453,371,318,275,240,200,190,185,179,174,166,163,161,158,147,143,137,131,127,121,113,109,107,105,103,99],"timestamp_mouse":[8,29,47,66,86,107,126,147,166,187,207,227,247,266,286,307,326,348,367,387,407,426,446,467,486,506,527,548,566,586,606,626,648,667,687,707,726,746,768,787,807,827,847,866,886,907,927,947,967,988,1008,1027,1047,1067,1087,1107,1127,1148,1168,1188,1208,1227,1247,1267,1286,1307,1327],"xSR":741.5,"ySR":573.95,"xT1":424.9,"yT1":0,"xT2":1058.1,"yT2":0,"toosoon":0,"cond_shown":"randomdotsizeEA","ratio_trial":500,"smaller_num":"5","larger_num":"10","correct_side":1,"subjID":"maria_alejandra_medina_contreras_38","gender":"1","age":"11","school":"sexto"},{"start_time":1551888050926,"click_time":1551888057178,"finger_time":1551888056497,"fix_duration":1249.139100710331,"trial":48,"RT":5571,"MT":681,"sideResp":2,"stimulus":"img/750/equaldotsize/R/12_Ratio_750_L_3_R_4.png","xmouse":[811,811,811,811,811,811,811,811,811,811,811,811,811,811,811,811,811,811,811,811,811,811,811,811,811,811,811,811,811,811,811,811,811,811,811,811,811,811,811,811,811,811,811,811,811,811,811,811,811,811,811,811,811,811,811,811,811,811,811,811,811,811,811,811,811,811,811,811,811,811,811,811,811,811,811,811,811,811,811,811,811,811,811,811,811,811,811,811,811,811,811,811,811,811,811,811,811,811,811,811,811,811,811,811,811,811,811,811,809,809,809,809,808,802,802,802,801,801,801,801,801,801,801,801,801,801,801,801,801,801,801,801,801,801,801,801,801,801,801,801,801,801,801,801,801,801,801,801,801,801,801,801,801,801,801,801,801,801,801,801,801,801,801,801,801,801,801,801,801,801,801,801,801,801,801,801,801,801,801,801,801,801,801,801,801,801,801,801,801,801,801,801,801,801,801,801,801,801,801,801,801,801,801,800,798,796,796,794,792,792,792,792,792,792,792,792,792,792,792,792,792,792,792,792,792,792,792,792,792,792,792,792,792,792,792,792,792,792,792,791,790,789,786,785,784,784,782,781,781,781,781,781,781,781,781,781,781,781,781,781,781,781,781,781,781,781,781,781,781,781,781,781,781,781,781,781,781,781,791,801,817,843,868,907,925,944,966,1012,1030,1044,1045,1045,1045,1044,1044,1044,1044,1044,1044,1044,1046,1047,1051,1052,1053,1055,1057,1058,1058,1058,1058,1058,1059],"ymouse":[616,616,616,616,616,616,616,616,616,616,616,616,616,616,616,616,616,616,616,616,616,616,616,616,616,616,616,616,616,616,616,616,616,616,616,616,616,616,616,616,616,616,616,616,616,616,616,616,616,616,616,616,616,616,616,616,616,616,616,616,616,616,616,616,616,616,616,616,616,616,616,616,616,616,616,616,616,616,616,616,616,616,616,616,616,616,616,616,616,616,616,616,616,616,616,616,616,616,616,616,616,616,616,616,616,616,618,620,622,622,622,622,624,629,629,629,629,629,629,629,629,629,629,629,629,629,629,629,629,629,629,629,629,629,629,629,629,629,629,629,629,629,629,629,629,629,629,629,629,629,629,629,629,629,629,629,629,629,629,629,629,629,629,629,629,629,629,629,629,629,629,629,629,629,629,629,629,629,629,629,629,629,629,629,629,629,629,629,629,629,629,629,629,629,629,629,629,629,629,629,629,629,629,629,625,622,619,617,614,614,614,614,614,614,614,614,614,614,614,614,614,614,614,614,614,614,614,614,614,614,614,614,614,614,614,614,614,614,614,614,616,617,620,621,622,622,622,622,622,622,622,622,622,622,622,622,622,622,622,622,622,622,622,622,622,622,622,622,622,622,622,622,622,622,622,622,614,605,516,465,411,361,323,273,258,243,228,201,190,176,171,166,160,157,153,147,142,132,127,119,116,111,100,96,89,85,80,78,78,77,77,77,76],"timestamp_mouse":[11,31,52,71,90,110,130,151,171,191,211,232,252,270,291,311,331,351,371,390,411,432,450,471,490,510,530,550,572,590,610,630,650,671,690,711,730,750,770,791,812,830,851,871,891,911,930,951,972,990,1010,1031,1050,1070,1091,1110,1130,1151,1171,1190,1210,1232,1251,1271,1290,1312,1330,1350,1370,1390,1410,1430,1451,1471,1491,1511,1532,1551,1570,1590,1611,1632,1650,1671,1691,1710,1730,1750,1772,1790,1810,1831,1851,1871,1890,1910,1931,1950,1970,1992,2011,2030,2051,2071,2092,2110,2131,2151,2170,2191,2211,2230,2251,2270,2291,2310,2330,2351,2370,2390,2412,2430,2451,2472,2490,2510,2532,2550,2570,2592,2611,2630,2651,2671,2692,2710,2731,2752,2770,2790,2810,2830,2850,2871,2891,2911,2930,2952,2970,2990,3011,3031,3051,3071,3091,3110,3130,3150,3171,3191,3211,3230,3251,3270,3291,3311,3330,3351,3372,3391,3410,3431,3451,3471,3491,3510,3532,3550,3570,3590,3611,3631,3650,3670,3690,3711,3732,3750,3771,3791,3810,3831,3852,3871,3890,3911,3930,3951,3970,3990,4011,4031,4050,4070,4091,4111,4131,4150,4171,4191,4211,4230,4250,4271,4291,4310,4330,4351,4371,4391,4410,4431,4451,4470,4490,4511,4531,4551,4571,4590,4611,4630,4650,4672,4691,4710,4730,4751,4770,4791,4811,4832,4850,4871,4892,4911,4931,4952,4970,4990,5010,5030,5051,5070,5090,5110,5130,5150,5171,5192,5211,5231,5252,5271,5290,5310,5330,5350,5372,5390,5410,5432,5450,5472,5492,5510,5530,5551,5571,5591,5610,5630,5650,5670,5691,5711,5730,5751,5771,5791,5811,5832,5850,5871,5890,5910,5930,5950,5971,5991,6010,6030,6051,6071,6091,6112,6131,6151,6172,6190,6210,6230,6252],"xSR":741.5,"ySR":573.95,"xT1":424.9,"yT1":0,"xT2":1058.1,"yT2":0,"toosoon":0,"cond_shown":"equaldotsize","ratio_trial":750,"smaller_num":"3","larger_num":"4","correct_side":2,"subjID":"maria_alejandra_medina_contreras_38","gender":"1","age":"11","school":"sexto"},{"start_time":1551888058607,"click_time":1551888059636,"finger_time":1551888059317,"fix_duration":250,"trial":49,"RT":710,"MT":319,"sideResp":1,"stimulus":"img/250/equaldotanddens/L/14_Ratio_250_L_12_R_3.png","xmouse":[808,808,808,808,808,808,808,808,808,808,808,808,808,808,808,808,808,808,808,808,808,808,808,808,808,808,808,808,808,808,808,808,807,798,781,722,671,603,470,431,405,393,388,388,389,392,396,400,413,418,423,428],"ymouse":[643,643,643,643,643,643,643,643,643,643,643,643,643,643,643,643,643,643,643,643,643,643,643,643,643,643,643,643,643,643,643,643,643,628,596,499,429,350,217,178,150,134,125,121,120,117,111,103,88,84,82,80],"timestamp_mouse":[10,29,50,70,89,109,129,150,171,191,209,230,250,270,290,310,330,350,370,389,409,430,451,470,489,510,529,549,571,589,609,629,649,670,691,710,730,750,769,789,809,831,851,869,890,910,930,950,969,990,1010,1029],"xSR":741.5,"ySR":573.95,"xT1":424.9,"yT1":0,"xT2":1058.1,"yT2":0,"toosoon":0,"cond_shown":"equaldotanddens","ratio_trial":250,"smaller_num":"3","larger_num":"12","correct_side":1,"subjID":"maria_alejandra_medina_contreras_38","gender":"1","age":"11","school":"sexto"},{"start_time":1551888061348,"click_time":1551888062138,"finger_time":1551888061977,"fix_duration":788.2242404108973,"trial":50,"RT":629,"MT":161,"sideResp":2,"stimulus":"img/750/equaldotanddens/R/12_Ratio_750_L_3_R_4.png","xmouse":[783,783,783,783,783,783,783,783,783,783,783,783,783,783,783,783,783,783,783,783,783,783,783,783,783,783,783,783,783,783,787,798,809,830,865,905,983,1029,1050,1063],"ymouse":[609,609,609,609,609,609,609,609,609,609,609,609,609,609,609,609,609,609,609,609,609,609,609,609,609,609,609,609,609,609,599,569,545,495,422,355,219,139,97,76],"timestamp_mouse":[9,31,50,69,89,109,128,148,168,190,208,229,249,269,288,308,328,350,370,389,408,428,450,470,489,508,529,549,569,588,609,629,649,668,689,709,729,748,769,790],"xSR":741.5,"ySR":573.95,"xT1":424.9,"yT1":0,"xT2":1058.1,"yT2":0,"toosoon":0,"cond_shown":"equaldotanddens","ratio_trial":750,"smaller_num":"3","larger_num":"4","correct_side":2,"subjID":"maria_alejandra_medina_contreras_38","gender":"1","age":"11","school":"sexto"},{"start_time":1551888063368,"click_time":1551888064176,"finger_time":1551888064076,"fix_duration":250,"trial":51,"RT":708,"MT":100,"sideResp":1,"stimulus":"img/250/equaldotsize/L/5_Ratio_250_L_24_R_6.png","xmouse":[806,806,806,806,806,806,806,806,806,806,806,806,806,806,806,806,806,806,806,806,806,806,806,806,806,806,806,806,806,806,806,806,805,800,785,756,658,574,528,490,450],"ymouse":[613,613,613,613,613,613,613,613,613,613,613,613,613,613,613,613,613,613,613,613,613,613,613,613,613,613,613,613,613,613,613,613,611,604,581,540,400,286,208,139,50],"timestamp_mouse":[9,28,48,68,88,109,129,149,168,189,210,230,249,268,289,310,328,348,368,389,410,430,448,469,489,508,528,550,569,589,609,629,649,670,688,708,730,748,770,790,808],"xSR":741.5,"ySR":573.95,"xT1":424.9,"yT1":0,"xT2":1058.1,"yT2":0,"toosoon":0,"cond_shown":"equaldotsize","ratio_trial":250,"smaller_num":"6","larger_num":"24","correct_side":1,"subjID":"maria_alejandra_medina_contreras_38","gender":"1","age":"11","school":"sexto"},{"start_time":1551888065576,"click_time":1551888066338,"finger_time":1551888065997,"fix_duration":318.6302770141094,"trial":52,"RT":421,"MT":341,"sideResp":1,"stimulus":"img/500/randomdotsizeEA/L/10_Ratio_500_L_4_R_2.png","xmouse":[776,776,776,776,776,776,776,776,776,776,776,776,776,776,776,776,776,776,777,778,778,780,782,783,784,784,779,773,764,749,731,721,711,699,689,636,573,512,454],"ymouse":[611,611,611,611,611,611,611,611,611,611,611,611,611,611,611,611,611,611,611,598,582,561,553,539,518,492,438,396,370,338,294,274,260,245,232,195,159,124,95],"timestamp_mouse":[3,21,41,60,80,101,121,142,160,180,200,222,240,261,282,301,321,340,361,381,400,421,441,462,481,500,522,540,560,582,601,621,641,660,681,701,720,741,762],"xSR":741.5,"ySR":573.95,"xT1":424.9,"yT1":0,"xT2":1058.1,"yT2":0,"toosoon":0,"cond_shown":"randomdotsizeEA","ratio_trial":500,"smaller_num":"2","larger_num":"4","correct_side":1,"subjID":"maria_alejandra_medina_contreras_38","gender":"1","age":"11","school":"sexto"},{"start_time":1551888068891,"click_time":1551888070296,"finger_time":1551888069796,"fix_duration":1093.3516470461707,"trial":53,"RT":905,"MT":500,"sideResp":1,"stimulus":"img/900/randomdotsizeEA/L/10_Ratio_900_L_20_R_18.png","xmouse":[796,796,796,796,796,796,796,796,796,796,796,796,796,796,796,796,796,796,796,796,796,796,796,796,796,796,796,796,796,796,796,796,796,796,796,796,796,796,796,796,796,796,796,805,825,868,872,873,873,863,842,821,782,731,654,632,615,595,577,548,537,535,534,533,530,528,522,516,512,504,497],"ymouse":[591,591,591,591,591,591,591,591,591,591,591,591,591,591,591,591,591,591,591,591,591,591,591,591,591,591,591,591,591,591,591,591,591,591,591,591,591,591,591,591,591,591,591,589,582,556,546,538,527,492,459,435,403,368,317,299,286,271,258,237,228,226,224,221,213,208,199,187,174,133,94],"timestamp_mouse":[6,25,45,66,86,105,126,145,167,186,206,226,246,266,286,306,325,345,366,387,407,427,446,465,485,506,527,545,566,586,606,626,645,665,685,706,725,747,765,785,805,825,845,866,887,905,926,947,966,985,1005,1025,1046,1067,1085,1105,1125,1146,1166,1185,1205,1225,1245,1266,1286,1306,1325,1346,1367,1385,1405],"xSR":741.5,"ySR":573.95,"xT1":424.9,"yT1":0,"xT2":1058.1,"yT2":0,"toosoon":0,"cond_shown":"randomdotsizeEA","ratio_trial":900,"smaller_num":"18","larger_num":"20","correct_side":1,"subjID":"maria_alejandra_medina_contreras_38","gender":"1","age":"11","school":"sexto"},{"start_time":1551888074447,"click_time":1551888075757,"finger_time":1551888075258,"fix_duration":1489.3903248095803,"trial":54,"RT":811,"MT":499,"sideResp":2,"stimulus":"img/250/randomdotsizeEA/R/4_Ratio_250_L_3_R_12.png","xmouse":[817,817,817,817,817,817,817,817,817,817,817,817,817,817,817,817,817,817,817,817,817,817,817,817,817,817,817,817,817,817,817,817,817,817,817,817,817,817,819,825,842,933,1019,1063,1090,1101,1106,1109,1110,1110,1112,1124,1131,1133,1133,1133,1133,1131,1130,1129,1129,1129,1129,1127,1127,1125],"ymouse":[594,594,594,594,594,594,594,594,594,594,594,594,594,594,594,594,594,594,594,594,594,594,594,594,594,594,594,594,594,594,594,594,594,594,594,594,594,594,594,591,575,504,425,374,329,299,262,254,250,244,236,214,201,189,181,175,170,160,155,151,147,136,125,115,105,97],"timestamp_mouse":[10,30,49,69,89,109,129,149,169,190,209,229,250,269,291,310,331,351,371,391,411,431,450,470,490,510,530,550,570,590,611,630,650,670,690,710,730,750,770,791,811,829,851,870,890,911,929,950,970,989,1010,1029,1050,1070,1089,1110,1129,1149,1170,1189,1210,1229,1250,1269,1289,1309],"xSR":741.5,"ySR":573.95,"xT1":424.9,"yT1":0,"xT2":1058.1,"yT2":0,"toosoon":0,"cond_shown":"randomdotsizeEA","ratio_trial":250,"smaller_num":"3","larger_num":"12","correct_side":2,"subjID":"maria_alejandra_medina_contreras_38","gender":"1","age":"11","school":"sexto"},{"start_time":1551888081991,"click_time":1551888086936,"finger_time":1551888086237,"fix_duration":715.8579197201611,"trial":55,"RT":4246,"MT":699,"sideResp":1,"stimulus":"img/500/equaldotanddens/R/9_Ratio_500_L_2_R_4.png","xmouse":[823,823,823,823,823,823,823,822,821,820,818,817,816,815,815,815,814,814,814,813,813,813,813,813,813,813,813,813,813,813,813,813,813,813,813,813,813,813,813,813,813,813,813,813,813,813,813,813,813,813,813,813,813,813,813,813,813,813,813,813,813,813,813,813,813,813,813,813,813,813,813,813,813,813,813,813,813,813,813,813,813,813,813,813,813,813,813,813,813,813,813,813,813,813,813,813,813,813,813,813,813,813,813,813,813,813,813,813,813,813,813,813,813,813,813,813,813,813,813,813,813,813,813,813,813,813,813,813,813,813,813,813,813,813,813,813,813,813,813,813,813,813,813,813,813,813,813,813,813,813,813,813,813,813,813,813,813,813,813,813,813,813,813,813,813,813,813,813,813,813,813,813,813,813,813,813,813,807,801,794,789,786,785,784,784,784,784,784,784,784,784,784,784,784,784,784,784,784,784,784,784,784,784,784,784,784,784,784,784,784,783,772,750,728,690,668,657,645,636,620,609,590,571,553,463,380,342,326,318,318,318,318,318,320,324,328,331,336,343,350,362,368,374,380,395,412,424,434],"ymouse":[616,616,616,616,616,616,616,617,617,617,618,619,619,619,620,620,620,620,620,620,620,620,620,620,620,620,620,620,620,620,620,620,620,620,620,620,620,620,620,620,620,620,620,620,620,620,620,620,620,620,620,620,620,620,620,620,620,620,620,620,620,620,620,620,620,620,620,620,620,620,620,620,620,620,620,620,620,620,620,620,620,620,620,620,620,620,620,620,620,620,620,620,620,620,620,620,620,620,620,620,620,620,620,620,620,620,620,620,620,620,620,620,620,620,620,620,620,620,620,620,620,620,620,620,620,620,620,620,620,620,620,620,620,620,620,620,620,620,620,620,620,620,620,620,620,620,620,620,620,620,620,620,620,620,620,620,620,620,620,620,620,620,620,620,620,620,620,620,620,620,620,620,620,620,620,620,620,620,620,619,619,619,619,619,619,619,619,619,619,619,619,619,619,619,619,619,619,619,619,619,619,619,619,619,619,619,619,619,619,619,611,579,530,482,393,346,322,301,285,261,244,222,206,189,127,76,55,44,38,37,37,35,35,35,35,34,34,33,33,33,33,33,33,33,34,39,43,47],"timestamp_mouse":[6,26,45,66,86,107,126,146,166,185,206,226,246,267,286,306,325,345,366,386,405,425,446,467,485,505,525,547,567,585,607,626,645,665,685,707,726,746,765,785,806,826,845,866,886,905,926,945,965,987,1006,1025,1045,1066,1085,1106,1126,1146,1166,1187,1207,1225,1246,1266,1287,1305,1325,1346,1367,1386,1405,1425,1447,1467,1485,1505,1527,1546,1566,1585,1606,1626,1645,1665,1686,1707,1725,1745,1765,1785,1805,1826,1847,1866,1885,1905,1926,1945,1965,1986,2006,2025,2045,2065,2085,2106,2127,2146,2166,2185,2205,2225,2246,2266,2285,2305,2326,2346,2365,2386,2405,2425,2446,2465,2485,2506,2525,2545,2566,2586,2606,2626,2646,2666,2687,2705,2725,2745,2765,2786,2806,2826,2847,2865,2885,2905,2926,2947,2966,2986,3005,3026,3045,3066,3085,3107,3126,3146,3166,3185,3205,3226,3246,3266,3286,3305,3326,3347,3365,3385,3405,3427,3446,3465,3486,3505,3525,3546,3567,3586,3605,3625,3647,3667,3686,3705,3725,3745,3765,3787,3805,3826,3846,3865,3886,3905,3927,3947,3965,3986,4006,4025,4047,4067,4085,4105,4126,4145,4165,4185,4205,4225,4246,4266,4285,4305,4325,4345,4366,4386,4407,4426,4445,4466,4485,4506,4526,4545,4566,4586,4606,4625,4646,4667,4685,4705,4725,4746,4766,4785,4806,4826,4847,4866,4885,4906,4925,4945],"xSR":741.5,"ySR":573.95,"xT1":424.9,"yT1":0,"xT2":1058.1,"yT2":0,"toosoon":0,"cond_shown":"equaldotanddens","ratio_trial":500,"smaller_num":"2","larger_num":"4","correct_side":2,"subjID":"maria_alejandra_medina_contreras_38","gender":"1","age":"11","school":"sexto"},{"start_time":1551888088703,"click_time":1551888089756,"finger_time":1551888089477,"fix_duration":765.5691551306446,"trial":56,"RT":774,"MT":279,"sideResp":2,"stimulus":"img/500/equaldotanddens/R/15_Ratio_500_L_1_R_2.png","xmouse":[803,803,803,803,803,803,803,803,803,803,803,803,803,803,803,803,803,803,803,803,803,803,803,803,803,803,803,803,803,803,803,803,803,803,803,803,807,814,857,874,897,906,909,909,897,897,906,916,955,989,1014,1040,1066],"ymouse":[624,624,624,624,624,624,624,624,624,624,624,624,624,624,624,624,624,624,624,624,624,624,624,624,624,624,624,624,624,624,624,624,624,624,624,624,619,604,507,455,368,324,279,242,188,145,117,101,75,60,53,44,39],"timestamp_mouse":[15,34,53,74,94,113,133,153,173,195,213,233,254,273,294,314,333,355,374,394,414,434,454,473,494,513,533,553,575,595,613,634,653,674,693,713,734,754,774,793,814,834,853,873,893,913,934,953,973,994,1013,1033,1053],"xSR":741.5,"ySR":573.95,"xT1":424.9,"yT1":0,"xT2":1058.1,"yT2":0,"toosoon":0,"cond_shown":"equaldotanddens","ratio_trial":500,"smaller_num":"1","larger_num":"2","correct_side":2,"subjID":"maria_alejandra_medina_contreras_38","gender":"1","age":"11","school":"sexto"},{"start_time":1551888091088,"click_time":1551888092697,"finger_time":1551888091396,"fix_duration":250,"trial":57,"RT":308,"MT":1301,"sideResp":1,"stimulus":"img/900/equaldotsize/R/12_Ratio_900_L_18_R_20.png","xmouse":[780,780,780,780,780,780,780,780,780,780,780,780,770,759,746,721,709,703,700,699,699,699,699,699,699,699,699,699,699,699,699,699,699,699,699,699,704,709,715,723,730,734,741,749,758,777,782,786,790,798,799,799,799,799,799,799,799,799,799,799,799,799,799,799,799,799,799,799,799,799,799,786,752,699,604,566,543,521,503,486,479],"ymouse":[670,670,670,670,670,670,670,670,670,670,670,671,657,637,617,590,581,577,574,573,573,573,573,573,573,573,573,573,573,573,573,573,573,573,573,573,573,573,573,573,575,578,580,583,588,598,601,604,607,612,612,612,612,612,612,612,612,612,612,612,612,612,612,612,612,612,612,612,612,612,612,594,547,482,370,315,261,213,165,108,83],"timestamp_mouse":[12,28,49,68,90,110,129,149,169,188,209,229,250,269,289,308,328,350,368,389,409,429,448,469,488,509,530,548,569,589,608,628,648,669,690,709,729,748,770,789,809,829,849,869,888,908,928,948,969,989,1009,1030,1048,1068,1088,1110,1129,1148,1169,1189,1208,1228,1248,1269,1288,1308,1328,1349,1368,1390,1408,1428,1449,1468,1488,1510,1528,1548,1569,1589,1608],"xSR":741.5,"ySR":573.95,"xT1":424.9,"yT1":0,"xT2":1058.1,"yT2":0,"toosoon":0,"cond_shown":"equaldotsize","ratio_trial":900,"smaller_num":"18","larger_num":"20","correct_side":2,"subjID":"maria_alejandra_medina_contreras_38","gender":"1","age":"11","school":"sexto"},{"start_time":1551888095784,"click_time":1551888096676,"finger_time":1551888096457,"fix_duration":286.71517381928015,"trial":58,"RT":673,"MT":219,"sideResp":1,"stimulus":"img/500/equaldotanddens/L/11_Ratio_500_L_12_R_6.png","xmouse":[801,801,801,801,801,801,801,801,801,801,801,801,801,801,801,801,801,801,801,801,801,801,801,801,801,801,801,801,801,801,801,796,789,766,733,695,675,667,661,639,622,600,568,528,453],"ymouse":[621,621,621,621,621,621,621,621,621,621,621,621,621,621,621,621,621,621,621,621,621,621,621,621,621,621,621,621,621,621,621,614,599,559,520,476,451,437,421,372,332,288,232,163,30],"timestamp_mouse":[12,33,53,72,94,112,132,152,174,193,212,232,253,273,293,312,332,352,374,393,412,434,454,472,493,512,532,553,572,592,613,632,652,673,693,713,733,752,772,793,813,833,854,873,892],"xSR":741.5,"ySR":573.95,"xT1":424.9,"yT1":0,"xT2":1058.1,"yT2":0,"toosoon":0,"cond_shown":"equaldotanddens","ratio_trial":500,"smaller_num":"6","larger_num":"12","correct_side":1,"subjID":"maria_alejandra_medina_contreras_38","gender":"1","age":"11","school":"sexto"},{"start_time":1551888099530,"click_time":1551888100356,"finger_time":1551888100196,"fix_duration":273.2234647888075,"trial":59,"RT":666,"MT":160,"sideResp":2,"stimulus":"img/750/equaldotanddens/R/7_Ratio_750_L_3_R_4.png","xmouse":[811,811,811,811,811,811,811,811,811,811,811,811,811,811,811,811,811,811,811,811,811,811,811,811,811,811,811,811,811,811,811,812,830,841,856,876,897,954,1002,1029,1047,1062],"ymouse":[618,618,618,618,618,618,618,618,618,618,618,618,618,618,618,618,618,618,618,618,618,618,618,618,618,618,618,618,618,618,618,615,591,573,547,511,467,344,230,158,96,39],"timestamp_mouse":[7,27,46,67,86,106,127,147,167,187,207,226,246,268,286,307,327,347,367,388,407,426,447,467,488,507,527,548,566,587,607,627,647,666,688,707,726,747,767,786,807,826],"xSR":741.5,"ySR":573.95,"xT1":424.9,"yT1":0,"xT2":1058.1,"yT2":0,"toosoon":0,"cond_shown":"equaldotanddens","ratio_trial":750,"smaller_num":"3","larger_num":"4","correct_side":2,"subjID":"maria_alejandra_medina_contreras_38","gender":"1","age":"11","school":"sexto"},{"start_time":1551888101908,"click_time":1551888102777,"finger_time":1551888102338,"fix_duration":250,"trial":60,"RT":430,"MT":439,"sideResp":1,"stimulus":"img/500/equaldotsize/L/13_Ratio_500_L_12_R_6.png","xmouse":[811,811,811,811,811,811,811,811,811,811,811,811,811,811,811,811,811,811,811,811,803,755,699,574,514,468,430,410,386,370,361,354,350,348,347,349,353,358,368,370,375,386,406,454],"ymouse":[608,608,608,608,608,608,608,608,608,608,608,608,608,608,608,608,608,608,608,608,592,531,455,290,234,193,160,142,116,98,89,78,70,60,57,55,53,52,51,51,51,51,52,61],"timestamp_mouse":[9,29,49,69,89,109,128,149,169,189,208,228,248,270,288,308,328,349,368,388,408,430,448,469,490,509,529,548,569,588,609,628,648,668,689,709,730,749,769,789,809,829,848,869],"xSR":741.5,"ySR":573.95,"xT1":424.9,"yT1":0,"xT2":1058.1,"yT2":0,"toosoon":0,"cond_shown":"equaldotsize","ratio_trial":500,"smaller_num":"6","larger_num":"12","correct_side":1,"subjID":"maria_alejandra_medina_contreras_38","gender":"1","age":"11","school":"sexto"},{"start_time":1551888105682,"click_time":1551888106837,"finger_time":1551888106297,"fix_duration":1444.4306643768205,"trial":61,"RT":615,"MT":540,"sideResp":1,"stimulus":"img/900/randomdotsizeEA/R/15_Ratio_900_L_9_R_10.png","xmouse":[809,809,809,809,809,809,809,809,809,809,809,809,809,809,809,809,809,809,809,809,809,809,809,809,809,809,809,809,803,786,738,681,618,552,486,372,337,318,311,311,326,337,351,364,386,395,402,410,416,422,423,42