[{"start_time":1551794715950,"click_time":1551794734349,"finger_time":1551794733927,"fix_duration":638.4805764890623,"trial":0,"RT":17977,"MT":422,"sideResp":2,"stimulus":"img/900/randomdotsizeEA/R/5_Ratio_900_L_9_R_10.png","xmouse":[774,774,774,774,774,774,774,774,774,774,774,774,774,774,774,774,774,774,774,774,774,774,774,774,774,774,774,774,774,774,774,774,774,774,774,774,774,774,774,774,774,774,774,774,774,774,774,774,774,774,774,774,774,774,774,774,774,774,774,774,774,774,774,774,774,774,774,774,774,774,774,774,774,774,774,774,774,774,774,774,774,774,774,774,774,774,774,774,774,774,774,774,774,774,774,774,774,774,774,774,774,774,774,774,774,774,774,774,774,774,774,774,774,774,774,774,774,774,774,774,774,774,774,774,774,774,774,774,774,774,774,774,774,774,774,774,774,774,774,774,774,774,774,774,774,774,774,774,774,774,774,774,774,774,774,774,774,774,774,774,774,774,774,774,774,774,774,774,774,774,774,774,774,774,774,774,774,774,774,774,774,774,774,774,774,774,774,774,774,774,774,774,774,774,774,774,774,774,774,774,774,774,774,774,774,774,774,774,774,774,774,774,774,774,774,774,774,774,774,774,774,774,774,774,774,774,774,774,774,774,774,774,774,774,774,774,774,774,774,774,774,774,774,774,774,774,774,774,774,774,774,774,774,774,774,774,774,774,774,774,774,774,774,774,774,774,774,774,774,774,774,774,774,774,774,774,774,774,774,774,774,774,774,774,774,774,774,774,774,774,774,774,774,774,774,774,774,774,774,774,774,774,774,774,774,774,774,774,774,774,774,774,774,774,774,774,774,774,774,774,774,774,774,774,774,774,774,774,774,774,774,774,774,774,774,774,774,774,774,774,774,774,774,774,774,774,774,774,774,774,774,774,774,774,774,774,774,774,774,774,774,774,774,774,774,774,774,774,774,774,774,774,774,774,774,774,774,774,774,774,774,774,774,774,774,774,774,774,774,774,774,774,774,774,774,774,774,774,774,774,774,774,774,774,774,774,774,774,774,774,774,774,774,774,774,774,774,774,774,774,774,774,774,774,774,774,774,774,774,774,774,774,774,774,774,774,774,774,774,774,774,774,774,774,774,774,774,774,774,774,774,774,774,774,774,774,774,774,774,774,774,774,774,774,774,774,774,774,774,774,774,774,774,774,774,774,774,774,774,774,774,774,774,774,774,774,774,774,774,774,774,774,774,774,774,774,774,774,774,774,774,774,774,774,774,774,774,774,774,774,774,774,774,774,774,774,774,774,774,774,774,774,774,774,774,774,774,774,774,774,774,774,774,774,774,774,774,774,774,774,774,774,774,774,774,774,774,774,774,774,774,774,774,774,774,774,774,774,774,774,774,774,774,774,774,774,774,774,774,774,774,774,774,774,774,774,774,774,774,774,774,774,774,774,774,774,774,774,774,774,774,774,774,774,774,774,774,774,774,774,774,774,774,774,774,774,774,774,774,774,774,774,774,774,774,774,774,774,774,774,774,774,774,774,774,774,774,774,774,774,774,774,774,774,774,774,774,774,774,774,774,774,774,774,774,774,774,774,774,774,774,774,774,774,774,774,774,774,774,774,774,774,774,774,774,774,774,774,774,774,774,774,774,774,774,774,774,774,774,774,774,774,774,774,774,774,774,774,774,774,774,774,774,774,774,774,774,774,774,774,774,774,774,774,774,774,774,774,774,774,774,774,774,774,774,774,774,774,774,774,774,774,774,774,774,774,774,774,774,774,774,774,774,774,774,774,774,774,774,774,774,774,774,774,774,774,774,774,774,774,774,774,774,774,774,774,774,774,774,774,774,774,774,774,774,774,774,774,774,774,774,774,774,774,774,774,774,774,774,774,774,774,774,774,774,774,774,774,774,774,774,774,774,774,774,774,774,774,774,774,774,774,774,774,774,774,774,774,774,774,774,774,774,774,774,774,774,774,774,774,774,774,774,774,774,774,774,774,774,774,774,774,774,774,774,774,774,774,774,774,774,774,774,774,774,774,774,774,774,774,774,774,774,774,774,774,774,774,774,774,774,774,774,774,774,774,774,774,774,774,774,774,774,774,774,774,774,774,774,774,774,774,774,774,774,774,774,774,774,774,774,774,774,774,774,775,780,782,795,811,833,850,855,874,898,948,969,979,989,992,996,1005,1005,1011,1020,1041,1046,1048,1048,1050,1054],"ymouse":[482,482,482,482,482,482,482,482,482,482,482,482,482,482,482,482,482,482,482,482,482,482,482,482,482,482,482,482,482,482,482,482,482,482,482,482,482,482,482,482,482,482,482,482,482,482,482,482,482,482,482,482,482,482,482,482,482,482,482,482,482,482,482,482,482,482,482,482,482,482,482,482,482,482,482,482,482,482,482,482,482,482,482,482,482,482,482,482,482,482,482,482,482,482,482,482,482,482,482,482,482,482,482,482,482,482,482,482,482,482,482,482,482,482,482,482,482,482,482,482,482,482,482,482,482,482,482,482,482,482,482,482,482,482,482,482,482,482,482,482,482,482,482,482,482,482,482,482,482,482,482,482,482,482,482,482,482,482,482,482,482,482,482,482,482,482,482,482,482,482,482,482,482,482,482,482,482,482,482,482,482,482,482,482,482,482,482,482,482,482,482,482,482,482,482,482,482,482,482,482,482,482,482,482,482,482,482,482,482,482,482,482,482,482,482,482,482,482,482,482,482,482,482,482,482,482,482,482,482,482,482,482,482,482,482,482,482,482,482,482,482,482,482,482,482,482,482,482,482,482,482,482,482,482,482,482,482,482,482,482,482,482,482,482,482,482,482,482,482,482,482,482,482,482,482,482,482,482,482,482,482,482,482,482,482,482,482,482,482,482,482,482,482,482,482,482,482,482,482,482,482,482,482,482,482,482,482,482,482,482,482,482,482,482,482,482,482,482,482,482,482,482,482,482,482,482,482,482,482,482,482,482,482,482,482,482,482,482,482,482,482,482,482,482,482,482,482,482,482,482,482,482,482,482,482,482,482,482,482,482,482,482,482,482,482,482,482,482,482,482,482,482,482,482,482,482,482,482,482,482,482,482,482,482,482,482,482,482,482,482,482,482,482,482,482,482,482,482,482,482,482,482,482,482,482,482,482,482,482,482,482,482,482,482,482,482,482,482,482,482,482,482,482,482,482,482,482,482,482,482,482,482,482,482,482,482,482,482,482,482,482,482,482,482,482,482,482,482,482,482,482,482,482,482,482,482,482,482,482,482,482,482,482,482,482,482,482,482,482,482,482,482,482,482,482,482,482,482,482,482,482,482,482,482,482,482,482,482,482,482,482,482,482,482,482,482,482,482,482,482,482,482,482,482,482,482,482,482,482,482,482,482,482,482,482,482,482,482,482,482,482,482,482,482,482,482,482,482,482,482,482,482,482,482,482,482,482,482,482,482,482,482,482,482,482,482,482,482,482,482,482,482,482,482,482,482,482,482,482,482,482,482,482,482,482,482,482,482,482,482,482,482,482,482,482,482,482,482,482,482,482,482,482,482,482,482,482,482,482,482,482,482,482,482,482,482,482,482,482,482,482,482,482,482,482,482,482,482,482,482,482,482,482,482,482,482,482,482,482,482,482,482,482,482,482,482,482,482,482,482,482,482,482,482,482,482,482,482,482,482,482,482,482,482,482,482,482,482,482,482,482,482,482,482,482,482,482,482,482,482,482,482,482,482,482,482,482,482,482,482,482,482,482,482,482,482,482,482,482,482,482,482,482,482,482,482,482,482,482,482,482,482,482,482,482,482,482,482,482,482,482,482,482,482,482,482,482,482,482,482,482,482,482,482,482,482,482,482,482,482,482,482,482,482,482,482,482,482,482,482,482,482,482,482,482,482,482,482,482,482,482,482,482,482,482,482,482,482,482,482,482,482,482,482,482,482,482,482,482,482,482,482,482,482,482,482,482,482,482,482,482,482,482,482,482,482,482,482,482,482,482,482,482,482,482,482,482,482,482,482,482,482,482,482,482,482,482,482,482,482,482,482,482,482,482,482,482,482,482,482,482,482,482,482,482,482,482,482,482,482,482,482,482,482,482,482,482,482,482,482,482,482,482,482,482,482,482,482,482,482,482,482,482,482,482,482,482,482,482,482,482,482,482,482,482,482,482,482,482,482,482,482,482,482,482,482,482,482,482,482,482,482,482,482,482,482,482,482,482,482,482,482,482,482,482,482,482,482,482,482,482,482,482,482,482,482,474,471,448,429,402,379,374,352,326,281,263,249,235,226,214,192,192,186,176,147,135,130,126,114,97],"timestamp_mouse":[0,17,36,56,77,97,118,137,158,178,198,217,237,258,278,297,317,337,358,378,398,416,437,457,478,498,517,537,558,578,597,618,638,658,678,698,716,737,758,777,797,816,837,857,877,897,917,937,958,978,998,1018,1036,1057,1077,1098,1118,1137,1157,1176,1198,1218,1238,1257,1276,1297,1317,1337,1358,1378,1397,1418,1436,1458,1477,1497,1517,1538,1557,1577,1598,1618,1637,1658,1677,1697,1717,1737,1758,1777,1798,1818,1838,1858,1878,1897,1917,1938,1957,1978,1997,2017,2038,2058,2078,2098,2118,2138,2156,2177,2198,2218,2237,2256,2278,2298,2317,2337,2357,2378,2396,2417,2438,2456,2478,2498,2516,2538,2558,2577,2598,2618,2637,2658,2678,2696,2718,2737,2758,2777,2798,2818,2838,2858,2877,2898,2918,2937,2957,2978,2998,3018,3038,3058,3078,3097,3118,3136,3157,3176,3198,3218,3237,3258,3278,3297,3317,3338,3356,3376,3398,3417,3437,3457,3477,3498,3516,3538,3558,3576,3598,3616,3637,3656,3678,3698,3717,3737,3757,3778,3797,3817,3837,3858,3878,3897,3917,3937,3957,3978,3997,4018,4036,4057,4077,4097,4118,4137,4157,4178,4198,4218,4237,4257,4277,4298,4317,4338,4356,4378,4398,4417,4437,4457,4477,4497,4517,4537,4558,4577,4597,4617,4637,4657,4677,4697,4717,4737,4757,4778,4796,4817,4838,4856,4878,4897,4917,4936,4958,4978,4997,5017,5038,5058,5076,5098,5118,5138,5157,5178,5197,5217,5238,5258,5277,5298,5318,5337,5358,5378,5397,5418,5438,5458,5477,5498,5517,5538,5557,5577,5598,5618,5636,5658,5678,5697,5716,5738,5757,5778,5798,5817,5837,5857,5877,5898,5917,5936,5958,5978,5997,6017,6037,6056,6076,6098,6118,6137,6157,6178,6197,6217,6237,6258,6276,6296,6316,6338,6358,6377,6398,6418,6437,6457,6477,6497,6518,6537,6558,6576,6597,6616,6638,6657,6677,6696,6717,6737,6757,6778,6797,6817,6838,6856,6878,6897,6917,6938,6957,6977,6997,7016,7038,7056,7076,7098,7118,7137,7156,7176,7198,7218,7237,7258,7278,7296,7317,7337,7357,7378,7398,7418,7438,7458,7478,7498,7518,7538,7557,7578,7598,7617,7637,7658,7677,7698,7718,7738,7758,7776,7798,7818,7837,7856,7877,7897,7918,7937,7956,7977,7998,8017,8038,8058,8076,8097,8118,8138,8158,8178,8198,8217,8237,8258,8278,8297,8318,8337,8358,8378,8398,8416,8437,8456,8477,8497,8516,8536,8557,8577,8597,8618,8636,8657,8676,8697,8717,8736,8756,8777,8797,8817,8837,8857,8877,8897,8918,8938,8958,8978,8997,9017,9038,9058,9077,9097,9116,9137,9157,9177,9198,9218,9237,9258,9277,9298,9316,9338,9358,9377,9398,9417,9438,9458,9477,9498,9518,9538,9557,9578,9598,9618,9638,9656,9678,9697,9718,9738,9757,9778,9798,9818,9837,9858,9878,9897,9916,9938,9958,9977,9997,10018,10037,10058,10078,10097,10117,10137,10158,10177,10198,10218,10237,10257,10277,10297,10318,10337,10357,10378,10396,10417,10437,10456,10478,10497,10518,10536,10558,10578,10598,10616,10638,10658,10677,10697,10718,10737,10757,10778,10798,10817,10837,10857,10877,10898,10917,10937,10957,10977,10997,11017,11037,11057,11077,11097,11118,11137,11158,11177,11198,11217,11237,11257,11277,11298,11317,11338,11357,11378,11396,11418,11436,11458,11477,11498,11518,11537,11557,11576,11598,11617,11637,11658,11676,11698,11718,11737,11758,11776,11798,11818,11837,11857,11878,11898,11917,11937,11957,11977,11997,12018,12037,12056,12077,12096,12117,12136,12157,12177,12197,12217,12238,12256,12276,12298,12317,12337,12357,12376,12398,12417,12437,12458,12476,12498,12517,12538,12556,12576,12598,12618,12637,12657,12677,12698,12718,12738,12758,12778,12797,12818,12837,12858,12877,12898,12916,12937,12958,12976,12997,13018,13038,13056,13077,13098,13118,13138,13156,13178,13197,13218,13238,13257,13278,13298,13317,13336,13358,13378,13397,13417,13437,13456,13478,13498,13518,13538,13558,13577,13598,13618,13637,13657,13676,13696,13717,13737,13757,13777,13796,13818,13837,13858,13878,13897,13917,13937,13958,13977,13998,14018,14037,14057,14078,14097,14117,14137,14156,14178,14197,14218,14236,14258,14278,14298,14317,14338,14357,14378,14397,14418,14437,14458,14478,14498,14517,14537,14558,14577,14598,14618,14637,14658,14677,14698,14717,14738,14757,14777,14797,14817,14837,14857,14878,14897,14918,14937,14957,14978,14998,15017,15038,15058,15076,15097,15118,15137,15158,15176,15198,15218,15237,15257,15277,15297,15317,15338,15356,15378,15398,15417,15438,15457,15477,15498,15517,15537,15557,15578,15598,15618,15637,15658,15678,15698,15716,15738,15758,15777,15798,15818,15838,15858,15877,15897,15917,15937,15957,15978,15997,16018,16037,16058,16077,16098,16116,16137,16158,16177,16197,16218,16237,16257,16277,16298,16316,16338,16357,16376,16398,16417,16436,16458,16477,16497,16517,16538,16558,16577,16597,16617,16637,16658,16678,16697,16717,16738,16757,16777,16796,16818,16836,16857,16878,16897,16917,16937,16957,16977,16998,17018,17038,17057,17077,17098,17117,17137,17158,17178,17197,17218,17237,17257,17277,17298,17317,17337,17358,17378,17396,17417,17437,17456,17477,17498,17517,17538,17557,17577,17597,17617,17638,17658,17678,17698,17717,17738,17757,17778,17797,17817,17838,17856,17876,17898,17917,17937,17957,17977,17996,18018,18037,18057,18077,18098,18116,18137,18157,18178,18196,18217,18238,18257,18277,18298,18317,18337,18357,18376,18398],"xSR":733.5,"ySR":443.3,"xT1":420.09999999999997,"yT1":0,"xT2":1046.8999999999999,"yT2":0,"toosoon":0,"cond_shown":"randomdotsizeEA","ratio_trial":900,"smaller_num":"9","larger_num":"10","correct_side":2,"subjID":"MariaAlejandraRamosJaimes12","gender":"1","age":"11","school":"6","test":{"fix_dur":[250,1500],"timestim":300,"targets_dim":[100,100],"targets_relative_coord":[0.3,0.7],"size_stim":[880,420],"start_dim":[100,100],"size_start":[300,300],"size_fix":60,"samplingrate":20,"img_types":["equaldotsize","equaldotanddens","randomdotsizeEA"],"ratios":[250,500,750,900],"rep_conds":9,"nTrials":120,"trials_to_rest":500,"Trials_order":[119,80,27,41,30,55,76,66,105,114,96,37,51,113,43,1,84,91,49,74,2,94,29,10,59,78,58,111,100,9,39,24,20,28,72,104,117,61,81,14,107,18,31,103,93,106,45,46,7,70,12,88,13,60,53,68,97,102,73,118,82,64,38,116,40,0,36,8,85,6,25,65,32,87,95,108,89,75,110,22,115,16,67,15,48,42,69,57,71,77,83,44,5,50,62,19,99,26,92,34,23,56,52,4,54,112,79,109,21,11,35,86,63,3,101,47,90,33,17,98],"cond_shown":["randomdotsizeEA","randomdotsizeEA","equaldotsize","randomdotsizeEA","equaldotsize","equaldotanddens","equaldotanddens","equaldotsize","equaldotsize","equaldotsize","equaldotsize","equaldotanddens","equaldotsize","randomdotsizeEA","equaldotanddens","equaldotanddens","equaldotsize","equaldotanddens","equaldotanddens","randomdotsizeEA","randomdotsizeEA","equaldotanddens","randomdotsizeEA","equaldotanddens","randomdotsizeEA","equaldotsize","equaldotanddens","equaldotsize","equaldotanddens","equaldotsize","equaldotsize","equaldotsize","randomdotsizeEA","equaldotanddens","equaldotsize","randomdotsizeEA","equaldotsize","equaldotanddens","equaldotsize","randomdotsizeEA","randomdotsizeEA","equaldotsize","equaldotanddens","equaldotanddens","equaldotsize","equaldotanddens","equaldotsize","equaldotanddens","equaldotanddens","equaldotanddens","equaldotsize","equaldotanddens","equaldotanddens","equaldotsize","randomdotsizeEA","randomdotsizeEA","equaldotanddens","equaldotsize","equaldotanddens","equaldotanddens","equaldotanddens","equaldotanddens","randomdotsizeEA","randomdotsizeEA","equaldotanddens","equaldotsize","equaldotsize","randomdotsizeEA","equaldotanddens","equaldotsize","equaldotanddens","randomdotsizeEA","randomdotsizeEA","equaldotsize","randomdotsizeEA","equaldotsize","randomdotsizeEA","equaldotsize","randomdotsizeEA","equaldotanddens","equaldotanddens","equaldotanddens","equaldotanddens","equaldotsize","equaldotsize","equaldotsize","equaldotsize","equaldotsize","randomdotsizeEA","randomdotsizeEA","randomdotsizeEA","randomdotsizeEA","randomdotsizeEA","randomdotsizeEA","randomdotsizeEA","equaldotanddens","equaldotsize","randomdotsizeEA","randomdotsizeEA","equaldotanddens","randomdotsizeEA","randomdotsizeEA","equaldotanddens","equaldotanddens","equaldotsize","equaldotanddens","equaldotanddens","equaldotanddens","equaldotsize","randomdotsizeEA","randomdotsizeEA","randomdotsizeEA","equaldotsize","equaldotsize","randomdotsizeEA","randomdotsizeEA","equaldotsize","equaldotsize","randomdotsizeEA","randomdotsizeEA"],"ratio_trial":[900,750,500,500,750,750,500,750,900,750,250,250,500,500,750,250,250,750,250,250,250,900,500,900,900,750,900,500,500,900,500,250,750,500,250,750,900,250,900,250,900,750,750,750,900,900,900,900,750,900,250,500,250,250,500,750,250,750,250,900,900,500,250,750,500,250,250,750,250,750,250,500,750,500,900,250,500,500,250,900,750,500,750,500,250,750,900,900,900,500,900,750,500,250,250,750,500,250,750,900,900,750,500,500,750,500,750,250,900,900,900,250,500,500,500,900,750,900,500,250],"smaller_num":["9","6","5","3","9","3","4","6","9","15","6","2","1","1","9","2","2","3","3","2","6","18","2","18","9","9","18","3","3","18","2","4","15","6","1","3","18","4","18","2","18","15","15","3","9","18","9","18","9","18","6","4","2","6","4","18","3","15","6","18","18","2","2","9","10","1","2","6","1","15","2","5","18","3","18","3","6","6","1","18","3","10","3","3","2","12","18","9","9","5","9","15","3","2","2","6","6","3","3","9","18","15","10","9","6","6","15","1","18","9","18","2","10","2","9","9","15","18","9","4"],"larger_num":["10","8","10","6","12","4","8","8","10","20","24","8","2","2","12","8","8","4","12","8","24","20","4","20","10","12","20","6","6","20","4","16","20","12","4","4","20","16","20","8","20","20","20","4","10","20","10","20","12","20","24","8","8","24","8","24","12","20","24","20","20","4","8","12","20","4","8","8","4","20","8","10","24","6","20","12","12","12","4","20","4","20","4","6","8","16","20","10","10","10","10","20","6","8","8","8","12","12","4","10","20","20","20","18","8","12","20","4","20","10","20","8","20","4","18","10","20","20","18","16"],"correct_side":[2,2,2,2,2,1,1,2,1,2,2,1,2,2,2,1,1,1,1,1,2,2,1,2,2,2,1,2,2,2,1,1,2,1,2,2,1,1,2,2,2,1,1,1,1,1,2,2,2,1,1,1,1,2,1,1,2,2,1,2,1,1,1,2,2,2,2,1,2,2,1,2,1,2,2,1,1,1,2,2,1,2,2,2,1,2,2,2,2,2,2,2,2,2,1,1,1,1,2,2,1,1,2,2,1,1,2,2,2,2,1,2,2,1,2,2,1,2,2,1],"img_shown":["img/900/randomdotsizeEA/R/5_Ratio_900_L_9_R_10.png","img/750/randomdotsizeEA/R/2_Ratio_750_L_6_R_8.png","img/500/equaldotsize/R/14_Ratio_500_L_5_R_10.png","img/500/randomdotsizeEA/R/2_Ratio_500_L_3_R_6.png","img/750/equaldotsize/R/15_Ratio_750_L_9_R_12.png","img/750/equaldotanddens/L/9_Ratio_750_L_4_R_3.png","img/500/equaldotanddens/L/8_Ratio_500_L_8_R_4.png","img/750/equaldotsize/R/2_Ratio_750_L_6_R_8.png","img/900/equaldotsize/L/1_Ratio_900_L_10_R_9.png","img/750/equaldotsize/R/3_Ratio_750_L_15_R_20.png","img/250/equaldotsize/R/6_Ratio_250_L_6_R_24.png","img/250/equaldotanddens/L/3_Ratio_250_L_8_R_2.png","img/500/equaldotsize/R/12_Ratio_500_L_1_R_2.png","img/500/randomdotsizeEA/R/12_Ratio_500_L_1_R_2.png","img/750/equaldotanddens/R/15_Ratio_750_L_9_R_12.png","img/250/equaldotanddens/L/7_Ratio_250_L_8_R_2.png","img/250/equaldotsize/L/1_Ratio_250_L_8_R_2.png","img/750/equaldotanddens/L/8_Ratio_750_L_4_R_3.png","img/250/equaldotanddens/L/14_Ratio_250_L_12_R_3.png","img/250/randomdotsizeEA/L/1_Ratio_250_L_8_R_2.png","img/250/randomdotsizeEA/R/6_Ratio_250_L_6_R_24.png","img/900/equaldotanddens/R/9_Ratio_900_L_18_R_20.png","img/500/randomdotsizeEA/L/10_Ratio_500_L_4_R_2.png","img/900/equaldotanddens/R/9_Ratio_900_L_18_R_20.png","img/900/randomdotsizeEA/R/15_Ratio_900_L_9_R_10.png","img/750/equaldotsize/R/15_Ratio_750_L_9_R_12.png","img/900/equaldotanddens/L/2_Ratio_900_L_20_R_18.png","img/500/equaldotsize/R/2_Ratio_500_L_3_R_6.png","img/500/equaldotanddens/R/2_Ratio_500_L_3_R_6.png","img/900/equaldotsize/R/9_Ratio_900_L_18_R_20.png","img/500/equaldotsize/L/10_Ratio_500_L_4_R_2.png","img/250/equaldotsize/L/2_Ratio_250_L_16_R_4.png","img/750/randomdotsizeEA/R/3_Ratio_750_L_15_R_20.png","img/500/equaldotanddens/L/13_Ratio_500_L_12_R_6.png","img/250/equaldotsize/R/8_Ratio_250_L_1_R_4.png","img/750/randomdotsizeEA/R/12_Ratio_750_L_3_R_4.png","img/900/equaldotsize/L/4_Ratio_900_L_20_R_18.png","img/250/equaldotanddens/L/2_Ratio_250_L_16_R_4.png","img/900/equaldotsize/R/13_Ratio_900_L_18_R_20.png","img/250/randomdotsizeEA/R/13_Ratio_250_L_2_R_8.png","img/900/randomdotsizeEA/R/11_Ratio_900_L_18_R_20.png","img/750/equaldotsize/L/1_Ratio_750_L_20_R_15.png","img/750/equaldotanddens/L/1_Ratio_750_L_20_R_15.png","img/750/equaldotanddens/L/8_Ratio_750_L_4_R_3.png","img/900/equaldotsize/L/1_Ratio_900_L_10_R_9.png","img/900/equaldotanddens/L/8_Ratio_900_L_20_R_18.png","img/900/equaldotsize/R/6_Ratio_900_L_9_R_10.png","img/900/equaldotanddens/R/14_Ratio_900_L_18_R_20.png","img/750/equaldotanddens/R/15_Ratio_750_L_9_R_12.png","img/900/equaldotanddens/L/4_Ratio_900_L_20_R_18.png","img/250/equaldotsize/L/5_Ratio_250_L_24_R_6.png","img/500/equaldotanddens/L/8_Ratio_500_L_8_R_4.png","img/250/equaldotanddens/L/3_Ratio_250_L_8_R_2.png","img/250/equaldotsize/R/6_Ratio_250_L_6_R_24.png","img/500/randomdotsizeEA/L/8_Ratio_500_L_8_R_4.png","img/750/randomdotsizeEA/L/6_Ratio_750_L_24_R_18.png","img/250/equaldotanddens/R/11_Ratio_250_L_3_R_12.png","img/750/equaldotsize/R/3_Ratio_750_L_15_R_20.png","img/250/equaldotanddens/L/5_Ratio_250_L_24_R_6.png","img/900/equaldotanddens/R/13_Ratio_900_L_18_R_20.png","img/900/equaldotanddens/L/2_Ratio_900_L_20_R_18.png","img/500/equaldotanddens/L/5_Ratio_500_L_4_R_2.png","img/250/randomdotsizeEA/L/1_Ratio_250_L_8_R_2.png","img/750/randomdotsizeEA/R/15_Ratio_750_L_9_R_12.png","img/500/equaldotanddens/R/3_Ratio_500_L_10_R_20.png","img/250/equaldotsize/R/8_Ratio_250_L_1_R_4.png","img/250/equaldotsize/R/13_Ratio_250_L_2_R_8.png","img/750/randomdotsizeEA/L/14_Ratio_750_L_8_R_6.png","img/250/equaldotanddens/R/8_Ratio_250_L_1_R_4.png","img/750/equaldotsize/R/3_Ratio_750_L_15_R_20.png","img/250/equaldotanddens/L/3_Ratio_250_L_8_R_2.png","img/500/randomdotsizeEA/R/14_Ratio_500_L_5_R_10.png","img/750/randomdotsizeEA/L/6_Ratio_750_L_24_R_18.png","img/500/equaldotsize/R/2_Ratio_500_L_3_R_6.png","img/900/randomdotsizeEA/R/11_Ratio_900_L_18_R_20.png","img/250/equaldotsize/L/14_Ratio_250_L_12_R_3.png","img/500/randomdotsizeEA/L/13_Ratio_500_L_12_R_6.png","img/500/equaldotsize/L/11_Ratio_500_L_12_R_6.png","img/250/randomdotsizeEA/R/8_Ratio_250_L_1_R_4.png","img/900/equaldotanddens/R/12_Ratio_900_L_18_R_20.png","img/750/equaldotanddens/L/9_Ratio_750_L_4_R_3.png","img/500/equaldotanddens/R/3_Ratio_500_L_10_R_20.png","img/750/equaldotanddens/R/12_Ratio_750_L_3_R_4.png","img/500/equaldotsize/R/2_Ratio_500_L_3_R_6.png","img/250/equaldotsize/L/1_Ratio_250_L_8_R_2.png","img/750/equaldotsize/R/11_Ratio_750_L_12_R_16.png","img/900/equaldotsize/R/13_Ratio_900_L_18_R_20.png","img/900/equaldotsize/R/6_Ratio_900_L_9_R_10.png","img/900/randomdotsizeEA/R/15_Ratio_900_L_9_R_10.png","img/500/randomdotsizeEA/R/14_Ratio_500_L_5_R_10.png","img/900/randomdotsizeEA/R/15_Ratio_900_L_9_R_10.png","img/750/randomdotsizeEA/R/3_Ratio_750_L_15_R_20.png","img/500/randomdotsizeEA/R/2_Ratio_500_L_3_R_6.png","img/250/randomdotsizeEA/R/13_Ratio_250_L_2_R_8.png","img/250/randomdotsizeEA/L/1_Ratio_250_L_8_R_2.png","img/750/equaldotanddens/L/13_Ratio_750_L_8_R_6.png","img/500/equaldotsize/L/13_Ratio_500_L_12_R_6.png","img/250/randomdotsizeEA/L/15_Ratio_250_L_12_R_3.png","img/750/randomdotsizeEA/R/7_Ratio_750_L_3_R_4.png","img/900/equaldotanddens/R/5_Ratio_900_L_9_R_10.png","img/900/randomdotsizeEA/L/4_Ratio_900_L_20_R_18.png","img/750/randomdotsizeEA/L/1_Ratio_750_L_20_R_15.png","img/500/equaldotanddens/R/3_Ratio_500_L_10_R_20.png","img/500/equaldotanddens/R/1_Ratio_500_L_9_R_18.png","img/750/equaldotsize/L/14_Ratio_750_L_8_R_6.png","img/500/equaldotanddens/L/11_Ratio_500_L_12_R_6.png","img/750/equaldotanddens/R/5_Ratio_750_L_15_R_20.png","img/250/equaldotanddens/R/8_Ratio_250_L_1_R_4.png","img/900/equaldotsize/R/9_Ratio_900_L_18_R_20.png","img/900/randomdotsizeEA/R/3_Ratio_900_L_9_R_10.png","img/900/randomdotsizeEA/L/10_Ratio_900_L_20_R_18.png","img/250/randomdotsizeEA/R/13_Ratio_250_L_2_R_8.png","img/500/equaldotsize/R/3_Ratio_500_L_10_R_20.png","img/500/equaldotsize/L/10_Ratio_500_L_4_R_2.png","img/500/randomdotsizeEA/R/1_Ratio_500_L_9_R_18.png","img/900/randomdotsizeEA/R/3_Ratio_900_L_9_R_10.png","img/750/equaldotsize/L/1_Ratio_750_L_20_R_15.png","img/900/equaldotsize/R/13_Ratio_900_L_18_R_20.png","img/500/randomdotsizeEA/R/1_Ratio_500_L_9_R_18.png","img/250/randomdotsizeEA/L/2_Ratio_250_L_16_R_4.png"],"Rat0":[["12_Ratio_0_L_9_R_0.png","13_Ratio_0_L_6_R_0.png","5_Ratio_0_L_2_R_0.png","6_Ratio_0_L_4_R_0.png","8_Ratio_0_L_6_R_0.png"],["1_Ratio_0_L_0_R_17.png","10_Ratio_0_L_0_R_22.png","11_Ratio_0_L_0_R_1.png","14_Ratio_0_L_0_R_24.png","15_Ratio_0_L_0_R_4.png","2_Ratio_0_L_0_R_5.png","3_Ratio_0_L_0_R_17.png","4_Ratio_0_L_0_R_7.png","7_Ratio_0_L_0_R_19.png","9_Ratio_0_L_0_R_15.png"]],"Rat250":[["1_Ratio_250_L_8_R_2.png","14_Ratio_250_L_12_R_3.png","15_Ratio_250_L_12_R_3.png","2_Ratio_250_L_16_R_4.png","3_Ratio_250_L_8_R_2.png","5_Ratio_250_L_24_R_6.png","7_Ratio_250_L_8_R_2.png"],["10_Ratio_250_L_4_R_16.png","11_Ratio_250_L_3_R_12.png","12_Ratio_250_L_5_R_20.png","13_Ratio_250_L_2_R_8.png","4_Ratio_250_L_3_R_12.png","6_Ratio_250_L_6_R_24.png","8_Ratio_250_L_1_R_4.png","9_Ratio_250_L_3_R_12.png"]],"Rat500":[["10_Ratio_500_L_4_R_2.png","11_Ratio_500_L_12_R_6.png","13_Ratio_500_L_12_R_6.png","4_Ratio_500_L_18_R_9.png","5_Ratio_500_L_4_R_2.png","7_Ratio_500_L_10_R_5.png","8_Ratio_500_L_8_R_4.png"],["1_Ratio_500_L_9_R_18.png","12_Ratio_500_L_1_R_2.png","14_Ratio_500_L_5_R_10.png","15_Ratio_500_L_1_R_2.png","2_Ratio_500_L_3_R_6.png","3_Ratio_500_L_10_R_20.png","6_Ratio_500_L_9_R_18.png","9_Ratio_500_L_2_R_4.png"]],"Rat750":[["1_Ratio_750_L_20_R_15.png","10_Ratio_750_L_4_R_3.png","13_Ratio_750_L_8_R_6.png","14_Ratio_750_L_8_R_6.png","6_Ratio_750_L_24_R_18.png","8_Ratio_750_L_4_R_3.png","9_Ratio_750_L_4_R_3.png"],["11_Ratio_750_L_12_R_16.png","12_Ratio_750_L_3_R_4.png","15_Ratio_750_L_9_R_12.png","2_Ratio_750_L_6_R_8.png","3_Ratio_750_L_15_R_20.png","4_Ratio_750_L_15_R_20.png","5_Ratio_750_L_15_R_20.png","7_Ratio_750_L_3_R_4.png"]],"Rat900":[["1_Ratio_900_L_10_R_9.png","10_Ratio_900_L_20_R_18.png","2_Ratio_900_L_20_R_18.png","4_Ratio_900_L_20_R_18.png","8_Ratio_900_L_20_R_18.png"],["11_Ratio_900_L_18_R_20.png","12_Ratio_900_L_18_R_20.png","13_Ratio_900_L_18_R_20.png","14_Ratio_900_L_18_R_20.png","15_Ratio_900_L_9_R_10.png","3_Ratio_900_L_9_R_10.png","5_Ratio_900_L_9_R_10.png","6_Ratio_900_L_9_R_10.png","7_Ratio_900_L_9_R_10.png","9_Ratio_900_L_18_R_20.png"]],"Rat1000":[["10_Ratio_1000_L_16_R_16.png","11_Ratio_1000_L_6_R_6.png","12_Ratio_1000_L_14_R_14.png","13_Ratio_1000_L_20_R_20.png","15_Ratio_1000_L_15_R_15.png","2_Ratio_1000_L_17_R_17.png","4_Ratio_1000_L_9_R_9.png","5_Ratio_1000_L_6_R_6.png","6_Ratio_1000_L_19_R_19.png","8_Ratio_1000_L_14_R_14.png","9_Ratio_1000_L_25_R_25.png"],["1_Ratio_1000_L_1_R_1.png","14_Ratio_1000_L_17_R_17.png","3_Ratio_1000_L_17_R_17.png","7_Ratio_1000_L_6_R_6.png"]]}},{"start_time":1551794741461,"click_time":1551794744708,"finger_time":1551794744447,"fix_duration":1153.0058094135122,"trial":1,"RT":2986,"MT":261,"sideResp":1,"stimulus":"img/750/randomdotsizeEA/R/2_Ratio_750_L_6_R_8.png","xmouse":[807,807,807,807,807,807,807,807,807,807,807,807,807,807,807,807,807,807,807,807,807,807,807,807,807,807,807,807,807,807,807,807,807,807,807,807,807,807,807,807,807,807,807,807,807,807,807,807,807,807,807,807,807,807,807,807,807,807,807,807,807,807,807,807,807,807,807,807,807,807,807,807,807,807,807,807,807,807,807,807,807,807,807,807,807,807,807,807,807,807,807,807,807,807,807,807,807,807,807,807,807,807,807,807,807,807,807,807,807,807,807,807,807,807,807,807,807,807,807,807,807,807,807,807,807,807,807,807,807,807,807,807,807,807,807,807,807,807,807,807,807,807,805,805,805,797,797,797,797,789,774,752,729,657,551,538,512,512,510,494,493,492,484],"ymouse":[517,517,517,517,517,517,517,517,517,517,517,517,517,517,517,517,517,517,517,517,517,517,517,517,517,517,517,517,517,517,517,517,517,517,517,517,517,517,517,517,517,517,517,517,517,517,517,517,517,517,517,517,517,517,517,517,517,517,517,517,517,517,517,517,517,517,517,517,517,517,517,517,517,517,517,517,517,517,517,517,517,517,517,517,517,517,517,517,517,517,517,517,517,517,517,517,517,517,517,517,517,517,517,517,517,517,517,517,517,517,517,517,517,517,517,517,517,517,517,517,517,517,517,517,517,517,517,517,517,517,517,517,517,517,517,517,517,517,517,517,517,517,516,516,514,502,502,502,491,435,379,356,338,295,237,227,207,207,205,148,147,144,93],"timestamp_mouse":[10,35,46,66,85,106,125,147,165,186,206,227,245,266,287,307,327,346,366,386,406,425,445,466,486,507,526,546,566,587,607,627,647,666,686,706,726,747,767,786,807,827,847,865,887,907,925,947,967,987,1006,1026,1047,1066,1087,1107,1125,1147,1167,1187,1206,1227,1245,1266,1287,1307,1325,1346,1366,1385,1407,1427,1446,1467,1487,1507,1526,1547,1567,1587,1607,1627,1646,1666,1687,1707,1726,1747,1766,1787,1806,1827,1846,1865,1887,1907,1926,1947,1966,1986,2007,2025,2047,2067,2085,2107,2126,2147,2166,2187,2206,2227,2246,2266,2285,2306,2327,2347,2366,2387,2407,2426,2446,2467,2487,2507,2527,2546,2566,2586,2606,2627,2646,2667,2686,2706,2726,2746,2766,2787,2807,2827,2847,2865,2885,2905,2927,2947,2967,2986,3005,3026,3046,3067,3087,3106,3126,3145,3165,3186,3206,3226,3247],"xSR":733.5,"ySR":443.3,"xT1":420.09999999999997,"yT1":0,"xT2":1046.8999999999999,"yT2":0,"toosoon":0,"cond_shown":"randomdotsizeEA","ratio_trial":750,"smaller_num":"6","larger_num":"8","correct_side":2,"subjID":"MariaAlejandraRamosJaimes12","gender":"1","age":"11","school":"6"},{"start_time":1551794751793,"click_time":1551794753627,"finger_time":1551794752767,"fix_duration":1464.5642720742017,"trial":2,"RT":974,"MT":860,"sideResp":2,"stimulus":"img/500/equaldotsize/R/14_Ratio_500_L_5_R_10.png","xmouse":[779,779,779,779,779,779,779,779,779,779,779,779,779,779,779,779,779,779,779,779,779,779,779,779,779,779,779,779,779,779,779,779,779,779,779,779,779,779,779,779,779,779,779,779,779,781,781,781,789,793,809,839,870,874,874,880,881,883,884,886,888,888,890,892,895,905,908,965,969,969,970,973,1002,1007,1027,1039,1039,1039,1039,1039,1039,1039,1039,1039,1039,1039,1039,1039,1039,1039,1039,1061],"ymouse":[457,457,457,457,457,457,457,457,457,457,457,457,457,457,457,457,457,457,457,457,457,457,457,457,457,457,457,457,457,457,457,457,457,457,457,457,457,457,457,457,457,457,456,453,453,448,448,448,438,433,424,410,394,392,392,389,388,386,384,382,379,379,377,375,374,369,368,342,338,338,335,327,219,195,109,45,45,45,45,45,45,45,45,45,45,45,45,45,45,45,45,37],"timestamp_mouse":[14,38,53,74,94,114,135,154,174,193,215,233,255,274,294,315,335,355,374,395,414,433,454,473,495,515,534,554,575,593,614,634,654,674,694,713,734,754,773,793,814,833,854,874,895,914,934,953,974,993,1015,1034,1055,1074,1095,1115,1133,1154,1175,1194,1214,1234,1254,1274,1294,1314,1334,1355,1374,1395,1415,1434,1455,1474,1494,1514,1534,1555,1575,1595,1614,1634,1655,1674,1695,1714,1734,1755,1774,1795,1814,1834],"xSR":733.5,"ySR":443.3,"xT1":420.09999999999997,"yT1":0,"xT2":1046.8999999999999,"yT2":0,"toosoon":0,"cond_shown":"equaldotsize","ratio_trial":500,"smaller_num":"5","larger_num":"10","correct_side":2,"subjID":"MariaAlejandraRamosJaimes12","gender":"1","age":"11","school":"6"},{"start_time":1551794755877,"click_time":1551794757367,"finger_time":1551794757007,"fix_duration":609.0060460645409,"trial":3,"RT":1130,"MT":360,"sideResp":2,"stimulus":"img/500/randomdotsizeEA/R/2_Ratio_500_L_3_R_6.png","xmouse":[797,797,797,797,797,797,797,797,797,797,797,797,797,797,797,797,797,797,797,797,797,797,797,797,797,797,797,797,797,797,797,797,797,797,797,797,797,797,797,797,797,797,797,797,797,797,797,797,797,797,797,797,797,797,806,807,820,829,872,899,900,900,905,907,911,911,925,938,955,978,980,1002,1014,1076,1129],"ymouse":[476,476,476,476,476,476,476,476,476,476,476,476,476,476,476,476,476,476,476,476,476,476,476,476,476,476,476,476,476,476,476,476,476,476,476,476,476,476,476,476,476,476,476,476,476,476,476,476,476,476,476,476,475,472,456,453,436,423,370,347,346,346,342,339,333,333,314,293,272,244,242,224,211,153,82],"timestamp_mouse":[10,37,50,71,90,111,131,151,170,190,209,231,249,270,290,310,331,351,369,389,411,430,449,470,490,511,531,549,571,591,610,630,650,670,690,710,730,750,769,791,809,831,849,871,890,910,929,951,969,991,1010,1030,1049,1070,1090,1110,1130,1150,1170,1190,1210,1230,1250,1271,1290,1310,1330,1349,1369,1389,1410,1430,1451,1470,1490],"xSR":733.5,"ySR":443.3,"xT1":420.09999999999997,"yT1":0,"xT2":1046.8999999999999,"yT2":0,"toosoon":0,"cond_shown":"randomdotsizeEA","ratio_trial":500,"smaller_num":"3","larger_num":"6","correct_side":2,"subjID":"MariaAlejandraRamosJaimes12","gender":"1","age":"11","school":"6"},{"start_time":1551794761148,"click_time":1551794763627,"finger_time":1551794762227,"fix_duration":1419.2775224988202,"trial":4,"RT":1079,"MT":1400,"sideResp":1,"stimulus":"img/750/equaldotsize/R/15_Ratio_750_L_9_R_12.png","xmouse":[786,786,786,786,786,786,786,786,786,786,786,786,786,786,786,786,786,786,786,786,786,786,786,786,786,786,786,786,786,786,786,786,786,786,786,786,786,786,786,786,786,786,786,786,786,786,786,786,787,795,795,803,816,829,853,867,891,910,928,970,972,980,986,988,988,988,988,988,988,988,988,988,988,989,989,989,989,989,989,989,989,989,993,997,1000,1002,1004,1004,1004,1002,1001,991,979,962,934,918,905,898,890,853,812,790,768,750,719,699,699,673,658,644,634,612,600,599,597,597,592,584,582,582,572,563,541,519],"ymouse":[494,494,494,494,494,494,494,494,494,494,494,494,494,494,494,494,494,494,494,494,494,494,494,494,494,494,494,494,494,494,494,494,494,494,494,494,494,494,494,494,494,494,494,494,494,494,494,491,488,478,478,468,453,435,402,386,367,350,333,297,296,284,274,268,268,268,268,268,268,268,268,268,268,268,268,268,268,268,268,268,268,268,266,264,262,258,253,250,250,239,235,222,209,193,176,166,156,152,147,127,107,99,94,90,89,88,88,84,81,80,80,77,76,76,76,76,75,73,73,73,72,71,70,70],"timestamp_mouse":[36,38,59,80,99,119,139,160,179,199,219,240,260,280,300,318,339,360,379,400,419,439,459,478,500,518,539,559,580,600,619,640,659,679,699,719,739,759,780,799,819,839,858,880,899,919,939,959,980,1000,1019,1038,1059,1079,1101,1119,1138,1159,1180,1200,1219,1239,1260,1280,1300,1319,1339,1358,1379,1400,1419,1439,1459,1479,1500,1520,1539,1560,1580,1600,1618,1639,1659,1680,1700,1719,1738,1759,1779,1800,1819,1839,1859,1880,1900,1919,1939,1959,1979,2000,2019,2038,2059,2078,2099,2119,2139,2159,2179,2199,2218,2239,2260,2279,2300,2319,2339,2359,2379,2400,2419,2439,2459,2478],"xSR":733.5,"ySR":443.3,"xT1":420.09999999999997,"yT1":0,"xT2":1046.8999999999999,"yT2":0,"toosoon":0,"cond_shown":"equaldotsize","ratio_trial":750,"smaller_num":"9","larger_num":"12","correct_side":2,"subjID":"MariaAlejandraRamosJaimes12","gender":"1","age":"11","school":"6"},{"start_time":1551794766422,"click_time":1551794768367,"finger_time":1551794767387,"fix_duration":1434.5755105922692,"trial":5,"RT":965,"MT":980,"sideResp":1,"stimulus":"img/750/equaldotanddens/L/9_Ratio_750_L_4_R_3.png","xmouse":[797,797,797,797,797,797,797,797,797,797,797,797,797,797,797,797,797,797,797,797,797,797,797,797,797,797,797,797,797,797,797,797,797,797,797,797,797,797,797,797,797,797,797,797,796,793,779,760,730,692,666,648,647,646,643,636,628,625,623,621,617,602,586,565,549,548,547,544,544,541,540,538,538,537,534,533,533,533,533,531,531,531,531,530,530,530,530,527,527,526,526,526,522,521,521,521,521,498],"ymouse":[514,514,514,514,514,514,514,514,514,514,514,514,514,514,514,514,514,514,514,514,514,514,514,514,514,514,514,514,514,514,514,514,514,514,514,514,514,514,514,514,514,514,514,514,510,505,489,470,444,407,377,337,317,301,284,262,230,215,201,189,178,156,140,128,119,116,112,105,105,103,101,100,99,98,96,96,96,96,96,96,95,95,94,93,93,93,93,90,90,89,89,88,88,88,88,88,88,88],"timestamp_mouse":[10,40,46,66,85,105,126,146,166,184,206,225,245,264,285,306,326,345,366,385,406,426,446,464,485,506,524,546,566,584,604,625,644,666,684,705,725,744,765,784,805,825,844,865,885,906,924,945,965,985,1004,1027,1044,1065,1085,1106,1126,1144,1165,1185,1205,1225,1245,1265,1286,1305,1325,1345,1365,1386,1406,1424,1446,1465,1484,1504,1525,1546,1565,1585,1606,1624,1645,1665,1686,1705,1725,1744,1766,1786,1805,1825,1846,1865,1885,1904,1924,1944],"xSR":733.5,"ySR":443.3,"xT1":420.09999999999997,"yT1":0,"xT2":1046.8999999999999,"yT2":0,"toosoon":0,"cond_shown":"equaldotanddens","ratio_trial":750,"smaller_num":"3","larger_num":"4","correct_side":1,"subjID":"MariaAlejandraRamosJaimes12","gender":"1","age":"11","school":"6"},{"start_time":1551794772867,"click_time":1551794774728,"finger_time":1551794773808,"fix_duration":618.6140592300407,"trial":6,"RT":941,"MT":920,"sideResp":1,"stimulus":"img/500/equaldotanddens/L/8_Ratio_500_L_8_R_4.png","xmouse":[767,767,767,766,766,766,766,766,766,766,766,766,766,766,766,766,766,766,766,766,766,766,766,766,766,766,766,766,766,766,766,766,766,766,766,766,766,766,766,766,766,766,766,766,762,761,759,757,753,737,732,728,726,724,716,703,691,675,658,643,615,613,591,590,587,587,581,578,559,541,535,527,517,513,512,511,511,510,510,509,507,507,507,507,505,504,503,502,501,500,500,500,500,501],"ymouse":[492,492,492,493,493,493,493,493,493,493,493,493,493,493,493,493,493,493,493,493,493,493,493,493,493,493,493,493,493,493,493,493,493,493,493,493,493,493,493,493,493,493,493,493,472,464,449,427,398,348,327,317,309,300,292,287,281,270,256,242,193,187,140,137,130,130,114,108,70,61,72,92,127,141,147,152,152,152,150,147,139,137,132,130,118,115,112,110,109,106,104,104,102,93],"timestamp_mouse":[8,20,40,59,80,99,120,140,161,180,200,220,240,261,280,299,320,341,361,380,400,419,441,459,481,500,521,541,559,581,601,619,639,660,679,699,721,740,761,780,800,821,840,860,881,901,919,941,961,980,1000,1020,1039,1060,1081,1100,1120,1141,1161,1180,1200,1220,1241,1261,1280,1300,1319,1340,1361,1380,1399,1421,1439,1461,1480,1500,1520,1541,1560,1579,1601,1621,1640,1660,1680,1700,1720,1740,1760,1781,1799,1821,1840,1861],"xSR":733.5,"ySR":443.3,"xT1":420.09999999999997,"yT1":0,"xT2":1046.8999999999999,"yT2":0,"toosoon":0,"cond_shown":"equaldotanddens","ratio_trial":500,"smaller_num":"4","larger_num":"8","correct_side":1,"subjID":"MariaAlejandraRamosJaimes12","gender":"1","age":"11","school":"6"},{"start_time":1551794778463,"click_time":1551794780306,"finger_time":1551794779626,"fix_duration":814.4010288699168,"trial":7,"RT":1163,"MT":680,"sideResp":2,"stimulus":"img/750/equaldotsize/R/2_Ratio_750_L_6_R_8.png","xmouse":[821,821,821,821,821,821,821,821,821,821,821,821,821,821,821,821,821,821,821,821,821,821,821,821,821,821,821,821,821,821,821,821,821,821,821,821,821,821,821,820,819,819,818,817,817,815,814,813,813,813,813,813,813,813,813,814,818,825,836,847,867,881,927,970,1050,1070,1102,1120,1148,1197,1197,1197,1197,1197,1197,1197,1197,1197,1197,1197,1197,1197,1197,1197,1197,1197,1197,1197,1197,1197,1197,1197,1121],"ymouse":[491,491,491,491,491,491,491,491,491,491,491,491,491,491,491,491,491,491,491,491,491,491,491,491,491,491,491,491,491,491,491,491,491,491,491,491,491,491,491,490,486,482,481,479,477,475,473,472,472,472,472,472,472,472,472,467,463,456,444,431,414,400,362,323,234,207,161,125,88,12,12,12,12,12,12,12,12,12,12,12,12,12,12,12,12,12,12,12,12,12,12,12,1],"timestamp_mouse":[9,24,43,65,85,105,124,143,164,185,205,224,244,264,284,304,323,345,364,383,404,424,443,464,484,504,523,544,564,584,603,623,644,664,684,703,724,744,764,784,804,825,844,865,884,904,924,943,964,984,1003,1024,1045,1065,1084,1105,1125,1144,1163,1183,1203,1225,1244,1264,1285,1304,1323,1345,1364,1385,1403,1424,1444,1465,1484,1505,1524,1545,1565,1584,1604,1623,1643,1664,1685,1704,1724,1744,1765,1784,1804,1824,1843],"xSR":733.5,"ySR":443.3,"xT1":420.09999999999997,"yT1":0,"xT2":1046.8999999999999,"yT2":0,"toosoon":0,"cond_shown":"equaldotsize","ratio_trial":750,"smaller_num":"6","larger_num":"8","correct_side":2,"subjID":"MariaAlejandraRamosJaimes12","gender":"1","age":"11","school":"6"},{"start_time":1551794782546,"click_time":1551794784667,"finger_time":1551794783447,"fix_duration":618.4229238686559,"trial":8,"RT":901,"MT":1220,"sideResp":1,"stimulus":"img/900/equaldotsize/L/1_Ratio_900_L_10_R_9.png","xmouse":[798,798,798,798,798,798,798,798,798,798,798,798,798,798,798,798,798,798,798,798,798,798,798,798,798,798,798,798,798,798,798,798,798,798,798,798,798,798,798,798,798,798,797,797,797,804,804,804,804,801,797,796,789,788,786,756,735,732,714,710,710,710,710,710,710,710,710,710,710,710,710,710,710,710,710,710,710,710,710,708,705,703,697,697,692,686,682,682,679,675,675,675,674,674,672,668,665,664,661,655,633,623,612,600,584,540,520],"ymouse":[478,476,476,476,476,476,476,476,476,476,476,476,476,476,476,476,476,476,476,476,476,476,476,476,476,476,476,476,476,476,476,476,476,476,476,476,476,476,476,476,475,472,470,459,458,431,424,424,424,412,408,403,389,387,385,328,297,294,278,275,275,275,275,275,275,275,275,275,275,275,275,275,275,275,275,275,275,275,273,267,261,258,249,249,241,228,219,219,207,203,203,199,194,193,190,184,180,177,174,165,140,128,113,98,82,43,28],"timestamp_mouse":[11,36,42,60,81,101,122,141,162,181,201,221,241,260,281,300,321,342,362,381,401,421,441,460,481,501,522,541,561,581,600,621,640,660,681,701,720,742,761,781,801,820,840,861,882,901,921,942,961,981,1001,1022,1041,1061,1081,1102,1120,1140,1160,1180,1202,1222,1241,1260,1280,1301,1320,1341,1361,1382,1401,1420,1440,1461,1482,1501,1521,1542,1562,1581,1602,1620,1640,1660,1681,1702,1720,1741,1761,1782,1801,1821,1842,1861,1882,1901,1920,1941,1961,1982,2001,2021,2042,2061,2080,2101,2120],"xSR":733.5,"ySR":443.3,"xT1":420.09999999999997,"yT1":0,"xT2":1046.8999999999999,"yT2":0,"toosoon":0,"cond_shown":"equaldotsize","ratio_trial":900,"smaller_num":"9","larger_num":"10","correct_side":1,"subjID":"MariaAlejandraRamosJaimes12","gender":"1","age":"11","school":"6"},{"start_time":1551794790720,"click_time":1551794792366,"finger_time":1551794791627,"fix_duration":250,"trial":9,"RT":907,"MT":739,"sideResp":2,"stimulus":"img/750/equaldotsize/R/3_Ratio_750_L_15_R_20.png","xmouse":[757,757,757,757,757,759,760,761,761,761,761,762,762,762,762,762,762,762,762,762,762,762,762,762,762,762,762,762,762,762,762,763,766,768,769,772,774,786,794,802,812,820,822,825,832,832,847,854,868,879,894,909,921,939,954,973,1026,1038,1038,1038,1038,1038,1038,1038,1038,1038,1038,1038,1038,1038,1038,1038,1038,1038,1038,1038,1038,1038,1038,1038,1038,1038,1099],"ymouse":[514,514,514,514,514,511,510,509,509,509,509,510,510,510,510,510,510,510,510,510,510,510,510,510,510,510,510,510,510,510,510,510,510,510,509,508,508,505,503,498,492,485,478,471,446,443,369,341,312,294,275,250,229,205,185,151,28,1,1,1,1,1,1,1,1,1,1,1,1,1,1,1,1,1,1,1,1,1,1,1,1,1,1],"timestamp_mouse":[10,32,47,68,87,107,127,147,168,188,206,228,247,267,287,307,328,347,366,387,406,427,446,468,486,506,528,548,569,587,608,626,647,667,687,707,727,748,768,788,806,828,847,868,888,907,927,946,967,987,1008,1028,1047,1067,1088,1107,1127,1146,1166,1188,1207,1228,1248,1268,1287,1307,1327,1346,1366,1387,1407,1428,1447,1468,1487,1508,1528,1548,1568,1588,1607,1628,1646],"xSR":733.5,"ySR":443.3,"xT1":420.09999999999997,"yT1":0,"xT2":1046.8999999999999,"yT2":0,"toosoon":0,"cond_shown":"equaldotsize","ratio_trial":750,"smaller_num":"15","larger_num":"20","correct_side":2,"subjID":"MariaAlejandraRamosJaimes12","gender":"1","age":"11","school":"6"},{"start_time":1551794795554,"click_time":1551794796448,"finger_time":1551794796187,"fix_duration":766.4253939590487,"trial":10,"RT":633,"MT":261,"sideResp":2,"stimulus":"img/250/equaldotsize/R/6_Ratio_250_L_6_R_24.png","xmouse":[789,789,789,789,789,789,789,789,789,789,789,789,789,789,789,789,789,789,789,789,789,789,789,789,789,789,789,789,792,801,819,841,844,852,896,965,1016,1046,1057,1057,1045,1035,1034,1034,1055],"ymouse":[500,500,500,500,500,500,500,500,500,500,500,500,500,500,500,500,500,500,500,500,500,500,500,500,500,500,500,500,497,487,470,449,446,440,391,310,234,185,122,101,80,72,69,68,59],"timestamp_mouse":[13,43,54,74,92,113,133,153,173,193,214,232,254,273,293,314,333,353,373,393,414,432,452,473,493,514,533,554,573,594,613,633,653,672,694,713,733,752,774,793,813,833,854,873,893],"xSR":733.5,"ySR":443.3,"xT1":420.09999999999997,"yT1":0,"xT2":1046.8999999999999,"yT2":0,"toosoon":0,"cond_shown":"equaldotsize","ratio_trial":250,"smaller_num":"6","larger_num":"24","correct_side":2,"subjID":"MariaAlejandraRamosJaimes12","gender":"1","age":"11","school":"6"},{"start_time":1551794798306,"click_time":1551794799908,"finger_time":1551794798947,"fix_duration":577.6746925142929,"trial":11,"RT":641,"MT":961,"sideResp":1,"stimulus":"img/250/equaldotanddens/L/3_Ratio_250_L_8_R_2.png","xmouse":[789,789,789,789,789,789,789,789,789,789,789,789,789,789,789,789,789,789,789,789,789,789,789,789,789,789,789,789,789,789,788,783,761,727,679,627,613,601,601,596,596,595,604,604,604,604,604,604,604,602,599,575,573,573,573,570,564,564,564,564,564,563,556,556,556,556,553,553,550,550,544,540,540,540,537,531,522,516,516,512,503],"ymouse":[480,480,480,480,480,480,480,480,480,480,480,480,480,480,480,480,480,480,480,480,480,480,480,480,480,480,480,480,480,480,475,457,416,350,265,217,205,198,198,192,190,187,185,185,185,185,185,184,181,176,172,146,142,142,142,140,133,133,133,133,133,132,126,126,126,126,124,124,121,121,116,113,113,113,112,110,106,103,103,100,91],"timestamp_mouse":[8,20,41,61,82,101,121,141,160,181,201,221,241,262,282,302,321,341,362,380,401,421,441,460,482,500,522,542,560,582,602,622,641,660,681,701,722,741,760,780,802,821,841,860,881,902,921,941,961,981,1002,1021,1042,1061,1081,1101,1122,1141,1161,1180,1201,1222,1242,1260,1282,1301,1321,1341,1360,1381,1401,1421,1441,1461,1481,1501,1520,1542,1561,1581,1602],"xSR":733.5,"ySR":443.3,"xT1":420.09999999999997,"yT1":0,"xT2":1046.8999999999999,"yT2":0,"toosoon":0,"cond_shown":"equaldotanddens","ratio_trial":250,"smaller_num":"2","larger_num":"8","correct_side":1,"subjID":"MariaAlejandraRamosJaimes12","gender":"1","age":"11","school":"6"},{"start_time":1551794801509,"click_time":1551794802687,"finger_time":1551794802428,"fix_duration":280.3889770329133,"trial":12,"RT":919,"MT":259,"sideResp":2,"stimulus":"img/500/equaldotsize/R/12_Ratio_500_L_1_R_2.png","xmouse":[769,769,769,769,769,769,769,769,769,769,769,769,769,769,769,769,769,769,769,769,769,769,769,769,769,769,769,769,769,769,769,769,769,769,769,769,769,769,769,769,769,769,769,785,800,843,936,963,1029,1057,1057,1037,1027,1024,1023,1023,1035,1038,1052],"ymouse":[467,467,467,467,467,467,467,467,467,467,467,467,467,467,467,467,467,467,467,467,467,467,467,467,467,467,467,467,467,467,467,467,467,467,467,467,467,467,467,467,467,467,467,459,450,424,374,351,276,217,214,143,112,106,102,101,101,100,94],"timestamp_mouse":[18,37,58,79,97,118,137,158,178,198,218,237,257,278,298,319,338,359,379,398,418,438,457,479,498,519,538,559,577,598,619,639,659,679,699,719,738,758,779,797,818,839,859,878,899,919,939,958,977,998,1018,1039,1058,1078,1098,1118,1138,1157,1178],"xSR":733.5,"ySR":443.3,"xT1":420.09999999999997,"yT1":0,"xT2":1046.8999999999999,"yT2":0,"toosoon":0,"cond_shown":"equaldotsize","ratio_trial":500,"smaller_num":"1","larger_num":"2","correct_side":2,"subjID":"MariaAlejandraRamosJaimes12","gender":"1","age":"11","school":"6"},{"start_time":1551794804577,"click_time":1551794805807,"finger_time":1551794805487,"fix_duration":648.588742124041,"trial":13,"RT":910,"MT":320,"sideResp":1,"stimulus":"img/500/randomdotsizeEA/R/12_Ratio_500_L_1_R_2.png","xmouse":[818,818,818,818,818,816,800,788,776,773,770,766,760,757,755,755,755,755,755,755,755,755,755,755,755,755,755,755,755,755,755,755,755,755,755,755,755,755,755,755,755,755,751,748,744,723,713,689,665,665,643,637,623,608,563,549,544,544,544,540,534,519],"ymouse":[505,505,505,505,505,505,505,505,505,505,504,504,503,502,502,502,502,502,502,502,502,502,502,502,502,502,502,502,502,502,502,502,502,502,502,502,502,502,502,502,502,502,498,493,487,461,448,414,377,377,308,292,259,219,151,130,121,121,121,115,107,92],"timestamp_mouse":[10,34,51,71,90,110,130,150,170,189,211,229,250,271,290,311,331,351,371,390,410,430,449,470,490,509,529,549,571,590,610,630,650,670,691,710,730,751,770,789,810,831,849,871,890,910,930,950,971,989,1010,1030,1049,1071,1090,1111,1130,1150,1170,1190,1210,1230],"xSR":733.5,"ySR":443.3,"xT1":420.09999999999997,"yT1":0,"xT2":1046.8999999999999,"yT2":0,"toosoon":0,"cond_shown":"randomdotsizeEA","ratio_trial":500,"smaller_num":"1","larger_num":"2","correct_side":2,"subjID":"MariaAlejandraRamosJaimes12","gender":"1","age":"11","school":"6"},{"start_time":1551794809143,"click_time":1551794810767,"finger_time":1551794810268,"fix_duration":475.12210251549016,"trial":14,"RT":1125,"MT":499,"sideResp":2,"stimulus":"img/750/equaldotanddens/R/15_Ratio_750_L_9_R_12.png","xmouse":[805,805,805,804,804,804,804,804,804,804,804,804,804,804,804,804,804,804,804,804,804,804,804,804,804,804,804,804,804,804,804,804,804,804,804,804,804,804,804,804,804,804,804,805,805,805,805,805,805,805,805,805,805,805,805,806,809,816,830,856,917,957,1026,1093,1136,1206,1211,1211,1211,1211,1211,1211,1211,1211,1211,1211,1211,1211,1193,1177,1166,1145],"ymouse":[463,462,462,460,459,459,458,457,455,454,454,454,454,454,454,454,454,454,454,454,454,454,454,454,454,454,454,454,454,454,454,454,454,454,454,454,454,454,454,454,454,454,454,453,453,453,453,453,453,452,449,448,448,448,448,445,440,433,425,413,383,355,305,245,194,72,56,56,56,49,32,29,29,29,29,29,29,29,38,51,60,75],"timestamp_mouse":[11,39,44,64,84,104,123,145,164,184,203,224,243,264,285,304,323,344,363,384,404,425,445,464,484,504,523,544,564,585,604,624,644,665,684,703,724,745,765,785,805,824,845,864,883,904,923,945,963,983,1004,1025,1045,1065,1085,1104,1125,1144,1164,1185,1204,1223,1244,1265,1284,1304,1323,1344,1364,1383,1405,1424,1454,1464,1483,1508,1524,1544,1564,1584,1603,1623],"xSR":733.5,"ySR":443.3,"xT1":420.09999999999997,"yT1":0,"xT2":1046.8999999999999,"yT2":0,"toosoon":0,"cond_shown":"equaldotanddens","ratio_trial":750,"smaller_num":"9","larger_num":"12","correct_side":2,"subjID":"MariaAlejandraRamosJaimes12","gender":"1","age":"11","school":"6"},{"start_time":1551794814367,"click_time":1551794817647,"finger_time":1551794815467,"fix_duration":1278.8791260973846,"trial":15,"RT":1100,"MT":2180,"sideResp":1,"stimulus":"img/250/equaldotanddens/L/7_Ratio_250_L_8_R_2.png","xmouse":[814,814,814,814,814,814,814,814,814,814,814,814,814,814,814,814,814,814,814,814,814,814,814,814,814,814,814,814,814,814,814,814,814,814,814,814,814,814,814,814,814,814,814,814,814,814,804,802,801,791,787,783,778,772,760,757,757,744,731,710,696,675,643,639,584,582,569,567,567,567,566,564,563,562,555,549,549,549,549,549,549,549,549,549,549,549,549,549,549,549,549,549,549,549,549,549,549,549,549,547,547,547,547,547,547,547,547,547,547,547,547,547,547,547,547,542,541,538,538,533,530,530,530,530,530,530,530,530,530,530,530,530,530,530,530,530,530,530,530,530,530,530,530,530,529,529,527,524,516,516,509,507,507,507,507,507,507,507,507,507,507,507,507,505,502],"ymouse":[514,514,514,514,514,514,514,514,514,514,514,514,514,514,514,514,514,514,514,514,514,514,514,514,514,514,514,514,514,514,514,514,514,514,514,514,514,514,514,514,514,514,514,514,509,504,484,477,475,463,459,456,454,452,444,441,441,428,416,397,380,362,332,329,288,287,285,285,285,285,285,283,281,280,263,255,255,255,255,255,255,254,254,254,254,254,254,254,254,254,254,254,254,254,254,254,254,251,250,247,247,247,247,247,247,247,247,247,247,244,240,226,222,222,215,191,184,173,173,164,158,158,158,158,158,158,158,158,158,158,158,158,158,158,158,158,158,158,158,149,148,148,148,146,142,142,136,129,116,115,107,106,106,106,106,105,105,105,105,105,105,103,103,100,89],"timestamp_mouse":[1,19,40,61,80,100,121,139,161,179,200,220,239,261,280,300,319,340,361,380,401,419,440,461,481,501,520,541,561,581,601,621,641,659,680,701,720,741,760,781,801,821,839,861,880,901,920,941,960,980,999,1019,1041,1061,1080,1100,1120,1141,1160,1180,1200,1221,1240,1261,1280,1299,1320,1340,1359,1381,1400,1420,1440,1460,1480,1499,1519,1540,1560,1580,1601,1620,1641,1661,1680,1701,1721,1740,1760,1780,1799,1821,1840,1860,1881,1901,1921,1941,1960,1980,2001,2019,2040,2060,2081,2101,2120,2141,2160,2180,2199,2220,2240,2260,2280,2300,2320,2340,2361,2380,2400,2419,2439,2460,2481,2500,2521,2539,2561,2581,2600,2620,2640,2660,2681,2700,2720,2740,2760,2780,2799,2819,2840,2859,2881,2899,2920,2941,2959,2979,3000,3020,3041,3061,3081,3101,3119,3141,3160,3181,3201,3221,3239,3259,3280],"xSR":733.5,"ySR":443.3,"xT1":420.09999999999997,"yT1":0,"xT2":1046.8999999999999,"yT2":0,"toosoon":0,"cond_shown":"equaldotanddens","ratio_trial":250,"smaller_num":"2","larger_num":"8","correct_side":1,"subjID":"MariaAlejandraRamosJaimes12","gender":"1","age":"11","school":"6"},{"start_time":1551794820873,"click_time":1551794822867,"finger_time":1551794821767,"fix_duration":1203.4824948108512,"trial":16,"RT":894,"MT":1100,"sideResp":1,"stimulus":"img/250/equaldotsize/L/1_Ratio_250_L_8_R_2.png","xmouse":[811,811,811,811,811,811,811,811,811,811,811,811,811,811,811,811,811,811,811,811,811,811,811,811,811,811,811,811,811,811,811,811,811,811,811,811,811,811,811,812,812,812,812,811,802,784,772,772,675,625,584,576,574,565,559,556,556,556,556,556,556,555,547,546,526,523,518,507,507,507,506,499,498,498,498,498,498,498,498,498,498,498,498,498,498,498,498,498,498,498,498,498,498,497,497,497,497,497,496,494],"ymouse":[467,467,467,467,467,467,467,467,467,467,467,467,467,467,467,467,467,467,467,467,467,467,467,467,467,467,467,467,467,467,467,467,466,466,466,466,466,466,466,464,462,457,455,446,425,403,389,389,287,236,193,181,180,165,156,151,150,150,150,150,150,148,142,142,131,129,126,124,124,124,123,121,121,120,120,120,120,120,120,120,120,120,120,118,118,118,118,118,118,118,118,118,118,112,112,112,112,110,104,90],"timestamp_mouse":[14,47,53,74,94,113,133,155,174,194,215,234,254,274,293,314,335,355,373,395,413,433,453,473,493,515,534,555,574,595,613,634,654,675,694,715,733,754,775,793,814,835,854,874,894,914,934,954,975,994,1013,1034,1054,1074,1094,1114,1133,1154,1175,1194,1214,1234,1254,1273,1293,1315,1335,1355,1374,1394,1413,1434,1454,1474,1493,1514,1535,1554,1575,1593,1613,1634,1655,1674,1693,1713,1735,1754,1774,1795,1814,1834,1855,1875,1895,1914,1934,1954,1975,1994],"xSR":733.5,"ySR":443.3,"xT1":420.09999999999997,"yT1":0,"xT2":1046.8999999999999,"yT2":0,"toosoon":0,"cond_shown":"equaldotsize","ratio_trial":250,"smaller_num":"2","larger_num":"8","correct_side":1,"subjID":"MariaAlejandraRamosJaimes12","gender":"1","age":"11","school":"6"},{"start_time":1551794826064,"click_time":1551794828167,"finger_time":1551794827208,"fix_duration":1195.043090836379,"trial":17,"RT":1144,"MT":959,"sideResp":1,"stimulus":"img/750/equaldotanddens/L/8_Ratio_750_L_4_R_3.png","xmouse":[764,764,764,764,764,764,764,764,764,764,764,764,764,764,764,764,764,764,764,764,764,764,764,764,764,764,764,764,764,764,764,764,764,764,764,764,764,764,764,764,764,764,764,764,764,764,764,764,764,764,764,764,764,764,761,757,757,746,727,707,707,707,707,706,706,706,700,700,700,697,697,689,655,563,474,474,474,474,474,474,464,459,459,459,459,463,464,464,475,486,488,489,491,493,494,496,499,502,505,511,516,518,518,519,519,520],"ymouse":[465,465,465,465,465,465,465,465,465,465,465,465,465,465,465,465,465,465,465,465,465,465,465,465,465,465,465,465,465,465,465,465,465,465,465,465,465,465,465,465,465,465,465,465,465,465,465,465,465,465,465,465,465,463,453,448,448,434,414,392,392,392,392,392,392,392,384,384,384,381,381,375,356,304,248,248,248,248,248,248,225,207,207,207,197,180,178,178,175,172,171,170,168,164,163,161,156,150,143,134,121,110,107,104,101,74],"timestamp_mouse":[9,23,43,64,83,102,124,143,164,183,204,222,243,262,283,302,324,343,362,384,403,422,443,462,484,504,522,543,562,583,603,623,644,664,684,704,723,743,763,783,804,824,844,863,883,903,923,943,964,982,1003,1024,1043,1063,1083,1103,1122,1144,1164,1184,1202,1224,1243,1263,1283,1303,1323,1342,1364,1384,1404,1422,1442,1463,1484,1503,1522,1543,1562,1583,1602,1623,1643,1664,1682,1703,1724,1743,1762,1784,1802,1823,1843,1864,1883,1903,1923,1944,1963,1982,2003,2023,2043,2063,2082,2103],"xSR":733.5,"ySR":443.3,"xT1":420.09999999999997,"yT1":0,"xT2":1046.8999999999999,"yT2":0,"toosoon":0,"cond_shown":"equaldotanddens","ratio_trial":750,"smaller_num":"3","larger_num":"4","correct_side":1,"subjID":"MariaAlejandraRamosJaimes12","gender":"1","age":"11","school":"6"},{"start_time":1551794831030,"click_time":1551794832406,"finger_time":1551794831946,"fix_duration":1262.2702396410796,"trial":18,"RT":916,"MT":460,"sideResp":1,"stimulus":"img/250/equaldotanddens/L/14_Ratio_250_L_12_R_3.png","xmouse":[801,801,801,801,801,800,800,800,800,800,800,799,799,799,799,798,798,798,798,798,798,798,798,798,798,798,797,797,797,797,797,797,797,797,797,797,797,797,797,797,797,795,791,772,765,734,723,723,660,577,549,531,511,511,511,511,502,491,491,491,491,491,491,491,491,490,487,482,476],"ymouse":[506,506,506,506,506,507,507,507,507,507,507,508,508,509,509,510,511,511,511,511,511,511,511,511,511,511,512,512,512,512,512,512,512,512,512,512,512,512,512,512,512,505,498,463,451,407,392,392,338,264,243,225,205,205,205,196,170,153,151,150,147,147,147,147,143,132,119,108,98],"timestamp_mouse":[16,49,56,76,98,116,136,156,176,196,216,236,256,277,296,316,336,356,377,397,416,436,457,477,497,517,537,556,576,597,617,637,656,676,697,717,737,756,776,797,817,836,857,876,896,916,936,956,977,996,1017,1036,1056,1076,1096,1116,1137,1156,1177,1196,1217,1237,1257,1277,1297,1316,1336,1357,1376],"xSR":733.5,"ySR":443.3,"xT1":420.09999999999997,"yT1":0,"xT2":1046.8999999999999,"yT2":0,"toosoon":0,"cond_shown":"equaldotanddens","ratio_trial":250,"smaller_num":"3","larger_num":"12","correct_side":1,"subjID":"MariaAlejandraRamosJaimes12","gender":"1","age":"11","school":"6"},{"start_time":1551794850577,"click_time":1551794853807,"finger_time":1551794851487,"fix_duration":250,"trial":19,"RT":910,"MT":2320,"sideResp":1,"stimulus":"img/250/randomdotsizeEA/L/1_Ratio_250_L_8_R_2.png","xmouse":[769,769,769,769,769,769,769,769,769,769,769,769,769,769,769,769,769,769,769,769,769,769,769,769,769,769,769,769,769,769,769,769,769,769,769,769,769,769,769,769,773,780,794,808,826,832,834,834,834,834,834,834,834,834,834,834,834,834,834,834,834,834,834,834,829,829,827,827,827,827,827,827,827,827,828,829,830,831,831,831,831,832,832,833,834,834,834,834,834,833,833,833,833,833,833,833,833,833,833,833,833,833,833,833,833,833,833,833,832,829,823,812,792,792,786,771,771,755,723,723,717,717,717,714,711,711,711,711,706,682,680,680,680,680,659,624,613,599,599,592,592,587,584,582,559,559,538,531,520,520,520,520,520,520,508,508,499,495,495,495,495,494],"ymouse":[497,497,497,497,497,497,497,497,497,497,497,497,497,497,497,497,497,497,497,497,497,497,497,497,497,497,497,497,497,497,497,497,497,497,497,497,497,497,497,497,493,488,480,471,451,442,439,438,438,438,438,438,438,438,438,438,438,438,438,438,438,437,437,436,434,434,433,433,433,433,433,433,431,430,426,424,419,416,415,414,414,412,409,407,404,402,401,398,395,388,385,385,385,385,385,385,385,385,385,385,385,385,385,385,385,385,385,385,384,373,365,355,341,341,337,332,332,329,325,325,324,324,324,317,302,302,302,301,294,259,258,258,258,258,249,238,235,231,231,226,226,218,215,212,184,184,163,156,135,131,130,130,130,130,117,117,109,104,103,102,100,97],"timestamp_mouse":[9,33,49,70,89,110,130,149,169,189,210,230,249,269,289,310,329,349,369,389,409,429,449,469,490,509,529,549,569,590,609,630,649,669,690,709,730,749,769,790,809,830,849,869,890,910,930,950,969,990,1009,1029,1049,1071,1090,1109,1129,1149,1170,1189,1209,1229,1250,1269,1290,1310,1329,1350,1369,1390,1410,1429,1450,1469,1490,1510,1529,1550,1570,1590,1610,1630,1650,1670,1690,1710,1730,1749,1769,1789,1809,1830,1850,1869,1889,1910,1930,1950,1969,1990,2010,2029,2049,2069,2089,2109,2130,2149,2169,2189,2209,2229,2250,2270,2289,2309,2330,2349,2370,2390,2409,2429,2449,2470,2489,2509,2529,2550,2569,2589,2610,2630,2649,2670,2690,2709,2730,2749,2769,2790,2810,2830,2849,2869,2890,2910,2929,2949,2969,2989,3010,3029,3050,3069,3090,3110,3129,3149,3169,3190,3209,3230],"xSR":733.5,"ySR":443.3,"xT1":420.09999999999997,"yT1":0,"xT2":1046.8999999999999,"yT2":0,"toosoon":0,"cond_shown":"randomdotsizeEA","ratio_trial":250,"smaller_num":"2","larger_num":"8","correct_side":1,"subjID":"MariaAlejandraRamosJaimes12","gender":"1","age":"11","school":"6"},{"start_time":1551794858509,"click_time":1551794861447,"finger_time":1551794859646,"fix_duration":1119.1404040665677,"trial":20,"RT":1137,"MT":1801,"sideResp":2,"stimulus":"img/250/randomdotsizeEA/R/6_Ratio_250_L_6_R_24.png","xmouse":[803,803,803,803,803,803,803,803,803,803,803,803,803,803,803,803,803,803,803,803,803,803,803,803,803,803,803,803,803,803,803,803,803,803,803,803,803,803,803,803,803,803,803,803,803,803,803,803,803,803,803,803,803,803,803,813,845,875,877,877,877,877,881,881,881,883,887,888,888,892,892,901,911,911,921,925,947,958,958,958,958,958,958,958,958,958,958,958,958,958,958,958,958,958,958,958,958,958,958,958,958,958,958,958,958,958,958,958,958,958,958,958,958,979,979,1008,1054,1114,1128,1148,1161,1161,1161,1161,1161,1161,1161,1158,1150,1150,1150,1150,1150,1150,1150,1150,1150,1150,1150,1150,1150,1150,1150,1150,1150,1150,1140],"ymouse":[516,516,516,516,516,516,516,516,516,516,516,516,516,516,516,516,516,516,516,516,516,516,516,516,516,516,516,516,516,516,516,516,516,516,516,516,516,516,516,516,516,516,516,516,516,516,516,516,516,516,516,516,516,516,516,500,459,422,417,417,417,417,402,402,402,387,361,352,352,342,342,326,310,310,301,300,281,267,267,250,250,249,249,249,249,249,249,249,249,249,249,249,249,249,249,249,249,249,249,249,249,249,249,249,249,249,249,249,249,249,249,249,249,245,245,234,219,195,189,179,174,174,174,174,174,171,152,81,27,27,27,27,27,27,27,27,27,27,27,27,27,27,27,27,27,27,10],"timestamp_mouse":[18,44,58,77,97,117,137,158,178,198,217,238,257,278,297,317,337,358,378,397,417,437,457,477,497,517,538,557,577,598,618,638,658,677,698,718,737,758,778,797,817,838,857,877,897,917,938,958,977,998,1017,1037,1058,1077,1097,1118,1137,1157,1177,1197,1218,1238,1257,1277,1298,1319,1338,1357,1378,1397,1417,1437,1457,1478,1497,1518,1537,1558,1579,1597,1617,1638,1657,1677,1697,1717,1738,1757,1777,1798,1817,1838,1858,1878,1897,1917,1938,1958,1978,1998,2018,2038,2058,2077,2097,2117,2138,2157,2177,2197,2217,2237,2258,2278,2298,2317,2338,2357,2377,2397,2418,2438,2458,2477,2497,2517,2538,2557,2577,2597,2618,2638,2657,2677,2697,2717,2738,2757,2777,2797,2818,2837,2857,2878,2897,2917,2938],"xSR":733.5,"ySR":443.3,"xT1":420.09999999999997,"yT1":0,"xT2":1046.8999999999999,"yT2":0,"toosoon":0,"cond_shown":"randomdotsizeEA","ratio_trial":250,"smaller_num":"6","larger_num":"24","correct_side":2,"subjID":"MariaAlejandraRamosJaimes12","gender":"1","age":"11","school":"6"},{"start_time":1551794863948,"click_time":1551794865847,"finger_time":1551794864946,"fix_duration":1299.2583003472766,"trial":21,"RT":998,"MT":901,"sideResp":2,"stimulus":"img/900/equaldotanddens/R/9_Ratio_900_L_18_R_20.png","xmouse":[746,746,746,746,746,746,746,746,746,746,746,746,746,746,746,746,746,746,746,746,746,746,746,746,746,746,746,746,746,746,746,746,746,746,746,746,746,746,746,746,746,746,746,746,748,748,748,749,757,759,816,826,834,864,864,864,866,884,891,920,943,957,975,985,991,994,998,1016,1031,1079,1147,1152,1165,1173,1176,1176,1176,1176,1176,1176,1176,1176,1176,1176,1176,1176,1176,1176,1176,1176,1176,1176,1176,1176,1176,1106],"ymouse":[481,481,481,481,481,481,481,481,481,481,481,481,481,481,481,481,481,481,481,481,481,481,481,481,481,481,481,481,481,481,481,481,481,481,481,481,481,481,481,481,481,481,481,481,476,476,476,473,462,461,392,380,371,347,347,347,345,334,328,316,305,299,291,285,280,275,266,247,232,174,89,80,55,32,1,1,1,1,1,1,1,1,1,1,1,1,1,1,1,1,1,1,1,1,1,9],"timestamp_mouse":[1,18,41,58,79,99,119,139,158,178,198,218,239,258,278,298,319,338,358,378,398,418,445,458,479,500,518,538,559,578,599,618,638,659,679,698,719,739,760,778,798,818,839,859,879,898,919,939,959,979,998,1018,1039,1058,1079,1099,1119,1138,1158,1178,1199,1218,1238,1258,1278,1298,1318,1338,1358,1378,1398,1418,1439,1459,1478,1499,1518,1539,1558,1579,1599,1618,1638,1658,1679,1698,1718,1738,1758,1778,1799,1818,1839,1859,1879,1898],"xSR":733.5,"ySR":443.3,"xT1":420.09999999999997,"yT1":0,"xT2":1046.8999999999999,"yT2":0,"toosoon":0,"cond_shown":"equaldotanddens","ratio_trial":900,"smaller_num":"18","larger_num":"20","correct_side":2,"subjID":"MariaAlejandraRamosJaimes12","gender":"1","age":"11","school":"6"},{"start_time":1551794867978,"click_time":1551794869306,"finger_time":1551794868886,"fix_duration":250,"trial":22,"RT":908,"MT":420,"sideResp":1,"stimulus":"img/500/randomdotsizeEA/L/10_Ratio_500_L_4_R_2.png","xmouse":[771,771,771,771,771,771,771,771,771,771,771,771,771,771,771,771,771,771,771,771,771,771,771,771,771,771,771,771,771,771,771,771,771,771,771,771,771,771,771,771,771,771,770,770,770,762,719,675,611,611,611,611,611,611,611,611,611,611,611,611,611,611,611,611,611,611,512],"ymouse":[475,475,475,475,475,475,475,475,475,475,475,475,475,475,475,475,475,475,475,475,475,475,475,475,475,475,475,475,475,475,475,475,475,475,475,475,475,475,475,475,475,475,475,468,444,401,285,180,11,11,11,11,11,11,11,11,11,11,11,11,11,11,11,11,11,11,9],"timestamp_mouse":[9,41,48,69,89,108,129,150,169,189,208,229,248,269,288,308,328,348,369,388,409,428,448,468,488,509,528,548,568,588,609,629,648,668,688,708,729,748,768,788,809,828,848,869,889,908,928,948,968,988,1008,1028,1049,1069,1088,1109,1128,1149,1169,1189,1209,1228,1248,1268,1288,1308,1328],"xSR":733.5,"ySR":443.3,"xT1":420.09999999999997,"yT1":0,"xT2":1046.8999999999999,"yT2":0,"toosoon":0,"cond_shown":"randomdotsizeEA","ratio_trial":500,"smaller_num":"2","larger_num":"4","correct_side":1,"subjID":"MariaAlejandraRamosJaimes12","gender":"1","age":"11","school":"6"},{"start_time":1551794873114,"click_time":1551794874947,"finger_time":1551794874046,"fix_duration":1285.7023154860428,"trial":23,"RT":932,"MT":901,"sideResp":2,"stimulus":"img/900/equaldotanddens/R/9_Ratio_900_L_18_R_20.png","xmouse":[799,799,799,799,799,799,799,799,799,799,799,799,799,799,799,799,799,799,799,799,799,799,799,799,799,799,799,799,799,799,799,799,799,799,799,799,799,799,799,799,799,799,799,799,799,816,834,959,987,997,1072,1128,1144,1151,1155,1156,1159,1159,1159,1159,1159,1159,1159,1159,1158,1156,1150,1149,1149,1148,1148,1169,1176,1182,1184,1193,1197,1199,1199,1199,1199,1199,1199,1199,1199,1197,1189,1175,1164,1161,1152,1137],"ymouse":[510,510,510,510,510,510,510,510,510,510,510,510,510,510,510,510,510,510,510,510,510,510,510,510,510,510,510,510,510,510,510,510,510,510,510,510,510,510,510,510,510,510,510,510,510,504,498,460,451,446,407,361,340,323,311,305,285,285,285,274,274,274,272,271,269,265,253,247,247,240,240,187,177,161,152,99,51,15,15,15,15,15,15,15,16,18,22,30,36,37,40,47],"timestamp_mouse":[13,32,52,73,92,113,132,153,172,193,212,233,252,272,293,313,332,352,372,392,412,432,452,472,492,512,532,552,572,592,612,633,653,673,693,713,733,753,772,792,812,833,853,873,892,913,932,952,972,993,1012,1032,1052,1072,1092,1113,1132,1152,1172,1193,1212,1233,1252,1272,1292,1312,1333,1352,1372,1392,1413,1433,1452,1473,1493,1513,1532,1553,1572,1592,1612,1632,1653,1673,1692,1713,1732,1753,1773,1793,1812,1833],"xSR":733.5,"ySR":443.3,"xT1":420.09999999999997,"yT1":0,"xT2":1046.8999999999999,"yT2":0,"toosoon":0,"cond_shown":"equaldotanddens","ratio_trial":900,"smaller_num":"18","larger_num":"20","correct_side":2,"subjID":"MariaAlejandraRamosJaimes12","gender":"1","age":"11","school":"6"},{"start_time":1551794879370,"click_time":1551794881246,"finger_time":1551794880707,"fix_duration":1182.6666441468035,"trial":24,"RT":1337,"MT":539,"sideResp":1,"stimulus":"img/900/randomdotsizeEA/R/15_Ratio_900_L_9_R_10.png","xmouse":[810,810,810,810,810,810,809,808,808,808,808,808,808,808,808,808,808,808,808,808,808,808,808,808,808,808,808,808,808,808,808,808,808,808,808,808,808,808,808,808,808,808,808,808,808,808,808,808,808,808,808,808,808,808,808,808,808,808,808,808,808,808,808,809,814,828,845,869,905,971,1010,1038,1052,1056,1057,1057,1057,1056,1051,1042,1034,1017,1010,934,914,903,894,871,824,781,726,658,576,437],"ymouse":[503,503,503,503,503,503,503,503,503,503,503,503,503,503,503,503,503,503,503,503,503,503,503,503,503,503,503,503,503,503,503,503,503,503,503,503,503,503,503,503,503,503,503,502,501,499,498,497,497,497,497,497,497,497,497,497,497,497,497,497,497,497,497,495,489,481,475,469,464,453,446,441,437,434,433,432,429,426,421,413,407,392,386,316,283,258,232,190,141,116,89,66,42,7],"timestamp_mouse":[18,43,57,77,96,116,137,156,177,197,217,236,257,276,297,317,336,357,377,396,416,437,457,477,496,517,537,557,577,597,618,637,656,676,696,716,736,757,777,796,817,836,856,876,896,916,937,957,977,997,1017,1036,1056,1077,1096,1116,1136,1157,1177,1196,1216,1236,1256,1276,1297,1316,1337,1356,1376,1396,1416,1437,1457,1476,1496,1516,1537,1556,1577,1597,1616,1636,1656,1677,1696,1717,1737,1756,1777,1796,1816,1836,1857,1876],"xSR":733.5,"ySR":443.3,"xT1":420.09999999999997,"yT1":0,"xT2":1046.8999999999999,"yT2":0,"toosoon":0,"cond_shown":"randomdotsizeEA","ratio_trial":900,"smaller_num":"9","larger_num":"10","correct_side":2,"subjID":"MariaAlejandraRamosJaimes12","gender":"1","age":"11","school":"6"},{"start_time":1551794888074,"click_time":1551794889607,"finger_time":1551794889086,"fix_duration":1485.1552724311464,"trial":25,"RT":1012,"MT":521,"sideResp":2,"stimulus":"img/750/equaldotsize/R/15_Ratio_750_L_9_R_12.png","xmouse":[794,794,794,794,794,794,794,794,794,794,794,794,794,794,794,794,794,794,794,794,794,794,794,794,794,794,794,794,794,794,794,794,794,794,794,794,794,794,794,794,794,794,794,794,794,794,794,794,797,809,833,861,890,908,923,946,973,1003,1015,1022,1040,1048,1049,1054,1059,1059,1060,1060,1060,1060,1061,1063,1066,1069,1081,1096,1120],"ymouse":[486,486,486,486,486,486,486,486,486,486,486,486,486,486,486,486,486,486,486,486,486,486,486,486,486,486,486,486,486,486,486,486,486,486,486,486,486,486,486,486,486,486,486,486,486,486,486,486,475,451,413,374,333,311,289,259,225,197,188,181,173,169,169,165,160,159,158,158,158,156,156,150,142,137,129,115,98],"timestamp_mouse":[13,37,53,73,93,113,132,152,172,192,212,233,252,273,293,312,332,352,374,392,412,433,453,472,492,513,532,553,573,592,612,633,653,672,692,713,732,753,773,792,813,832,852,873,892,914,933,953,973,993,1012,1033,1052,1072,1092,1112,1132,1152,1172,1192,1212,1232,1252,1273,1293,1313,1332,1353,1372,1393,1412,1432,1453,1472,1492,1513,1533],"xSR":733.5,"ySR":443.3,"xT1":420.09999999999997,"yT1":0,"xT2":1046.8999999999999,"yT2":0,"toosoon":0,"cond_shown":"equaldotsize","ratio_trial":750,"smaller_num":"9","larger_num":"12","correct_side":2,"subjID":"MariaAlejandraRamosJaimes12","gender":"1","age":"11","school":"6"},{"start_time":1551794892838,"click_time":1551794894065,"finger_time":1551794893885,"fix_duration":250,"trial":26,"RT":1047,"MT":180,"sideResp":1,"stimulus":"img/900/equaldotanddens/L/2_Ratio_900_L_20_R_18.png","xmouse":[806,806,806,806,806,806,806,806,806,806,806,806,806,806,806,806,806,806,806,806,806,806,806,806,806,806,806,805,805,804,804,804,804,804,804,804,804,804,804,804,804,804,804,804,804,804,804,804,803,802,801,793,784,778,769,753,745,719,679,638,523,469],"ymouse":[501,501,501,501,501,501,501,501,501,501,501,501,501,501,501,501,501,501,501,501,501,501,501,501,501,501,501,501,501,501,501,501,500,500,500,500,500,500,500,500,500,500,500,500,500,500,500,500,498,486,481,448,429,415,394,359,342,304,250,187,76,19],"timestamp_mouse":[10,41,48,69,89,108,128,148,168,188,209,229,247,267,289,309,329,348,368,389,408,429,448,467,488,509,529,548,569,588,609,629,649,667,688,708,728,748,769,789,808,829,847,867,888,907,929,949,969,988,1008,1029,1047,1067,1088,1108,1127,1149,1169,1188,1208,1227],"xSR":733.5,"ySR":443.3,"xT1":420.09999999999997,"yT1":0,"xT2":1046.8999999999999,"yT2":0,"toosoon":0,"cond_shown":"equaldotanddens","ratio_trial":900,"smaller_num":"18","larger_num":"20","correct_side":1,"subjID":"MariaAlejandraRamosJaimes12","gender":"1","age":"11","school":"6"},{"start_time":1551794895833,"click_time":1551794897526,"finger_time":1551794896707,"fix_duration":664.079190178616,"trial":27,"RT":874,"MT":819,"sideResp":2,"stimulus":"img/500/equaldotsize/R/2_Ratio_500_L_3_R_6.png","xmouse":[813,813,813,813,813,813,813,813,813,813,813,813,813,813,813,813,813,813,813,813,813,813,813,813,813,813,813,813,813,813,813,813,813,813,813,813,813,812,812,812,812,816,825,883,931,953,970,972,977,980,982,985,985,993,995,1007,1016,1018,1022,1023,1023,1029,1032,1042,1045,1046,1046,1046,1046,1046,1051,1058,1061,1061,1064,1066,1072,1073,1073,1080,1097,1097,1097,1097,1101],"ymouse":[506,506,506,506,506,506,506,506,506,506,506,506,506,506,506,506,506,506,506,506,506,506,506,506,506,506,506,506,506,506,506,506,506,506,506,506,506,507,507,507,505,498,492,446,408,384,357,354,345,338,335,331,330,323,321,309,289,288,277,271,271,256,247,227,218,214,214,214,214,212,201,191,187,187,181,176,158,157,157,139,105,105,105,105,96],"timestamp_mouse":[13,39,54,72,93,114,133,154,173,193,213,234,252,272,293,314,333,353,373,394,412,432,454,472,492,514,532,554,573,594,614,634,653,673,693,713,733,753,773,793,814,834,852,874,893,914,932,953,973,993,1013,1032,1052,1073,1094,1113,1134,1153,1173,1194,1213,1233,1252,1272,1293,1313,1332,1352,1373,1392,1414,1433,1453,1473,1493,1514,1533,1553,1573,1594,1614,1634,1654,1674,1692],"xSR":733.5,"ySR":443.3,"xT1":420.09999999999997,"yT1":0,"xT2":1046.8999999999999,"yT2":0,"toosoon":0,"cond_shown":"equaldotsize","ratio_trial":500,"smaller_num":"3","larger_num":"6","correct_side":2,"subjID":"MariaAlejandraRamosJaimes12","gender":"1","age":"11","school":"6"},{"start_time":1551794899241,"click_time":1551794900906,"finger_time":1551794900046,"fix_duration":433.3486240901752,"trial":28,"RT":805,"MT":860,"sideResp":2,"stimulus":"img/500/equaldotanddens/R/2_Ratio_500_L_3_R_6.png","xmouse":[760,760,760,760,760,760,760,760,760,760,760,760,760,760,760,761,761,761,761,761,761,761,761,761,761,761,761,761,761,761,761,761,761,761,761,761,761,764,771,800,934,1003,1063,1110,1117,1172,1194,1217,1226,1244,1264,1264,1264,1265,1265,1264,1263,1261,1251,1242,1203,1202,1202,1195,1195,1189,1189,1189,1182,1181,1185,1195,1196,1199,1205,1207,1207,1207,1207,1202,1173,1168,1157,1145],"ymouse":[514,514,514,514,514,514,514,514,514,514,514,514,514,515,516,517,517,517,517,517,517,517,517,517,517,517,517,517,517,517,517,517,517,517,517,517,517,517,517,513,478,454,426,407,403,363,345,325,314,287,264,264,264,262,262,257,256,255,250,245,229,229,229,225,225,218,218,218,197,167,130,67,64,40,16,8,8,8,8,8,11,12,15,19],"timestamp_mouse":[9,39,44,64,85,106,124,144,165,186,206,226,245,265,285,306,326,345,365,386,404,425,445,464,485,505,524,545,564,586,605,626,645,665,685,705,725,745,764,786,805,824,844,865,885,905,925,945,965,986,1005,1024,1045,1064,1085,1106,1126,1145,1164,1185,1205,1225,1245,1265,1285,1305,1325,1344,1365,1385,1405,1424,1445,1465,1485,1505,1525,1545,1565,1586,1605,1625,1645,1665],"xSR":733.5,"ySR":443.3,"xT1":420.09999999999997,"yT1":0,"xT2":1046.8999999999999,"yT2":0,"toosoon":0,"cond_shown":"equaldotanddens","ratio_trial":500,"smaller_num":"3","larger_num":"6","correct_side":2,"subjID":"MariaAlejandraRamosJaimes12","gender":"1","age":"11","school":"6"},{"start_time":1551794903998,"click_time":1551794906287,"finger_time":1551794905646,"fix_duration":250,"trial":29,"RT":1648,"MT":641,"sideResp":1,"stimulus":"img/900/equaldotsize/R/9_Ratio_900_L_18_R_20.png","xmouse":[770,770,770,770,770,770,770,770,770,770,770,770,770,770,770,770,770,770,771,773,773,773,773,773,773,773,773,773,773,773,773,773,773,773,773,773,773,773,773,773,775,775,776,776,776,776,776,776,777,778,779,779,779,780,780,780,781,782,782,782,782,782,782,782,782,782,782,783,783,784,784,785,788,790,790,790,790,790,790,787,780,767,731,707,685,666,648,626,619,616,609,594,576,576,576,576,576,576,576,576,576,576,576,576,365,362,362,362,366,369,375,383,402,413,426],"ymouse":[527,527,527,527,527,527,527,527,527,527,527,527,527,527,527,527,527,527,527,526,526,526,526,526,526,526,526,526,526,526,526,526,526,526,526,526,526,526,526,526,525,524,522,522,522,522,522,522,522,521,519,519,518,518,517,517,515,515,515,515,515,515,515,514,514,514,513,512,512,511,510,510,503,501,499,498,498,498,497,490,478,459,409,376,341,300,242,156,114,84,58,29,0,0,0,0,0,0,0,0,0,0,0,0,9,30,47,60,74,76,78,79,82,84,86],"timestamp_mouse":[8,36,48,67,88,108,128,148,168,187,207,228,248,269,289,308,327,348,368,388,408,428,448,467,488,507,528,548,568,587,607,628,649,667,688,709,728,747,769,788,808,827,849,869,888,907,928,948,968,988,1009,1027,1047,1069,1088,1107,1129,1148,1168,1188,1208,1229,1248,1267,1289,1307,1328,1349,1369,1388,1409,1429,1448,1468,1488,1508,1528,1547,1568,1587,1608,1628,1648,1668,1688,1708,1728,1748,1768,1788,1808,1828,1849,1869,1889,1909,1928,1948,1968,1988,2008,2028,2048,2068,2088,2107,2129,2148,2169,2187,2208,2228,2248,2267,2289],"xSR":733.5,"ySR":443.3,"xT1":420.09999999999997,"yT1":0,"xT2":1046.8999999999999,"yT2":0,"toosoon":0,"cond_shown":"equaldotsize","ratio_trial":900,"smaller_num":"18","larger_num":"20","correct_side":2,"subjID":"MariaAlejandraRamosJaimes12","gender":"1","age":"11","school":"6"},{"start_time":1551794908440,"click_time":1551794909806,"finger_time":1551794908926,"fix_duration":432.31108437847246,"trial":30,"RT":486,"MT":880,"sideResp":1,"stimulus":"img/500/equaldotsize/L/10_Ratio_500_L_4_R_2.png","xmouse":[827,827,827,827,827,827,827,827,827,827,827,827,827,827,827,827,827,827,827,827,827,827,827,827,834,847,852,855,856,857,857,857,857,857,857,857,857,857,857,857,857,857,857,857,857,857,857,857,857,855,830,822,808,790,781,758,748,740,730,717,688,667,630,607,583,542,531,522,516],"ymouse":[528,528,528,528,528,528,528,528,528,528,528,528,528,528,528,528,528,528,529,529,529,529,529,528,523,515,511,509,508,507,507,507,507,507,507,507,507,507,507,507,507,507,507,507,507,507,507,507,506,501,454,427,390,339,315,276,259,244,229,212,189,175,155,140,128,99,86,70,57],"timestamp_mouse":[8,40,47,67,86,106,127,145,167,187,207,227,246,266,287,307,326,347,366,386,405,426,446,465,486,506,526,545,567,586,606,626,647,666,686,707,727,746,767,786,806,826,846,866,885,907,927,947,966,987,1006,1027,1046,1065,1086,1106,1126,1146,1166,1186,1206,1225,1246,1266,1286,1306,1327,1346,1366],"xSR":733.5,"ySR":443.3,"xT1":420.09999999999997,"yT1":0,"xT2":1046.8999999999999,"yT2":0,"toosoon":0,"cond_shown":"equaldotsize","ratio_trial":500,"smaller_num":"2","larger_num":"4","correct_side":1,"subjID":"MariaAlejandraRamosJaimes12","gender":"1","age":"11","school":"6"},{"start_time":1551794914298,"click_time":1551794915746,"finger_time":1551794915107,"fix_duration":950.8545776251525,"trial":31,"RT":809,"MT":639,"sideResp":1,"stimulus":"img/250/equaldotsize/L/2_Ratio_250_L_16_R_4.png","xmouse":[770,770,770,770,770,770,770,770,770,770,770,770,770,770,770,770,770,770,770,770,770,770,770,770,770,770,770,770,770,770,770,770,770,770,770,770,770,770,770,770,774,774,774,769,764,762,758,756,750,739,735,709,611,545,475,397,304,304,304,304,304,304,304,304,304,304,304,304,304,304,304,304,456],"ymouse":[462,462,462,462,462,462,462,462,462,462,462,462,462,462,462,462,462,462,462,462,462,462,462,462,462,462,462,462,462,462,462,462,462,462,462,462,462,462,462,447,421,402,393,366,352,342,334,328,313,294,289,259,185,147,105,58,9,9,9,9,9,9,9,9,9,9,9,9,9,9,9,9,35],"timestamp_mouse":[12,40,49,69,89,109,129,148,169,188,209,229,249,267,289,309,329,348,368,387,409,427,447,469,489,509,527,548,568,588,609,628,647,669,687,709,729,749,769,789,809,829,847,868,888,908,929,947,968,988,1009,1028,1048,1067,1088,1107,1128,1149,1169,1189,1208,1229,1249,1267,1288,1307,1328,1348,1369,1389,1409,1428,1448],"xSR":733.5,"ySR":443.3,"xT1":420.09999999999997,"yT1":0,"xT2":1046.8999999999999,"yT2":0,"toosoon":0,"cond_shown":"equaldotsize","ratio_trial":250,"smaller_num":"4","larger_num":"16","correct_side":1,"subjID":"MariaAlejandraRamosJaimes12","gender":"1","age":"11","school":"6"},{"start_time":1551794917598,"click_time":1551794922046,"finger_time":1551794921506,"fix_duration":250,"trial":32,"RT":3908,"MT":540,"sideResp":1,"stimulus":"img/750/randomdotsizeEA/R/3_Ratio_750_L_15_R_20.png","xmouse":[769,769,769,769,769,769,769,769,769,769,769,769,769,769,769,769,769,769,769,769,769,769,769,769,769,769,769,769,769,769,769,769,769,769,769,769,769,769,769,769,769,769,769,769,769,769,769,769,769,769,769,769,769,769,769,769,769,769,769,769,769,769,769,769,769,769,769,769,769,769,769,769,769,769,769,769,769,769,769,769,769,769,769,769,769,769,769,769,769,769,769,769,769,769,769,769,769,769,769,769,769,769,769,769,769,769,769,769,769,769,769,769,769,769,769,769,769,769,769,769,769,769,769,769,769,769,769,769,769,769,769,769,769,769,769,769,769,769,769,769,769,769,769,769,769,769,769,769,769,769,769,769,769,769,769,769,769,769,769,769,769,769,769,769,769,769,769,769,769,769,769,769,769,769,769,769,769,769,769,769,769,769,769,769,769,769,769,769,769,769,769,769,767,761,756,749,743,738,732,729,727,726,723,722,722,722,722,722,722,720,713,708,706,699,693,680,668,657,643,616,582,558,500],"ymouse":[494,494,494,494,494,494,494,494,494,494,494,494,494,494,494,494,494,494,494,494,494,494,494,494,494,494,494,494,494,494,494,494,494,494,494,494,494,494,494,494,494,494,494,494,494,494,494,494,494,494,494,494,494,494,494,494,494,494,494,494,494,494,494,494,494,494,494,494,494,494,494,494,494,494,494,494,494,494,494,494,494,494,494,494,494,494,494,494,494,494,494,494,494,494,494,494,494,494,494,494,494,494,494,494,494,494,494,494,494,494,494,494,494,494,494,494,494,494,494,494,494,494,494,494,494,494,494,494,494,494,494,494,494,494,494,494,494,494,494,494,494,494,494,494,494,494,494,494,494,494,494,494,494,494,494,494,494,494,494,494,494,494,494,494,494,494,494,494,494,494,494,494,494,494,494,494,494,494,494,494,494,494,494,494,494,494,494,494,494,494,494,494,490,468,447,426,404,391,367,358,351,342,321,311,310,297,273,261,261,256,248,243,241,233,226,210,196,178,162,142,118,104,61],"timestamp_mouse":[8,38,48,69,89,108,127,149,167,187,208,227,248,269,287,308,328,347,369,387,408,427,447,469,488,508,527,548,568,589,607,628,648,668,688,707,729,748,769,788,808,828,847,869,887,908,929,947,969,989,1008,1028,1049,1069,1088,1107,1129,1148,1168,1188,1208,1228,1249,1269,1287,1308,1329,1347,1369,1388,1407,1428,1448,1469,1488,1507,1527,1548,1568,1589,1607,1628,1648,1668,1688,1708,1728,1747,1768,1787,1808,1827,1848,1869,1887,1907,1928,1949,1969,1988,2008,2028,2049,2068,2088,2109,2129,2148,2168,2189,2208,2227,2248,2269,2288,2308,2329,2348,2369,2389,2408,2429,2449,2469,2488,2509,2528,2549,2567,2588,2608,2629,2648,2669,2689,2708,2728,2749,2769,2788,2809,2829,2849,2867,2889,2909,2929,2949,2969,2987,3007,3028,3049,3068,3089,3108,3128,3147,3169,3189,3208,3227,3248,3269,3288,3309,3329,3348,3368,3388,3408,3429,3447,3468,3488,3508,3528,3549,3569,3587,3608,3628,3647,3669,3688,3708,3729,3748,3769,3788,3808,3828,3848,3869,3887,3908,3928,3947,3968,3989,4008,4029,4049,4067,4088,4107,4127,4148,4167,4188,4209,4228,4248,4267,4287,4308,4328,4347,4369,4388,4408,4428,4448],"xSR":733.5,"ySR":443.3,"xT1":420.09999999999997,"yT1":0,"xT2":1046.8999999999999,"yT2":0,"toosoon":0,"cond_shown":"randomdotsizeEA","ratio_trial":750,"smaller_num":"15","larger_num":"20","correct_side":2,"subjID":"MariaAlejandraRamosJaimes12","gender":"1","age":"11","school":"6"},{"start_time":1551794924980,"click_time":1551794925965,"finger_time":1551794925827,"fix_duration":250,"trial":33,"RT":847,"MT":138,"sideResp":1,"stimulus":"img/500/equaldotanddens/L/13_Ratio_500_L_12_R_6.png","xmouse":[798,798,798,798,798,798,798,798,798,798,798,798,798,798,798,798,798,798,798,798,798,798,798,798,798,798,798,798,798,798,798,798,798,798,798,798,798,798,794,785,773,753,731,678,656,634,613,572,481,435],"ymouse":[539,539,539,539,539,539,539,539,539,539,539,539,539,539,539,539,539,539,539,539,539,539,539,539,539,539,539,539,539,539,539,539,538,537,536,536,534,532,520,506,485,457,430,360,327,294,264,204,106,63],"timestamp_mouse":[9,29,46,66,85,107,126,146,166,187,207,226,247,265,285,306,327,345,367,386,407,426,446,466,487,505,525,546,566,586,607,626,646,666,686,707,726,746,766,787,805,827,847,867,885,907,926,945,967,985],"xSR":733.5,"ySR":443.3,"xT1":420.09999999999997,"yT1":0,"xT2":1046.8999999999999,"yT2":0,"toosoon":0,"cond_shown":"equaldotanddens","ratio_trial":500,"smaller_num":"6","larger_num":"12","correct_side":1,"subjID":"MariaAlejandraRamosJaimes12","gender":"1","age":"11","school":"6"},{"start_time":1551794929623,"click_time":1551794932446,"finger_time":1551794930526,"fix_duration":875.4549888957564,"trial":34,"RT":903,"MT":1920,"sideResp":2,"stimulus":"img/250/equaldotsize/R/8_Ratio_250_L_1_R_4.png","xmouse":[822,822,822,822,822,822,822,821,821,820,820,820,820,820,820,820,820,820,820,820,820,820,820,820,820,820,820,820,820,820,820,820,820,820,820,820,820,820,820,820,820,820,820,820,828,861,991,1079,1102,1105,1114,1134,1138,1140,1140,1140,1140,1140,1140,1140,1140,1140,1143,1144,1155,1156,1156,1163,1172,1173,1179,1181,1181,1181,1181,1181,1181,1181,1178,1170,1170,1170,1170,1170,1170,1170,1170,1170,1170,1168,1168,1168,1166,1166,1166,1166,1166,1166,1166,1166,1166,1166,1166,1166,1166,1166,1166,1166,1166,1166,1166,1166,1166,1166,1166,1166,1159,1159,1159,1159,1159,1159,1159,1159,1159,1159,1159,1159,1158,1158,1158,1158,1158,1158,1158,1155,1153,1153,1149,1137,1123,1112],"ymouse":[489,489,489,489,489,489,485,483,482,480,479,479,479,479,479,479,479,479,479,479,479,479,479,479,479,479,479,479,479,479,479,479,479,479,479,479,479,479,479,479,479,479,479,479,475,463,424,405,402,402,398,377,367,355,344,335,335,328,328,328,328,328,319,317,298,295,295,270,243,238,204,187,182,170,168,168,168,168,164,163,162,162,162,162,162,162,162,162,162,161,161,161,159,159,159,159,159,159,159,159,159,159,159,159,159,159,159,159,159,159,159,159,159,159,159,159,157,157,157,157,157,157,157,157,157,157,157,156,155,155,155,155,155,155,155,152,150,150,145,130,114,98],"timestamp_mouse":[7,39,44,63,82,104,123,143,162,183,203,223,244,262,284,303,323,343,363,383,403,423,443,463,483,503,523,543,563,583,603,624,643,664,684,703,723,743,763,783,803,824,844,862,883,903,923,942,964,983,1002,1024,1042,1063,1083,1103,1122,1142,1164,1184,1204,1224,1244,1262,1282,1303,1324,1344,1363,1383,1403,1423,1443,1464,1483,1502,1524,1543,1564,1583,1604,1623,1643,1663,1683,1703,1723,1743,1763,1782,1803,1823,1844,1863,1884,1902,1922,1942,1963,1983,2004,2024,2043,2063,2083,2102,2124,2143,2164,2184,2202,2222,2243,2263,2283,2302,2323,2343,2362,2383,2404,2424,2444,2463,2484,2502,2524,2543,2563,2583,2602,2624,2644,2663,2683,2703,2724,2743,2763,2783,2802,2823],"xSR":733.5,"ySR":443.3,"xT1":420.09999999999997,"yT1":0,"xT2":1046.8999999999999,"yT2":0,"toosoon":0,"cond_shown":"equaldotsize","ratio_trial":250,"smaller_num":"1","larger_num":"4","correct_side":2,"subjID":"MariaAlejandraRamosJaimes12","gender":"1","age":"11","school":"6"},{"start_time":1551794936127,"click_time":1551794938366,"finger_time":1551794937967,"fix_duration":779.5452394091762,"trial":35,"RT":1840,"MT":399,"sideResp":1,"stimulus":"img/750/randomdotsizeEA/R/12_Ratio_750_L_3_R_4.png","xmouse":[787,787,787,787,787,787,787,787,787,787,787,787,787,787,787,787,787,787,787,787,787,787,787,787,787,787,787,787,787,787,787,787,787,787,787,787,787,787,787,787,787,787,787,787,787,787,787,787,787,787,787,787,787,787,787,787,787,787,787,787,787,787,787,787,787,787,787,787,787,787,787,787,787,787,787,787,787,787,787,787,787,787,787,787,787,787,787,787,786,786,778,773,769,761,751,725,704,682,662,643,625,620,617,614,613,610,610,610,608,594,561,455],"ymouse":[510,510,510,510,510,510,510,510,510,510,510,510,510,510,510,510,510,510,510,510,510,510,510,510,510,510,510,510,510,510,510,510,510,510,510,510,510,510,510,510,510,510,510,510,510,510,510,510,510,510,510,510,510,510,510,510,510,510,510,510,510,510,510,510,510,510,510,510,510,510,510,510,510,510,510,510,510,510,510,510,510,510,510,510,510,510,510,510,509,504,465,440,418,391,366,296,247,198,147,105,63,52,50,47,46,44,44,44,44,44,44,44],"timestamp_mouse":[19,39,59,80,100,119,140,159,178,199,219,239,259,279,299,319,339,359,380,399,419,440,460,480,499,519,538,560,579,600,620,640,660,679,700,720,739,759,779,800,819,840,858,878,899,919,938,958,979,998,1019,1039,1058,1079,1098,1120,1138,1160,1179,1198,1220,1240,1259,1280,1299,1320,1339,1360,1378,1399,1420,1438,1459,1479,1500,1520,1539,1560,1579,1599,1619,1640,1659,1679,1699,1719,1740,1759,1779,1799,1819,1840,1859,1878,1898,1920,1939,1959,1978,1998,2020,2038,2059,2079,2099,2119,2138,2158,2179,2199,2218,2239],"xSR":733.5,"ySR":443.3,"xT1":420.09999999999997,"yT1":0,"xT2":1046.8999999999999,"yT2":0,"toosoon":0,"cond_shown":"randomdotsizeEA","ratio_trial":750,"smaller_num":"3","larger_num":"4","correct_side":2,"subjID":"MariaAlejandraRamosJaimes12","gender":"1","age":"11","school":"6"},{"start_time":1551794940411,"click_time":1551794941426,"finger_time":1551794941225,"fix_duration":1083.0062361789799,"trial":36,"RT":814,"MT":201,"sideResp":1,"stimulus":"img/900/equaldotsize/L/4_Ratio_900_L_20_R_18.png","xmouse":[754,754,754,754,754,754,754,754,754,754,754,754,754,754,754,754,754,754,754,754,754,754,754,754,754,754,754,754,754,754,754,754,754,754,754,754,754,753,752,748,742,730,728,719,683,655,633,559,519,471,423],"ymouse":[467,467,467,467,467,467,467,467,467,467,467,467,467,467,467,467,467,467,467,467,467,467,467,467,467,467,467,467,467,467,467,467,467,467,467,467,467,459,457,447,427,382,379,355,305,275,254,188,156,127,98],"timestamp_mouse":[14,35,54,75,95,116,135,155,175,195,215,235,255,274,295,315,335,355,375,395,415,435,456,474,494,515,535,555,574,594,615,635,654,675,695,715,734,754,775,796,814,836,855,875,894,914,943,955,975,994,1015],"xSR":733.5,"ySR":443.3,"xT1":420.09999999999997,"yT1":0,"xT2":1046.8999999999999,"yT2":0,"toosoon":0,"cond_shown":"equaldotsize","ratio_trial":900,"smaller_num":"18","larger_num":"20","correct_side":1,"subjID":"MariaAlejandraRamosJaimes12","gender":"1","age":"11","school":"6"},{"start_time":1551794944200,"click_time":1551794945027,"finger_time":1551794944925,"fix_duration":1413.7909053286855,"trial":37,"RT":725,"MT":102,"sideResp":1,"stimulus":"img/250/equaldotanddens/L/2_Ratio_250_L_16_R_4.png","xmouse":[767,767,767,767,767,767,767,767,767,767,767,767,767,767,767,767,767,767,767,767,767,767,767,765,759,756,750,743,743,743,743,743,743,743,743,740,728,704,642,630,569,517],"ymouse":[504,504,504,504,504,504,504,504,504,504,504,504,504,504,504,504,504,504,504,504,504,504,504,501,496,495,492,489,489,489,489,489,489,489,489,484,461,390,252,222,135,69],"timestamp_mouse":[10,30,47,67,85,107,126,146,167,185,206,226,246,267,285,307,326,346,366,387,406,426,446,465,486,506,526,547,566,586,607,627,646,667,685,706,725,746,767,786,806,827],"xSR":733.5,"ySR":443.3,"xT1":420.09999999999997,"yT1":0,"xT2":1046.8999999999999,"yT2":0,"toosoon":0,"cond_shown":"equaldotanddens","ratio_trial":250,"smaller_num":"4","larger_num":"16","correct_side":1,"subjID":"MariaAlejandraRamosJaimes12","gender":"1","age":"11","school":"6"},{"start_time":1551794947200,"click_time":1551794948985,"finger_time":1551794948146,"fix_duration":472.0312532098444,"trial":38,"RT":946,"MT":839,"sideResp":1,"stimulus":"img/900/equaldotsize/R/13_Ratio_900_L_18_R_20.png","xmouse":[762,762,762,762,762,762,762,762,762,762,762,762,762,762,762,762,762,762,762,762,762,762,762,762,762,762,762,762,762,762,762,764,765,766,767,767,767,767,767,764,764,757,757,757,757,757,757,753,751,751,751,751,751,672,581,545,544,544,544,545,546,548,549,551,553,554,556,556,556,555,553,550,549,549,549,546,542,540,535,535,532,532,526,523,519,516,514,511,509,507],"ymouse":[474,474,474,474,474,474,474,474,474,474,474,474,474,474,474,474,474,474,474,474,474,474,474,474,474,474,474,474,474,474,473,472,470,470,469,469,469,469,467,462,462,451,450,450,450,450,450,439,433,433,433,433,433,391,350,329,324,323,321,320,318,313,305,288,278,272,259,246,234,232,222,218,216,216,216,215,212,211,206,206,203,200,180,169,157,143,134,113,101,87],"timestamp_mouse":[9,35,47,66,87,106,127,147,165,186,207,227,246,267,286,306,325,346,365,386,407,426,446,466,487,506,527,547,566,587,606,627,647,667,686,706,727,746,767,786,806,826,847,866,886,906,926,946,965,986,1006,1026,1046,1065,1086,1105,1126,1147,1166,1186,1205,1225,1247,1267,1287,1306,1327,1346,1365,1386,1406,1425,1446,1466,1486,1507,1526,1545,1565,1586,1606,1626,1646,1665,1687,1705,1727,1746,1765,1785],"xSR":733.5,"ySR":443.3,"xT1":420.09999999999997,"yT1":0,"xT2":1046.8999999999999,"yT2":0,"toosoon":0,"cond_shown":"equaldotsize","ratio_trial":900,"smaller_num":"18","larger_num":"20","correct_side":2,"subjID":"MariaAlejandraRamosJaimes12","gender":"1","age":"11","school":"6"},{"start_time":1551794951281,"click_time":1551794953967,"finger_time":1551794952346,"fix_duration":1094.9070642980496,"trial":39,"RT":1065,"MT":1621,"sideResp":2,"stimulus":"img/250/randomdotsizeEA/R/13_Ratio_250_L_2_R_8.png","xmouse":[753,753,753,753,753,753,753,753,753,753,753,753,753,753,753,753,753,753,753,753,754,755,755,759,762,762,764,764,764,764,764,764,764,764,764,764,764,764,764,764,764,764,764,765,765,767,773,783,785,798,799,801,804,820,820,820,820,820,820,818,820,825,841,876,876,880,886,887,890,893,893,894,894,905,906,906,906,909,909,909,913,913,918,918,922,925,925,936,941,992,1014,1014,1014,1022,1030,1030,1030,1030,1030,1030,1031,1032,1034,1035,1036,1036,1036,1036,1036,1036,1036,1036,1036,1036,1036,1039,1040,1043,1047,1051,1053,1053,1053,1053,1053,1054,1055,1056,1056,1056,1056,1056,1057,1060,1066],"ymouse":[486,486,486,486,486,486,486,486,486,486,486,486,486,486,486,486,486,486,486,486,486,486,486,486,486,486,486,486,486,486,486,486,486,486,486,486,486,486,486,486,486,486,486,486,486,485,483,480,479,472,471,469,462,393,393,393,391,379,379,345,321,315,294,255,255,251,247,246,246,245,244,244,244,238,237,237,237,233,233,232,229,229,220,220,215,211,211,202,197,165,151,151,151,147,144,144,144,144,144,144,144,142,140,140,139,139,139,139,139,139,139,139,139,139,139,135,133,130,125,117,114,114,114,114,113,111,110,109,109,109,109,109,108,103,95],"timestamp_mouse":[9,26,46,66,86,105,125,146,165,186,206,226,246,264,285,305,325,346,365,385,405,425,445,465,485,505,525,546,564,585,605,624,646,665,686,705,726,746,765,785,806,826,846,865,885,904,924,945,965,986,1004,1024,1046,1065,1085,1104,1125,1146,1166,1186,1205,1225,1245,1265,1285,1304,1325,1345,1365,1384,1404,1425,1444,1465,1486,1505,1525,1544,1566,1586,1605,1625,1644,1665,1686,1705,1725,1746,1765,1784,1805,1825,1845,1866,1884,1906,1925,1944,1965,1986,2005,2026,2045,2065,2085,2105,2125,2146,2165,2186,2206,2225,2245,2265,2285,2305,2325,2344,2365,2386,2406,2425,2445,2464,2486,2505,2525,2545,2566,2585,2606,2625,2646,2665,2686],"xSR":733.5,"ySR":443.3,"xT1":420.09999999999997,"yT1":0,"xT2":1046.8999999999999,"yT2":0,"toosoon":0,"cond_shown":"randomdotsizeEA","ratio_trial":250,"smaller_num":"2","larger_num":"8","correct_side":2,"subjID":"MariaAlejandraRamosJaimes12","gender":"1","age":"11","school":"6"},{"start_time":1551794957101,"click_time":1551794959347,"finger_time":1551794958446,"fix_duration":734.3129404496589,"trial":40,"RT":1345,"MT":901,"sideResp":1,"stimulus":"img/900/randomdotsizeEA/R/11_Ratio_900_L_18_R_20.png","xmouse":[796,796,796,796,796,796,796,796,796,796,796,796,796,796,796,796,796,796,796,796,796,796,796,796,796,796,796,796,796,796,796,796,796,796,796,796,796,796,796,796,796,796,796,796,796,796,796,796,796,796,796,796,796,796,796,796,796,796,796,796,796,795,780,776,767,767,743,712,691,691,683,670,653,651,650,649,649,649,649,649,649,649,634,630,617,603,590,576,575,561,540,538,516,504,500,491,471,454,433,410,396,389,388,390,393,395,395,396,398,401,406,413,423],"ymouse":[528,528,528,528,528,528,528,528,528,528,528,528,528,528,528,528,528,528,528,528,528,528,528,528,528,528,528,528,528,528,528,528,528,528,528,528,528,528,528,528,528,528,528,528,528,528,528,528,528,528,528,528,528,528,528,528,528,528,528,528,528,528,520,517,513,513,502,488,473,473,464,448,422,417,409,407,406,394,394,381,373,358,321,315,300,286,275,263,262,249,231,229,206,195,191,181,158,133,103,76,60,47,28,23,20,19,19,19,19,18,18,18,21],"timestamp_mouse":[9,24,51,65,86,105,125,145,166,184,205,225,245,265,285,305,325,345,366,385,405,425,445,465,486,506,525,546,565,586,605,625,646,664,686,705,726,745,766,786,805,826,845,865,886,905,925,945,964,986,1006,1025,1045,1066,1084,1106,1125,1145,1165,1186,1205,1226,1246,1265,1285,1305,1326,1345,1365,1384,1404,1425,1445,1465,1485,1506,1524,1546,1565,1585,1606,1625,1646,1666,1685,1705,1726,1745,1764,1785,1806,1825,1845,1864,1885,1906,1925,1946,1966,1986,2006,2025,2045,2065,2086,2105,2125,2145,2165,2185,2206,2225,2246],"xSR":733.5,"ySR":443.3,"xT1":420.09999999999997,"yT1":0,"xT2":1046.8999999999999,"yT2":0,"toosoon":0,"cond_shown":"randomdotsizeEA","ratio_trial":900,"smaller_num":"18","larger_num":"20","correct_side":2,"subjID":"MariaAlejandraRamosJaimes12","gender":"1","age":"11","school":"6"},{"start_time":1551794960888,"click_time":1551794962587,"finger_time":1551794961746,"fix_duration":561.9437992409574,"trial":41,"RT":858,"MT":841,"sideResp":1,"stimulus":"img/750/equaldotsize/L/1_Ratio_750_L_20_R_15.png","xmouse":[799,799,799,799,799,799,799,799,799,799,799,799,799,799,799,799,799,799,799,799,799,799,799,799,799,799,799,799,799,799,799,799,799,799,799,799,799,799,804,806,813,826,835,872,881,884,884,884,884,884,885,885,886,887,887,887,887,887,887,887,880,872,872,868,868,850,802,748,677,621,570,554,533,485,473,469,468,468,468,468,469,472,478,480,482],"ymouse":[472,472,472,472,472,472,472,472,472,472,472,472,472,472,472,472,472,472,472,472,472,472,472,472,472,472,472,472,472,472,472,472,472,472,472,472,472,471,468,468,462,453,446,417,404,398,398,398,398,397,394,392,388,387,387,387,387,387,387,387,386,384,384,384,384,376,357,333,298,266,234,221,202,159,145,137,136,136,135,135,128,118,106,101,96],"timestamp_mouse":[18,40,57,78,99,119,139,159,179,199,219,239,259,278,299,319,339,359,379,398,418,438,458,479,499,519,538,559,579,598,618,638,658,679,697,718,739,759,779,798,818,838,858,879,898,918,938,959,979,998,1018,1039,1059,1077,1098,1118,1139,1159,1179,1200,1219,1239,1259,1279,1298,1318,1339,1359,1377,1398,1418,1438,1459,1478,1498,1519,1538,1558,1579,1598,1618,1639,1658,1678,1699],"xSR":733.5,"ySR":443.3,"xT1":420.09999999999997,"yT1":0,"xT2":1046.8999999999999,"yT2":0,"toosoon":0,"cond_shown":"equaldotsize","ratio_trial":750,"smaller_num":"15","larger_num":"20","correct_side":1,"subjID":"MariaAlejandraRamosJaimes12","gender":"1","age":"11","school":"6"},{"start_time":1551794973299,"click_time":1551794975546,"finger_time":1551794974726,"fix_duration":632.1802423041783,"trial":42,"RT":1427,"MT":820,"sideResp":1,"stimulus":"img/750/equaldotanddens/L/1_Ratio_750_L_20_R_15.png","xmouse":[773,773,773,773,773,773,773,773,773,773,773,773,773,773,773,773,773,773,773,773,773,773,773,773,773,773,773,773,773,773,773,773,773,773,773,773,773,773,773,773,773,773,773,773,773,773,773,773,773,773,773,773,773,773,773,773,773,773,773,773,773,773,773,773,773,773,773,773,762,751,747,728,720,709,709,706,701,694,694,692,688,685,677,676,674,674,671,668,660,655,647,625,593,580,564,547,528,492,475,457,428,407,377,368,361,356,355,358,391,395,418,433,450],"ymouse":[516,516,516,516,516,516,516,516,516,516,516,516,516,516,516,516,516,516,516,516,516,516,516,516,516,516,516,516,516,516,516,516,516,516,516,516,516,516,516,516,516,516,516,516,516,516,516,516,516,516,516,516,516,516,516,516,516,516,516,516,516,516,516,516,516,516,516,514,507,501,498,491,487,478,477,473,465,449,443,434,426,418,406,401,396,391,387,382,377,373,371,366,355,349,341,331,322,300,287,276,259,242,213,199,187,178,170,161,141,140,124,113,94],"timestamp_mouse":[8,36,47,66,87,107,126,147,168,188,206,228,248,267,287,307,327,347,367,388,407,427,446,466,487,506,527,548,567,588,607,627,648,667,688,707,728,748,768,788,807,827,848,867,887,906,927,947,968,987,1007,1027,1046,1068,1088,1108,1127,1147,1168,1187,1208,1228,1247,1268,1288,1307,1327,1348,1367,1388,1407,1427,1448,1468,1487,1508,1526,1547,1567,1586,1608,1628,1648,1668,1686,1706,1727,1748,1767,1787,1807,1828,1848,1868,1888,1907,1927,1947,1967,1987,2007,2027,2047,2067,2088,2107,2127,2148,2167,2187,2207,2227,2247],"xSR":733.5,"ySR":443.3,"xT1":420.09999999999997,"yT1":0,"xT2":1046.8999999999999,"yT2":0,"toosoon":0,"cond_shown":"equaldotanddens","ratio_trial":750,"smaller_num":"15","larger_num":"20","correct_side":1,"subjID":"MariaAlejandraRamosJaimes12","gender":"1","age":"11","school":"6"},{"start_time":1551794985192,"click_time":1551794986367,"finger_time":1551794985926,"fix_duration":1163.588870144495,"trial":43,"RT":734,"MT":441,"sideResp":1,"stimulus":"img/750/equaldotanddens/L/8