[{"start_time":1551793952082,"click_time":1551793954498,"finger_time":1551793952115,"fix_duration":1421.121723335243,"trial":0,"RT":33,"MT":2383,"sideResp":2,"stimulus":[],"xmouse":[729,729,729,728,726,726,726,725,725,725,725,725,724,718,713,708,707,705,704,704,704,704,704,704,706,710,714,719,730,736,742,747,750,757,759,760,760,760,761,761,763,764,765,765,765,765,765,765,765,765,765,765,765,765,765,765,765,765,765,765,765,765,765,765,765,765,765,765,765,765,765,765,765,765,765,765,765,765,765,765,765,765,765,765,765,765,765,765,765,765,765,765,765,765,765,765,765,765,765,765,765,765,765,760,760,778,789,794,874,906,916,936,955,1004,1018,1026,1035,1036,1040,1040,1047],"ymouse":[477,477,475,476,476,476,476,477,477,477,477,477,478,485,489,492,497,500,502,504,504,504,504,504,504,505,505,505,505,505,505,505,505,505,504,503,503,503,503,503,503,503,503,503,503,503,503,503,503,503,503,503,503,503,503,503,503,503,503,503,503,503,503,503,503,503,503,503,503,503,503,503,503,503,503,503,503,503,503,503,503,503,503,503,503,503,503,503,503,503,503,503,503,503,503,503,503,503,503,503,503,503,503,490,487,473,469,468,439,420,413,384,352,226,179,153,121,116,89,89,78],"timestamp_mouse":[33,36,56,75,95,116,135,155,176,195,216,235,256,275,295,316,335,356,374,395,416,436,456,475,495,515,536,554,575,596,615,636,655,676,696,716,736,754,775,795,816,835,856,876,894,915,936,956,976,996,1015,1036,1055,1074,1095,1116,1135,1155,1175,1196,1214,1236,1254,1275,1295,1315,1336,1355,1375,1396,1416,1436,1456,1475,1495,1516,1534,1556,1575,1595,1615,1636,1655,1675,1695,1715,1736,1756,1774,1796,1815,1836,1855,1876,1896,1915,1936,1955,1975,1995,2015,2035,2055,2075,2096,2115,2135,2155,2175,2196,2215,2234,2255,2275,2295,2316,2335,2355,2375,2395,2416],"xSR":733.5,"ySR":443.3,"xT1":420.09999999999997,"yT1":0,"xT2":1046.8999999999999,"yT2":0,"toosoon":0,"cond_shown":"Incongruent","ratio_trial":200,"L_num":7,"L_den":10,"R_num":12,"R_den":24,"correct_side":1,"subjID":"MariaAlejandraRamosJaimes12","gender":"1","age":"11","school":"6","test":{"fix_dur":[250,1500],"timestim":1000,"targets_dim":[100,100],"targets_relative_coord":[0.3,0.7],"size_stim":[880,420],"start_dim":[100,100],"size_start":[300,300],"size_fix":60,"samplingrate":20,"img_types":["Congruent","Incongruent"],"ratios":[100,200,300],"rep_conds":19,"nTrials":120,"trials_to_rest":500,"Trials_order":[81,63,49,91,42,85,46,69,8,22,88,39,10,61,9,5,98,119,50,6,100,11,112,45,96,57,34,64,77,12,44,47,67,102,116,3,106,82,43,62,13,0,52,40,17,80,28,33,111,19,37,25,97,92,29,89,16,30,113,59,87,118,83,76,105,66,32,14,24,54,21,93,115,48,71,7,70,72,86,55,20,99,36,60,109,41,103,74,53,78,94,84,18,27,58,35,2,90,114,68,107,1,31,15,104,75,73,95,117,51,4,26,23,38,110,101,65,108,79,56],"cond_shown":["Incongruent","Incongruent","Incongruent","Incongruent","Congruent","Incongruent","Congruent","Incongruent","Congruent","Congruent","Congruent","Incongruent","Congruent","Incongruent","Incongruent","Incongruent","Congruent","Incongruent","Congruent","Congruent","Congruent","Incongruent","Congruent","Incongruent","Congruent","Incongruent","Congruent","Congruent","Incongruent","Congruent","Congruent","Incongruent","Incongruent","Congruent","Congruent","Incongruent","Congruent","Congruent","Incongruent","Congruent","Incongruent","Congruent","Congruent","Congruent","Incongruent","Congruent","Congruent","Incongruent","Incongruent","Incongruent","Incongruent","Incongruent","Incongruent","Congruent","Incongruent","Incongruent","Congruent","Congruent","Incongruent","Incongruent","Incongruent","Congruent","Incongruent","Congruent","Incongruent","Congruent","Congruent","Congruent","Congruent","Congruent","Incongruent","Incongruent","Incongruent","Congruent","Incongruent","Incongruent","Congruent","Congruent","Congruent","Incongruent","Congruent","Incongruent","Congruent","Congruent","Incongruent","Incongruent","Incongruent","Congruent","Incongruent","Congruent","Congruent","Congruent","Congruent","Incongruent","Congruent","Incongruent","Congruent","Congruent","Congruent","Congruent","Incongruent","Incongruent","Incongruent","Incongruent","Congruent","Incongruent","Incongruent","Incongruent","Incongruent","Incongruent","Congruent","Congruent","Incongruent","Congruent","Congruent","Incongruent","Incongruent","Congruent","Incongruent","Congruent"],"ratio_trial":[200,200,100,100,100,100,300,200,200,300,300,200,300,100,200,300,200,300,200,100,300,300,300,200,100,200,300,300,300,100,200,300,100,100,200,200,300,300,100,200,100,100,300,300,300,200,300,200,200,100,100,100,100,200,300,300,300,100,300,300,200,300,300,300,200,100,200,200,100,100,200,200,100,100,300,100,300,100,200,100,200,200,100,100,100,300,100,200,300,100,300,100,100,200,300,300,200,100,100,200,300,100,100,200,200,200,100,300,200,200,300,200,300,200,200,300,300,100,100,200],"left_num":[7,3,2,8,12,13,3,14,12,7,3,3,20,8,4,2,16,4,11,8,4,7,4,7,3,14,11,8,4,7,21,4,3,7,7,4,1,20,10,5,9,6,24,3,4,3,1,9,4,3,9,3,1,1,4,4,20,1,13,8,7,5,4,1,1,7,7,16,9,9,9,11,11,6,7,11,12,11,16,6,8,7,10,2,6,13,11,8,8,7,11,6,7,14,1,13,3,10,12,11,2,3,6,4,6,4,6,4,4,3,3,11,7,9,7,8,13,2,17,6],"right_num":[12,1,6,6,13,12,4,6,6,20,11,1,9,1,6,6,9,2,3,2,2,8,13,12,2,6,4,10,6,15,2,2,11,9,2,1,8,5,8,14,13,5,8,2,2,14,3,8,1,7,6,11,8,21,6,2,13,18,12,14,12,6,2,8,2,9,18,12,8,8,8,3,9,5,8,9,2,6,12,3,2,12,3,11,13,12,9,7,9,15,4,15,15,6,19,12,14,3,13,3,6,11,13,6,7,14,3,2,1,1,2,3,8,4,18,14,12,11,10,3],"left_den":[10,10,4,16,30,26,6,30,20,14,12,10,25,20,5,4,30,20,22,16,5,10,20,10,6,30,22,15,5,14,30,20,5,14,21,30,30,25,25,10,15,20,30,6,20,6,5,15,30,9,18,5,2,2,5,20,25,2,26,10,10,25,20,30,3,14,15,20,15,15,15,20,22,20,10,22,24,22,20,12,15,10,25,5,10,26,22,15,10,14,22,12,14,30,3,26,6,25,30,22,4,5,10,5,12,6,12,20,30,10,6,22,10,20,15,10,26,5,30,15],"right_den":[24,2,15,10,26,20,5,9,15,25,20,2,18,2,10,30,27,4,10,5,4,20,26,24,5,9,20,12,12,25,4,4,22,15,15,3,24,10,16,20,26,25,16,10,4,20,6,10,3,30,10,22,20,30,12,4,26,30,15,28,24,12,4,24,15,15,27,20,16,16,10,4,15,25,20,15,10,15,20,5,6,24,10,22,26,15,15,21,18,25,20,25,25,9,30,15,20,10,26,10,30,22,26,10,10,30,5,4,3,2,10,10,20,16,27,28,15,22,15,15],"correct_side":[1,2,1,2,2,2,2,2,1,2,2,2,1,2,1,1,1,2,1,1,1,1,2,1,1,2,1,2,1,2,1,2,1,2,1,2,2,1,2,2,1,1,1,1,2,2,2,2,2,1,2,1,1,2,1,2,1,2,2,1,1,2,2,2,1,2,2,1,1,1,2,2,2,1,1,2,1,1,1,2,1,1,1,2,1,2,2,1,1,2,1,2,2,2,2,2,2,1,2,1,1,1,1,1,2,1,2,2,2,2,1,1,1,1,2,1,2,2,2,1],"img_shown":["img2/200/Incongruent/L/I_Dist_200_LN_7_LD_10_RN_12_RD_24_0.png","img2/200/Incongruent/R/I_Dist_200_LN_3_LD_10_RN_1_RD_2_1.png","img2/100/Incongruent/L/I_Dist_100_LN_2_LD_4_RN_6_RD_15_0.png","img2/100/Incongruent/R/I_Dist_100_LN_8_LD_16_RN_6_RD_10_1.png","img2/100/Congruent/R/C_Dist_100_LN_12_LD_30_RN_13_RD_26_1.png","img2/100/Incongruent/R/I_Dist_100_LN_13_LD_26_RN_12_RD_20_1.png","img2/300/Congruent/R/C_Dist_300_LN_3_LD_6_RN_4_RD_5_1.png","img2/200/Incongruent/R/I_Dist_200_LN_14_LD_30_RN_6_RD_9_1.png","img2/200/Congruent/L/C_Dist_200_LN_12_LD_20_RN_6_RD_15_0.png","img2/300/Congruent/R/C_Dist_300_LN_7_LD_14_RN_20_RD_25_1.png","img2/300/Congruent/R/C_Dist_300_LN_3_LD_12_RN_11_RD_20_1.png","img2/200/Incongruent/R/I_Dist_200_LN_3_LD_10_RN_1_RD_2_1.png","img2/300/Congruent/L/C_Dist_300_LN_20_LD_25_RN_9_RD_18_0.png","img2/100/Incongruent/R/I_Dist_100_LN_8_LD_20_RN_1_RD_2_1.png","img2/200/Incongruent/L/I_Dist_200_LN_4_LD_5_RN_6_RD_10_0.png","img2/300/Incongruent/L/I_Dist_300_LN_2_LD_4_RN_6_RD_30_0.png","img2/200/Congruent/L/C_Dist_200_LN_16_LD_30_RN_9_RD_27_0.png","img2/300/Incongruent/R/I_Dist_300_LN_4_LD_20_RN_2_RD_4_1.png","img2/200/Congruent/L/C_Dist_200_LN_11_LD_22_RN_3_RD_10_0.png","img2/100/Congruent/L/C_Dist_100_LN_8_LD_16_RN_2_RD_5_0.png","img2/300/Congruent/L/C_Dist_300_LN_4_LD_5_RN_2_RD_4_0.png","img2/300/Incongruent/L/I_Dist_300_LN_7_LD_10_RN_8_RD_20_0.png","img2/300/Congruent/R/C_Dist_300_LN_4_LD_20_RN_13_RD_26_1.png","img2/200/Incongruent/L/I_Dist_200_LN_7_LD_10_RN_12_RD_24_0.png","img2/100/Congruent/L/C_Dist_100_LN_3_LD_6_RN_2_RD_5_0.png","img2/200/Incongruent/R/I_Dist_200_LN_14_LD_30_RN_6_RD_9_1.png","img2/300/Congruent/L/C_Dist_300_LN_11_LD_22_RN_4_RD_20_0.png","img2/300/Congruent/R/C_Dist_300_LN_8_LD_15_RN_10_RD_12_1.png","img2/300/Incongruent/L/I_Dist_300_LN_4_LD_5_RN_6_RD_12_0.png","img2/100/Congruent/R/C_Dist_100_LN_7_LD_14_RN_15_RD_25_1.png","img2/200/Congruent/L/C_Dist_200_LN_21_LD_30_RN_2_RD_4_0.png","img2/300/Incongruent/R/I_Dist_300_LN_4_LD_20_RN_2_RD_4_1.png","img2/100/Incongruent/L/I_Dist_100_LN_3_LD_5_RN_11_RD_22_0.png","img2/100/Congruent/R/C_Dist_100_LN_7_LD_14_RN_9_RD_15_1.png","img2/200/Congruent/L/C_Dist_200_LN_7_LD_21_RN_2_RD_15_0.png","img2/200/Incongruent/R/I_Dist_200_LN_4_LD_30_RN_1_RD_3_1.png","img2/300/Congruent/R/C_Dist_300_LN_1_LD_30_RN_8_RD_24_1.png","img2/300/Congruent/L/C_Dist_300_LN_20_LD_25_RN_5_RD_10_0.png","img2/100/Incongruent/R/I_Dist_100_LN_10_LD_25_RN_8_RD_16_1.png","img2/200/Congruent/R/C_Dist_200_LN_5_LD_10_RN_14_RD_20_1.png","img2/100/Incongruent/L/I_Dist_100_LN_9_LD_15_RN_13_RD_26_0.png","img2/100/Congruent/L/C_Dist_100_LN_6_LD_20_RN_5_RD_25_0.png","img2/300/Congruent/L/C_Dist_300_LN_24_LD_30_RN_8_RD_16_0.png","img2/300/Congruent/L/C_Dist_300_LN_3_LD_6_RN_2_RD_10_0.png","img2/300/Incongruent/R/I_Dist_300_LN_4_LD_20_RN_2_RD_4_1.png","img2/200/Congruent/R/C_Dist_200_LN_3_LD_6_RN_14_RD_20_1.png","img2/300/Congruent/R/C_Dist_300_LN_1_LD_5_RN_3_RD_6_1.png","img2/200/Incongruent/R/I_Dist_200_LN_9_LD_15_RN_8_RD_10_1.png","img2/200/Incongruent/R/I_Dist_200_LN_4_LD_30_RN_1_RD_3_1.png","img2/100/Incongruent/L/I_Dist_100_LN_3_LD_9_RN_7_RD_30_0.png","img2/100/Incongruent/R/I_Dist_100_LN_9_LD_18_RN_6_RD_10_1.png","img2/100/Incongruent/L/I_Dist_100_LN_3_LD_5_RN_11_RD_22_0.png","img2/100/Incongruent/L/I_Dist_100_LN_1_LD_2_RN_8_RD_20_0.png","img2/200/Congruent/R/C_Dist_200_LN_1_LD_2_RN_21_RD_30_1.png","img2/300/Incongruent/L/I_Dist_300_LN_4_LD_5_RN_6_RD_12_0.png","img2/300/Incongruent/R/I_Dist_300_LN_4_LD_20_RN_2_RD_4_1.png","img2/300/Congruent/L/C_Dist_300_LN_20_LD_25_RN_13_RD_26_0.png","img2/100/Congruent/R/C_Dist_100_LN_1_LD_2_RN_18_RD_30_1.png","img2/300/Incongruent/R/I_Dist_300_LN_13_LD_26_RN_12_RD_15_1.png","img2/300/Incongruent/L/I_Dist_300_LN_8_LD_10_RN_14_RD_28_0.png","img2/200/Incongruent/L/I_Dist_200_LN_7_LD_10_RN_12_RD_24_0.png","img2/300/Congruent/R/C_Dist_300_LN_5_LD_25_RN_6_RD_12_1.png","img2/300/Incongruent/R/I_Dist_300_LN_4_LD_20_RN_2_RD_4_1.png","img2/300/Congruent/R/C_Dist_300_LN_1_LD_30_RN_8_RD_24_1.png","img2/200/Incongruent/L/I_Dist_200_LN_1_LD_3_RN_2_RD_15_0.png","img2/100/Congruent/R/C_Dist_100_LN_7_LD_14_RN_9_RD_15_1.png","img2/200/Congruent/R/C_Dist_200_LN_7_LD_15_RN_18_RD_27_1.png","img2/200/Congruent/L/C_Dist_200_LN_16_LD_20_RN_12_RD_20_0.png","img2/100/Congruent/L/C_Dist_100_LN_9_LD_15_RN_8_RD_16_0.png","img2/100/Congruent/L/C_Dist_100_LN_9_LD_15_RN_8_RD_16_0.png","img2/200/Incongruent/R/I_Dist_200_LN_9_LD_15_RN_8_RD_10_1.png","img2/200/Incongruent/R/I_Dist_200_LN_11_LD_20_RN_3_RD_4_1.png","img2/100/Incongruent/R/I_Dist_100_LN_11_LD_22_RN_9_RD_15_1.png","img2/100/Congruent/L/C_Dist_100_LN_6_LD_20_RN_5_RD_25_0.png","img2/300/Incongruent/L/I_Dist_300_LN_7_LD_10_RN_8_RD_20_0.png","img2/100/Incongruent/R/I_Dist_100_LN_11_LD_22_RN_9_RD_15_1.png","img2/300/Congruent/L/C_Dist_300_LN_12_LD_24_RN_2_RD_10_0.png","img2/100/Congruent/L/C_Dist_100_LN_11_LD_22_RN_6_RD_15_0.png","img2/200/Congruent/L/C_Dist_200_LN_16_LD_20_RN_12_RD_20_0.png","img2/100/Incongruent/R/I_Dist_100_LN_6_LD_12_RN_3_RD_5_1.png","img2/200/Congruent/L/C_Dist_200_LN_8_LD_15_RN_2_RD_6_0.png","img2/200/Incongruent/L/I_Dist_200_LN_7_LD_10_RN_12_RD_24_0.png","img2/100/Congruent/L/C_Dist_100_LN_10_LD_25_RN_3_RD_10_0.png","img2/100/Congruent/R/C_Dist_100_LN_2_LD_5_RN_11_RD_22_1.png","img2/100/Incongruent/L/I_Dist_100_LN_6_LD_10_RN_13_RD_26_0.png","img2/300/Incongruent/R/I_Dist_300_LN_13_LD_26_RN_12_RD_15_1.png","img2/100/Incongruent/R/I_Dist_100_LN_11_LD_22_RN_9_RD_15_1.png","img2/200/Congruent/L/C_Dist_200_LN_8_LD_15_RN_7_RD_21_0.png","img2/300/Incongruent/L/I_Dist_300_LN_8_LD_10_RN_9_RD_18_0.png","img2/100/Congruent/R/C_Dist_100_LN_7_LD_14_RN_15_RD_25_1.png","img2/300/Congruent/L/C_Dist_300_LN_11_LD_22_RN_4_RD_20_0.png","img2/100/Congruent/R/C_Dist_100_LN_6_LD_12_RN_15_RD_25_1.png","img2/100/Congruent/R/C_Dist_100_LN_7_LD_14_RN_15_RD_25_1.png","img2/200/Incongruent/R/I_Dist_200_LN_14_LD_30_RN_6_RD_9_1.png","img2/300/Congruent/R/C_Dist_300_LN_1_LD_3_RN_19_RD_30_1.png","img2/300/Incongruent/R/I_Dist_300_LN_13_LD_26_RN_12_RD_15_1.png","img2/200/Congruent/R/C_Dist_200_LN_3_LD_6_RN_14_RD_20_1.png","img2/100/Congruent/L/C_Dist_100_LN_10_LD_25_RN_3_RD_10_0.png","img2/100/Congruent/R/C_Dist_100_LN_12_LD_30_RN_13_RD_26_1.png","img2/200/Congruent/L/C_Dist_200_LN_11_LD_22_RN_3_RD_10_0.png","img2/300/Incongruent/L/I_Dist_300_LN_2_LD_4_RN_6_RD_30_0.png","img2/100/Incongruent/L/I_Dist_100_LN_3_LD_5_RN_11_RD_22_0.png","img2/100/Incongruent/L/I_Dist_100_LN_6_LD_10_RN_13_RD_26_0.png","img2/200/Incongruent/L/I_Dist_200_LN_4_LD_5_RN_6_RD_10_0.png","img2/200/Congruent/R/C_Dist_200_LN_6_LD_12_RN_7_RD_10_1.png","img2/200/Incongruent/L/I_Dist_200_LN_4_LD_6_RN_14_RD_30_0.png","img2/100/Incongruent/R/I_Dist_100_LN_6_LD_12_RN_3_RD_5_1.png","img2/300/Incongruent/R/I_Dist_300_LN_4_LD_20_RN_2_RD_4_1.png","img2/200/Incongruent/R/I_Dist_200_LN_4_LD_30_RN_1_RD_3_1.png","img2/200/Incongruent/R/I_Dist_200_LN_3_LD_10_RN_1_RD_2_1.png","img2/300/Congruent/L/C_Dist_300_LN_3_LD_6_RN_2_RD_10_0.png","img2/200/Congruent/L/C_Dist_200_LN_11_LD_22_RN_3_RD_10_0.png","img2/300/Incongruent/L/I_Dist_300_LN_7_LD_10_RN_8_RD_20_0.png","img2/200/Congruent/L/C_Dist_200_LN_9_LD_20_RN_4_RD_16_0.png","img2/200/Congruent/R/C_Dist_200_LN_7_LD_15_RN_18_RD_27_1.png","img2/300/Incongruent/L/I_Dist_300_LN_8_LD_10_RN_14_RD_28_0.png","img2/300/Incongruent/R/I_Dist_300_LN_13_LD_26_RN_12_RD_15_1.png","img2/100/Congruent/R/C_Dist_100_LN_2_LD_5_RN_11_RD_22_1.png","img2/100/Incongruent/R/I_Dist_100_LN_17_LD_30_RN_10_RD_15_1.png","img2/200/Congruent/L/C_Dist_200_LN_6_LD_15_RN_3_RD_15_0.png"],"dist100_C":[["C_Dist_100_LN_10_LD_25_RN_3_RD_10_0.png","C_Dist_100_LN_11_LD_22_RN_4_RD_10_0.png","C_Dist_100_LN_11_LD_22_RN_6_RD_15_0.png","C_Dist_100_LN_15_LD_25_RN_13_RD_26_0.png","C_Dist_100_LN_3_LD_6_RN_2_RD_5_0.png","C_Dist_100_LN_6_LD_20_RN_5_RD_25_0.png","C_Dist_100_LN_8_LD_16_RN_2_RD_5_0.png","C_Dist_100_LN_9_LD_15_RN_8_RD_16_0.png"],["C_Dist_100_LN_1_LD_2_RN_18_RD_30_1.png","C_Dist_100_LN_1_LD_2_RN_3_RD_5_1.png","C_Dist_100_LN_12_LD_30_RN_13_RD_26_1.png","C_Dist_100_LN_2_LD_5_RN_11_RD_22_1.png","C_Dist_100_LN_2_LD_5_RN_6_RD_12_1.png","C_Dist_100_LN_3_LD_20_RN_4_RD_16_1.png","C_Dist_100_LN_4_LD_10_RN_15_RD_30_1.png","C_Dist_100_LN_4_LD_8_RN_6_RD_10_1.png","C_Dist_100_LN_6_LD_12_RN_15_RD_25_1.png","C_Dist_100_LN_7_LD_14_RN_15_RD_25_1.png","C_Dist_100_LN_7_LD_14_RN_9_RD_15_1.png"]],"dist100_I":[["I_Dist_100_LN_1_LD_2_RN_8_RD_20_0.png","I_Dist_100_LN_2_LD_4_RN_6_RD_15_0.png","I_Dist_100_LN_2_LD_4_RN_8_RD_20_0.png","I_Dist_100_LN_3_LD_5_RN_11_RD_22_0.png","I_Dist_100_LN_3_LD_5_RN_8_RD_16_0.png","I_Dist_100_LN_3_LD_6_RN_4_RD_10_0.png","I_Dist_100_LN_3_LD_9_RN_7_RD_30_0.png","I_Dist_100_LN_4_LD_8_RN_8_RD_20_0.png","I_Dist_100_LN_6_LD_10_RN_11_RD_22_0.png","I_Dist_100_LN_6_LD_10_RN_13_RD_26_0.png","I_Dist_100_LN_6_LD_10_RN_7_RD_14_0.png","I_Dist_100_LN_9_LD_10_RN_20_RD_25_0.png","I_Dist_100_LN_9_LD_15_RN_13_RD_26_0.png","I_Dist_100_LN_9_LD_15_RN_14_RD_28_0.png"],["I_Dist_100_LN_10_LD_25_RN_8_RD_16_1.png","I_Dist_100_LN_10_LD_25_RN_9_RD_18_1.png","I_Dist_100_LN_11_LD_22_RN_9_RD_15_1.png","I_Dist_100_LN_12_LD_24_RN_9_RD_15_1.png","I_Dist_100_LN_12_LD_30_RN_2_RD_4_1.png","I_Dist_100_LN_13_LD_26_RN_12_RD_20_1.png","I_Dist_100_LN_13_LD_26_RN_6_RD_10_1.png","I_Dist_100_LN_17_LD_30_RN_10_RD_15_1.png","I_Dist_100_LN_6_LD_12_RN_3_RD_5_1.png","I_Dist_100_LN_8_LD_16_RN_6_RD_10_1.png","I_Dist_100_LN_8_LD_20_RN_1_RD_2_1.png","I_Dist_100_LN_9_LD_18_RN_6_RD_10_1.png"]],"dist100_S":[["E_Dist_100_LN_2_LD_12_RN_2_RD_30_0.png","E_Dist_100_LN_6_LD_10_RN_6_RD_12_0.png"],["E_Dist_100_LN_6_LD_12_RN_6_RD_10_1.png"]],"dist200_C":[["C_Dist_200_LN_11_LD_22_RN_3_RD_10_0.png","C_Dist_200_LN_12_LD_15_RN_6_RD_10_0.png","C_Dist_200_LN_12_LD_20_RN_6_RD_15_0.png","C_Dist_200_LN_14_LD_28_RN_6_RD_20_0.png","C_Dist_200_LN_15_LD_25_RN_4_RD_10_0.png","C_Dist_200_LN_16_LD_20_RN_12_RD_20_0.png","C_Dist_200_LN_16_LD_30_RN_9_RD_27_0.png","C_Dist_200_LN_20_LD_25_RN_9_RD_15_0.png","C_Dist_200_LN_21_LD_30_RN_2_RD_4_0.png","C_Dist_200_LN_4_LD_10_RN_3_RD_15_0.png","C_Dist_200_LN_4_LD_8_RN_3_RD_10_0.png","C_Dist_200_LN_6_LD_15_RN_3_RD_15_0.png","C_Dist_200_LN_7_LD_21_RN_2_RD_15_0.png","C_Dist_200_LN_8_LD_15_RN_2_RD_6_0.png","C_Dist_200_LN_8_LD_15_RN_3_RD_9_0.png","C_Dist_200_LN_8_LD_15_RN_7_RD_21_0.png","C_Dist_200_LN_9_LD_20_RN_4_RD_16_0.png"],["C_Dist_200_LN_1_LD_2_RN_21_RD_30_1.png","C_Dist_200_LN_13_LD_26_RN_14_RD_20_1.png","C_Dist_200_LN_3_LD_10_RN_11_RD_22_1.png","C_Dist_200_LN_3_LD_10_RN_14_RD_28_1.png","C_Dist_200_LN_3_LD_10_RN_7_RD_14_1.png","C_Dist_200_LN_3_LD_12_RN_9_RD_20_1.png","C_Dist_200_LN_3_LD_6_RN_14_RD_20_1.png","C_Dist_200_LN_5_LD_10_RN_14_RD_20_1.png","C_Dist_200_LN_6_LD_12_RN_7_RD_10_1.png","C_Dist_200_LN_6_LD_20_RN_11_RD_22_1.png","C_Dist_200_LN_7_LD_15_RN_18_RD_27_1.png","C_Dist_200_LN_9_LD_30_RN_13_RD_26_1.png"]],"dist200_I":[["I_Dist_200_LN_1_LD_2_RN_3_RD_10_0.png","I_Dist_200_LN_1_LD_3_RN_2_RD_15_0.png","I_Dist_200_LN_3_LD_4_RN_11_RD_20_0.png","I_Dist_200_LN_4_LD_5_RN_6_RD_10_0.png","I_Dist_200_LN_4_LD_6_RN_14_RD_30_0.png","I_Dist_200_LN_7_LD_10_RN_12_RD_24_0.png","I_Dist_200_LN_7_LD_10_RN_14_RD_28_0.png","I_Dist_200_LN_7_LD_10_RN_8_RD_16_0.png"],["I_Dist_200_LN_11_LD_20_RN_3_RD_4_1.png","I_Dist_200_LN_14_LD_30_RN_12_RD_18_1.png","I_Dist_200_LN_14_LD_30_RN_6_RD_9_1.png","I_Dist_200_LN_3_LD_10_RN_1_RD_2_1.png","I_Dist_200_LN_4_LD_30_RN_1_RD_3_1.png","I_Dist_200_LN_6_LD_20_RN_3_RD_6_1.png","I_Dist_200_LN_7_LD_15_RN_4_RD_6_1.png","I_Dist_200_LN_7_LD_15_RN_6_RD_9_1.png","I_Dist_200_LN_9_LD_15_RN_8_RD_10_1.png"]],"dist200_S":[["E_Dist_200_LN_3_LD_6_RN_3_RD_10_0.png"],["E_Dist_200_LN_3_LD_10_RN_3_RD_6_1.png"]],"dist300_C":[["C_Dist_300_LN_11_LD_22_RN_1_RD_5_0.png","C_Dist_300_LN_11_LD_22_RN_2_RD_10_0.png","C_Dist_300_LN_11_LD_22_RN_4_RD_20_0.png","C_Dist_300_LN_12_LD_24_RN_2_RD_10_0.png","C_Dist_300_LN_18_LD_20_RN_9_RD_15_0.png","C_Dist_300_LN_20_LD_25_RN_13_RD_26_0.png","C_Dist_300_LN_20_LD_25_RN_14_RD_28_0.png","C_Dist_300_LN_20_LD_25_RN_5_RD_10_0.png","C_Dist_300_LN_20_LD_25_RN_8_RD_16_0.png","C_Dist_300_LN_20_LD_25_RN_9_RD_18_0.png","C_Dist_300_LN_24_LD_30_RN_2_RD_4_0.png","C_Dist_300_LN_24_LD_30_RN_8_RD_16_0.png","C_Dist_300_LN_3_LD_6_RN_2_RD_10_0.png","C_Dist_300_LN_4_LD_10_RN_1_RD_10_0.png","C_Dist_300_LN_4_LD_5_RN_2_RD_4_0.png","C_Dist_300_LN_8_LD_16_RN_1_RD_5_0.png","C_Dist_300_LN_9_LD_10_RN_3_RD_5_0.png"],["C_Dist_300_LN_1_LD_20_RN_7_RD_20_1.png","C_Dist_300_LN_1_LD_3_RN_19_RD_30_1.png","C_Dist_300_LN_1_LD_30_RN_8_RD_24_1.png","C_Dist_300_LN_1_LD_5_RN_11_RD_22_1.png","C_Dist_300_LN_1_LD_5_RN_3_RD_6_1.png","C_Dist_300_LN_1_LD_5_RN_6_RD_12_1.png","C_Dist_300_LN_2_LD_10_RN_12_RD_24_1.png","C_Dist_300_LN_2_LD_20_RN_10_RD_25_1.png","C_Dist_300_LN_3_LD_12_RN_11_RD_20_1.png","C_Dist_300_LN_3_LD_6_RN_4_RD_5_1.png","C_Dist_300_LN_4_LD_20_RN_13_RD_26_1.png","C_Dist_300_LN_5_LD_25_RN_6_RD_12_1.png","C_Dist_300_LN_5_LD_25_RN_7_RD_14_1.png","C_Dist_300_LN_7_LD_14_RN_20_RD_25_1.png","C_Dist_300_LN_8_LD_15_RN_10_RD_12_1.png"]],"dist300_I":[["I_Dist_300_LN_1_LD_2_RN_2_RD_10_0.png","I_Dist_300_LN_1_LD_2_RN_3_RD_15_0.png","I_Dist_300_LN_2_LD_4_RN_6_RD_30_0.png","I_Dist_300_LN_3_LD_6_RN_4_RD_20_0.png","I_Dist_300_LN_4_LD_5_RN_6_RD_12_0.png","I_Dist_300_LN_4_LD_5_RN_8_RD_16_0.png","I_Dist_300_LN_7_LD_10_RN_8_RD_20_0.png","I_Dist_300_LN_8_LD_10_RN_14_RD_28_0.png","I_Dist_300_LN_8_LD_10_RN_9_RD_18_0.png"],["I_Dist_300_LN_13_LD_26_RN_12_RD_15_1.png","I_Dist_300_LN_4_LD_20_RN_2_RD_4_1.png"]],"dist300_S":[["E_Dist_300_LN_9_LD_12_RN_9_RD_20_0.png"],["E_Dist_300_LN_18_LD_30_RN_18_RD_20_1.png","E_Dist_300_LN_3_LD_10_RN_3_RD_5_1.png","E_Dist_300_LN_9_LD_20_RN_9_RD_12_1.png"]],"dist500_C":[["C_Dist_500_LN_10_LD_13_RN_7_RD_26_0.png","C_Dist_500_LN_10_LD_15_RN_4_RD_24_0.png","C_Dist_500_LN_12_LD_16_RN_3_RD_12_0.png","C_Dist_500_LN_12_LD_18_RN_4_RD_24_0.png","C_Dist_500_LN_15_LD_18_RN_5_RD_15_0.png","C_Dist_500_LN_15_LD_20_RN_1_RD_4_0.png","C_Dist_500_LN_18_LD_27_RN_1_RD_6_0.png","C_Dist_500_LN_20_LD_24_RN_1_RD_3_0.png","C_Dist_500_LN_20_LD_24_RN_3_RD_9_0.png","C_Dist_500_LN_20_LD_24_RN_7_RD_21_0.png","C_Dist_500_LN_20_LD_28_RN_3_RD_14_0.png","C_Dist_500_LN_21_LD_28_RN_6_RD_24_0.png","C_Dist_500_LN_22_LD_28_RN_2_RD_7_0.png","C_Dist_500_LN_25_LD_30_RN_9_RD_27_0.png","C_Dist_500_LN_4_LD_6_RN_1_RD_6_0.png","C_Dist_500_LN_5_LD_6_RN_2_RD_6_0.png","C_Dist_500_LN_6_LD_9_RN_1_RD_6_0.png","C_Dist_500_LN_7_LD_10_RN_1_RD_5_0.png","C_Dist_500_LN_8_LD_12_RN_1_RD_6_0.png","C_Dist_500_LN_8_LD_12_RN_4_RD_24_0.png"],["C_Dist_500_LN_1_LD_4_RN_12_RD_16_1.png","C_Dist_500_LN_1_LD_4_RN_9_RD_12_1.png","C_Dist_500_LN_1_LD_9_RN_11_RD_18_1.png","C_Dist_500_LN_10_LD_24_RN_22_RD_24_1.png","C_Dist_500_LN_2_LD_12_RN_10_RD_15_1.png","C_Dist_500_LN_2_LD_12_RN_12_RD_18_1.png","C_Dist_500_LN_2_LD_12_RN_4_RD_6_1.png","C_Dist_500_LN_2_LD_24_RN_7_RD_12_1.png","C_Dist_500_LN_2_LD_5_RN_18_RD_20_1.png","C_Dist_500_LN_2_LD_5_RN_9_RD_10_1.png","C_Dist_500_LN_2_LD_8_RN_12_RD_16_1.png","C_Dist_500_LN_2_LD_8_RN_21_RD_28_1.png","C_Dist_500_LN_3_LD_10_RN_4_RD_5_1.png","C_Dist_500_LN_3_LD_12_RN_15_RD_20_1.png","C_Dist_500_LN_3_LD_30_RN_6_RD_10_1.png","C_Dist_500_LN_3_LD_8_RN_14_RD_16_1.png","C_Dist_500_LN_4_LD_16_RN_15_RD_20_1.png","C_Dist_500_LN_4_LD_24_RN_12_RD_18_1.png","C_Dist_500_LN_5_LD_14_RN_6_RD_7_1.png","C_Dist_500_LN_7_LD_21_RN_20_RD_24_1.png","C_Dist_500_LN_7_LD_28_RN_12_RD_16_1.png","C_Dist_500_LN_7_LD_28_RN_9_RD_12_1.png","C_Dist_500_LN_9_LD_27_RN_20_RD_24_1.png"]],"dist500_I":[["I_Dist_500_LN_2_LD_3_RN_4_RD_24_0.png","I_Dist_500_LN_5_LD_6_RN_6_RD_18_0.png","I_Dist_500_LN_7_LD_8_RN_9_RD_24_0.png"],["I_Dist_500_LN_7_LD_21_RN_5_RD_6_1.png"]],"dist500_S":[["E_Dist_500_LN_6_LD_8_RN_6_RD_24_0.png"],["E_Dist_500_LN_2_LD_12_RN_2_RD_3_1.png","E_Dist_500_LN_6_LD_24_RN_6_RD_8_1.png"]]}},{"start_time":1551793956209,"click_time":1551793958437,"finger_time":1551793957657,"fix_duration":250,"trial":1,"RT":1448,"MT":780,"sideResp":1,"stimulus":[],"xmouse":[773,773,773,773,773,773,773,773,773,773,773,773,773,773,773,773,773,773,773,773,773,773,773,773,773,773,773,773,773,773,773,773,773,773,773,773,773,773,773,773,773,773,773,773,773,773,773,773,773,773,773,773,773,773,773,773,773,773,773,773,773,773,773,773,773,773,773,773,773,773,766,753,633,607,598,583,570,539,537,537,537,537,549,552,553,554,554,554,553,553,553,553,553,552,552,552,552,552,552,552,552,552,552,552,552,552,552,541,521,502,487,478],"ymouse":[501,501,501,501,501,501,501,501,501,501,501,501,501,501,501,501,501,501,501,501,501,501,501,501,501,501,501,501,501,501,501,501,501,501,501,501,501,501,501,501,501,501,501,501,501,501,501,501,501,501,501,501,501,501,501,501,501,501,501,501,501,501,501,501,501,501,501,501,501,501,499,495,444,402,371,326,296,252,246,245,243,241,231,228,226,224,224,223,223,223,223,223,223,223,224,225,227,236,238,240,240,240,240,240,240,240,239,210,181,151,124,98],"timestamp_mouse":[10,30,49,69,88,109,128,148,167,188,207,228,248,268,288,308,328,348,367,388,407,428,448,468,488,507,528,548,568,588,609,627,648,668,688,709,728,748,769,789,809,828,848,868,889,908,928,948,969,988,1009,1028,1048,1069,1089,1109,1128,1148,1168,1189,1209,1228,1248,1269,1289,1309,1328,1348,1368,1388,1409,1428,1448,1468,1489,1509,1529,1548,1567,1588,1607,1628,1649,1668,1688,1708,1728,1748,1767,1788,1808,1828,1848,1868,1889,1909,1928,1948,1968,1988,2008,2028,2048,2068,2089,2109,2128,2148,2169,2189,2208,2228],"xSR":733.5,"ySR":443.3,"xT1":420.09999999999997,"yT1":0,"xT2":1046.8999999999999,"yT2":0,"toosoon":0,"cond_shown":"Incongruent","ratio_trial":200,"L_num":3,"L_den":10,"R_num":1,"R_den":2,"correct_side":2,"subjID":"MariaAlejandraRamosJaimes12","gender":"1","school":"6","age":"11"},{"start_time":1551793963502,"click_time":1551793966357,"finger_time":1551793965857,"fix_duration":564.7118519517791,"trial":2,"RT":2355,"MT":500,"sideResp":1,"stimulus":[],"xmouse":[770,770,770,770,770,770,770,770,770,770,770,770,770,770,770,770,770,770,770,770,770,770,770,770,770,770,770,770,770,770,770,770,770,770,770,770,770,770,770,770,770,770,770,770,770,770,770,770,770,770,770,770,770,770,770,770,770,770,770,770,770,770,770,770,770,770,770,770,770,770,770,770,770,770,770,770,770,770,770,770,770,770,770,770,770,770,770,770,770,770,770,770,770,770,770,770,770,770,770,770,770,770,770,770,770,770,770,770,770,770,770,770,770,770,770,771,778,871,902,904,904,904,875,814,738,738,738,738,738,738,738,738,738,738,738,738,738,738,738,738,400,409,453],"ymouse":[521,521,521,521,521,521,521,521,521,521,521,521,521,521,521,521,521,521,521,521,521,521,521,521,521,521,521,521,521,521,521,521,521,521,521,521,521,521,521,521,521,521,521,521,521,521,521,521,521,521,521,521,521,521,521,521,521,521,521,521,521,521,521,521,521,521,521,521,521,521,521,521,521,521,521,521,521,521,521,521,521,521,521,521,521,521,521,521,521,521,521,521,521,521,521,521,521,521,521,521,521,521,521,521,521,521,521,521,521,521,521,521,521,521,521,521,514,434,394,370,348,314,217,100,14,14,14,14,14,14,14,14,14,14,14,14,14,14,14,14,20,32,85],"timestamp_mouse":[14,37,55,75,95,115,135,155,175,194,216,235,255,275,295,314,335,355,375,396,415,435,454,476,495,515,536,555,574,596,615,635,655,675,694,715,735,755,774,795,821,835,855,876,895,916,934,955,974,995,1016,1034,1055,1076,1096,1115,1135,1154,1175,1195,1215,1236,1255,1275,1295,1316,1336,1355,1375,1396,1415,1434,1455,1475,1495,1514,1536,1555,1575,1596,1614,1634,1656,1674,1695,1715,1735,1755,1774,1795,1815,1835,1855,1876,1895,1916,1935,1955,1975,1994,2016,2035,2055,2075,2096,2114,2135,2155,2175,2196,2216,2236,2255,2276,2296,2316,2335,2355,2375,2396,2416,2434,2455,2475,2495,2514,2534,2555,2575,2594,2616,2636,2656,2675,2695,2715,2736,2755,2775,2795,2816,2836,2854],"xSR":733.5,"ySR":443.3,"xT1":420.09999999999997,"yT1":0,"xT2":1046.8999999999999,"yT2":0,"toosoon":0,"cond_shown":"Incongruent","ratio_trial":100,"L_num":2,"L_den":4,"R_num":6,"R_den":15,"correct_side":1,"subjID":"MariaAlejandraRamosJaimes12","gender":"1","school":"6","age":"11"},{"start_time":1551793971857,"click_time":1551793974797,"finger_time":1551793974617,"fix_duration":878.1487493351079,"trial":3,"RT":2760,"MT":180,"sideResp":1,"stimulus":[],"xmouse":[760,760,760,760,760,760,760,760,760,760,760,760,760,760,760,760,760,760,760,760,760,760,760,760,760,760,760,760,760,760,760,760,760,760,760,760,760,760,760,760,760,760,760,760,760,760,760,760,760,760,760,760,760,760,760,760,760,760,760,760,760,760,760,760,760,760,760,760,760,760,760,760,760,760,760,760,760,760,760,760,760,760,760,760,760,760,760,760,760,760,760,760,760,760,760,760,760,760,760,760,760,760,760,760,760,760,760,760,760,760,760,760,760,760,760,760,760,760,760,760,760,760,760,762,764,765,764,761,752,749,749,749,749,749,749,743,743,743,730,715,695,685,671,654,652,583,538,508],"ymouse":[482,482,482,482,482,482,482,482,482,482,482,482,482,482,482,482,482,482,482,482,482,482,482,482,482,482,482,482,482,482,482,482,482,482,482,482,482,482,482,482,482,482,482,482,482,482,482,482,482,482,482,482,482,482,482,482,482,482,482,482,482,482,482,482,482,482,482,482,482,482,482,482,482,482,482,482,482,482,482,482,482,482,482,482,482,482,482,482,482,482,482,482,482,482,482,482,482,482,482,482,482,482,482,482,482,482,482,482,482,482,482,482,482,482,482,482,482,482,482,482,482,482,482,478,475,471,470,470,470,470,470,470,470,470,469,462,462,459,439,415,378,363,330,272,259,122,66,29],"timestamp_mouse":[8,20,46,60,81,101,120,140,160,181,200,220,239,261,279,301,320,340,360,380,401,420,440,461,480,499,521,541,559,580,600,621,641,661,681,701,720,741,759,781,799,820,841,860,880,900,921,941,960,980,1001,1021,1040,1060,1080,1100,1120,1140,1161,1180,1199,1220,1240,1261,1280,1300,1320,1340,1359,1381,1399,1420,1440,1461,1480,1500,1521,1541,1559,1580,1600,1621,1640,1660,1680,1700,1719,1741,1760,1781,1800,1820,1841,1861,1879,1901,1920,1939,1961,1980,1999,2021,2039,2061,2080,2101,2121,2140,2160,2180,2201,2221,2240,2259,2281,2300,2320,2339,2360,2380,2400,2421,2440,2461,2480,2500,2520,2539,2561,2580,2600,2621,2639,2660,2680,2700,2720,2740,2760,2780,2800,2820,2839,2860,2880,2900,2920,2939],"xSR":733.5,"ySR":443.3,"xT1":420.09999999999997,"yT1":0,"xT2":1046.8999999999999,"yT2":0,"toosoon":0,"cond_shown":"Incongruent","ratio_trial":100,"L_num":8,"L_den":16,"R_num":6,"R_den":10,"correct_side":2,"subjID":"MariaAlejandraRamosJaimes12","gender":"1","school":"6","age":"11"},{"start_time":1551793978397,"click_time":1551793980698,"finger_time":1551793980157,"fix_duration":1017.8686569403354,"trial":4,"RT":1760,"MT":541,"sideResp":2,"stimulus":[],"xmouse":[809,809,809,809,809,809,809,809,809,809,809,809,809,809,809,809,809,809,809,809,809,809,809,809,809,809,809,809,809,809,809,809,809,809,809,809,809,809,809,809,809,809,809,809,809,809,809,809,809,809,809,809,809,809,809,809,809,809,809,809,809,809,809,809,809,809,809,809,809,809,809,809,809,809,809,809,809,809,809,809,809,809,809,809,809,812,813,825,838,846,870,884,885,908,916,916,916,916,916,924,933,949,972,1013,1027,1038,1043,1048,1057,1063,1064,1075,1085,1092,1092,1092],"ymouse":[500,500,500,500,500,500,500,500,500,500,500,500,500,500,500,500,500,500,500,500,500,500,500,500,500,500,500,500,500,500,500,500,500,500,500,500,500,500,500,500,500,500,500,500,500,500,500,500,500,500,500,500,500,500,500,500,500,500,500,500,500,500,500,500,500,500,500,500,500,500,500,500,500,500,500,500,500,500,500,500,500,500,500,500,500,496,496,485,471,462,434,419,417,381,370,370,370,370,370,363,354,342,323,280,260,245,237,226,198,179,177,157,136,106,100,99],"timestamp_mouse":[11,21,40,61,79,100,120,141,160,179,200,220,240,260,281,299,320,340,361,380,400,420,440,461,481,500,521,539,561,580,601,619,640,660,679,701,720,741,760,781,801,821,840,859,881,901,921,940,960,980,1000,1021,1040,1060,1081,1101,1121,1140,1159,1181,1201,1221,1240,1261,1281,1300,1320,1340,1360,1380,1400,1420,1440,1460,1480,1499,1520,1540,1561,1580,1600,1620,1641,1660,1680,1700,1720,1740,1760,1780,1800,1821,1841,1860,1880,1901,1920,1940,1960,1981,2000,2020,2040,2060,2080,2100,2121,2139,2159,2181,2200,2219,2241,2260,2281,2301],"xSR":733.5,"ySR":443.3,"xT1":420.09999999999997,"yT1":0,"xT2":1046.8999999999999,"yT2":0,"toosoon":0,"cond_shown":"Congruent","ratio_trial":100,"L_num":12,"L_den":30,"R_num":13,"R_den":26,"correct_side":2,"subjID":"MariaAlejandraRamosJaimes12","gender":"1","school":"6","age":"11"},{"start_time":1551793984149,"click_time":1551793986398,"finger_time":1551793985737,"fix_duration":1329.2209664686713,"trial":5,"RT":1588,"MT":661,"sideResp":2,"stimulus":[],"xmouse":[792,792,792,792,792,792,792,792,792,792,792,792,792,792,792,792,792,792,792,792,792,792,792,792,792,792,792,792,792,792,792,792,792,792,792,792,792,792,792,792,792,792,792,792,792,792,792,792,792,792,792,792,792,792,792,792,792,792,792,792,792,792,792,792,792,792,792,792,792,792,792,792,792,792,792,792,798,810,812,817,825,825,825,825,825,829,848,878,878,890,898,898,948,992,1038,1088,1117,1130,1142,1159,1185,1190,1192,1192,1192,1192,1192,1192,1192,1192,1192,1192,1071],"ymouse":[474,474,474,474,474,474,474,474,474,474,474,474,474,474,474,474,474,474,474,474,474,474,474,474,474,474,474,474,474,474,474,474,474,474,474,474,474,474,474,474,474,474,474,474,474,474,474,474,474,474,474,474,474,474,474,474,474,474,474,474,474,474,474,474,474,474,474,474,474,474,474,474,474,474,474,474,468,449,447,438,419,405,404,404,404,403,398,395,395,392,388,387,360,332,298,248,209,183,161,129,83,66,46,27,6,6,6,6,6,6,6,6,8],"timestamp_mouse":[8,28,48,71,88,108,129,148,168,188,208,229,248,268,288,308,328,349,368,389,408,428,449,468,489,508,528,548,569,588,608,627,648,669,687,709,729,748,769,789,809,829,849,868,888,909,928,948,968,987,1008,1028,1048,1068,1087,1108,1128,1149,1168,1188,1208,1228,1249,1269,1289,1309,1327,1347,1368,1388,1408,1428,1449,1468,1488,1508,1528,1548,1569,1588,1608,1629,1648,1669,1689,1708,1728,1748,1769,1789,1808,1828,1849,1868,1889,1907,1928,1948,1968,1988,2007,2027,2049,2068,2087,2107,2128,2148,2168,2188,2208,2228,2249],"xSR":733.5,"ySR":443.3,"xT1":420.09999999999997,"yT1":0,"xT2":1046.8999999999999,"yT2":0,"toosoon":0,"cond_shown":"Incongruent","ratio_trial":100,"L_num":13,"L_den":26,"R_num":12,"R_den":20,"correct_side":2,"subjID":"MariaAlejandraRamosJaimes12","gender":"1","school":"6","age":"11"},{"start_time":1551793989404,"click_time":1551793991857,"finger_time":1551793991057,"fix_duration":1324.3912477623592,"trial":6,"RT":1653,"MT":800,"sideResp":2,"stimulus":[],"xmouse":[809,809,809,809,809,809,809,809,809,809,809,809,809,809,809,809,809,809,809,809,809,809,809,809,809,809,809,809,809,809,809,809,809,809,809,809,809,809,809,809,809,809,809,809,809,809,809,809,809,809,809,809,809,809,809,809,809,809,809,809,809,809,809,809,809,809,809,809,809,809,809,809,809,809,809,809,809,809,809,809,809,807,749,679,679,675,651,649,649,655,685,706,756,768,771,791,817,857,865,882,902,943,1059,1113,1140,1149,1149,1154,1160,1163,1166,1170,1170,1169,1168,1166,1166,1162,1161,1158,1156,1153,1138],"ymouse":[500,500,500,500,500,500,500,500,500,500,500,500,500,500,500,500,500,500,500,500,500,500,500,500,500,500,500,500,500,500,500,500,500,500,500,500,500,500,500,500,500,500,500,500,500,500,500,500,500,500,500,500,500,500,500,500,500,500,500,500,500,500,500,500,500,500,500,500,500,500,500,500,500,500,500,500,500,500,500,500,500,493,436,375,375,375,384,391,391,392,393,391,362,347,344,331,321,298,292,274,253,224,174,153,140,135,133,124,118,115,106,95,92,85,81,79,79,79,80,83,84,85,85],"timestamp_mouse":[13,33,52,74,93,112,133,153,173,193,213,233,253,272,292,313,332,353,374,394,412,433,453,473,494,513,532,553,572,593,612,633,652,673,693,712,733,753,773,793,812,833,853,873,893,914,933,953,973,993,1013,1034,1053,1073,1094,1112,1133,1153,1173,1193,1212,1234,1253,1274,1293,1313,1334,1352,1373,1394,1413,1433,1452,1474,1494,1513,1534,1554,1574,1593,1612,1634,1653,1673,1692,1713,1734,1753,1774,1792,1813,1833,1853,1873,1893,1913,1933,1954,1973,1992,2013,2033,2053,2074,2093,2114,2133,2153,2173,2192,2213,2234,2253,2274,2293,2313,2333,2353,2372,2393,2413,2433,2453],"xSR":733.5,"ySR":443.3,"xT1":420.09999999999997,"yT1":0,"xT2":1046.8999999999999,"yT2":0,"toosoon":0,"cond_shown":"Congruent","ratio_trial":300,"L_num":3,"L_den":6,"R_num":4,"R_den":5,"correct_side":2,"subjID":"MariaAlejandraRamosJaimes12","gender":"1","school":"6","age":"11"},{"start_time":1551793995802,"click_time":1551793998237,"finger_time":1551793997517,"fix_duration":1024.5715877808207,"trial":7,"RT":1715,"MT":720,"sideResp":1,"stimulus":[],"xmouse":[771,771,771,771,771,771,771,771,771,771,771,771,771,771,771,771,771,771,771,771,771,771,771,771,771,771,771,771,771,771,771,771,771,771,771,771,771,771,771,771,771,771,771,771,771,771,771,771,771,771,771,771,771,771,771,771,771,771,771,771,771,771,771,771,771,771,771,771,771,771,771,771,771,771,771,771,771,771,771,771,771,771,771,787,805,849,870,855,845,845,845,845,837,835,830,821,818,817,801,789,778,771,771,750,720,720,720,641,604,577,577,577,577,577,577,577,577,577,577,577,577,478],"ymouse":[486,486,486,486,486,486,486,486,486,486,486,486,486,486,486,486,486,486,486,486,486,486,486,486,486,486,486,486,486,486,486,486,486,486,486,486,486,486,486,486,486,486,486,486,486,486,486,486,486,486,486,486,486,486,486,486,486,486,486,486,486,486,486,486,486,486,486,486,486,486,486,486,486,486,486,486,486,486,486,486,486,486,486,479,472,449,427,260,140,138,138,138,126,124,120,114,112,112,112,112,113,113,113,103,90,90,90,48,25,8,8,8,8,8,8,8,8,8,8,8,8,9],"timestamp_mouse":[15,36,55,74,95,116,135,155,176,195,216,234,255,275,295,315,335,354,375,395,414,435,455,476,494,515,535,555,575,595,616,634,654,674,696,716,735,755,775,795,815,835,855,875,896,914,936,955,976,995,1016,1034,1056,1075,1095,1115,1136,1155,1175,1196,1216,1235,1256,1275,1295,1316,1335,1355,1376,1395,1414,1434,1455,1476,1495,1516,1534,1555,1576,1595,1615,1635,1655,1676,1695,1715,1735,1754,1775,1795,1815,1836,1855,1875,1895,1916,1936,1955,1976,1995,2015,2035,2054,2076,2095,2116,2135,2156,2175,2194,2215,2235,2255,2276,2295,2316,2335,2355,2376,2396,2416,2435],"xSR":733.5,"ySR":443.3,"xT1":420.09999999999997,"yT1":0,"xT2":1046.8999999999999,"yT2":0,"toosoon":0,"cond_shown":"Incongruent","ratio_trial":200,"L_num":14,"L_den":30,"R_num":6,"R_den":9,"correct_side":2,"subjID":"MariaAlejandraRamosJaimes12","gender":"1","school":"6","age":"11"},{"start_time":1551794001378,"click_time":1551794002978,"finger_time":1551794002298,"fix_duration":1338.0109558173333,"trial":8,"RT":920,"MT":680,"sideResp":1,"stimulus":[],"xmouse":[819,819,819,819,819,819,819,819,819,819,819,819,819,819,819,819,819,819,819,819,819,819,819,819,819,819,819,819,819,819,819,819,819,819,819,819,819,819,819,819,819,819,819,819,818,817,816,816,815,810,802,799,799,793,774,760,742,742,719,688,688,679,662,650,633,625,625,625,625,610,608,605,599,593,582,576,569,567,562,532,513],"ymouse":[464,464,464,464,464,464,464,464,464,464,464,464,464,464,464,464,464,464,464,464,464,464,464,463,463,463,463,463,463,463,463,463,463,463,463,463,463,463,463,463,463,462,461,457,450,447,442,438,429,400,381,370,370,349,301,268,223,222,189,157,157,153,144,138,135,135,135,135,134,130,129,129,125,119,107,100,94,93,90,62,37],"timestamp_mouse":[1,20,40,59,82,100,120,139,159,179,198,220,240,260,279,299,318,339,359,380,399,420,440,459,479,499,519,539,559,580,599,620,639,659,679,699,720,738,759,779,799,819,839,859,879,900,920,939,960,978,998,1019,1039,1060,1080,1100,1119,1139,1160,1179,1199,1219,1239,1260,1279,1299,1319,1338,1359,1378,1399,1419,1440,1460,1480,1500,1520,1539,1559,1579,1600],"xSR":733.5,"ySR":443.3,"xT1":420.09999999999997,"yT1":0,"xT2":1046.8999999999999,"yT2":0,"toosoon":0,"cond_shown":"Congruent","ratio_trial":200,"L_num":12,"L_den":20,"R_num":6,"R_den":15,"correct_side":1,"subjID":"MariaAlejandraRamosJaimes12","gender":"1","school":"6","age":"11"},{"start_time":1551794008071,"click_time":1551794009675,"finger_time":1551794009156,"fix_duration":1231.9161423847945,"trial":9,"RT":1085,"MT":519,"sideResp":2,"stimulus":[],"xmouse":[785,785,785,785,785,785,785,785,785,785,785,785,785,785,785,785,785,785,785,785,785,785,785,785,785,785,785,785,785,785,785,785,785,785,785,785,785,785,785,785,785,785,785,785,785,785,785,785,785,785,785,785,790,825,946,996,998,998,998,1005,1018,1029,1029,1031,1034,1034,1034,1030,1028,1025,1025,1025,1025,1030,1048,1050,1075,1100,1118,1139,1145],"ymouse":[483,483,483,483,483,483,483,483,483,483,483,483,483,483,483,483,483,483,483,483,483,483,483,483,483,483,483,483,483,483,483,483,483,483,483,483,483,483,483,483,483,483,483,483,483,483,483,483,483,483,483,483,479,460,382,357,357,357,356,350,339,330,330,327,288,263,240,223,205,193,193,191,189,182,171,171,162,151,139,118,92],"timestamp_mouse":[8,27,46,68,85,105,125,144,165,185,204,225,245,265,285,305,324,345,365,384,404,424,444,465,484,504,525,545,564,584,604,625,645,665,685,704,726,744,764,784,805,825,845,864,884,905,925,944,965,984,1004,1026,1045,1064,1085,1105,1124,1144,1164,1184,1205,1226,1244,1264,1284,1305,1325,1346,1364,1384,1405,1424,1444,1464,1484,1504,1524,1546,1565,1584,1604],"xSR":733.5,"ySR":443.3,"xT1":420.09999999999997,"yT1":0,"xT2":1046.8999999999999,"yT2":0,"toosoon":0,"cond_shown":"Congruent","ratio_trial":300,"L_num":7,"L_den":14,"R_num":20,"R_den":25,"correct_side":2,"subjID":"MariaAlejandraRamosJaimes12","gender":"1","school":"6","age":"11"},{"start_time":1551794012223,"click_time":1551794015556,"finger_time":1551794015056,"fix_duration":826.3506993963484,"trial":10,"RT":2833,"MT":500,"sideResp":2,"stimulus":[],"xmouse":[784,784,784,784,784,784,784,784,784,784,784,784,784,784,784,784,784,784,784,784,784,784,784,784,784,784,784,784,784,784,784,784,784,784,784,784,784,784,784,784,784,784,784,784,784,784,784,784,784,784,784,784,784,784,784,784,784,784,784,784,784,784,784,784,784,784,784,784,784,784,784,784,784,784,784,784,784,784,784,784,784,784,784,784,784,784,784,784,784,784,784,784,784,784,784,784,784,784,784,784,784,784,784,784,784,784,784,784,784,784,784,784,784,784,784,784,784,784,784,784,784,784,784,784,784,784,784,784,784,784,784,784,784,784,784,784,773,756,745,743,743,744,776,812,819,824,858,874,887,897,902,903,903,907,907,907,911,913,924,944,974,1007,1012,1023,1035,1047,1084],"ymouse":[471,471,471,471,471,471,471,471,471,471,471,471,471,471,471,471,471,471,471,471,471,471,471,471,471,471,471,471,471,471,471,471,471,471,471,471,471,471,471,471,471,471,471,471,471,471,471,471,471,471,471,471,471,471,471,471,471,471,471,471,471,471,471,471,471,471,471,471,471,471,471,471,471,471,471,471,471,471,471,471,471,471,471,471,471,471,471,471,471,471,471,471,471,471,471,471,471,471,471,471,471,471,471,471,471,471,471,471,471,471,471,471,471,471,471,471,471,471,471,471,471,471,471,471,471,471,471,471,471,471,471,471,471,471,471,471,465,455,445,445,444,443,430,416,413,410,383,370,347,330,318,317,317,314,314,314,306,303,293,279,254,201,190,175,155,129,70],"timestamp_mouse":[13,33,53,73,92,113,133,153,173,192,212,233,253,272,292,312,333,352,372,392,412,432,453,472,493,513,533,553,572,593,613,632,653,672,692,712,732,752,772,792,812,833,852,872,894,912,934,952,973,993,1012,1032,1053,1073,1093,1112,1132,1152,1173,1194,1213,1232,1252,1273,1293,1313,1332,1352,1372,1392,1413,1433,1453,1472,1494,1513,1532,1552,1573,1593,1613,1633,1653,1674,1693,1713,1733,1753,1773,1792,1813,1832,1853,1872,1892,1913,1932,1953,1972,1992,2012,2033,2053,2073,2094,2113,2132,2153,2172,2192,2213,2232,2253,2274,2293,2313,2333,2353,2373,2393,2412,2432,2453,2472,2492,2513,2532,2554,2573,2592,2613,2632,2653,2672,2694,2712,2733,2753,2773,2793,2812,2833,2854,2874,2892,2913,2932,2953,2973,2993,3012,3033,3052,3072,3093,3113,3133,3153,3172,3193,3212,3232,3252,3272,3293,3313,3332],"xSR":733.5,"ySR":443.3,"xT1":420.09999999999997,"yT1":0,"xT2":1046.8999999999999,"yT2":0,"toosoon":0,"cond_shown":"Congruent","ratio_trial":300,"L_num":3,"L_den":12,"R_num":11,"R_den":20,"correct_side":2,"subjID":"MariaAlejandraRamosJaimes12","gender":"1","school":"6","age":"11"},{"start_time":1551794024069,"click_time":1551794026896,"finger_time":1551794025655,"fix_duration":412.4906836293293,"trial":11,"RT":1586,"MT":1241,"sideResp":2,"stimulus":[],"xmouse":[781,781,781,781,781,781,781,781,781,780,780,780,780,780,780,780,780,780,780,780,780,780,780,780,780,780,780,780,780,780,780,780,780,780,780,780,780,780,780,780,780,780,780,780,780,780,780,780,780,780,780,780,780,780,780,780,780,780,780,780,780,780,780,780,780,780,780,780,780,780,780,780,778,766,761,761,761,761,760,739,720,713,691,668,654,654,654,654,654,654,654,654,654,654,654,654,654,654,654,654,654,654,655,655,659,665,674,688,700,729,743,776,783,799,842,847,847,852,862,897,925,960,989,1048,1155,1167,1178,1192,1204,1220,1227,1237,1237,1237,1237,1237,1237,1237,1191,1167,1152,1142],"ymouse":[470,470,470,470,470,470,470,470,470,470,470,470,470,470,470,470,470,470,470,470,470,470,470,470,470,470,470,470,470,470,470,470,470,470,470,470,470,470,470,470,470,470,470,470,470,470,470,470,470,470,470,470,470,470,470,470,470,470,470,470,470,470,470,470,470,470,470,470,470,470,470,470,470,469,469,469,467,464,461,412,374,363,328,288,267,258,252,252,252,252,252,252,252,252,252,252,252,252,252,252,254,254,255,255,255,253,250,242,236,233,233,232,232,232,232,231,231,227,222,217,215,213,210,196,142,132,120,102,81,44,25,3,3,3,3,3,3,3,0,12,19,24],"timestamp_mouse":[10,33,47,66,87,107,127,146,166,186,206,227,246,266,287,307,327,347,367,386,406,428,446,466,486,507,527,548,566,586,607,627,647,668,686,707,727,747,767,786,806,827,846,867,887,906,926,947,967,986,1007,1026,1046,1068,1086,1108,1126,1146,1166,1186,1207,1228,1247,1266,1287,1307,1326,1346,1367,1386,1407,1426,1446,1467,1486,1506,1527,1546,1566,1586,1606,1626,1646,1666,1686,1707,1726,1747,1766,1786,1818,1827,1847,1867,1887,1907,1926,1947,1967,1987,2007,2026,2046,2066,2086,2107,2128,2147,2167,2186,2207,2226,2246,2268,2286,2308,2327,2346,2367,2386,2406,2428,2447,2466,2486,2507,2526,2547,2567,2586,2606,2626,2647,2667,2686,2706,2728,2747,2766,2787,2807,2827],"xSR":733.5,"ySR":443.3,"xT1":420.09999999999997,"yT1":0,"xT2":1046.8999999999999,"yT2":0,"toosoon":0,"cond_shown":"Incongruent","ratio_trial":200,"L_num":3,"L_den":10,"R_num":1,"R_den":2,"correct_side":2,"subjID":"MariaAlejandraRamosJaimes12","gender":"1","school":"6","age":"11"},{"start_time":1551794029207,"click_time":1551794031155,"finger_time":1551794030256,"fix_duration":250,"trial":12,"RT":1049,"MT":899,"sideResp":1,"stimulus":[],"xmouse":[761,761,761,761,761,761,761,761,761,761,761,761,761,761,761,761,761,761,761,761,761,761,761,761,761,761,761,761,761,761,761,761,761,761,761,761,761,761,761,761,761,761,761,761,761,761,761,761,761,761,756,740,704,711,724,725,724,685,683,678,675,675,665,665,660,651,642,622,615,615,601,597,597,597,597,598,599,599,599,599,599,599,596,598,598,596,591,571,566,563,561,557,540,525,513,502,494,487],"ymouse":[488,488,488,488,488,488,488,488,488,488,488,488,488,488,488,488,488,488,488,488,488,488,488,488,488,488,488,488,488,488,488,488,488,488,488,488,488,488,488,488,488,488,488,488,488,488,488,488,488,488,486,480,473,457,437,435,427,345,332,323,317,317,300,300,292,285,277,251,246,246,238,237,237,237,236,236,231,221,221,221,221,219,202,193,193,187,180,155,154,155,155,155,150,141,130,120,111,96],"timestamp_mouse":[9,28,58,68,89,108,128,149,168,189,208,228,248,270,288,309,328,349,368,388,408,428,450,468,490,509,528,548,570,589,610,628,648,668,688,710,728,748,768,788,808,828,849,868,889,909,929,949,968,989,1008,1029,1049,1069,1089,1109,1129,1148,1169,1189,1208,1229,1248,1269,1288,1308,1329,1349,1369,1389,1409,1430,1449,1468,1488,1509,1529,1549,1569,1588,1608,1629,1648,1669,1689,1709,1729,1748,1768,1790,1808,1829,1848,1869,1888,1908,1929,1948],"xSR":733.5,"ySR":443.3,"xT1":420.09999999999997,"yT1":0,"xT2":1046.8999999999999,"yT2":0,"toosoon":0,"cond_shown":"Congruent","ratio_trial":300,"L_num":20,"L_den":25,"R_num":9,"R_den":18,"correct_side":1,"subjID":"MariaAlejandraRamosJaimes12","gender":"1","school":"6","age":"11"},{"start_time":1551794036966,"click_time":1551794038536,"finger_time":1551794038056,"fix_duration":589.4136510035726,"trial":13,"RT":1090,"MT":480,"sideResp":1,"stimulus":[],"xmouse":[771,771,771,771,771,771,771,771,771,771,771,771,771,771,771,771,771,771,771,771,771,771,771,771,771,771,771,771,771,771,771,771,771,771,771,771,771,771,771,771,771,771,771,771,771,771,771,771,771,771,771,771,761,760,684,676,644,630,622,614,612,612,612,612,610,604,598,594,590,587,587,585,580,572,555,548,540,528,508],"ymouse":[503,503,503,503,503,503,503,503,503,503,503,503,503,503,503,503,503,503,503,503,503,503,503,503,503,503,503,503,503,503,503,503,503,503,503,503,503,503,503,503,503,503,503,503,503,503,503,503,503,503,497,486,468,468,390,375,309,261,202,153,141,133,128,123,105,87,68,47,31,26,26,26,25,25,25,25,27,30,36],"timestamp_mouse":[10,35,50,69,89,109,130,149,170,190,209,229,250,270,289,311,329,349,369,389,410,429,450,469,489,509,529,549,569,589,610,629,650,669,690,709,729,749,769,789,809,830,849,870,889,909,929,950,969,990,1010,1031,1050,1070,1090,1110,1129,1149,1170,1189,1210,1230,1250,1269,1289,1309,1329,1349,1369,1389,1410,1430,1449,1470,1489,1510,1529,1549,1570],"xSR":733.5,"ySR":443.3,"xT1":420.09999999999997,"yT1":0,"xT2":1046.8999999999999,"yT2":0,"toosoon":0,"cond_shown":"Incongruent","ratio_trial":100,"L_num":8,"L_den":20,"R_num":1,"R_den":2,"correct_side":2,"subjID":"MariaAlejandraRamosJaimes12","gender":"1","school":"6","age":"11"},{"start_time":1551794043172,"click_time":1551794044936,"finger_time":1551794044797,"fix_duration":1295.8757378236153,"trial":14,"RT":1625,"MT":139,"sideResp":1,"stimulus":[],"xmouse":[788,788,788,788,788,788,788,788,788,788,788,788,788,788,788,788,788,788,788,788,788,788,788,788,788,788,788,788,788,788,788,788,788,788,788,788,788,788,788,788,788,788,788,788,788,788,788,788,788,788,788,788,788,788,788,788,788,788,788,788,788,788,788,788,788,788,788,788,788,788,788,788,788,788,788,788,788,788,788,788,785,756,713,686,540,519,499,470,453],"ymouse":[510,510,510,510,510,510,510,510,510,510,510,510,510,510,510,510,510,510,510,510,510,510,510,510,510,510,510,510,510,510,510,510,510,510,510,510,510,510,510,510,510,510,510,510,510,510,510,510,510,510,510,510,510,510,510,510,510,510,510,510,510,510,510,510,510,510,510,510,510,510,510,510,510,510,510,510,510,510,510,508,487,419,344,316,170,151,134,106,79],"timestamp_mouse":[10,33,43,63,84,103,123,145,164,183,205,223,243,263,284,304,324,344,364,383,403,424,444,463,483,503,523,544,564,584,604,623,644,664,683,704,725,745,763,783,805,823,844,863,884,905,924,944,964,984,1003,1024,1044,1064,1083,1104,1124,1143,1163,1183,1203,1223,1243,1264,1283,1303,1323,1344,1363,1383,1404,1424,1445,1463,1484,1504,1523,1543,1563,1583,1604,1625,1644,1663,1683,1703,1725,1743,1764],"xSR":733.5,"ySR":443.3,"xT1":420.09999999999997,"yT1":0,"xT2":1046.8999999999999,"yT2":0,"toosoon":0,"cond_shown":"Incongruent","ratio_trial":200,"L_num":4,"L_den":5,"R_num":6,"R_den":10,"correct_side":1,"subjID":"MariaAlejandraRamosJaimes12","gender":"1","school":"6","age":"11"},{"start_time":1551794047261,"click_time":1551794049695,"finger_time":1551794049295,"fix_duration":744.5382126836822,"trial":15,"RT":2034,"MT":400,"sideResp":1,"stimulus":[],"xmouse":[784,784,784,784,784,784,784,784,784,784,784,784,784,784,784,784,784,784,784,784,784,784,784,784,784,784,784,784,784,784,784,784,784,784,784,784,784,784,784,784,784,784,784,784,784,784,784,784,784,784,784,784,784,784,784,784,784,784,784,784,784,784,784,784,784,784,784,784,784,784,784,784,784,784,784,784,784,784,784,784,784,784,784,784,784,784,784,784,784,784,784,784,784,784,793,797,798,798,798,799,794,783,780,764,720,697,692,663,642,616,606,604,599,590,590,590,590,590,590,590,526,518],"ymouse":[486,486,486,486,486,486,486,486,486,486,486,486,486,486,486,486,486,486,486,486,486,486,486,486,486,486,486,486,486,486,486,486,486,486,486,486,486,486,486,486,486,486,486,486,486,486,486,486,486,486,486,486,486,486,486,486,486,486,486,486,486,486,486,486,486,486,486,486,486,486,486,486,486,486,486,486,486,486,486,486,486,486,486,486,486,486,486,486,486,486,486,486,486,486,480,477,475,475,475,467,456,443,438,414,337,293,281,225,169,89,56,50,32,5,5,5,5,5,5,5,5,11],"timestamp_mouse":[15,41,55,74,96,115,135,154,174,194,214,234,254,274,294,315,335,355,374,394,415,434,455,475,496,516,535,555,576,595,614,636,654,674,694,716,735,755,775,794,815,835,854,875,895,915,935,956,975,995,1018,1035,1054,1075,1095,1114,1134,1154,1174,1195,1215,1235,1254,1276,1294,1314,1334,1355,1375,1394,1415,1434,1455,1474,1495,1515,1535,1555,1575,1595,1614,1635,1655,1675,1694,1715,1734,1755,1775,1795,1815,1835,1855,1876,1895,1914,1934,1955,1974,1994,2015,2034,2054,2076,2095,2114,2135,2155,2175,2194,2216,2236,2254,2275,2294,2314,2335,2354,2375,2394,2415,2434],"xSR":733.5,"ySR":443.3,"xT1":420.09999999999997,"yT1":0,"xT2":1046.8999999999999,"yT2":0,"toosoon":0,"cond_shown":"Incongruent","ratio_trial":300,"L_num":2,"L_den":4,"R_num":6,"R_den":30,"correct_side":1,"subjID":"MariaAlejandraRamosJaimes12","gender":"1","school":"6","age":"11"},{"start_time":1551794052518,"click_time":1551794054675,"finger_time":1551794054257,"fix_duration":840.786824202474,"trial":16,"RT":1739,"MT":418,"sideResp":1,"stimulus":[],"xmouse":[781,781,781,781,781,781,781,781,781,781,781,781,781,781,781,781,781,781,781,781,781,781,781,781,781,781,781,781,781,781,781,781,781,781,781,781,781,781,781,781,781,781,781,781,781,781,781,781,781,781,781,781,781,781,781,781,781,781,781,781,781,781,781,781,781,781,781,781,781,781,781,781,781,781,781,781,781,781,781,779,776,772,758,747,743,741,730,726,717,681,658,648,648,648,648,648,648,648,648,648,648,648,648,648,648,648,523,515],"ymouse":[465,465,465,465,465,465,465,465,465,465,465,465,465,465,465,465,465,465,465,465,465,465,465,465,465,465,465,465,465,465,465,465,465,465,465,465,465,465,465,465,465,465,465,465,465,465,465,465,465,465,465,465,465,465,465,465,465,465,465,465,465,465,465,465,465,465,465,465,465,465,465,465,465,465,465,465,465,465,465,465,465,465,465,463,458,446,406,388,367,265,174,30,30,30,30,30,30,30,30,30,30,30,30,30,30,30,17,33],"timestamp_mouse":[17,37,57,78,97,117,138,158,178,197,217,238,257,277,297,318,338,357,377,399,417,437,458,477,498,518,537,557,579,597,617,639,657,678,697,717,738,758,778,798,818,837,858,878,898,917,937,957,977,997,1017,1039,1057,1077,1099,1117,1138,1157,1178,1197,1218,1238,1258,1278,1298,1318,1338,1359,1378,1397,1417,1437,1457,1477,1498,1517,1538,1558,1578,1597,1618,1637,1658,1677,1697,1718,1739,1757,1777,1797,1818,1837,1857,1877,1897,1917,1938,1959,1978,1997,2018,2037,2057,2078,2097,2118,2137,2157],"xSR":733.5,"ySR":443.3,"xT1":420.09999999999997,"yT1":0,"xT2":1046.8999999999999,"yT2":0,"toosoon":0,"cond_shown":"Congruent","ratio_trial":200,"L_num":16,"L_den":30,"R_num":9,"R_den":27,"correct_side":1,"subjID":"MariaAlejandraRamosJaimes12","gender":"1","school":"6","age":"11"},{"start_time":1551794057797,"click_time":1551794059775,"finger_time":1551794059137,"fix_duration":1420.9531423675396,"trial":17,"RT":1340,"MT":638,"sideResp":2,"stimulus":[],"xmouse":[800,800,800,800,800,800,800,800,800,800,800,800,800,800,800,800,800,800,800,800,800,800,800,800,800,800,800,800,800,800,800,800,800,800,800,800,800,800,800,800,800,800,800,800,800,800,800,800,800,800,800,800,800,800,800,796,787,769,758,758,758,766,783,795,808,832,842,884,931,974,1008,1013,1026,1029,1031,1031,1033,1047,1056,1064,1068,1069,1070,1070,1070,1067,1056,1024,1023,1023,1024,1032,1046,1049,1051,1054,1053,1064,1070],"ymouse":[518,518,518,518,518,518,518,518,518,518,518,518,518,518,518,518,518,518,518,518,518,518,518,518,518,518,518,518,518,518,518,518,518,518,518,518,518,518,518,518,518,518,518,518,518,518,518,518,518,518,518,518,518,518,518,517,517,515,515,515,515,513,511,510,510,503,499,479,455,428,396,391,362,352,344,338,333,300,280,261,250,246,245,245,244,245,252,277,280,280,280,274,241,220,196,173,156,109,91],"timestamp_mouse":[20,38,59,78,99,120,138,158,178,198,218,239,259,278,300,319,338,359,379,399,419,439,459,478,499,520,538,558,578,599,620,638,658,680,698,718,739,758,779,798,819,839,858,880,900,918,938,958,980,999,1019,1038,1060,1079,1099,1118,1138,1159,1178,1198,1218,1239,1259,1278,1299,1318,1340,1358,1379,1399,1418,1439,1459,1479,1498,1518,1540,1558,1580,1599,1619,1638,1658,1678,1699,1719,1740,1758,1779,1798,1818,1839,1859,1878,1900,1918,1940,1959,1978],"xSR":733.5,"ySR":443.3,"xT1":420.09999999999997,"yT1":0,"xT2":1046.8999999999999,"yT2":0,"toosoon":0,"cond_shown":"Incongruent","ratio_trial":300,"L_num":4,"L_den":20,"R_num":2,"R_den":4,"correct_side":2,"subjID":"MariaAlejandraRamosJaimes12","gender":"1","school":"6","age":"11"},{"start_time":1551794062216,"click_time":1551794063395,"finger_time":1551794063155,"fix_duration":1199.2685245204807,"trial":18,"RT":939,"MT":240,"sideResp":1,"stimulus":[],"xmouse":[779,779,779,779,779,779,779,779,779,779,779,779,779,779,779,779,779,779,779,779,779,779,779,779,779,779,779,779,779,779,779,779,779,779,779,779,779,779,779,779,779,779,778,776,774,773,772,789,784,768,746,725,687,673,651,632,621,569,542,515],"ymouse":[478,478,478,478,478,478,478,478,478,478,478,478,478,478,478,478,478,478,478,478,478,478,478,478,478,478,478,478,478,478,478,478,478,478,478,478,478,478,478,478,478,478,479,480,481,481,478,383,341,304,262,225,152,130,102,83,74,43,30,23],"timestamp_mouse":[4,38,39,60,79,99,120,139,159,181,199,219,239,261,280,299,320,340,359,380,400,419,439,460,479,499,519,540,560,580,601,621,641,660,681,699,719,740,760,779,799,819,839,860,880,899,920,939,960,979,1000,1019,1039,1059,1079,1100,1119,1139,1160,1179],"xSR":733.5,"ySR":443.3,"xT1":420.09999999999997,"yT1":0,"xT2":1046.8999999999999,"yT2":0,"toosoon":0,"cond_shown":"Congruent","ratio_trial":200,"L_num":11,"L_den":22,"R_num":3,"R_den":10,"correct_side":1,"subjID":"MariaAlejandraRamosJaimes12","gender":"1","school":"6","age":"11"},{"start_time":1551794065471,"click_time":1551794066636,"finger_time":1551794066455,"fix_duration":594.9476405412834,"trial":19,"RT":984,"MT":181,"sideResp":1,"stimulus":[],"xmouse":[807,807,807,807,807,807,807,807,807,807,807,807,807,807,807,807,807,807,807,807,807,807,807,807,807,807,807,807,807,807,807,807,807,807,807,807,807,807,807,807,807,807,806,803,790,786,783,782,779,757,733,726,713,703,682,661,645,590,479],"ymouse":[470,470,470,470,470,470,470,470,470,470,470,470,470,470,470,470,470,470,470,470,470,470,470,470,470,470,470,470,470,470,470,470,470,470,470,470,470,470,470,470,470,470,471,471,471,470,468,465,457,419,382,371,352,335,299,265,237,163,26],"timestamp_mouse":[10,31,46,65,84,105,124,144,165,185,205,226,245,264,284,305,324,344,366,384,404,424,444,464,486,504,525,545,565,584,604,624,645,665,684,704,725,745,764,785,804,824,844,864,884,904,925,944,965,984,1004,1025,1045,1065,1084,1104,1125,1144,1165],"xSR":733.5,"ySR":443.3,"xT1":420.09999999999997,"yT1":0,"xT2":1046.8999999999999,"yT2":0,"toosoon":0,"cond_shown":"Congruent","ratio_trial":100,"L_num":8,"L_den":16,"R_num":2,"R_den":5,"correct_side":1,"subjID":"MariaAlejandraRamosJaimes12","gender":"1","school":"6","age":"11"},{"start_time":1551794074059,"click_time":1551794074915,"finger_time":1551794074816,"fix_duration":721.8894216382279,"trial":20,"RT":757,"MT":99,"sideResp":1,"stimulus":[],"xmouse":[789,789,789,789,789,789,789,789,789,789,789,789,789,789,789,789,789,789,789,789,789,789,789,789,789,789,788,788,788,787,787,787,787,786,785,782,775,773,752,659,584,521,469],"ymouse":[490,490,490,490,490,490,490,490,490,490,490,490,490,490,490,490,490,490,490,490,490,490,490,490,490,490,489,489,488,485,483,482,481,480,475,465,448,442,408,268,164,82,14],"timestamp_mouse":[16,48,56,77,96,116,137,156,176,196,216,236,257,275,296,316,336,356,376,397,416,437,457,477,496,517,537,557,577,597,616,637,656,677,696,717,737,757,776,796,817,836,856],"xSR":733.5,"ySR":443.3,"xT1":420.09999999999997,"yT1":0,"xT2":1046.8999999999999,"yT2":0,"toosoon":0,"cond_shown":"Congruent","ratio_trial":300,"L_num":4,"L_den":5,"R_num":2,"R_den":4,"correct_side":1,"subjID":"MariaAlejandraRamosJaimes12","gender":"1","school":"6","age":"11"},{"start_time":1551794079497,"click_time":1551794081256,"finger_time":1551794080855,"fix_duration":1280.0281937581544,"trial":21,"RT":1358,"MT":401,"sideResp":1,"stimulus":[],"xmouse":[794,794,794,794,794,794,794,794,794,794,794,794,794,794,794,794,794,794,794,794,794,794,794,794,794,794,794,794,794,794,794,794,794,794,794,794,794,794,794,794,794,794,794,794,794,794,794,794,794,794,794,794,794,794,794,794,794,794,794,794,794,794,793,793,793,792,790,758,734,711,693,688,687,686,685,684,681,673,670,666,656,632,599,580,560,550,545,511],"ymouse":[478,478,478,478,478,478,478,478,478,478,478,478,478,478,478,478,478,478,478,478,478,478,478,478,478,478,478,478,478,478,478,478,478,478,478,478,478,478,478,478,478,478,478,478,478,478,478,478,478,478,478,478,478,478,478,478,478,478,478,478,478,478,478,478,478,476,472,418,376,322,277,265,256,252,249,245,241,229,225,218,207,190,166,152,135,128,122,90],"timestamp_mouse":[18,37,59,79,99,118,139,158,179,198,218,239,259,278,298,318,338,359,379,399,418,439,458,479,498,518,538,558,578,599,619,638,659,678,699,719,738,758,778,799,818,839,858,878,898,919,938,958,979,998,1019,1039,1058,1078,1098,1118,1137,1158,1178,1198,1218,1238,1258,1278,1298,1318,1338,1358,1378,1399,1419,1439,1458,1477,1498,1519,1538,1557,1578,1599,1618,1638,1658,1678,1699,1718,1738,1759],"xSR":733.5,"ySR":443.3,"xT1":420.09999999999997,"yT1":0,"xT2":1046.8999999999999,"yT2":0,"toosoon":0,"cond_shown":"Incongruent","ratio_trial":300,"L_num":7,"L_den":10,"R_num":8,"R_den":20,"correct_side":1,"subjID":"MariaAlejandraRamosJaimes12","gender":"1","school":"6","age":"11"},{"start_time":1551794083047,"click_time":1551794084755,"finger_time":1551794084395,"fix_duration":390.2028101411218,"trial":22,"RT":1348,"MT":360,"sideResp":2,"stimulus":[],"xmouse":[806,806,806,806,806,806,806,806,806,806,806,806,806,806,805,804,803,803,803,803,803,803,803,803,803,803,803,803,803,803,803,803,803,803,803,803,803,803,803,803,803,803,803,803,802,802,802,802,802,801,801,801,801,801,801,801,801,801,801,801,801,801,801,801,804,811,819,839,873,934,1036,1071,1086,1100,1105,1116,1127,1140,1153,1164,1168,1167,1164,1160,1153,1141],"ymouse":[508,508,508,508,508,508,508,508,508,508,508,508,508,508,508,508,508,508,508,508,508,508,508,508,508,508,508,508,508,508,508,508,508,508,508,508,508,508,508,508,508,508,508,508,508,509,509,509,509,509,509,509,509,509,509,509,509,509,509,509,509,509,509,509,509,507,503,492,468,422,325,276,234,204,199,185,177,167,154,142,122,116,110,106,103,99],"timestamp_mouse":[10,41,49,69,88,108,128,148,168,188,208,228,249,269,288,309,328,348,368,388,408,428,449,469,488,508,529,548,569,587,608,629,649,668,689,708,728,749,768,788,808,828,848,868,888,908,928,948,968,988,1008,1029,1048,1068,1088,1108,1128,1148,1169,1189,1208,1229,1248,1268,1290,1308,1329,1348,1369,1389,1409,1429,1449,1468,1489,1508,1527,1548,1568,1588,1608,1629,1647,1669,1688,1708],"xSR":733.5,"ySR":443.3,"xT1":420.09999999999997,"yT1":0,"xT2":1046.8999999999999,"yT2":0,"toosoon":0,"cond_shown":"Congruent","ratio_trial":300,"L_num":4,"L_den":20,"R_num":13,"R_den":26,"correct_side":2,"subjID":"MariaAlejandraRamosJaimes12","gender":"1","school":"6","age":"11"},{"start_time":1551794088464,"click_time":1551794090395,"finger_time":1551794089695,"fix_duration":1186.37008784864,"trial":23,"RT":1231,"MT":700,"sideResp":1,"stimulus":[],"xmouse":[804,804,804,804,804,804,804,804,804,804,804,804,804,804,804,804,804,804,804,804,804,804,804,804,804,804,804,804,804,804,804,804,804,804,804,804,804,804,804,804,804,804,804,804,804,804,804,804,804,804,804,804,804,804,804,804,805,800,787,753,735,716,700,687,686,686,686,683,681,674,668,663,659,652,637,631,618,617,609,603,603,603,596,580,569,565,564,562,560,549,544,538,533,530,526,521,516],"ymouse":[512,512,512,512,512,512,512,512,512,512,512,512,512,512,512,512,512,512,512,512,512,512,512,512,512,512,512,512,512,512,512,512,512,512,512,512,512,512,512,512,512,512,512,512,512,512,512,512,512,512,512,512,512,512,512,512,511,505,494,464,447,432,414,391,375,359,344,329,322,301,283,267,256,244,220,214,208,207,205,202,202,202,196,182,166,159,153,149,144,118,103,90,79,73,68,66,64],"timestamp_mouse":[12,37,51,71,91,112,131,152,171,191,211,231,252,271,291,310,332,352,372,391,411,431,451,472,491,510,532,552,571,592,611,632,651,672,691,712,731,751,772,792,811,831,851,871,892,915,931,951,971,990,1012,1031,1051,1072,1091,1112,1131,1151,1172,1191,1212,1230,1251,1271,1291,1312,1331,1351,1372,1392,1411,1431,1452,1472,1491,1512,1531,1551,1572,1591,1611,1631,1651,1672,1691,1711,1731,1752,1772,1791,1812,1831,1852,1872,1891,1911,1931],"xSR":733.5,"ySR":443.3,"xT1":420.09999999999997,"yT1":0,"xT2":1046.8999999999999,"yT2":0,"toosoon":0,"cond_shown":"Incongruent","ratio_trial":200,"L_num":7,"L_den":10,"R_num":12,"R_den":24,"correct_side":1,"subjID":"MariaAlejandraRamosJaimes12","gender":"1","school":"6","age":"11"},{"start_time":1551794094711,"click_time":1551794096855,"finger_time":1551794096376,"fix_duration":1434.5577441616235,"trial":24,"RT":1665,"MT":479,"sideResp":1,"stimulus":[],"xmouse":[788,788,788,788,788,788,788,788,788,788,788,788,788,788,788,788,788,788,788,788,788,788,788,788,788,788,788,788,788,788,788,788,788,788,788,788,788,788,788,788,788,788,788,788,788,788,788,788,788,788,788,788,788,788,788,788,788,788,788,788,788,788,788,788,788,788,788,788,788,788,788,788,788,788,788,788,788,788,788,786,780,776,744,733,724,716,713,700,696,687,679,678,667,666,662,660,654,614,597,581,570,569,559,551,539,528,522,504],"ymouse":[507,507,507,507,507,507,507,507,507,507,507,507,507,507,507,507,507,507,507,507,507,507,507,507,507,507,507,507,507,507,507,507,507,507,507,507,507,507,507,507,507,507,507,507,507,507,507,507,507,507,507,507,507,507,507,507,507,507,507,507,507,507,507,507,507,507,507,507,507,507,507,507,507,507,507,507,507,504,502,500,498,497,477,465,455,441,433,393,375,349,326,323,266,247,189,177,162,111,106,104,104,104,103,98,88,81,77,67],"timestamp_mouse":[10,24,44,64,83,103,125,145,165,185,204,224,244,264,284,304,324,344,364,384,404,425,444,464,485,504,525,544,564,584,604,624,644,664,685,704,724,744,763,785,805,825,843,864,884,904,924,944,964,984,1004,1024,1044,1065,1085,1105,1124,1144,1164,1185,1204,1223,1244,1264,1285,1304,1324,1345,1364,1384,1404,1425,1444,1465,1484,1505,1524,1544,1564,1584,1604,1624,1644,1665,1684,1704,1725,1745,1764,1785,1804,1824,1844,1865,1884,1904,1925,1943,1965,1984,2005,2024,2045,2064,2085,2104,2125,2144],"xSR":733.5,"ySR":443.3,"xT1":420.09999999999997,"yT1":0,"xT2":1046.8999999999999,"yT2":0,"toosoon":0,"cond_shown":"Congruent","ratio_trial":100,"L_num":3,"L_den":6,"R_num":2,"R_den":5,"correct_side":1,"subjID":"MariaAlejandraRamosJaimes12","gender":"1","school":"6","age":"11"},{"start_time":1551794098107,"click_time":1551794099755,"finger_time":1551794099315,"fix_duration":250,"trial":25,"RT":1208,"MT":440,"sideResp":2,"stimulus":[],"xmouse":[780,780,780,780,780,780,780,780,782,782,782,782,782,782,783,783,783,783,783,783,783,783,783,783,783,783,783,783,783,783,783,783,783,783,783,783,783,783,783,783,783,783,783,783,783,783,783,783,783,783,783,783,783,783,783,783,783,787,797,818,879,1016,1174,1210,1236,1249,1256,1258,1259,1262,1265,1267,1270,1271,1271,1269,1262,1231,1210,1189,1167,1152,1129],"ymouse":[500,500,500,500,500,498,497,495,493,492,492,492,492,492,491,491,491,491,491,491,491,491,491,491,491,491,491,491,491,491,491,491,491,491,491,491,491,491,491,491,491,491,491,491,491,491,491,491,491,491,491,491,491,491,491,491,490,487,481,470,439,374,293,261,225,190,163,141,128,120,110,105,89,87,86,86,85,85,85,85,85,82,77],"timestamp_mouse":[16,28,48,68,89,108,128,148,168,188,208,228,248,269,288,308,328,348,368,388,409,428,447,469,488,508,528,548,569,589,609,628,648,667,688,709,729,748,768,789,808,828,848,868,889,908,928,948,968,988,1008,1028,1048,1068,1089,1109,1129,1149,1168,1189,1208,1229,1248,1268,1288,1308,1328,1348,1369,1389,1409,1429,1448,1469,1488,1508,1528,1549,1568,1589,1608,1628,1648],"xSR":733.5,"ySR":443.3,"xT1":420.09999999999997,"yT1":0,"xT2":1046.8999999999999,"yT2":0,"toosoon":0,"cond_shown":"Incongruent","ratio_trial":200,"L_num":14,"L_den":30,"R_num":6,"R_den":9,"correct_side":2,"subjID":"MariaAlejandraRamosJaimes12","gender":"1","school":"6","age":"11"},{"start_time":1551794102512,"click_time":1551794104416,"finger_time":1551794103955,"fix_duration":395.3971543881033,"trial":26,"RT":1443,"MT":461,"sideResp":1,"stimulus":[],"xmouse":[788,788,788,788,788,788,788,788,788,788,788,788,788,788,788,788,788,788,788,788,788,788,788,788,788,788,788,788,788,788,788,788,788,788,788,788,788,788,788,788,788,788,788,788,788,788,788,788,788,788,788,788,788,788,788,788,788,788,788,788,788,788,788,788,788,791,792,792,792,792,790,783,767,745,731,720,697,654,630,616,614,604,602,602,602,601,600,596,592,592,587,573,553,547,535,520],"ymouse":[478,478,478,478,478,478,478,478,478,478,478,478,478,478,478,478,478,478,478,478,478,478,478,478,478,478,478,478,478,478,478,478,478,478,478,478,478,478,478,478,478,478,478,478,478,478,478,478,478,478,478,478,478,478,478,478,478,478,478,478,478,478,478,478,478,480,481,484,484,484,483,471,425,375,335,315,280,232,209,194,192,176,163,161,157,150,143,129,121,121,114,99,78,73,68,65],"timestamp_mouse":[10,23,43,64,84,103,123,144,163,183,203,224,243,264,284,304,323,342,363,383,404,424,444,463,483,504,523,544,563,583,604,623,644,663,684,702,724,743,763,783,803,823,844,863,884,904,923,943,963,984,1003,1023,1043,1063,1083,1103,1123,1144,1164,1183,1203,1222,1242,1262,1283,1304,1323,1343,1364,1384,1403,1423,1443,1463,1483,1503,1523,1543,1563,1583,1603,1624,1643,1663,1684,1703,1724,1743,1764,1784,1804,1824,1843,1864,1883,1904],"xSR":733.5,"ySR":443.3,"xT1":420.09999999999997,"yT1":0,"xT2":1046.8999999999999,"yT2":0,"toosoon":0,"cond_shown":"Congruent","ratio_trial":300,"L_num":11,"L_den":22,"R_num":4,"R_den":20,"correct_side":1,"subjID":"MariaAlejandraRamosJaimes12","gender":"1","school":"6","age":"11"},{"start_time":1551794107227,"click_time":1551794109095,"finger_time":1551794108495,"fix_duration":250,"trial":27,"RT":1268,"MT":600,"sideResp":2,"stimulus":[],"xmouse":[791,791,791,791,791,791,791,791,791,791,791,791,791,791,791,791,791,791,791,791,791,791,791,791,791,791,791,791,791,791,791,791,791,791,791,791,791,791,791,791,791,791,791,791,791,791,791,791,791,791,791,791,791,791,791,791,791,791,792,793,795,805,811,836,836,849,910,936,956,975,986,1006,1018,1034,1049,1066,1079,1085,1088,1091,1093,1096,1096,1096,1096,1096,1096,1096,1096,1096,1096,1106,1110,1115],"ymouse":[506,506,506,506,506,506,506,506,506,506,506,506,506,506,506,506,506,506,506,506,506,506,506,506,506,506,506,506,506,506,506,506,506,506,506,506,506,506,506,506,506,506,506,506,506,506,506,506,506,505,504,503,503,503,502,501,500,500,500,500,499,495,492,481,478,466,414,393,377,365,353,331,320,309,297,284,267,257,248,242,235,223,216,204,193,183,162,158,156,155,150,121,101,79],"timestamp_mouse":[9,28,52,68,88,108,127,148,168,188,209,228,248,269,288,308,328,348,368,389,409,428,448,468,488,508,528,548,569,588,608,628,650,668,688,709,727,748,768,788,809,829,848,868,889,909,928,948,968,988,1009,1027,1049,1068,1089,1109,1128,1148,1169,1188,1208,1229,1248,1267,1289,1309,1328,1349,1368,1389,1408,1428,1449,1469,1488,1509,1528,1549,1568,1588,1608,1628,1649,1668,1688,1708,1727,1748,1769,1789,1809,1828,1849,1867],"xSR":733.5,"ySR":443.3,"xT1":420.09999999999997,"yT1":0,"xT2":1046.8999999999999,"yT2":0,"toosoon":0,"cond_shown":"Congruent","ratio_trial":300,"L_num":8,"L_den":15,"R_num":10,"R_den":12,"correct_side":2,"subjID":"MariaAlejandraRamosJaimes12","gender":"1","school":"6","age":"11"},{"start_time":1551794113006,"click_time":1551794114215,"finger_time":1551794113795,"fix_duration":1449.2936376680584,"trial":28,"RT":789,"MT":420,"sideResp":1,"stimulus":[],"xmouse":[784,782,781,781,781,781,781,781,781,781,781,781,781,781,781,781,781,783,783,783,783,783,783,783,783,783,783,783,783,783,783,783,783,783,784,784,783,771,762,753,743,733,700,683,671,664,656,628,618,613,612,610,602,595,583,583,570,540,529,521,515],"ymouse":[495,495,495,495,495,495,495,495,495,495,495,495,495,495,495,494,493,492,492,492,492,492,492,492,492,492,492,492,492,492,492,492,492,492,491,491,485,470,458,443,425,403,328,294,262,242,219,171,160,153,149,145,132,118,106,105,97,86,86,86,86],"timestamp_mouse":[9,37,49,69,89,109,129,149,170,189,210,229,249,269,289,310,329,349,369,388,409,430,448,469,488,510,529,549,570,589,609,629,649,670,690,710,729,749,769,789,810,829,849,868,889,909,929,949,970,989,1009,1030,1049,1069,1090,1109,1129,1149,1169,1189,1209],"xSR":733.5,"ySR":443.3,"xT1":420.09999999999997,"yT1":0,"xT2":1046.8999999999999,"yT2":0,"toosoon":0,"cond_shown":"Incongruent","ratio_trial":300,"L_num":4,"L_den":5,"R_num":6,"R_den":12,"correct_side":1,"subjID":"MariaAlejandraRamosJaimes12","gender":"1","school":"6","age":"11"},{"start_time":1551794117841,"click_time":1551794119856,"finger_time":1551794118854,"fix_duration":1023.8418410419207,"trial":29,"RT":1013,"MT":1002,"sideResp":2,"stimulus":[],"xmouse":[812,812,812,812,812,812,812,812,812,812,812,812,812,812,812,812,812,812,812,812,812,812,812,812,812,812,812,812,812,812,812,812,812,812,812,812,812,812,812,812,812,812,812,812,812,812,815,818,823,831,849,857,867,872,873,885,886,887,887,887,888,888,888,888,891,917,963,1004,1038,1069,1141,1163,1168,1170,1171,1170,1169,1168,1166,1163,1155,1152,1152,1150,1150,1150,1150,1150,1150,1150,1149,1149,1150,1151,1151,1151,1151,1150,1149,1147,1134],"ymouse":[500,500,500,500,500,500,500,500,500,500,500,500,500,500,500,500,500,500,500,499,499,497,497,497,497,497,497,497,497,497,497,497,497,497,497,497,497,497,497,497,497,497,497,497,497,497,493,488,482,470,445,435,427,423,419,405,401,400,400,399,397,396,394,390,381,350,322,304,288,271,237,227,222,214,205,196,193,189,182,177,167,165,163,159,155,149,147,143,139,133,120,113,104,99,95,87,84,80,78,76,70],"timestamp_mouse":[14,45,54,75,94,115,134,155,174,194,213,234,255,274,295,314,335,354,375,394,415,434,454,474,494,514,535,554,574,595,614,634,654,675,694,714,734,754,774,795,814,834,854,875,894,914,935,955,975,994,1013,1035,1055,1074,1095,1114,1134,1154,1174,1194,1214,1234,1254,1274,1294,1314,1335,1354,1374,1394,1415,1434,1455,1474,1494,1513,1534,1554,1574,1594,1615,1634,1655,1674,1694,1714,1734,1755,1775,1794,1814,1835,1854,1874,1895,1914,1935,1954,1974,1994,2015],"xSR":733.5,"ySR":443.3,"xT1":420.09999999999997,"yT1":0,"xT2":1046.8999999999999,"yT2":0,"toosoon":0,"cond_shown":"Congruent","ratio_trial":100,"L_num":7,"L_den":14,"R_num":15,"R_den":25,"correct_side":2,"subjID":"MariaAlejandraRamosJaimes12","gender":"1","school":"6","age":"11"},{"start_time":1551794122225,"click_time":1551794123776,"finger_time":1551794122955,"fix_duration":848.2137246460518,"trial":30,"RT":730,"MT":821,"sideResp":2,"stimulus":[],"xmouse":[802,802,802,802,802,802,802,802,802,802,802,802,802,802,802,802,802,802,802,802,802,802,802,802,802,802,802,802,802,802,802,802,802,802,799,790,744,726,718,716,716,716,716,716,716,716,717,719,723,728,733,753,763,770,777,779,781,781,781,781,781,781,781,781,781,781,782,787,794,803,816,847,871,904,949,996,1097,1123],"ymouse":[517,517,517,517,517,517,517,517,517,517,517,517,517,517,517,517,517,517,517,517,517,517,517,517,517,517,517,517,517,517,517,517,515,513,503,490,419,398,383,375,374,374,374,374,374,374,375,377,382,389,398,423,436,449,458,463,464,464,464,464,464,464,464,464,464,464,464,458,447,434,416,384,366,344,307,253,127,91],"timestamp_mouse":[10,42,50,70,91,111,130,151,169,190,210,231,250,271,290,310,330,351,370,390,410,430,450,470,491,511,530,550,570,591,610,631,650,671,691,711,730,750,770,790,809,830,850,871,890,911,930,950,970,991,1010,1030,1050,1070,1089,1111,1131,1150,1170,1191,1210,1231,1250,1270,1291,1310,1330,1350,1370,1390,1410,1430,1450,1470,1490,1511,1529,1551],"xSR":733.5,"ySR":443.3,"xT1":420.09999999999997,"yT1":0,"xT2":1046.8999999999999,"yT2":0,"toosoon":0,"cond_shown":"Congruent","ratio_trial":200,"L_num":21,"L_den":30,"R_num":2,"R_den":4,"correct_side":1,"subjID":"MariaAlejandraRamosJaimes12","gender":"1","school":"6","age":"11"},{"start_time":1551794127638,"click_time":1551794130575,"finger_time":1551794129576,"fix_duration":541.5222943157048,"trial":31,"RT":1938,"MT":999,"sideResp":2,"stimulus":[],"xmouse":[789,789,789,789,789,787,787,787,787,786,784,784,784,784,784,784,784,784,784,784,784,784,784,784,784,784,784,784,784,784,784,784,784,783,783,782,782,782,782,782,782,782,782,782,782,782,782,782,782,782,782,782,782,782,782,782,782,782,782,782,782,783,783,783,783,783,783,783,783,783,783,783,783,783,783,783,783,783,783,782,782,782,782,782,782,782,782,782,782,782,782,782,782,782,784,802,816,835,855,866,877,898,922,944,954,986,995,1000,1003,1005,1006,1006,1006,1006,1006,1006,1004,1002,999,997,995,994,994,994,994,994,995,996,998,999,1003,1016,1029,1037,1044,1050,1053,1057,1059,1061,1065,1066,1067,1070,1072,1076,1083],"ymouse":[513,513,513,513,512,509,508,508,508,504,497,495,494,493,493,493,493,492,492,492,492,492,492,492,492,492,492,492,492,492,492,492,491,490,489,487,485,484,483,482,480,478,477,477,477,476,476,476,476,476,476,476,476,476,476,476,476,476,475,474,474,473,473,473,473,473,473,473,473,473,473,473,473,473,473,473,473,475,475,477,477,477,477,478,478,478,478,478,478,478,478,478,477,475,470,450,436,421,404,392,374,349,320,302,297,273,268,264,261,258,257,257,257,257,257,257,257,257,257,257,257,257,257,257,257,257,257,257,255,252,245,237,232,227,220,215,214,211,197,180,162,157,151,137,128,105,92],"timestamp_mouse":[30,37,56,77,98,117,137,157,177,197,217,238,256,277,297,317,338,357,377,396,417,437,457,477,497,517,538,556,577,597,617,638,657,678,697,716,737,757,777,796,817,838,857,877,897,917,937,957,977,997,1017,1038,1058,1077,1097,1117,1138,1157,1177,1197,1218,1237,1257,1277,1297,1317,1338,1357,1377,1398,1417,1438,1458,1476,1497,1517,1538,1558,1578,1597,1618,1637,1657,1678,1697,1716,1737,1758,1778,1797,1817,1837,1857,1878,1898,1917,1938,1957,1978,1998,2017,2037,2057,2078,2098,2117,2138,2157,2178,2197,2217,2237,2258,2277,2297,2317,2337,2357,2376,2397,2417,2437,2457,2477,2498,2518,2537,2557,2577,2597,2618,2637,2657,2677,2697,2717,2737,2757,2778,2798,2818,2837,2857,2877,2897,2917,2937],"xSR":733.5,"ySR":443.3,"xT1":420.09999999999997,"yT1":0,"xT2":1046.8999999999999,"yT2":0,"toosoon":0,"cond_shown":"Incongruent","ratio_trial":300,"L_num":4,"L_den":20,"R_num":2,"R_den":4,"correct_side":2,"subjID":"MariaAlejandraRamosJaimes12","gender":"1","school":"6","age":"11"},{"start_time":1551794133544,"click_time":1551794135154,"finger_time":1551794134813,"fix_duration":250,"trial":32,"RT":1269,"MT":341,"sideResp":1,"stimulus":[],"xmouse":[784,784,784,784,784,784,784,784,784,784,784,784,784,784,784,784,784,784,784,784,784,784,784,784,784,784,784,784,784,784,782,782,782,782,782,782,782,782,782,782,782,782,782,782,782,782,782,782,782,782,782,782,782,782,782,782,782,782,782,782,782,782,782,778,761,681,659,659,659,659,659,659,659,659,659,659,659,659,659,659,436],"ymouse":[524,524,524,524,524,524,524,524,524,524,524,524,524,524,524,524,524,524,524,524,524,524,524,524,524,524,524,524,524,524,525,525,525,525,525,525,525,525,525,525,525,525,525,525,525,525,525,525,525,525,525,525,525,525,525,525,525,525,525,525,525,524,499,443,366,98,20,20,20,20,20,20,20,20,20,20,20,20,20,20,1],"timestamp_mouse":[10,30,51,69,89,109,129,149,171,190,209,230,250,270,290,311,330,349,370,389,411,431,449,470,489,511,529,550,570,589,609,630,650,670,691,709,729,751,769,789,809,829,849,870,889,909,930,949,969,991,1010,1030,1049,1070,1089,1109,1129,1149,1169,1190,1209,1230,1250,1269,1289,1309,1330,1350,1370,1389,1410,1430,1451,1469,1489,1510,1529,1549,1569,1589,1610],"xSR":733.5,"ySR":443.3,"xT1":420.09999999999997,"yT1":0,"xT2":1046.8999999999999,"yT2":0,"toosoon":0,"cond_shown":"Incongruent","ratio_trial":100,"L_num":3,"L_den":5,"R_num":11,"R_den":22,"correct_side":1,"subjID":"MariaAlejandraRamosJaimes12","gender":"1","school":"6","age":"11"},{"start_time":1551794137523,"click_time":1551794139273,"finger_time":1551794138754,"fix_duration":986.2563695539692,"trial":33,"RT":1231,"MT":519,"sideResp":2,"stimulus":[],"xmouse":[791,787,785,784,784,782,782,782,782,781,781,781,781,781,781,781,781,781,780,780,780,780,780,780,780,780,780,780,780,780,780,780,780,780,780,780,780,780,780,780,780,780,780,780,780,780,780,780,780,780,780,780,780,780,780,780,780,780,786,791,802,845,862,885,913,942,979,992,1006,1016,1016,1016,1016,1016,1016,1016,1016,1016,1016,1016,1016,1034,1039,1044,1046,1046,1046,1047],"ymouse":[513,513,513,513,513,513,513,513,513,513,513,513,513,513,513,513,513,513,513,513,513,513,513,513,513,513,513,513,513,513,513,513,513,513,513,513,513,513,513,513,513,513,513,513,513,513,513,513,513,513,513,513,513,513,513,513,513,513,510,505,497,458,439,400,341,266,123,64,25,7,7,7,7,7,7,7,7,7,7,7,7,6,19,25,27,27,27,27],"timestamp_mouse":[10,30,59,71,91,111,132,151,171,191,210,230,250,270,290,311,330,351,370,390,411,430,452,471,490,511,531,550,571,590,612,631,650,670,690,710,730,751,770,790,810,831,850,870,891,910,930,951,970,991,1010,1030,1050,1070,1090,1110,1131,1151,1170,1190,1211,1231,1250,1271,1291,1311,1331,1350,1370,1390,1412,1430,1451,1470,1490,1510,1531,1551,1572,1591,1610,1630,1651,1671,1690,1711,1731,1750],"xSR":733.5,"ySR":443.3,"xT1":420.09999999999997,"yT1":0,"xT2":1046.8999999999999,"yT2":0,"toosoon":0,"cond_shown":"Congruent","ratio_trial":100,"L_num":7,"L_den":14,"R_num":9,"R_den":15,"correct_side":2,"subjID":"MariaAlejandraRamosJaimes12","gender":"1","school":"6","age":"11"},{"start_time":1551794142924,"click_time":1551794145136,"finger_time":1551794144114,"fix_duration":250,"trial":34,"RT":1190,"MT":1022,"sideResp":1,"stimulus":[],"xmouse":[788,788,788,788,788,788,788,788,788,788,788,788,788,788,788,788,788,789,785,777,770,768,768,768,768,768,768,768,768,768,768,768,768,768,768,768,768,768,768,768,768,768,768,768,768,768,768,768,768,768,768,771,773,778,783,789,806,819,829,842,843,847,847,847,847,847,847,847,847,847,847,843,840,839,839,839,848,848,847,839,811,807,804,804,804,804,804,804,804,804,804,804,804,804,797,779,722,722,722,722,722,722,722,722,722,722,722,722,722,722,487],"ymouse":[488,488,488,488,488,488,488,488,488,488,488,488,488,488,488,488,488,489,491,497,502,503,503,503,503,503,503,503,503,503,503,503,503,503,503,503,503,503,503,503,503,503,503,503,503,503,503,503,503,503,503,503,503,503,503,503,503,503,503,503,503,503,503,503,503,503,503,503,503,502,497,464,440,416,376,322,194,136,96,81,50,46,43,43,43,43,43,43,43,43,43,43,43,43,40,29,0,0,0,0,0,0,0,0,0,0,0,0,0,0,6],"timestamp_mouse":[9,29,62,69,89,109,131,150,170,189,209,231,249,271,289,311,330,349,370,390,409,429,449,469,490,510,530,549,569,589,611,629,650,670,690,710,729,749,770,789,810,829,851,869,890,909,930,949,969,989,1010,1029,1049,1069,1090,1111,1130,1149,1169,1190,1210,1230,1250,1269,1290,1310,1330,1350,1369,1390,1409,1429,1451,1470,1489,1510,1530,1549,1569,1589,1610,1629,1649,1670,1691,1710,1730,1750,1769,1789,1809,1830,1850,1869,1889,1909,1929,1951,1971,1990,2010,2030,2049,2070,2089,2109,2130,2150,2169,2190,2211],"xSR":733.5,"ySR":443.3,"xT1":420.09999999999997,"yT1":0,"xT2":1046.8999999999999,"yT2":0,"toosoon":0,"cond_shown":"Congruent","ratio_trial":200,"L_num":7,"L_den":21,"R_num":2,"R_den":15,"correct_side":1,"subjID":"MariaAlejandraRamosJaimes12","gender":"1","school":"6","age":"11"},{"start_time":1551794147597,"click_time":1551794148674,"finger_time":1551794148493,"fix_duration":642.5877291938983,"trial":35,"RT":896,"MT":181,"sideResp":2,"stimulus":[],"xmouse":[802,802,800,796,794,794,794,794,794,794,794,794,797,800,803,804,806,806,806,806,806,806,806,806,806,806,806,806,806,806,806,806,806,806,806,806,806,806,806,809,811,811,812,826,849,870,881,942,993,1048,1070,1090,1119,1125],"ymouse":[481,481,481,481,481,481,481,481,481,481,481,481,481,481,481,481,481,481,481,481,481,481,481,481,481,481,481,481,481,481,481,481,481,481,481,481,481,482,482,482,482,482,482,481,477,466,461,415,351,286,238,192,108,79],"timestamp_mouse":[18,36,56,77,97,116,138,156,178,197,216,236,256,278,296,316,336,358,378,396,418,436,456,476,497,517,536,556,577,596,617,636,657,677,698,716,736,757,776,796,817,836,857,876,896,917,938,956,977,997,1017,1036,1056,1076],"xSR":733.5,"ySR":443.3,"xT1":420.09999999999997,"yT1":0,"xT2":1046.8999999999999,"yT2":0,"toosoon":0,"cond_shown":"Incongruent","ratio_trial":200,"L_num":4,"L_den":30,"R_num":1,"R_den":3,"correct_side":2,"subjID":"MariaAlejandraRamosJaimes12","gender":"1","school":"6","age":"11"},{"start_time":1551794153151,"click_time":1551794154693,"finger_time":1551794153593,"fix_duration":397.976897841815,"trial":36,"RT":442,"MT":1100,"sideResp":2,"stimulus":[],"xmouse":[794,794,794,794,794,794,794,794,794,794,794,794,794,794,794,794,794,793,792,787,780,777,771,767,766,766,766,766,766,766,766,766,766,766,766,766,766,766,767,768,769,769,769,769,769,770,770,770,770,770,772,773,779,787,796,837,884,938,969,1040,1040,1040,1040,1040,1040,1040,1040,1040,1040,1040,1040,1040,1040,1040,1040,1040,1040,1120],"ymouse":[475,475,475,475,475,475,475,475,475,475,475,475,475,475,475,475,475,473,472,465,455,452,441,436,434,434,434,434,434,434,434,434,433,433,433,433,433,434,434,435,436,436,436,436,436,436,436,436,436,436,436,436,436,434,430,397,354,273,215,50,50,50,50,50,50,50,50,50,50,50,50,50,50,50,50,50,50,11],"timestamp_mouse":[10,34,44,62,83,102,122,144,163,182,202,223,242,264,283,302,322,342,362,383,402,422,442,463,482,502,522,543,562,583,604,622,643,663,683,703,723,742,762,782,802,822,844,862,882,903,923,943,962,982,1002,1022,1042,1064,1083,1102,1123,1142,1163,1183,1202,1222,1243,1263,1282,1302,1322,1342,1364,1383,1402,1422,1442,1462,1483,1503,1522,1542],"xSR":733.5,"ySR":443.3,"xT1":420.09999999999997,"yT1":0,"xT2":1046.8999999999999,"yT2":0,"toosoon":0,"cond_shown":"Congruent","ratio_trial":300,"L_num":1,"L_den":30,"R_num":8,"R_den":24,"correct_side":2,"subjID":"MariaAlejandraRamosJaimes12","gender":"1","school":"6","age":"11"},{"start_time":1551794158215,"click_time":1551794159554,"finger_time":1551794158953,"fix_duration":1418.8356150841505,"trial":37,"RT":738,"MT":601,"sideResp":1,"stimulus":[],"xmouse":[791,791,791,791,791,791,791,791,791,791,791,793,793,793,793,793,793,793,793,793,793,793,793,793,793,793,793,793,793,793,793,793,793,796,802,807,808,811,811,811,811,811,813,813,813,813,811,801,801,795,795,795,783,781,781,781,777,712,704,684,652,622,589,554,541,527,521,518],"ymouse":[466,466,466,466,466,466,466,466,466,466,466,466,466,466,466,466,466,466,466,466,466,466,466,466,466,466,466,466,466,466,466,466,466,465,460,456,455,433,433,433,419,410,399,388,388,388,365,300,295,277,275,275,265,265,265,265,261,233,225,210,191,175,140,79,62,44,31,26],"timestamp_mouse":[1,18,39,58,78,98,118,138,158,179,198,218,238,258,280,298,320,339,358,378,400,419,439,459,478,498,518,538,559,578,600,618,638,658,680,698,719,738,759,779,798,819,839,859,878,898,918,938,959,979,998,1018,1039,1058,1079,1098,1118,1139,1158,1178,1199,1220,1239,1258,1278,1299,1318,1339],"xSR":733.5,"ySR":443.3,"xT1":420.09999999999997,"yT1":0,"xT2":1046.8999999999999,"yT2":0,"toosoon":0,"cond_shown":"Congruent","ratio_trial":300,"L_num":20,"L_den":25,"R_num":5,"R_den":10,"correct_side":1,"subjID":"MariaAlejandraRamosJaimes12","gender":"1","school":"6","age":"11"},{"start_time":1551794162918,"click_time":1551794164615,"finger_time":1551794164153,"fix_duration":442.80525042839827,"trial":38,"RT":1235,"MT":462,"sideResp":2,"stimulus":[],"xmouse":[811,811,811,811,811,811,808,807,805,804,803,802,802,802,802,802,802,801,800,800,798,798,798,797,797,797,797,797,797,797,797,797,797,797,797,797,797,797,797,797,797,797,797,797,797,797,797,797,797,797,797,797,797,797,797,799,808,811,823,829,830,838,841,841,843,860,863,863,866,867,867,875,877,881,887,888,899,903,906,917,931,958,1002,1033,1075],"ymouse":[483,483,483,483,483,483,483,483,483,483,483,483,483,483,484,484,484,484,484,484,484,484,484,484,484,484,484,484,484,484,484,484,484,484,484,484,484,484,484,484,484,484,484,484,484,484,484,484,484,484,484,484,484,484,484,484,481,480,475,470,470,463,458,458,456,435,429,429,416,405,405,372,368,362,354,353,331,325,319,300,267,209,154,125,94],"timestamp_mouse":[15,35,67,76,95,115,135,156,176,196,215,237,255,277,295,316,336,355,376,395,416,436,455,476,497,516,536,556,575,595,615,635,655,675,696,715,736,755,775,795,816,835,855,875,896,915,936,956,977,996,1016,1036,1057,1075,1095,1115,1136,1155,1176,1197,1215,1235,1256,1276,1295,1315,1335,1356,1375,1396,1416,1435,1455,1475,1497,1515,1535,1555,1575,1596,1617,1635,1655,1677,1697],"xSR":733.5,"ySR":443.3,"xT1":420.09999999999997,"yT1":0,"xT2":1046.8999999999999,"yT2":0,"toosoon":0,"cond_shown":"Incongruent","ratio_trial":100,"L_num":10,"L_den":25,"R_num":8,"R_den":16,"correct_side":2,"subjID":"MariaAlejandraRamosJaimes12","gender":"1","school":"6","age":"11"},{"start_time":1551794167175,"click_time":1551794168833,"finger_time":1551794168435,"fix_duration":1119.8950833989197,"trial":39,"RT":1260,"MT":398,"sideResp":2,"stimulus":[],"xmouse":[769,769,769,769,769,769,769,769,769,769,769,769,769,769,769,769,769,769,769,769,769,769,769,769,769,769,769,769,769,769,769,769,769,769,769,769,769,769,769,769,769,769,769,769,769,769,769,769,769,769,769,769,769,769,769,769,769,769,771,773,789,805,812,848,901,949,996,1089,1158,1197,1200,1203,1205,1205,1205,1203,1201,1201,1201,1201,1201,1201,1201,1120],"ymouse":[514,514,514,514,514,514,514,514,514,514,514,514,514,514,514,514,514,514,514,514,514,514,514,514,514,514,514,514,514,514,514,514,514,514,514,514,514,514,514,514,514,514,514,514,514,514,514,514,514,514,514,514,514,514,514,514,514,514,514,512,504,496,492,467,424,387,351,282,224,162,131,96,75,55,31,20,7,7,7,7,7,7,7,5],"timestamp_mouse":[1,18,38,58,79,99,118,138,158,179,198,220,239,258,279,298,318,338,359,379,400,418,438,458,480,498,519,538,558,578,598,618,639,658,678,700,719,738,759,778,799,818,840,858,878,898,918,939,959,978,998,1020,1039,1060,1078,1100,1124,1139,1159,1179,1198,1218,1238,1260,1279,1299,1318,1338,1358,1378,1399,1419,1438,1459,1479,1499,1519,1539,1559,1580,1600,1618,1638,1658],"xSR":733.5,"ySR":443.3,"xT1":420.09999999999997,"yT1":0,"xT2":1046.8999999999999,"yT2":0,"toosoon":0,"cond_shown":"Congruent","ratio_trial":200,"L_num":5,"L_den":10,"R_num":14,"R_den":20,"correct_side":2,"subjID":"MariaAlejandraRamosJaimes12","gender":"1","school":"6","age":"11"},{"start_time":1551794172120,"click_time":1551794173334,"finger_time":1551794173114,"fix_duration":1405.9331607445051,"trial":40,"RT":994,"MT":220,"sideResp":2,"stimulus":[],"xmouse":[806,806,806,806,806,806,806,806,806,806,806,806,806,806,806,806,806,806,806,806,806,806,806,806,806,806,806,806,806,806,806,806,806,806,806,806,806,806,806,806,806,806,806,807,807,807,813,825,833,843,864,899,917,933,956,979,1013,1032,1055,1069,1088],"ymouse":[505,505,505,505,505,505,505,505,505,505,505,505,505,505,505,505,505,505,505,505,505,505,505,505,505,505,505,505,505,505,505,505,505,505,505,505,505,505,505,505,505,505,505,504,504,504,500,493,484,476,457,426,406,385,352,315,248,193,139,108,62],"timestamp_mouse":[14,33,65,73,95,113,133,153,174,195,213,234,253,274,293,314,334,353,373,393,413,433,454,474,494,514,533,553,575,593,614,633,653,674,695,714,734,753,775,793,815,834,854,873,895,913,934,953,974,994,1013,1033,1054,1074,1094,1115,1133,1153,1173,1193,1214],"xSR":733.5,"ySR":443.3,"xT1":420.09999999999997,"yT1":0,"xT2":1046.8999999999999,"yT2":0,"toosoon":0,"cond_shown":"Incongruent","ratio_trial":100,"L_num":9,"L_den":15,"R_num":13,"R_den":26,"correct_side":1,"subjID":"MariaAlejandraRamosJaimes12","gender":"1","school":"6","age":"11"},{"start_time":1551794178911,"click_time":1551794180894,"finger_time":1551794179753,"fix_duration":1156.2374682568957,"trial":41,"RT":842,"MT":1141,"sideResp":1,"stimulus":[],"xmouse":[765,765,765,765,765,765,765,765,765,765,765,765,765,765,765,765,765,765,765,765,765,765,765,764,763,763,763,763,763,763,763,763,763,763,763,763,763,763,763,763,763,762,757,755,755,750,743,743,743,743,743,743,744,744,744,744,744,744,744,744,744,744,744,744,744,744,744,744,744,745,747,753,768,783,806,838,867,930,954,970,971,971,968,968,958,949,937,908,875,853,807,752,640,617,616,610,600,559,528,489],"ymouse":[458,458,458,458,458,458,458,458,458,458,458,458,458,458,458,458,458,458,458,458,458,457,456,453,452,451,451,450,450,450,450,450,450,450,450,450,450,450,450,450,449,445,432,429,429,424,415,415,415,415,416,418,420,420,420,420,420,420,420,420,420,420,420,420,420,420,420,420,420,420,420,416,399,382,355,322,287,210,172,137,117,106,96,96,96,96,96,94,92,88,80,72,45,38,38,36,33,25,20,15],"timestamp_mouse":[9,22,43,72,83,102,123,142,163,182,202,223,243,262,282,304,323,343,363,384,402,423,444,462,482,502,524,542,562,583,602,622,642,662,682,702,723,743,762,782,803,823,842,862,883,903,922,942,962,984,1002,1022,1044,1063,1082,1104,1122,1142,1164,1183,1203,1223,1243,1263,1283,1302,1323,1343,1363,1382,1402,1422,1443,1463,1483,1503,1522,1543,1562,1582,1602,1622,1642,1663,1682,1703,1723,1742,1763,1783,1802,1823,1843,1863,1883,1903,1923,1942,1963,1983],"xSR":733.5,"ySR":443.3,"xT1":420.09999999999997,"yT1":0,"xT2":1046.8999999999999,"yT2":0,"toosoon":0,"cond_shown":"Congruent","ratio_trial":100,"L_num":6,"L_den":20,"R_num":5,"R_den":25,"correct_side":1,"subjID":"MariaAlejandraRamosJaimes12","gender":"1","school":"6","age":"11"},{"start_time":1551794197599,"click_time":1551794199153,"finger_time":1551794198454,"fix_duration":1282.6790382978372,"trial":42,"RT":855,"MT":699,"sideResp":1,"stimulus":[],"xmouse":[795,793,792,792,792,791,791,791,791,791,791,791,791,791,791,791,791,791,791,791,791,791,791,790,790,789,789,789,789,789,789,789,789,789,789,789,789,789,789,786,781,772,746,717,713,686,595,551,478,460,440,420,411,411,411,412,412,414,416,417,426,435,435,435,437,438,438,438,438,438,438,438,438,439,439,439,442,451],"ymouse":[478,482,485,485,485,486,486,486,486,486,486,486,486,486,486,486,486,486,486,486,486,484,483,482,482,482,482,482,482,482,482,482,482,482,482,482,482,481,479,474,468,457,411,349,340,303,216,196,174,172,172,172,172,172,172,172,163,149,144,139,125,110,110,110,107,105,105,105,105,105,105,105,105,105,105,105,100,89],"timestamp_mouse":[15,35,55,74,95,115,134,154,175,196,215,234,255,275,294,316,334,354,375,394,415,436,455,474,495,514,534,555,574,594,616,634,654,675,695,716,734,754,775,794,814,836,855,876,896,916,935,954,974,995,1016,1035,1056,1075,1095,1114,1134,1156,1174,1195,1214,1236,1255,1276,1294,1315,1334,1355,1375,1395,1415,1434,1455,1474,1495,1516,1535,1554],"xSR":733.5,"ySR":443.3,"xT1":420.09999999999997,"yT1":0,"xT2":1046.8999999999999,"yT2":0,"toosoon":0,"cond_shown":"Congruent","ratio_trial":300,"L_num":24,"L_den":30,"R_num":8,"R_den":16,"correct_side":1,"subjID":"MariaAlejandraRamosJaimes12","gender":"1","school":"6","age":"11"},{"start_time":1551794201006,"click_time":1551794202673,"finger_time":1551794201554,"fix_duration":671.6117147140304,"trial":43,"RT":548,"MT":1119,"sideResp":1,"stimulus":[],"xmouse":[799,798,798,798,798,798,798,798,798,798,798,798,798,798,797,797,797,797,797,797,797,797,797,797,797,797,797,802,810,818,819,824,840,852,855,855,855,855,855,855,855,854,854,853,853,852,850,844,840,833,829,822,814,811,809,808,807,803,794,793,792,746,682,661,652,640,635,626,618,614,611,609,603,598,593,588,582,576,565,556,534,486,464,450],"ymouse":[475,475,475,475,475,474,474,474,474,474,474,473,472,471,470,469,469,469,469,469,469,469,468,466,465,462,455,432,416,403,399,386,376,371,368,367,366,365,365,365,365,365,365,365,365,365,365,365,368,372,374,378,382,383,384,384,384,384,384,384,384,380,365,355,346,319,302,270,255,246,238,232,223,217,212,209,203,197,186,179,159,122,105,97],"timestamp_mouse":[8,32,47,68,88,108,129,148,167,189,209,229,248,268,288,308,329,347,367,387,409,428,447,468,487,509,528,548,567,587,607,628,647,667,688,709,728,747,767,788,807,829,847,867,888,909,928,949,968,988,1009,1028,1047,1068,1087,1107,1127,1147,1168,1189,1208,1228,1247,1268,1288,1309,1328,1347,1367,1387,1407,1428,1448,1469,1488,1507,1528,1547,1568,1589,1608,1629,1648,1667],"xSR":733.5,"ySR":443.3,"xT1":420.09999999999997,"yT1":0,"xT2":1046.8999999999999,"yT2":0,"toosoon":0,"cond_shown":"Congruent","ratio_trial":300,"L_num":3,"L_den":6,"R_num":2,"R_den":10,"correct_side":1,"subjID":"MariaAlejandraRamosJaimes12","gender":"1","school":"6","age":"11"},{"start_time":1551794205157,"click_time":1551794207735,"finger_time":1551794206374,"fix_duration":642.7212546874612,"trial":44,"RT":1217,"MT":1361,"sideResp":2,"stimulus":[],"xmouse":[738,738,738,738,738,738,738,738,738,738,738,738,738,738,738,738,738,738,738,738,738,738,738,738,738,738,738,738,738,738,738,738,738,738,738,738,738,738,738,738,738,741,742,742,742,742,742,742,742,742,742,742,742,742,742,742,742,742,744,752,759,762,767,773,809,849,873,886,886,885,884,882,878,868,862,857,853,850,850,849,849,849,849,849,849,850,850,850,850,850,850,850,850,850,850,850,850,850,850,850,850,850,850,850,850,850,850,850,850,874,886,895,900,900,916,923,923,923,929,954,956,956,963,967,989,1011,1020,1022,1048],"ymouse":[467,467,467,467,467,467,467,467,467,467,467,467,467,467,467,467,467,467,467,467,467,467,467,467,467,467,467,467,467,467,467,467,467,467,467,467,467,467,467,467,467,467,467,467,467,467,467,467,467,467,467,467,467,467,467,467,467,467,466,452,438,434,427,419,387,356,335,323,317,306,294,279,262,228,210,197,188,183,178,176,175,173,173,173,174,176,179,184,185,185,185,185,185,185,185,185,185,185,185,185,185,185,185,185,185,185,185,185,184,170,166,162,160,160,160,160,160,160,158,144,143,143,140,137,129,118,113,112,93],"timestamp_mouse":[17,38,56,76,98,117,138,157,177,196,217,237,257,277,298,318,337,356,377,398,416,438,457,476,497,518,536,557,576,596,618,638,657,676,697,717,736,758,776,797,816,837,858,876,896,917,938,957,976,996,1016,1038,1056,1078,1096,1118,1138,1156,1177,1197,1217,1238,1257,1276,1296,1316,1338,1356,1377,1396,1418,1437,1456,1478,1496,1516,1537,1557,1577,1596,1617,1636,1656,1676,1697,1717,1736,1756,1777,1797,1817,1836,1856,1876,1896,1917,1938,1957,1976,1996,2017,2037,2057,2077,2097,2117,2138,2156,2177,2196,2218,2237,2257,2277,2296,2316,2337,2357,2377,2396,2417,2438,2457,2477,2497,2517,2536,2557,2578],"xSR":733.5,"ySR":443.3,"xT1":420.09999999999997,"yT1":0,"xT2":1046.8999999999999,"yT2":0,"toosoon":0,"cond_shown":"Incongruent","ratio_trial":300,"L_num":4,"L_den":20,"R_num":2,"R_den":4,"correct_side":2,"subjID":"MariaAlejandraRamosJaimes12","gender":"1","school":"6","age":"11"},{"start_time":1551794213338,"click_time":1551794215934,"finger_time":1551794214814,"fix_duration":683.3334839991154,"trial":45,"RT":1476,"MT":1120,"sideResp":1,"stimulus":[],"xmouse":[780,780,780,780,780,780,780,780,780,780,780,780,780,780,780,780,780,780,780,780,780,780,780,780,780,780,780,780,780,780,780,780,780,780,780,780,780,780,780,780,780,780,780,780,780,780,777,775,773,773,773,773,773,773,773,773,773,773,773,773,773,773,773,773,773,773,773,773,773,773,773,772,770,765,753,700,671,651,650,629,621,620,615,611,604,604,604,604,604,604,603,599,596,596,589,584,584,583,579,579,578,578,580,580,580,580,578,572,569,569,556,552,550,548,548,540,538,536,535,533,532,532,530,522,520,516,515,514,513,508],"ymouse":[489,489,489,489,489,489,489,489,489,489,489,489,489,489,489,489,489,489,489,489,489,489,489,489,489,489,489,489,489,489,489,489,489,489,489,489,489,489,489,489,489,489,489,487,486,484,480,477,474,473,473,473,473,473,473,473,473,473,473,473,473,473,473,473,473,473,473,473,473,473,471,463,449,432,403,326,291,267,266,238,231,229,226,224,223,222,222,222,222,222,221,219,218,218,216,215,215,213,208,205,202,199,181,165,161,158,150,134,123,123,120,120,120,120,120,121,122,122,122,121,121,121,120,116,115,114,112,112,110,99],"timestamp_mouse":[16,36,57,76,96,115,136,157,177,195,215,236,255,276,295,316,335,356,377,395,416,437,456,476,495,515,536,557,575,596,615,635,657,676,696,716,736,756,775,796,816,835,857,875,897,916,935,955,976,995,1015,1037,1056,1075,1096,1115,1135,1156,1177,1195,1215,1237,1255,1276,1295,1316,1335,1356,1377,1395,1416,1435,1456,1476,1495,1515,1536,1556,1576,1595,1615,1635,1656,1677,1697,1715,1736,1756,1777,1796,1816,1836,1855,1875,1896,1916,1935,1955,1975,1995,2015,2036,2057,2076,2096,2115,2135,2156,2177,2196,2217,2237,2255,2275,2296,2316,2337,2355,2377,2396,2416,2436,2456,2475,2496,2515,2536,2555,2575,2596],"xSR":733.5,"ySR":443.3,"xT1":420.09999999999997,"yT1":0,"xT2":1046.8999999999999,"yT2":0,"toosoon":0,"cond_shown":"Congruent","ratio_trial":200,"L_num":3,"L_den":6,"R_num":14,"R_den":20,"correct_side":2,"subjID":"MariaAlejandraRamosJaimes12","gender":"1","school":"6","age":"11"},{"start_time":1551794217913,"click_time":1551794220073,"finger_time":1551794219653,"fix_duration":578.9990654787191,"trial":46,"RT":1740,"MT":420,"sideResp":2,"stimulus":[],"xmouse":[785,785,785,785,785,785,785,785,785,785,785,785,785,785,785,785,785,785,785,787,790,793,797,800,801,801,801,802,802,802,802,802,802,802,802,802,802,802,802,802,802,802,802,802,802,802,802,802,802,802,802,802,802,802,802,802,802,801,801,801,801,801,801,801,801,801,801,801,801,801,801,801,801,801,801,800,800,799,799,798,798,797,797,797,797,802,809,851,910,939,1019,1154,1270,1284,1297,1300,1300,1299,1298,1297,1295,1290,1258,1234,1213,1197,1186,1160,1146],"ymouse":[502,502,502,502,502,502,502,502,502,502,502,502,502,502,502,502,501,499,496,493,488,485,478,475,473,473,473,473,473,473,473,473,473,473,473,473,473,473,473,473,473,473,472,472,472,472,472,472,472,472,472,472,472,472,472,472,470,470,470,469,469,469,469,469,469,469,469,469,469,469,469,469,469,469,469,467,465,464,463,461,461,461,461,461,461,459,457,447,426,413,381,313,222,206,192,186,181,178,176,176,172,165,133,115,100,89,78,55,44],"timestamp_mouse":[8,20,52,60,81,100,121,142,161,181,202,220,240,262,280,302,321,341,361,381,400,422,441,461,482,500,521,540,561,580,600,620,641,662,680,700,722,740,762,781,801,822,841,861,881,902,921,940,961,981,1001,1020,1042,1062,1081,1101,