[{"start_time":1551794897996,"click_time":1551794900320,"finger_time":1551794900120,"fix_duration":250,"trial":0,"RT":2124,"MT":200,"sideResp":2,"stimulus":"img/750/equaldotsize/R/2_Ratio_750_L_6_R_8.png","xmouse":[788,788,788,788,788,788,788,788,788,788,788,788,788,788,788,788,788,788,788,788,788,788,788,788,788,788,788,788,788,788,788,788,788,788,788,788,788,788,788,788,788,788,788,788,788,788,788,788,788,788,788,788,787,787,787,787,787,787,787,787,787,787,787,787,787,787,787,787,787,787,787,787,787,787,787,787,787,787,787,787,787,787,787,787,787,787,787,787,787,787,787,787,787,787,787,787,787,787,787,787,787,787,787,787,787,796,836,869,889,909,926,958,980,1004,1025,1046,1070],"ymouse":[565,565,565,565,565,565,565,565,565,565,565,565,565,565,565,565,565,565,565,565,565,565,565,565,565,565,565,565,565,565,565,565,565,565,565,565,565,565,565,565,565,565,565,565,565,565,565,565,563,555,547,534,529,528,527,526,525,524,524,524,524,524,524,524,524,524,524,524,524,524,524,524,524,524,524,524,524,524,524,524,524,524,524,524,524,524,524,524,524,524,524,524,524,524,524,524,524,524,524,524,524,524,524,524,520,510,466,434,415,395,374,313,273,228,180,134,52],"timestamp_mouse":[13,39,44,64,84,104,123,144,164,185,204,224,244,264,284,306,325,343,363,385,404,424,443,463,485,504,524,544,563,583,603,624,645,665,684,704,724,744,763,783,803,823,844,864,883,903,925,944,964,985,1004,1023,1044,1063,1083,1104,1123,1143,1163,1184,1203,1224,1244,1264,1284,1304,1323,1343,1364,1383,1403,1424,1444,1464,1483,1505,1525,1544,1564,1583,1603,1625,1644,1664,1684,1704,1723,1744,1764,1784,1804,1824,1844,1864,1883,1903,1924,1944,1964,1984,2004,2024,2044,2063,2084,2104,2124,2147,2168,2185,2204,2225,2244,2264,2284,2304,2324],"xSR":741.5,"ySR":501.15000000000003,"xT1":424.9,"yT1":0,"xT2":1058.1,"yT2":0,"toosoon":0,"cond_shown":"equaldotsize","ratio_trial":750,"smaller_num":"6","larger_num":"8","correct_side":2,"subjID":"AlejandraRivera","gender":"1","age":"11","school":"6","test":{"fix_dur":[250,1500],"timestim":300,"targets_dim":[100,100],"targets_relative_coord":[0.3,0.7],"size_stim":[880,420],"start_dim":[100,100],"size_start":[300,300],"size_fix":60,"samplingrate":20,"img_types":["equaldotsize","equaldotanddens","randomdotsizeEA"],"ratios":[250,500,750,900],"rep_conds":9,"nTrials":120,"trials_to_rest":500,"Trials_order":[6,90,106,73,100,113,51,56,78,59,102,11,104,35,30,53,33,85,13,15,67,77,16,112,43,64,14,9,75,48,105,61,4,68,71,93,44,118,20,19,17,18,94,23,89,70,72,7,98,96,8,34,38,21,101,46,117,54,119,47,55,109,45,22,3,36,39,103,99,110,10,42,116,50,12,60,66,31,91,28,40,27,76,108,62,107,25,87,81,52,26,115,84,29,57,111,24,79,88,37,49,1,92,74,5,0,83,114,69,95,65,86,80,82,41,32,97,58,63,2],"cond_shown":["equaldotsize","equaldotsize","equaldotanddens","equaldotanddens","equaldotanddens","randomdotsizeEA","equaldotsize","randomdotsizeEA","equaldotsize","randomdotsizeEA","equaldotsize","randomdotsizeEA","randomdotsizeEA","randomdotsizeEA","equaldotsize","randomdotsizeEA","equaldotsize","equaldotanddens","equaldotanddens","equaldotsize","equaldotanddens","randomdotsizeEA","equaldotanddens","equaldotanddens","equaldotanddens","equaldotanddens","randomdotsizeEA","equaldotsize","equaldotsize","equaldotsize","equaldotsize","equaldotanddens","equaldotanddens","randomdotsizeEA","randomdotsizeEA","equaldotsize","randomdotsizeEA","equaldotanddens","randomdotsizeEA","equaldotanddens","randomdotsizeEA","equaldotsize","equaldotanddens","randomdotsizeEA","randomdotsizeEA","equaldotanddens","equaldotsize","equaldotanddens","randomdotsizeEA","equaldotsize","randomdotsizeEA","equaldotanddens","randomdotsizeEA","equaldotsize","randomdotsizeEA","equaldotanddens","equaldotsize","equaldotsize","randomdotsizeEA","randomdotsizeEA","equaldotanddens","equaldotanddens","equaldotsize","equaldotanddens","equaldotsize","equaldotsize","equaldotsize","equaldotanddens","equaldotsize","randomdotsizeEA","equaldotanddens","equaldotsize","randomdotsizeEA","randomdotsizeEA","equaldotsize","equaldotsize","equaldotsize","equaldotanddens","equaldotanddens","equaldotanddens","equaldotanddens","equaldotsize","equaldotanddens","equaldotsize","randomdotsizeEA","randomdotsizeEA","equaldotanddens","equaldotsize","equaldotsize","equaldotanddens","randomdotsizeEA","equaldotanddens","equaldotsize","randomdotsizeEA","equaldotsize","equaldotsize","equaldotsize","equaldotanddens","equaldotanddens","equaldotanddens","equaldotanddens","equaldotanddens","randomdotsizeEA","randomdotsizeEA","randomdotsizeEA","equaldotsize","randomdotsizeEA","equaldotsize","equaldotsize","randomdotsizeEA","randomdotsizeEA","randomdotsizeEA","randomdotsizeEA","equaldotanddens","randomdotsizeEA","randomdotsizeEA","equaldotanddens","equaldotanddens","equaldotsize","randomdotsizeEA"],"ratio_trial":[750,750,900,250,500,500,500,750,750,900,750,900,750,900,750,500,900,250,250,500,750,500,500,500,750,500,250,900,500,250,900,250,500,750,900,900,750,900,750,750,500,750,900,900,500,900,250,750,250,250,750,900,250,900,500,900,900,750,900,900,750,250,900,900,500,250,500,750,500,250,900,750,750,250,250,250,750,750,750,500,500,500,500,250,250,900,250,500,900,500,250,750,250,500,900,500,250,750,500,250,250,250,750,250,500,250,900,750,900,900,500,250,750,900,500,750,250,900,500,250],"smaller_num":["6","3","9","4","6","6","5","6","3","9","18","9","18","18","6","9","18","3","1","5","6","6","6","5","3","5","2","18","1","4","9","1","5","15","18","9","3","18","3","15","9","6","18","9","6","18","2","3","3","3","9","9","3","18","4","18","18","9","9","9","3","2","18","18","9","5","9","6","3","2","18","9","6","3","3","3","3","6","15","5","4","2","9","2","3","18","3","2","9","4","2","6","1","2","9","2","4","15","1","6","2","2","9","2","1","3","18","3","9","18","5","3","9","18","1","12","6","9","2","3"],"larger_num":["8","4","10","16","12","12","10","8","4","10","24","10","24","20","8","18","20","12","4","10","8","12","12","10","4","10","8","20","2","16","10","4","10","20","20","10","4","20","4","20","18","8","20","10","12","20","8","4","12","12","12","10","12","20","8","20","20","12","10","10","4","8","20","20","18","20","18","8","6","8","20","12","8","12","12","12","4","8","20","10","8","4","18","8","12","20","12","4","10","8","8","8","4","4","10","4","16","20","2","24","8","8","12","8","2","12","20","4","10","20","10","12","12","20","2","16","24","10","4","12"],"correct_side":[2,1,2,1,1,1,2,1,1,1,1,1,1,1,2,1,1,2,2,2,1,1,1,2,1,2,2,1,2,2,2,2,1,2,2,2,1,1,1,2,2,1,1,2,1,1,1,1,1,1,2,2,2,1,1,1,2,2,2,1,2,1,1,1,2,2,2,2,2,1,1,2,2,1,2,1,2,1,2,1,1,1,2,2,1,1,2,1,1,1,1,1,2,1,2,1,2,2,2,1,1,1,2,2,2,2,1,2,2,2,1,2,2,1,2,2,1,1,2,1],"img_shown":["img/750/equaldotsize/R/2_Ratio_750_L_6_R_8.png","img/750/equaldotsize/L/8_Ratio_750_L_4_R_3.png","img/900/equaldotanddens/R/15_Ratio_900_L_9_R_10.png","img/250/equaldotanddens/L/2_Ratio_250_L_16_R_4.png","img/500/equaldotanddens/L/11_Ratio_500_L_12_R_6.png","img/500/randomdotsizeEA/L/11_Ratio_500_L_12_R_6.png","img/500/equaldotsize/R/14_Ratio_500_L_5_R_10.png","img/750/randomdotsizeEA/L/13_Ratio_750_L_8_R_6.png","img/750/equaldotsize/L/10_Ratio_750_L_4_R_3.png","img/900/randomdotsizeEA/L/1_Ratio_900_L_10_R_9.png","img/750/equaldotsize/L/6_Ratio_750_L_24_R_18.png","img/900/randomdotsizeEA/L/1_Ratio_900_L_10_R_9.png","img/750/randomdotsizeEA/L/6_Ratio_750_L_24_R_18.png","img/900/randomdotsizeEA/L/8_Ratio_900_L_20_R_18.png","img/750/equaldotsize/R/2_Ratio_750_L_6_R_8.png","img/500/randomdotsizeEA/L/4_Ratio_500_L_18_R_9.png","img/900/equaldotsize/L/4_Ratio_900_L_20_R_18.png","img/250/equaldotanddens/R/4_Ratio_250_L_3_R_12.png","img/250/equaldotanddens/R/8_Ratio_250_L_1_R_4.png","img/500/equaldotsize/R/14_Ratio_500_L_5_R_10.png","img/750/equaldotanddens/L/13_Ratio_750_L_8_R_6.png","img/500/randomdotsizeEA/L/11_Ratio_500_L_12_R_6.png","img/500/equaldotanddens/L/11_Ratio_500_L_12_R_6.png","img/500/equaldotanddens/R/14_Ratio_500_L_5_R_10.png","img/750/equaldotanddens/L/9_Ratio_750_L_4_R_3.png","img/500/equaldotanddens/R/14_Ratio_500_L_5_R_10.png","img/250/randomdotsizeEA/R/13_Ratio_250_L_2_R_8.png","img/900/equaldotsize/L/10_Ratio_900_L_20_R_18.png","img/500/equaldotsize/R/15_Ratio_500_L_1_R_2.png","img/250/equaldotsize/R/10_Ratio_250_L_4_R_16.png","img/900/equaldotsize/R/7_Ratio_900_L_9_R_10.png","img/250/equaldotanddens/R/8_Ratio_250_L_1_R_4.png","img/500/equaldotanddens/L/7_Ratio_500_L_10_R_5.png","img/750/randomdotsizeEA/R/3_Ratio_750_L_15_R_20.png","img/900/randomdotsizeEA/R/11_Ratio_900_L_18_R_20.png","img/900/equaldotsize/R/15_Ratio_900_L_9_R_10.png","img/750/randomdotsizeEA/L/9_Ratio_750_L_4_R_3.png","img/900/equaldotanddens/L/2_Ratio_900_L_20_R_18.png","img/750/randomdotsizeEA/L/10_Ratio_750_L_4_R_3.png","img/750/equaldotanddens/R/5_Ratio_750_L_15_R_20.png","img/500/randomdotsizeEA/R/6_Ratio_500_L_9_R_18.png","img/750/equaldotsize/L/14_Ratio_750_L_8_R_6.png","img/900/equaldotanddens/L/4_Ratio_900_L_20_R_18.png","img/900/randomdotsizeEA/R/7_Ratio_900_L_9_R_10.png","img/500/randomdotsizeEA/L/11_Ratio_500_L_12_R_6.png","img/900/equaldotanddens/L/4_Ratio_900_L_20_R_18.png","img/250/equaldotsize/L/3_Ratio_250_L_8_R_2.png","img/750/equaldotanddens/L/8_Ratio_750_L_4_R_3.png","img/250/randomdotsizeEA/L/14_Ratio_250_L_12_R_3.png","img/250/equaldotsize/L/14_Ratio_250_L_12_R_3.png","img/750/randomdotsizeEA/R/15_Ratio_750_L_9_R_12.png","img/900/equaldotanddens/R/3_Ratio_900_L_9_R_10.png","img/250/randomdotsizeEA/R/11_Ratio_250_L_3_R_12.png","img/900/equaldotsize/L/8_Ratio_900_L_20_R_18.png","img/500/randomdotsizeEA/L/8_Ratio_500_L_8_R_4.png","img/900/equaldotanddens/L/10_Ratio_900_L_20_R_18.png","img/900/equaldotsize/R/13_Ratio_900_L_18_R_20.png","img/750/equaldotsize/R/15_Ratio_750_L_9_R_12.png","img/900/randomdotsizeEA/R/7_Ratio_900_L_9_R_10.png","img/900/randomdotsizeEA/L/1_Ratio_900_L_10_R_9.png","img/750/equaldotanddens/R/12_Ratio_750_L_3_R_4.png","img/250/equaldotanddens/L/7_Ratio_250_L_8_R_2.png","img/900/equaldotsize/L/4_Ratio_900_L_20_R_18.png","img/900/equaldotanddens/L/4_Ratio_900_L_20_R_18.png","img/500/equaldotsize/R/1_Ratio_500_L_9_R_18.png","img/250/equaldotsize/R/12_Ratio_250_L_5_R_20.png","img/500/equaldotsize/R/6_Ratio_500_L_9_R_18.png","img/750/equaldotanddens/R/2_Ratio_750_L_6_R_8.png","img/500/equaldotsize/R/2_Ratio_500_L_3_R_6.png","img/250/randomdotsizeEA/L/3_Ratio_250_L_8_R_2.png","img/900/equaldotanddens/L/4_Ratio_900_L_20_R_18.png","img/750/equaldotsize/R/15_Ratio_750_L_9_R_12.png","img/750/randomdotsizeEA/R/2_Ratio_750_L_6_R_8.png","img/250/randomdotsizeEA/L/15_Ratio_250_L_12_R_3.png","img/250/equaldotsize/R/4_Ratio_250_L_3_R_12.png","img/250/equaldotsize/L/15_Ratio_250_L_12_R_3.png","img/750/equaldotsize/R/12_Ratio_750_L_3_R_4.png","img/750/equaldotanddens/L/14_Ratio_750_L_8_R_6.png","img/750/equaldotanddens/R/4_Ratio_750_L_15_R_20.png","img/500/equaldotanddens/L/7_Ratio_500_L_10_R_5.png","img/500/equaldotanddens/L/8_Ratio_500_L_8_R_4.png","img/500/equaldotsize/L/5_Ratio_500_L_4_R_2.png","img/500/equaldotanddens/R/6_Ratio_500_L_9_R_18.png","img/250/equaldotsize/R/13_Ratio_250_L_2_R_8.png","img/250/randomdotsizeEA/L/14_Ratio_250_L_12_R_3.png","img/900/randomdotsizeEA/L/4_Ratio_900_L_20_R_18.png","img/250/equaldotanddens/R/4_Ratio_250_L_3_R_12.png","img/500/equaldotsize/L/10_Ratio_500_L_4_R_2.png","img/900/equaldotsize/L/1_Ratio_900_L_10_R_9.png","img/500/equaldotanddens/L/8_Ratio_500_L_8_R_4.png","img/250/randomdotsizeEA/L/3_Ratio_250_L_8_R_2.png","img/750/equaldotanddens/L/13_Ratio_750_L_8_R_6.png","img/250/equaldotsize/R/8_Ratio_250_L_1_R_4.png","img/500/randomdotsizeEA/L/5_Ratio_500_L_4_R_2.png","img/900/equaldotsize/R/7_Ratio_900_L_9_R_10.png","img/500/equaldotsize/L/5_Ratio_500_L_4_R_2.png","img/250/equaldotsize/R/10_Ratio_250_L_4_R_16.png","img/750/equaldotanddens/R/4_Ratio_750_L_15_R_20.png","img/500/equaldotanddens/R/15_Ratio_500_L_1_R_2.png","img/250/equaldotanddens/L/5_Ratio_250_L_24_R_6.png","img/250/equaldotanddens/L/1_Ratio_250_L_8_R_2.png","img/250/equaldotanddens/L/7_Ratio_250_L_8_R_2.png","img/750/randomdotsizeEA/R/15_Ratio_750_L_9_R_12.png","img/250/randomdotsizeEA/R/13_Ratio_250_L_2_R_8.png","img/500/randomdotsizeEA/R/15_Ratio_500_L_1_R_2.png","img/250/equaldotsize/R/4_Ratio_250_L_3_R_12.png","img/900/randomdotsizeEA/L/2_Ratio_900_L_20_R_18.png","img/750/equaldotsize/R/7_Ratio_750_L_3_R_4.png","img/900/equaldotsize/R/5_Ratio_900_L_9_R_10.png","img/900/randomdotsizeEA/R/11_Ratio_900_L_18_R_20.png","img/500/randomdotsizeEA/L/7_Ratio_500_L_10_R_5.png","img/250/randomdotsizeEA/R/11_Ratio_250_L_3_R_12.png","img/750/randomdotsizeEA/R/15_Ratio_750_L_9_R_12.png","img/900/equaldotanddens/L/8_Ratio_900_L_20_R_18.png","img/500/randomdotsizeEA/R/15_Ratio_500_L_1_R_2.png","img/750/randomdotsizeEA/R/11_Ratio_750_L_12_R_16.png","img/250/equaldotanddens/L/5_Ratio_250_L_24_R_6.png","img/900/equaldotanddens/L/1_Ratio_900_L_10_R_9.png","img/500/equaldotsize/R/9_Ratio_500_L_2_R_4.png","img/250/randomdotsizeEA/L/14_Ratio_250_L_12_R_3.png"],"Rat0":[["12_Ratio_0_L_9_R_0.png","13_Ratio_0_L_6_R_0.png","5_Ratio_0_L_2_R_0.png","6_Ratio_0_L_4_R_0.png","8_Ratio_0_L_6_R_0.png"],["1_Ratio_0_L_0_R_17.png","10_Ratio_0_L_0_R_22.png","11_Ratio_0_L_0_R_1.png","14_Ratio_0_L_0_R_24.png","15_Ratio_0_L_0_R_4.png","2_Ratio_0_L_0_R_5.png","3_Ratio_0_L_0_R_17.png","4_Ratio_0_L_0_R_7.png","7_Ratio_0_L_0_R_19.png","9_Ratio_0_L_0_R_15.png"]],"Rat250":[["1_Ratio_250_L_8_R_2.png","14_Ratio_250_L_12_R_3.png","15_Ratio_250_L_12_R_3.png","2_Ratio_250_L_16_R_4.png","3_Ratio_250_L_8_R_2.png","5_Ratio_250_L_24_R_6.png","7_Ratio_250_L_8_R_2.png"],["10_Ratio_250_L_4_R_16.png","11_Ratio_250_L_3_R_12.png","12_Ratio_250_L_5_R_20.png","13_Ratio_250_L_2_R_8.png","4_Ratio_250_L_3_R_12.png","6_Ratio_250_L_6_R_24.png","8_Ratio_250_L_1_R_4.png","9_Ratio_250_L_3_R_12.png"]],"Rat500":[["10_Ratio_500_L_4_R_2.png","11_Ratio_500_L_12_R_6.png","13_Ratio_500_L_12_R_6.png","4_Ratio_500_L_18_R_9.png","5_Ratio_500_L_4_R_2.png","7_Ratio_500_L_10_R_5.png","8_Ratio_500_L_8_R_4.png"],["1_Ratio_500_L_9_R_18.png","12_Ratio_500_L_1_R_2.png","14_Ratio_500_L_5_R_10.png","15_Ratio_500_L_1_R_2.png","2_Ratio_500_L_3_R_6.png","3_Ratio_500_L_10_R_20.png","6_Ratio_500_L_9_R_18.png","9_Ratio_500_L_2_R_4.png"]],"Rat750":[["1_Ratio_750_L_20_R_15.png","10_Ratio_750_L_4_R_3.png","13_Ratio_750_L_8_R_6.png","14_Ratio_750_L_8_R_6.png","6_Ratio_750_L_24_R_18.png","8_Ratio_750_L_4_R_3.png","9_Ratio_750_L_4_R_3.png"],["11_Ratio_750_L_12_R_16.png","12_Ratio_750_L_3_R_4.png","15_Ratio_750_L_9_R_12.png","2_Ratio_750_L_6_R_8.png","3_Ratio_750_L_15_R_20.png","4_Ratio_750_L_15_R_20.png","5_Ratio_750_L_15_R_20.png","7_Ratio_750_L_3_R_4.png"]],"Rat900":[["1_Ratio_900_L_10_R_9.png","10_Ratio_900_L_20_R_18.png","2_Ratio_900_L_20_R_18.png","4_Ratio_900_L_20_R_18.png","8_Ratio_900_L_20_R_18.png"],["11_Ratio_900_L_18_R_20.png","12_Ratio_900_L_18_R_20.png","13_Ratio_900_L_18_R_20.png","14_Ratio_900_L_18_R_20.png","15_Ratio_900_L_9_R_10.png","3_Ratio_900_L_9_R_10.png","5_Ratio_900_L_9_R_10.png","6_Ratio_900_L_9_R_10.png","7_Ratio_900_L_9_R_10.png","9_Ratio_900_L_18_R_20.png"]],"Rat1000":[["10_Ratio_1000_L_16_R_16.png","11_Ratio_1000_L_6_R_6.png","12_Ratio_1000_L_14_R_14.png","13_Ratio_1000_L_20_R_20.png","15_Ratio_1000_L_15_R_15.png","2_Ratio_1000_L_17_R_17.png","4_Ratio_1000_L_9_R_9.png","5_Ratio_1000_L_6_R_6.png","6_Ratio_1000_L_19_R_19.png","8_Ratio_1000_L_14_R_14.png","9_Ratio_1000_L_25_R_25.png"],["1_Ratio_1000_L_1_R_1.png","14_Ratio_1000_L_17_R_17.png","3_Ratio_1000_L_17_R_17.png","7_Ratio_1000_L_6_R_6.png"]]}},{"start_time":1551794902128,"click_time":1551794903220,"finger_time":1551794902920,"fix_duration":1006.8666820854751,"trial":1,"RT":792,"MT":300,"sideResp":1,"stimulus":"img/750/equaldotsize/L/8_Ratio_750_L_4_R_3.png","xmouse":[813,813,813,813,813,813,813,813,813,813,813,813,813,813,813,813,813,813,813,813,813,813,813,813,813,813,813,813,813,813,813,813,813,813,813,813,813,800,752,706,670,648,632,616,574,559,551,544,540,529,524,518,513,508,501],"ymouse":[533,533,533,533,533,533,533,533,533,533,533,533,533,533,533,533,533,533,533,533,533,533,533,533,533,533,533,533,533,533,533,533,533,533,533,533,533,521,472,435,409,390,375,356,296,272,254,237,223,181,165,147,130,115,88],"timestamp_mouse":[13,50,52,73,92,112,133,152,172,191,213,232,251,272,291,313,332,352,373,392,412,432,452,473,491,512,532,552,571,593,612,631,652,672,693,712,732,752,773,792,816,832,852,872,892,913,933,952,971,991,1011,1031,1052,1072,1092],"xSR":741.5,"ySR":469.3,"xT1":424.9,"yT1":0,"xT2":1058.1,"yT2":0,"toosoon":0,"cond_shown":"equaldotsize","ratio_trial":750,"smaller_num":"3","larger_num":"4","correct_side":1,"subjID":"AlejandraRivera","gender":"1","age":"11","school":"6"},{"start_time":1551794906315,"click_time":1551794907720,"finger_time":1551794907319,"fix_duration":907.0978862729883,"trial":2,"RT":1004,"MT":401,"sideResp":2,"stimulus":"img/900/equaldotanddens/R/15_Ratio_900_L_9_R_10.png","xmouse":[796,796,795,795,795,795,795,795,794,794,794,794,794,794,794,794,794,794,794,794,794,794,794,794,794,794,794,794,794,794,794,794,794,794,794,794,794,794,794,794,794,794,794,794,794,794,794,794,797,806,855,878,900,921,944,986,997,1009,1020,1033,1054,1054,1054,1054,1054,1054,1054,1054,1054,1054,1093],"ymouse":[527,527,526,526,526,526,526,526,526,526,526,526,526,526,526,526,526,526,526,526,526,526,526,526,526,526,526,526,526,526,526,526,526,526,526,526,526,526,526,526,526,526,526,526,526,526,526,526,519,510,442,406,367,330,285,203,162,123,87,53,8,8,8,8,8,8,8,8,8,8,3],"timestamp_mouse":[12,26,45,79,85,105,125,145,165,186,205,225,244,265,285,309,326,345,365,384,404,425,445,465,485,505,525,545,566,585,605,625,645,665,685,705,725,744,765,784,806,824,845,865,885,904,926,945,964,985,1004,1028,1049,1065,1085,1106,1125,1144,1165,1186,1206,1225,1245,1266,1285,1305,1326,1345,1364,1384,1405],"xSR":741.5,"ySR":469.3,"xT1":424.9,"yT1":0,"xT2":1058.1,"yT2":0,"toosoon":0,"cond_shown":"equaldotanddens","ratio_trial":900,"smaller_num":"9","larger_num":"10","correct_side":2,"subjID":"AlejandraRivera","gender":"1","age":"11","school":"6"},{"start_time":1551794908609,"click_time":1551794909722,"finger_time":1551794909400,"fix_duration":286.4183636932065,"trial":3,"RT":791,"MT":322,"sideResp":1,"stimulus":"img/250/equaldotanddens/L/2_Ratio_250_L_16_R_4.png","xmouse":[790,790,790,790,790,790,790,790,790,790,790,790,790,790,790,790,790,790,790,790,790,790,790,790,790,790,790,790,790,790,790,790,790,790,789,787,776,766,746,723,695,685,671,666,642,632,623,615,605,581,566,554,541,516,501],"ymouse":[520,520,520,520,520,520,520,520,520,520,520,520,520,520,520,520,520,520,520,520,520,520,520,520,520,520,520,520,520,520,520,520,520,520,520,520,505,491,467,442,410,394,367,357,313,296,279,262,242,203,182,163,145,110,87],"timestamp_mouse":[12,31,51,90,111,131,151,170,192,212,231,250,271,292,312,331,350,372,392,412,431,450,471,491,510,531,551,571,591,610,630,650,670,690,711,731,751,770,791,811,831,852,874,891,923,937,951,972,991,1011,1030,1051,1070,1091,1113],"xSR":741.5,"ySR":469.3,"xT1":424.9,"yT1":0,"xT2":1058.1,"yT2":0,"toosoon":0,"cond_shown":"equaldotanddens","ratio_trial":250,"smaller_num":"4","larger_num":"16","correct_side":1,"subjID":"AlejandraRivera","gender":"1","age":"11","school":"6"},{"start_time":1551794911559,"click_time":1551794913120,"finger_time":1551794912821,"fix_duration":1097.010982052865,"trial":4,"RT":1262,"MT":299,"sideResp":1,"stimulus":"img/500/equaldotanddens/L/11_Ratio_500_L_12_R_6.png","xmouse":[786,786,786,786,786,786,786,786,786,786,786,786,786,786,786,786,786,786,786,786,786,786,786,786,786,786,786,786,786,786,786,786,786,786,786,786,786,786,786,786,786,786,786,786,786,786,786,786,786,786,786,786,786,786,786,786,786,786,786,786,786,786,776,747,725,697,690,678,656,647,639,633,626,602,584,572,563,549,518],"ymouse":[508,508,508,508,508,508,508,508,508,508,508,508,508,508,508,508,508,508,508,508,508,508,508,508,508,508,508,508,508,508,508,508,508,508,508,508,508,508,508,508,508,508,508,508,508,508,508,508,508,508,508,508,508,508,508,508,508,508,508,508,508,508,477,420,381,331,320,299,251,235,221,211,201,169,154,142,133,122,96],"timestamp_mouse":[5,21,40,62,81,101,121,141,160,181,201,221,240,261,281,301,321,341,360,381,401,421,441,461,482,501,520,541,561,581,601,620,641,661,681,701,721,741,760,781,802,821,842,861,881,901,921,941,961,980,1001,1020,1041,1062,1081,1101,1121,1141,1161,1182,1201,1222,1241,1262,1284,1305,1321,1342,1362,1382,1401,1422,1441,1461,1482,1501,1521,1542,1561],"xSR":741.5,"ySR":469.3,"xT1":424.9,"yT1":0,"xT2":1058.1,"yT2":0,"toosoon":0,"cond_shown":"equaldotanddens","ratio_trial":500,"smaller_num":"6","larger_num":"12","correct_side":1,"subjID":"AlejandraRivera","gender":"1","age":"11","school":"6"},{"start_time":1551794914737,"click_time":1551794916520,"finger_time":1551794916080,"fix_duration":875.7748818160167,"trial":5,"RT":1343,"MT":440,"sideResp":2,"stimulus":"img/500/randomdotsizeEA/L/11_Ratio_500_L_12_R_6.png","xmouse":[768,768,768,768,768,768,768,768,768,768,768,768,768,768,768,768,768,768,768,768,768,768,768,768,768,768,768,768,768,768,768,768,768,768,768,768,768,768,768,768,768,768,768,768,768,768,768,768,768,768,768,768,768,768,768,768,768,769,769,769,769,769,770,776,804,820,833,853,899,925,930,937,946,958,984,998,1005,1013,1021,1038,1049,1067,1087,1102,1110,1111,1113,1114,1115,1119],"ymouse":[511,511,511,511,511,511,511,511,511,511,511,511,511,511,511,511,511,511,511,511,511,511,511,511,511,511,511,511,511,511,511,511,511,511,511,511,511,511,511,511,511,511,511,511,511,511,511,511,511,511,511,511,511,511,511,511,511,511,511,511,511,511,511,507,492,483,474,460,420,397,385,370,349,322,263,237,220,203,187,160,148,137,126,115,108,106,105,103,100,88],"timestamp_mouse":[11,23,61,63,83,103,122,143,162,183,203,223,242,263,283,308,324,343,363,382,403,423,443,463,482,504,523,543,563,583,603,623,643,662,683,703,723,744,762,782,803,823,843,863,882,903,923,943,964,982,1003,1023,1042,1062,1083,1103,1122,1142,1163,1183,1203,1222,1242,1263,1282,1303,1324,1343,1364,1390,1408,1422,1443,1462,1483,1504,1523,1543,1563,1583,1603,1623,1644,1663,1683,1703,1723,1743,1764,1783],"xSR":741.5,"ySR":469.3,"xT1":424.9,"yT1":0,"xT2":1058.1,"yT2":0,"toosoon":0,"cond_shown":"randomdotsizeEA","ratio_trial":500,"smaller_num":"6","larger_num":"12","correct_side":1,"subjID":"AlejandraRivera","gender":"1","age":"11","school":"6"},{"start_time":1551794918277,"click_time":1551794919420,"finger_time":1551794919101,"fix_duration":716.6337361565207,"trial":6,"RT":824,"MT":319,"sideResp":2,"stimulus":"img/500/equaldotsize/R/14_Ratio_500_L_5_R_10.png","xmouse":[797,797,797,797,797,797,797,797,797,797,797,797,797,797,797,797,797,797,797,797,797,797,797,797,797,797,797,797,797,797,797,797,797,797,797,797,797,797,797,799,823,882,916,937,946,954,968,977,989,1001,1012,1025,1055,1067,1077,1088,1098,1112],"ymouse":[503,503,503,503,503,503,503,503,503,503,503,503,503,503,503,503,503,503,503,503,503,503,503,503,503,503,503,503,503,503,503,503,503,503,503,503,503,503,503,497,475,427,380,337,321,305,277,265,247,230,213,195,158,142,128,114,100,77],"timestamp_mouse":[12,24,59,63,82,102,123,143,163,183,203,223,243,263,283,308,323,343,364,383,403,423,442,463,484,502,522,543,563,583,603,623,643,662,684,703,723,743,762,783,803,824,843,863,883,903,923,944,963,983,1003,1022,1042,1063,1084,1102,1124,1143],"xSR":741.5,"ySR":469.3,"xT1":424.9,"yT1":0,"xT2":1058.1,"yT2":0,"toosoon":0,"cond_shown":"equaldotsize","ratio_trial":500,"smaller_num":"5","larger_num":"10","correct_side":2,"subjID":"AlejandraRivera","gender":"1","age":"11","school":"6"},{"start_time":1551794922536,"click_time":1551794924400,"finger_time":1551794923500,"fix_duration":510.1132924803049,"trial":7,"RT":964,"MT":900,"sideResp":1,"stimulus":"img/750/randomdotsizeEA/L/13_Ratio_750_L_8_R_6.png","xmouse":[771,771,771,771,771,771,771,771,771,771,771,771,771,771,771,771,771,771,771,771,771,771,771,771,771,771,771,771,771,771,771,771,771,771,771,771,771,771,771,771,771,771,771,771,771,765,760,737,724,712,707,704,693,686,679,674,668,661,644,636,627,617,610,598,593,590,587,576,566,561,555,552,547,539,537,533,528,522,517,516,513,510,504,501,499,497,494,492,489,488,488,487,486],"ymouse":[546,546,546,546,546,546,546,546,546,546,546,546,546,546,546,546,546,546,546,546,546,546,546,546,546,546,546,546,546,546,546,546,546,546,546,546,546,546,546,546,546,546,546,546,546,539,531,499,478,459,452,445,426,412,399,389,376,363,328,314,298,283,271,252,245,241,237,225,216,210,204,200,194,183,180,176,171,163,155,152,147,143,133,128,124,121,113,110,103,102,101,100,98],"timestamp_mouse":[12,55,65,84,103,124,144,164,184,204,224,243,263,284,308,324,343,364,384,404,423,443,464,484,503,523,544,564,584,604,624,644,664,684,703,724,744,764,784,803,824,845,864,884,904,925,945,964,989,1010,1024,1045,1064,1084,1104,1125,1143,1164,1183,1204,1224,1243,1264,1284,1304,1325,1344,1363,1384,1404,1424,1445,1464,1483,1503,1524,1544,1564,1585,1604,1624,1644,1663,1685,1704,1725,1744,1764,1784,1804,1824,1844,1864],"xSR":741.5,"ySR":469.3,"xT1":424.9,"yT1":0,"xT2":1058.1,"yT2":0,"toosoon":0,"cond_shown":"randomdotsizeEA","ratio_trial":750,"smaller_num":"6","larger_num":"8","correct_side":1,"subjID":"AlejandraRivera","gender":"1","age":"11","school":"6"},{"start_time":1551794925953,"click_time":1551794927319,"finger_time":1551794926821,"fix_duration":830.8588981034342,"trial":8,"RT":868,"MT":498,"sideResp":2,"stimulus":"img/750/equaldotsize/L/10_Ratio_750_L_4_R_3.png","xmouse":[794,794,794,794,794,794,794,794,794,794,794,794,794,794,794,794,794,794,794,794,794,794,794,794,794,794,794,794,794,794,794,794,794,794,794,794,794,794,794,794,794,794,823,862,886,886,909,932,964,976,987,996,1004,1022,1031,1042,1053,1078,1087,1091,1092,1093,1096,1099,1102,1104,1106,1108,1109],"ymouse":[499,499,499,499,499,499,499,499,499,499,499,499,499,499,499,499,499,499,499,499,499,499,499,499,499,499,499,499,499,499,499,499,499,499,499,499,499,499,499,499,499,499,473,432,411,411,379,346,305,290,274,260,250,228,214,198,185,159,146,139,137,133,125,120,114,109,104,101,94],"timestamp_mouse":[11,27,51,67,87,107,126,147,167,186,206,227,247,267,287,307,327,347,367,387,407,427,447,467,487,506,527,547,567,587,606,628,647,667,687,707,726,746,768,787,808,827,847,868,891,907,927,947,966,986,1007,1028,1047,1067,1086,1108,1127,1146,1167,1187,1207,1228,1246,1267,1286,1308,1326,1346,1366],"xSR":741.5,"ySR":469.3,"xT1":424.9,"yT1":0,"xT2":1058.1,"yT2":0,"toosoon":0,"cond_shown":"equaldotsize","ratio_trial":750,"smaller_num":"3","larger_num":"4","correct_side":1,"subjID":"AlejandraRivera","gender":"1","age":"11","school":"6"},{"start_time":1551794929498,"click_time":1551794930521,"finger_time":1551794930081,"fix_duration":1436.7152787324528,"trial":9,"RT":583,"MT":440,"sideResp":1,"stimulus":"img/900/randomdotsizeEA/L/1_Ratio_900_L_10_R_9.png","xmouse":[783,783,783,783,783,783,783,783,783,783,783,783,783,783,783,783,783,783,783,783,783,783,783,783,783,783,779,758,712,698,653,630,613,610,607,600,591,585,573,567,562,560,556,552,544,540,537,533,528,523,493],"ymouse":[527,527,527,527,527,527,527,527,527,527,527,527,527,527,527,527,527,527,527,527,527,527,527,527,527,527,525,512,475,455,380,344,314,308,301,281,259,241,211,200,191,180,170,157,136,128,122,115,110,106,88],"timestamp_mouse":[12,22,42,83,102,122,141,162,182,202,221,241,262,282,307,322,342,363,381,402,422,442,462,482,502,522,542,563,583,603,622,642,661,682,702,722,742,763,782,810,830,843,862,882,901,922,942,961,981,1001,1023],"xSR":741.5,"ySR":469.3,"xT1":424.9,"yT1":0,"xT2":1058.1,"yT2":0,"toosoon":0,"cond_shown":"randomdotsizeEA","ratio_trial":900,"smaller_num":"9","larger_num":"10","correct_side":1,"subjID":"AlejandraRivera","gender":"1","age":"11","school":"6"},{"start_time":1551794932409,"click_time":1551794934160,"finger_time":1551794933560,"fix_duration":1288.4373016004547,"trial":10,"RT":1151,"MT":600,"sideResp":2,"stimulus":"img/750/equaldotsize/L/6_Ratio_750_L_24_R_18.png","xmouse":[784,784,784,784,784,784,784,784,784,784,784,784,784,784,784,784,784,784,784,784,784,784,784,784,784,784,784,784,784,784,784,784,784,784,784,784,784,784,784,784,784,784,784,799,825,825,825,827,837,838,838,838,838,839,839,839,840,844,853,859,889,903,916,927,941,945,948,950,954,957,965,967,971,976,988,997,1019,1038,1054,1072,1077,1081,1082,1083,1085,1087,1091,1093],"ymouse":[523,523,523,523,523,523,523,523,523,523,523,523,523,523,523,523,523,523,523,523,523,523,523,523,523,523,523,523,523,523,523,523,523,523,523,523,523,523,523,523,523,523,523,512,495,495,495,494,482,480,480,480,480,479,479,477,470,452,434,422,379,364,354,344,335,333,331,330,328,325,320,318,314,310,300,290,267,252,236,211,197,186,175,165,148,136,113,98],"timestamp_mouse":[10,45,51,71,90,111,131,151,171,190,211,231,250,271,291,311,331,350,371,391,411,431,451,470,491,512,531,551,571,591,611,630,651,671,691,710,732,751,771,791,811,832,851,871,892,910,930,951,972,992,1011,1031,1050,1070,1091,1110,1131,1151,1171,1191,1213,1231,1251,1271,1291,1311,1330,1351,1371,1390,1411,1431,1451,1471,1491,1510,1531,1550,1571,1590,1611,1631,1652,1671,1691,1716,1734,1751],"xSR":741.5,"ySR":469.3,"xT1":424.9,"yT1":0,"xT2":1058.1,"yT2":0,"toosoon":0,"cond_shown":"equaldotsize","ratio_trial":750,"smaller_num":"18","larger_num":"24","correct_side":1,"subjID":"AlejandraRivera","gender":"1","age":"11","school":"6"},{"start_time":1551794937562,"click_time":1551794939620,"finger_time":1551794938440,"fix_duration":577.3236192970809,"trial":11,"RT":878,"MT":1180,"sideResp":1,"stimulus":"img/900/randomdotsizeEA/L/1_Ratio_900_L_10_R_9.png","xmouse":[780,780,780,780,780,780,780,780,780,780,780,780,780,780,780,780,780,780,780,780,780,780,780,780,780,780,780,780,780,780,780,780,780,780,780,780,780,780,780,780,780,763,748,731,707,681,660,652,644,630,621,604,595,589,589,587,583,582,578,578,577,577,575,574,573,570,565,563,560,559,558,555,554,552,550,549,545,545,544,543,541,539,538,538,536,535,535,533,533,532,531,531,530,530,529,528,528,527,526,526,526,525,524],"ymouse":[534,534,534,534,534,534,534,534,534,534,534,534,534,534,534,534,534,534,534,534,534,534,534,534,534,534,534,534,534,534,534,534,534,534,534,534,534,534,534,534,534,520,508,490,461,429,404,392,378,346,324,273,253,240,233,228,217,210,201,198,197,194,192,188,186,182,176,172,168,165,164,159,158,154,152,150,144,143,141,139,137,134,132,132,129,128,127,124,122,120,117,114,113,111,109,108,106,103,102,100,100,98,96],"timestamp_mouse":[19,47,70,78,98,117,139,157,178,198,219,239,258,278,298,318,338,358,377,397,418,437,458,478,497,518,538,557,578,598,618,639,658,681,699,718,739,758,778,798,819,838,857,878,898,918,942,959,978,998,1018,1038,1058,1078,1097,1118,1138,1158,1178,1198,1218,1238,1259,1278,1299,1318,1338,1359,1378,1398,1418,1438,1459,1477,1497,1517,1538,1559,1577,1597,1618,1638,1659,1677,1697,1719,1738,1759,1779,1798,1817,1838,1860,1878,1898,1918,1938,1958,1978,1999,2019,2038,2058],"xSR":741.5,"ySR":469.3,"xT1":424.9,"yT1":0,"xT2":1058.1,"yT2":0,"toosoon":0,"cond_shown":"randomdotsizeEA","ratio_trial":900,"smaller_num":"9","larger_num":"10","correct_side":1,"subjID":"AlejandraRivera","gender":"1","age":"11","school":"6"},{"start_time":1551794940731,"click_time":1551794943141,"finger_time":1551794941960,"fix_duration":250,"trial":12,"RT":1229,"MT":1181,"sideResp":1,"stimulus":"img/750/randomdotsizeEA/L/6_Ratio_750_L_24_R_18.png","xmouse":[811,811,811,811,811,811,811,811,811,811,811,811,811,811,811,811,811,811,811,811,811,811,811,811,811,811,811,811,811,811,811,811,811,811,811,811,811,811,811,811,811,811,811,811,811,811,811,811,811,811,811,811,811,811,811,811,804,801,792,788,781,767,754,735,706,694,685,673,660,637,632,620,608,586,574,562,549,544,541,539,537,536,536,535,534,534,534,534,534,534,534,534,534,534,533,532,532,532,531,531,530,529,529,528,527,526,525,525,522,521,520,519,519,517,516,516,516,516,516,516,517],"ymouse":[516,516,516,516,516,516,516,516,516,516,516,516,516,516,516,516,516,516,516,516,516,516,516,516,516,516,516,516,516,516,516,516,516,516,516,516,516,516,516,516,516,516,516,516,516,516,516,516,516,516,516,516,516,516,516,516,511,508,497,493,484,467,454,435,404,392,382,370,359,338,333,319,305,279,264,249,232,224,218,207,194,187,181,170,165,160,157,153,151,147,147,144,143,141,138,136,136,136,132,130,128,127,125,124,122,121,119,118,115,114,113,112,111,110,108,108,108,107,103,100,99],"timestamp_mouse":[12,29,68,69,90,109,128,149,169,190,209,228,249,268,289,310,329,350,370,388,410,429,449,469,490,509,529,550,568,588,609,629,649,669,689,709,729,749,769,789,808,830,849,869,888,909,929,949,969,990,1008,1029,1049,1069,1089,1109,1129,1149,1169,1189,1208,1229,1249,1270,1291,1309,1328,1349,1368,1388,1409,1429,1449,1470,1488,1508,1528,1548,1568,1590,1609,1629,1649,1669,1691,1710,1729,1750,1769,1789,1809,1829,1849,1870,1889,1909,1930,1949,1970,1989,2009,2030,2049,2070,2089,2109,2130,2149,2170,2189,2209,2230,2249,2269,2289,2309,2329,2349,2370,2389,2410],"xSR":741.5,"ySR":469.3,"xT1":424.9,"yT1":0,"xT2":1058.1,"yT2":0,"toosoon":0,"cond_shown":"randomdotsizeEA","ratio_trial":750,"smaller_num":"18","larger_num":"24","correct_side":1,"subjID":"AlejandraRivera","gender":"1","age":"11","school":"6"},{"start_time":1551794944131,"click_time":1551794945861,"finger_time":1551794945040,"fix_duration":250,"trial":13,"RT":909,"MT":821,"sideResp":2,"stimulus":"img/900/randomdotsizeEA/L/8_Ratio_900_L_20_R_18.png","xmouse":[795,795,795,795,795,795,795,795,795,795,795,795,795,795,795,795,795,795,795,795,795,795,795,795,795,795,795,795,795,795,795,795,795,786,782,782,782,782,782,782,782,782,783,801,829,865,881,903,924,929,933,936,940,940,940,944,946,946,954,960,965,971,974,982,986,991,996,1003,1019,1030,1035,1047,1056,1075,1080,1083,1085,1085,1085,1085,1087,1089,1089,1090,1090,1090,1090],"ymouse":[512,512,512,512,512,512,512,512,512,512,512,512,512,512,512,512,512,512,512,512,512,512,512,512,512,512,512,512,512,512,512,512,512,508,504,504,504,504,504,504,504,503,502,496,490,483,480,465,445,437,432,428,420,420,420,415,409,409,385,369,353,335,322,297,290,280,272,265,239,223,216,199,179,136,123,115,112,111,111,111,106,102,101,100,100,100,97],"timestamp_mouse":[16,46,49,70,88,110,129,148,169,189,209,229,248,269,289,308,329,348,369,390,408,429,448,469,489,508,529,549,570,589,609,629,650,669,690,710,729,750,769,789,808,828,849,869,889,909,930,950,976,991,1009,1029,1049,1069,1089,1109,1129,1148,1168,1190,1209,1229,1250,1269,1289,1308,1330,1349,1370,1388,1409,1429,1449,1468,1489,1509,1530,1549,1570,1589,1610,1629,1649,1668,1691,1709,1730],"xSR":741.5,"ySR":469.3,"xT1":424.9,"yT1":0,"xT2":1058.1,"yT2":0,"toosoon":0,"cond_shown":"randomdotsizeEA","ratio_trial":900,"smaller_num":"18","larger_num":"20","correct_side":1,"subjID":"AlejandraRivera","gender":"1","age":"11","school":"6"},{"start_time":1551794947927,"click_time":1551794949099,"finger_time":1551794948700,"fix_duration":306.9640226003437,"trial":14,"RT":773,"MT":399,"sideResp":2,"stimulus":"img/750/equaldotsize/R/2_Ratio_750_L_6_R_8.png","xmouse":[802,802,802,802,802,802,802,802,802,802,802,802,802,802,802,802,802,802,802,802,802,802,802,802,802,802,802,802,802,802,802,802,802,802,802,802,820,834,884,904,961,961,1029,1051,1108,1144,1179,1198,1219,1225,1228,1230,1230,1221,1212,1192,1180,1180,1126],"ymouse":[521,521,521,521,521,521,521,521,521,521,521,521,521,521,521,521,521,521,521,521,521,521,521,521,521,521,521,521,521,521,521,521,521,521,521,521,496,478,424,405,349,349,279,259,202,167,136,115,82,68,58,40,29,14,8,1,0,0,8],"timestamp_mouse":[15,33,71,73,93,112,133,153,173,194,213,233,253,273,294,313,333,354,373,394,413,432,453,474,494,513,533,553,572,593,613,632,652,673,694,714,734,754,773,798,819,833,854,872,892,913,933,953,973,994,1013,1034,1053,1074,1093,1112,1134,1153,1172],"xSR":741.5,"ySR":469.3,"xT1":424.9,"yT1":0,"xT2":1058.1,"yT2":0,"toosoon":0,"cond_shown":"equaldotsize","ratio_trial":750,"smaller_num":"6","larger_num":"8","correct_side":2,"subjID":"AlejandraRivera","gender":"1","age":"11","school":"6"},{"start_time":1551794952768,"click_time":1551794953823,"finger_time":1551794953600,"fix_duration":1446.3490750375822,"trial":15,"RT":832,"MT":223,"sideResp":2,"stimulus":"img/500/randomdotsizeEA/L/4_Ratio_500_L_18_R_9.png","xmouse":[792,792,792,792,792,792,792,792,792,792,792,792,792,792,792,792,792,792,792,792,792,792,792,792,792,792,792,792,792,792,792,792,792,792,792,792,792,792,792,813,962,999,1020,1020,1028,1039,1055,1071,1077,1083,1090,1096],"ymouse":[521,521,521,521,521,521,521,521,521,521,521,521,521,521,521,521,521,521,521,521,521,521,521,521,521,521,521,521,521,521,521,521,521,521,521,521,521,521,512,490,379,349,322,322,302,284,258,226,201,158,113,85],"timestamp_mouse":[12,51,71,92,113,132,153,172,192,212,232,252,273,293,312,332,353,373,392,412,432,452,472,492,512,531,552,572,592,611,632,651,673,692,712,731,752,773,792,813,832,856,878,891,911,931,957,980,995,1023,1037,1055],"xSR":741.5,"ySR":469.3,"xT1":424.9,"yT1":0,"xT2":1058.1,"yT2":0,"toosoon":0,"cond_shown":"randomdotsizeEA","ratio_trial":500,"smaller_num":"9","larger_num":"18","correct_side":1,"subjID":"AlejandraRivera","gender":"1","age":"11","school":"6"},{"start_time":1551794954992,"click_time":1551794955760,"finger_time":1551794955500,"fix_duration":250,"trial":16,"RT":508,"MT":260,"sideResp":1,"stimulus":"img/900/equaldotsize/L/4_Ratio_900_L_20_R_18.png","xmouse":[784,793,795,795,795,795,795,795,795,795,795,795,795,795,795,795,795,795,795,795,795,795,795,792,779,761,729,700,656,586,557,545,539,539,537,537,535,518],"ymouse":[484,489,491,491,491,491,491,491,491,491,491,491,491,491,491,491,491,491,491,491,491,491,491,480,452,414,360,319,251,157,122,108,101,99,96,96,92,68],"timestamp_mouse":[11,28,48,89,108,128,149,168,188,208,227,248,268,288,307,327,348,367,388,408,429,448,468,488,508,533,550,568,589,607,627,647,669,688,708,727,748,768],"xSR":741.5,"ySR":469.3,"xT1":424.9,"yT1":0,"xT2":1058.1,"yT2":0,"toosoon":0,"cond_shown":"equaldotsize","ratio_trial":900,"smaller_num":"18","larger_num":"20","correct_side":1,"subjID":"AlejandraRivera","gender":"1","age":"11","school":"6"},{"start_time":1551794958612,"click_time":1551794959420,"finger_time":1551794959300,"fix_duration":250,"trial":17,"RT":688,"MT":120,"sideResp":2,"stimulus":"img/250/equaldotanddens/R/4_Ratio_250_L_3_R_12.png","xmouse":[764,764,764,764,765,766,766,766,766,766,766,766,766,766,766,766,766,766,766,766,766,766,766,766,766,766,766,766,766,766,766,766,766,770,808,844,910,938,938,1022,1083],"ymouse":[484,484,483,483,483,484,484,484,484,484,484,484,484,484,484,484,484,484,484,484,484,484,484,484,484,484,484,484,484,484,484,484,484,481,441,408,336,300,300,164,53],"timestamp_mouse":[11,28,56,68,88,108,127,147,168,189,208,227,247,267,288,309,329,348,368,387,408,428,448,468,487,508,528,548,568,588,608,628,648,667,688,712,735,750,768,789,807],"xSR":741.5,"ySR":469.3,"xT1":424.9,"yT1":0,"xT2":1058.1,"yT2":0,"toosoon":0,"cond_shown":"equaldotanddens","ratio_trial":250,"smaller_num":"3","larger_num":"12","correct_side":2,"subjID":"AlejandraRivera","gender":"1","age":"11","school":"6"},{"start_time":1551794960912,"click_time":1551794962341,"finger_time":1551794962040,"fix_duration":250,"trial":18,"RT":1128,"MT":301,"sideResp":2,"stimulus":"img/250/equaldotanddens/R/8_Ratio_250_L_1_R_4.png","xmouse":[804,804,804,804,804,804,804,804,804,804,804,804,804,804,804,804,804,804,804,804,804,804,804,804,804,804,804,804,804,804,804,804,804,804,804,804,804,804,804,804,804,804,804,804,804,804,804,804,804,804,804,804,804,804,822,884,940,1043,1066,1134,1136,1136,1136,1136,1136,1137,1137,1136,1129,1126,1118],"ymouse":[494,494,494,494,494,494,494,494,494,494,494,494,494,494,494,494,494,494,494,494,494,494,494,494,494,494,494,494,494,494,494,494,494,494,494,494,494,494,494,494,494,494,494,494,494,494,494,494,494,494,494,494,494,494,476,408,348,254,234,164,151,146,143,138,136,132,127,119,108,101,82],"timestamp_mouse":[13,50,68,88,108,127,148,169,189,208,228,248,269,288,337,337,348,368,388,407,428,448,468,487,509,528,548,568,588,609,628,648,668,688,708,727,749,768,788,807,828,848,868,887,908,929,948,967,988,1008,1027,1048,1068,1088,1108,1128,1147,1167,1187,1207,1228,1249,1268,1288,1308,1328,1347,1368,1388,1408,1428],"xSR":741.5,"ySR":469.3,"xT1":424.9,"yT1":0,"xT2":1058.1,"yT2":0,"toosoon":0,"cond_shown":"equaldotanddens","ratio_trial":250,"smaller_num":"1","larger_num":"4","correct_side":2,"subjID":"AlejandraRivera","gender":"1","age":"11","school":"6"},{"start_time":1551794967307,"click_time":1551794968381,"finger_time":1551794968039,"fix_duration":386.1640301472408,"trial":19,"RT":732,"MT":342,"sideResp":2,"stimulus":"img/500/equaldotsize/R/14_Ratio_500_L_5_R_10.png","xmouse":[783,783,783,783,783,783,783,783,783,783,783,783,783,783,783,783,783,783,783,783,783,783,783,783,783,783,783,783,783,783,783,783,783,783,796,837,896,971,1003,1017,1024,1030,1035,1046,1051,1058,1068,1079,1097,1107,1112,1118,1119],"ymouse":[544,544,544,544,544,544,544,544,544,544,544,544,544,544,544,544,544,544,544,544,544,544,544,544,544,544,544,544,544,544,544,544,544,544,530,467,395,325,292,273,261,254,245,226,218,207,193,178,149,132,118,102,96],"timestamp_mouse":[49,54,73,94,113,133,152,173,193,214,232,253,273,292,314,333,353,374,392,412,433,452,473,492,513,533,552,572,592,613,633,652,672,693,714,732,754,773,793,813,832,853,873,893,913,932,954,973,993,1012,1033,1054,1074],"xSR":741.5,"ySR":469.3,"xT1":424.9,"yT1":0,"xT2":1058.1,"yT2":0,"toosoon":0,"cond_shown":"equaldotsize","ratio_trial":500,"smaller_num":"5","larger_num":"10","correct_side":2,"subjID":"AlejandraRivera","gender":"1","age":"11","school":"6"},{"start_time":1551794971760,"click_time":1551794975221,"finger_time":1551794974821,"fix_duration":1478.2031607551148,"trial":20,"RT":3061,"MT":400,"sideResp":1,"stimulus":"img/750/equaldotanddens/L/13_Ratio_750_L_8_R_6.png","xmouse":[801,801,801,801,801,801,801,801,801,801,801,801,801,801,810,812,812,812,812,812,812,812,812,812,812,812,812,812,812,812,812,812,812,812,812,812,812,812,812,812,812,812,812,812,812,812,812,812,812,812,812,812,812,812,812,812,812,812,812,812,812,812,812,812,812,812,812,812,812,812,812,812,812,812,812,812,812,812,812,812,812,812,812,812,812,812,812,812,812,812,812,812,812,812,812,812,812,812,812,812,812,812,812,812,812,812,812,812,812,812,812,812,812,812,812,812,812,812,812,812,812,812,812,812,812,812,812,812,812,812,812,812,812,812,812,812,812,812,812,812,812,812,812,812,812,812,812,812,812,812,812,812,783,765,740,718,699,664,652,640,631,628,623,619,615,606,597,580,575,572,567,560,531,521],"ymouse":[557,557,557,557,557,557,557,557,557,557,557,557,557,556,560,561,561,561,561,561,561,561,561,561,561,561,561,561,561,561,561,561,561,561,561,561,561,561,561,561,561,561,561,561,561,561,561,561,561,561,561,561,561,561,561,561,561,561,561,561,561,561,561,561,561,561,561,561,561,561,561,561,561,561,561,561,561,561,561,561,561,561,561,561,561,561,561,561,561,561,561,561,561,561,561,561,561,561,561,561,561,561,561,561,561,561,561,561,561,561,561,561,561,561,561,561,561,561,561,561,561,561,561,561,561,561,561,561,561,561,561,561,561,561,561,561,561,561,561,561,561,561,561,561,561,561,561,561,561,561,561,561,491,443,398,349,321,279,257,236,224,220,213,207,198,182,165,136,130,124,118,110,93,88],"timestamp_mouse":[11,21,49,61,79,99,120,140,160,179,200,220,240,261,280,299,320,340,360,380,400,419,439,459,480,500,520,539,560,580,600,620,640,660,680,699,721,740,760,779,800,820,839,860,879,900,920,940,960,980,1000,1021,1040,1060,1080,1100,1120,1140,1159,1180,1200,1221,1239,1259,1280,1300,1321,1341,1359,1380,1399,1419,1439,1460,1480,1500,1519,1540,1559,1580,1600,1621,1640,1660,1680,1700,1721,1740,1760,1780,1800,1820,1840,1860,1880,1899,1920,1940,1960,1980,1999,2021,2040,2060,2080,2100,2121,2139,2160,2180,2201,2220,2240,2260,2280,2300,2319,2340,2360,2380,2401,2421,2440,2459,2479,2500,2520,2540,2560,2580,2600,2620,2641,2660,2681,2700,2721,2740,2760,2780,2800,2820,2840,2861,2880,2900,2919,2940,2960,2980,3000,3020,3040,3061,3080,3100,3120,3140,3160,3180,3201,3220,3240,3260,3280,3300,3320,3340,3359,3380,3400,3420,3440,3461],"xSR":741.5,"ySR":469.3,"xT1":424.9,"yT1":0,"xT2":1058.1,"yT2":0,"toosoon":0,"cond_shown":"equaldotanddens","ratio_trial":750,"smaller_num":"6","larger_num":"8","correct_side":1,"subjID":"AlejandraRivera","gender":"1","age":"11","school":"6"},{"start_time":1551794979431,"click_time":1551794980479,"finger_time":1551794980180,"fix_duration":1449.7328900912164,"trial":21,"RT":749,"MT":299,"sideResp":1,"stimulus":"img/500/randomdotsizeEA/L/11_Ratio_500_L_12_R_6.png","xmouse":[796,796,796,796,796,796,796,796,796,796,796,796,796,802,806,808,808,808,808,808,808,808,808,808,808,808,808,808,808,808,808,808,808,806,800,785,769,707,686,666,644,621,582,571,566,565,564,557,552,543,529,509],"ymouse":[524,524,524,524,524,524,524,524,524,524,524,524,524,524,525,526,526,526,526,526,526,526,526,526,526,526,526,526,526,526,526,526,526,524,512,487,454,327,281,249,202,151,71,50,42,40,39,38,38,37,37,40],"timestamp_mouse":[14,51,69,89,109,129,148,169,189,209,229,249,270,290,309,329,350,368,390,409,429,449,469,489,509,530,549,569,590,609,629,648,670,689,710,730,749,770,792,814,829,849,869,889,909,929,951,971,989,1008,1028,1048],"xSR":741.5,"ySR":469.3,"xT1":424.9,"yT1":0,"xT2":1058.1,"yT2":0,"toosoon":0,"cond_shown":"randomdotsizeEA","ratio_trial":500,"smaller_num":"6","larger_num":"12","correct_side":1,"subjID":"AlejandraRivera","gender":"1","age":"11","school":"6"},{"start_time":1551794983619,"click_time":1551794984740,"finger_time":1551794984441,"fix_duration":1056.708107141464,"trial":22,"RT":822,"MT":299,"sideResp":1,"stimulus":"img/500/equaldotanddens/L/11_Ratio_500_L_12_R_6.png","xmouse":[798,798,798,798,798,798,798,798,798,798,798,798,798,798,798,798,798,798,798,798,798,798,798,798,798,798,798,798,798,798,798,798,798,798,798,798,798,798,798,783,717,656,553,481,460,447,436,426,407,404,401,401,401,411,424,442],"ymouse":[523,523,523,523,523,523,523,523,523,523,523,523,523,523,523,523,523,523,523,523,523,523,523,523,523,523,523,523,523,523,523,523,523,523,523,523,523,523,523,508,459,415,345,289,269,251,230,214,177,168,157,146,139,121,109,99],"timestamp_mouse":[14,41,61,81,100,121,140,161,181,201,221,241,261,281,308,321,341,360,380,401,422,442,461,481,501,521,540,561,581,601,621,641,661,681,701,721,742,761,780,801,822,842,861,881,902,921,941,961,982,1002,1021,1040,1061,1082,1102,1121],"xSR":741.5,"ySR":469.3,"xT1":424.9,"yT1":0,"xT2":1058.1,"yT2":0,"toosoon":0,"cond_shown":"equaldotanddens","ratio_trial":500,"smaller_num":"6","larger_num":"12","correct_side":1,"subjID":"AlejandraRivera","gender":"1","age":"11","school":"6"},{"start_time":1551794986716,"click_time":1551794987601,"finger_time":1551794987400,"fix_duration":1054.3242012686933,"trial":23,"RT":684,"MT":201,"sideResp":2,"stimulus":"img/500/equaldotanddens/R/14_Ratio_500_L_5_R_10.png","xmouse":[756,756,756,756,756,756,756,756,756,756,756,756,756,756,756,756,756,756,756,756,756,756,756,756,756,756,756,756,756,758,759,764,793,867,927,983,1028,1071,1124,1132,1136,1138,1139,1141],"ymouse":[516,516,516,516,516,516,516,516,516,516,516,516,516,516,516,516,516,516,516,516,516,516,516,516,516,516,516,516,516,516,516,514,489,438,393,352,303,249,157,134,119,109,100,87],"timestamp_mouse":[11,23,72,84,105,124,144,164,184,204,224,245,264,284,307,323,344,365,384,404,423,444,463,484,504,524,544,564,584,605,624,645,665,684,707,728,744,764,784,804,823,843,863,885],"xSR":741.5,"ySR":469.3,"xT1":424.9,"yT1":0,"xT2":1058.1,"yT2":0,"toosoon":0,"cond_shown":"equaldotanddens","ratio_trial":500,"smaller_num":"5","larger_num":"10","correct_side":2,"subjID":"AlejandraRivera","gender":"1","age":"11","school":"6"},{"start_time":1551794989719,"click_time":1551794990780,"finger_time":1551794990560,"fix_duration":1318.5762585810328,"trial":24,"RT":841,"MT":220,"sideResp":2,"stimulus":"img/750/equaldotanddens/L/9_Ratio_750_L_4_R_3.png","xmouse":[801,801,801,801,801,801,801,801,801,801,801,801,801,801,801,801,801,801,801,801,801,801,801,801,801,801,801,801,801,801,801,801,801,801,801,801,801,801,801,805,824,874,925,1032,1048,1059,1069,1076,1082,1084,1086,1088,1094],"ymouse":[505,505,505,505,505,505,505,505,505,505,505,505,505,505,505,505,505,505,505,505,505,505,505,505,505,505,505,505,505,505,505,505,505,505,505,505,505,505,505,503,481,429,376,279,255,234,213,193,160,147,132,117,94],"timestamp_mouse":[16,60,61,80,100,121,141,161,180,200,221,240,261,281,308,320,341,361,381,401,421,441,461,480,500,521,541,562,582,601,621,641,661,681,702,722,741,761,781,802,822,841,861,882,902,921,941,961,981,1002,1021,1041,1061],"xSR":741.5,"ySR":469.3,"xT1":424.9,"yT1":0,"xT2":1058.1,"yT2":0,"toosoon":0,"cond_shown":"equaldotanddens","ratio_trial":750,"smaller_num":"3","larger_num":"4","correct_side":1,"subjID":"AlejandraRivera","gender":"1","age":"11","school":"6"},{"start_time":1551794993483,"click_time":1551794994500,"finger_time":1551794994200,"fix_duration":358.39651728660317,"trial":25,"RT":717,"MT":300,"sideResp":2,"stimulus":"img/500/equaldotanddens/R/14_Ratio_500_L_5_R_10.png","xmouse":[761,761,761,761,761,761,761,761,761,761,761,761,761,761,761,761,761,761,761,761,761,761,761,761,761,761,761,761,761,761,761,761,761,778,877,944,1005,1027,1036,1045,1048,1051,1055,1059,1071,1075,1078,1083,1086,1099],"ymouse":[514,514,514,514,514,514,514,514,514,514,514,514,514,514,514,514,514,514,514,514,514,514,514,514,514,514,514,514,514,514,514,514,514,505,457,417,371,348,332,298,277,253,233,215,167,148,133,116,101,70],"timestamp_mouse":[41,56,76,96,117,137,156,178,196,216,238,258,276,298,317,336,356,376,396,417,436,456,476,497,516,537,557,576,596,617,637,657,676,698,717,739,761,778,796,816,836,856,877,896,916,937,957,977,997,1017],"xSR":741.5,"ySR":469.3,"xT1":424.9,"yT1":0,"xT2":1058.1,"yT2":0,"toosoon":0,"cond_shown":"equaldotanddens","ratio_trial":500,"smaller_num":"5","larger_num":"10","correct_side":2,"subjID":"AlejandraRivera","gender":"1","age":"11","school":"6"},{"start_time":1551794996579,"click_time":1551794997861,"finger_time":1551794997319,"fix_duration":1337.9065301580654,"trial":26,"RT":740,"MT":542,"sideResp":2,"stimulus":"img/250/randomdotsizeEA/R/13_Ratio_250_L_2_R_8.png","xmouse":[776,776,776,776,776,776,776,776,776,776,776,776,776,776,776,776,776,776,776,776,776,776,776,776,776,776,776,776,776,776,776,776,776,776,776,791,857,961,1194,1267,1505,1505,1505,1505,1581,1556,1541,1524,1505,1487,1426,1409,1397,1388,1376,1325,1302,1290,1288,1288,1254,1207,1164,1134],"ymouse":[541,541,541,541,541,541,541,541,541,541,541,541,541,541,541,541,541,541,541,541,541,541,541,524,511,487,483,481,481,481,481,481,481,481,480,473,459,439,392,370,258,258,258,258,124,79,64,56,49,44,35,33,33,33,33,39,43,44,44,44,45,46,46,46],"timestamp_mouse":[11,21,42,82,101,121,140,161,180,201,220,240,261,282,309,320,341,360,381,400,421,440,460,481,501,520,540,562,580,601,621,640,660,681,702,720,740,762,781,801,822,842,861,881,901,921,941,961,981,1000,1021,1040,1062,1080,1100,1121,1141,1162,1180,1201,1221,1241,1260,1282],"xSR":741.5,"ySR":469.3,"xT1":424.9,"yT1":0,"xT2":1058.1,"yT2":0,"toosoon":0,"cond_shown":"randomdotsizeEA","ratio_trial":250,"smaller_num":"2","larger_num":"8","correct_side":2,"subjID":"AlejandraRivera","gender":"1","age":"11","school":"6"},{"start_time":1551794999251,"click_time":1551795000300,"finger_time":1551795000100,"fix_duration":250,"trial":27,"RT":849,"MT":200,"sideResp":1,"stimulus":"img/900/equaldotsize/L/10_Ratio_900_L_20_R_18.png","xmouse":[774,774,774,774,774,774,774,774,774,774,774,774,774,774,774,774,774,774,774,774,774,774,774,774,774,774,774,774,774,774,774,774,774,774,774,774,774,774,774,774,767,754,679,637,592,575,531,514,508,505,503,498,487],"ymouse":[501,501,501,501,501,501,501,501,501,501,501,501,501,501,501,501,501,501,501,501,501,501,501,501,501,501,501,501,501,501,501,501,501,501,501,501,501,501,501,501,488,472,402,370,329,311,236,200,181,156,138,119,80],"timestamp_mouse":[12,28,59,69,89,108,128,149,169,188,208,228,248,268,288,308,329,349,368,390,409,428,449,470,488,509,528,548,568,590,609,629,650,668,688,709,729,749,769,788,808,829,849,871,893,909,929,950,969,989,1010,1029,1049],"xSR":741.5,"ySR":469.3,"xT1":424.9,"yT1":0,"xT2":1058.1,"yT2":0,"toosoon":0,"cond_shown":"equaldotsize","ratio_trial":900,"smaller_num":"18","larger_num":"20","correct_side":1,"subjID":"AlejandraRivera","gender":"1","age":"11","school":"6"},{"start_time":1551795002126,"click_time":1551795003200,"finger_time":1551795002819,"fix_duration":1023.8680916079595,"trial":28,"RT":693,"MT":381,"sideResp":2,"stimulus":"img/500/equaldotsize/R/15_Ratio_500_L_1_R_2.png","xmouse":[817,817,817,817,817,817,817,817,817,817,817,817,817,817,817,817,817,817,817,817,817,817,817,817,817,817,817,817,817,817,818,822,839,842,844,851,870,984,1049,1103,1138,1155,1165,1166,1166,1166,1166,1166,1165,1165,1164,1163,1157],"ymouse":[521,521,521,521,521,521,521,521,521,521,521,521,521,521,521,521,521,521,521,521,521,521,521,521,521,521,521,521,521,521,521,519,501,499,497,489,473,383,311,244,192,159,111,94,79,72,65,63,62,59,56,52,42],"timestamp_mouse":[39,53,75,93,113,133,153,173,193,215,234,254,274,294,313,334,353,375,393,414,433,453,474,494,513,534,553,574,594,613,634,655,675,693,714,734,753,773,794,814,834,854,874,894,913,933,953,973,993,1014,1033,1053,1073],"xSR":741.5,"ySR":469.3,"xT1":424.9,"yT1":0,"xT2":1058.1,"yT2":0,"toosoon":0,"cond_shown":"equaldotsize","ratio_trial":500,"smaller_num":"1","larger_num":"2","correct_side":2,"subjID":"AlejandraRivera","gender":"1","age":"11","school":"6"},{"start_time":1551795005557,"click_time":1551795006400,"finger_time":1551795006200,"fix_duration":1414.0604957616592,"trial":29,"RT":643,"MT":200,"sideResp":2,"stimulus":"img/250/equaldotsize/R/10_Ratio_250_L_4_R_16.png","xmouse":[779,779,779,779,779,779,779,779,779,779,779,779,779,779,779,779,779,779,779,779,779,779,779,779,779,779,779,779,779,783,791,829,842,858,883,926,1030,1065,1095,1111,1120,1126],"ymouse":[493,493,493,493,493,493,493,493,493,493,493,493,493,493,493,493,493,493,493,493,493,493,493,493,493,493,493,493,493,492,485,460,450,438,416,377,278,240,194,156,130,77],"timestamp_mouse":[11,24,69,83,103,124,143,162,182,203,223,243,262,282,308,323,343,363,383,403,423,443,462,482,503,524,543,562,582,602,623,643,665,686,704,723,743,763,784,802,822,843],"xSR":741.5,"ySR":469.3,"xT1":424.9,"yT1":0,"xT2":1058.1,"yT2":0,"toosoon":0,"cond_shown":"equaldotsize","ratio_trial":250,"smaller_num":"4","larger_num":"16","correct_side":2,"subjID":"AlejandraRivera","gender":"1","age":"11","school":"6"},{"start_time":1551795007645,"click_time":1551795008581,"finger_time":1551795008220,"fix_duration":462.1217371041384,"trial":30,"RT":575,"MT":361,"sideResp":2,"stimulus":"img/900/equaldotsize/R/7_Ratio_900_L_9_R_10.png","xmouse":[780,780,780,780,780,780,780,780,780,780,780,780,780,780,780,780,780,780,780,780,780,780,780,780,780,788,811,836,866,895,922,957,968,974,980,989,998,1002,1007,1015,1021,1036,1044,1053,1063,1077],"ymouse":[539,539,539,539,539,539,539,539,539,539,539,539,539,539,539,539,539,539,539,539,539,539,539,539,532,524,495,462,425,390,356,303,286,273,260,239,220,206,192,175,159,132,122,111,103,96],"timestamp_mouse":[15,34,82,96,115,135,155,174,194,214,234,254,274,296,315,335,355,375,396,415,436,455,474,494,515,535,554,575,594,616,634,654,674,694,716,734,757,775,795,816,835,855,875,895,915,935],"xSR":741.5,"ySR":469.3,"xT1":424.9,"yT1":0,"xT2":1058.1,"yT2":0,"toosoon":0,"cond_shown":"equaldotsize","ratio_trial":900,"smaller_num":"9","larger_num":"10","correct_side":2,"subjID":"AlejandraRivera","gender":"1","age":"11","school":"6"},{"start_time":1551795010109,"click_time":1551795011379,"finger_time":1551795010799,"fix_duration":746.5792453481575,"trial":31,"RT":690,"MT":580,"sideResp":2,"stimulus":"img/250/equaldotanddens/R/8_Ratio_250_L_1_R_4.png","xmouse":[791,791,791,791,791,791,791,791,791,791,791,791,791,791,791,791,791,791,791,791,791,791,791,791,791,791,791,791,791,791,791,790,809,850,868,883,897,906,930,944,955,961,975,979,985,989,995,1002,1010,1014,1018,1021,1028,1035,1038,1043,1046,1048,1051,1053,1055,1056,1060],"ymouse":[508,508,508,508,508,508,508,508,508,508,508,508,508,508,508,508,508,508,508,508,508,508,508,508,508,508,508,508,508,508,508,508,485,443,424,402,376,358,304,272,245,223,187,176,164,154,143,130,122,118,114,111,109,106,106,104,103,103,101,101,100,100,98],"timestamp_mouse":[14,52,71,90,111,131,151,171,191,210,231,251,271,290,310,330,350,370,390,410,432,450,470,490,510,530,550,571,591,611,631,651,671,690,713,735,752,770,790,810,830,851,871,891,911,930,951,970,993,1010,1030,1050,1071,1092,1110,1130,1151,1170,1191,1210,1230,1251,1270],"xSR":741.5,"ySR":469.3,"xT1":424.9,"yT1":0,"xT2":1058.1,"yT2":0,"toosoon":0,"cond_shown":"equaldotanddens","ratio_trial":250,"smaller_num":"1","larger_num":"4","correct_side":2,"subjID":"AlejandraRivera","gender":"1","age":"11","school":"6"},{"start_time":1551795012835,"click_time":1551795014079,"finger_time":1551795013720,"fix_duration":493.2048434362634,"trial":32,"RT":885,"MT":359,"sideResp":1,"stimulus":"img/500/equaldotanddens/L/7_Ratio_500_L_10_R_5.png","xmouse":[803,803,803,803,803,803,803,803,803,803,803,803,803,803,803,803,803,803,803,803,803,803,803,803,803,803,803,803,803,803,803,803,803,803,803,803,803,803,803,801,794,788,765,748,735,723,714,711,702,670,631,607,593,573,567,562,555,547,533,526,522,518,505],"ymouse":[508,508,508,508,508,508,508,508,508,508,508,508,508,508,508,508,508,508,508,508,508,508,508,508,508,508,508,508,508,508,508,508,508,508,508,508,508,508,508,508,505,503,490,479,469,461,453,450,438,394,330,290,266,224,210,198,180,163,134,120,113,106,90],"timestamp_mouse":[12,25,63,66,85,105,124,145,164,184,204,224,245,265,286,309,326,344,365,385,404,424,445,465,485,505,524,544,564,584,605,625,644,664,685,705,724,744,764,784,805,825,845,866,885,905,925,945,965,985,1004,1025,1044,1064,1085,1104,1124,1145,1164,1184,1205,1225,1244],"xSR":741.5,"ySR":469.3,"xT1":424.9,"yT1":0,"xT2":1058.1,"yT2":0,"toosoon":0,"cond_shown":"equaldotanddens","ratio_trial":500,"smaller_num":"5","larger_num":"10","correct_side":1,"subjID":"AlejandraRivera","gender":"1","age":"11","school":"6"},{"start_time":1551795015944,"click_time":1551795017260,"finger_time":1551795016820,"fix_duration":663.7536319937526,"trial":33,"RT":876,"MT":440,"sideResp":2,"stimulus":"img/750/randomdotsizeEA/R/3_Ratio_750_L_15_R_20.png","xmouse":[791,791,791,791,791,791,791,791,791,791,791,791,791,791,791,791,791,791,791,791,791,791,791,791,791,791,791,791,791,791,791,791,791,791,791,791,791,796,811,824,833,840,847,857,872,908,927,943,959,973,988,1009,1025,1033,1041,1051,1055,1061,1066,1072,1083,1085,1087,1088,1089],"ymouse":[518,518,518,518,518,518,518,518,518,518,518,518,518,518,518,518,518,518,518,518,518,518,518,518,518,518,518,518,518,518,518,518,518,518,518,518,518,517,506,499,493,487,482,472,457,425,408,388,368,348,327,292,259,232,207,175,160,146,133,121,108,104,102,100,98],"timestamp_mouse":[16,65,76,95,116,135,155,176,195,216,236,256,277,296,316,335,355,375,395,416,436,456,476,496,517,535,556,576,595,615,635,656,676,695,715,735,769,775,795,816,835,855,876,895,915,936,957,976,995,1015,1035,1057,1076,1096,1116,1143,1164,1179,1196,1217,1236,1256,1276,1296,1316],"xSR":741.5,"ySR":469.3,"xT1":424.9,"yT1":0,"xT2":1058.1,"yT2":0,"toosoon":0,"cond_shown":"randomdotsizeEA","ratio_trial":750,"smaller_num":"15","larger_num":"20","correct_side":2,"subjID":"AlejandraRivera","gender":"1","age":"11","school":"6"},{"start_time":1551795018553,"click_time":1551795019680,"finger_time":1551795019441,"fix_duration":250,"trial":34,"RT":888,"MT":239,"sideResp":1,"stimulus":"img/900/randomdotsizeEA/R/11_Ratio_900_L_18_R_20.png","xmouse":[769,769,769,769,769,769,769,769,769,769,769,769,769,769,769,769,769,769,769,769,769,769,769,769,769,769,769,769,769,769,769,769,769,769,769,769,769,769,769,769,769,769,769,763,737,696,593,542,512,510,509,509,508,505,499,495,490],"ymouse":[515,515,515,515,515,515,515,515,515,515,515,515,515,515,515,515,515,515,515,515,515,515,515,515,515,515,515,515,515,515,515,515,515,515,515,515,515,515,515,515,515,515,515,512,483,445,338,284,243,235,219,184,155,137,119,104,79],"timestamp_mouse":[11,27,64,67,87,107,126,146,166,187,207,226,246,267,287,308,327,347,367,386,407,426,447,467,486,506,528,548,567,588,607,626,646,666,687,707,727,747,766,786,806,826,847,867,888,907,927,953,972,987,1007,1028,1047,1067,1087,1106,1127],"xSR":741.5,"ySR":469.3,"xT1":424.9,"yT1":0,"xT2":1058.1,"yT2":0,"toosoon":0,"cond_shown":"randomdotsizeEA","ratio_trial":900,"smaller_num":"18","larger_num":"20","correct_side":2,"subjID":"AlejandraRivera","gender":"1","age":"11","school":"6"},{"start_time":1551795020692,"click_time":1551795023300,"finger_time":1551795023061,"fix_duration":250,"trial":35,"RT":2369,"MT":239,"sideResp":2,"stimulus":"img/900/equaldotsize/R/15_Ratio_900_L_9_R_10.png","xmouse":[768,768,768,768,768,768,768,772,773,775,778,778,779,779,779,780,781,781,781,781,781,781,782,782,782,783,783,785,791,804,814,817,817,817,817,817,817,817,817,817,817,817,817,817,817,817,817,817,817,817,817,817,817,817,817,817,817,817,817,817,817,817,817,817,817,817,817,817,817,817,817,817,817,817,817,817,817,817,817,817,817,817,817,817,817,817,817,817,817,817,817,817,817,817,817,817,817,817,817,817,817,817,817,817,817,817,817,817,817,817,817,817,817,817,817,817,817,818,848,902,1035,1064,1079,1094,1109,1114,1115,1118,1119,1120,1120],"ymouse":[496,496,496,496,496,496,496,498,499,506,510,513,514,515,516,517,518,518,518,519,519,519,519,519,519,519,519,519,519,513,510,509,509,509,509,509,509,509,509,509,509,509,509,509,509,509,509,509,509,509,509,509,509,509,509,509,509,509,509,509,509,509,509,509,509,509,509,509,509,509,509,509,509,509,509,509,509,509,509,509,509,509,509,509,509,509,509,509,509,509,509,509,509,509,509,509,509,509,509,509,509,509,509,509,509,509,509,509,509,509,509,509,509,509,509,509,509,505,465,410,284,256,236,216,184,159,152,132,122,109,83],"timestamp_mouse":[11,46,47,67,87,108,127,147,168,188,208,228,248,268,287,312,327,348,368,388,407,428,449,468,488,508,527,547,568,588,608,629,648,668,687,707,728,748,769,788,808,828,847,868,888,908,928,948,968,987,1007,1027,1048,1068,1089,1108,1129,1147,1167,1187,1207,1228,1248,1268,1287,1307,1327,1347,1367,1387,1408,1429,1447,1467,1488,1508,1527,1547,1567,1588,1608,1629,1648,1667,1688,1708,1727,1748,1768,1788,1807,1827,1848,1867,1887,1909,1927,1948,1967,1988,2007,2029,2049,2068,2088,2108,2128,2148,2168,2188,2208,2229,2247,2268,2287,2307,2327,2348,2369,2388,2408,2427,2447,2468,2487,2510,2528,2547,2569,2588,2608],"xSR":741.5,"ySR":469.3,"xT1":424.9,"yT1":0,"xT2":1058.1,"yT2":0,"toosoon":0,"cond_shown":"equaldotsize","ratio_trial":900,"smaller_num":"9","larger_num":"10","correct_side":2,"subjID":"AlejandraRivera","gender":"1","age":"11","school":"6"},{"start_time":1551795025086,"click_time":1551795026300,"finger_time":1551795026119,"fix_duration":1105.8500402757268,"trial":36,"RT":1033,"MT":181,"sideResp":1,"stimulus":"img/750/randomdotsizeEA/L/9_Ratio_750_L_4_R_3.png","xmouse":[795,795,795,795,795,795,795,795,795,795,795,795,795,795,795,795,795,795,795,795,795,795,795,795,795,795,795,795,795,795,795,795,795,795,795,795,795,795,795,795,795,795,795,795,795,795,795,795,795,794,759,710,668,611,585,574,561,551,544,536,521],"ymouse":[538,538,538,538,538,538,538,538,538,538,538,538,538,538,538,538,538,538,538,538,538,538,538,538,538,538,538,538,538,538,538,538,538,538,538,538,538,538,538,538,538,538,538,538,538,538,538,538,538,538,487,414,354,288,247,225,190,168,149,129,96],"timestamp_mouse":[14,52,53,73,94,113,134,154,174,195,213,233,254,274,295,314,334,353,374,394,414,434,455,474,494,514,533,554,573,593,615,635,654,673,693,714,733,753,774,794,814,833,854,873,893,914,934,953,973,993,1013,1033,1053,1074,1096,1116,1134,1153,1173,1193,1214],"xSR":741.5,"ySR":469.3,"xT1":424.9,"yT1":0,"xT2":1058.1,"yT2":0,"toosoon":0,"cond_shown":"randomdotsizeEA","ratio_trial":750,"smaller_num":"3","larger_num":"4","correct_side":1,"subjID":"AlejandraRivera","gender":"1","age":"11","school":"6"},{"start_time":1551795027964,"click_time":1551795029080,"finger_time":1551795028820,"fix_duration":563.6432981487459,"trial":37,"RT":856,"MT":260,"sideResp":2,"stimulus":"img/900/equaldotanddens/L/2_Ratio_900_L_20_R_18.png","xmouse":[766,766,766,769,770,771,771,771,772,772,773,774,774,774,774,774,774,775,776,778,778,778,778,778,778,778,778,778,778,778,778,778,778,778,778,778,778,778,778,785,802,842,867,886,905,963,989,1021,1044,1069,1076,1081,1094,1099,1104],"ymouse":[505,505,505,507,507,507,508,508,508,508,508,508,508,509,509,509,509,509,509,509,509,509,509,509,509,509,509,509,509,509,509,509,509,509,509,509,509,509,509,503,480,439,418,401,383,315,279,234,197,161,149,139,117,105,94],"timestamp_mouse":[15,35,79,95,117,136,156,175,196,216,236,256,276,297,316,335,355,376,396,416,435,455,476,496,515,536,555,575,596,617,636,656,676,695,715,735,755,775,797,816,836,856,875,896,915,944,956,975,996,1016,1036,1056,1076,1097,1116],"xSR":741.5,"ySR":469.3,"xT1":424.9,"yT1":0,"xT2":1058.1,"yT2":0,"toosoon":0,"cond_shown":"equaldotanddens","ratio_trial":900,"smaller_num":"18","larger_num":"20","correct_side":1,"subjID":"AlejandraRivera","gender":"1","age":"11","school":"6"},{"start_time":1551795031841,"click_time":1551795032940,"finger_time":1551795032580,"fix_duration":1299.6811875634498,"trial":38,"RT":739,"MT":360,"sideResp":2,"stimulus":"img/750/randomdotsizeEA/L/10_Ratio_750_L_4_R_3.png","xmouse":[770,770,770,770,770,770,770,770,770,770,770,770,770,770,770,770,770,770,770,770,770,770,770,770,770,770,770,770,770,770,770,770,770,770,770,779,823,854,917,947,981,1035,1048,1057,1065,1069,1081,1085,1087,1089,1090,1092,1094,1095,1095],"ymouse":[512,512,512,512,512,512,512,512,512,512,512,512,512,512,512,512,512,512,512,512,512,512,512,512,512,512,512,512,512,512,512,512,512,512,512,495,447,416,363,334,307,256,239,224,208,194,167,154,142,131,125,119,107,101,97],"timestamp_mouse":[9,45,60,78,98,120,138,158,179,199,218,238,258,279,298,318,340,360,380,398,418,439,460,479,498,518,538,558,580,599,619,638,658,678,698,719,739,764,785,798,819,838,858,878,898,918,938,959,979,998,1020,1038,1059,1078,1099],"xSR":741.5,"ySR":469.3,"xT1":424.9,"yT1":0,"xT2":1058.1,"yT2":0,"toosoon":0,"cond_shown":"randomdotsizeEA","ratio_trial":750,"smaller_num":"3","larger_num":"4","correct_side":1,"subjID":"AlejandraRivera","gender":"1","age":"11","school":"6"},{"start_time":1551795034133,"click_time":1551795035701,"finger_time":1551795034959,"fix_duration":250,"trial":39,"RT":826,"MT":742,"sideResp":2,"stimulus":"img/750/equaldotanddens/R/5_Ratio_750_L_15_R_20.png","xmouse":[814,814,814,814,814,814,814,814,814,814,814,814,814,814,814,814,814,814,814,814,814,814,814,814,814,814,814,814,814,814,814,814,814,814,814,814,814,814,814,821,826,830,833,835,836,838,840,849,853,861,865,869,876,882,891,900,907,924,933,942,955,968,991,1010,1015,1034,1045,1057,1060,1061,1062,1063,1068,1070,1072,1073,1074,1076,1078],"ymouse":[514,514,514,514,514,514,514,514,514,514,514,514,514,514,514,514,514,514,514,514,514,514,514,514,514,514,514,514,514,514,514,514,514,514,514,514,514,514,510,492,474,461,452,446,443,439,435,420,411,399,393,387,375,367,354,341,329,301,288,273,258,242,211,189,184,164,153,140,136,133,131,129,121,116,111,108,105,100,97],"timestamp_mouse":[12,27,63,67,86,107,126,148,167,187,206,227,247,266,286,306,326,347,367,386,406,427,447,467,486,506,527,547,567,588,607,626,646,666,688,706,726,746,767,788,806,826,847,868,887,907,927,947,968,988,1007,1028,1047,1067,1087,1106,1126,1146,1166,1187,1206,1227,1247,1267,1287,1307,1328,1347,1366,1387,1406,1426,1446,1467,1487,1506,1526,1547,1567],"xSR":741.5,"ySR":469.3,"xT1":424.9,"yT1":0,"xT2":1058.1,"yT2":0,"toosoon":0,"cond_shown":"equaldotanddens","ratio_trial":750,"smaller_num":"15","larger_num":"20","correct_side":2,"subjID":"AlejandraRivera","gender":"1","age":"11","school":"6"},{"start_time":1551795037489,"click_time":1551795038681,"finger_time":1551795038280,"fix_duration":788.3014532410253,"trial":40,"RT":791,"MT":401,"sideResp":1,"stimulus":"img/500/randomdotsizeEA/R/6_Ratio_500_L_9_R_18.png","xmouse":[804,804,804,804,804,804,804,804,804,804,804,804,804,804,804,804,804,804,804,804,804,804,804,804,804,804,804,804,804,804,804,804,804,804,804,804,804,788,768,733,713,695,680,671,653,643,632,623,614,600,594,588,582,574,562,549,535,529,524,514],"ymouse":[532,532,532,532,532,532,532,532,532,532,532,532,532,532,532,532,532,532,532,532,532,532,532,532,532,532,532,532,532,532,532,532,532,532,532,532,532,517,502,477,461,448,434,425,393,377,352,331,311,278,263,245,226,204,171,143,121,110,104,90],"timestamp_mouse":[11,50,50,71,91,112,131,150,170,190,211,231,251,270,290,310,330,350,370,390,411,431,450,472,491,510,530,550,572,590,610,630,650,671,690,710,731,751,772,791,816,833,851,870,891,911,931,951,971,990,1010,1031,1051,1070,1090,1111,1132,1150,1171,1191],"xSR":741.5,"ySR":469.3,"xT1":424.9,"yT1":0,"xT2":1058.1,"yT2":0,"toosoon":0,"cond_shown":"randomdotsizeEA","ratio_trial":500,"smaller_num":"9","larger_num":"18","correct_side":2,"subjID":"AlejandraRivera","gender":"1","age":"11","school":"6"},{"start_time":1551795040440,"click_time":1551795041599,"finger_time":1551795041261,"fix_duration":358.1361699903067,"trial":41,"RT":821,"MT":338,"sideResp":1,"stimulus":"img/750/equaldotsize/L/14_Ratio_750_L_8_R_6.png","xmouse":[772,772,772,772,772,772,772,772,772,772,772,772,772,772,772,772,772,772,772,772,772,772,772,772,772,772,772,772,772,772,772,772,772,772,772,772,772,772,765,755,721,699,634,603,575,556,536,530,527,523,519,514,506,503,501,500,493,487],"ymouse":[534,534,534,534,534,534,534,534,534,534,534,534,534,534,534,534,534,534,534,534,534,534,534,534,534,534,534,534,534,534,534,534,534,534,534,534,534,534,531,528,515,503,444,396,343,300,247,225,210,185,168,152,129,122,117,115,104,97],"timestamp_mouse":[8,52,59,81,99,119,140,160,181,200,220,241,260,280,299,320,339,359,380,399,419,439,459,480,500,520,540,560,579,600,621,639,660,679,700,719,740,761,780,801,821,840,860,880,900,921,940,960,979,1000,1019,1039,1060,1080,1100,1120,1140,1159],"xSR":741.5,"ySR":469.3,"xT1":424.9,"yT1":0,"xT2":1058.1,"yT2":0,"toosoon":0,"cond_shown":"equaldotsize","ratio_trial":750,"smaller_num":"6","larger_num":"8","correct_side":1,"subjID":"AlejandraRivera","gender":"1","age":"11","school":"6"},{"start_time":1551795042775,"click_time":1551795044300,"finger_time":1551795043339,"fix_duration":294.6121463223121,"trial":42,"RT":564,"MT":961,"sideResp":1,"stimulus":"img/900/equaldotanddens/L/4_Ratio_900_L_20_R_18.png","xmouse":[756,756,756,756,756,756,756,756,756,756,756,756,756,756,756,756,756,756,756,756,756,756,756,756,756,756,758,815,875,923,1008,1084,1100,1111,1119,1127,1129,1131,1133,1133,1133,1133,1133,1133,1133,1133,1133,1133,1133,1133,1133,1133,1133,1133,1133,1114,1092,1066,1039,1012,945,908,856,793,765,726,706,668,630,601,585,585,585,572,555,525,522],"ymouse":[525,525,525,525,525,525,525,525,525,525,525,525,525,525,525,525,525,525,525,525,525,525,525,525,525,525,523,482,440,400,324,257,242,223,209,181,168,156,142,129,116,112,111,110,110,110,110,110,110,110,110,110,110,110,110,146,185,228,269,301,333,333,316,273,247,208,186,154,128,108,98,98,98,93,82,66,64],"timestamp_mouse":[12,41,44,65,86,105,124,144,165,184,205,224,244,264,284,304,324,344,364,384,404,425,445,464,485,505,525,544,564,584,605,624,645,664,684,704,725,746,765,785,805,825,844,864,884,905,924,944,964,984,1005,1024,1045,1065,1085,1105,1126,1145,1165,1185,1204,1224,1244,1264,1285,1304,1325,1346,1366,1385,1405,1424,1445,1465,1485,1505,1525],"xSR":741.5,"ySR":469.3,"xT1":424.9,"yT1":0,"xT2":1058.1,"yT2":0,"toosoon":0,"cond_shown":"equaldotanddens","ratio_trial":900,"smaller_num":"18","larger_num":"20","correct_side":1,"subjID":"AlejandraRivera","gender":"1","age":"11","school":"6"},{"start_time":1551795046228,"click_time":1551795047881,"finger_time":1551795047199,"fix_duration":1247.6854666550662,"trial":43,"RT":971,"MT":682,"sideResp":1,"stimulus":"img/900/randomdotsizeEA/R/7_Ratio_900_L_9_R_10.png","xmouse":[773,773,773,773,773,773,773,773,773,773,773,773,773,773,773,773,773,773,773,773,773,773,773,773,773,773,773,773,773,773,773,773,773,773,773,773,773,773,773,773,776,790,799,811,822,827,840,849,860,871,871,877,887,890,893,893,894,894,894,895,895,895,891,878,854,796,659,597,568,550,546,540,537,533,530,526,522,520,516,515,512,508],"ymouse":[535,535,535,535,535,535,535,535,535,535,535,535,535,535,535,535,535,535,535,535,535,535,535,535,535,535,535,535,535,535,535,535,535,535,535,535,535,535,535,535,535,534,528,522,514,509,491,478,468,458,458,451,440,438,434,433,433,433,433,430,430,424,419,407,388,360,292,251,227,205,197,177,165,154,146,138,126,122,115,110,105,98],"timestamp_mouse":[11,58,72,91,111,131,151,172,191,211,232,252,272,292,312,331,352,371,392,411,431,451,472,492,511,531,552,572,591,612,632,652,672,691,711,732,752,771,791,811,832,852,871,892,913,931,952,971,992,1015,1032,1051,1072,1091,1112,1132,1151,1171,1191,1213,1233,1251,1271,1291,1312,1332,1352,1371,1393,1412,1431,1451,1472,1491,1511,1531,1551,1571,1591,1612,1633,1653],"xSR":741.5,"ySR":469.3,"xT1":424.9,"yT1":0,"xT2":1058.1,"yT2":0,"toosoon":0,"cond_shown":"randomdotsizeEA","ratio_trial":900,"smaller_num":"9","larger_num":"10","correct_side":2,"subjID":"AlejandraRivera","gender":"1","age":"11","school":"6"},{"start_time":1551795050794,"click_time":1551795052060,"finger_time":1551795051640,"fix_duration":1031.9361696013661,"trial":44,"RT":846,"MT":420,"sideResp":1,"stimulus":"img/500/randomdotsizeEA/L/11_Ratio_500_L_12_R_6.png","xmouse":[809,809,809,809,809,809,809,809,809,809,809,809,809,809,809,809,809,809,809,809,809,809,809,809,809,809,809,809,809,809,809,809,809,809,809,809,809,809,809,786,757,696,655,641,614,602,588,569,526,508,495,481,478,477,477,477,477,477,477,480,482,486,488],"ymouse":[509,509,509,509,509,509,509,509,509,509,509,509,509,509,509,509,509,509,509,509,509,509,509,509,509,509,509,509,509,509,509,509,509,509,509,509,509,509,509,496,481,444,414,404,374,357,336,310,261,241,225,203,195,178,168,161,150,142,128,122,114,105,92],"timestamp_mouse":[13,52,66,85,105,127,147,166,185,205,226,247,266,286,308,326,346,366,385,405,427,446,465,485,505,525,546,566,585,605,625,646,665,685,705,725,746,766,785,805,826,846,865,887,909,925,946,966,986,1005,1026,1046,1067,1086,1105,1125,1145,1165,1186,1206,1226,1246,1266],"xSR":741.5,"ySR":469.3,"xT1":424.9,"yT1":0,"xT2":1058.1,"yT2":0,"toosoon":0,"cond_shown":"randomdotsizeEA","ratio_trial":500,"smaller_num":"6","larger_num":"12","correct_side":1,"subjID":"AlejandraRivera","gender":"1","age":"11","school":"6"},{"start_time":1551795054919,"click_time":1551795056200,"finger_time":1551795055900,"fix_duration":538.6326390071613,"trial":45,"RT":981,"MT":300,"sideResp":1,"stimulus":"img/900/equaldotanddens/L/4_Ratio_900_L_20_R_18.png","xmouse":[787,787,787,787,787,787,787,787,787,787,787,787,787,787,787,787,787,787,787,787,787,787,787,787,787,787,787,787,787,787,787,787,787,787,787,787,787,787,787,787,787,787,787,787,787,787,787,787,779,760,743,715,715,672,656,630,630,607,560,543,530,516,503,480,472],"ymouse":[521,521,521,521,521,521,521,521,521,521,521,521,521,521,521,521,521,521,521,521,521,521,521,521,521,521,521,521,521,521,521,521,521,521,521,521,521,521,521,521,521,521,521,521,521,521,521,521,497,456,432,404,404,366,349,324,324,294,232,212,193,175,152,108,90],"timestamp_mouse":[11,20,41,60,80,101,121,141,160,180,200,220,241,260,280,308,320,340,360,381,400,420,440,461,481,500,521,540,560,580,600,620,640,660,681,701,720,740,760,781,800,820,840,861,880,900,920,940,960,981,1000,1021,1041,1060,1080,1102,1120,1141,1160,1181,1201,1220,1240,1260,1281],"xSR":741.5,"ySR":469.3,"xT1":424.9,"yT1":0,"xT2":1058.1,"yT2":0,"toosoon":0,"cond_shown":"equaldotanddens","ratio_trial":900,"smaller_num":"18","larger_num":"20","correct_side":1,"subjID":"AlejandraRivera","gender":"1","age":"11","school":"6"},{"start_time":1551795058352,"click_time":1551795059720,"finger_time":1551795059279,"fix_duration":1330.7845015387463,"trial":46,"RT":927,"MT":441,"sideResp":1,"stimulus":"img/250/equaldotsize/L/3_Ratio_250_L_8_R_2.png","xmouse":[779,779,779,779,779,779,779,779,779,779,779,779,779,779,779,779,779,779,779,779,780,784,788,789,789,789,789,789,789,789,789,789,789,789,789,789,789,786,782,776,762,759,758,757,755,737,726,714,704,694,672,663,654,644,634,609,595,582,568,555,530,520,509,498,485,471,465,460],"ymouse":[536,536,536,536,536,536,536,536,536,536,536,536,536,536,536,536,536,536,536,537,537,536,535,534,534,534,534,534,534,534,534,534,534,534,534,534,534,531,528,523,516,514,514,513,511,492,480,465,451,435,407,394,379,363,345,301,281,262,244,225,191,176,161,145,129,111,103,96],"timestamp_mouse":[11,27,76,88,106,127,147,168,187,207,227,248,267,287,307,327,349,367,387,407,427,447,467,487,508,527,547,567,587,607,628,648,667,687,707,728,747,767,788,807,828,848,868,887,907,927,951,971,987,1008,1031,1047,1068,1087,1108,1127,1148,1167,1187,1208,1227,1247,1267,1288,1307,1327,1348,1368],"xSR":741.5,"ySR":469.3,"xT1":424.9,"yT1":0,"xT2":1058.1,"yT2":0,"toosoon":0,"cond_shown":"equaldotsize","ratio_trial":250,"smaller_num":"2","larger_num":"8","correct_side":1,"subjID":"AlejandraRivera","gender":"1","age":"11","school":"6"},{"start_time":1551795060772,"click_time":1551795062279,"finger_time":1551795061759,"fix_duration":250,"trial":47,"RT":987,"MT":520,"sideResp":1,"stimulus":"img/750/equaldotanddens/L/8_Ratio_750_L_4_R_3.png","xmouse":[794,794,794,794,794,794,794,794,794,794,794,794,794,794,794,794,794,794,794,794,794,794,794,794,794,794,794,794,794,794,794,794,794,794,794,794,794,794,794,794,794,794,794,794,794,788,773,758,744,731,691,684,673,661,641,634,630,624,618,598,590,581,573,569,563,562,560,556,554,547,542,535,531,524,515],"ymouse":[524,524,524,524,524,524,524,524,524,524,524,524,524,524,524,524,524,524,524,524,524,524,524,524,524,524,524,524,524,524,524,524,524,524,524,524,524,524,524,524,524,524,524,524,524,513,495,478,462,447,400,391,374,358,328,318,310,297,281,236,218,203,190,184,175,173,168,163,156,143,134,124,117,107,94],"timestamp_mouse":[11,61,67,87,107,127,147,167,187,208,227,247,268,287,307,327,347,367,387,407,427,448,467,488,507,527,547,567,587,608,636,647,668,688,707,727,747,767,787,807,827,847,867,887,907,928,947,967,987,1008,1027,1048,1067,1088,1107,1128,1147,1168,1188,1208,1227,1247,1267,1288,1307,1327,1347,1368,1387,1407,1427,1448,1467,1487,1507],"xSR":741.5,"ySR":469.3,"xT1":424.9,"yT1":0,"xT2":1058.1,"yT2":0,"toosoon":0,"cond_shown":"equaldotanddens","ratio_trial":750,"smaller_num":"3","larger_num":"4","correct_side":1,"subjID":"AlejandraRivera","gender":"1","age":"11","school":"6"},{"start_time":1551795063988,"click_time":1551795065000,"finger_time":1551795064860,"fix_duration":788.946459666927,"trial":48,"RT":872,"MT":140,"sideResp":1,"stimulus":"img/250/randomdotsizeEA/L/14_Ratio_250_L_12_R_3.png","xmouse":[773,773,773,773,773,773,773,773,773,773,773,773,773,773,773,773,773,773,773,773,773,773,773,773,773,773,773,773,773,773,773,773,773,773,773,773,773,773,773,771,766,750,721,664,627,580,566,549,521,508],"ymouse":[518,518,518,518,518,518,518,518,518,518,518,518,518,518,518,518,518,518,518,518,518,518,518,518,518,518,518,518,518,518,518,518,518,518,518,518,518,518,518,518,514,491,449,381,338,272,243,207,128,94],"timestamp_mouse":[11,31,73,91,111,131,151,171,191,211,231,251,272,292,311,331,351,372,391,411,431,451,471,491,511,531,551,571,591,611,631,651,671,691,713,731,751,772,791,811,833,851,872,891,912,931,951,972,991,1012],"xSR":741.5,"ySR":469.3,"xT1":424.9,"yT1":0,"xT2":1058.1,"yT2":0,"toosoon":0,"cond_shown":"randomdotsizeEA","ratio_trial":250,"smaller_num":"3","larger_num":"12","correct_side":1,"subjID":"AlejandraRivera","gender":"1","age":"11","school":"6"},{"start_time":1551795066237,"click_time":1551795067281,"finger_time":1551795066980,"fix_duration":336.9106160651891,"trial":49,"RT":743,"MT":301,"sideResp":1,"stimulus":"img/250/equaldotsize/L/14_Ratio_250_L_12_R_3.png","xmouse":[783,783,783,783,783,783,783,783,783,783,783,783,783,783,783,783,783,783,783,783,783,783,783,783,783,783,783,783,783,783,783,783,783,783,783,768,758,694,660,635,635,609,581,574,569,567,558,555,549,549,537,526,513],"ymouse":[508,508,508,508,508,508,508,508,508,508,508,508,508,508,508,508,508,508,508,508,508,508,508,508,508,508,508,508,508,508,508,508,508,508,508,495,488,436,403,368,368,305,199,178,159,150,123,113,100,100,76,64,57],"timestamp_mouse":[11,22,61,63,82,102,122,142,162,182,202,222,242,264,282,307,322,342,364,383,402,422,442,462,483,502,522,542,562,582,602,622,642,662,682,703,722,743,765,787,802,822,842,867,889,903,929,946,964,982,1002,1022,1044],"xSR":741.5,"ySR":469.3,"xT1":424.9,"yT1":0,"xT2":1058.1,"yT2":0,"toosoon":0,"cond_shown":"equaldotsize","ratio_trial":250,"smaller_num":"3","larger_num":"12","correct_side":1,"subjID":"AlejandraRivera","gender":"1","age":"11","school":"6"},{"start_time":1551795068828,"click_time":1551795069880,"finger_time":1551795069620,"fix_duration":646.5518149844265,"trial":50,"RT":792,"MT":260,"sideResp":2,"stimulus":"img/750/randomdotsizeEA/R/15_Ratio_750_L_9_R_12.png","xmouse":[802,802,802,802,802,802,802,802,802,802,802,802,802,802,802,802,802,802,802,802,802,802,802,802,802,802,802,802,802,802,802,802,802,802,802,802,819,837,850,858,869,917,965,1015,1056,1092,1116,1122,1128,1130,1132,1132],"ymouse":[521,521,521,521,521,521,521,521,521,521,521,521,521,521,521,521,521,521,521,521,521,521,521,521,521,521,521,521,521,521,521,521,521,521,521,521,513,504,496,490,481,435,391,344,298,250,196,174,154,136,113,86],"timestamp_mouse":[11,54,71,91,111,131,151,171,191,211,231,251,271,291,311,331,351,373,391,411,431,451,471,491,511,531,552,571,591,612,631,651,672,691,712,731,752,772,792,811,832,852,872,891,912,931,951,972,992,1011,1031,1051],"xSR":741.5,"ySR":469.3,"xT1":424.9,"yT1":0,"xT2":1058.1,"yT2":0,"toosoon":0,"cond_shown":"randomdotsizeEA","ratio_trial":750,"smaller_num":"9","larger_num":"12","correct_side":2,"subjID":"AlejandraRivera","gender":"1","age":"11","school":"6"},{"start_time":1551795071018,"click_time":1551795072121,"finger_time":1551795071780,"fix_duration":337.35992296572624,"trial":51,"RT":762,"MT":341,"sideResp":2,"stimulus":"img/900/equaldotanddens/R/3_Ratio_900_L_9_R_10.png","xmouse":[789,789,789,789,789,789,789,789,789,789,789,789,789,789,789,789,789,789,789,789,789,789,789,789,789,789,789,789,789,789,789,789,789,789,789,794,813,831,869,885,914,929,972,1016,1026,1031,1034,1036,1039,1041,1044,1048,1052,1057,1058,1059],"ymouse":[534,534,534,534,534,534,534,534,534,534,534,534,534,534,534,534,534,534,534,534,534,534,534,534,534,534,534,534,534,534,534,534,534,534,534,522,500,484,452,435,402,382,328,256,234,212,193,178,145,131,114,97,86,73,71,70],"timestamp_mouse":[12,21,53,62,81,102,122,141,161,181,201,222,242,261,281,308,321,341,361,382,401,423,441,462,482,501,521,541,561,581,601,621,641,661,682,701,721,741,762,784,806,823,841,862,882,901,922,941,961,982,1002,1021,1042,1062,1082,1102],"xSR":741.5,"ySR":469.3,"xT1":424.9,"yT1":0,"xT2":1058.1,"yT2":0,"toosoon":0,"cond_shown":"equaldotanddens","ratio_trial":900,"smaller_num":"9","larger_num":"10","correct_side":2,"subjID":"AlejandraRivera","gender":"1","age":"11","school":"6"},{"start_time":1551795073249,"click_time":1551795074300,"finger_time":1551795074079,"fix_duration":329.3218798917964,"trial":52,"RT":830,"MT":221,"sideResp":2,"stimulus":"img/250/randomdotsizeEA/R/11_Ratio_250_L_3_R_12.png","xmouse":[792,792,792,792,792,792,792,792,792,792,792,792,792,792,792,792,792,792,792,792,792,792,792,792,792,792,792,792,792,792,792,792,792,792,792,792,792,792,792,792,796,835,857,877,897,925,1017,1054,1078,1090,1096,1110,1117],"ymouse":[502,502,502,502,502,502,502,502,502,502,502,502,502,502,502,502,502,502,502,502,502,502,502,502,502,502,502,502,502,502,502,502,502,502,502,502,502,502,502,502,499,464,446,427,405,366,243,191,159,141,129,101,84],"timestamp_mouse":[14,42,51,70,90,110,130,150,170,191,211,230,250,270,290,310,330,351,370,390,411,430,450,470,490,510,530,550,570,590,611,630,651,670,690,710,730,750,770,790,812,830,853,872,890,910,930,950,970,990,1010,1030,1051],"xSR":741.5,"ySR":469.3,"xT1":424.9,"yT1":0,"xT2":1058.1,"yT2":0,"toosoon":0,"cond_shown":"randomdotsizeEA","ratio_trial":250,"smaller_num":"3","larger_num":"12","correct_side":2,"subjID":"AlejandraRivera","gender":"1","age":"11","school":"6"},{"start_time":1551795076332,"click_time":1551795077879,"finger_time":1551795077239,"fix_duration":1150.4543018504874,"trial":53,"RT":907,"MT":640,"sideResp":2,"stimulus":"img/900/equaldotsize/L/8_Ratio_900_L_20_R_18.png","xmouse":[797,797,797,797,797,797,797,797,797,797,797,797,797,797,797,797,797,797,797,797,797,797,797,797,797,797,797,797,797,797,797,797,797,797,797,797,797,797,797,798,803,810,823,830,836,842,852,868,873,879,887,896,931,951,971,985,1005,1037,1053,1066,1083,1094,1116,1123,1127,1129,1132,1133,1134,1134,1134,1134,1134,1134,1134,1134,1134,1133],"ymouse":[534,534,534,534,534,534,534,534,534,534,534,534,534,534,534,534,534,534,534,534,534,534,534,534,534,534,534,534,534,534,534,534,534,534,534,534,534,534,534,534,531,527,519,516,512,509,503,492,488,483,475,465,417,389,363,342,319,273,250,227,202,181,144,131,123,119,112,108,106,105,105,105,105,105,105,103,101,97],"timestamp_mouse":[12,28,53,67,87,107,127,147,167,187,207,227,247,267,288,307,327,347,367,387,407,428,447,467,487,507,527,547,568,588,607,627,647,667,687,708,727,747,767,788,808,827,848,867,888,907,927,947,970,987,1007,1027,1047,1067,1087,1107,1127,1147,1167,1188,1207,1227,1247,1267,1287,1307,1327,1348,1367,1387,1407,1427,1447,1467,1487,1507,1528,1547],"xSR":741.5,"ySR":469.3,"xT1":424.9,"yT1":0,"xT2":1058.1,"yT2":0,"toosoon":0,"cond_shown":"equaldotsize","ratio_trial":900,"smaller_num":"18","larger_num":"20","correct_side":1,"subjID":"AlejandraRivera","gender":"1","age":"11","school":"6"},{"start_time":1551795079477,"click_time":1551795080880,"finger_time":1551795080419,"fix_duration":576.3086589633532,"trial":54,"RT":942,"MT":461,"sideResp":1,"stimulus":"img/500/randomdotsizeEA/L/8_Ratio_500_L_8_R_4.png","xmouse":[826,826,826,826,826,826,826,826,826,826,826,826,826,826,826,826,826,826,826,826,826,826,826,826,826,826,826,826,826,826,826,826,826,826,826,825,820,816,807,806,800,800,798,795,792,771,756,738,719,684,672,640,630,619,600,583,579,573,571,567,560,559,558,556,551,548,546,543,540,525,510],"ymouse":[524,524,524,524,524,524,524,524,524,524,524,524,524,524,524,524,524,524,524,524,524,524,524,524,524,524,524,524,524,524,524,524,524,524,524,524,524,523,518,517,514,514,512,511,508,491,477,458,436,397,383,336,318,292,258,222,211,203,196,188,174,169,160,147,113,96,85,76,72,60,52],"timestamp_mouse":[11,22,53,62,82,102,122,142,163,182,202,222,242,262,282,308,322,342,362,382,402,422,442,462,482,502,522,542,563,582,603,622,642,662,682,702,722,743,777,783,803,822,842,862,882,903,922,942,963,982,1003,1030,1043,1062,1082,1102,1122,1142,1162,1182,1203,1222,1243,1262,1282,1303,1322,1344,1362,1383,1403],"xSR":741.5,"ySR":469.3,"xT1":424.9,"yT1":0,"xT2":1058.1,"yT2":0,"toosoon":0,"cond_shown":"randomdotsizeEA","ratio_trial":500,"smaller_num":"4","larger_num":"8","correct_side":1,"subjID":"AlejandraRivera","gender":"1","age":"11","school":"6"},{"start_time":1551795083697,"click_time":1551795084879,"finger_time":1551795084379,"fix_duration":1216.473414765106,"trial":55,"RT":682,"MT":500,"sideResp":2,"stimulus":"img/900/equaldotanddens/L/10_Ratio_900_L_20_R_18.png","xmouse":[774,774,774,774,774,774,774,774,774,774,774,774,774,774,774,774,774,774,774,774,774,774,774,774,774,774,774,774,775,786,803,818,834,879,900,927,932,948,989,1010,1028,1039,1049,1058,1062,1067,1072,1082,1090,1095,1097,1099,1101,1105,1107,1107,1107,1107,1107],"ymouse":[543,543,543,543,543,543,543,543,543,543,543,543,543,543,543,543,543,543,543,543,543,543,543,543,543,543,543,543,543,538,530,519,508,480,464,440,432,404,312,271,237,216,202,183,179,173,167,153,147,143,141,139,136,132,127,123,118,111,95],"timestamp_mouse":[12,22,62,82,102,123,142,162,182,204,222,242,262,282,308,323,342,363,382,402,423,442,462,482,502,522,543,562,582,602,622,643,662,682,705,727,744,762,782,802,822,842,862,882,902,923,942,962,982,1002,1022,1043,1062,1082,1102,1122,1143,1162,1182],"xSR":741.5,"ySR":469.3,"xT1":424.9,"yT1":0,"xT2":1058.1,"yT2":0,"toosoon":0,"cond_shown":"equaldotanddens","ratio_trial":900,"smaller_num":"18","larger_num":"20","correct_side":1,"subjID":"AlejandraRivera","gender":"1","age":"11","school":"6"},{"start_time":1551795087438,"click_time":1551795088520,"finger_time":1551795088279,"fix_duration":1276.923260766656,"trial":56,"RT":841,"MT":241,"sideResp":2,"stimulus":"img/900/equaldotsize/R/13_Ratio_900_L_18_R_20.png","xmouse":[803,803,803,803,803,803,803,803,803,803,803,803,803,803,803,803,803,803,803,803,803,803,803,803,803,803,803,803,803,803,803,803,803,803,803,803,803,803,803,803,829,841,907,945,982,1031,1079,1111,1120,1128,1132,1135,1137,1139,1141],"ymouse":[538,538,538,538,538,538,538,538,538,538,538,538,538,538,538,538,538,538,538,538,538,538,538,538,538,538,538,538,538,538,538,538,538,538,538,538,538,538,538,538,512,501,441,407,371,321,272,225,203,182,165,138,115,100,85],"timestamp_mouse":[12,24,48,61,81,101,121,141,161,181,201,221,241,261,281,307,321,341,362,382,401,421,441,461,481,501,522,541,561,581,602,622,642,661,681,701,721,741,761,782,801,822,841,863,885,902,921,941,961,981,1001,1021,1041,1062,1082],"xSR":741.5,"ySR":469.3,"xT1":424.9,"yT1":0,"xT2":1058.1,"yT2":0,"toosoon":0,"cond_shown":"equaldotsize","ratio_trial":900,"smaller_num":"18","larger_num":"20","correct_side":2,"subjID":"AlejandraRivera","gender":"1","age":"11","school":"6"},{"start_time":1551795090006,"click_time":1551795091239,"finger_time":1551795090820,"fix_duration":605.2811340669189,"trial":57,"RT":814,"MT":419,"sideResp":2,"stimulus":"img/750/equaldotsize/R/15_Ratio_750_L_9_R_12.png","xmouse":[801,801,801,801,801,801,801,801,801,801,801,801,801,801,801,801,801,801,801,801,801,801,801,801,801,801,801,801,801,801,801,801,801,801,801,801,801,801,807,826,845,860,869,882,901,919,941,972,980,988,991,993,999,1024,1042,1052,1058,1068,1075,1083,1095,1107],"ymouse":[521,521,521,521,521,521,521,521,521,521,521,521,521,521,521,521,521,521,521,521,521,521,521,521,521,521,521,521,521,521,521,521,521,521,521,521,521,521,517,502,487,472,459,439,407,378,342,287,266,245,226,210,192,148,133,126,121,113,110,106,101,98],"timestamp_mouse":[13,50,53,73,93,113,133,153,173,193,213,233,253,274,293,313,334,353,373,393,413,433,453,473,493,514,533,553,573,593,613,633,653,673,693,713,734,755,774,793,814,834,854,874,894,913,935,953,973,993,1013,1034,1053,1073,1093,1113,1133,1153,1173,1194,1213,1233],"xSR":741.5,"ySR":469.3,"xT1":424.9,"yT1":0,"xT2":1058.1,"yT2":0,"toosoon":0,"cond_shown":"equaldotsize","ratio_trial":750,"smaller_num":"9","larger_num":"12","correct_side":2,"subjID":"AlejandraRivera","gender":"1","age":"11","school":"6"},{"start_time":1551795092754,"click_time":1551795093759,"finger_time":1551795093499,"fix_duration":393.1125982549523,"trial":58,"RT":745,"MT":260,"sideResp":2,"stimulus":"img/900/randomdotsizeEA/R/7_Ratio_900_L_9_R_10.png","xmouse":[788,788,788,788,788,788,788,788,788,788,788,788,788,788,788,788,788,788,788,788,788,788,788,788,788,788,788,788,788,788,787,787,788,789,790,798,834,856,876,885,900,916,962,969,982,1016,1027,1038,1049,1058,1070],"ymouse":[508,508,508,508,508,508,508,508,508,508,508,508,508,508,508,508,508,508,508,508,508,508,508,508,508,508,508,508,508,508,508,509,510,510,510,511,493,477,460,441,413,375,269,254,224,163,145,129,114,101,87],"timestamp_mouse":[14,44,45,65,86,105,125,145,165,185,205,225,245,265,286,307,325,345,365,386,405,425,445,465,485,505,525,545,565,585,605,625,646,665,685,705,725,745,766,785,805,826,845,866,885,905,926,945,965,986,1005],"xSR":741.5,"ySR":469.3,"xT1":424.9,"yT1":0,"xT2":1058.1,"yT2":0,"toosoon":0,"cond_shown":"randomdotsizeEA","ratio_trial":900,"smaller_num":"9","larger_num":"10","correct_side":2,"subjID":"AlejandraRivera","gender":"1","age":"11","school":"6"},{"start_time":1551795094751,"click_time":1551795095839,"finger_time":1551795095519,"fix_duration":250,"trial":59,"RT":768,"MT":320,"sideResp":2,"stimulus":"img/900/randomdotsizeEA/L/1_Ratio_900_L_10_R_9.png","xmouse":[794,794,794,794,794,794,794,794,794,794,794,794,794,794,794,794,794,794,794,794,794,794,794,794,794,794,794,794,794,794,794,794,794,794,794,794,799,827,860,895,928,972,995,1013,1026,1033,1045,1051,1060,1069,1074,1083,1088,1091,1094],"ymouse":[527,527,527,527,527,527,527,527,527,527,527,527,527,527,527,527,527,527,527,527,527,527,527,527,527,527,527,527,527,527,527,527,527,527,527,527,528,502,474,441,411,364,331,301,280,267,239,223,204,183,168,138,121,110,99],"timestamp_mouse":[14,45,48,68,88,109,128,148,168,188,209,228,249,268,288,309,328,348,368,388,408,428,448,468,488,508,528,549,568,588,608,628,648,669,688,709,728,748,768,788,809,828,848,869,888,908,929,949,969,989,1008,1028,1048,1068,1088],"xSR":741.5,"ySR":469.3,"xT1":424.9,"yT1":0,"xT2":1058.1,"yT2":0,"toosoon":0,"cond_shown":"randomdotsizeEA","ratio_trial":900,"smaller_num":"9","larger_num":"10","correct_side":1,"subjID":"AlejandraRivera","gender":"1","age":"11","school":"6"},{"start_time":1551795097770,"click_time":1551795098500,"finger_time":1551795098300,"fix_duration":250,"trial":60,"RT":530,"MT":200,"sideResp":1,"stimulus":"img/750/equaldotanddens/R/12_Ratio_750_L_3_R_4.png","xmouse":[798,798,798,797,797,797,797,797,797,797,797,797,797,797,797,797,797,797,790,786,779,778,776,775,766,749,737,721,706,656,626,598,571,536,528,520],"ymouse":[501,501,501,501,501,501,501,501,501,501,501,501,501,501,501,501,501,501,501,501,500,499,499,498,487,464,448,428,404,319,266,211,170,121,108,95],"timestamp_mouse":[13,57,70,89,109,130,150,169,189,209,229,249,269,289,309,329,349,370,389,410,429,450,469,489,509,530,550,570,590,609,629,649,669,690,711,729],"xSR":741.5,"ySR":469.3,"xT1":424.9,"yT1":0,"xT2":1058.1,"yT2":0,"toosoon":0,"cond_shown":"equaldotanddens","ratio_trial":750,"smaller_num":"3","larger_num":"4","correct_side":2,"subjID":"AlejandraRivera","gender":"1","age":"11","school":"6"},{"start_time":1551795100745,"click_time":1551795101700,"finger_time":1551795101500,"fix_duration":1425.9683294344168,"trial":61,"RT":755,"MT":200,"sideResp":1,"stimulus":"img/250/equaldotanddens/L/7_Ratio_250_L_8_R_2.png","xmouse":[760,760,760,760,760,760,760,760,760,760,760,760,760,760,760,760,760,760,760,760,760,760,760,760,760,760,760,760,760,760,760,760,760,760,760,758,747,727,696,655,595,574,560,550,542,527,512,503],"ymouse":[502,502,502,502,502,502,502,502,502,502,502,502,502,502,502,502,502,502,502,502,502,502,502,502,502,502,502,502,502,502,502,502,502,502,502,496,481,454,410,357,272,239,214,195,178,143,115,98],"timestamp_mouse":[14,53,54,74,94,114,152,154,174,194,214,234,254,275,294,314,334,354,374,395,415,434,454,474,494,514,535,554,574,594,614,634,655,675,694,714,734,755,774,794,814,837,855,874,894,915,935,955],"xSR":741.5,"ySR":469.3,"xT1":424.9,"yT1":0,"xT2":1058.1,"yT2":0,"toosoon":0,"cond_shown":"equaldotanddens","ratio_trial":250,"smaller_num":"2","larger_num":"8","correct_side":1,"subjID":"AlejandraRivera","gender":"1","age":"11","school":"6"},{"start_time":1551795104181,"click_time":1551795105339,"finger_time":1551795105080,"fix_duration":1180.555734550279,"trial":62,"RT":899,"MT":259,"sideResp":1,"stimulus":"img/900/equaldotsize/L/4_Ratio_900_L_20_R_18.png","xmouse":[772,772,772,772,772,772,772,772,772,772,772,772,772,772,772,772,772,772,772,772,772,772,772,772,772,772,772,772,772,772,772,772,772,772,772,772,772,772,772,772,772,770,755,724,691,661,637,616,616,553,547,540,534,532,528,525,522],"ymouse":[486,486,486,486,486,486,486,486,486,486,486,486,486,486,486,486,486,486,486,486,486,486,486,486,486,486,486,486,486,486,486,486,486,486,486,486,486,486,486,486,486,485,478,462,440,412,381,337,337,167,148,116,74,58,38,29,20],"timestamp_mouse":[41,58,78,99,119,138,158,178,199,219,238,258,278,299,318,339,358,378,400,418,438,458,478,498,518,538,558,579,598,620,638,658,678,699,718,738,758,778,798,818,838,858,878,899,919,940,958,979,999,1019,1039,1058,1078,1099,1118,1139,1158],"xSR":741.5,"ySR":469.3,"xT1":424.9,"yT1":0,"xT2":1058.1,"yT2":0,"toosoon":0,"cond_shown":"equaldotsize","ratio_trial":900,"smaller_num":"18","larger_num":"20","correct_side":1,"subjID":"AlejandraRivera","gender":"1","age":"11","school":"6"},{"start_time":1551795106932,"click_time":1551795107879,"finger_time":1551795107659,"fix_duration":931.5304119608353,"trial":63,"RT":727,"MT":220,"sideResp":2,"stimulus":"img/900/equaldotanddens/L/4_Ratio_900_L_20_R_18.png","xmouse":[795,795,795,795,795,795,795,795,795,795,795,795,795,795,795,795,795,795,795,795,795,795,795,795,795,795,795,795,795,795,795,795,795,795,796,802,826,839,868,888,905,955,978,997,1012,1030,1051,1092],"ymouse":[498,498,498,498,498,498,498,498,498,498,498,498,498,498,498,498,498,498,498,498,498,498,498,498,498,498,498,498,498,498,498,498,498,498,493,486,464,454,429,410,390,311,267,226,192,150,101,28],"timestamp_mouse":[16,45,47,67,87,107,127,147,167,187,207,227,247,267,288,308,327,347,367,388,407,427,447,468,487,507,527,547,567,588,607,628,647,667,687,707,727,752,767,788,808,827,847,867,888,907,927,947],"xSR":741.5,"ySR":469.3,"xT1":424.9,"yT1":0,"xT2":1058.1,"yT2":0,"toosoon":0,"cond_shown":"equaldotanddens","ratio_trial":900,"smaller_num":"18","larger_num":"20","correct_side":1,"subjID":"AlejandraRivera","gender":"1","age":"11","school":"6"},{"start_time":1551795109234,"click_time":1551795110120,"finger_time":1551795109919,"fix_duration":373.37215073955707,"trial":64,"RT":685,"MT":201,"sideResp":2,"stimulus":"img/500/equaldotsize/R/1_Ratio_500_L_9_R_18.png","xmouse":[778,778,778,778,778,778,778,778,778,780,780,782,782,783,783,783,785,785,786,787,787,787,788,788,789,789,789,790,791,791,794,800,818,843,881,970,997,1010,1025,1039,1066,1083,1095,1098],"ymouse":[559,559,559,559,559,559,559,559,557,555,553,551,549,548,547,546,542,539,538,537,535,534,532,530,529,528,527,526,526,525,520,510,482,453,412,308,276,258,240,221,171,140,109,95],"timestamp_mouse":[12,52,66,85,105,126,145,166,185,205,225,245,265,285,306,325,345,365,385,405,425,445,466,485,505,525,546,566,585,605,625,645,665,685,706,726,749,765,785,805,825,847,866,886],"xSR":741.5,"ySR":469.3,"xT1":424.9,"yT1":0,"xT2":1058.1,"yT2":0,"toosoon":0,"cond_shown":"equaldotsize","ratio_trial":500,"smaller_num":"9","larger_num":"18","correct_side":2,"subjID":"AlejandraRivera","gender":"1","age":"11","school":"6"},{"start_time":1551795111372,"click_time":1551795112259,"finger_time":1551795111980,"fix_duration":250,"trial":65,"RT":608,"MT":279,"sideResp":2,"stimulus":"img/250/equaldotsize/R/12_Ratio_250_L_5_R_20.png","xmouse":[809,809,809,809,809,809,809,809,809,809,809,809,809,809,809,809,809,809,809,809,809,809,809,809,809,809,809,809,825,850,880,927,937,967,992,1004,1014,1022,1033,1037,1042,1046,1052,1067],"ymouse":[524,524,524,524,524,524,524,524,524,524,524,524,524,524,524,524,524,524,524,524,524,524,524,524,524,524,524,524,506,478,441,389,374,325,278,257,234,214,178,162,145,131,119,95],"timestamp_mouse":[11,49,67,88,107,127,148,167,187,207,227,247,268,287,307,328,347,367,388,407,427,448,467,487,508,528,547,567,587,608,629,650,668,687,708,727,747,767,787,807,827,847,867,887],"xSR":741.5,"ySR":469.3,"xT1":424.9,"yT1":0,"xT2":1058.1,"yT2":0,"toosoon":0,"cond_shown":"equaldotsize","ratio_trial":250,"smaller_num":"5","larger_num":"20","correct_side":2,"subjID":"AlejandraRivera","gender":"1","age":"11","school":"6"},{"start_time":1551795115494,"click_time":1551795116479,"finger_time":1551795116259,"fix_duration":974.5538855628764,"trial":66,"RT":765,"MT":220,"sideResp":2,"stimulus":"img/500/equaldotsize/R/6_Ratio_500_L_9_R_18.png","xmouse":[780,780,780,780,780,780,780,780,780,780,780,780,780,780,780,780,780,780,780,780,780,780,780,780,780,780,780,780,780,780,780,780,780,780,786,796,825,886,919,955,981,1009,1038,1042,1044,1049,1054,1075,1090],"ymouse":[536,536,536,536,536,536,536,536,536,536,536,536,536,536,536,536,536,536,536,536,536,536,536,536,536,536,536,536,536,536,536,536,536,536,533,521,491,423,387,337,287,230,168,159,155,147,138,108,92],"timestamp_mouse":[11,45,64,84,104,125,145,165,185,205,226,244,264,285,308,325,345,364,384,404,425,445,464,484,504,525,544,565