[{"start_time":1551794275304,"click_time":1551794294448,"finger_time":1551794283888,"fix_duration":272.3627536300324,"trial":0,"RT":8584,"MT":10560,"sideResp":1,"stimulus":[],"xmouse":[804,804,801,801,801,801,801,801,801,801,801,801,801,801,801,801,801,801,801,801,801,801,801,801,801,801,801,801,801,801,801,801,801,801,801,801,801,801,801,801,801,801,801,801,801,801,801,801,801,801,801,801,801,801,801,801,801,801,801,801,801,801,801,801,801,801,801,801,801,801,801,801,801,801,801,801,801,801,801,801,801,801,801,801,801,801,801,801,801,801,801,801,801,801,801,801,801,801,801,801,801,801,801,801,801,801,801,801,801,801,801,801,801,801,801,801,801,801,801,801,801,801,801,801,801,801,801,801,801,801,801,801,801,801,801,801,801,801,801,801,801,801,801,801,801,801,801,801,801,801,801,801,801,801,801,801,801,801,801,801,801,801,801,801,801,801,801,801,801,801,801,801,801,801,801,801,801,801,801,801,801,801,801,801,801,801,801,801,801,801,801,801,801,801,801,801,801,801,801,801,801,801,801,801,801,801,801,801,801,801,801,801,801,801,801,801,801,801,801,801,801,801,801,801,801,801,801,801,801,801,801,801,801,801,801,801,801,801,801,801,801,801,801,801,801,801,801,801,801,801,801,801,801,801,801,801,801,801,801,801,801,801,801,801,801,801,801,801,801,801,801,801,801,801,801,801,801,801,801,801,801,801,801,801,801,801,801,801,801,801,801,801,801,801,801,801,801,801,801,801,801,801,801,801,801,801,801,801,801,801,801,801,801,801,801,801,801,801,801,801,801,801,801,801,801,801,801,801,801,801,801,801,801,801,801,801,801,801,801,801,801,801,801,801,801,801,801,801,801,801,801,801,801,801,801,801,801,801,801,801,801,801,801,801,801,801,801,801,801,801,801,801,801,801,801,801,801,800,798,795,788,778,777,777,777,777,777,777,777,777,777,777,776,776,777,777,777,778,778,779,779,781,782,784,785,786,787,788,788,788,788,790,791,794,795,797,800,801,802,802,802,803,803,803,803,803,804,821,849,860,860,860,860,860,860,860,860,860,860,860,860,860,860,860,860,860,860,860,860,860,860,860,860,860,860,860,860,860,860,860,860,860,860,860,860,860,858,856,854,849,843,833,823,821,820,819,814,806,801,798,798,797,794,792,791,789,789,789,789,789,788,788,788,787,787,787,786,786,786,786,786,786,786,786,786,786,786,786,787,787,787,787,787,787,788,788,788,788,788,788,788,788,788,788,788,788,788,788,788,788,788,788,788,788,788,789,792,793,793,793,793,791,789,789,789,789,789,789,789,789,789,789,789,789,789,789,789,789,789,789,788,788,787,786,786,786,786,786,786,786,786,786,786,786,786,786,786,786,786,786,786,786,786,786,786,786,786,786,786,786,786,786,786,786,786,786,786,786,786,786,786,786,786,786,786,786,786,786,786,786,786,786,786,786,786,786,786,786,786,786,786,786,786,786,786,786,786,786,786,786,786,786,786,786,786,786,786,786,786,786,786,786,786,786,786,786,786,786,786,786,786,786,786,786,786,786,786,786,786,786,786,786,786,786,786,786,786,786,786,786,786,786,786,786,786,786,786,786,786,786,786,786,786,786,786,786,786,786,786,786,786,786,786,786,786,786,786,786,786,786,786,786,786,786,786,786,786,786,786,786,786,786,786,786,786,786,786,786,786,786,786,786,786,786,786,786,786,786,786,786,786,786,786,786,786,786,786,786,786,786,786,786,786,786,786,786,786,786,786,786,786,786,786,786,786,786,786,786,786,786,786,786,786,786,786,786,786,786,786,786,774,774,774,774,774,774,774,774,774,774,774,774,774,774,774,774,774,774,774,774,774,774,774,774,774,774,774,774,774,775,776,778,779,779,779,779,779,779,779,779,779,779,779,779,779,779,779,779,779,779,779,779,779,779,779,779,779,779,779,779,779,781,788,799,809,819,833,847,869,897,898,898,898,898,898,898,898,898,898,898,898,898,898,898,898,898,898,898,898,898,898,898,898,898,898,898,898,898,898,898,898,898,897,891,888,885,883,881,878,875,873,869,866,862,859,856,849,847,845,843,838,825,815,809,806,804,803,802,801,800,800,800,798,793,783,768,768,768,768,768,768,768,768,768,768,768,768,768,768,768,768,768,768,768,768,768,768,768,768,768,768,763,746,726,700,700,671,662,658,656,652,644,638,635,632,627,616,610,603,596,589,572,552,539,529,521,500],"ymouse":[542,542,542,542,542,542,542,542,542,542,542,542,542,542,542,542,542,542,542,542,542,542,542,542,542,542,542,542,542,542,542,542,542,542,542,542,542,542,542,542,542,542,542,542,542,542,542,542,542,542,542,542,542,542,542,542,542,542,542,542,542,542,542,542,542,542,542,542,542,542,542,542,542,542,542,542,542,542,542,542,542,542,542,542,542,542,542,542,542,542,542,542,542,542,542,542,542,542,542,542,542,542,542,542,542,542,542,542,542,542,542,542,542,542,542,542,542,542,542,542,542,542,542,542,542,542,542,542,542,542,542,542,542,542,542,542,542,542,542,542,542,542,542,542,542,542,542,542,542,542,542,542,542,542,542,542,542,542,542,542,542,542,542,542,542,542,542,542,542,542,542,542,542,542,542,542,542,542,542,542,542,542,542,542,542,542,542,542,542,542,542,542,542,542,542,542,542,542,542,542,542,542,542,542,542,542,542,542,542,542,542,542,542,542,542,542,542,542,542,542,542,542,542,542,542,542,542,542,542,542,542,542,542,542,542,542,542,542,542,542,542,542,542,542,542,542,542,542,542,542,542,542,542,542,542,542,542,542,542,542,542,542,542,542,542,542,542,542,542,542,542,542,542,542,542,542,542,542,542,542,542,542,542,542,542,542,542,542,542,542,542,542,542,542,542,542,542,542,542,542,542,542,542,542,542,542,542,542,542,542,542,542,542,542,542,542,542,542,542,542,542,542,542,542,542,542,542,542,542,542,542,542,542,542,542,542,542,542,542,542,542,542,542,542,542,542,542,542,542,542,542,542,542,542,542,542,542,542,542,542,542,542,542,542,542,542,542,542,542,542,542,542,542,542,542,542,542,541,539,539,539,539,539,539,539,539,539,539,539,539,539,539,539,539,540,541,541,541,542,542,543,545,545,545,546,546,547,547,547,547,547,547,547,548,548,548,547,546,545,543,542,539,538,537,537,534,531,538,555,561,561,561,561,561,561,561,561,561,561,561,561,561,561,561,561,561,561,561,561,561,561,561,561,561,561,561,561,561,561,561,561,561,561,561,561,562,562,562,562,562,562,562,562,562,562,562,562,561,560,560,560,560,560,560,560,560,560,560,560,560,560,560,558,553,549,546,544,544,544,542,542,542,542,542,542,542,542,542,542,542,542,542,542,542,542,542,542,542,542,542,542,542,542,542,542,542,542,543,545,551,556,558,558,558,558,558,554,552,551,550,549,547,546,546,546,546,546,546,546,546,546,546,546,546,546,546,546,546,546,546,546,546,546,545,545,545,545,545,545,545,545,545,545,545,545,545,545,545,545,545,545,545,545,545,545,545,545,545,545,545,545,545,545,545,545,545,545,545,545,545,545,545,545,545,545,545,545,545,545,545,545,545,545,545,545,545,545,545,545,545,545,545,545,545,545,545,545,545,545,545,545,545,545,545,545,545,545,545,545,545,545,545,545,545,545,545,545,545,545,545,545,545,545,545,545,545,545,545,545,545,545,545,545,545,545,545,545,545,545,545,545,545,545,545,545,545,545,545,545,545,545,545,545,545,545,545,545,545,545,545,545,545,545,545,545,545,545,545,545,545,545,545,545,545,545,545,545,545,545,545,545,545,545,545,545,545,545,545,545,545,545,545,545,545,545,545,545,545,545,545,545,545,545,545,545,545,545,545,545,545,545,545,545,545,545,545,545,545,545,545,545,545,545,545,545,545,545,545,545,545,545,545,545,545,545,545,545,545,545,545,551,551,551,551,551,551,551,551,551,551,551,551,551,551,551,551,551,551,551,551,551,551,551,551,551,551,551,551,551,551,551,551,551,551,551,551,551,551,551,551,551,551,551,551,551,551,551,551,551,551,551,551,551,551,551,551,551,551,551,551,551,551,547,541,537,531,522,512,502,482,480,480,480,480,480,480,480,480,480,480,480,480,480,480,480,480,480,480,480,480,480,480,480,480,480,480,480,480,480,480,480,480,480,485,488,490,492,493,496,498,500,503,504,506,507,509,512,513,514,514,516,521,523,525,525,525,525,525,526,526,526,526,527,529,531,533,533,533,533,533,533,533,533,533,533,533,533,533,533,533,533,533,533,533,533,533,533,533,533,533,533,529,517,494,458,458,400,378,364,355,346,315,300,281,262,244,215,205,194,185,174,152,136,126,119,111,94],"timestamp_mouse":[11,53,65,85,104,125,145,164,184,205,224,244,264,285,304,324,344,364,385,404,424,444,464,485,505,524,544,564,585,605,624,645,665,684,704,724,745,765,784,804,825,844,864,884,904,924,944,964,984,1007,1024,1044,1064,1084,1104,1124,1144,1165,1184,1204,1224,1244,1264,1284,1304,1324,1344,1364,1384,1404,1424,1444,1464,1485,1504,1524,1544,1564,1584,1604,1625,1644,1664,1685,1704,1724,1745,1765,1785,1804,1824,1844,1864,1884,1904,1925,1944,1964,1984,2004,2025,2045,2064,2084,2104,2125,2144,2165,2186,2204,2224,2244,2264,2284,2304,2324,2344,2364,2385,2405,2424,2444,2464,2484,2504,2524,2544,2564,2584,2604,2624,2645,2664,2684,2704,2724,2744,2764,2784,2804,2824,2844,2864,2885,2905,2925,2945,2965,2984,3004,3025,3045,3065,3084,3104,3124,3145,3165,3184,3205,3224,3244,3265,3285,3304,3325,3344,3365,3384,3404,3424,3445,3465,3484,3504,3524,3544,3565,3584,3607,3624,3644,3666,3684,3704,3724,3744,3764,3784,3805,3825,3844,3864,3884,3904,3924,3944,3964,3984,4004,4024,4044,4064,4085,4104,4124,4144,4165,4185,4204,4224,4244,4264,4284,4304,4325,4344,4366,4384,4405,4424,4444,4464,4484,4504,4524,4546,4565,4584,4604,4624,4644,4665,4685,4704,4724,4744,4764,4784,4804,4825,4846,4865,4884,4904,4924,4944,4964,4984,5004,5024,5045,5065,5084,5104,5124,5144,5164,5184,5204,5224,5244,5265,5285,5304,5325,5345,5365,5384,5405,5425,5444,5464,5484,5504,5524,5544,5564,5584,5604,5624,5645,5664,5684,5704,5724,5745,5764,5785,5804,5824,5844,5864,5885,5904,5924,5944,5964,5985,6005,6024,6044,6066,6084,6105,6124,6144,6164,6184,6204,6224,6244,6264,6285,6304,6324,6344,6364,6384,6406,6424,6445,6465,6484,6504,6525,6545,6565,6584,6604,6624,6645,6664,6684,6705,6724,6744,6764,6784,6804,6825,6844,6864,6884,6904,6924,6944,6964,6984,7004,7024,7044,7064,7085,7104,7124,7145,7164,7185,7204,7224,7244,7264,7284,7304,7325,7345,7364,7384,7404,7425,7444,7464,7484,7504,7524,7544,7564,7585,7604,7624,7644,7664,7684,7704,7724,7745,7764,7785,7804,7824,7844,7864,7884,7904,7924,7944,7964,7984,8004,8024,8044,8064,8084,8104,8125,8144,8164,8184,8204,8225,8244,8264,8284,8305,8324,8344,8364,8385,8405,8424,8444,8464,8484,8504,8524,8544,8564,8584,8604,8625,8662,8664,8684,8704,8725,8744,8765,8784,8804,8824,8844,8865,8885,8905,8924,8944,8965,8985,9005,9024,9044,9064,9084,9104,9124,9144,9164,9184,9205,9224,9244,9264,9284,9304,9324,9344,9364,9385,9404,9425,9445,9465,9485,9504,9524,9544,9564,9584,9604,9624,9644,9664,9685,9704,9725,9744,9764,9785,9804,9824,9845,9864,9885,9905,9924,9944,9964,9984,10004,10025,10044,10064,10084,10105,10125,10144,10165,10184,10205,10224,10245,10264,10284,10304,10324,10344,10364,10384,10404,10424,10444,10464,10486,10505,10524,10544,10564,10584,10604,10624,10644,10664,10685,10704,10724,10744,10765,10784,10804,10824,10844,10864,10885,10905,10924,10944,10964,10984,11004,11024,11045,11064,11085,11104,11124,11144,11164,11184,11204,11224,11244,11264,11284,11305,11324,11344,11364,11384,11404,11424,11445,11465,11484,11504,11525,11545,11564,11584,11604,11625,11644,11664,11684,11704,11724,11744,11764,11785,11804,11824,11844,11865,11885,11904,11924,11944,11965,11985,12004,12024,12044,12064,12085,12105,12124,12144,12164,12185,12204,12224,12245,12264,12284,12305,12324,12344,12364,12385,12404,12424,12444,12464,12484,12505,12524,12545,12564,12584,12605,12624,12644,12665,12685,12705,12725,12744,12764,12784,12804,12824,12846,12865,12885,12904,12924,12944,12964,12985,13004,13025,13045,13064,13085,13104,13124,13144,13164,13184,13204,13224,13244,13264,13284,13305,13324,13345,13364,13385,13404,13424,13444,13464,13484,13504,13524,13544,13565,13584,13604,13624,13644,13664,13684,13704,13724,13745,13764,13784,13804,13825,13844,13864,13884,13905,13925,13944,13964,13984,14004,14024,14045,14065,14084,14104,14125,14144,14164,14185,14205,14225,14245,14265,14285,14305,14325,14345,14364,14385,14404,14424,14445,14464,14484,14504,14525,14544,14564,14585,14605,14625,14645,14664,14685,14704,14725,14745,14764,14785,14804,14824,14844,14864,14886,14905,14924,14945,14964,14984,15005,15024,15045,15064,15084,15104,15125,15146,15164,15184,15205,15224,15245,15265,15284,15306,15324,15344,15364,15385,15405,15424,15444,15464,15485,15504,15524,15544,15564,15585,15604,15625,15644,15664,15686,15704,15724,15744,15764,15786,15804,15824,15844,15865,15884,15904,15924,15944,15964,15984,16004,16024,16044,16064,16084,16105,16124,16145,16164,16184,16204,16224,16244,16264,16284,16304,16324,16345,16371,16384,16405,16424,16444,16464,16485,16504,16524,16544,16564,16585,16604,16625,16644,16665,16684,16705,16725,16744,16764,16785,16805,16824,16844,16864,16885,16904,16924,16945,16965,16984,17004,17025,17045,17064,17084,17105,17124,17145,17164,17184,17205,17224,17244,17264,17284,17304,17325,17344,17364,17384,17404,17424,17444,17465,17484,17504,17524,17546,17565,17584,17605,17624,17644,17664,17685,17704,17724,17744,17764,17784,17804,17824,17844,17864,17885,17904,17924,17945,17964,17984,18005,18024,18046,18064,18084,18105,18124,18144,18164,18184,18204,18224,18244,18264,18284,18305,18324,18344,18365,18384,18406,18424,18444,18465,18484,18505,18524,18544,18564,18584,18605,18624,18645,18664,18685,18704,18724,18744,18764,18785,18810,18826,18844,18864,18885,18904,18924,18945,18965,18985,19004,19025,19044,19065,19084,19105,19125,19144],"xSR":741.5,"ySR":501.15000000000003,"xT1":424.9,"yT1":0,"xT2":1058.1,"yT2":0,"toosoon":0,"cond_shown":"Incongruent","ratio_trial":100,"L_num":9,"L_den":18,"R_num":6,"R_den":10,"correct_side":2,"subjID":"AlejandraRivera","gender":"1","age":"11","school":"6","test":{"fix_dur":[250,1500],"timestim":1000,"targets_dim":[100,100],"targets_relative_coord":[0.3,0.7],"size_stim":[880,420],"start_dim":[100,100],"size_start":[300,300],"size_fix":60,"samplingrate":20,"img_types":["Congruent","Incongruent"],"ratios":[100,200,300],"rep_conds":19,"nTrials":120,"trials_to_rest":500,"Trials_order":[79,59,96,15,89,44,95,49,73,88,52,9,0,83,111,56,39,102,97,99,68,74,72,8,60,65,48,50,108,87,67,77,103,58,6,119,21,53,1,37,41,63,94,110,86,115,91,57,106,55,13,2,18,62,64,61,75,101,80,81,118,22,85,33,25,11,92,114,24,19,109,5,117,47,69,7,93,38,112,98,43,113,90,70,105,3,46,31,10,28,40,34,84,116,82,30,16,71,45,23,51,36,20,14,104,100,26,32,29,66,4,42,78,76,35,107,17,12,54,27],"cond_shown":["Incongruent","Incongruent","Congruent","Incongruent","Incongruent","Congruent","Incongruent","Incongruent","Incongruent","Congruent","Congruent","Incongruent","Congruent","Incongruent","Incongruent","Congruent","Incongruent","Congruent","Incongruent","Incongruent","Congruent","Congruent","Congruent","Congruent","Congruent","Incongruent","Congruent","Congruent","Congruent","Incongruent","Incongruent","Incongruent","Incongruent","Congruent","Congruent","Incongruent","Incongruent","Incongruent","Incongruent","Incongruent","Incongruent","Incongruent","Congruent","Congruent","Congruent","Incongruent","Incongruent","Incongruent","Congruent","Incongruent","Incongruent","Congruent","Congruent","Congruent","Congruent","Incongruent","Incongruent","Incongruent","Congruent","Incongruent","Congruent","Congruent","Incongruent","Incongruent","Incongruent","Incongruent","Congruent","Congruent","Congruent","Incongruent","Incongruent","Incongruent","Incongruent","Incongruent","Incongruent","Incongruent","Incongruent","Congruent","Congruent","Congruent","Incongruent","Incongruent","Congruent","Congruent","Incongruent","Incongruent","Congruent","Incongruent","Congruent","Congruent","Congruent","Congruent","Congruent","Congruent","Congruent","Congruent","Congruent","Incongruent","Incongruent","Incongruent","Incongruent","Congruent","Congruent","Congruent","Congruent","Congruent","Congruent","Congruent","Incongruent","Congruent","Congruent","Congruent","Congruent","Congruent","Incongruent","Incongruent","Incongruent","Congruent","Congruent","Incongruent"],"ratio_trial":[100,300,100,200,300,200,300,100,100,300,300,200,100,300,200,200,200,100,100,200,200,200,100,200,100,300,100,200,100,200,100,300,100,300,100,300,200,300,100,100,300,200,300,200,200,100,100,200,300,100,100,200,100,200,300,100,200,300,200,200,300,300,100,200,100,300,200,100,100,100,100,300,200,300,200,100,200,200,300,200,100,300,100,300,200,200,300,100,300,300,300,300,100,200,300,100,300,300,200,300,200,100,200,200,200,300,200,200,300,100,300,100,100,300,300,300,300,100,100,200],"left_num":[9,1,6,4,4,12,13,8,3,20,20,7,11,2,3,11,4,2,3,7,14,7,2,6,11,7,11,8,8,4,3,1,6,24,11,4,7,7,13,10,13,7,3,6,4,13,4,7,4,6,9,3,2,8,20,3,3,8,21,7,3,12,6,7,1,13,3,11,1,8,11,4,14,13,11,9,4,7,20,9,12,4,8,20,1,1,5,11,20,24,11,2,11,6,4,6,9,3,7,4,6,4,1,3,9,1,6,16,8,6,4,7,6,12,8,4,1,6,1,9],"right_num":[6,2,5,1,6,6,12,6,11,5,5,6,4,6,1,3,6,11,4,6,6,18,11,3,6,8,6,3,2,6,8,2,13,8,6,6,8,8,6,8,12,14,2,11,3,6,8,14,2,7,20,9,11,2,5,8,11,9,2,8,11,2,11,6,8,12,9,6,18,1,9,8,12,12,3,6,14,18,9,13,2,6,2,13,3,2,6,9,8,8,2,12,6,7,13,5,3,4,4,2,3,6,21,14,13,7,3,12,14,15,2,15,15,2,14,2,2,15,18,8],"left_den":[18,2,20,30,5,20,26,16,5,25,25,15,22,4,10,22,5,5,6,15,28,15,5,15,22,10,22,15,16,5,5,2,10,30,22,5,10,10,26,25,26,10,6,20,8,26,8,10,5,10,10,12,5,15,25,5,4,10,30,10,12,24,10,15,2,26,12,22,2,20,22,5,30,26,20,18,6,15,25,30,30,5,16,25,2,3,25,22,25,30,22,10,22,12,20,20,10,6,15,20,20,8,2,6,30,20,15,20,10,12,5,14,12,24,10,20,2,12,2,15],"right_den":[10,10,25,3,12,15,15,10,22,10,10,9,10,30,2,10,10,22,10,9,20,27,22,15,15,20,15,9,5,10,16,10,26,16,15,12,16,20,10,16,15,28,10,22,10,10,20,28,4,14,25,20,22,6,10,16,20,18,4,16,20,10,22,9,20,15,20,15,30,2,15,16,18,15,4,10,30,27,18,26,4,12,5,26,10,15,12,15,16,16,10,24,15,10,26,25,5,20,6,4,6,10,30,20,26,20,15,20,28,25,4,25,25,10,28,4,10,25,30,10],"correct_side":[2,1,1,2,1,1,2,2,1,1,1,2,1,1,2,1,1,2,1,2,1,2,2,1,1,1,1,1,1,1,1,1,1,1,1,1,1,1,2,2,2,1,1,2,1,2,1,1,1,1,1,2,2,1,1,1,1,1,1,1,2,1,1,2,1,2,2,1,2,2,2,1,2,2,2,2,1,2,1,2,2,1,1,1,1,1,2,2,1,1,1,2,1,2,2,1,1,1,2,2,2,2,2,2,2,2,1,1,1,2,1,2,2,1,1,2,1,2,2,2],"img_shown":["img2/100/Incongruent/R/I_Dist_100_LN_9_LD_18_RN_6_RD_10_1.png","img2/300/Incongruent/L/I_Dist_300_LN_1_LD_2_RN_2_RD_10_0.png","img2/100/Congruent/L/C_Dist_100_LN_6_LD_20_RN_5_RD_25_0.png","img2/200/Incongruent/R/I_Dist_200_LN_4_LD_30_RN_1_RD_3_1.png","img2/300/Incongruent/L/I_Dist_300_LN_4_LD_5_RN_6_RD_12_0.png","img2/200/Congruent/L/C_Dist_200_LN_12_LD_20_RN_6_RD_15_0.png","img2/300/Incongruent/R/I_Dist_300_LN_13_LD_26_RN_12_RD_15_1.png","img2/100/Incongruent/R/I_Dist_100_LN_8_LD_16_RN_6_RD_10_1.png","img2/100/Incongruent/L/I_Dist_100_LN_3_LD_5_RN_11_RD_22_0.png","img2/300/Congruent/L/C_Dist_300_LN_20_LD_25_RN_5_RD_10_0.png","img2/300/Congruent/L/C_Dist_300_LN_20_LD_25_RN_5_RD_10_0.png","img2/200/Incongruent/R/I_Dist_200_LN_7_LD_15_RN_6_RD_9_1.png","img2/100/Congruent/L/C_Dist_100_LN_11_LD_22_RN_4_RD_10_0.png","img2/300/Incongruent/L/I_Dist_300_LN_2_LD_4_RN_6_RD_30_0.png","img2/200/Incongruent/R/I_Dist_200_LN_3_LD_10_RN_1_RD_2_1.png","img2/200/Congruent/L/C_Dist_200_LN_11_LD_22_RN_3_RD_10_0.png","img2/200/Incongruent/L/I_Dist_200_LN_4_LD_5_RN_6_RD_10_0.png","img2/100/Congruent/R/C_Dist_100_LN_2_LD_5_RN_11_RD_22_1.png","img2/100/Incongruent/L/I_Dist_100_LN_3_LD_6_RN_4_RD_10_0.png","img2/200/Incongruent/R/I_Dist_200_LN_7_LD_15_RN_6_RD_9_1.png","img2/200/Congruent/L/C_Dist_200_LN_14_LD_28_RN_6_RD_20_0.png","img2/200/Congruent/R/C_Dist_200_LN_7_LD_15_RN_18_RD_27_1.png","img2/100/Congruent/R/C_Dist_100_LN_2_LD_5_RN_11_RD_22_1.png","img2/200/Congruent/L/C_Dist_200_LN_6_LD_15_RN_3_RD_15_0.png","img2/100/Congruent/L/C_Dist_100_LN_11_LD_22_RN_6_RD_15_0.png","img2/300/Incongruent/L/I_Dist_300_LN_7_LD_10_RN_8_RD_20_0.png","img2/100/Congruent/L/C_Dist_100_LN_11_LD_22_RN_6_RD_15_0.png","img2/200/Congruent/L/C_Dist_200_LN_8_LD_15_RN_3_RD_9_0.png","img2/100/Congruent/L/C_Dist_100_LN_8_LD_16_RN_2_RD_5_0.png","img2/200/Incongruent/L/I_Dist_200_LN_4_LD_5_RN_6_RD_10_0.png","img2/100/Incongruent/L/I_Dist_100_LN_3_LD_5_RN_8_RD_16_0.png","img2/300/Incongruent/L/I_Dist_300_LN_1_LD_2_RN_2_RD_10_0.png","img2/100/Incongruent/L/I_Dist_100_LN_6_LD_10_RN_13_RD_26_0.png","img2/300/Congruent/L/C_Dist_300_LN_24_LD_30_RN_8_RD_16_0.png","img2/100/Congruent/L/C_Dist_100_LN_11_LD_22_RN_6_RD_15_0.png","img2/300/Incongruent/L/I_Dist_300_LN_4_LD_5_RN_6_RD_12_0.png","img2/200/Incongruent/L/I_Dist_200_LN_7_LD_10_RN_8_RD_16_0.png","img2/300/Incongruent/L/I_Dist_300_LN_7_LD_10_RN_8_RD_20_0.png","img2/100/Incongruent/R/I_Dist_100_LN_13_LD_26_RN_6_RD_10_1.png","img2/100/Incongruent/R/I_Dist_100_LN_10_LD_25_RN_8_RD_16_1.png","img2/300/Incongruent/R/I_Dist_300_LN_13_LD_26_RN_12_RD_15_1.png","img2/200/Incongruent/L/I_Dist_200_LN_7_LD_10_RN_14_RD_28_0.png","img2/300/Congruent/L/C_Dist_300_LN_3_LD_6_RN_2_RD_10_0.png","img2/200/Congruent/R/C_Dist_200_LN_6_LD_20_RN_11_RD_22_1.png","img2/200/Congruent/L/C_Dist_200_LN_4_LD_8_RN_3_RD_10_0.png","img2/100/Incongruent/R/I_Dist_100_LN_13_LD_26_RN_6_RD_10_1.png","img2/100/Incongruent/L/I_Dist_100_LN_4_LD_8_RN_8_RD_20_0.png","img2/200/Incongruent/L/I_Dist_200_LN_7_LD_10_RN_14_RD_28_0.png","img2/300/Congruent/L/C_Dist_300_LN_4_LD_5_RN_2_RD_4_0.png","img2/100/Incongruent/L/I_Dist_100_LN_6_LD_10_RN_7_RD_14_0.png","img2/100/Incongruent/L/I_Dist_100_LN_9_LD_10_RN_20_RD_25_0.png","img2/200/Congruent/R/C_Dist_200_LN_3_LD_12_RN_9_RD_20_1.png","img2/100/Congruent/R/C_Dist_100_LN_2_LD_5_RN_11_RD_22_1.png","img2/200/Congruent/L/C_Dist_200_LN_8_LD_15_RN_2_RD_6_0.png","img2/300/Congruent/L/C_Dist_300_LN_20_LD_25_RN_5_RD_10_0.png","img2/100/Incongruent/L/I_Dist_100_LN_3_LD_5_RN_8_RD_16_0.png","img2/200/Incongruent/L/I_Dist_200_LN_3_LD_4_RN_11_RD_20_0.png","img2/300/Incongruent/L/I_Dist_300_LN_8_LD_10_RN_9_RD_18_0.png","img2/200/Congruent/L/C_Dist_200_LN_21_LD_30_RN_2_RD_4_0.png","img2/200/Incongruent/L/I_Dist_200_LN_7_LD_10_RN_8_RD_16_0.png","img2/300/Congruent/R/C_Dist_300_LN_3_LD_12_RN_11_RD_20_1.png","img2/300/Congruent/L/C_Dist_300_LN_12_LD_24_RN_2_RD_10_0.png","img2/100/Incongruent/L/I_Dist_100_LN_6_LD_10_RN_11_RD_22_0.png","img2/200/Incongruent/R/I_Dist_200_LN_7_LD_15_RN_6_RD_9_1.png","img2/100/Incongruent/L/I_Dist_100_LN_1_LD_2_RN_8_RD_20_0.png","img2/300/Incongruent/R/I_Dist_300_LN_13_LD_26_RN_12_RD_15_1.png","img2/200/Congruent/R/C_Dist_200_LN_3_LD_12_RN_9_RD_20_1.png","img2/100/Congruent/L/C_Dist_100_LN_11_LD_22_RN_6_RD_15_0.png","img2/100/Congruent/R/C_Dist_100_LN_1_LD_2_RN_18_RD_30_1.png","img2/100/Incongruent/R/I_Dist_100_LN_8_LD_20_RN_1_RD_2_1.png","img2/100/Incongruent/R/I_Dist_100_LN_11_LD_22_RN_9_RD_15_1.png","img2/300/Incongruent/L/I_Dist_300_LN_4_LD_5_RN_8_RD_16_0.png","img2/200/Incongruent/R/I_Dist_200_LN_14_LD_30_RN_12_RD_18_1.png","img2/300/Incongruent/R/I_Dist_300_LN_13_LD_26_RN_12_RD_15_1.png","img2/200/Incongruent/R/I_Dist_200_LN_11_LD_20_RN_3_RD_4_1.png","img2/100/Incongruent/R/I_Dist_100_LN_9_LD_18_RN_6_RD_10_1.png","img2/200/Incongruent/L/I_Dist_200_LN_4_LD_6_RN_14_RD_30_0.png","img2/200/Congruent/R/C_Dist_200_LN_7_LD_15_RN_18_RD_27_1.png","img2/300/Congruent/L/C_Dist_300_LN_20_LD_25_RN_9_RD_18_0.png","img2/200/Congruent/R/C_Dist_200_LN_9_LD_30_RN_13_RD_26_1.png","img2/100/Incongruent/R/I_Dist_100_LN_12_LD_30_RN_2_RD_4_1.png","img2/300/Incongruent/L/I_Dist_300_LN_4_LD_5_RN_6_RD_12_0.png","img2/100/Congruent/L/C_Dist_100_LN_8_LD_16_RN_2_RD_5_0.png","img2/300/Congruent/L/C_Dist_300_LN_20_LD_25_RN_13_RD_26_0.png","img2/200/Incongruent/L/I_Dist_200_LN_1_LD_2_RN_3_RD_10_0.png","img2/200/Incongruent/L/I_Dist_200_LN_1_LD_3_RN_2_RD_15_0.png","img2/300/Congruent/R/C_Dist_300_LN_5_LD_25_RN_6_RD_12_1.png","img2/100/Incongruent/R/I_Dist_100_LN_11_LD_22_RN_9_RD_15_1.png","img2/300/Congruent/L/C_Dist_300_LN_20_LD_25_RN_8_RD_16_0.png","img2/300/Congruent/L/C_Dist_300_LN_24_LD_30_RN_8_RD_16_0.png","img2/300/Congruent/L/C_Dist_300_LN_11_LD_22_RN_2_RD_10_0.png","img2/300/Congruent/R/C_Dist_300_LN_2_LD_10_RN_12_RD_24_1.png","img2/100/Congruent/L/C_Dist_100_LN_11_LD_22_RN_6_RD_15_0.png","img2/200/Congruent/R/C_Dist_200_LN_6_LD_12_RN_7_RD_10_1.png","img2/300/Congruent/R/C_Dist_300_LN_4_LD_20_RN_13_RD_26_1.png","img2/100/Congruent/L/C_Dist_100_LN_6_LD_20_RN_5_RD_25_0.png","img2/300/Congruent/L/C_Dist_300_LN_9_LD_10_RN_3_RD_5_0.png","img2/300/Incongruent/L/I_Dist_300_LN_3_LD_6_RN_4_RD_20_0.png","img2/200/Incongruent/R/I_Dist_200_LN_7_LD_15_RN_4_RD_6_1.png","img2/300/Incongruent/R/I_Dist_300_LN_4_LD_20_RN_2_RD_4_1.png","img2/200/Incongruent/R/I_Dist_200_LN_6_LD_20_RN_3_RD_6_1.png","img2/100/Congruent/R/C_Dist_100_LN_4_LD_8_RN_6_RD_10_1.png","img2/200/Congruent/R/C_Dist_200_LN_1_LD_2_RN_21_RD_30_1.png","img2/200/Congruent/R/C_Dist_200_LN_3_LD_6_RN_14_RD_20_1.png","img2/200/Congruent/R/C_Dist_200_LN_9_LD_30_RN_13_RD_26_1.png","img2/300/Congruent/R/C_Dist_300_LN_1_LD_20_RN_7_RD_20_1.png","img2/200/Congruent/L/C_Dist_200_LN_6_LD_15_RN_3_RD_15_0.png","img2/200/Congruent/L/C_Dist_200_LN_16_LD_20_RN_12_RD_20_0.png","img2/300/Incongruent/L/I_Dist_300_LN_8_LD_10_RN_14_RD_28_0.png","img2/100/Congruent/R/C_Dist_100_LN_6_LD_12_RN_15_RD_25_1.png","img2/300/Congruent/L/C_Dist_300_LN_4_LD_5_RN_2_RD_4_0.png","img2/100/Congruent/R/C_Dist_100_LN_7_LD_14_RN_15_RD_25_1.png","img2/100/Congruent/R/C_Dist_100_LN_6_LD_12_RN_15_RD_25_1.png","img2/300/Congruent/L/C_Dist_300_LN_12_LD_24_RN_2_RD_10_0.png","img2/300/Incongruent/L/I_Dist_300_LN_8_LD_10_RN_14_RD_28_0.png","img2/300/Incongruent/R/I_Dist_300_LN_4_LD_20_RN_2_RD_4_1.png","img2/300/Incongruent/L/I_Dist_300_LN_1_LD_2_RN_2_RD_10_0.png","img2/100/Congruent/R/C_Dist_100_LN_6_LD_12_RN_15_RD_25_1.png","img2/100/Congruent/R/C_Dist_100_LN_1_LD_2_RN_18_RD_30_1.png","img2/200/Incongruent/R/I_Dist_200_LN_9_LD_15_RN_8_RD_10_1.png"],"dist100_C":[["C_Dist_100_LN_10_LD_25_RN_3_RD_10_0.png","C_Dist_100_LN_11_LD_22_RN_4_RD_10_0.png","C_Dist_100_LN_11_LD_22_RN_6_RD_15_0.png","C_Dist_100_LN_15_LD_25_RN_13_RD_26_0.png","C_Dist_100_LN_3_LD_6_RN_2_RD_5_0.png","C_Dist_100_LN_6_LD_20_RN_5_RD_25_0.png","C_Dist_100_LN_8_LD_16_RN_2_RD_5_0.png","C_Dist_100_LN_9_LD_15_RN_8_RD_16_0.png"],["C_Dist_100_LN_1_LD_2_RN_18_RD_30_1.png","C_Dist_100_LN_1_LD_2_RN_3_RD_5_1.png","C_Dist_100_LN_12_LD_30_RN_13_RD_26_1.png","C_Dist_100_LN_2_LD_5_RN_11_RD_22_1.png","C_Dist_100_LN_2_LD_5_RN_6_RD_12_1.png","C_Dist_100_LN_3_LD_20_RN_4_RD_16_1.png","C_Dist_100_LN_4_LD_10_RN_15_RD_30_1.png","C_Dist_100_LN_4_LD_8_RN_6_RD_10_1.png","C_Dist_100_LN_6_LD_12_RN_15_RD_25_1.png","C_Dist_100_LN_7_LD_14_RN_15_RD_25_1.png","C_Dist_100_LN_7_LD_14_RN_9_RD_15_1.png"]],"dist100_I":[["I_Dist_100_LN_1_LD_2_RN_8_RD_20_0.png","I_Dist_100_LN_2_LD_4_RN_6_RD_15_0.png","I_Dist_100_LN_2_LD_4_RN_8_RD_20_0.png","I_Dist_100_LN_3_LD_5_RN_11_RD_22_0.png","I_Dist_100_LN_3_LD_5_RN_8_RD_16_0.png","I_Dist_100_LN_3_LD_6_RN_4_RD_10_0.png","I_Dist_100_LN_3_LD_9_RN_7_RD_30_0.png","I_Dist_100_LN_4_LD_8_RN_8_RD_20_0.png","I_Dist_100_LN_6_LD_10_RN_11_RD_22_0.png","I_Dist_100_LN_6_LD_10_RN_13_RD_26_0.png","I_Dist_100_LN_6_LD_10_RN_7_RD_14_0.png","I_Dist_100_LN_9_LD_10_RN_20_RD_25_0.png","I_Dist_100_LN_9_LD_15_RN_13_RD_26_0.png","I_Dist_100_LN_9_LD_15_RN_14_RD_28_0.png"],["I_Dist_100_LN_10_LD_25_RN_8_RD_16_1.png","I_Dist_100_LN_10_LD_25_RN_9_RD_18_1.png","I_Dist_100_LN_11_LD_22_RN_9_RD_15_1.png","I_Dist_100_LN_12_LD_24_RN_9_RD_15_1.png","I_Dist_100_LN_12_LD_30_RN_2_RD_4_1.png","I_Dist_100_LN_13_LD_26_RN_12_RD_20_1.png","I_Dist_100_LN_13_LD_26_RN_6_RD_10_1.png","I_Dist_100_LN_17_LD_30_RN_10_RD_15_1.png","I_Dist_100_LN_6_LD_12_RN_3_RD_5_1.png","I_Dist_100_LN_8_LD_16_RN_6_RD_10_1.png","I_Dist_100_LN_8_LD_20_RN_1_RD_2_1.png","I_Dist_100_LN_9_LD_18_RN_6_RD_10_1.png"]],"dist100_S":[["E_Dist_100_LN_2_LD_12_RN_2_RD_30_0.png","E_Dist_100_LN_6_LD_10_RN_6_RD_12_0.png"],["E_Dist_100_LN_6_LD_12_RN_6_RD_10_1.png"]],"dist200_C":[["C_Dist_200_LN_11_LD_22_RN_3_RD_10_0.png","C_Dist_200_LN_12_LD_15_RN_6_RD_10_0.png","C_Dist_200_LN_12_LD_20_RN_6_RD_15_0.png","C_Dist_200_LN_14_LD_28_RN_6_RD_20_0.png","C_Dist_200_LN_15_LD_25_RN_4_RD_10_0.png","C_Dist_200_LN_16_LD_20_RN_12_RD_20_0.png","C_Dist_200_LN_16_LD_30_RN_9_RD_27_0.png","C_Dist_200_LN_20_LD_25_RN_9_RD_15_0.png","C_Dist_200_LN_21_LD_30_RN_2_RD_4_0.png","C_Dist_200_LN_4_LD_10_RN_3_RD_15_0.png","C_Dist_200_LN_4_LD_8_RN_3_RD_10_0.png","C_Dist_200_LN_6_LD_15_RN_3_RD_15_0.png","C_Dist_200_LN_7_LD_21_RN_2_RD_15_0.png","C_Dist_200_LN_8_LD_15_RN_2_RD_6_0.png","C_Dist_200_LN_8_LD_15_RN_3_RD_9_0.png","C_Dist_200_LN_8_LD_15_RN_7_RD_21_0.png","C_Dist_200_LN_9_LD_20_RN_4_RD_16_0.png"],["C_Dist_200_LN_1_LD_2_RN_21_RD_30_1.png","C_Dist_200_LN_13_LD_26_RN_14_RD_20_1.png","C_Dist_200_LN_3_LD_10_RN_11_RD_22_1.png","C_Dist_200_LN_3_LD_10_RN_14_RD_28_1.png","C_Dist_200_LN_3_LD_10_RN_7_RD_14_1.png","C_Dist_200_LN_3_LD_12_RN_9_RD_20_1.png","C_Dist_200_LN_3_LD_6_RN_14_RD_20_1.png","C_Dist_200_LN_5_LD_10_RN_14_RD_20_1.png","C_Dist_200_LN_6_LD_12_RN_7_RD_10_1.png","C_Dist_200_LN_6_LD_20_RN_11_RD_22_1.png","C_Dist_200_LN_7_LD_15_RN_18_RD_27_1.png","C_Dist_200_LN_9_LD_30_RN_13_RD_26_1.png"]],"dist200_I":[["I_Dist_200_LN_1_LD_2_RN_3_RD_10_0.png","I_Dist_200_LN_1_LD_3_RN_2_RD_15_0.png","I_Dist_200_LN_3_LD_4_RN_11_RD_20_0.png","I_Dist_200_LN_4_LD_5_RN_6_RD_10_0.png","I_Dist_200_LN_4_LD_6_RN_14_RD_30_0.png","I_Dist_200_LN_7_LD_10_RN_12_RD_24_0.png","I_Dist_200_LN_7_LD_10_RN_14_RD_28_0.png","I_Dist_200_LN_7_LD_10_RN_8_RD_16_0.png"],["I_Dist_200_LN_11_LD_20_RN_3_RD_4_1.png","I_Dist_200_LN_14_LD_30_RN_12_RD_18_1.png","I_Dist_200_LN_14_LD_30_RN_6_RD_9_1.png","I_Dist_200_LN_3_LD_10_RN_1_RD_2_1.png","I_Dist_200_LN_4_LD_30_RN_1_RD_3_1.png","I_Dist_200_LN_6_LD_20_RN_3_RD_6_1.png","I_Dist_200_LN_7_LD_15_RN_4_RD_6_1.png","I_Dist_200_LN_7_LD_15_RN_6_RD_9_1.png","I_Dist_200_LN_9_LD_15_RN_8_RD_10_1.png"]],"dist200_S":[["E_Dist_200_LN_3_LD_6_RN_3_RD_10_0.png"],["E_Dist_200_LN_3_LD_10_RN_3_RD_6_1.png"]],"dist300_C":[["C_Dist_300_LN_11_LD_22_RN_1_RD_5_0.png","C_Dist_300_LN_11_LD_22_RN_2_RD_10_0.png","C_Dist_300_LN_11_LD_22_RN_4_RD_20_0.png","C_Dist_300_LN_12_LD_24_RN_2_RD_10_0.png","C_Dist_300_LN_18_LD_20_RN_9_RD_15_0.png","C_Dist_300_LN_20_LD_25_RN_13_RD_26_0.png","C_Dist_300_LN_20_LD_25_RN_14_RD_28_0.png","C_Dist_300_LN_20_LD_25_RN_5_RD_10_0.png","C_Dist_300_LN_20_LD_25_RN_8_RD_16_0.png","C_Dist_300_LN_20_LD_25_RN_9_RD_18_0.png","C_Dist_300_LN_24_LD_30_RN_2_RD_4_0.png","C_Dist_300_LN_24_LD_30_RN_8_RD_16_0.png","C_Dist_300_LN_3_LD_6_RN_2_RD_10_0.png","C_Dist_300_LN_4_LD_10_RN_1_RD_10_0.png","C_Dist_300_LN_4_LD_5_RN_2_RD_4_0.png","C_Dist_300_LN_8_LD_16_RN_1_RD_5_0.png","C_Dist_300_LN_9_LD_10_RN_3_RD_5_0.png"],["C_Dist_300_LN_1_LD_20_RN_7_RD_20_1.png","C_Dist_300_LN_1_LD_3_RN_19_RD_30_1.png","C_Dist_300_LN_1_LD_30_RN_8_RD_24_1.png","C_Dist_300_LN_1_LD_5_RN_11_RD_22_1.png","C_Dist_300_LN_1_LD_5_RN_3_RD_6_1.png","C_Dist_300_LN_1_LD_5_RN_6_RD_12_1.png","C_Dist_300_LN_2_LD_10_RN_12_RD_24_1.png","C_Dist_300_LN_2_LD_20_RN_10_RD_25_1.png","C_Dist_300_LN_3_LD_12_RN_11_RD_20_1.png","C_Dist_300_LN_3_LD_6_RN_4_RD_5_1.png","C_Dist_300_LN_4_LD_20_RN_13_RD_26_1.png","C_Dist_300_LN_5_LD_25_RN_6_RD_12_1.png","C_Dist_300_LN_5_LD_25_RN_7_RD_14_1.png","C_Dist_300_LN_7_LD_14_RN_20_RD_25_1.png","C_Dist_300_LN_8_LD_15_RN_10_RD_12_1.png"]],"dist300_I":[["I_Dist_300_LN_1_LD_2_RN_2_RD_10_0.png","I_Dist_300_LN_1_LD_2_RN_3_RD_15_0.png","I_Dist_300_LN_2_LD_4_RN_6_RD_30_0.png","I_Dist_300_LN_3_LD_6_RN_4_RD_20_0.png","I_Dist_300_LN_4_LD_5_RN_6_RD_12_0.png","I_Dist_300_LN_4_LD_5_RN_8_RD_16_0.png","I_Dist_300_LN_7_LD_10_RN_8_RD_20_0.png","I_Dist_300_LN_8_LD_10_RN_14_RD_28_0.png","I_Dist_300_LN_8_LD_10_RN_9_RD_18_0.png"],["I_Dist_300_LN_13_LD_26_RN_12_RD_15_1.png","I_Dist_300_LN_4_LD_20_RN_2_RD_4_1.png"]],"dist300_S":[["E_Dist_300_LN_9_LD_12_RN_9_RD_20_0.png"],["E_Dist_300_LN_18_LD_30_RN_18_RD_20_1.png","E_Dist_300_LN_3_LD_10_RN_3_RD_5_1.png","E_Dist_300_LN_9_LD_20_RN_9_RD_12_1.png"]],"dist500_C":[["C_Dist_500_LN_10_LD_13_RN_7_RD_26_0.png","C_Dist_500_LN_10_LD_15_RN_4_RD_24_0.png","C_Dist_500_LN_12_LD_16_RN_3_RD_12_0.png","C_Dist_500_LN_12_LD_18_RN_4_RD_24_0.png","C_Dist_500_LN_15_LD_18_RN_5_RD_15_0.png","C_Dist_500_LN_15_LD_20_RN_1_RD_4_0.png","C_Dist_500_LN_18_LD_27_RN_1_RD_6_0.png","C_Dist_500_LN_20_LD_24_RN_1_RD_3_0.png","C_Dist_500_LN_20_LD_24_RN_3_RD_9_0.png","C_Dist_500_LN_20_LD_24_RN_7_RD_21_0.png","C_Dist_500_LN_20_LD_28_RN_3_RD_14_0.png","C_Dist_500_LN_21_LD_28_RN_6_RD_24_0.png","C_Dist_500_LN_22_LD_28_RN_2_RD_7_0.png","C_Dist_500_LN_25_LD_30_RN_9_RD_27_0.png","C_Dist_500_LN_4_LD_6_RN_1_RD_6_0.png","C_Dist_500_LN_5_LD_6_RN_2_RD_6_0.png","C_Dist_500_LN_6_LD_9_RN_1_RD_6_0.png","C_Dist_500_LN_7_LD_10_RN_1_RD_5_0.png","C_Dist_500_LN_8_LD_12_RN_1_RD_6_0.png","C_Dist_500_LN_8_LD_12_RN_4_RD_24_0.png"],["C_Dist_500_LN_1_LD_4_RN_12_RD_16_1.png","C_Dist_500_LN_1_LD_4_RN_9_RD_12_1.png","C_Dist_500_LN_1_LD_9_RN_11_RD_18_1.png","C_Dist_500_LN_10_LD_24_RN_22_RD_24_1.png","C_Dist_500_LN_2_LD_12_RN_10_RD_15_1.png","C_Dist_500_LN_2_LD_12_RN_12_RD_18_1.png","C_Dist_500_LN_2_LD_12_RN_4_RD_6_1.png","C_Dist_500_LN_2_LD_24_RN_7_RD_12_1.png","C_Dist_500_LN_2_LD_5_RN_18_RD_20_1.png","C_Dist_500_LN_2_LD_5_RN_9_RD_10_1.png","C_Dist_500_LN_2_LD_8_RN_12_RD_16_1.png","C_Dist_500_LN_2_LD_8_RN_21_RD_28_1.png","C_Dist_500_LN_3_LD_10_RN_4_RD_5_1.png","C_Dist_500_LN_3_LD_12_RN_15_RD_20_1.png","C_Dist_500_LN_3_LD_30_RN_6_RD_10_1.png","C_Dist_500_LN_3_LD_8_RN_14_RD_16_1.png","C_Dist_500_LN_4_LD_16_RN_15_RD_20_1.png","C_Dist_500_LN_4_LD_24_RN_12_RD_18_1.png","C_Dist_500_LN_5_LD_14_RN_6_RD_7_1.png","C_Dist_500_LN_7_LD_21_RN_20_RD_24_1.png","C_Dist_500_LN_7_LD_28_RN_12_RD_16_1.png","C_Dist_500_LN_7_LD_28_RN_9_RD_12_1.png","C_Dist_500_LN_9_LD_27_RN_20_RD_24_1.png"]],"dist500_I":[["I_Dist_500_LN_2_LD_3_RN_4_RD_24_0.png","I_Dist_500_LN_5_LD_6_RN_6_RD_18_0.png","I_Dist_500_LN_7_LD_8_RN_9_RD_24_0.png"],["I_Dist_500_LN_7_LD_21_RN_5_RD_6_1.png"]],"dist500_S":[["E_Dist_500_LN_6_LD_8_RN_6_RD_24_0.png"],["E_Dist_500_LN_2_LD_12_RN_2_RD_3_1.png","E_Dist_500_LN_6_LD_24_RN_6_RD_8_1.png"]]}},{"start_time":1551794296938,"click_time":1551794298988,"finger_time":1551794298609,"fix_duration":1166.9019815229099,"trial":1,"RT":1671,"MT":379,"sideResp":2,"stimulus":[],"xmouse":[783,783,783,783,783,783,783,783,783,783,783,783,783,783,783,783,783,783,783,783,783,783,783,783,783,783,783,783,783,783,783,783,783,783,783,783,783,783,783,783,783,783,783,783,783,783,783,783,783,783,783,783,783,783,783,783,783,783,783,783,783,783,783,783,783,783,783,783,783,783,783,783,783,783,783,783,783,783,783,783,783,800,842,910,1019,1038,1049,1057,1062,1067,1067,1069,1070,1070,1073,1075,1078,1080,1082,1093,1101,1106],"ymouse":[536,536,536,536,536,536,536,536,536,536,536,536,536,536,536,536,536,536,536,536,536,536,536,536,536,536,536,536,536,536,536,536,536,536,536,536,536,536,536,536,536,536,536,536,536,536,536,536,536,536,536,536,536,536,536,536,536,536,536,536,536,536,536,536,536,536,536,536,536,536,536,536,536,536,536,536,536,536,536,536,536,526,495,447,343,313,290,268,254,235,230,221,215,208,192,182,170,158,147,124,108,99],"timestamp_mouse":[12,56,69,89,110,131,151,170,190,209,230,250,270,290,310,330,350,370,390,410,430,450,470,489,510,530,550,570,590,610,630,650,670,689,709,730,750,770,790,810,830,850,870,890,910,931,949,970,991,1010,1030,1050,1070,1090,1110,1129,1151,1170,1190,1209,1230,1250,1271,1289,1310,1330,1349,1370,1390,1409,1430,1450,1471,1490,1510,1530,1550,1570,1589,1610,1630,1650,1671,1690,1711,1730,1750,1770,1790,1810,1830,1851,1870,1890,1910,1929,1949,1969,1989,2010,2030,2050],"xSR":741.5,"ySR":501.15000000000003,"xT1":424.9,"yT1":0,"xT2":1058.1,"yT2":0,"toosoon":0,"cond_shown":"Incongruent","ratio_trial":300,"L_num":1,"L_den":2,"R_num":2,"R_den":10,"correct_side":1,"subjID":"AlejandraRivera","gender":"1","school":"6","age":"11"},{"start_time":1551794301524,"click_time":1551794311388,"finger_time":1551794306829,"fix_duration":1414.845960331811,"trial":2,"RT":5305,"MT":4559,"sideResp":1,"stimulus":[],"xmouse":[763,763,763,763,763,763,763,763,763,763,763,763,763,763,763,763,763,763,763,763,763,763,763,763,763,763,763,763,763,763,763,763,763,763,763,763,763,763,763,763,763,763,763,763,763,763,763,763,763,763,763,763,763,763,763,763,763,763,763,763,763,763,763,763,763,763,763,763,763,763,763,763,763,763,763,763,763,769,773,777,781,785,785,786,788,789,789,789,790,790,792,792,793,793,793,793,794,794,795,795,795,795,795,795,795,795,795,795,795,795,795,795,795,795,795,795,795,794,794,794,794,793,792,788,786,783,780,779,779,779,779,779,781,783,785,788,792,796,797,797,798,798,798,797,797,794,793,791,789,787,785,782,782,781,781,781,780,780,780,780,780,780,780,781,781,782,782,782,782,782,782,782,782,782,782,782,782,782,782,782,782,782,782,782,782,782,782,783,784,784,784,788,789,792,792,794,794,794,794,795,795,795,795,795,795,795,795,795,795,795,795,795,795,795,795,795,795,795,795,795,796,797,797,797,797,797,797,797,797,797,797,797,797,797,797,797,797,797,797,797,797,797,797,797,797,797,797,797,797,797,797,797,797,797,797,797,797,797,794,793,791,787,786,783,782,781,780,780,780,780,780,778,776,775,774,772,772,772,772,772,771,767,767,767,767,767,767,767,767,767,767,767,767,767,767,767,767,767,767,767,767,766,766,766,766,766,766,766,766,767,770,778,784,788,793,794,795,795,795,795,795,795,795,795,795,795,795,795,795,795,795,795,795,795,795,795,795,795,795,795,795,795,795,795,795,795,795,795,795,795,795,795,795,795,795,795,795,795,795,795,795,795,795,795,795,795,795,795,795,795,795,795,795,795,795,795,795,795,795,795,795,795,795,795,795,795,795,795,795,795,795,795,795,795,795,795,795,795,795,795,795,795,795,795,795,795,795,795,795,795,795,795,795,795,795,795,795,795,795,795,795,795,795,795,795,795,795,795,795,795,795,795,795,795,795,795,795,795,795,795,795,795,795,795,795,795,795,795,795,795,795,795,795,795,795,795,795,795,795,795,795,795,795,795,795,774,696,643,609,592,587,584,580,574,564,556,548,546,546,546,546,545,544,542,539,536,525,517,513,500,491,487,487,474],"ymouse":[562,562,562,562,562,562,562,562,562,562,562,562,562,562,562,562,562,562,562,562,562,562,562,562,562,562,562,562,562,562,562,562,562,562,562,562,562,562,562,562,562,562,562,562,562,562,562,562,562,562,562,562,562,562,562,562,562,562,562,562,562,562,562,562,562,562,562,562,562,562,562,562,562,562,562,562,562,562,561,559,556,555,555,554,553,553,552,552,552,551,550,549,549,549,549,549,548,546,545,545,545,545,545,545,545,545,545,545,545,545,545,545,545,545,545,545,545,545,544,544,544,543,543,543,543,543,543,543,543,543,543,544,546,546,546,546,546,545,543,541,538,535,533,532,532,531,531,531,531,531,531,532,533,534,534,534,536,537,538,539,540,541,541,542,543,543,543,543,543,543,543,543,543,543,543,543,543,543,543,543,543,543,543,543,543,543,543,543,544,544,544,544,544,544,544,544,544,544,544,544,544,544,544,544,544,544,544,544,544,544,544,544,544,544,544,544,544,544,544,544,544,539,537,532,531,530,530,530,530,530,530,530,530,530,530,530,530,530,530,530,530,530,530,530,530,530,530,530,530,530,530,530,530,530,530,530,530,530,536,543,555,583,590,597,600,603,603,603,603,603,603,603,603,602,599,596,594,593,591,590,582,579,579,579,579,579,579,579,579,579,579,579,579,579,579,579,579,579,579,579,579,579,579,579,579,579,578,575,570,564,557,542,536,530,523,520,519,519,519,519,519,519,519,519,519,519,519,519,519,519,519,519,519,519,519,519,519,519,519,519,519,519,519,519,519,519,519,519,519,519,519,519,519,519,519,519,519,519,519,519,519,519,519,519,519,519,519,519,519,519,519,519,519,519,519,519,519,519,519,519,519,519,519,519,519,519,519,519,519,519,519,519,519,519,519,519,519,519,519,519,519,519,519,519,519,519,519,519,519,519,519,519,519,519,519,519,519,519,519,519,519,519,519,519,519,519,519,519,519,519,519,519,519,519,519,519,519,519,519,519,519,519,519,519,519,519,519,519,519,519,519,519,519,519,519,519,519,519,519,519,519,519,519,519,519,495,390,347,322,310,305,298,290,276,252,235,216,213,210,210,208,198,185,178,168,158,139,129,126,114,108,105,105,94],"timestamp_mouse":[12,24,61,63,84,104,124,144,164,184,204,224,244,264,284,304,324,343,364,384,404,424,444,464,484,503,529,545,564,584,605,625,644,664,684,704,724,744,763,784,804,823,844,864,884,904,924,944,964,984,1009,1024,1044,1065,1084,1104,1124,1145,1165,1184,1204,1224,1245,1263,1285,1305,1323,1344,1364,1384,1404,1424,1444,1464,1484,1504,1524,1544,1564,1584,1604,1624,1644,1664,1684,1704,1724,1744,1764,1784,1805,1824,1844,1865,1885,1904,1924,1944,1964,1985,2004,2024,2044,2064,2084,2104,2124,2144,2164,2184,2204,2224,2244,2263,2284,2304,2324,2343,2363,2384,2404,2424,2444,2463,2484,2504,2525,2544,2564,2584,2604,2623,2644,2664,2683,2704,2724,2745,2764,2783,2804,2825,2844,2864,2883,2904,2924,2944,2963,2984,3004,3023,3044,3064,3084,3104,3123,3144,3163,3183,3205,3224,3244,3264,3284,3304,3325,3343,3365,3385,3404,3429,3444,3464,3484,3504,3526,3543,3564,3586,3604,3624,3645,3664,3684,3704,3724,3744,3764,3784,3804,3824,3844,3863,3884,3904,3924,3943,3964,3983,4004,4024,4045,4067,4084,4116,4125,4143,4163,4184,4204,4224,4243,4263,4284,4304,4323,4343,4364,4384,4404,4424,4445,4464,4484,4504,4523,4544,4564,4584,4603,4624,4643,4664,4685,4704,4725,4744,4764,4784,4804,4823,4844,4865,4884,4904,4924,4944,4964,4985,5005,5024,5043,5064,5084,5104,5124,5144,5164,5184,5204,5224,5244,5264,5284,5305,5331,5347,5364,5385,5405,5424,5444,5464,5484,5504,5524,5543,5564,5584,5605,5623,5644,5664,5685,5705,5724,5744,5764,5784,5804,5824,5844,5865,5884,5904,5925,5943,5964,5984,6003,6024,6043,6064,6084,6104,6125,6144,6165,6184,6204,6224,6244,6265,6284,6303,6324,6344,6364,6384,6405,6424,6444,6464,6484,6504,6524,6544,6565,6584,6604,6624,6644,6664,6684,6705,6723,6744,6764,6784,6805,6823,6844,6863,6883,6903,6923,6944,6965,6984,7004,7024,7044,7064,7084,7104,7124,7144,7164,7183,7203,7225,7244,7264,7284,7304,7325,7344,7364,7384,7404,7424,7445,7463,7484,7504,7524,7544,7564,7584,7604,7624,7644,7664,7684,7704,7725,7744,7764,7785,7804,7825,7844,7864,7884,7904,7924,7944,7964,7984,8004,8024,8044,8064,8084,8105,8124,8144,8165,8184,8204,8224,8244,8264,8284,8304,8323,8344,8364,8384,8404,8423,8444,8464,8484,8504,8524,8544,8564,8584,8604,8624,8644,8664,8684,8704,8724,8743,8764,8784,8804,8825,8844,8864,8884,8904,8925,8944,8964,8984,9004,9023,9044,9064,9084,9103,9124,9145,9164,9185,9204,9225,9244,9264,9284,9304,9324,9344,9363,9383,9404,9423,9444,9464,9484,9504,9525,9544,9564,9583,9604,9623,9644,9664,9685,9705,9723,9745,9764,9784,9804,9824,9844,9864],"xSR":741.5,"ySR":501.15000000000003,"xT1":424.9,"yT1":0,"xT2":1058.1,"yT2":0,"toosoon":0,"cond_shown":"Congruent","ratio_trial":100,"L_num":6,"L_den":20,"R_num":5,"R_den":25,"correct_side":1,"subjID":"AlejandraRivera","gender":"1","school":"6","age":"11"},{"start_time":1551794314516,"click_time":1551794316448,"finger_time":1551794316088,"fix_duration":621.1180415536529,"trial":3,"RT":1572,"MT":360,"sideResp":1,"stimulus":[],"xmouse":[806,806,806,806,806,806,806,806,806,806,806,806,806,806,806,806,806,806,806,806,806,806,806,806,806,806,806,806,806,806,806,806,806,806,806,806,806,806,806,806,806,806,806,806,806,806,806,806,806,806,806,806,806,806,806,806,806,806,806,806,806,806,806,806,806,806,806,806,806,806,806,806,806,806,806,805,802,768,729,689,647,604,597,589,583,565,558,553,548,545,542,532,526,516,509,500,483],"ymouse":[570,570,570,570,570,570,570,570,570,570,570,570,570,570,570,570,570,570,570,570,570,570,570,570,570,570,570,570,570,570,570,570,570,570,570,570,570,570,570,570,570,570,570,570,570,570,570,570,570,570,570,570,570,570,570,570,570,570,570,570,570,570,570,570,570,570,570,570,570,570,570,570,570,570,570,569,569,535,483,432,384,336,324,307,295,261,248,235,224,213,200,171,156,131,118,103,74],"timestamp_mouse":[12,44,52,73,92,113,132,152,172,192,212,233,252,272,292,313,333,352,373,391,412,432,452,472,492,512,532,552,572,592,612,632,652,672,691,713,732,752,772,792,812,832,853,871,892,912,932,951,972,992,1013,1032,1052,1072,1092,1111,1133,1152,1172,1192,1212,1232,1252,1272,1292,1313,1332,1352,1372,1392,1411,1432,1452,1472,1493,1511,1532,1552,1572,1592,1612,1632,1652,1672,1691,1712,1734,1752,1772,1793,1814,1832,1852,1872,1892,1912,1932],"xSR":741.5,"ySR":501.15000000000003,"xT1":424.9,"yT1":0,"xT2":1058.1,"yT2":0,"toosoon":0,"cond_shown":"Incongruent","ratio_trial":200,"L_num":4,"L_den":30,"R_num":1,"R_den":3,"correct_side":2,"subjID":"AlejandraRivera","gender":"1","school":"6","age":"11"},{"start_time":1551794317820,"click_time":1551794320589,"finger_time":1551794320088,"fix_duration":250,"trial":4,"RT":2268,"MT":501,"sideResp":2,"stimulus":[],"xmouse":[776,776,776,776,776,776,776,776,776,776,776,776,776,776,776,776,776,776,776,776,776,776,776,776,776,776,776,776,776,776,776,776,776,776,776,776,776,776,776,776,776,776,776,776,776,776,776,776,776,776,776,776,776,776,776,776,776,776,776,776,776,776,776,776,776,776,776,776,776,776,776,776,776,776,776,776,776,776,776,776,776,776,776,776,776,776,776,776,776,776,776,776,776,776,776,776,776,776,776,776,776,776,776,776,776,776,776,776,776,776,776,790,810,843,883,883,955,966,979,987,987,1001,1009,1013,1018,1021,1033,1048,1055,1060,1071,1074,1077,1078,1079,1080,1081,1081,1081],"ymouse":[571,571,571,571,571,571,571,571,571,571,571,571,571,571,571,571,571,571,571,571,571,571,571,571,571,571,571,571,571,571,571,571,571,571,571,571,571,571,571,571,571,571,571,571,571,571,571,571,571,571,571,571,571,571,571,571,571,571,571,571,571,571,571,571,571,571,571,571,571,571,571,571,571,571,571,571,571,571,571,571,571,571,571,571,571,571,571,571,571,571,571,571,571,571,571,571,571,571,571,571,571,571,571,571,571,571,571,571,571,571,571,552,524,475,425,425,323,305,283,269,269,251,240,234,227,220,203,183,170,159,141,133,125,120,116,108,102,100,96],"timestamp_mouse":[12,28,67,69,88,108,127,147,168,188,209,228,248,267,288,309,328,347,367,388,407,428,448,468,488,507,528,549,568,587,608,628,648,668,688,708,728,748,768,788,808,827,848,869,888,908,929,948,968,988,1009,1028,1048,1069,1089,1108,1127,1148,1169,1188,1208,1228,1248,1267,1288,1309,1328,1348,1368,1388,1407,1428,1448,1468,1488,1508,1527,1548,1568,1588,1608,1628,1648,1668,1688,1707,1728,1748,1769,1788,1808,1827,1848,1868,1887,1907,1928,1948,1968,1988,2008,2029,2048,2068,2088,2108,2128,2148,2168,2188,2207,2228,2248,2268,2287,2308,2327,2351,2375,2391,2408,2429,2449,2467,2488,2508,2528,2549,2569,2588,2608,2628,2649,2668,2688,2708,2730,2749,2769],"xSR":741.5,"ySR":501.15000000000003,"xT1":424.9,"yT1":0,"xT2":1058.1,"yT2":0,"toosoon":0,"cond_shown":"Incongruent","ratio_trial":300,"L_num":4,"L_den":5,"R_num":6,"R_den":12,"correct_side":1,"subjID":"AlejandraRivera","gender":"1","school":"6","age":"11"},{"start_time":1551794324252,"click_time":1551794330048,"finger_time":1551794326368,"fix_duration":1303.4358668919751,"trial":5,"RT":2116,"MT":3680,"sideResp":1,"stimulus":[],"xmouse":[768,768,768,768,768,768,768,768,768,768,768,768,768,768,768,768,768,768,768,768,768,768,768,768,768,768,768,768,768,768,768,768,768,768,768,768,768,768,768,768,768,768,768,768,768,768,768,768,768,768,768,768,768,768,768,768,768,768,768,768,768,768,768,768,768,768,768,768,768,768,768,768,768,768,768,768,768,768,768,768,768,768,768,768,768,768,768,768,768,768,768,768,768,768,768,768,768,768,768,768,768,768,768,760,751,740,730,715,709,703,701,700,699,699,699,699,699,698,698,698,698,698,698,698,698,698,698,698,698,698,698,698,698,698,698,698,698,698,698,698,698,698,698,698,698,698,698,698,698,698,698,698,698,698,698,698,698,698,698,698,698,698,698,698,698,698,698,698,698,698,698,697,696,693,674,664,660,657,655,651,646,640,635,628,626,624,623,622,620,617,615,614,614,610,609,609,609,606,603,600,600,600,596,590,588,584,583,580,579,578,578,576,575,575,575,575,575,575,575,575,575,575,575,575,575,575,575,575,575,575,575,575,575,575,575,575,575,575,575,575,575,575,575,575,571,571,571,571,570,562,559,554,551,549,548,548,545,544,544,544,544,544,544,544,542,539,538,536,536,534,533,533,532,531,529,529,529,529,528,528,528,528,528,527,526,526,526,525,524,522],"ymouse":[588,588,588,588,588,588,588,588,588,588,588,588,588,588,588,588,588,588,588,588,588,588,588,588,588,588,588,588,588,588,588,588,588,588,588,588,588,588,588,588,588,588,588,588,588,588,588,588,588,588,588,588,588,588,588,588,588,588,588,588,588,588,588,588,588,588,588,588,588,588,588,588,588,588,588,588,588,588,588,588,588,588,588,588,588,588,588,588,588,588,588,588,588,588,588,588,588,588,588,588,588,588,587,559,535,505,479,443,426,405,399,395,392,388,386,386,385,384,384,384,384,384,384,384,384,384,384,384,384,384,384,384,384,384,384,384,384,384,384,384,384,384,384,384,384,384,384,384,384,384,384,384,384,384,384,384,384,384,384,384,384,384,384,384,384,384,384,384,384,384,384,384,384,382,366,360,355,350,341,330,316,301,290,271,264,259,254,253,250,243,239,236,235,229,227,226,226,224,218,209,204,198,187,176,174,167,166,161,157,156,156,155,155,155,155,155,155,155,155,155,155,155,155,155,155,155,155,155,155,155,155,155,155,155,155,155,155,155,155,155,154,154,154,154,153,153,153,153,151,147,145,142,141,139,138,137,134,133,132,132,132,131,130,130,123,120,118,118,117,116,115,114,112,111,108,107,107,107,106,106,106,106,106,105,104,104,103,102,101,99],"timestamp_mouse":[15,48,55,76,96,116,136,156,176,197,215,236,255,275,296,316,336,356,376,396,416,436,456,475,495,516,536,557,576,596,617,636,656,676,695,716,736,757,777,796,817,837,857,876,896,915,936,956,976,996,1016,1036,1057,1076,1097,1116,1136,1157,1176,1195,1216,1236,1256,1276,1295,1315,1336,1356,1376,1396,1416,1436,1456,1476,1496,1516,1536,1556,1576,1596,1615,1635,1656,1676,1696,1716,1736,1756,1776,1796,1816,1836,1856,1876,1896,1917,1936,1956,1976,1996,2016,2036,2056,2076,2096,2116,2136,2155,2175,2195,2216,2236,2256,2276,2295,2316,2336,2357,2376,2396,2416,2436,2456,2476,2496,2517,2537,2555,2576,2595,2616,2636,2656,2677,2696,2716,2737,2756,2776,2796,2816,2837,2856,2875,2895,2916,2936,2956,2976,2995,3016,3036,3057,3077,3096,3116,3136,3156,3176,3196,3217,3236,3256,3276,3296,3317,3336,3356,3376,3396,3417,3436,3456,3476,3497,3517,3536,3556,3577,3595,3616,3636,3657,3675,3695,3717,3735,3756,3776,3795,3816,3837,3856,3876,3897,3916,3935,3956,3975,3995,4016,4035,4055,4076,4095,4116,4137,4156,4176,4196,4217,4236,4256,4275,4296,4316,4335,4355,4377,4397,4417,4436,4456,4476,4496,4516,4535,4555,4576,4596,4616,4636,4657,4675,4695,4716,4736,4755,4775,4796,4817,4837,4856,4876,4896,4916,4936,4955,4976,4995,5017,5036,5055,5075,5095,5115,5137,5156,5176,5197,5217,5235,5257,5275,5295,5316,5335,5355,5375,5395,5415,5436,5456,5475,5495,5515,5536,5556,5576,5596,5617,5636,5656,5676,5696,5716,5737,5756,5776,5796],"xSR":741.5,"ySR":501.15000000000003,"xT1":424.9,"yT1":0,"xT2":1058.1,"yT2":0,"toosoon":0,"cond_shown":"Congruent","ratio_trial":200,"L_num":12,"L_den":20,"R_num":6,"R_den":15,"correct_side":1,"subjID":"AlejandraRivera","gender":"1","school":"6","age":"11"},{"start_time":1551794332408,"click_time":1551794334389,"finger_time":1551794333948,"fix_duration":778.8238000303004,"trial":6,"RT":1540,"MT":441,"sideResp":2,"stimulus":[],"xmouse":[803,803,803,803,803,803,803,801,801,799,799,798,798,797,797,797,797,797,797,797,797,797,797,797,797,797,797,797,797,797,797,797,797,797,797,797,797,797,797,797,797,797,797,797,797,797,797,797,797,797,797,797,797,797,797,797,797,797,797,797,797,797,797,797,797,797,797,797,797,797,797,797,797,797,797,804,822,835,846,853,857,860,861,865,872,879,899,912,923,942,956,985,1002,1014,1032,1047,1058,1081,1090,1098],"ymouse":[512,512,512,512,512,512,512,516,519,521,524,531,532,533,534,535,536,537,537,537,537,537,537,537,537,537,537,537,537,537,537,537,537,537,537,537,537,537,537,537,537,537,537,537,537,537,537,537,537,537,537,537,537,537,537,537,537,537,537,537,537,537,537,537,537,537,537,537,537,537,537,537,537,537,537,530,504,487,470,457,450,445,445,439,432,427,407,394,380,360,342,299,279,257,227,199,172,122,101,71],"timestamp_mouse":[13,21,55,60,79,99,120,140,160,181,200,220,240,260,280,300,320,340,360,380,400,420,440,460,480,500,519,540,560,581,600,621,640,660,680,700,719,741,761,780,800,820,841,860,879,900,920,940,960,980,1000,1020,1040,1060,1080,1100,1120,1140,1160,1181,1200,1220,1240,1261,1279,1300,1320,1340,1360,1380,1399,1420,1441,1461,1480,1500,1520,1540,1559,1581,1600,1619,1640,1661,1680,1700,1719,1739,1760,1780,1800,1819,1840,1859,1881,1900,1919,1940,1960,1981],"xSR":741.5,"ySR":501.15000000000003,"xT1":424.9,"yT1":0,"xT2":1058.1,"yT2":0,"toosoon":0,"cond_shown":"Incongruent","ratio_trial":300,"L_num":13,"L_den":26,"R_num":12,"R_den":15,"correct_side":2,"subjID":"AlejandraRivera","gender":"1","school":"6","age":"11"},{"start_time":1551794336765,"click_time":1551794339209,"finger_time":1551794338627,"fix_duration":1296.8163246685804,"trial":7,"RT":1862,"MT":582,"sideResp":2,"stimulus":[],"xmouse":[769,769,769,769,769,769,769,769,769,769,769,769,769,769,769,769,769,769,769,769,769,769,769,769,769,769,769,769,769,769,769,769,769,769,769,769,769,769,769,769,769,769,769,769,769,769,769,769,769,769,769,769,769,769,769,769,769,769,769,769,769,769,769,769,769,769,769,769,769,769,769,769,769,769,769,769,769,769,769,769,769,769,769,769,769,769,769,769,769,769,769,771,816,856,884,911,929,937,937,1040,1115,1139,1147,1152,1153,1156,1157,1158,1158,1158,1158,1158,1157,1154,1152,1151,1149,1146,1138,1134,1131,1125,1118],"ymouse":[538,538,538,538,538,538,538,538,538,538,538,538,538,538,538,538,538,538,538,538,538,538,538,538,538,538,538,538,538,538,538,538,538,538,538,538,538,538,538,538,538,538,538,538,538,538,538,538,538,538,538,538,538,538,538,538,538,538,538,538,538,538,538,538,538,538,538,538,538,538,538,538,538,538,538,538,538,538,538,538,538,538,538,538,538,538,538,538,538,538,538,538,521,489,453,410,393,387,387,304,248,230,223,215,211,210,204,201,197,192,189,185,178,167,164,163,159,154,133,126,118,108,96],"timestamp_mouse":[13,23,55,63,83,104,124,143,162,183,203,224,244,263,283,303,323,343,363,383,403,422,443,463,483,503,523,544,564,583,603,623,643,664,683,702,723,743,763,783,803,823,844,863,883,902,923,943,964,983,1009,1023,1043,1064,1083,1103,1122,1143,1163,1183,1203,1223,1244,1263,1284,1303,1323,1343,1363,1383,1402,1424,1443,1463,1483,1503,1523,1543,1563,1583,1603,1622,1643,1663,1683,1702,1723,1743,1763,1782,1803,1823,1843,1862,1883,1905,1927,1944,1963,1983,2003,2024,2043,2063,2084,2104,2123,2143,2163,2183,2202,2224,2243,2264,2284,2303,2323,2344,2363,2382,2402,2423,2444],"xSR":741.5,"ySR":501.15000000000003,"xT1":424.9,"yT1":0,"xT2":1058.1,"yT2":0,"toosoon":0,"cond_shown":"Incongruent","ratio_trial":100,"L_num":8,"L_den":16,"R_num":6,"R_den":10,"correct_side":2,"subjID":"AlejandraRivera","gender":"1","school":"6","age":"11"},{"start_time":1551794340481,"click_time":1551794343268,"finger_time":1551794342968,"fix_duration":250,"trial":8,"RT":2487,"MT":300,"sideResp":1,"stimulus":[],"xmouse":[780,780,780,780,780,780,780,780,780,780,780,780,780,780,780,780,780,780,780,780,780,780,780,780,780,780,780,780,780,780,780,780,780,780,780,780,780,780,780,780,780,780,780,780,780,780,780,780,780,780,780,780,780,780,780,780,780,780,780,780,780,780,780,780,780,780,780,780,780,780,780,780,780,780,780,780,780,780,780,780,780,780,780,780,780,780,780,780,780,780,780,780,780,780,780,780,780,780,780,780,780,780,780,780,780,780,780,780,780,780,780,780,780,780,780,780,780,780,780,780,780,780,758,731,676,586,536,523,517,513,506,498,493,488,482,479,474,473,470],"ymouse":[543,543,543,543,543,543,543,543,543,543,543,543,543,543,543,543,543,543,543,543,543,543,543,543,543,543,543,543,543,543,543,543,543,543,543,543,543,543,543,543,543,543,543,543,543,543,543,543,543,543,543,543,543,543,543,543,543,543,543,543,543,543,543,543,543,543,543,543,543,543,543,543,543,543,543,543,543,543,543,543,543,543,543,543,543,543,543,543,543,543,543,543,543,543,543,543,543,543,543,543,543,543,543,543,543,543,543,543,543,543,543,543,543,543,543,543,543,543,543,543,543,543,516,480,413,323,267,247,234,222,203,178,169,156,140,135,112,104,96],"timestamp_mouse":[12,27,68,88,106,127,148,167,186,206,227,247,267,287,307,326,346,367,387,407,427,447,467,487,508,528,547,568,587,607,626,647,668,687,708,728,747,768,787,807,828,847,867,886,907,928,947,966,987,1007,1027,1047,1067,1087,1107,1127,1147,1167,1186,1207,1227,1247,1267,1287,1308,1327,1347,1368,1388,1407,1427,1447,1467,1488,1507,1526,1547,1567,1588,1607,1627,1647,1667,1686,1707,1727,1747,1767,1786,1807,1827,1847,1867,1887,1907,1928,1947,1967,1988,2007,2028,2047,2066,2088,2107,2127,2147,2167,2187,2207,2228,2247,2267,2287,2307,2327,2348,2367,2387,2407,2427,2447,2467,2487,2507,2528,2547,2568,2587,2607,2628,2646,2667,2688,2710,2727,2746,2767,2786],"xSR":741.5,"ySR":501.15000000000003,"xT1":424.9,"yT1":0,"xT2":1058.1,"yT2":0,"toosoon":0,"cond_shown":"Incongruent","ratio_trial":100,"L_num":3,"L_den":5,"R_num":11,"R_den":22,"correct_side":1,"subjID":"AlejandraRivera","gender":"1","school":"6","age":"11"},{"start_time":1551794349053,"click_time":1551794350968,"finger_time":1551794350508,"fix_duration":1323.3150514004255,"trial":9,"RT":1455,"MT":460,"sideResp":2,"stimulus":[],"xmouse":[750,750,750,750,750,750,750,750,750,750,750,750,750,750,750,750,750,750,750,750,750,750,750,750,750,750,750,750,750,750,750,750,750,750,750,750,750,750,750,750,750,750,750,750,750,750,750,750,750,750,750,750,750,750,750,750,750,750,750,750,750,750,750,750,750,750,750,750,750,762,782,833,877,940,957,968,979,984,989,993,997,1000,1014,1015,1024,1031,1037,1052,1053,1057,1061,1064,1070,1072,1075],"ymouse":[554,554,554,554,554,554,554,554,554,554,554,554,554,554,554,554,554,554,554,554,554,554,554,554,554,554,554,554,554,554,554,554,554,554,554,554,554,554,554,554,554,554,554,554,554,554,554,554,554,554,554,554,554,554,554,554,554,554,554,554,554,554,554,554,554,554,554,554,554,542,528,495,462,413,397,384,368,355,346,340,334,325,297,295,281,265,246,200,191,176,159,144,120,109,98],"timestamp_mouse":[15,35,82,95,115,135,155,175,195,216,235,255,274,295,314,335,354,375,395,415,435,456,474,495,515,534,556,575,595,616,635,655,675,696,715,735,755,776,795,815,835,855,876,895,915,936,955,975,995,1015,1035,1055,1075,1095,1115,1135,1155,1175,1195,1215,1235,1254,1275,1295,1316,1335,1355,1375,1395,1415,1435,1455,1475,1495,1515,1536,1556,1574,1595,1616,1635,1656,1675,1695,1715,1736,1755,1775,1795,1814,1835,1855,1875,1895,1915],"xSR":741.5,"ySR":501.15000000000003,"xT1":424.9,"yT1":0,"xT2":1058.1,"yT2":0,"toosoon":0,"cond_shown":"Congruent","ratio_trial":300,"L_num":20,"L_den":25,"R_num":5,"R_den":10,"correct_side":1,"subjID":"AlejandraRivera","gender":"1","school":"6","age":"11"},{"start_time":1551794353415,"click_time":1551794355989,"finger_time":1551794355689,"fix_duration":826.6299005799159,"trial":10,"RT":2274,"MT":300,"sideResp":1,"stimulus":[],"xmouse":[759,759,762,762,764,764,765,766,766,766,766,766,766,766,766,766,766,766,766,766,766,766,766,766,766,766,766,766,766,766,766,766,766,766,766,766,766,766,766,766,766,766,766,766,766,766,766,766,766,766,766,766,766,766,766,766,766,766,766,766,766,766,766,766,766,766,766,766,766,766,766,766,766,766,766,766,766,766,766,766,766,766,766,766,766,766,766,766,766,766,766,766,766,766,766,766,766,766,766,766,766,766,766,766,766,766,766,766,766,766,766,764,754,726,689,641,621,607,600,593,581,572,565,562,556,542,533,527,523],"ymouse":[543,543,544,544,545,545,545,545,545,545,546,546,546,546,546,546,546,546,546,546,546,546,546,546,546,546,546,546,546,546,546,546,546,546,546,546,546,546,546,546,546,546,546,546,546,546,546,546,546,546,546,546,546,546,546,546,546,546,546,546,546,546,546,546,546,546,546,546,546,546,546,546,546,546,546,546,546,546,546,546,546,546,546,546,546,546,546,546,546,546,546,546,546,546,546,546,546,546,546,546,546,546,546,546,546,546,546,546,546,546,546,536,516,474,422,337,311,287,275,261,219,196,170,156,142,117,107,98,91],"timestamp_mouse":[24,34,53,73,93,114,134,154,172,192,212,232,254,273,293,313,333,353,373,393,414,434,453,472,492,513,533,553,573,593,612,633,653,673,693,713,733,752,773,793,813,833,853,873,894,913,933,953,973,993,1013,1033,1053,1073,1093,1113,1133,1153,1173,1194,1213,1233,1254,1273,1292,1314,1333,1352,1373,1394,1413,1434,1453,1474,1493,1513,1533,1553,1573,1594,1613,1633,1653,1673,1692,1713,1733,1754,1773,1793,1813,1833,1854,1874,1893,1913,1933,1953,1973,1993,2013,2033,2053,2073,2093,2113,2132,2153,2173,2193,2212,2234,2253,2274,2293,2314,2336,2354,2373,2393,2414,2435,2457,2472,2492,2514,2533,2552,2573],"xSR":741.5,"ySR":501.15000000000003,"xT1":424.9,"yT1":0,"xT2":1058.1,"yT2":0,"toosoon":0,"cond_shown":"Congruent","ratio_trial":300,"L_num":20,"L_den":25,"R_num":5,"R_den":10,"correct_side":1,"subjID":"AlejandraRivera","gender":"1","school":"6","age":"11"},{"start_time":1551794363432,"click_time":1551794365287,"finger_time":1551794364927,"fix_duration":902.0662942987009,"trial":11,"RT":1495,"MT":360,"sideResp":2,"stimulus":[],"xmouse":[783,783,783,783,783,783,783,783,783,783,783,783,783,783,783,783,783,783,783,783,783,783,783,783,783,783,783,783,783,783,783,783,783,783,783,783,783,783,783,783,783,783,783,783,783,783,783,783,783,783,783,783,783,783,783,783,783,783,783,783,783,783,783,783,783,783,783,783,783,783,783,783,797,806,817,823,834,853,897,953,983,1006,1016,1023,1040,1056,1070,1079,1086,1094,1101,1106,1109],"ymouse":[559,559,559,559,559,559,559,559,559,559,559,559,559,559,559,559,559,559,559,559,559,559,559,559,559,559,559,559,559,559,559,559,559,559,559,559,559,559,559,559,559,559,559,559,559,559,559,559,559,559,559,559,559,559,559,559,559,559,559,559,559,559,559,559,559,559,559,559,559,559,559,557,524,508,487,476,460,438,400,353,332,314,305,297,262,232,212,197,179,151,132,113,94],"timestamp_mouse":[15,52,55,75,95,115,135,155,176,195,215,235,255,275,295,315,335,355,376,395,415,435,455,475,496,516,536,556,575,595,615,635,655,675,695,715,735,756,777,795,816,835,855,876,895,915,936,956,975,996,1016,1036,1055,1075,1096,1115,1135,1155,1175,1196,1215,1235,1255,1275,1296,1315,1335,1355,1375,1395,1415,1435,1455,1475,1495,1520,1538,1555,1575,1595,1615,1635,1655,1675,1695,1715,1735,1755,1776,1795,1817,1835,1855],"xSR":741.5,"ySR":501.15000000000003,"xT1":424.9,"yT1":0,"xT2":1058.1,"yT2":0,"toosoon":0,"cond_shown":"Incongruent","ratio_trial":200,"L_num":7,"L_den":15,"R_num":6,"R_den":9,"correct_side":2,"subjID":"AlejandraRivera","gender":"1","school":"6","age":"11"},{"start_time":1551794366704,"click_time":1551794369387,"finger_time":1551794368387,"fix_duration":736.635923176505,"trial":12,"RT":1683,"MT":1000,"sideResp":2,"stimulus":[],"xmouse":[789,789,789,789,789,788,788,788,788,788,788,788,788,788,788,788,788,788,788,788,788,788,788,788,788,788,788,788,788,788,788,788,788,788,788,788,788,788,788,788,788,788,788,788,788,788,788,788,788,788,788,788,788,788,788,788,788,788,788,788,788,788,788,788,788,788,788,788,788,788,788,788,788,788,788,788,788,788,788,788,788,788,787,780,750,723,634,617,602,599,599,599,574,572,567,561,555,554,552,551,550,550,550,550,550,550,549,549,549,549,549,549,553,562,577,591,629,672,706,725,732,743,752,762,778,797,875,931,978,1009,1036,1077,1096,1109,1117],"ymouse":[553,553,553,551,550,550,550,550,550,550,550,549,549,549,549,549,549,549,549,549,549,549,549,549,549,549,549,549,549,549,549,549,549,549,549,549,549,549,549,549,549,549,549,549,549,549,549,549,549,549,549,549,549,549,549,549,549,549,549,549,549,549,549,549,549,549,549,549,549,549,549,549,549,549,549,549,549,549,549,549,549,549,548,533,490,446,316,287,257,251,251,251,190,186,178,165,155,153,150,149,148,148,148,148,148,148,147,147,147,147,147,151,164,180,197,220,261,294,311,322,325,325,325,325,316,301,255,228,198,175,158,130,115,102,94],"timestamp_mouse":[13,25,48,63,84,105,123,143,163,183,203,223,244,263,283,304,323,343,363,383,403,424,444,464,484,503,523,544,563,583,603,625,645,664,683,703,724,743,764,783,803,824,843,864,883,903,923,943,964,983,1010,1023,1043,1063,1083,1103,1123,1143,1163,1183,1203,1223,1243,1264,1283,1303,1323,1343,1364,1383,1403,1423,1444,1463,1483,1503,1523,1544,1564,1584,1603,1624,1643,1664,1683,1703,1723,1748,1772,1788,1803,1823,1843,1864,1883,1903,1923,1944,1964,1983,2004,2025,2043,2063,2084,2103,2123,2144,2163,2183,2204,2223,2244,2264,2283,2304,2324,2344,2364,2383,2403,2423,2444,2464,2483,2503,2524,2543,2564,2585,2604,2623,2643,2664,2683],"xSR":741.5,"ySR":501.15000000000003,"xT1":424.9,"yT1":0,"xT2":1058.1,"yT2":0,"toosoon":0,"cond_shown":"Congruent","ratio_trial":100,"L_num":11,"L_den":22,"R_num":4,"R_den":10,"correct_side":1,"subjID":"AlejandraRivera","gender":"1","school":"6","age":"11"},{"start_time":1551794371396,"click_time":1551794375129,"finger_time":1551794373628,"fix_duration":547.4438172394755,"trial":13,"RT":2232,"MT":1501,"sideResp":1,"stimulus":[],"xmouse":[768,772,773,773,773,773,773,773,773,773,773,773,773,774,774,774,774,774,774,774,774,774,774,774,774,774,774,774,774,774,774,774,774,774,774,774,774,774,774,774,774,774,774,774,774,774,774,774,774,774,774,774,774,774,774,774,774,774,774,774,774,774,774,774,774,774,774,774,774,774,774,774,774,774,774,774,774,774,774,774,773,771,770,770,770,770,770,770,770,770,770,770,770,770,777,779,793,795,796,797,797,797,798,798,798,798,799,804,809,817,834,859,888,913,933,955,980,989,1007,1024,1039,1069,1092,1110,1132,1159,1179,1179,1179,1179,1179,1179,1179,1179,1179,1179,1179,1179,1179,1179,1179,1179,1179,1179,1179,1179,1179,1179,1179,1179,1179,1179,1179,1179,1179,1179,1179,1179,1179,1179,1179,1179,1179,1179,1179,1179,1179,1179,1179,1179,1179,1179,1179,1179,1179,1179,1179,1179,1179,1179,1179,1179,1179,1179,1179,540,521],"ymouse":[567,564,563,563,563,563,563,563,563,563,563,563,563,562,562,562,562,562,562,562,562,562,562,562,562,562,562,562,562,562,562,562,562,562,562,562,562,562,562,562,562,562,562,562,562,562,562,562,562,562,562,562,562,562,562,562,562,562,562,562,562,562,562,562,562,562,562,562,562,562,562,562,562,562,562,562,562,562,562,562,559,556,554,554,554,554,554,554,554,554,554,554,554,554,558,559,568,570,571,571,571,571,572,572,572,572,571,567,561,552,522,493,461,440,420,397,372,363,343,322,307,259,224,176,136,82,5,5,5,5,5,5,5,5,5,5,5,5,5,5,5,5,5,5,5,5,5,5,5,5,5,5,5,5,5,5,5,5,5,5,5,5,5,5,5,5,5,5,5,5,5,5,5,5,5,5,5,5,5,5,5,5,5,5,5,1,6],"timestamp_mouse":[11,32,60,71,91,111,131,151,171,192,212,231,251,271,291,311,331,351,371,392,411,432,451,471,491,512,531,551,571,591,611,631,651,671,691,712,732,751,771,792,811,831,851,871,892,911,931,952,971,991,1011,1031,1051,1071,1092,1112,1132,1151,1171,1191,1213,1231,1251,1271,1293,1312,1331,1351,1371,1391,1411,1432,1452,1471,1491,1511,1531,1551,1572,1591,1612,1631,1653,1671,1691,1711,1731,1752,1771,1791,1811,1831,1852,1871,1891,1911,1931,1951,1972,1991,2012,2032,2051,2071,2092,2111,2131,2151,2171,2191,2213,2232,2256,2273,2292,2311,2331,2351,2372,2392,2411,2431,2452,2472,2492,2511,2531,2552,2571,2591,2611,2631,2651,2672,2691,2712,2731,2752,2773,2792,2812,2833,2852,2872,2892,2911,2931,2951,2973,2993,3011,3032,3051,3071,3091,3112,3131,3152,3173,3191,3211,3231,3252,3272,3291,3312,3331,3352,3372,3392,3412,3432,3452,3471,3492,3511,3531,3551,3571,3591,3612,3631,3651,3672,3692,3712,3733],"xSR":741.5,"ySR":501.15000000000003,"xT1":424.9,"yT1":0,"xT2":1058.1,"yT2":0,"toosoon":0,"cond_shown":"Incongruent","ratio_trial":300,"L_num":2,"L_den":4,"R_num":6,"R_den":30,"correct_side":1,"subjID":"AlejandraRivera","gender":"1","school":"6","age":"11"},{"start_time":1551794377059,"click_time":1551794379487,"finger_time":1551794379089,"fix_duration":1130.9015540244927,"trial":14,"RT":2030,"MT":398,"sideResp":2,"stimulus":[],"xmouse":[813,813,813,813,813,813,813,813,813,813,813,813,813,813,813,813,813,813,813,813,813,813,813,813,813,813,813,813,813,813,813,813,813,813,813,813,813,813,813,813,813,813,813,813,813,813,813,813,813,813,813,813,813,813,813,813,813,813,813,813,813,813,813,813,813,813,813,813,813,813,813,813,813,813,813,813,813,813,813,813,813,813,813,813,813,813,813,813,813,813,813,813,813,813,813,813,813,813,813,813,832,864,908,957,957,1008,1042,1042,1059,1077,1078,1080,1080,1070,1062,1057,1053,1051,1050,1055,1062,1073],"ymouse":[546,546,546,546,546,546,546,546,546,546,546,546,546,546,546,546,546,546,546,546,546,546,546,546,546,546,546,546,546,546,546,546,546,546,546,546,546,546,546,546,546,546,546,546,546,546,546,546,546,546,546,546,546,546,546,546,546,546,546,546,546,546,546,546,546,546,546,546,546,546,546,546,546,546,546,546,546,546,546,546,546,546,546,546,546,546,546,546,546,546,546,546,546,546,546,546,546,546,546,546,540,524,505,479,479,438,405,405,378,322,291,249,238,201,183,168,155,144,121,112,102,96],"timestamp_mouse":[12,28,52,68,88,109,128,148,168,188,208,229,249,269,290,309,328,349,368,388,408,428,456,468,488,508,530,549,569,588,610,628,648,668,689,709,728,748,769,788,808,828,848,868,888,909,928,949,968,988,1009,1028,1049,1068,1088,1108,1128,1149,1168,1189,1209,1228,1249,1269,1288,1308,1328,1349,1368,1388,1408,1428,1449,1468,1488,1508,1528,1549,1568,1588,1608,1628,1649,1669,1690,1709,1728,1748,1768,1788,1808,1828,1848,1868,1888,1908,1928,1949,1970,1989,2009,2030,2050,2075,2089,2108,2133,2149,2169,2189,2208,2230,2248,2269,2290,2310,2329,2348,2369,2388,2409,2428],"xSR":741.5,"ySR":501.15000000000003,"xT1":424.9,"yT1":0,"xT2":1058.1,"yT2":0,"toosoon":0,"cond_shown":"Incongruent","ratio_trial":200,"L_num":3,"L_den":10,"R_num":1,"R_den":2,"correct_side":2,"subjID":"AlejandraRivera","gender":"1","school":"6","age":"11"},{"start_time":1551794383607,"click_time":1551794386329,"finger_time":1551794385847,"fix_duration":1098.259733029481,"trial":15,"RT":2240,"MT":482,"sideResp":2,"stimulus":[],"xmouse":[781,781,781,781,781,781,781,781,781,781,781,781,781,781,781,781,781,781,781,781,781,781,781,781,781,781,781,781,781,781,781,781,781,781,781,781,781,781,781,781,781,781,781,781,781,781,781,781,781,781,781,781,781,781,781,781,781,781,781,781,781,781,781,781,781,781,781,781,781,781,781,781,781,781,781,781,781,781,781,781,781,781,781,781,781,781,781,781,781,781,781,781,781,781,781,781,781,781,781,781,781,781,781,781,781,781,781,781,784,792,803,825,835,848,856,868,881,906,926,931,954,984,996,997,997,994,989,989,988,988,987,994,1014,1037,1058,1071,1089],"ymouse":[550,550,550,550,550,550,550,550,550,550,550,550,550,550,550,550,550,550,550,550,550,550,550,550,550,550,550,550,550,550,550,550,550,550,550,550,550,550,550,550,550,550,550,550,550,550,550,550,550,550,550,550,550,550,550,550,550,550,550,550,550,550,550,550,550,550,550,550,550,550,550,550,550,550,550,550,550,550,550,550,550,550,550,550,550,550,550,550,550,550,550,550,550,550,550,550,550,550,550,550,550,550,550,550,550,550,550,547,543,536,527,508,498,484,474,463,449,425,405,398,358,292,255,233,222,212,200,198,193,188,181,160,138,124,113,105,89],"timestamp_mouse":[13,20,57,60,82,101,120,140,160,180,200,220,240,260,280,301,321,340,360,380,401,420,440,461,480,500,521,540,561,580,600,620,641,660,681,700,720,741,760,780,800,820,840,861,881,901,921,941,960,980,1009,1020,1040,1060,1081,1102,1120,1141,1161,1181,1201,1221,1240,1260,1280,1301,1320,1341,1361,1380,1400,1420,1440,1460,1481,1500,1521,1540,1560,1580,1600,1621,1640,1660,1680,1700,1720,1740,1761,1780,1800,1821,1841,1860,1880,1901,1922,1941,1960,1981,2000,2020,2040,2060,2080,2100,2120,2140,2161,2180,2200,2220,2240,2261,2281,2301,2321,2344,2361,2380,2400,2421,2441,2460,2480,2500,2520,2541,2561,2581,2600,2620,2641,2661,2682,2700,2722],"xSR":741.5,"ySR":501.15000000000003,"xT1":424.9,"yT1":0,"xT2":1058.1,"yT2":0,"toosoon":0,"cond_shown":"Congruent","ratio_trial":200,"L_num":11,"L_den":22,"R_num":3,"R_den":10,"correct_side":1,"subjID":"AlejandraRivera","gender":"1","school":"6","age":"11"},{"start_time":1551794388552,"click_time":1551794391039,"finger_time":1551794390827,"fix_duration":724.0407179494754,"trial":16,"RT":2275,"MT":212,"sideResp":1,"stimulus":[],"xmouse":[798,798,798,798,798,798,798,798,798,798,798,798,798,798,798,798,798,798,798,798,798,798,798,798,798,798,798,798,798,798,798,798,798,798,798,798,798,798,798,798,798,798,798,798,798,798,798,798,798,798,798,798,798,798,798,798,798,798,798,798,798,798,798,798,798,798,798,798,798,798,798,798,798,798,798,798,798,798,798,798,798,798,798,798,798,798,798,798,798,798,798,798,798,798,798,798,798,798,798,798,798,798,798,798,798,798,798,798,798,798,798,796,745,681,601,567,528,516,504,497,492,479,474],"ymouse":[538,538,538,538,538,538,538,538,538,538,538,538,538,538,538,538,538,538,538,538,538,538,538,538,538,538,538,538,538,538,538,538,538,538,538,538,538,538,538,538,538,538,538,538,538,538,538,538,538,538,538,538,538,538,538,538,538,538,538,538,538,538,538,538,538,538,538,538,538,538,538,538,538,538,538,538,538,538,538,538,538,538,538,538,538,538,538,538,538,538,538,538,538,538,538,538,538,538,538,538,538,538,538,538,538,538,538,538,538,538,538,538,495,446,365,325,261,231,204,181,159,112,95],"timestamp_mouse":[16,58,76,95,117,136,156,175,195,216,236,255,275,297,315,335,355,375,395,415,435,455,475,495,515,535,555,575,595,615,635,655,675,695,715,736,755,775,796,815,835,856,875,895,917,935,955,975,995,1015,1035,1056,1075,1095,1115,1135,1155,1175,1195,1215,1236,1255,1275,1295,1315,1335,1356,1377,1395,1415,1435,1455,1475,1496,1515,1535,1556,1575,1595,1615,1635,1655,1675,1695,1716,1735,1755,1775,1796,1815,1836,1856,1876,1895,1915,1935,1955,1975,1995,2015,2035,2056,2075,2095,2115,2135,2155,2175,2195,2216,2235,2256,2275,2299,2316,2335,2357,2378,2395,2415,2435,2457,2487],"xSR":741.5,"ySR":501.15000000000003,"xT1":424.9,"yT1":0,"xT2":1058.1,"yT2":0,"toosoon":0,"cond_shown":"Incongruent","ratio_trial":200,"L_num":4,"L_den":5,"R_num":6,"R_den":10,"correct_side":1,"subjID":"AlejandraRivera","gender":"1","school":"6","age":"11"},{"start_time":1551794393030,"click_time":1551794395228,"finger_time":1551794394747,"fix_duration":1002.2741714056709,"trial":17,"RT":1717,"MT":481,"sideResp":2,"stimulus":[],"xmouse":[778,778,778,778,778,778,778,778,778,778,778,778,778,778,778,778,778,778,778,778,778,778,778,778,778,778,778,778,778,778,778,778,778,778,778,778,778,778,778,778,778,778,778,778,778,778,778,778,778,778,778,778,778,778,778,778,778,778,778,778,778,778,778,778,778,778,778,778,778,778,778,778,778,778,778,778,778,778,778,778,778,779,786,804,821,877,902,921,935,943,951,956,963,981,987,992,998,1002,1014,1026,1028,1029,1030,1033,1037,1041,1044,1051,1059],"ymouse":[546,546,546,546,546,546,546,546,546,546,546,546,546,546,546,546,546,546,546,546,546,546,546,546,546,546,546,546,546,546,546,546,546,546,546,546,546,546,546,546,546,546,546,546,546,546,546,546,546,546,546,546,546,546,546,546,546,546,546,546,546,546,546,546,546,546,546,546,546,546,546,546,546,546,546,546,546,546,546,546,546,546,542,522,499,430,403,378,351,333,313,292,270,207,185,169,151,136,111,100,97,96,96,94,94,93,93,91,88],"timestamp_mouse":[17,58,77,97,118,139,157,177,197,218,238,257,278,297,317,337,359,378,397,417,437,457,478,498,518,537,557,577,597,617,638,657,678,697,718,737,758,777,797,817,837,857,879,897,917,937,957,977,998,1017,1037,1057,1077,1098,1117,1137,1158,1177,1198,1217,1237,1257,1277,1297,1317,1337,1357,1377,1397,1417,1437,1457,1477,1497,1517,1537,1557,1577,1597,1617,1638,1657,1678,1697,1717,1737,1757,1779,1798,1817,1837,1857,1877,1897,1917,1937,1957,1977,1997,2018,2037,2057,2077,2097,2117,2139,2158,2178,2198],"xSR":741.5,"ySR":501.15000000000003,"xT1":424.9,"yT1":0,"xT2":1058.1,"yT2":0,"toosoon":0,"cond_shown":"Congruent","ratio_trial":100,"L_num":2,"L_den":5,"R_num":11,"R_den":22,"correct_side":2,"subjID":"AlejandraRivera","gender":"1","school":"6","age":"11"},{"start_time":1551794396356,"click_time":1551794399088,"finger_time":1551794398927,"fix_duration":268.39091764326673,"trial":18,"RT":2571,"MT":161,"sideResp":1,"stimulus":[],"xmouse":[753,753,753,753,753,753,753,753,753,753,753,753,753,753,755,758,760,761,763,763,763,763,763,763,763,763,763,763,763,763,763,763,763,763,763,763,763,763,763,763,763,763,763,763,763,763,763,763,763,763,763,763,763,763,763,763,763,763,763,763,763,763,763,763,763,763,763,763,763,763,763,763,763,763,763,763,763,763,763,763,763,763,763,763,763,763,763,763,763,763,763,763,763,763,763,763,763,763,763,763,763,763,763,763,763,763,763,763,763,763,763,763,763,763,763,763,763,763,764,765,770,771,773,773,773,773,773,732,684,616,553,525,510,504,503,499],"ymouse":[571,571,571,571,571,571,571,571,571,571,571,571,571,572,570,568,567,566,565,565,565,565,565,565,565,565,565,565,565,565,565,565,565,565,565,565,565,565,565,565,565,565,565,565,565,565,565,565,565,565,565,565,565,565,565,565,565,565,565,565,565,565,565,565,565,565,565,565,565,565,565,565,565,565,565,565,565,565,565,565,565,565,565,565,565,565,565,565,565,565,565,565,565,565,565,565,565,565,565,565,565,565,565,565,565,565,565,565,565,565,565,565,565,565,565,565,565,565,564,564,558,556,555,555,555,555,553,479,401,311,228,183,138,119,115,98],"timestamp_mouse":[13,58,72,92,112,132,152,171,191,212,231,251,271,291,312,331,351,371,391,412,432,451,471,492,511,531,552,571,592,612,632,651,671,691,711,731,751,771,791,811,831,852,871,892,912,932,951,971,992,1012,1032,1052,1071,1092,1111,1131,1151,1171,1192,1211,1232,1251,1271,1292,1311,1331,1351,1372,1392,1411,1432,1452,1472,1492,1511,1531,1551,1572,1591,1611,1631,1651,1671,1691,1711,1732,1751,1771,1791,1811,1833,1851,1871,1891,1912,1931,1951,1971,1991,2011,2031,2051,2071,2091,2111,2131,2152,2172,2191,2211,2231,2252,2272,2291,2311,2331,2351,2371,2391,2412,2431,2451,2471,2492,2511,2531,2551,2571,2594,2612,2631,2651,2672,2691,2712,2732],"xSR":741.5,"ySR":501.15000000000003,"xT1":424.9,"yT1":0,"xT2":1058.1,"yT2":0,"toosoon":0,"cond_shown":"Incongruent","ratio_trial":100,"L_num":3,"L_den":6,"R_num":4,"R_den":10,"correct_side":1,"subjID":"AlejandraRivera","gender":"1","school":"6","age":"11"},{"start_time":1551794400279,"click_time":1551794402327,"finger_time":1551794401927,"fix_duration":250,"trial":19,"RT":1648,"MT":400,"sideResp":2,"stimulus":[],"xmouse":[793,793,793,793,793,793,793,793,793,793,793,793,793,793,793,793,793,793,793,793,793,793,793,793,793,793,793,793,793,793,793,793,793,793,793,793,793,793,793,793,793,793,793,793,793,793,793,793,793,793,793,793,793,793,793,793,793,793,793,793,793,793,793,793,793,793,793,793,793,793,793,793,793,793,793,793,793,793,793,793,793,801,842,877,916,926,926,978,1000,1013,1031,1050,1058,1065,1072,1080,1090,1093,1095,1098,1100,1103,1105],"ymouse":[525,525,525,525,525,525,525,525,525,525,525,525,525,525,525,525,525,525,525,525,525,525,525,525,525,525,525,525,525,525,525,525,525,525,525,525,525,525,525,525,525,525,525,525,525,525,525,525,525,525,525,525,525,525,525,525,525,525,525,525,525,525,525,525,525,525,525,525,525,525,525,525,525,525,525,525,525,525,525,525,525,513,461,423,366,352,352,281,253,238,216,191,180,168,157,143,129,123,118,111,105,100,94],"timestamp_mouse":[14,42,48,68,89,108,129,149,168,189,208,230,248,268,288,308,329,348,368,390,408,429,448,469,488,508,528,549,568,589,608,628,648,669,688,709,728,748,769,789,808,829,848,868,888,908,930,948,969,988,1008,1028,1048,1070,1089,1108,1128,1148,1169,1188,1208,1229,1249,1269,1288,1308,1329,1348,1368,1388,1408,1428,1448,1470,1489,1509,1528,1549,1568,1588,1608,1628,1648,1671,1693,1709,1728,1748,1769,1788,1808,1828,1849,1868,1888,1908,1928,1950,1968,1988,2008,2028,2048],"xSR":741.5,"ySR":501.15000000000003,"xT1":424.9,"yT1":0,"xT2":1058.1,"yT2":0,"toosoon":0,"cond_shown":"Incongruent","ratio_trial":200,"L_num":7,"L_den":15,"R_num":6,"R_den":9,"correct_side":2,"subjID":"AlejandraRivera","gender":"1","school":"6","age":"11"},{"start_time":1551794404033,"click_time":1551794406748,"finger_time":1551794406268,"fix_duration":542.3091258052724,"trial":20,"RT":2235,"MT":480,"sideResp":1,"stimulus":[],"xmouse":[801,801,801,801,801,801,801,801,801,801,801,801,801,801,801,801,801,801,801,801,801,801,801,801,801,801,801,801,801,801,801,801,801,801,801,801,801,801,801,801,801,801,801,801,801,801,801,801,801,801,801,801,801,801,801,801,801,801,801,801,801,801,801,801,801,801,801,801,801,801,801,801,801,801,801,801,801,801,801,801,801,801,801,801,801,801,801,801,801,801,801,801,801,801,801,801,801,801,801,801,801,801,801,801,801,801,801,801,801,801,801,782,763,721,704,688,671,653,645,626,621,607,592,571,560,554,546,536,519,515,511,509,509,509,502,495],"ymouse":[521,521,521,521,521,521,521,521,521,521,521,521,521,521,521,521,521,521,521,521,521,521,521,521,521,521,521,521,521,521,521,521,521,521,521,521,521,521,521,521,521,521,521,521,521,521,521,521,521,521,521,521,521,521,521,521,521,521,521,521,521,521,521,521,521,521,521,521,521,521,521,521,521,521,521,521,521,521,521,521,521,521,521,521,521,521,521,521,521,521,521,521,521,521,521,521,521,521,521,521,521,521,521,521,521,521,521,521,521,521,521,498,470,423,407,385,358,334,321,280,268,243,220,185,169,158,146,133,114,111,108,106,106,106,101,97],"timestamp_mouse":[15,47,55,75,95,114,135,154,174,195,214,234,254,274,294,314,334,355,374,394,414,434,454,474,495,514,534,555,574,594,614,634,655,675,695,714,734,754,774,794,814,835,855,874,894,914,935,955,974,994,1015,1034,1054,1075,1094,1114,1135,1154,1174,1194,1214,1234,1254,1274,1295,1315,1335,1354,1374,1394,1414,1434,1454,1474,1494,1514,1534,1554,1574,1594,1614,1635,1655,1674,1695,1714,1734,1754,1775,1795,1814,1835,1855,1876,1894,1914,1935,1955,1975,1994,2014,2034,2054,2075,2095,2114,2135,2154,2174,2194,2215,2235,2254,2274,2294,2314,2335,2354,2376,2394,2415,2434,2455,2474,2496,2514,2534,2554,2574,2595,2615,2635,2654,2674,2694,2715],"xSR":741.5,"ySR":501.15000000000003,"xT1":424.9,"yT1":0,"xT2":1058.1,"yT2":0,"toosoon":0,"cond_shown":"Congruent","ratio_trial":200,"L_num":14,"L_den":28,"R_num":6,"R_den":20,"correct_side":1,"subjID":"AlejandraRivera","gender":"1","school":"6","age":"11"},{"start_time":1551794408815,"click_time":1551794411007,"finger_time":1551794410647,"fix_duration":346.416662699434,"trial":21,"RT":1832,"MT":360,"sideResp":2,"stimulus":[],"xmouse":[821,821,821,821,821,821,821,821,821,821,821,821,821,821,821,821,821,821,821,821,821,821,821,821,821,821,821,821,821,821,821,821,821,821,821,821,821,821,821,821,821,821,821,821,821,821,821,821,821,821,821,821,821,821,821,821,821,821,821,821,821,821,820,819,799,788,777,774,774,771,769,769,769,769,769,769,769,769,769,769,769,769,769,769,769,769,769,769,769,769,769,771,792,834,850,901,902,926,936,956,969,980,1003,1019,1042,1050,1057,1065,1073,1106],"ymouse":[549,549,549,549,549,549,549,549,549,549,549,549,549,549,549,549,549,549,549,549,549,549,549,549,549,549,549,549,549,549,549,549,549,549,549,549,549,549,549,549,549,549,549,549,549,549,549,549,549,549,549,549,549,549,549,549,549,549,549,549,549,550,550,550,540,528,516,513,512,508,502,502,502,502,502,502,502,502,502,502,502,502,502,502,502,502,502,502,502,502,502,501,498,483,467,409,409,367,350,322,298,281,249,228,195,183,170,154,138,93],"timestamp_mouse":[12,39,53,72,92,112,132,152,173,193,212,232,252,272,292,312,332,352,372,392,414,432,452,472,493,514,532,552,572,593,612,633,652,672,692,713,732,753,772,793,813,832,853,874,893,912,932,953,973,994,1014,1034,1052,1072,1092,1112,1132,1153,1172,1192,1212,1233,1253,1273,1292,1313,1332,1353,1373,1392,1412,1432,1453,1472,1492,1513,1532,1553,1572,1592,1613,1632,1652,1672,1692,1712,1733,1754,1773,1793,1814,1832,1852,1872,1892,1912,1932,1953,1972,1993,2012,2032,2052,2072,2092,2112,2133,2153,2173,2192],"xSR":741.5,"ySR":501.15000000000003,"xT1":424.9,"yT1":0,"xT2":1058.1,"yT2":0,"toosoon":0,"cond_shown":"Congruent","ratio_trial":200,"L_num":7,"L_den":15,"R_num":18,"R_den":27,"correct_side":2,"subjID":"AlejandraRivera","gender":"1","school":"6","age":"11"},{"start_time":1551794414099,"click_time":1551794417248,"finger_time":1551794416827,"fix_duration":1389.0353217352247,"trial":22,"RT":2728,"MT":421,"sideResp":2,"stimulus":[],"xmouse":[792,792,792,792,792,792,792,792,792,792,792,792,792,792,792,792,792,792,792,792,792,792,792,792,792,792,792,792,792,792,792,792,792,792,792,792,792,792,792,792,792,792,792,792,792,792,792,792,792,792,792,792,792,792,792,792,792,792,792,792,792,792,792,792,792,792,792,792,792,792,792,792,792,792,792,792,792,792,792,792,792,792,792,792,792,792,792,792,792,792,792,792,792,792,792,792,792,792,792,792,792,792,792,792,792,792,792,792,792,792,792,792,792,792,792,792,792,792,792,792,792,792,792,792,792,792,792,792,792,792,792,792,792,792,792,791,839,873,914,990,1034,1125,1175,1197,1209,1225,1232,1237,1240,1242,1237,1228,1218,1201,1193,1170,1161,1155],"ymouse":[539,539,539,539,539,539,539,539,539,539,539,539,539,539,539,539,539,539,539,539,539,539,539,539,539,539,539,539,539,539,539,539,539,539,539,539,539,539,539,539,539,539,539,539,539,539,539,539,539,539,539,539,539,539,539,539,539,539,539,539,539,539,539,539,539,539,539,539,539,539,539,539,539,539,539,539,539,539,539,539,539,539,539,539,539,539,539,539,539,539,539,539,539,539,539,539,539,539,539,539,539,539,539,539,539,539,539,539,539,539,539,539,539,539,539,539,539,539,539,539,539,539,539,539,539,539,539,539,539,539,539,539,539,539,539,539,494,465,431,379,348,280,236,219,206,180,170,157,141,130,114,104,97,88,86,77,74,72],"timestamp_mouse":[11,28,48,68,88,109,128,148,169,188,208,228,250,269,289,308,328,349,368,389,408,428,449,468,488,508,528,548,568,588,608,628,648,668,688,708,728,748,768,788,808,828,849,869,889,908,929,948,968,988,1008,1029,1048,1068,1088,1108,1128,1148,1168,1189,1209,1229,1248,1268,1289,1308,1328,1348,1370,1388,1408,1429,1448,1468,1490,1509,1528,1549,1569,1588,1608,1628,1648,1669,1688,1709,1729,1748,1769,1788,1808,1828,1848,1868,1888,1909,1929,1949,1969,1988,2009,2028,2048,2068,2088,2109,2129,2148,2168,2189,2209,2228,2248,2269,2289,2309,2329,2350,2368,2388,2408,2429,2449,2468,2488,2510,2528,2548,2569,2590,2609,2628,2648,2668,2688,2708,2728,2750,2768,2788,2808,2829,2849,2868,2890,2908,2929,2948,2969,2989,3007,3028,3049,3068,3088,3107,3128,3149],"xSR":741.5,"ySR":501.15000000000003,"xT1":424.9,"yT1":0,"xT2":1058.1,"yT2":0,"toosoon":0,"cond_shown":"Congruent","ratio_trial":100,"L_num":2,"L_den":5,"R_num":11,"R_den":22,"correct_side":2,"subjID":"AlejandraRivera","gender":"1","school":"6","age":"11"},{"start_time":1551794418558,"click_time":1551794420106,"finger_time":1551794419947,"fix_duration":250,"trial":23,"RT":1389,"MT":159,"sideResp":1,"stimulus":[],"xmouse":[805,805,805,805,805,805,805,805,805,805,805,805,805,805,805,805,805,805,805,805,805,805,805,805,805,805,805,805,805,805,805,805,805,805,805,805,805,805,805,805,805,805,805,805,805,805,805,805,805,805,805,805,805,805,805,805,805,804,804,804,804,804,804,804,804,804,796,773,722,652,587,524,516,514,512,509,503],"ymouse":[549,549,549,549,549,549,549,549,549,549,549,549,549,549,549,549,549,549,549,549,549,549,549,549,549,549,549,549,549,549,549,549,549,549,549,549,549,549,549,549,549,549,549,549,549,549,549,549,549,549,549,549,549,549,549,549,549,550,550,550,550,550,550,550,550,550,544,502,417,306,214,128,117,113,108,100,89],"timestamp_mouse":[15,56,69,89,109,129,148,169,188,209,228,248,269,289,308,329,349,369,389,409,429,449,469,488,508,530,549,569,588,609,629,649,669,689,710,730,748,769,789,808,828,849,869,890,908,928,948,969,990,1009,1029,1049,1069,1090,1109,1129,1149,1168,1189,1210,1228,1248,1269,1290,1309,1328,1349,1369,1389,1410,1429,1449,1470,1488,1508,1529,1548],"xSR":741.5,"ySR":501.15000000000003,"xT1":424.9,"yT1":0,"xT2":1058.1,"yT2":0,"toosoon":0,"cond_shown":"Congruent","ratio_trial":200,"L_num":6,"L_den":15,"R_num":3,"R_den":15,"correct_side":1,"subjID":"AlejandraRivera","gender":"1","school":"6","age":"11"},{"start_time":1551794422519,"click_time":1551794424708,"finger_time":1551794424267,"fix_duration":1390.357027077706,"trial":24,"RT":1748,"MT":441,"sideResp":1,"stimulus":[],"xmouse":[827,827,827,827,827,827,827,827,827,827,827,827,827,827,827,827,827,827,827,827,827,827,827,827,827,827,827,827,827,827,827,827,827,827,827,827,827,827,827,827,827,827,827,827,827,827,827,827,827,827,827,827,827,827,827,827,827,827,827,827,827,827,827,827,827,827,827,827,827,827,827,827,827,827,827,827,827,827,827,827,827,827,827,827,825,813,770,709,548,498,459,424,389,389,389,389,389,389,389,389,389,389,389,389,389,389,389,389,432],"ymouse":[566,566,566,566,566,566,566,566,566,566,566,566,566,566,566,566,566,566,566,566,566,566,566,566,566,566,566,566,566,566,566,566,566,566,566,566,566,566,566,566,566,566,566,566,566,566,566,566,566,566,566,566,566,566,566,566,566,566,566,566,566,566,566,566,566,566,566,566,566,566,566,566,566,566,566,566,566,566,566,566,566,566,565,564,561,551,493,415,236,170,115,66,11,11,11,11,11,11,11,11,11,11,11,11,11,11,11,11,22],"timestamp_mouse":[12,59,67,88,108,128,147,168,188,208,228,248,268,288,308,327,347,368,388,407,428,448,468,488,507,528,549,568,588,607,628,648,668,688,707,727,747,768,789,808,827,847,868,887,907,927,948,967,988,1008,1027,1047,1068,1088,1108,1128,1147,1167,1188,1208,1227,1247,1267,1288,1307,1327,1349,1368,1388,1408,1427,1447,1467,1489,1508,1528,1548,1568,1588,1607,1627,1647,1668,1688,1707,1728,1748,1768,1788,1808,1828,1848,1868,1888,1909,1928,1949,1968,1988,2007,2027,2048,2069,2089,2108,2129,2148,2168,2189],"xSR":741.5,"ySR":501.15000000000003,"xT1":424.9,"yT1":0,"xT2":1058.1,"yT2":0,"toosoon":0,"cond_shown":"Congruent","ratio_trial":100,"L_num":11,"L_den":22,"R_num":6,"R_den":15,"correct_side":1,"subjID":"AlejandraRivera","gender":"1","school":"6","age":"11"},{"start_time":1551794426759,"click_time":1551794428647,"finger_time":1551794428326,"fix_duration":1191.116840554929,"trial":25,"RT":1567,"MT":321,"sideResp":2,"stimulus":[],"xmouse":[805,805,805,805,805,805,805,805,805,805,805,805,805,805,805,805,805,805,805,805,805,805,805,805,805,805,805,805,805,805,805,805,805,805,805,805,805,805,805,805,805,805,805,805,805,805,805,805,805,805,805,805,805,805,805,805,805,805,805,805,805,805,805,805,805,805,805,805,805,805,805,805,805,805,805,805,805,805,837,874,909,926,947,957,967,981,999,1020,1045,1050,1053,1055,1058,1078,1087],"ymouse":[522,522,522,522,522,522,522,522,522,522,522,522,522,522,522,522,522,522,522,522,522,522,522,522,522,522,522,522,522,522,522,522,522,522,522,522,522,522,522,522,522,522,522,522,522,522,522,522,522,522,522,522,522,522,522,522,522,522,522,522,522,522,522,522,522,522,522,522,522,522,522,522,522,522,522,522,522,522,461,399,347,320,283,266,248,230,210,185,159,152,148,143,135,108,95],"timestamp_mouse":[12,28,53,68,88,107,129,147,167,188,208,229,247,267,288,308,327,348,368,388,408,428,448,468,489,507,528,549,568,588,608,628,648,667,688,708,727,748,768,788,808,827,849,868,888,908,928,949,968,988,1009,1028,1047,1067,1088,1108,1128,1148,1168,1188,1207,1227,1247,1267,1288,1308,1328,1348,1368,1388,1408,1427,1448,1468,1488,1507,1528,1548,1567,1590,1607,1627,1648,1668,1689,1709,1728,1748,1768,1788,1809,1829,1848,1868,1888],"xSR":741.5,"ySR":501.15000000000003,"xT1":424.9,"yT1":0,"xT2":1058.1,"yT2":0,"toosoon":0,"cond_shown":"Incongruent","ratio_trial":300,"L_num":7,"L_den":10,"R_num":8,"R_den":20,"correct_side":1,"subjID":"AlejandraRivera","gender":"1","school":"6","age":"11"},{"start_time":1551794432287,"click_time":1551794434007,"finger_time":1551794433867,"fix_duration":1379.0269736371479,"trial":26,"RT":1580,"MT":140,"sideResp":1,"stimulus":[],"xmouse":[802,802,802,802,802,802,802,802,802,802,802,802,802,802,802,802,802,802,802,802,802,802,802,802,802,802,802,802,802,802,802,802,802,802,802,802,802,802,802,802,802,802,802,802,802,802,802,802,802,802,802,802,802,802,802,802,802,802,802,802,802,802,802,802,802,802,802,802,802,802,802,802,802,802,802,802,793,773,714,655,527,506,497,493,490,478],"ymouse":[541,541,541,541,541,541,541,541,541,541,541,541,541,541,541,541,541,541,541,541,541,541,541,541,541,541,541,541,541,541,541,541,541,541,541,541,541,541,541,541,541,541,541,541,541,541,541,541,541,541,541,541,541,541,541,541,541,541,541,541,541,541,541,541,541,541,541,541,541,541,541,541,541,541,541,541,533,511,429,355,166,132,116,107,100,73],"timestamp_mouse":[19,51,59,80,100,120,140,159,180,200,220,240,260,279,300,320,340,360,380,400,420,440,460,480,499,519,539,560,579,600,621,641,659,679,701,720,740,760,780,799,820,840,860,879,900,920,940,960,979,1000,1020,1040,1059,1080,1100,1120,1140,1160,1179,1199,1220,1239,1260,1281,1300,1320,1340,1360,1379,1400,1421,1440,1460,1481,1499,1520,1539,1559,1580,1599,1619,1643,1660,1680,1700,1720],"xSR":741.5,"ySR":501.15000000000003,"xT1":424.9,"yT1":0,"xT2":1058.1,"yT2":0,"toosoon":0,"cond_shown":"Congruent","ratio_trial":100,"L_num":11,"L_den":22,"R_num":6,"R_den":15,"correct_side":1,"subjID":"AlejandraRivera","gender":"1","school":"6","age":"11"},{"start_time":1551794435018,"click_time":1551794436507,"finger_time":1551794436206,"fix_duration":250,"trial":27,"RT":1188,"MT":301,"sideResp":1,"stimulus":[],"xmouse":[774,774,774,774,774,774,774,774,774,774,774,774,774,774,774,774,774,774,774,774,774,774,774,774,774,774,774,774,774,774,774,774,774,774,774,774,774,774,774,774,774,774,774,774,774,774,774,774,774,774,774,774,774,774,774,771,767,754,714,694,676,670,660,633,622,608,596,583,564,555,549,541,532,516],"ymouse":[547,547,547,547,547,547,547,547,547,547,547,547,547,547,547,547,547,547,547,547,547,547,547,547,547,547,547,547,547,547,547,547,547,547,547,547,547,547,547,547,547,547,547,547,547,547,547,547,547,547,547,547,547,547,547,544,533,504,435,398,366,357,340,295,275,254,233,213,179,162,149,131,116,88],"timestamp_mouse":[13,48,70,88,109,130,149,168,190,210,228,249,268,289,309,329,348,369,389,410,429,448,469,489,509,529,548,570,589,610,628,649,668,689,710,729,749,768,790,810,828,849,869,889,909,929,950,968,988,1009,1029,1048,1068,1089,1110,1129,1148,1168,1188,1214,1231,1248,1268,1290,1310,1329,1349,1369,1390,1409,1429,1450,1470,1489],"xSR":741.5,"ySR":501.15000000000003,"xT1":424.9,"yT1":0,"xT2":1058.1,"yT2":0,"toosoon":0,"cond_shown":"Congruent","ratio_trial":200,"L_num":8,"L_den":15,"R_num":3,"R_den":9,"correct_side":1,"subjID":"AlejandraRivera","gender":"1","school":"6","age":"11"},{"start_time":1551794438564,"click_time":1551794440106,"finger_time":1551794440066,"fix_duration":1376.4529886140915,"trial":28,"RT":1502,"MT":40,"sideResp":1,"stimulus":[],"xmouse":[780,780,780,780,780,780,780,780,780,780,780,780,780,780,780,780,780,780,780,780,780,780,780,780,780,780,780,780,780,780,780,780,780,780,780,780,780,780,780,780,780,780,780,780,780,780,780,780,780,780,780,780,780,780,780,780,780,780,780,780,780,780,780,780,780,780,780,780,780,780,780,780,780,779,767,716,647,486],"ymouse":[578,578,578,578,578,578,578,578,578,578,578,578,578,578,578,578,578,578,578,578,578,578,578,578,578,578,578,578,578,578,578,578,578,578,578,578,578,578,578,578,578,578,578,578,578,578,578,578,578,578,578,578,578,578,578,578,578,578,578,578,578,578,578,578,578,578,578,578,578,578,578,578,578,569,533,428,318,99],"timestamp_mouse":[12,25,56,62,83,102,122,143,163,182,202,222,243,263,283,304,322,343,363,383,403,422,443,463,483,503,522,542,562,583,602,622,643,663,683,703,723,744,763,783,803,822,843,863,883,902,923,943,963,983,1008,1023,1043,1063,1083,1103,1122,1143,1163,1184,1202,1223,1243,1263,1283,1302,1323,1343,1363,1383,1402,1423,1443,1463,1482,1502,1523,1542],"xSR":741.5,"ySR":501.15000000000003,"xT1":424.9,"yT1":0,"xT2":1058.1,"yT2":0,"toosoon":0,"cond_shown":"Congruent","ratio_trial":100,"L_num":8,"L_den":16,"R_num":2,"R_den":5,"correct_side":1,"subjID":"AlejandraRivera","gender":"1","school":"6","age":"11"},{"start_time":1551794441946,"click_time":1551794444706,"finger_time":1551794444427,"fix_duration":1118.267005336829,"trial":29,"RT":2481,"MT":279,"sideResp":1,"stimulus":[],"xmouse":[802,802,802,802,802,802,802,802,802,802,802,802,802,802,802,802,802,802,802,802,802,802,802,802,802,802,802,802,802,802,802,802,802,802,802,802,802,802,802,802,802,802,802,802,802,802,802,802,802,802,802,802,802,802,802,802,802,802,802,802,802,802,802,802,802,802,802,802,802,802,802,802,802,802,802,802,802,802,802,802,802,802,802,802,802,802,802,802,802,802,802,802,802,802,802,802,802,802,802,802,802,802,802,802,802,802,802,802,802,802,802,802,802,802,802,802,802,802,802,802,802,802,768,740,700,643,625,625,537,526,517,510,501,497,494,488,484,476],"ymouse":[586,586,586,586,586,586,586,586,586,586,586,586,586,586,586,586,586,586,586,586,586,586,586,586,586,586,586,586,586,586,586,586,586,586,586,586,586,586,586,586,586,586,586,586,586,586,586,586,586,586,586,586,586,586,586,586,586,586,586,586,586,586,586,586,586,586,586,586,586,586,586,586,586,586,586,586,586,586,586,586,586,586,586,586,586,586,586,586,585,585,585,585,585,585,585,585,585,585,585,585,585,585,585,585,585,585,585,585,585,585,585,585,585,585,585,585,585,585,585,585,585,584,535,500,452,375,352,352,226,205,186,171,148,140,131,119,110,91],"timestamp_mouse":[14,41,62,81,101,121,140,160,181,201,221,241,261,281,301,321,341,361,381,402,421,441,461,481,501,521,541,560,581,601,621,641,661,681,701,721,740,761,781,800,821,841,861,882,901,922,941,961,981,1001,1022,1040,1062,1081,1100,1120,1141,1161,1181,1201,1221,1241,1261,1280,1300,1321,1340,1360,1381,1401,1421,1440,1460,1481,1500,1520,1540,1560,1580,1600,1620,1641,1661,1681,1702,1722,1742,1761,1780,1800,1820,1841,1860,1881,1901,1921,1941,1960,1980,2001,2021,2041,2060,2080,2102,2121,2141,2160,2180,2201,2221,2241,2261,2282,2302,2321,2341,2361,2381,2401,2421,2441,2461,2481,2502,2523,2540,2560,2581,2601,2621,2641,2660,2680,2700,2720,2740,2760],"xSR":741.5,"ySR":501.15000000000003,"xT1":424.9,"yT1":0,"xT2":1058.1,"yT2":0,"toosoon":0,"cond_shown":"Incongruent","ratio_trial":200,"L_num":4,"L_den":5,"R_num":6,"R_den":10,"correct_side":1,"subjID":"AlejandraRivera","gender":"1","school":"6","age":"11"},{"start_time":1551794445738,"click_time":1551794448647,"finger_time":1551794448507,"fix_duration":250,"trial":30,"RT":2769,"MT":140,"sideResp":1,"stimulus":[],"xmouse":[796,796,796,796,796,796,796,796,796,796,796,796,796,796,796,796,796,796,796,796,796,796,796,796,796,796,796,796,796,796,796,796,796,796,796,796,796,796,796,796,796,796,796,796,796,796,796,796,796,796,796,796,796,796,796,796,796,796,796,796,796,796,796,796,796,796,796,797,797,797,797,797,797,797,797,797,797,797,797,797,797,797,797,797,797,797,797,797,797,797,797,797,797,797,797,797,797,797,797,797,797,797,797,797,797,797,797,797,797,797,797,797,797,797,797,797,797,797,797,797,797,797,797,797,797,797,797,797,797,797,797,797,797,797,797,797,795,720,681,616,598,564,523,512,508],"ymouse":[528,528,528,528,528,528,528,528,528,528,528,528,528,528,528,528,528,528,528,528,528,528,528,528,528,528,528,528,528,528,528,528,528,528,528,528,528,528,528,528,528,528,528,528,528,528,528,528,528,528,528,528,528,528,528,528,528,528,528,529,529,529,529,529,529,529,529,529,529,529,529,529,529,529,529,529,529,529,529,529,529,529,529,529,529,529,529,529,529,529,529,529,529,529,529,529,529,529,529,529,529,529,529,529,529,529,529,529,529,529,529,529,529,529,529,529,529,529,529,529,529,529,529,529,529,529,529,529,529,529,529,529,529,529,529,529,527,395,330,244,219,173,116,101,94],"timestamp_mouse":[12,49,69,89,109,129,149,169,189,209,229,249,269,288,309,329,349,368,389,409,428,449,468,489,508,529,549,569,589,610,629,649,670,688,708,730,749,768,790,809,830,848,868,889,909,929,949,970,989,1009,1030,1049,1068,1090,1109,1129,1149,1169,1190,1209,1230,1250,1269,1289,1309,1329,1350,1369,1389,1408,1429,1449,1469,1488,1508,1528,1549,1569,1588,1610,1629,1649,1669,1689,1708,1728,1748,1768,1788,1809,1830,1849,1869,1888,1908,1929,1949,1969,1989,2009,2029,2049,2068,2090,2109,2129,2149,2169,2189,2208,2229,2248,2269,2289,2309,2329,2348,2368,2388,2408,2429,2448,2469,2489,2509,2529,2549,2569,2589,2608,2629,2648,2669,2689,2708,2729,2750,2769,2793,2814,2829,2849,2868,2888,2909],"xSR":741.5,"ySR":501.15000000000003,"xT1":424.9,"yT1":0,"xT2":1058.1,"yT2":0,"toosoon":0,"cond_shown":"Incongruent","ratio_trial":100,"L_num":3,"L_den":5,"R_num":8,"R_den":16,"correct_side":1,"subjID":"AlejandraRivera","gender":"1","school":"6","age":"11"},{"start_time":1551794450307,"click_time":1551794452707,"finger_time":1551794451887,"fix_duration":979.1219853062449,"trial":31,"RT":1580,"MT":820,"sideResp":1,"stimulus":[],"xmouse":[777,777,777,777,777,777,777,777,777,777,777,777,777,777,777,777,777,777,777,777,777,777,777,777,777,777,777,777,777,777,777,777,777,777,777,777,777,777,777,777,777,777,777,777,777,777,777,777,777,777,777,777,777,777,777,777,777,777,777,777,777,777,777,777,777,777,777,777,777,777,777,777,777,777,777,777,785,800,820,879,894,913,929,929,1019,1034,1042,1045,1045,1045,1045,1045,1045,1045,1045,1045,1045,1045,1045,1032,1011,985,967,953,910,868,820,759,692,640,529,502,486,480,470,468,467,466,464,462],"ymouse":[548,548,548,548,548,548,548,548,548,548,548,548,548,548,548,548,548,548,548,548,548,548,548,548,548,548,548,548,548,548,548,548,548,548,548,548,548,548,548,548,548,548,548,548,548,548,548,548,548,548,548,548,548,548,548,548,548,548,548,548,548,548,548,548,548,548,548,548,548,548,548,548,548,548,548,548,539,525,495,444,430,414,400,400,326,314,306,305,305,305,305,305,305,305,305,305,305,305,305,333,386,429,458,480,520,537,540,538,510,473,328,281,241,215,175,162,152,141,130,96],"timestamp_mouse":[14,44,59,79,100,120,140,160,180,199,220,240,259,280,300,320,340,359,386,399,420,440,460,480,499,520,540,561,580,600,620,639,659,680,7