[{"start_time":1551901926291,"click_time":1551901928334,"finger_time":1551901927873,"fix_duration":291.27701023485463,"trial":0,"RT":1582,"MT":461,"sideResp":2,"stimulus":"img/250/randomdotsizeEA/L/15_Ratio_250_L_12_R_3.png","xmouse":[790,790,790,790,790,790,790,790,790,790,790,790,790,790,790,790,790,790,790,790,790,790,790,790,790,790,790,790,790,790,790,790,790,790,790,790,790,790,790,790,790,790,790,790,790,790,790,790,790,790,790,790,790,790,790,790,790,790,790,790,790,790,790,790,790,790,790,790,790,790,790,790,790,790,790,790,795,802,811,822,832,854,865,875,888,933,949,972,1001,1036,1036,1036,1036,1036,1036,1036,1036,1036,1036,1036,1036,1078],"ymouse":[491,491,491,491,491,491,491,491,491,491,491,491,491,491,491,491,491,491,491,491,491,491,491,491,491,491,491,491,491,491,491,491,491,491,491,491,491,491,491,491,491,491,491,491,491,491,491,491,491,491,491,491,491,491,491,491,491,491,491,491,491,491,491,491,491,491,491,491,491,491,491,491,491,491,491,485,470,455,439,420,400,357,339,320,297,202,162,118,69,11,11,11,11,11,11,11,11,11,11,11,11,3],"timestamp_mouse":[8,45,62,82,102,122,143,162,182,202,223,242,262,282,302,323,343,362,383,402,422,442,462,482,502,522,542,563,583,602,623,643,664,682,702,722,742,763,783,802,824,842,863,883,902,923,943,963,982,1002,1023,1042,1062,1082,1102,1123,1142,1162,1182,1203,1222,1242,1263,1282,1303,1323,1342,1363,1382,1402,1422,1442,1463,1484,1502,1523,1543,1562,1582,1602,1622,1642,1662,1683,1703,1722,1743,1762,1782,1802,1822,1842,1863,1882,1903,1922,1942,1962,1982,2002,2022,2042],"xSR":741.5,"ySR":449.15000000000003,"xT1":424.9,"yT1":0,"xT2":1058.1,"yT2":0,"toosoon":0,"cond_shown":"randomdotsizeEA","ratio_trial":250,"smaller_num":"3","larger_num":"12","correct_side":1,"subjID":"MariaCamilaAlegriaLopez","gender":"1","age":"","school":"6","test":{"fix_dur":[250,1500],"timestim":300,"targets_dim":[100,100],"targets_relative_coord":[0.3,0.7],"size_stim":[880,420],"start_dim":[100,100],"size_start":[300,300],"size_fix":60,"samplingrate":20,"img_types":["equaldotsize","equaldotanddens","randomdotsizeEA"],"ratios":[250,500,750,900],"rep_conds":9,"nTrials":120,"trials_to_rest":500,"Trials_order":[86,52,29,115,46,85,8,27,3,6,7,95,43,9,39,93,34,106,13,53,116,5,33,119,16,59,4,47,58,72,73,19,2,74,21,66,20,25,54,26,57,63,105,22,80,87,98,49,91,79,41,83,40,31,103,55,110,35,64,114,107,0,104,14,113,11,90,71,117,36,48,67,77,92,75,68,97,50,102,23,28,70,108,100,78,17,45,84,69,99,109,62,18,30,111,51,24,32,38,118,42,1,82,10,15,37,112,89,76,101,88,61,81,44,60,56,94,65,96,12],"cond_shown":["randomdotsizeEA","equaldotanddens","randomdotsizeEA","equaldotanddens","equaldotanddens","equaldotanddens","randomdotsizeEA","equaldotsize","equaldotsize","equaldotsize","equaldotanddens","randomdotsizeEA","equaldotanddens","equaldotsize","equaldotsize","equaldotsize","equaldotanddens","equaldotanddens","equaldotanddens","randomdotsizeEA","randomdotsizeEA","randomdotsizeEA","equaldotsize","randomdotsizeEA","equaldotanddens","randomdotsizeEA","equaldotanddens","randomdotsizeEA","equaldotanddens","equaldotsize","equaldotanddens","equaldotanddens","randomdotsizeEA","randomdotsizeEA","equaldotsize","equaldotsize","randomdotsizeEA","equaldotanddens","equaldotsize","randomdotsizeEA","equaldotsize","equaldotsize","equaldotsize","equaldotanddens","randomdotsizeEA","equaldotsize","randomdotsizeEA","equaldotanddens","equaldotanddens","equaldotanddens","randomdotsizeEA","randomdotsizeEA","equaldotanddens","equaldotanddens","equaldotanddens","equaldotanddens","randomdotsizeEA","randomdotsizeEA","equaldotanddens","equaldotsize","randomdotsizeEA","equaldotsize","randomdotsizeEA","randomdotsizeEA","randomdotsizeEA","randomdotsizeEA","equaldotsize","randomdotsizeEA","equaldotsize","equaldotsize","equaldotsize","equaldotanddens","randomdotsizeEA","randomdotsizeEA","equaldotsize","randomdotsizeEA","equaldotanddens","randomdotsizeEA","equaldotsize","randomdotsizeEA","equaldotanddens","equaldotanddens","equaldotsize","equaldotanddens","equaldotsize","randomdotsizeEA","equaldotsize","equaldotsize","equaldotsize","equaldotsize","equaldotanddens","randomdotsizeEA","equaldotsize","equaldotsize","equaldotsize","equaldotsize","equaldotsize","randomdotsizeEA","randomdotsizeEA","equaldotanddens","equaldotsize","equaldotanddens","equaldotanddens","equaldotanddens","equaldotsize","equaldotanddens","equaldotanddens","randomdotsizeEA","equaldotanddens","randomdotsizeEA","equaldotanddens","equaldotanddens","equaldotsize","randomdotsizeEA","equaldotsize","randomdotsizeEA","equaldotanddens","randomdotsizeEA","equaldotsize","equaldotsize"],"ratio_trial":[250,500,500,750,900,250,750,500,500,750,750,900,750,900,500,900,900,900,250,500,750,500,900,900,500,900,500,900,900,250,250,750,250,250,900,750,750,250,750,250,900,500,900,900,750,500,250,250,750,750,500,900,500,750,750,750,250,900,500,750,900,250,750,250,500,900,750,900,900,250,250,750,500,750,500,750,250,250,750,900,500,900,250,500,750,500,900,250,900,500,250,250,750,750,500,500,250,750,250,900,750,250,900,900,500,250,500,500,500,500,500,250,900,750,250,750,900,500,250,250],"smaller_num":["3","9","6","12","9","4","15","2","3","15","3","9","3","18","4","18","9","18","3","3","3","2","9","9","6","9","2","18","9","3","2","15","2","6","18","6","3","2","6","2","9","9","18","18","15","9","2","3","6","15","2","18","2","3","15","15","3","18","5","9","18","3","3","2","2","18","3","9","18","4","2","18","2","6","3","6","6","6","15","18","1","18","3","9","3","9","18","3","18","5","3","2","9","3","1","5","3","6","1","18","6","6","9","18","2","2","9","2","2","1","9","3","18","3","2","6","18","9","3","3"],"larger_num":["12","18","12","16","10","16","20","4","6","20","4","10","4","20","8","20","10","20","12","6","4","4","10","10","12","10","4","20","10","12","8","20","8","24","20","8","4","8","8","8","10","18","20","20","20","18","8","12","8","20","4","20","4","4","20","20","12","20","10","12","20","12","4","8","4","20","4","10","20","16","8","24","4","8","6","8","24","24","20","20","2","20","12","18","4","18","20","12","20","10","12","8","12","4","2","10","12","8","4","20","8","24","10","20","4","8","18","4","4","2","18","12","20","4","8","8","20","18","12","12"],"correct_side":[1,2,1,2,2,1,2,1,2,2,2,2,1,2,1,1,2,2,2,2,1,2,2,2,1,1,2,2,2,2,1,2,1,2,1,1,2,2,1,1,2,1,1,1,1,2,1,1,1,2,2,1,2,2,2,2,2,1,1,2,1,2,1,1,1,1,1,1,2,1,2,1,1,1,2,1,2,1,1,1,2,1,2,1,2,2,1,2,2,1,1,1,2,2,2,2,2,2,2,1,1,2,2,2,2,2,2,2,1,2,2,2,2,1,2,2,1,2,1,2],"img_shown":["img/250/randomdotsizeEA/L/15_Ratio_250_L_12_R_3.png","img/500/equaldotanddens/R/6_Ratio_500_L_9_R_18.png","img/500/randomdotsizeEA/L/13_Ratio_500_L_12_R_6.png","img/750/equaldotanddens/R/11_Ratio_750_L_12_R_16.png","img/900/equaldotanddens/R/5_Ratio_900_L_9_R_10.png","img/250/equaldotanddens/L/2_Ratio_250_L_16_R_4.png","img/750/randomdotsizeEA/R/5_Ratio_750_L_15_R_20.png","img/500/equaldotsize/L/5_Ratio_500_L_4_R_2.png","img/500/equaldotsize/R/2_Ratio_500_L_3_R_6.png","img/750/equaldotsize/R/5_Ratio_750_L_15_R_20.png","img/750/equaldotanddens/R/12_Ratio_750_L_3_R_4.png","img/900/randomdotsizeEA/R/6_Ratio_900_L_9_R_10.png","img/750/equaldotanddens/L/9_Ratio_750_L_4_R_3.png","img/900/equaldotsize/R/9_Ratio_900_L_18_R_20.png","img/500/equaldotsize/L/8_Ratio_500_L_8_R_4.png","img/900/equaldotsize/L/8_Ratio_900_L_20_R_18.png","img/900/equaldotanddens/R/7_Ratio_900_L_9_R_10.png","img/900/equaldotanddens/R/14_Ratio_900_L_18_R_20.png","img/250/equaldotanddens/R/4_Ratio_250_L_3_R_12.png","img/500/randomdotsizeEA/R/2_Ratio_500_L_3_R_6.png","img/750/randomdotsizeEA/L/9_Ratio_750_L_4_R_3.png","img/500/randomdotsizeEA/R/9_Ratio_500_L_2_R_4.png","img/900/equaldotsize/R/7_Ratio_900_L_9_R_10.png","img/900/randomdotsizeEA/R/15_Ratio_900_L_9_R_10.png","img/500/equaldotanddens/L/13_Ratio_500_L_12_R_6.png","img/900/randomdotsizeEA/L/1_Ratio_900_L_10_R_9.png","img/500/equaldotanddens/R/9_Ratio_500_L_2_R_4.png","img/900/randomdotsizeEA/R/9_Ratio_900_L_18_R_20.png","img/900/equaldotanddens/R/7_Ratio_900_L_9_R_10.png","img/250/equaldotsize/R/11_Ratio_250_L_3_R_12.png","img/250/equaldotanddens/L/1_Ratio_250_L_8_R_2.png","img/750/equaldotanddens/R/4_Ratio_750_L_15_R_20.png","img/250/randomdotsizeEA/L/1_Ratio_250_L_8_R_2.png","img/250/randomdotsizeEA/R/6_Ratio_250_L_6_R_24.png","img/900/equaldotsize/L/2_Ratio_900_L_20_R_18.png","img/750/equaldotsize/L/14_Ratio_750_L_8_R_6.png","img/750/randomdotsizeEA/R/12_Ratio_750_L_3_R_4.png","img/250/equaldotanddens/R/13_Ratio_250_L_2_R_8.png","img/750/equaldotsize/L/13_Ratio_750_L_8_R_6.png","img/250/randomdotsizeEA/L/7_Ratio_250_L_8_R_2.png","img/900/equaldotsize/R/7_Ratio_900_L_9_R_10.png","img/500/equaldotsize/L/4_Ratio_500_L_18_R_9.png","img/900/equaldotsize/L/2_Ratio_900_L_20_R_18.png","img/900/equaldotanddens/L/2_Ratio_900_L_20_R_18.png","img/750/randomdotsizeEA/L/1_Ratio_750_L_20_R_15.png","img/500/equaldotsize/R/1_Ratio_500_L_9_R_18.png","img/250/randomdotsizeEA/L/1_Ratio_250_L_8_R_2.png","img/250/equaldotanddens/L/14_Ratio_250_L_12_R_3.png","img/750/equaldotanddens/L/13_Ratio_750_L_8_R_6.png","img/750/equaldotanddens/R/5_Ratio_750_L_15_R_20.png","img/500/randomdotsizeEA/R/9_Ratio_500_L_2_R_4.png","img/900/randomdotsizeEA/L/4_Ratio_900_L_20_R_18.png","img/500/equaldotanddens/R/9_Ratio_500_L_2_R_4.png","img/750/equaldotanddens/R/7_Ratio_750_L_3_R_4.png","img/750/equaldotanddens/R/4_Ratio_750_L_15_R_20.png","img/750/equaldotanddens/R/3_Ratio_750_L_15_R_20.png","img/250/randomdotsizeEA/R/11_Ratio_250_L_3_R_12.png","img/900/randomdotsizeEA/L/2_Ratio_900_L_20_R_18.png","img/500/equaldotanddens/L/7_Ratio_500_L_10_R_5.png","img/750/equaldotsize/R/15_Ratio_750_L_9_R_12.png","img/900/randomdotsizeEA/L/2_Ratio_900_L_20_R_18.png","img/250/equaldotsize/R/4_Ratio_250_L_3_R_12.png","img/750/randomdotsizeEA/L/9_Ratio_750_L_4_R_3.png","img/250/randomdotsizeEA/L/3_Ratio_250_L_8_R_2.png","img/500/randomdotsizeEA/L/10_Ratio_500_L_4_R_2.png","img/900/randomdotsizeEA/L/4_Ratio_900_L_20_R_18.png","img/750/equaldotsize/L/8_Ratio_750_L_4_R_3.png","img/900/randomdotsizeEA/L/1_Ratio_900_L_10_R_9.png","img/900/equaldotsize/R/11_Ratio_900_L_18_R_20.png","img/250/equaldotsize/L/2_Ratio_250_L_16_R_4.png","img/250/equaldotsize/R/13_Ratio_250_L_2_R_8.png","img/750/equaldotanddens/L/6_Ratio_750_L_24_R_18.png","img/500/randomdotsizeEA/L/5_Ratio_500_L_4_R_2.png","img/750/randomdotsizeEA/L/14_Ratio_750_L_8_R_6.png","img/500/equaldotsize/R/2_Ratio_500_L_3_R_6.png","img/750/randomdotsizeEA/L/13_Ratio_750_L_8_R_6.png","img/250/equaldotanddens/R/6_Ratio_250_L_6_R_24.png","img/250/randomdotsizeEA/L/5_Ratio_250_L_24_R_6.png","img/750/equaldotsize/L/1_Ratio_750_L_20_R_15.png","img/900/randomdotsizeEA/L/4_Ratio_900_L_20_R_18.png","img/500/equaldotanddens/R/12_Ratio_500_L_1_R_2.png","img/900/equaldotanddens/L/4_Ratio_900_L_20_R_18.png","img/250/equaldotsize/R/4_Ratio_250_L_3_R_12.png","img/500/equaldotanddens/L/4_Ratio_500_L_18_R_9.png","img/750/equaldotsize/R/7_Ratio_750_L_3_R_4.png","img/500/randomdotsizeEA/R/6_Ratio_500_L_9_R_18.png","img/900/equaldotsize/L/4_Ratio_900_L_20_R_18.png","img/250/equaldotsize/R/9_Ratio_250_L_3_R_12.png","img/900/equaldotsize/R/9_Ratio_900_L_18_R_20.png","img/500/equaldotsize/L/7_Ratio_500_L_10_R_5.png","img/250/equaldotanddens/L/14_Ratio_250_L_12_R_3.png","img/250/randomdotsizeEA/L/3_Ratio_250_L_8_R_2.png","img/750/equaldotsize/R/15_Ratio_750_L_9_R_12.png","img/750/equaldotsize/R/12_Ratio_750_L_3_R_4.png","img/500/equaldotsize/R/12_Ratio_500_L_1_R_2.png","img/500/equaldotsize/R/14_Ratio_500_L_5_R_10.png","img/250/equaldotsize/R/4_Ratio_250_L_3_R_12.png","img/750/randomdotsizeEA/R/2_Ratio_750_L_6_R_8.png","img/250/randomdotsizeEA/R/8_Ratio_250_L_1_R_4.png","img/900/equaldotanddens/L/2_Ratio_900_L_20_R_18.png","img/750/equaldotsize/L/13_Ratio_750_L_8_R_6.png","img/250/equaldotanddens/R/6_Ratio_250_L_6_R_24.png","img/900/equaldotanddens/R/5_Ratio_900_L_9_R_10.png","img/900/equaldotanddens/R/13_Ratio_900_L_18_R_20.png","img/500/equaldotsize/R/9_Ratio_500_L_2_R_4.png","img/250/equaldotanddens/R/13_Ratio_250_L_2_R_8.png","img/500/equaldotanddens/R/1_Ratio_500_L_9_R_18.png","img/500/randomdotsizeEA/R/9_Ratio_500_L_2_R_4.png","img/500/equaldotanddens/L/10_Ratio_500_L_4_R_2.png","img/500/randomdotsizeEA/R/15_Ratio_500_L_1_R_2.png","img/500/equaldotanddens/R/6_Ratio_500_L_9_R_18.png","img/250/equaldotanddens/R/4_Ratio_250_L_3_R_12.png","img/900/equaldotsize/R/9_Ratio_900_L_18_R_20.png","img/750/randomdotsizeEA/L/8_Ratio_750_L_4_R_3.png","img/250/equaldotsize/R/13_Ratio_250_L_2_R_8.png","img/750/randomdotsizeEA/R/2_Ratio_750_L_6_R_8.png","img/900/equaldotanddens/L/8_Ratio_900_L_20_R_18.png","img/500/randomdotsizeEA/R/6_Ratio_500_L_9_R_18.png","img/250/equaldotsize/L/15_Ratio_250_L_12_R_3.png","img/250/equaldotsize/R/9_Ratio_250_L_3_R_12.png"],"Rat0":[["12_Ratio_0_L_9_R_0.png","13_Ratio_0_L_6_R_0.png","5_Ratio_0_L_2_R_0.png","6_Ratio_0_L_4_R_0.png","8_Ratio_0_L_6_R_0.png"],["1_Ratio_0_L_0_R_17.png","10_Ratio_0_L_0_R_22.png","11_Ratio_0_L_0_R_1.png","14_Ratio_0_L_0_R_24.png","15_Ratio_0_L_0_R_4.png","2_Ratio_0_L_0_R_5.png","3_Ratio_0_L_0_R_17.png","4_Ratio_0_L_0_R_7.png","7_Ratio_0_L_0_R_19.png","9_Ratio_0_L_0_R_15.png"]],"Rat250":[["1_Ratio_250_L_8_R_2.png","14_Ratio_250_L_12_R_3.png","15_Ratio_250_L_12_R_3.png","2_Ratio_250_L_16_R_4.png","3_Ratio_250_L_8_R_2.png","5_Ratio_250_L_24_R_6.png","7_Ratio_250_L_8_R_2.png"],["10_Ratio_250_L_4_R_16.png","11_Ratio_250_L_3_R_12.png","12_Ratio_250_L_5_R_20.png","13_Ratio_250_L_2_R_8.png","4_Ratio_250_L_3_R_12.png","6_Ratio_250_L_6_R_24.png","8_Ratio_250_L_1_R_4.png","9_Ratio_250_L_3_R_12.png"]],"Rat500":[["10_Ratio_500_L_4_R_2.png","11_Ratio_500_L_12_R_6.png","13_Ratio_500_L_12_R_6.png","4_Ratio_500_L_18_R_9.png","5_Ratio_500_L_4_R_2.png","7_Ratio_500_L_10_R_5.png","8_Ratio_500_L_8_R_4.png"],["1_Ratio_500_L_9_R_18.png","12_Ratio_500_L_1_R_2.png","14_Ratio_500_L_5_R_10.png","15_Ratio_500_L_1_R_2.png","2_Ratio_500_L_3_R_6.png","3_Ratio_500_L_10_R_20.png","6_Ratio_500_L_9_R_18.png","9_Ratio_500_L_2_R_4.png"]],"Rat750":[["1_Ratio_750_L_20_R_15.png","10_Ratio_750_L_4_R_3.png","13_Ratio_750_L_8_R_6.png","14_Ratio_750_L_8_R_6.png","6_Ratio_750_L_24_R_18.png","8_Ratio_750_L_4_R_3.png","9_Ratio_750_L_4_R_3.png"],["11_Ratio_750_L_12_R_16.png","12_Ratio_750_L_3_R_4.png","15_Ratio_750_L_9_R_12.png","2_Ratio_750_L_6_R_8.png","3_Ratio_750_L_15_R_20.png","4_Ratio_750_L_15_R_20.png","5_Ratio_750_L_15_R_20.png","7_Ratio_750_L_3_R_4.png"]],"Rat900":[["1_Ratio_900_L_10_R_9.png","10_Ratio_900_L_20_R_18.png","2_Ratio_900_L_20_R_18.png","4_Ratio_900_L_20_R_18.png","8_Ratio_900_L_20_R_18.png"],["11_Ratio_900_L_18_R_20.png","12_Ratio_900_L_18_R_20.png","13_Ratio_900_L_18_R_20.png","14_Ratio_900_L_18_R_20.png","15_Ratio_900_L_9_R_10.png","3_Ratio_900_L_9_R_10.png","5_Ratio_900_L_9_R_10.png","6_Ratio_900_L_9_R_10.png","7_Ratio_900_L_9_R_10.png","9_Ratio_900_L_18_R_20.png"]],"Rat1000":[["10_Ratio_1000_L_16_R_16.png","11_Ratio_1000_L_6_R_6.png","12_Ratio_1000_L_14_R_14.png","13_Ratio_1000_L_20_R_20.png","15_Ratio_1000_L_15_R_15.png","2_Ratio_1000_L_17_R_17.png","4_Ratio_1000_L_9_R_9.png","5_Ratio_1000_L_6_R_6.png","6_Ratio_1000_L_19_R_19.png","8_Ratio_1000_L_14_R_14.png","9_Ratio_1000_L_25_R_25.png"],["1_Ratio_1000_L_1_R_1.png","14_Ratio_1000_L_17_R_17.png","3_Ratio_1000_L_17_R_17.png","7_Ratio_1000_L_6_R_6.png"]]}},{"start_time":1551901929665,"click_time":1551901931733,"finger_time":1551901930554,"fix_duration":250,"trial":1,"RT":889,"MT":1179,"sideResp":2,"stimulus":"img/500/equaldotanddens/R/6_Ratio_500_L_9_R_18.png","xmouse":[827,827,827,827,827,827,827,827,828,828,828,828,828,828,828,828,828,828,828,828,828,828,828,828,828,828,828,828,828,828,828,828,828,828,828,828,828,828,828,828,828,828,828,828,806,758,698,592,592,592,592,592,592,592,592,592,592,592,592,592,592,592,533,535,542,550,568,598,613,629,649,672,707,724,752,772,792,812,841,854,865,877,884,894,898,899,899,900,901,907,924,934,939,958,960,960,961,961,961,962,962,966,988,1122],"ymouse":[458,458,458,458,458,458,458,458,458,458,458,458,458,458,458,458,458,458,458,458,458,458,458,458,458,458,458,458,458,458,458,458,458,458,458,458,458,458,458,458,458,458,458,458,397,292,183,20,20,20,20,20,20,20,20,20,20,20,20,20,20,20,8,26,44,58,78,93,99,108,117,128,148,153,155,155,154,147,127,115,104,94,88,80,80,80,80,80,80,80,71,67,67,67,67,67,67,67,67,68,68,70,80,92],"timestamp_mouse":[9,29,59,69,88,108,128,148,168,188,209,229,248,269,288,308,328,348,368,388,409,428,448,468,488,508,529,548,568,588,608,628,648,668,688,708,728,748,769,789,808,828,848,868,888,909,928,948,968,988,1009,1028,1049,1068,1089,1108,1128,1149,1169,1188,1208,1228,1249,1268,1289,1309,1328,1349,1368,1388,1409,1429,1450,1468,1489,1509,1529,1548,1568,1588,1608,1629,1649,1668,1689,1708,1728,1749,1768,1789,1808,1828,1849,1868,1889,1908,1928,1949,1969,1988,2008,2028,2048,2068],"xSR":741.5,"ySR":449.15000000000003,"xT1":424.9,"yT1":0,"xT2":1058.1,"yT2":0,"toosoon":0,"cond_shown":"equaldotanddens","ratio_trial":500,"smaller_num":"9","larger_num":"18","correct_side":2,"subjID":"MariaCamilaAlegriaLopez","gender":"1","age":"","school":"6"},{"start_time":1551901933263,"click_time":1551901934874,"finger_time":1551901934453,"fix_duration":928.9596202470319,"trial":2,"RT":1190,"MT":421,"sideResp":2,"stimulus":"img/500/randomdotsizeEA/L/13_Ratio_500_L_12_R_6.png","xmouse":[785,785,785,785,785,785,785,785,785,785,785,785,785,785,785,785,785,785,785,785,785,785,785,785,785,785,785,785,785,785,785,785,785,785,785,785,785,785,785,785,785,785,785,785,785,785,785,785,785,785,785,785,785,785,785,785,785,789,797,806,815,832,853,890,912,929,944,959,979,984,985,987,991,995,995,999,1004,1010,1036,1052,1066],"ymouse":[509,509,509,509,509,509,509,509,509,509,509,509,509,509,509,509,509,509,509,509,509,509,509,509,509,509,509,509,509,509,509,509,509,509,509,509,509,509,509,509,509,509,509,509,509,509,509,509,509,509,509,509,509,509,509,509,509,492,462,435,409,371,327,258,225,202,182,167,152,151,150,150,147,144,144,141,138,133,113,98,83],"timestamp_mouse":[20,36,50,70,91,111,131,151,172,190,211,230,251,272,290,311,330,351,370,390,411,430,451,472,490,510,530,550,570,590,610,631,650,670,690,710,730,750,771,790,811,830,850,871,891,910,930,950,971,991,1012,1032,1050,1070,1091,1111,1131,1150,1170,1190,1210,1230,1251,1271,1290,1310,1330,1350,1370,1391,1411,1431,1453,1470,1491,1510,1530,1550,1570,1590,1611],"xSR":741.5,"ySR":449.15000000000003,"xT1":424.9,"yT1":0,"xT2":1058.1,"yT2":0,"toosoon":0,"cond_shown":"randomdotsizeEA","ratio_trial":500,"smaller_num":"6","larger_num":"12","correct_side":1,"subjID":"MariaCamilaAlegriaLopez","gender":"1","age":"","school":"6"},{"start_time":1551901935893,"click_time":1551901937133,"finger_time":1551901936733,"fix_duration":278.7613809587424,"trial":3,"RT":840,"MT":400,"sideResp":1,"stimulus":"img/750/equaldotanddens/R/11_Ratio_750_L_12_R_16.png","xmouse":[791,791,791,791,791,791,791,791,791,791,791,791,791,790,790,790,790,790,790,790,790,790,790,790,790,790,790,790,790,790,790,790,790,790,790,790,790,790,790,790,790,790,767,753,739,719,689,603,568,549,544,542,542,542,542,542,542,542,542,542,541,532,519],"ymouse":[538,538,538,538,538,538,538,538,538,538,538,538,510,503,503,503,503,503,503,503,503,503,503,503,503,503,503,503,503,503,503,503,503,503,503,503,503,503,503,503,489,459,388,367,346,318,272,147,95,65,53,51,51,51,51,51,49,49,49,48,48,47,48],"timestamp_mouse":[12,22,41,60,80,100,120,140,160,180,200,220,240,260,280,300,321,340,360,381,400,421,440,460,480,500,520,540,561,581,601,620,640,661,680,700,720,740,760,781,800,820,840,862,880,900,921,940,960,980,1000,1020,1041,1060,1080,1101,1121,1142,1161,1180,1200,1220,1240],"xSR":741.5,"ySR":449.15000000000003,"xT1":424.9,"yT1":0,"xT2":1058.1,"yT2":0,"toosoon":0,"cond_shown":"equaldotanddens","ratio_trial":750,"smaller_num":"12","larger_num":"16","correct_side":2,"subjID":"MariaCamilaAlegriaLopez","gender":"1","age":"","school":"6"},{"start_time":1551901939185,"click_time":1551901940695,"finger_time":1551901940153,"fix_duration":1069.6050577589917,"trial":4,"RT":968,"MT":542,"sideResp":2,"stimulus":"img/900/equaldotanddens/R/5_Ratio_900_L_9_R_10.png","xmouse":[803,803,803,803,803,803,803,803,803,803,803,803,803,803,803,803,803,803,803,803,803,803,803,803,803,803,803,803,803,803,803,803,803,803,803,803,803,803,803,803,803,803,803,807,812,826,833,841,846,847,853,861,874,918,943,958,979,1006,1018,1024,1024,1024,1024,1024,1024,1024,1024,1024,1024,1024,1024,1024,1024,1024,1024,1072],"ymouse":[528,528,528,528,528,528,528,528,528,528,528,528,528,528,528,528,528,528,528,528,528,528,528,528,528,528,528,528,528,528,528,528,528,528,528,528,528,528,528,528,528,528,528,528,528,528,528,513,498,495,485,469,436,324,272,220,149,56,20,5,5,5,5,5,5,5,5,5,5,5,5,5,5,5,5,14],"timestamp_mouse":[9,38,48,69,88,109,129,148,168,188,208,228,248,268,288,308,329,349,368,388,409,428,448,469,488,508,530,548,568,588,608,628,649,669,688,708,728,748,768,788,808,828,849,868,889,909,928,948,968,989,1008,1029,1049,1068,1088,1108,1128,1149,1168,1188,1208,1228,1249,1268,1288,1308,1328,1349,1368,1388,1409,1428,1449,1468,1488,1510],"xSR":741.5,"ySR":449.15000000000003,"xT1":424.9,"yT1":0,"xT2":1058.1,"yT2":0,"toosoon":0,"cond_shown":"equaldotanddens","ratio_trial":900,"smaller_num":"9","larger_num":"10","correct_side":2,"subjID":"MariaCamilaAlegriaLopez","gender":"1","age":"","school":"6"},{"start_time":1551901943525,"click_time":1551901944553,"finger_time":1551901944253,"fix_duration":471.5531059859358,"trial":5,"RT":728,"MT":300,"sideResp":1,"stimulus":"img/250/equaldotanddens/L/2_Ratio_250_L_16_R_4.png","xmouse":[776,776,776,776,776,776,776,776,776,776,776,776,776,776,776,776,776,776,776,776,776,776,776,776,776,776,776,776,776,776,776,776,776,776,777,782,792,787,755,680,603,553,553,553,553,553,534,528,528,528,526,520],"ymouse":[501,501,501,501,501,501,501,501,501,501,501,501,501,501,501,501,501,501,501,501,501,501,501,501,501,501,501,501,501,501,501,501,501,501,490,468,423,398,327,219,113,46,46,46,46,46,34,31,31,31,30,22],"timestamp_mouse":[10,28,48,72,88,108,128,148,168,190,208,228,248,268,289,308,328,348,368,388,408,428,448,468,488,508,528,548,568,588,609,628,648,669,688,708,728,748,768,788,809,828,849,868,888,909,928,948,968,988,1008,1028],"xSR":741.5,"ySR":449.15000000000003,"xT1":424.9,"yT1":0,"xT2":1058.1,"yT2":0,"toosoon":0,"cond_shown":"equaldotanddens","ratio_trial":250,"smaller_num":"4","larger_num":"16","correct_side":1,"subjID":"MariaCamilaAlegriaLopez","gender":"1","age":"","school":"6"},{"start_time":1551901945888,"click_time":1551901947313,"finger_time":1551901947014,"fix_duration":492.8086942188712,"trial":6,"RT":1126,"MT":299,"sideResp":1,"stimulus":"img/750/randomdotsizeEA/R/5_Ratio_750_L_15_R_20.png","xmouse":[813,813,813,813,813,813,813,813,813,813,813,813,813,813,813,813,813,813,813,813,813,813,813,813,813,813,813,813,813,813,813,813,813,813,813,813,813,813,813,813,813,813,813,813,813,813,813,813,813,813,813,813,813,813,809,794,753,689,622,605,588,572,557,543,541,540,538,538,537,534,531,524],"ymouse":[498,498,498,498,498,498,498,498,498,498,498,498,498,498,498,498,498,498,498,498,498,498,498,498,498,498,498,498,498,498,498,498,498,498,498,498,498,498,498,498,498,498,498,498,498,498,498,498,498,498,498,498,498,498,485,463,410,329,250,232,215,192,167,145,142,138,132,130,126,114,105,91],"timestamp_mouse":[9,25,45,65,85,105,127,146,165,186,205,225,245,265,285,305,326,346,365,385,405,425,445,465,485,505,525,545,565,585,605,626,645,666,685,705,725,745,766,786,806,825,845,865,885,905,925,945,965,985,1005,1026,1045,1065,1085,1105,1126,1146,1165,1185,1205,1225,1245,1266,1285,1305,1326,1346,1366,1385,1406,1425],"xSR":741.5,"ySR":449.15000000000003,"xT1":424.9,"yT1":0,"xT2":1058.1,"yT2":0,"toosoon":0,"cond_shown":"randomdotsizeEA","ratio_trial":750,"smaller_num":"15","larger_num":"20","correct_side":2,"subjID":"MariaCamilaAlegriaLopez","gender":"1","age":"","school":"6"},{"start_time":1551901948857,"click_time":1551901949434,"finger_time":1551901949173,"fix_duration":822.7979299057779,"trial":7,"RT":316,"MT":261,"sideResp":1,"stimulus":"img/500/equaldotsize/L/5_Ratio_500_L_4_R_2.png","xmouse":[814,814,814,814,814,814,814,814,814,801,779,772,768,764,758,721,710,680,661,635,553,531,524,516,503,463,453,448,444],"ymouse":[499,499,499,499,499,499,499,499,499,500,498,496,494,490,481,431,419,389,374,358,312,302,297,286,260,164,136,114,96],"timestamp_mouse":[16,40,57,76,96,117,138,156,176,196,216,236,257,276,296,316,336,356,376,397,416,437,456,476,497,516,537,556,576],"xSR":741.5,"ySR":449.15000000000003,"xT1":424.9,"yT1":0,"xT2":1058.1,"yT2":0,"toosoon":0,"cond_shown":"equaldotsize","ratio_trial":500,"smaller_num":"2","larger_num":"4","correct_side":1,"subjID":"MariaCamilaAlegriaLopez","gender":"1","age":"","school":"6"},{"start_time":1551901956264,"click_time":1551901957875,"finger_time":1551901957493,"fix_duration":629.2745824332662,"trial":8,"RT":1229,"MT":382,"sideResp":2,"stimulus":"img/500/equaldotsize/R/2_Ratio_500_L_3_R_6.png","xmouse":[796,796,796,796,796,796,796,796,796,796,796,796,796,796,796,796,796,796,796,796,796,796,796,796,796,796,796,796,796,796,796,796,796,796,796,796,796,796,796,796,796,796,796,796,796,796,796,796,796,796,796,797,798,806,809,812,815,817,819,826,841,869,884,890,893,906,915,922,928,936,945,966,975,986,1000,1017,1048,1062,1072,1083,1107],"ymouse":[464,464,464,464,464,464,464,464,464,464,464,464,464,464,464,464,464,464,464,464,464,464,464,464,464,464,464,464,464,464,464,464,464,464,464,464,464,464,464,464,464,464,464,464,464,464,464,464,464,464,464,465,465,465,465,465,465,465,465,463,453,429,415,410,403,379,358,335,310,285,263,224,211,196,177,159,128,117,108,100,83],"timestamp_mouse":[11,39,49,69,89,109,129,149,169,189,209,230,249,270,289,310,329,349,369,389,409,429,450,469,490,510,530,550,569,589,610,630,649,669,690,709,729,750,769,789,810,830,849,870,890,910,930,949,969,990,1010,1029,1049,1069,1089,1109,1129,1149,1169,1189,1209,1229,1249,1269,1289,1310,1329,1350,1369,1389,1410,1429,1449,1471,1489,1510,1529,1549,1569,1589,1611],"xSR":741.5,"ySR":449.15000000000003,"xT1":424.9,"yT1":0,"xT2":1058.1,"yT2":0,"toosoon":0,"cond_shown":"equaldotsize","ratio_trial":500,"smaller_num":"3","larger_num":"6","correct_side":2,"subjID":"MariaCamilaAlegriaLopez","gender":"1","age":"","school":"6"},{"start_time":1551901959636,"click_time":1551901960934,"finger_time":1551901960535,"fix_duration":921.2753408448036,"trial":9,"RT":899,"MT":399,"sideResp":2,"stimulus":"img/750/equaldotsize/R/5_Ratio_750_L_15_R_20.png","xmouse":[803,803,803,803,802,802,802,802,802,802,802,802,802,802,802,802,802,802,802,802,802,802,802,802,802,802,802,802,802,802,802,802,802,802,802,802,802,802,802,802,802,801,807,824,839,859,883,939,961,977,987,991,1000,1004,1006,1008,1009,1010,1016,1024,1034,1047,1086,1111,1129],"ymouse":[502,502,502,502,502,502,502,502,502,502,502,502,502,502,502,502,502,502,502,502,502,502,502,502,502,502,502,502,502,502,502,502,502,502,502,502,502,502,502,502,502,502,487,459,445,429,411,350,317,293,277,264,233,227,225,224,223,223,218,209,194,176,125,102,81],"timestamp_mouse":[19,47,58,77,97,118,137,157,177,197,218,237,257,277,298,318,338,357,377,397,418,437,458,477,497,517,538,558,579,597,618,639,658,678,697,717,737,758,777,797,818,837,857,878,899,917,937,957,977,997,1018,1038,1057,1077,1097,1117,1139,1157,1178,1198,1217,1237,1257,1277,1297],"xSR":741.5,"ySR":449.15000000000003,"xT1":424.9,"yT1":0,"xT2":1058.1,"yT2":0,"toosoon":0,"cond_shown":"equaldotsize","ratio_trial":750,"smaller_num":"15","larger_num":"20","correct_side":2,"subjID":"MariaCamilaAlegriaLopez","gender":"1","age":"","school":"6"},{"start_time":1551901964751,"click_time":1551901966613,"finger_time":1551901965494,"fix_duration":416.5176245629099,"trial":10,"RT":743,"MT":1119,"sideResp":2,"stimulus":"img/750/equaldotanddens/R/12_Ratio_750_L_3_R_4.png","xmouse":[794,794,794,794,794,794,794,794,794,794,794,794,794,794,794,794,794,794,794,794,794,794,794,794,794,794,794,794,794,794,794,794,798,807,815,822,834,848,857,863,871,885,906,913,922,927,934,935,939,951,964,973,986,989,990,993,994,1008,1008,1011,1016,1021,1028,1034,1034,1034,1034,1034,1034,1035,1040,1055,1071,1077,1077,1080,1088,1091,1092,1092,1092,1092,1092,1092,1092,1092,1092,1092,1092,1092,1092,1095,1096,1101],"ymouse":[512,512,512,512,512,512,512,512,512,512,512,512,512,512,512,512,512,512,512,512,512,512,512,512,512,512,512,512,512,512,512,511,504,492,483,477,467,448,439,434,420,386,333,315,303,299,297,296,293,284,273,264,254,254,254,254,252,199,178,163,149,143,137,132,132,132,132,132,132,132,130,126,121,118,118,118,115,114,114,114,114,114,114,114,114,114,114,114,114,114,114,107,102,86],"timestamp_mouse":[12,22,43,63,82,102,122,142,162,182,202,224,243,262,282,302,323,342,363,382,402,422,442,464,483,503,522,542,563,582,602,622,642,663,682,702,722,743,762,783,803,823,843,862,882,902,923,943,962,982,1002,1023,1043,1062,1083,1103,1123,1143,1162,1183,1204,1222,1243,1262,1283,1302,1322,1343,1362,1382,1403,1422,1443,1462,1483,1502,1522,1542,1562,1582,1602,1622,1643,1664,1683,1702,1723,1743,1762,1783,1804,1823,1842,1862],"xSR":741.5,"ySR":449.15000000000003,"xT1":424.9,"yT1":0,"xT2":1058.1,"yT2":0,"toosoon":0,"cond_shown":"equaldotanddens","ratio_trial":750,"smaller_num":"3","larger_num":"4","correct_side":2,"subjID":"MariaCamilaAlegriaLopez","gender":"1","age":"","school":"6"},{"start_time":1551901974872,"click_time":1551901979693,"finger_time":1551901978913,"fix_duration":296.38557277747935,"trial":11,"RT":4041,"MT":780,"sideResp":2,"stimulus":"img/900/randomdotsizeEA/R/6_Ratio_900_L_9_R_10.png","xmouse":[795,795,795,795,795,795,795,795,795,795,795,795,795,795,795,795,795,795,795,795,795,795,795,795,795,795,795,795,795,795,795,795,795,795,795,795,795,795,795,795,795,795,795,795,795,795,795,795,795,795,795,795,795,795,795,795,795,795,795,795,795,795,795,795,795,795,795,795,795,795,795,795,795,795,795,795,795,795,795,795,795,795,795,795,795,795,795,795,795,795,795,795,795,795,795,795,795,795,795,795,795,795,795,795,795,795,795,795,795,795,795,795,795,795,795,795,795,795,795,795,795,795,795,795,795,795,795,795,795,795,795,795,795,795,795,795,795,795,795,795,795,795,795,795,795,795,795,795,795,795,795,795,795,795,795,795,795,795,795,795,795,795,795,795,795,795,795,795,795,795,795,795,795,795,795,795,795,795,795,795,795,795,795,795,795,795,795,795,795,795,795,797,799,801,801,801,801,801,802,802,810,829,842,856,863,877,888,903,934,946,952,962,974,1040,1074,1100,1116,1119,1122,1123,1123,1124,1128,1129,1129,1130,1130,1136,1140,1140,1140,1140,1140,1140,1140,1140,1140,1140,1140,1140,1141,1141],"ymouse":[484,484,484,484,484,484,484,484,484,484,484,484,484,484,484,484,484,484,484,484,484,484,484,484,484,484,484,484,484,484,484,484,484,484,484,484,484,484,484,484,484,484,484,484,484,484,484,484,484,484,484,484,484,484,484,484,484,484,484,484,484,484,484,484,484,484,484,484,484,484,484,484,484,484,484,484,484,484,484,484,484,484,484,484,484,484,484,484,484,484,484,484,484,484,484,484,484,484,484,484,484,484,484,484,484,484,484,484,484,484,484,484,484,484,484,484,484,484,484,484,484,484,484,484,484,484,484,484,484,484,484,484,484,484,484,484,484,484,484,484,484,484,484,484,484,484,484,484,484,484,484,484,484,484,484,484,484,484,484,484,484,484,484,484,484,484,484,484,484,484,484,484,484,484,484,484,484,484,484,484,484,484,484,484,484,484,484,484,484,484,484,484,484,483,483,483,483,483,483,483,486,489,490,449,405,368,347,329,301,293,288,280,269,223,207,197,190,187,180,166,151,135,118,112,112,112,112,108,105,105,105,105,105,105,105,105,105,105,105,105,105,96],"timestamp_mouse":[10,21,42,61,81,102,121,141,161,181,202,222,241,262,282,301,321,341,361,381,401,422,442,461,483,502,522,541,561,581,601,621,641,661,682,702,722,741,761,782,801,821,842,861,881,902,921,941,962,982,1001,1021,1042,1062,1081,1101,1121,1141,1161,1181,1202,1221,1241,1261,1282,1301,1321,1342,1362,1381,1402,1422,1442,1461,1481,1501,1522,1542,1562,1581,1601,1623,1642,1663,1681,1701,1722,1742,1762,1781,1801,1822,1841,1862,1881,1901,1922,1942,1962,1982,2001,2021,2042,2062,2083,2101,2122,2142,2162,2181,2201,2221,2241,2261,2282,2301,2323,2341,2362,2381,2401,2422,2443,2462,2481,2501,2522,2542,2562,2581,2601,2621,2641,2661,2681,2701,2721,2742,2762,2781,2801,2822,2841,2862,2881,2902,2921,2943,2961,2981,3002,3021,3041,3062,3081,3101,3122,3141,3162,3181,3201,3221,3241,3262,3281,3301,3321,3343,3362,3381,3401,3421,3442,3461,3481,3502,3522,3542,3561,3581,3601,3621,3642,3661,3681,3702,3721,3741,3761,3781,3801,3821,3841,3861,3881,3901,3922,3942,3962,3981,4002,4022,4041,4061,4082,4101,4121,4141,4161,4181,4201,4221,4241,4261,4282,4302,4321,4341,4361,4381,4402,4422,4441,4461,4481,4501,4521,4541,4562,4581,4601,4621,4641,4661,4681,4701,4721,4741,4761,4781,4801,4821],"xSR":741.5,"ySR":449.15000000000003,"xT1":424.9,"yT1":0,"xT2":1058.1,"yT2":0,"toosoon":0,"cond_shown":"randomdotsizeEA","ratio_trial":900,"smaller_num":"9","larger_num":"10","correct_side":2,"subjID":"MariaCamilaAlegriaLopez","gender":"1","age":"","school":"6"},{"start_time":1551901982027,"click_time":1551901984213,"finger_time":1551901983873,"fix_duration":993.749259888594,"trial":12,"RT":1846,"MT":340,"sideResp":2,"stimulus":"img/750/equaldotanddens/L/9_Ratio_750_L_4_R_3.png","xmouse":[786,786,786,786,786,786,786,786,786,786,786,786,786,786,786,786,786,786,786,786,786,786,786,786,786,786,786,786,786,786,786,786,786,786,786,786,786,786,786,786,786,786,786,786,786,786,786,786,786,786,786,786,786,786,786,786,786,786,786,786,786,786,786,786,786,786,786,786,786,786,786,786,786,786,786,786,786,786,786,786,786,786,786,786,786,786,786,786,786,786,786,797,836,878,923,994,1016,1026,1030,1032,1046,1058,1071,1084,1092,1097,1097,1097,1091,1083],"ymouse":[502,502,502,502,502,502,502,502,502,502,502,502,502,502,502,502,502,502,502,502,502,502,502,502,502,502,502,502,502,502,502,502,502,502,502,502,502,502,502,502,502,502,502,502,502,502,502,502,502,502,502,502,502,502,502,502,502,502,502,502,502,502,502,502,502,502,502,502,502,502,502,502,502,502,502,502,502,502,502,502,502,502,502,502,502,502,502,502,502,502,502,486,439,395,360,299,280,271,268,266,247,233,221,208,195,176,168,153,124,87],"timestamp_mouse":[7,26,46,67,87,106,127,146,167,186,206,226,246,267,287,306,326,346,366,386,406,426,448,466,486,506,526,546,566,587,606,626,647,667,686,706,726,747,766,786,806,826,846,867,887,906,926,947,966,987,1006,1026,1046,1067,1087,1106,1127,1147,1166,1186,1206,1226,1247,1267,1286,1307,1327,1346,1367,1387,1406,1426,1447,1467,1486,1507,1526,1546,1566,1586,1606,1627,1646,1666,1688,1707,1726,1746,1766,1786,1807,1826,1846,1866,1887,1908,1926,1947,1967,1986,2007,2026,2047,2068,2086,2107,2126,2146,2166,2186],"xSR":741.5,"ySR":449.15000000000003,"xT1":424.9,"yT1":0,"xT2":1058.1,"yT2":0,"toosoon":0,"cond_shown":"equaldotanddens","ratio_trial":750,"smaller_num":"3","larger_num":"4","correct_side":1,"subjID":"MariaCamilaAlegriaLopez","gender":"1","age":"","school":"6"},{"start_time":1551901986437,"click_time":1551901987775,"finger_time":1551901987334,"fix_duration":1321.6705582642433,"trial":13,"RT":897,"MT":441,"sideResp":2,"stimulus":"img/900/equaldotsize/R/9_Ratio_900_L_18_R_20.png","xmouse":[763,763,763,761,771,774,778,780,781,781,781,781,781,781,781,781,781,781,781,781,781,781,781,781,781,781,781,781,781,781,781,781,781,781,781,781,781,781,781,781,786,793,800,804,806,815,825,840,850,864,890,901,916,926,933,947,961,977,994,1009,1026,1032,1038,1044,1048,1058,1064],"ymouse":[484,484,484,486,494,496,498,499,499,499,499,499,499,499,499,499,499,499,499,499,499,499,499,499,499,499,499,499,499,499,499,499,499,499,499,499,499,499,499,499,493,483,474,463,446,407,388,369,354,334,279,261,248,242,238,226,215,202,187,174,155,147,138,130,125,106,94],"timestamp_mouse":[16,36,57,77,98,116,136,156,177,197,218,238,256,276,296,317,336,357,376,396,417,436,457,477,497,517,537,556,576,596,616,637,656,677,697,718,737,758,776,797,816,837,858,877,897,917,937,957,977,997,1016,1037,1057,1076,1096,1116,1137,1156,1177,1197,1216,1237,1257,1277,1297,1316,1338],"xSR":741.5,"ySR":449.15000000000003,"xT1":424.9,"yT1":0,"xT2":1058.1,"yT2":0,"toosoon":0,"cond_shown":"equaldotsize","ratio_trial":900,"smaller_num":"18","larger_num":"20","correct_side":2,"subjID":"MariaCamilaAlegriaLopez","gender":"1","age":"","school":"6"},{"start_time":1551901994637,"click_time":1551901995814,"finger_time":1551901995475,"fix_duration":461.819664240578,"trial":14,"RT":838,"MT":339,"sideResp":1,"stimulus":"img/500/equaldotsize/L/8_Ratio_500_L_8_R_4.png","xmouse":[795,795,795,795,795,795,795,795,795,795,795,795,795,795,795,795,795,795,795,795,795,795,795,795,795,795,795,795,795,795,795,795,795,795,795,795,795,795,795,795,771,691,653,631,623,619,614,612,605,592,581,581,581,578,560,545,533,525,518],"ymouse":[518,518,518,518,518,518,518,518,518,518,518,518,518,518,518,518,518,518,518,518,518,518,518,518,518,518,518,518,518,518,518,518,518,518,518,518,518,518,518,518,487,375,318,286,267,248,218,203,183,161,147,147,146,141,123,113,105,97,90],"timestamp_mouse":[17,36,57,77,96,118,137,157,177,197,216,237,257,277,296,317,337,357,376,396,418,437,457,476,497,516,537,558,577,597,617,637,657,677,696,717,738,756,776,797,817,838,856,877,897,916,937,956,976,996,1016,1036,1056,1077,1097,1117,1137,1157,1177],"xSR":741.5,"ySR":449.15000000000003,"xT1":424.9,"yT1":0,"xT2":1058.1,"yT2":0,"toosoon":0,"cond_shown":"equaldotsize","ratio_trial":500,"smaller_num":"4","larger_num":"8","correct_side":1,"subjID":"MariaCamilaAlegriaLopez","gender":"1","age":"","school":"6"},{"start_time":1551901999210,"click_time":1551902001175,"finger_time":1551902000395,"fix_duration":315.00831085302474,"trial":15,"RT":1185,"MT":780,"sideResp":1,"stimulus":"img/900/equaldotsize/L/8_Ratio_900_L_20_R_18.png","xmouse":[812,812,812,812,812,812,812,812,812,812,812,812,812,812,812,812,812,812,812,812,812,812,812,812,812,812,812,812,812,812,812,812,812,812,812,812,812,812,812,812,812,812,812,812,812,812,812,812,812,812,812,812,812,812,813,818,821,822,822,821,817,812,806,799,779,767,760,756,750,731,711,684,657,626,617,614,608,606,606,606,606,606,606,606,606,606,606,606,606,606,606,606,606,606,606,606,606,606,520],"ymouse":[527,527,527,527,527,527,527,527,527,527,527,527,527,527,527,527,527,527,527,527,527,527,527,527,527,527,527,527,527,527,527,527,527,527,527,527,527,527,527,527,527,527,527,527,527,527,527,527,527,527,527,527,527,527,507,488,472,459,452,446,441,435,427,419,387,365,353,345,335,291,248,200,159,108,82,57,22,1,1,1,1,1,1,1,1,1,1,1,1,1,1,1,1,1,1,1,1,1,4],"timestamp_mouse":[14,28,44,63,85,104,124,144,163,183,203,224,244,264,284,303,325,345,363,384,404,423,444,463,484,504,524,544,564,583,604,624,643,663,684,704,724,744,764,784,804,824,843,864,884,904,923,944,963,984,1004,1024,1044,1063,1084,1104,1124,1143,1164,1185,1205,1224,1244,1265,1283,1303,1324,1344,1365,1384,1404,1425,1444,1465,1484,1504,1525,1543,1565,1585,1604,1624,1643,1665,1684,1704,1724,1745,1765,1785,1805,1824,1844,1864,1883,1904,1924,1944,1965],"xSR":741.5,"ySR":449.15000000000003,"xT1":424.9,"yT1":0,"xT2":1058.1,"yT2":0,"toosoon":0,"cond_shown":"equaldotsize","ratio_trial":900,"smaller_num":"18","larger_num":"20","correct_side":1,"subjID":"MariaCamilaAlegriaLopez","gender":"1","age":"","school":"6"},{"start_time":1551902003749,"click_time":1551902005415,"finger_time":1551902004774,"fix_duration":1394.567286979826,"trial":16,"RT":1025,"MT":641,"sideResp":1,"stimulus":"img/900/equaldotanddens/R/7_Ratio_900_L_9_R_10.png","xmouse":[820,820,820,820,820,820,820,820,820,820,820,820,820,820,820,820,820,820,820,820,820,820,820,820,820,820,820,820,820,820,820,820,820,820,820,820,820,820,820,820,820,820,820,820,820,820,820,820,820,820,814,802,756,731,696,669,647,548,512,492,478,469,463,463,465,467,468,472,473,476,477,477,478,478,478,478,478,478,478,478,478,478,481,482],"ymouse":[503,503,503,503,503,503,503,503,503,503,503,503,503,503,503,503,503,503,503,503,503,503,503,503,503,503,503,503,503,503,503,503,503,503,503,503,503,503,503,503,503,503,503,503,503,503,503,503,503,503,465,434,383,367,346,334,326,285,273,262,249,233,204,192,183,179,175,164,158,151,145,145,132,122,118,118,118,118,118,118,118,116,106,99],"timestamp_mouse":[9,26,44,64,86,105,126,144,165,185,206,224,245,265,286,305,324,345,365,385,405,426,446,464,485,505,525,544,564,584,606,625,645,664,684,705,724,745,766,786,805,825,844,864,885,905,925,946,965,986,1005,1025,1045,1066,1084,1105,1126,1145,1165,1185,1204,1225,1246,1265,1285,1305,1325,1344,1365,1385,1404,1424,1444,1465,1485,1504,1525,1545,1565,1585,1604,1625,1645,1666],"xSR":741.5,"ySR":449.15000000000003,"xT1":424.9,"yT1":0,"xT2":1058.1,"yT2":0,"toosoon":0,"cond_shown":"equaldotanddens","ratio_trial":900,"smaller_num":"9","larger_num":"10","correct_side":2,"subjID":"MariaCamilaAlegriaLopez","gender":"1","age":"","school":"6"},{"start_time":1551902007178,"click_time":1551902008434,"finger_time":1551902007913,"fix_duration":483.2980402658741,"trial":17,"RT":735,"MT":521,"sideResp":2,"stimulus":"img/900/equaldotanddens/R/14_Ratio_900_L_18_R_20.png","xmouse":[797,797,797,797,797,797,797,797,797,797,797,797,797,797,797,797,797,797,797,797,797,797,797,797,797,797,797,797,797,797,797,797,797,798,802,815,861,883,902,918,951,968,984,999,1014,1025,1027,1030,1032,1032,1032,1035,1038,1041,1047,1052,1056,1062,1066,1070,1077,1080,1086],"ymouse":[501,501,501,501,501,501,501,501,501,501,501,501,501,501,501,501,501,501,501,501,501,501,501,501,501,501,501,501,501,501,501,501,501,501,501,498,481,464,445,421,371,350,336,323,306,279,269,260,251,244,237,217,207,192,171,145,131,120,114,111,107,105,95],"timestamp_mouse":[15,38,56,76,97,116,136,156,175,196,216,235,256,276,296,316,337,356,375,395,416,436,456,476,495,517,536,555,576,596,616,635,655,676,696,715,735,755,777,796,816,836,856,877,896,917,936,956,976,996,1016,1036,1056,1075,1096,1116,1135,1156,1175,1195,1217,1236,1255],"xSR":741.5,"ySR":449.15000000000003,"xT1":424.9,"yT1":0,"xT2":1058.1,"yT2":0,"toosoon":0,"cond_shown":"equaldotanddens","ratio_trial":900,"smaller_num":"18","larger_num":"20","correct_side":2,"subjID":"MariaCamilaAlegriaLopez","gender":"1","age":"","school":"6"},{"start_time":1551902010578,"click_time":1551902011654,"finger_time":1551902011213,"fix_duration":1422.4876119385358,"trial":18,"RT":635,"MT":441,"sideResp":2,"stimulus":"img/250/equaldotanddens/R/4_Ratio_250_L_3_R_12.png","xmouse":[771,771,771,771,771,771,771,771,771,771,771,771,771,771,771,764,759,757,756,756,756,755,755,755,755,755,755,755,755,755,760,788,805,827,843,852,859,863,867,876,886,909,922,928,935,942,971,989,1001,1014,1023,1043,1058,1074],"ymouse":[485,485,485,485,485,485,485,485,485,485,485,485,485,485,485,485,485,485,485,485,485,485,485,485,485,485,485,485,485,485,478,418,394,362,324,296,269,262,255,240,223,191,175,169,165,163,154,148,139,128,115,75,60,49],"timestamp_mouse":[17,35,57,76,97,117,136,156,177,195,215,237,256,276,295,317,335,357,376,396,417,436,455,476,496,516,536,556,576,596,617,635,656,677,696,716,736,756,776,796,816,836,855,876,896,917,935,956,977,996,1016,1036,1056,1076],"xSR":741.5,"ySR":449.15000000000003,"xT1":424.9,"yT1":0,"xT2":1058.1,"yT2":0,"toosoon":0,"cond_shown":"equaldotanddens","ratio_trial":250,"smaller_num":"3","larger_num":"12","correct_side":2,"subjID":"MariaCamilaAlegriaLopez","gender":"1","age":"","school":"6"},{"start_time":1551902013338,"click_time":1551902014513,"finger_time":1551902014074,"fix_duration":922.0222667065296,"trial":19,"RT":736,"MT":439,"sideResp":1,"stimulus":"img/500/randomdotsizeEA/R/2_Ratio_500_L_3_R_6.png","xmouse":[778,778,778,778,778,778,778,778,778,778,778,778,778,778,778,778,778,778,778,778,778,778,778,778,778,778,778,778,778,778,778,778,778,778,778,766,718,663,595,574,556,538,521,497,493,492,492,492,495,499,502,504,507,507,507,507,507,503,498],"ymouse":[502,502,502,502,502,502,502,502,502,502,502,502,502,502,502,502,502,502,502,502,502,502,502,502,502,502,502,502,502,502,502,502,502,502,502,484,445,418,389,377,360,338,304,249,233,230,229,229,217,206,189,172,154,139,130,119,111,104,94],"timestamp_mouse":[17,39,57,76,96,116,135,155,177,196,217,236,256,277,296,316,336,356,377,396,417,436,456,475,496,516,535,555,577,595,616,635,657,676,695,716,736,755,775,796,817,836,857,876,896,915,935,956,976,995,1017,1036,1055,1076,1095,1116,1136,1155,1175],"xSR":741.5,"ySR":449.15000000000003,"xT1":424.9,"yT1":0,"xT2":1058.1,"yT2":0,"toosoon":0,"cond_shown":"randomdotsizeEA","ratio_trial":500,"smaller_num":"3","larger_num":"6","correct_side":2,"subjID":"MariaCamilaAlegriaLopez","gender":"1","age":"","school":"6"},{"start_time":1551902017110,"click_time":1551902018233,"finger_time":1551902017795,"fix_duration":274.6216085540212,"trial":20,"RT":685,"MT":438,"sideResp":2,"stimulus":"img/750/randomdotsizeEA/L/9_Ratio_750_L_4_R_3.png","xmouse":[773,773,773,773,773,773,773,773,773,773,773,773,773,773,773,773,773,773,773,773,773,773,773,773,773,773,773,773,773,777,779,788,798,808,820,847,855,862,871,877,882,898,910,921,931,940,954,960,967,976,990,998,1001,1011,1024,1042,1080],"ymouse":[508,508,508,508,508,508,508,508,508,508,508,508,508,508,508,508,508,508,508,508,508,508,508,508,508,508,508,508,508,503,500,487,472,457,435,388,370,354,338,324,311,281,249,226,205,185,155,141,128,116,98,87,85,72,54,38,24],"timestamp_mouse":[12,34,44,64,84,104,123,143,165,184,204,224,244,264,285,305,323,344,364,384,403,423,443,464,484,504,524,544,565,584,603,623,644,664,685,705,724,744,763,784,805,824,844,865,884,904,923,945,964,984,1005,1023,1043,1063,1083,1103,1123],"xSR":741.5,"ySR":449.15000000000003,"xT1":424.9,"yT1":0,"xT2":1058.1,"yT2":0,"toosoon":0,"cond_shown":"randomdotsizeEA","ratio_trial":750,"smaller_num":"3","larger_num":"4","correct_side":1,"subjID":"MariaCamilaAlegriaLopez","gender":"1","age":"","school":"6"},{"start_time":1551902019885,"click_time":1551902021334,"finger_time":1551902020633,"fix_duration":250,"trial":21,"RT":748,"MT":701,"sideResp":2,"stimulus":"img/500/randomdotsizeEA/R/9_Ratio_500_L_2_R_4.png","xmouse":[765,765,765,765,765,765,765,765,765,765,765,765,765,765,765,765,765,765,765,765,765,765,765,765,765,765,765,765,765,765,765,765,765,766,757,752,743,739,735,733,731,665,590,564,556,556,556,556,558,559,562,566,600,631,677,724,862,917,946,958,963,965,970,973,980,995,1014,1063,1093,1114,1126,1134,1143],"ymouse":[498,498,498,498,498,498,498,498,498,498,498,498,498,498,498,498,498,498,498,498,498,498,498,498,498,498,498,498,498,498,498,498,498,496,483,479,473,467,464,462,460,411,339,305,286,280,279,278,278,278,278,278,284,289,293,296,292,282,273,265,259,254,241,236,229,215,198,159,138,123,113,105,86],"timestamp_mouse":[12,31,48,69,89,109,130,150,168,188,209,230,249,269,289,309,330,349,368,389,409,430,448,470,489,509,529,548,569,589,608,630,649,669,688,709,730,748,768,788,809,831,849,868,889,910,929,948,968,989,1009,1028,1048,1069,1089,1109,1131,1148,1169,1188,1209,1229,1249,1269,1289,1309,1329,1348,1369,1389,1409,1429,1449],"xSR":741.5,"ySR":449.15000000000003,"xT1":424.9,"yT1":0,"xT2":1058.1,"yT2":0,"toosoon":0,"cond_shown":"randomdotsizeEA","ratio_trial":500,"smaller_num":"2","larger_num":"4","correct_side":2,"subjID":"MariaCamilaAlegriaLopez","gender":"1","age":"","school":"6"},{"start_time":1551902023153,"click_time":1551902024273,"finger_time":1551902023933,"fix_duration":838.9319922122835,"trial":22,"RT":780,"MT":340,"sideResp":2,"stimulus":"img/900/equaldotsize/R/7_Ratio_900_L_9_R_10.png","xmouse":[757,757,757,757,757,757,757,757,757,757,757,757,757,757,757,757,757,757,757,757,757,757,757,757,757,757,757,757,757,757,757,757,757,757,757,752,749,745,742,738,736,733,727,724,722,723,725,728,740,782,830,894,967,1026,1092,1110,1116],"ymouse":[490,490,490,490,490,490,490,490,490,490,490,490,490,490,490,490,490,490,490,490,490,490,490,490,490,490,490,490,490,490,490,490,490,490,490,479,473,464,453,436,426,416,405,400,397,397,396,395,388,366,346,320,287,254,175,118,74],"timestamp_mouse":[10,33,41,61,80,100,121,141,162,181,200,221,241,261,282,301,320,340,361,381,401,421,442,461,480,500,521,540,561,581,602,621,640,661,680,702,722,740,761,780,802,821,840,861,881,901,921,941,961,981,1002,1021,1041,1062,1081,1101,1120],"xSR":741.5,"ySR":449.15000000000003,"xT1":424.9,"yT1":0,"xT2":1058.1,"yT2":0,"toosoon":0,"cond_shown":"equaldotsize","ratio_trial":900,"smaller_num":"9","larger_num":"10","correct_side":2,"subjID":"MariaCamilaAlegriaLopez","gender":"1","age":"","school":"6"},{"start_time":1551902028242,"click_time":1551902029174,"finger_time":1551902028835,"fix_duration":667.9581466426462,"trial":23,"RT":593,"MT":339,"sideResp":2,"stimulus":"img/900/randomdotsizeEA/R/15_Ratio_900_L_9_R_10.png","xmouse":[787,787,787,787,787,787,787,787,787,787,787,787,787,787,787,787,787,787,787,787,787,787,787,787,787,787,787,787,787,811,844,860,868,868,868,868,868,868,869,876,896,911,916,918,925,998,1094],"ymouse":[482,482,482,482,482,482,482,482,482,482,482,482,482,482,482,482,482,482,482,482,482,482,482,482,482,482,482,482,479,387,298,226,168,143,131,131,131,131,129,123,102,94,91,91,86,61,42],"timestamp_mouse":[12,38,52,72,93,112,131,152,171,192,212,232,252,271,293,312,332,352,371,392,412,431,451,473,493,511,532,552,571,593,612,632,651,672,693,711,732,751,771,792,812,832,852,871,892,912,932],"xSR":741.5,"ySR":449.15000000000003,"xT1":424.9,"yT1":0,"xT2":1058.1,"yT2":0,"toosoon":0,"cond_shown":"randomdotsizeEA","ratio_trial":900,"smaller_num":"9","larger_num":"10","correct_side":2,"subjID":"MariaCamilaAlegriaLopez","gender":"1","age":"","school":"6"},{"start_time":1551902031174,"click_time":1551902032995,"finger_time":1551902031974,"fix_duration":959.136418452904,"trial":24,"RT":800,"MT":1021,"sideResp":1,"stimulus":"img/500/equaldotanddens/L/13_Ratio_500_L_12_R_6.png","xmouse":[790,790,790,790,790,790,790,790,790,790,790,790,790,790,790,790,790,790,790,790,790,790,790,790,790,790,790,790,790,790,790,790,790,788,783,782,780,777,772,746,729,713,695,681,646,630,620,613,608,600,596,590,586,575,567,565,565,564,564,562,562,562,562,562,562,562,562,562,562,562,568,576,579,578,576,576,562,553,544,540,538,538,535,531,526,526,526,526,526,527,527,509],"ymouse":[532,532,532,532,532,532,532,532,532,532,532,532,532,532,532,532,532,532,532,532,532,532,532,532,532,532,532,532,532,532,532,532,521,511,497,494,490,485,480,455,442,429,412,397,350,327,313,302,290,272,259,248,237,218,198,197,195,195,192,188,188,188,188,188,188,188,188,188,188,187,186,183,175,164,160,150,131,125,114,107,105,104,101,100,99,99,99,99,99,98,98,94],"timestamp_mouse":[1,19,42,61,81,100,121,139,159,181,200,220,240,260,281,300,319,340,359,381,400,420,440,459,481,499,521,541,560,580,599,620,639,659,679,700,720,740,759,779,800,820,839,860,879,900,920,939,959,980,1000,1019,1040,1061,1079,1101,1120,1141,1161,1180,1199,1220,1240,1259,1279,1299,1319,1339,1359,1380,1399,1420,1439,1460,1480,1500,1519,1539,1559,1580,1599,1621,1639,1659,1680,1700,1721,1740,1759,1780,1800,1820],"xSR":741.5,"ySR":449.15000000000003,"xT1":424.9,"yT1":0,"xT2":1058.1,"yT2":0,"toosoon":0,"cond_shown":"equaldotanddens","ratio_trial":500,"smaller_num":"6","larger_num":"12","correct_side":1,"subjID":"MariaCamilaAlegriaLopez","gender":"1","age":"","school":"6"},{"start_time":1551902035259,"click_time":1551902037954,"finger_time":1551902037574,"fix_duration":1182.497639874875,"trial":25,"RT":2315,"MT":380,"sideResp":2,"stimulus":"img/900/randomdotsizeEA/L/1_Ratio_900_L_10_R_9.png","xmouse":[789,789,789,789,789,789,789,789,789,789,789,789,789,789,789,789,789,789,789,789,789,789,789,789,789,789,789,789,789,789,789,789,789,789,789,789,789,789,789,789,789,789,789,789,789,789,789,789,789,789,789,789,789,789,789,789,789,789,789,789,789,789,789,789,789,789,789,789,789,789,789,789,789,789,789,789,789,789,789,789,789,789,789,789,789,789,789,789,789,789,789,789,789,789,789,789,789,789,789,789,789,789,789,789,789,789,789,789,789,789,789,789,789,792,799,855,894,958,1010,1043,1048,1048,1050,1054,1060,1074,1078,1079,1079,1079,1079,1082,1089,1098,1106],"ymouse":[486,486,486,486,486,486,486,486,486,486,486,486,486,486,486,486,486,486,486,486,486,486,486,486,486,486,486,486,486,486,486,486,486,486,486,486,486,486,486,486,486,486,486,486,486,486,486,486,486,486,486,486,486,486,486,486,486,486,486,486,486,486,486,486,486,486,486,486,486,486,486,486,486,486,486,486,486,486,486,486,486,486,486,486,486,486,486,486,486,486,486,487,487,487,487,487,487,487,487,487,487,487,487,487,487,487,487,487,487,487,487,487,487,485,475,406,379,340,307,280,275,272,269,259,250,221,201,189,181,163,156,142,125,104,84],"timestamp_mouse":[15,35,55,75,94,114,135,155,174,195,215,235,255,274,296,315,335,354,376,395,415,435,455,475,494,515,534,555,575,595,615,635,654,674,695,715,736,756,774,795,815,834,855,875,894,915,934,954,975,995,1016,1035,1055,1075,1095,1116,1135,1154,1176,1195,1215,1235,1255,1274,1294,1314,1335,1355,1375,1395,1416,1435,1456,1474,1495,1516,1535,1554,1575,1595,1615,1634,1654,1675,1696,1714,1735,1755,1774,1796,1814,1834,1855,1875,1896,1915,1935,1955,1975,1996,2016,2035,2054,2075,2096,2116,2134,2154,2174,2195,2216,2235,2255,2276,2295,2315,2336,2354,2375,2396,2415,2435,2454,2474,2495,2515,2535,2555,2576,2597,2614,2636,2656,2674,2695],"xSR":741.5,"ySR":449.15000000000003,"xT1":424.9,"yT1":0,"xT2":1058.1,"yT2":0,"toosoon":0,"cond_shown":"randomdotsizeEA","ratio_trial":900,"smaller_num":"9","larger_num":"10","correct_side":1,"subjID":"MariaCamilaAlegriaLopez","gender":"1","age":"","school":"6"},{"start_time":1551902039933,"click_time":1551902041274,"finger_time":1551902040715,"fix_duration":1038.6476855264673,"trial":26,"RT":782,"MT":559,"sideResp":1,"stimulus":"img/500/equaldotanddens/R/9_Ratio_500_L_2_R_4.png","xmouse":[819,819,819,819,819,819,819,819,819,819,819,819,819,819,819,819,819,818,818,818,817,817,817,817,817,817,817,817,817,817,817,817,817,817,817,817,817,816,808,783,750,733,685,677,671,667,664,656,646,630,615,602,589,582,572,564,554,548,531,524,521,521,516,514,511,511,511,506],"ymouse":[469,469,469,469,469,469,469,469,469,469,469,469,469,469,469,469,469,469,498,515,519,519,519,519,519,519,519,519,519,519,519,519,519,519,519,519,519,519,487,428,397,384,333,320,312,306,302,292,281,268,257,246,224,209,193,183,174,167,150,144,136,134,120,116,112,112,111,94],"timestamp_mouse":[10,20,41,61,81,101,121,140,161,180,201,221,241,260,280,302,321,341,360,381,401,420,440,460,481,501,520,542,561,582,601,620,640,660,681,701,721,741,761,782,801,820,840,860,881,900,921,941,961,981,1000,1022,1040,1061,1081,1102,1120,1140,1160,1180,1200,1220,1241,1260,1280,1300,1320,1341],"xSR":741.5,"ySR":449.15000000000003,"xT1":424.9,"yT1":0,"xT2":1058.1,"yT2":0,"toosoon":0,"cond_shown":"equaldotanddens","ratio_trial":500,"smaller_num":"2","larger_num":"4","correct_side":2,"subjID":"MariaCamilaAlegriaLopez","gender":"1","age":"","school":"6"},{"start_time":1551902042333,"click_time":1551902044294,"finger_time":1551902043134,"fix_duration":257.10677968776616,"trial":27,"RT":801,"MT":1160,"sideResp":2,"stimulus":"img/900/randomdotsizeEA/R/9_Ratio_900_L_18_R_20.png","xmouse":[784,784,784,784,784,784,784,784,784,784,784,784,784,784,784,784,784,784,784,784,784,784,784,784,784,784,784,784,784,784,784,784,784,786,790,796,801,806,829,840,852,855,856,856,862,870,875,886,894,902,911,913,918,929,938,941,941,941,941,941,941,941,937,934,934,933,932,932,932,933,940,944,946,952,957,962,968,971,975,975,976,980,987,1005,1021,1021,1021,1021,1021,1021,1021,1021,1021,1021,1021,1021,1021,1021,1086],"ymouse":[533,533,533,533,533,533,533,533,533,533,533,533,533,533,533,533,533,533,533,533,533,533,533,533,533,533,533,533,533,533,533,533,533,533,533,533,533,533,518,500,474,457,419,386,355,332,313,283,273,265,259,257,253,246,239,238,238,238,238,238,238,238,241,244,244,246,246,246,246,245,224,201,197,180,167,154,137,118,83,73,63,54,43,19,3,3,3,3,3,3,3,3,3,3,3,3,3,3,12],"timestamp_mouse":[8,21,41,61,81,101,121,140,161,181,200,220,241,260,280,301,321,342,360,381,400,421,442,460,480,502,521,541,560,580,601,622,640,662,680,701,721,741,762,781,801,822,842,860,881,901,921,942,960,981,1002,1021,1042,1060,1082,1101,1121,1141,1161,1181,1200,1220,1241,1260,1281,1300,1320,1342,1361,1380,1400,1420,1441,1460,1481,1501,1521,1542,1560,1581,1600,1620,1642,1661,1682,1701,1721,1741,1761,1781,1802,1821,1841,1861,1881,1902,1921,1941,1961],"xSR":741.5,"ySR":449.15000000000003,"xT1":424.9,"yT1":0,"xT2":1058.1,"yT2":0,"toosoon":0,"cond_shown":"randomdotsizeEA","ratio_trial":900,"smaller_num":"18","larger_num":"20","correct_side":2,"subjID":"MariaCamilaAlegriaLopez","gender":"1","age":"","school":"6"},{"start_time":1551902045646,"click_time":1551902046994,"finger_time":1551902046634,"fix_duration":250,"trial":28,"RT":988,"MT":360,"sideResp":1,"stimulus":"img/900/equaldotanddens/R/7_Ratio_900_L_9_R_10.png","xmouse":[800,800,800,800,800,800,800,800,800,800,800,800,800,800,801,801,801,801,801,801,801,801,801,801,801,801,801,801,801,801,801,801,801,801,801,801,801,801,801,801,801,801,801,801,801,801,801,801,801,774,754,711,662,654,645,638,627,623,619,615,599,586,560,556,551,543,532,512],"ymouse":[456,456,456,456,456,456,456,456,456,456,456,456,456,456,456,456,456,456,456,456,456,456,456,456,456,456,456,456,456,456,456,456,456,456,456,456,456,456,456,456,456,456,456,456,456,456,456,456,456,432,417,382,315,295,271,248,217,203,193,181,151,131,100,98,94,90,84,72],"timestamp_mouse":[12,42,47,68,88,107,127,147,168,188,207,227,248,269,288,308,328,348,368,387,407,428,449,468,488,507,528,549,568,587,608,629,647,667,688,708,727,748,767,788,809,827,848,867,888,909,928,947,967,988,1008,1027,1048,1068,1088,1109,1129,1148,1167,1187,1207,1227,1248,1268,1287,1307,1328,1348],"xSR":741.5,"ySR":449.15000000000003,"xT1":424.9,"yT1":0,"xT2":1058.1,"yT2":0,"toosoon":0,"cond_shown":"equaldotanddens","ratio_trial":900,"smaller_num":"9","larger_num":"10","correct_side":2,"subjID":"MariaCamilaAlegriaLopez","gender":"1","age":"","school":"6"},{"start_time":1551902048879,"click_time":1551902049834,"finger_time":1551902049553,"fix_duration":1083.8022695090679,"trial":29,"RT":674,"MT":281,"sideResp":2,"stimulus":"img/250/equaldotsize/R/11_Ratio_250_L_3_R_12.png","xmouse":[782,782,782,782,782,782,782,782,782,782,782,782,782,782,782,782,782,782,782,782,782,782,782,782,782,782,782,782,782,782,792,806,832,861,887,912,916,919,923,937,943,953,961,972,991,1032,1053,1072],"ymouse":[501,501,501,501,501,501,501,501,501,501,501,501,501,501,501,501,501,501,501,501,501,501,501,501,501,501,501,501,501,501,500,498,480,445,417,365,340,301,271,211,153,133,114,89,62,36,28,21],"timestamp_mouse":[15,35,59,75,94,114,134,154,174,195,214,234,255,275,295,315,335,354,375,395,414,436,455,474,494,514,535,554,575,595,615,636,654,674,696,715,735,756,775,794,814,836,855,875,895,914,935,955],"xSR":741.5,"ySR":449.15000000000003,"xT1":424.9,"yT1":0,"xT2":1058.1,"yT2":0,"toosoon":0,"cond_shown":"equaldotsize","ratio_trial":250,"smaller_num":"3","larger_num":"12","correct_side":2,"subjID":"MariaCamilaAlegriaLopez","gender":"1","age":"","school":"6"},{"start_time":1551902051271,"click_time":1551902052194,"finger_time":1551902051773,"fix_duration":676.385308896161,"trial":30,"RT":502,"MT":421,"sideResp":1,"stimulus":"img/250/equaldotanddens/L/1_Ratio_250_L_8_R_2.png","xmouse":[781,781,781,781,781,781,781,781,781,781,781,781,781,781,781,781,781,781,781,781,778,767,758,753,749,739,719,688,664,654,629,617,596,588,577,561,554,554,554,554,554,549,547,547,544,527,511],"ymouse":[509,509,509,509,509,509,509,509,509,509,509,509,509,509,509,509,509,509,509,509,504,487,475,465,450,428,391,320,239,218,174,162,150,144,134,118,106,106,106,106,106,98,97,97,92,81,68],"timestamp_mouse":[11,36,42,63,83,102,122,143,163,182,202,222,243,263,283,302,323,343,362,383,402,422,442,463,484,502,523,543,562,582,603,623,644,663,682,703,723,744,763,782,802,823,842,862,882,902,923],"xSR":741.5,"ySR":449.15000000000003,"xT1":424.9,"yT1":0,"xT2":1058.1,"yT2":0,"toosoon":0,"cond_shown":"equaldotanddens","ratio_trial":250,"smaller_num":"2","larger_num":"8","correct_side":1,"subjID":"MariaCamilaAlegriaLopez","gender":"1","age":"","school":"6"},{"start_time":1551902054930,"click_time":1551902056314,"finger_time":1551902055513,"fix_duration":474.8127388737655,"trial":31,"RT":583,"MT":801,"sideResp":2,"stimulus":"img/750/equaldotanddens/R/4_Ratio_750_L_15_R_20.png","xmouse":[798,798,798,798,798,798,798,798,798,798,798,798,798,798,798,798,798,798,798,798,798,798,798,798,798,798,798,798,798,813,841,869,886,893,893,893,893,892,892,898,898,898,898,898,898,898,898,898,898,898,898,898,898,898,964,981,994,998,1004,1027,1033,1033,1034,1034,1034,1035,1041,1047,1052,1061],"ymouse":[462,462,462,462,462,462,462,462,462,462,462,462,462,462,462,462,462,462,462,462,462,462,462,462,462,462,462,462,462,441,415,408,408,407,381,348,317,278,200,16,16,16,16,16,16,16,16,16,16,16,16,16,16,16,0,11,17,17,19,18,15,15,14,14,14,14,15,16,18,19],"timestamp_mouse":[4,24,43,64,83,104,124,143,163,183,204,223,243,264,285,305,324,343,363,383,403,423,443,465,484,503,525,544,564,583,604,624,644,665,683,704,724,744,763,783,803,823,843,863,884,903,924,943,963,983,1003,1023,1043,1064,1083,1104,1123,1144,1163,1184,1204,1223,1244,1264,1284,1305,1324,1344,1365,1383],"xSR":741.5,"ySR":449.15000000000003,"xT1":424.9,"yT1":0,"xT2":1058.1,"yT2":0,"toosoon":0,"cond_shown":"equaldotanddens","ratio_trial":750,"smaller_num":"15","larger_num":"20","correct_side":2,"subjID":"MariaCamilaAlegriaLopez","gender":"1","age":"","school":"6"},{"start_time":1551902058556,"click_time":1551902060574,"finger_time":1551902059234,"fix_duration":941.1618586153816,"trial":32,"RT":678,"MT":1340,"sideResp":1,"stimulus":"img/250/randomdotsizeEA/L/1_Ratio_250_L_8_R_2.png","xmouse":[785,785,785,785,785,785,785,785,785,785,785,785,784,784,784,784,784,784,784,784,784,784,784,784,784,784,784,784,784,784,784,784,785,790,795,797,798,799,801,803,808,820,847,855,864,877,896,933,936,936,937,938,940,943,945,948,953,959,965,970,973,976,982,983,984,984,984,984,984,987,995,1004,1032,1045,1052,1052,1052,1052,1052,1052,1052,1052,1052,1052,1052,1052,1052,1052,1052,1052,1052,1052,1052,1051,1043,1022,985,912,681,559,429],"ymouse":[475,475,475,475,476,476,476,476,476,476,476,476,476,476,476,476,476,476,476,476,476,476,476,476,476,476,476,476,476,476,476,476,464,447,440,433,428,419,416,410,403,390,368,362,355,337,294,196,174,164,157,152,145,140,135,131,126,123,120,118,118,117,114,114,113,113,113,113,113,110,100,89,67,58,54,53,53,53,53,53,53,53,53,53,53,53,53,53,53,53,53,53,53,53,57,68,83,95,99,99,99],"timestamp_mouse":[19,38,58,78,97,117,137,158,179,198,218,238,257,278,298,318,338,357,377,397,418,438,458,477,498,518,538,557,578,597,617,637,657,678,698,718,738,758,777,799,818,837,858,877,898,918,937,958,977,998,1018,1039,1057,1077,1097,1117,1137,1158,1177,1198,1217,1237,1258,1279,1299,1318,1338,1357,1377,1397,1418,1438,1459,1478,1499,1517,1537,1557,1577,1597,1617,1637,1657,1679,1698,1719,1738,1759,1778,1798,1818,1839,1858,1877,1897,1917,1938,1958,1978,1998,2018],"xSR":741.5,"ySR":449.15000000000003,"xT1":424.9,"yT1":0,"xT2":1058.1,"yT2":0,"toosoon":0,"cond_shown":"randomdotsizeEA","ratio_trial":250,"smaller_num":"2","larger_num":"8","correct_side":1,"subjID":"MariaCamilaAlegriaLopez","gender":"1","age":"","school":"6"},{"start_time":1551902062461,"click_time":1551902063354,"finger_time":1551902063035,"fix_duration":1166.664757680058,"trial":33,"RT":574,"MT":319,"sideResp":2,"stimulus":"img/250/randomdotsizeEA/R/6_Ratio_250_L_6_R_24.png","xmouse":[772,772,772,772,772,772,772,772,772,772,772,772,772,772,772,772,772,772,777,780,781,781,782,792,800,807,810,816,829,831,831,831,831,831,831,831,831,831,832,841,864,909,968,1066,1119],"ymouse":[538,538,538,538,538,538,538,538,538,538,538,538,538,538,538,538,538,538,527,524,524,523,523,521,514,494,478,461,435,432,432,432,432,432,432,432,432,432,431,431,423,398,350,144,19],"timestamp_mouse":[14,33,53,72,92,112,132,152,172,192,212,232,253,272,292,312,333,352,372,392,412,433,452,472,493,513,533,553,574,594,613,633,652,672,692,713,732,752,774,792,813,832,852,872,892],"xSR":741.5,"ySR":449.15000000000003,"xT1":424.9,"yT1":0,"xT2":1058.1,"yT2":0,"toosoon":0,"cond_shown":"randomdotsizeEA","ratio_trial":250,"smaller_num":"6","larger_num":"24","correct_side":2,"subjID":"MariaCamilaAlegriaLopez","gender":"1","age":"","school":"6"},{"start_time":1551902069997,"click_time":1551902071313,"finger_time":1551902070673,"fix_duration":1461.368435669854,"trial":34,"RT":676,"MT":640,"sideResp":2,"stimulus":"img/900/equaldotsize/L/2_Ratio_900_L_20_R_18.png","xmouse":[776,776,776,776,776,776,776,776,776,776,776,776,776,776,776,776,776,776,776,776,776,776,776,776,776,776,776,778,790,798,805,814,817,822,825,828,824,814,808,807,810,826,889,918,922,926,926,927,934,943,949,958,963,969,977,983,995,1006,1016,1021,1026,1042,1049,1054,1056,1059],"ymouse":[512,512,512,512,512,512,512,512,512,512,512,512,512,512,512,512,512,512,512,512,512,512,512,512,512,512,512,512,489,479,471,462,454,441,431,409,335,309,291,273,257,234,183,158,154,151,150,149,142,134,128,121,118,115,112,110,101,91,83,79,75,67,64,62,62,61],"timestamp_mouse":[17,36,58,77,96,117,136,157,177,196,216,236,256,277,297,316,336,357,377,396,417,437,457,477,496,516,537,556,577,598,616,637,656,676,697,718,737,756,777,796,816,838,857,878,898,916,937,958,977,998,1017,1038,1056,1077,1096,1116,1138,1156,1176,1196,1216,1237,1256,1277,1297,1316],"xSR":741.5,"ySR":449.15000000000003,"xT1":424.9,"yT1":0,"xT2":1058.1,"yT2":0,"toosoon":0,"cond_shown":"equaldotsize","ratio_trial":900,"smaller_num":"18","larger_num":"20","correct_side":1,"subjID":"MariaCamilaAlegriaLopez","gender":"1","age":"","school":"6"},{"start_time":1551902073425,"click_time":1551902074654,"finger_time":1551902074095,"fix_duration":1069.1638873025695,"trial":35,"RT":670,"MT":559,"sideResp":1,"stimulus":"img/750/equaldotsize/L/14_Ratio_750_L_8_R_6.png","xmouse":[840,840,840,840,840,840,840,840,840,840,840,840,840,840,840,840,840,840,840,840,840,840,840,840,840,840,839,839,839,839,838,820,804,789,777,773,773,773,773,767,730,470,385,354,353,353,358,358,358,359,364,372,372,372,373,373,374,376,377,383,402,475],"ymouse":[492,492,492,492,492,492,492,492,492,492,492,492,492,492,492,492,492,492,492,492,492,492,492,492,492,492,492,492,492,492,492,474,456,439,431,430,430,430,429,424,395,252,210,194,193,193,175,158,139,121,100,87,87,87,87,87,87,86,86,86,85,81],"timestamp_mouse":[15,33,48,68,88,110,129,148,168,189,209,229,248,268,290,309,328,349,369,389,409,429,449,469,489,509,529,549,568,589,609,628,648,670,690,709,729,748,769,788,808,829,848,868,888,909,928,949,969,989,1008,1028,1048,1068,1088,1108,1129,1148,1169,1189,1210,1229],"xSR":741.5,"ySR":449.15000000000003,"xT1":424.9,"yT1":0,"xT2":1058.1,"yT2":0,"toosoon":0,"cond_shown":"equaldotsize","ratio_trial":750,"smaller_num":"6","larger_num":"8","correct_side":1,"subjID":"MariaCamilaAlegriaLopez","gender":"1","age":"","school":"6"},{"start_time":1551902076770,"click_time":1551902081513,"finger_time":1551902076995,"fix_duration":1214.1454518895882,"trial":36,"RT":225,"MT":4518,"sideResp":1,"stimulus":"img/750/randomdotsizeEA/R/12_Ratio_750_L_3_R_4.png","xmouse":[752,752,752,752,752,752,752,752,752,749,742,729,725,725,725,724,724,724,724,724,724,724,724,724,724,724,724,724,724,724,724,724,724,724,724,724,724,724,724,724,724,724,724,724,724,724,724,724,724,724,724,724,724,724,724,724,724,724,724,724,724,724,724,724,724,724,724,724,724,724,724,724,724,724,724,724,724,724,724,724,724,724,724,724,724,724,724,724,724,724,724,724,724,724,724,724,724,724,724,724,724,724,724,724,724,724,724,724,724,724,724,724,724,724,724,724,724,724,724,724,724,724,724,724,724,724,724,724,724,724,724,724,724,724,724,724,724,724,724,724,724,724,724,724,724,724,724,724,724,724,724,724,724,724,724,724,724,724,724,724,724,724,724,724,724,724,724,724,724,724,724,724,724,724,724,724,724,724,724,724,724,724,724,724,724,724,724,724,724,724,724,724,724,724,724,724,724,724,724,724,724,724,722,719,706,683,679,679,679,679,677,672,669,669,669,660,644,635,632,630,618,607,592,576,569,554,540,530,527,525,525,523,520,520,520,518,517,517],"ymouse":[473,473,473,473,473,473,473,473,473,470,462,452,448,448,448,448,448,448,448,448,448,448,448,448,448,448,448,448,448,448,448,448,448,448,448,448,448,448,448,448,448,448,448,448,448,448,448,448,448,448,448,448,448,448,448,448,448,448,448,448,448,448,448,448,448,448,448,448,448,448,448,448,448,448,448,448,448,448,448,448,448,448,448,448,448,448,448,448,448,448,448,448,448,448,448,448,448,448,448,448,448,448,448,448,448,448,448,448,448,448,448,448,448,448,448,448,448,448,448,448,448,448,448,448,448,448,448,448,448,448,448,448,448,448,448,448,448,448,448,448,448,448,448,448,448,448,448,448,448,448,448,448,448,448,448,448,448,448,448,448,448,448,448,448,448,448,448,448,448,448,448,448,448,448,448,448,448,448,448,448,448,448,448,448,448,448,448,448,448,448,448,448,448,448,448,448,448,448,448,448,448,448,448,448,444,437,436,436,436,436,428,411,405,405,405,368,308,269,241,217,192,173,156,143,137,129,120,115,111,110,110,110,108,108,108,103,101,96],"timestamp_mouse":[11,31,45,63,84,103,124,143,163,184,205,225,243,263,283,304,324,345,364,383,403,423,443,463,483,503,524,544,564,583,603,623,643,663,685,703,725,744,764,784,804,823,844,864,884,903,923,943,963,983,1003,1023,1043,1063,1083,1103,1123,1143,1163,1184,1205,1223,1244,1263,1284,1303,1323,1343,1364,1384,1404,1425,1444,1465,1484,1504,1523,1543,1563,1584,1603,1625,1644,1664,1684,1704,1723,1743,1763,1784,1804,1824,1844,1864,1884,1904,1924,1944,1963,1984,2004,2024,2043,2063,2084,2104,2124,2143,2164,2185,2203,2224,2244,2264,2284,2305,2323,2343,2364,2385,2403,2424,2444,2463,2484,2503,2523,2544,2564,2584,2603,2624,2643,2663,2685,2703,2724,2743,2764,2785,2803,2824,2844,2863,2884,2903,2924,2944,2964,2984,3003,3024,3044,3063,3084,3103,3123,3143,3165,3185,3204,3224,3243,3263,3285,3303,3323,3344,3365,3384,3403,3423,3444,3463,3483,3503,3523,3544,3564,3583,3605,3624,3644,3663,3684,3703,3724,3745,3764,3785,3803,3823,3844,3863,3884,3903,3923,3944,3965,3985,4003,4023,4044,4064,4085,4103,4123,4144,4163,4183,4203,4223,4243,4263,4283,4303,4323,4343,4363,4383,4403,4424,4443,4463,4483,4504,4524,4544,4564,4585,4603,4625,4644,4664,4684,4704,4724,4743],"xSR":741.5,"ySR":449.15000000000003,"xT1":424.9,"yT1":0,"xT2":1058.1,"yT2":0,"toosoon":0,"cond_shown":"randomdotsizeEA","ratio_trial":750,"smaller_num":"3","larger_num":"4","correct_side":2,"subjID":"MariaCamilaAlegriaLopez","gender":"1","age":"","school":"6"},{"start_time":1551902087458,"click_time":1551902088575,"finger_time":1551902088053,"fix_duration":1263.7664036007295,"trial":37,"RT":595,"MT":522,"sideResp":2,"stimulus":"img/250/equaldotanddens/R/13_Ratio_250_L_2_R_8.png","xmouse":[758,758,758,758,758,758,758,758,758,758,758,758,758,758,758,758,758,758,758,758,758,758,759,764,769,774,787,798,817,850,896,976,988,996,1006,1012,1012,1012,1012,1012,1012,1012,1012,1012,1012,1012,1012,1012,1012,1012,1012,1012,1012,1012,1081,1081],"ymouse":[514,514,514,514,514,514,514,514,514,514,514,514,514,514,514,514,514,514,514,514,514,514,513,511,509,507,498,485,455,394,279,91,64,40,12,2,2,2,2,2,2,2,2,2,2,2,2,2,2,2,2,2,2,2,0,17],"timestamp_mouse":[15,37,56,75,95,116,136,156,175,196,217,235,255,275,296,316,336,355,375,397,415,435,455,476,497,516,536,557,576,595,616,635,655,675,696,717,736,755,776,796,817,835,856,875,895,917,936,956,976,996,1017,1036,1057,1076,1097,1116],"xSR":741.5,"ySR":449.15000000000003,"xT1":424.9,"yT1":0,"xT2":1058.1,"yT2":0,"toosoon":0,"cond_shown":"equaldotanddens","ratio_trial":250,"smaller_num":"2","larger_num":"8","correct_side":2,"subjID":"MariaCamilaAlegriaLopez","gender":"1","age":"","school":"6"},{"start_time":1551902091301,"click_time":1551902092254,"finger_time":1551902092035,"fix_duration":1424.4707414759812,"trial":38,"RT":734,"MT":219,"sideResp":1,"stimulus":"img/750/equaldotsize/L/13_Ratio_750_L_8_R_6.png","xmouse":[765,765,765,765,765,765,765,765,765,765,765,765,765,765,765,765,765,765,765,765,765,765,765,765,765,765,765,765,765,765,765,765,765,761,755,749,737,712,697,596,558,535,520,512,508,508,508,508],"ymouse":[509,509,509,509,509,509,509,509,509,509,509,509,509,509,509,509,509,509,509,509,509,509,509,509,509,509,509,509,509,509,509,509,509,494,477,465,449,412,392,276,232,204,187,170,144,129,111,89],"timestamp_mouse":[13,33,53,72,93,113,133,152,173,193,213,232,254,272,292,312,332,353,373,392,413,433,454,472,493,513,533,553,572,594,612,634,654,672,692,713,734,753,772,792,812,832,853,872,893,913,934,953],"xSR":741.5,"ySR":449.15000000000003,"xT1":424.9,"yT1":0,"xT2":1058.1,"yT2":0,"toosoon":0,"cond_shown":"equaldotsize","ratio_trial":750,"smaller_num":"6","larger_num":"8","correct_side":1,"subjID":"MariaCamilaAlegriaLopez","gender":"1","age":"","school":"6"},{"start_time":1551902094416,"click_time":1551902095573,"finger_time":1551902095033,"fix_duration":1180.2581421994676,"trial":39,"RT":617,"MT":540,"sideResp":1,"stimulus":"img/250/randomdotsizeEA/L/7_Ratio_250_L_8_R_2.png","xmouse":[812,812,812,812,812,812,812,812,812,812,812,812,812,812,812,812,812,812,812,812,812,812,812,812,812,812,812,810,809,808,805,805,805,807,808,811,812,813,808,800,788,781,749,684,667,657,647,640,623,619,611,594,581,567,544,538,529,520],"ymouse":[483,483,483,483,483,483,483,483,483,483,483,483,483,483,483,483,483,483,483,483,483,483,483,483,483,483,483,480,466,458,443,428,415,398,392,384,379,373,357,344,326,316,271,183,154,130,107,91,72,69,65,59,59,59,59,59,59,59],"timestamp_mouse":[20,43,57,77,98,117,137,158,179,197,217,237,257,278,298,319,338,358,378,397,418,437,458,478,498,518,537,558,578,597,617,637,659,678,699,717,737,758,778,797,818,837,857,878,898,917,937,958,978,997,1019,1038,1059,1078,1098,1118,1137,1157],"xSR":741.5,"ySR":449.15000000000003,"xT1":424.9,"yT1":0,"xT2":1058.1,"yT2":0,"toosoon":0,"cond_shown":"randomdotsizeEA","ratio_trial":250,"smaller_num":"2","larger_num":"8","correct_side":1,"subjID":"MariaCamilaAlegriaLopez","gender":"1","age":"","school":"6"},{"start_time":1551902096585,"click_time":1551902097595,"finger_time":1551902097273,"fix_duration":250,"trial":40,"RT":688,"MT":322,"sideResp":2,"stimulus":"img/900/equaldotsize/R/7_Ratio_900_L_9_R_10.png","xmouse":[809,809,809,809,809,809,809,809,809,809,809,809,809,809,809,809,809,809,809,809,809,809,809,809,809,809,809,809,809,809,809,813,824,835,848,861,892,919,958,989,1011,1025,1025,1025,1025,1026,1026,1027,1035,1056,1074],"ymouse":[507,507,507,507,507,507,507,507,507,507,507,507,507,507,507,507,507,507,507,507,507,507,507,507,507,507,507,507,507,507,507,500,474,457,438,416,326,232,135,84,64,57,57,57,57,57,57,57,57,61,66],"timestamp_mouse":[9,28,49,70,89,109,129,149,169,188,208,230,248,268,289,310,328,349,368,388,409,429,449,469,488,509,529,548,568,588,610,630,649,669,688,709,728,750,770,788,808,828,848,869,888,910,929,949,970,989,1010],"xSR":741.5,"ySR":449.15000000000003,"xT1":424.9,"yT1":0,"xT2":1058.1,"yT2":0,"toosoon":0,"cond_shown":"equaldotsize","ratio_trial":900,"smaller_num":"9","larger_num":"10","correct_side":2,"subjID":"MariaCamilaAlegriaLopez","gender":"1","age":"","school":"6"},{"start_time":1551902100125,"click_time":1551902101153,"finger_time":1551902100753,"fix_duration":329.0753794564758,"trial":41,"RT":628,"MT":400,"sideResp":1,"stimulus":"img/500/equaldotsize/L/4_Ratio_500_L_18_R_9.png","xmouse":[815,815,815,815,815,815,815,815,815,815,815,815,815,815,815,815,815,815,815,815,815,815,815,815,815,815,807,797,784,762,750,735,705,659,627,622,619,617,615,610,609,600,573,561,552,550,548,545,541,532,526,522],"ymouse":[516,516,516,516,516,516,516,516,516,516,516,516,516,516,516,516,516,516,516,516,516,516,516,516,516,516,517,517,512,498,485,459,413,347,292,272,257,243,234,216,204,179,118,102,84,81,74,64,49,28,22,21],"timestamp_mouse":[12,30,49,68,88,109,129,149,168,190,208,228,249,269,289,308,328,349,368,388,408,430,450,469,490,508,529,550,568,588,608,628,648,669,688,710,729,750,770,788,809,829,849,869,888,909,928,950,969,988,1009,1028],"xSR":741.5,"ySR":449.15000000000003,"xT1":424.9,"yT1":0,"xT2":1058.1,"yT2":0,"toosoon":0,"cond_shown":"equaldotsize","ratio_trial":500,"smaller_num":"9","larger_num":"18","correct_side":1,"subjID":"MariaCamilaAlegriaLopez","gender":"1","age":"","school":"6"},{"start_time":1551902103593,"click_time":1551902105894,"finger_time":1551902105674,"fix_duration":1479.487759354039,"trial":42,"RT":2081,"MT":220,"sideResp":2,"stimulus":"img/900/equaldotsize/L/2_Ratio_900_L_20_R_18.png","xmouse":[801,801,801,801,801,801,801,801,801,801,801,801,801,801,801,801,801,801,801,801,801,801,801,801,801,801,801,801,801,801,801,801,801,801,801,801,801,801,801,801,801,801,801,801,801,801,801,801,801,801,801,801,801,801,801,801,801,801,801,801,801,801,801,801,801,801,801,800,799,798,798,798,798,798,798,797,797,797,797,797,797,797,797,797,797,797,797,797,797,797,797,797,797,797,797,797,797,797,797,797,795,794,794,794,798,804,824,837,860,883,925,1026,1063,1089,1114,1125],"ymouse":[537,537,537,537,537,537,537,537,537,537,537,537,537,537,537,537,537,537,537,537,537,537,537,537,537,537,537,537,537,537,537,537,537,537,537,537,537,537,537,537,537,537,537,537,537,537,537,537,537,537,537,537,537,537,537,537,537,537,537,537,537,537,537,537,537,537,533,525,517,514,512,510,509,506,504,504,503,503,503,503,503,503,503,503,503,503,503,503,503,503,503,503,503,503,503,503,503,503,503,501,492,475,464,452,436,421,383,362,331,308,264,193,167,144,116,96],"timestamp_mouse":[9,34,40,60,82,101,120,140,161,180,200,220,241,261,280,300,321,340,360,380,400,421,440,460,481,501,520,541,560,580,601,621,640,661,680,702,721,742,760,780,800,820,840,860,882,900,920,941,960,980,1000,1020,1041,1060,1080,1100,1121,1142,1162,1180,1200,1221,1240,1260,1280,1300,1322,1340,1360,1382,1402,1421,1441,1460,1480,1502,1521,1540,1560,1581,1601,1620,1640,1660,1680,1700,1720,1742,1760,1780,1800,1821,1841,1861,1880,1900,1920,1941,1960,1980,2000,2021,2041,2060,2081,2101,2122,2140,2162,2181,2200,2222,2240,2260,2280,2301],"xSR":741.5,"ySR":449.15000000000003,"xT1":424.9,"yT1":0,"xT2":1058.1,"yT2":0,"toosoon":0,"cond_shown":"equaldotsize","ratio_trial":900,"smaller_num":"18","larger_num":"20","correct_side":1,"subjID":"MariaCamilaAlegriaLopez","gender":"1","age":"","school":"6"},{"start_time":1551902107214,"click_time":1551902107833,"finger_time":1551902107693,"fix_duration":558.4213625003741,"trial":43,"RT":479,"MT":140,"sideResp":1,"stimulus":"img/900/equaldotanddens/L/2_Ratio_900_L_20_R_18.png","xmouse":[794,794,794,794,794,794,794,794,794,794,794,794,794,794,794,794,794,794,794,795,783,775,769,761,750,702,631,583,542,501,435],"ymouse":[508,508,508,508,508,508,508,508,508,508,508,508,508,508,508,508,508,508,508,505,477,465,457,449,435,380,296,252,216,178,73],"timestamp_mouse":[29,39,60,80,99,120,139,159,179,200,219,239,259,279,299,319,339,359,379,399,419,439,459,479,499,519,539,559,580,599,619],"xSR":741.5,"ySR":449.15000000000003,"xT1":424.9,"yT1":0,"xT2":1058.1,"yT2":0,"toosoon":0,"cond_shown":"equaldotanddens","ratio_trial":900,"smaller_num":"18","larger_num":"20","correct_side":1,"subjID":"MariaCamilaAlegriaLopez","gender":"1","age":"","school":"6"},{"start_time":1551902110035,"click_time":1551902111174,"finger_time":1551902110453,"fix_duration":899.1086889899977,"trial":44,"RT":418,"MT":721,"sideResp":2,"stimulus":"img/750/randomdotsizeEA/L/1_Ratio_750_L_20_R_15.png","xmouse":[813,813,813,813,813,813,813,813,813,813,813,813,813,814,818,821,823,827,832,839,842,844,847,848,857,858,858,861,866,870,880,882,890,892,894,894,896,899,904,924,951,991,1000,1017,1036,1051,1068,1086,1122,1146,1147,1147,1147,1147,1143,1140,1136],"ymouse":[533,533,533,533,533,533,533,533,533,533,530,526,522,520,511,508,507,504,500,492,490,490,489,489,488,488,488,488,483,471,453,444,430,424,414,410,402,393,380,349,330,301,293,272,250,235,219,204,163,126,122,120,119,118,105,101,97],"timestamp_mouse":[33,38,59,78,98,118,138,159,178,198,218,238,258,280,298,318,338,358,378,398,418,438,458,478,499,518,538,558,578,598,618,638,658,678,698,718,739,759,778,799,819,839,859,878,898,919,938,958,978,998,1020,1038,1058,1078,1098,1118,1139],"xSR":741.5,"ySR":449.15000000000003,"xT1":424.9,"yT1":0,"xT2":1058.1,"yT2":0,"toosoon":0,"cond_shown":"randomdotsizeEA","ratio_trial":750,"smaller_num":"15","larger_num":"20","correct_side":1,"subjID":"MariaCamilaAlegriaLopez","gender":"1","age":"","school":"6"},{"start_time":1551902112345,"click_time":1551902113593,"finger_time":1551902113214,"fix_duration":250,"trial":45,"RT":869,"MT":379,"sideResp":2,"stimulus":"img/500/equaldotsize/R/1_Ratio_500_L_9_R_18.png","xmouse":[767,767,767,767,767,767,767,767,767,767,767,767,767,767,767,767,767,767,767,767,767,767,767,767,767,767,767,767,767,767,767,767,767,767,767,767,767,767,767,767,767,771,785,802,813,823,823,823,825,829,842,847,855,865,879,914,958,998,1033,1055,1073,1076,1080],"ymouse":[491,491,491,491,491,491,491,491,491,491,491,491,491,491,491,491,491,491,491,491,491,491,491,491,491,491,491,491,491,491,491,491,491,491,491,491,491,491,491,491,491,485,453,412,395,382,368,353,335,322,299,287,276,265,251,226,201,169,140,120,104,101,98],"timestamp_mouse":[10,29,49,68,88,108,129,148,168,188,208,229,248,268,288,308,328,348,368,388,408,428,448,468,488,508,528,548,568,588,608,628,648,668,689,708,729,748,768,788,808,828,849,869,889,908,929,949,969,989,1008,1029,1049,1068,1089,1108,1129,1148,1168,1189,1209,1229,1248],"xSR":741.5,"ySR":449.15000000000003,"xT1":424.9,"yT1":0,"xT2":1058.1,"yT2":0,"toosoon":0,"cond_shown":"equaldotsize","ratio_trial":500,"smaller_num":"9","larger_num":"18","correct_side":2,"subjID":"MariaCamilaAlegriaLopez","gender":"1","age":"","school":"6"},{"start_time":1551902115418,"click_time":1551902116275,"finger_time":1551902116213,"fix_duration":943.9491415097224,"trial":46,"RT":795,"MT":62,"sideResp":1,"stimulus":"img/250/randomdotsizeEA/L/1_Ratio_250_L_8_R_2.png","xmouse":[800,800,800,800,800,800,800,800,800,800,800,800,800,800,800,800,800,800,800,800,800,800,800,800,800,800,800,800,800,800,800,800,800,800,800,800,800,789,778,745,691,498,444],"ymouse":[509,509,509,509,509,509,509,509,509,509,509,509,509,509,509,509,509,509,509,509,509,509,509,509,509,509,509,509,509,509,509,509,509,509,509,509,509,494,477,433,364,156,90],"timestamp_mouse":[16,35,55,75,96,115,136,156,175,195,215,236,255,275,295,317,336,356,376,395,417,436,455,475,495,515,536,555,576,596,616,635,655,675,696,715,735,755,776,795,816,835,856],"xSR":741.5,"ySR":449.15000000000003,"xT1":424.9,"yT1":0,"xT2":1058.1,"yT2":0,"toosoon":0,"cond_shown":"randomdotsizeEA","ratio_trial":250,"smaller_num":"2","larger_num":"8","correct_side":1,"subjID":"MariaCamilaAlegriaLopez","gender":"1","age":"","school":"6"},{"start_time":1551902119333,"click_time":1551902120373,"finger_time":1551902120033,"fix_duration":359.97461753874916,"trial":47,"RT":700,"MT":340,"sideResp":1,"stimulus":"img/250/equaldotanddens/L/14_Ratio_250_L_12_R_3.png","xmouse":[784,784,784,784,784,784,784,784,784,784,784,784,784,784,784,784,784,784,784,784,784,784,784,784,784,784,784,784,784,784,784,784,784,779,772,734,660,630,612,603,600,598,598,598,593,589,579,573,567,559,551,544,509],"ymouse":[478,478,478,478,478,478,478,478,478,478,478,478,478,478,478,478,478,478,478,478,478,478,478,478,478,478,478,478,478,478,478,478,478,477,473,417,301,257,232,216,207,204,204,204,194,183,157,144,134,120,108,95,50],"timestamp_mouse":[10,20,48,61,80,100,120,140,161,180,200,221,240,260,280,300,320,340,360,380,401,420,440,460,481,501,520,540,561,581,601,621,640,660,680,700,720,740,760,780,801,820,840,860,881,900,920,940,960,981,1000,1020,1040],"xSR":741.5,"ySR":449.15000000000003,"xT1":424.9,"yT1":0,"xT2":1058.1,"yT2":0,"toosoon":0,"cond_shown":"equaldotanddens","ratio_trial":250,"smaller_num":"3","larger_num":"12","correct_side":1,"subjID":"MariaCamilaAlegriaLopez","gender":"1","age":"","school":"6"},{"start_time":1551902121814,"click_time":1551902122915,"finger_time":1551902122533,"fix_duration":577.6234086078508,"trial":48,"RT":719,"MT":382,"sideResp":1,"stimulus":"img/750/equaldotanddens/L/13_Ratio_750_L_8_R_6.png","xmouse":[778,778,778,778,778,778,778,778,778,778,778,778,778,778,778,778,778,778,778,778,778,778,778,778,778,778,778,778,778,778,778,778,778,778,776,764,733,687,665,657,653,649,641,623,618,614,607,596,572,546,534,524,513,509,504,500],"ymouse":[494,494,494,494,494,494,494,494,494,494,494,494,494,494,494,494,494,494,494,494,494,494,494,494,494,494,494,494,494,494,494,494,494,494,494,484,438,361,321,310,296,282,269,249,244,239,231,216,180,150,138,128,117,112,105,97],"timestamp_mouse":[1,19,39,59,79,99,119,139,159,179,199,219,239,259,280,299,320,340,360,379,399,419,439,460,480,499,519,539,560,579,599,619,639,660,679,699,719,741,759,779,799,819,839,859,880,900,919,940,959,980,1000,1020,1040,1059,1079,1101],"xSR":741.5,"ySR":449.15000000000003,"xT1":424.9,"yT1":0,"xT2":1058.1,"yT2":0,"toosoon":0,"cond_shown":"equaldotanddens","ratio_trial":750,"smaller_num":"6","larger_num":"8","correct_side":1,"subjID":"MariaCamilaAlegriaLopez","gender":"1","age":"","school":"6"},{"start_time":1551902124117,"click_time":1551902125274,"finger_time":1551902124774,"fix_duration":303.9009730458707,"trial":49,"RT":657,"MT":500,"sideResp":2,"stimulus":"img/750/equaldotanddens/R/5_Ratio_750_L_15_R_20.png","xmouse":[802,802,802,802,802,802,802,802,802,802,802,802,802,802,802,802,802,802,802,802,802,802,802,797,778,756,744,742,742,742,742,742,740,737,734,734,734,734,735,743,780,821,930,966,992,1009,1029,1059,1074,1088,1100,1111,1118,1119,1119,1119,1118,1112],"ymouse":[476,476,476,476,476,476,476,476,476,476,476,476,476,476,476,476,476,476,476,476,476,476,476,477,477,477,477,477,477,477,477,477,477,477,477,477,477,477,477,471,434,398,292,257,232,215,202,185,177,170,165,157,145,134,126,115,105,76],"timestamp_mouse":[16,42,56,76,97,116,137,156,176,197,217,236,256,276,296,316,337,357,377,397,417,436,457,477,496,516,536,556,576,596,616,636,657,677,696,716,737,756,776,796,816,836,856,876,897,916,936,957,976,996,1016,1036,1056,1076,1096,1117,1137,1156],"xSR":741.5,"ySR":449.15000000000003,"xT1":424.9,"yT1":0,"xT2":1058.1,"yT2":0,"toosoon":0,"cond_shown":"equaldotanddens","ratio_trial":750,"smaller_num":"15","larger_num":"20","correct_side":2,"subjID":"MariaCamilaAlegriaLopez","gender":"1","age":"","school":"6"},{"start_time":1551902127130,"click_time":1551902128193,"finger_time":1551902127934,"fix_duration":815.0095676419975,"trial":50,"RT":804,"MT":259,"sideResp":2,"stimulus":"img/500/randomdotsizeEA/R/9_Ratio_500_L_2_R_4.png","xmouse":[783,783,783,783,783,783,783,783,783,783,783,783,783,783,783,783,783,783,783,783,783,783,783,783,783,783,783,783,783,783,783,783,783,783,783,783,783,783,783,803,863,927,1049,1096,1104,1108,1112,1111,1108,1104,1102,1104,1107,1107],"ymouse":[480,480,480,480,480,480,480,480,480,480,480,480,480,480,480,480,480,480,480,480,480,480,480,480,480,480,480,480,480,480,480,480,480,480,480,480,480,480,480,471,430,391,323,289,280,277,260,230,211,193,175,147,108,99],"timestamp_mouse":[11,23,43,64,84,103,123,143,163,183,204,223,243,263,284,305,323,344,363,383,403,423,444,464,483,504,523,543,563,585,604,623,643,663,683,703,723,743,763,783,804,823,844,863,883,903,923,944,963,984,1004,1023,1044,1063],"xSR":741.5,"ySR":449.15000000000003,"xT1":424.9,"yT1":0,"xT2":1058.1,"yT2":0,"toosoon":0,"cond_shown":"randomdotsizeEA","ratio_trial":500,"smaller_num":"2","larger_num":"4","correct_side":2,"subjID":"MariaCamilaAlegriaLopez","gender":"1","age":"","school":"6"},{"start_time":1551902131713,"click_time":1551902132514,"finger_time":1551902132113,"fix_duration":1217.0674443144992,"trial":51,"RT":400,"MT":401,"sideResp":2,"stimulus":"img/900/randomdotsizeEA/L/4_Ratio_900_L_20_R_18.png","xmouse":[765,765,765,765,765,765,765,765,765,765,765,765,765,765,765,765,765,765,766,788,810,831,855,872,882,882,882,882,882,884,888,894,901,907,919,923,925,928,937,1051,1102],"ymouse":[513,513,513,513,513,513,513,513,513,513,513,513,513,513,513,513,513,513,512,465,433,402,374,354,337,336,336,336,307,274,248,224,205,190,173,168,165,157,147,90,69],"timestamp_mouse":[10,21,40,60,80,100,120,140,161,181,200,221,240,260,280,301,320,340,361,380,400,420,441,460,480,501,521,541,562,580,600,620,641,660,680,700,720,740,762,780,800],"xSR":741.5,"ySR":449.15000000000003,"xT1":424.9,"yT1":0,"xT2":1058.1,"yT2":0,"toosoon":0,"cond_shown":"randomdotsizeEA","ratio_trial":900,"smaller_num":"18","larger_num":"20","correct_side":1,"subjID":"MariaCamilaAlegriaLopez","gender":"1","age":"","school":"6"},{"start_time":1551902135590,"click_time":1551902136593,"finger_time":1551902136293,"fix_duration":773.4894810614146,"trial":52,"RT":703,"MT":300,"sideResp":2,"stimulus":"img/500/equaldotanddens/R/9_Ratio_500_L_2_R_4.png","xmouse":[757,757,757,757,757,757,757,757,757,757,757,757,757,757,757,757,757,757,757,757,757,757,757,757,757,757,757,757,757,757,757,757,757,759,763,798,838,884,932,960,986,989,990,991,991,996,1006,1017,1031,1046,1064],"ymouse":[524,524,524,524,524,524,524,524,524,524,524,524,524,524,524,524,524,524,524,524,524,524,524,524,524,524,524,524,524,524,524,524,524,520,499,376,326,287,247,215,175,169,167,166,166,157,144,127,109,93,78],"timestamp_mouse":[11,32,43,63,83,104,123,143,163,183,203,223,244,263,283,303,323,343,363,383,403,423,444,463,483,503,523,544,563,584,603,624,643,663,683,703,723,743,763,783,803,823,843,863,884,903,924,943,963,983,1003],"xSR":741.5,"ySR":449.15000000000003,"xT1":424.9,"yT1":0,"xT2":1058.1,"yT2":0,"toosoon":0,"cond_shown":"equaldotanddens","ratio_trial":500,"smaller_num":"2","larger_num":"4","correct_side":2,"subjID":"MariaCamilaAlegriaLopez","gender":"1","age":"","school":"6"},{"start_time":1551902139266,"click_time":1551902140835,"finger_time":1551902140373,"fix_duration":250,"trial":53,"RT":1107,"MT":462,"sideResp":2,"stimulus":"img/750/equaldotanddens/R/7_Ratio_750_L_3_R_4.png","xmouse":[798,798,798,798,798,798,798,798,798,798,798,798,798,798,798,798,798,798,798,798,798,798,798,798,798,798,798,798,798,798,798,798,798,798,798,798,798,798,798,798,798,798,798,798,798,798,798,798,798,798,799,799,799,818,838,845,885,935,954,969,977,987,1003,1011,1016,1016,1016,1016,1016,1017,1022,1029,1045,1048,1048,1048,1048,1054,1062],"ymouse":[459,459,459,459,459,459,459,459,459,459,459,459,459,459,459,459,459,459,459,459,459,459,459,459,459,459,459,459,459,459,459,459,459,459,459,459,459,459,459,459,459,459,459,459,459,459,459,459,459,459,459,459,459,457,453,453,439,372,312,253,190,130,31,17,12,12,12,12,12,15,27,40,56,57,57,57,57,57,52],"timestamp_mouse":[11,38,47,67,87,108,127,148,167,187,207,227,247,267,287,307,327,347,367,387,407,427,447,468,487,507,527,547,568,588,607,627,647,669,687,707,727,747,767,787,807,828,848,867,887,907,928,948,968,988,1007,1028,1047,1067,1087,1107,1128,1147,1168,1187,1207,1228,1247,1268,1287,1307,1328,1347,1367,1388,1409,1427,1447,1467,1488,1509,1529,1547,1569],"xSR":741.5,"ySR":449.15000000000003,"xT1":424.9,"yT1":0,"xT2":1058.1,"yT2":0,"toosoon":0,"cond_shown":"equaldotanddens","ratio_trial":750,"smaller_num":"3","larger_num":"4","correct_side":2,"subjID":"MariaCamilaAlegriaLopez","gender":"1","age":"","school":"6"},{"start_time":1551902143666,"click_time":1551902144713,"finger_time":1551902144334,"fix_duration":250,"trial":54,"RT":668,"MT":379,"sideResp":2,"stimulus":"img/750/equaldotanddens/R/4_Ratio_750_L_15_R_20.png","xmouse":[790,790,790,790,790,788,787,783,783,783,782,782,782,782,782,782,782,782,782,782,782,782,782,782,782,782,782,782,782,782,782,782,784,790,799,820,828,867,876,883,886,886,886,886,886,886,887,909,924,942,966,1001,1120],"ymouse":[463,463,463,463,463,463,463,464,464,464,464,464,464,464,464,464,464,464,464,464,464,464,464,464,464,464,464,464,464,464,464,464,450,431,396,313,283,188,170,159,153,152,152,152,152,152,151,147,141,127,106,77,36],"timestamp_mouse":[11,32,47,67,87,107,128,148,167,187,207,228,248,267,287,307,327,347,367,388,407,427,448,467,487,507,527,548,567,588,607,627,647,668,687,707,728,747,767,788,807,827,848,867,887,907,927,948,968,987,1008,1027,1047],"xSR":741.5,"ySR":449.15000000000003,"xT1":424.9,"yT1":0,"xT2":1058.1,"yT2":0,"toosoon":0,"cond_shown":"equaldotanddens","ratio_trial":750,"smaller_num":"15","larger_num":"20","correct_side":2,"subjID":"MariaCamilaAlegriaLopez","gender":"1","age":"","school":"6"},{"start_time":1551902147084,"click_time":1551902148153,"finger_time":1551902147674,"fix_duration":1449.0526590132183,"trial":55,"RT":590,"MT":479,"sideResp":2,"stimulus":"img/750/equaldotanddens/R/3_Ratio_750_L_15_R_20.png","xmouse":[758,758,758,758,758,758,758,758,758,758,758,758,758,758,758,758,758,758,758,758,763,771,789,794,794,794,796,808,823,844,871,947,976,1005,1017,1024,1033,1038,1042,1046,1050,1054,1054,1054,1054,1054,1054,1054,1054,1054,1054,1054,1055,1067],"ymouse":[519,519,519,519,519,519,519,519,519,519,519,519,519,519,519,519,519,519,519,519,519,519,519,519,519,519,519,507,488,470,439,323,272,226,209,196,171,156,141,125,112,99,99,99,99,99,99,99,99,99,99,99,97,79],"timestamp_mouse":[9,30,49,80,89,109,129,149,169,189,209,229,250,269,289,309,329,350,370,389,410,429,449,469,489,509,529,549,570,590,609,630,649,669,689,709,730,749,769,790,810,830,849,869,889,909,929,949,969,990,1010,1030,1049,1069],"xSR":741.5,"ySR":449.15000000000003,"xT1":424.9,"yT1":0,"xT2":1058.1,"yT2":0,"toosoon":0,"cond_shown":"equaldotanddens","ratio_trial":750,"smaller_num":"15","larger_num":"20","correct_side":2,"subjID":"MariaCamilaAlegriaLopez","gender":"1","age":"","school":"6"},{"start_time":1551902156022,"click_time":1551902157694,"finger_time":1551902156914,"fix_duration":1428.4459791423917,"trial":56,"RT":892,"MT":780,"sideResp":1,"stimulus":"img/250/randomdotsizeEA/R/11_Ratio_250_L_3_R_12.png","xmouse":[817,817,817,817,817,817,817,817,817,817,817,817,817,817,817,817,817,817,817,817,817,817,817,817,817,817,817,817,817,817,817,817,817,817,817,817,817,817,817,817,817,817,817,802,782,769,743,740,734,729,711,706,702,696,692,693,696,698,699,699,699,698,685,679,678,675,674,672,670,668,662,655,644,632,624,608,576,566,555,545,539,532,528,524],"ymouse":[501,501,501,501,501,501,501,501,501,501,501,501,501,501,501,501,501,501,501,501,501,501,501,501,501,501,501,501,501,501,501,501,501,501,501,501,501,501,501,501,501,501,501,480,443,415,380,375,368,359,331,317,302,278,261,248,245,243,242,242,226,205,171,159,156,151,148,147,145,143,139,135,129,126,122,115,104,102,101,100,100,97,95,91],"timestamp_mouse":[13,42,51,71,91,111,132,151,172,191,211,231,251,271,291,312,332,351,372,391,411,432,451,471,491,512,531,551,571,592,612,632,651,672,692,711,731,751,772,791,811,832,852,871,892,912,931,951,971,991,1013,1031,1051,1071,1091,1112,1131,1151,1173,1191,1212,1231,1251,1272,1291,1312,1331,1351,1372,1391,1412,1431,1451,1472,1491,1512,1531,1553,1571,1591,1612,1631,1652,1671],"xSR":741.5,"ySR":449.15000000000003,"xT1":424.9,"yT1":0,"xT2":1058.1,"yT2":0,"toosoon":0,"cond_shown":"randomdotsizeEA","ratio_trial":250,"smaller_num":"3","larger_num":"12","correct_side":2,"subjID":"MariaCamilaAlegriaLopez","gender":"1","age":"","school":"6"},{"start_time":1551902160935,"click_time":1551902162693,"finger_time":1551902161734,"fix_duration":657.064741370352,"trial":57,"RT":799,"MT":959,"sideResp":1,"stimulus":"img/900/randomdotsizeEA/L/2_Ratio_900_L_20_R_18.png","xmouse":[792,792,792,792,792,792,792,792,792,792,792,792,792,792,792,792,792,792,792,792,792,792,792,792,792,792,792,792,792,792,792,792,792,792,792,792,792,792,792,811,836,903,923,938,946,949,949,949,949,949,949,949,949,938,830,732,619,617,617,617,613,604,604,604,604,604,604,604,604,603,600,589,582,582,582,582,568,558,548,539,525,507,505,504,504,504,504,504,504],"ymouse":[496,496,496,496,496,496,496,496,496,496,496,496,496,496,496,496,496,496,496,496,496,496,496,496,496,496,496,496,496,496,496,496,496,496,496,497,497,497,497,466,425,320,292,271,256,251,251,251,251,251,251,251,250,250,243,224,190,190,190,190,189,186,186,186,185,185,185,185,184,183,181,172,166,166,166,166,162,158,151,145,131,108,105,104,104,104,104,101,93],"timestamp_mouse":[4,20,39,58,78,98,118,138,158,178,199,218,238,258,279,299,318,338,358,378,399,418,438,458,478,499,518,538,559,578,598,619,639,658,678,698,718,739,758,778,799,819,838,858,878,898,919,938,958,978,998,1019,1038,1060,1078,1098,1118,1140,1160,1179,1198,1219,1239,1258,1278,1298,1318,1338,1358,1379,1398,1418,1438,1459,1479,1498,1518,1539,1558,1578,1598,1618,1638,1659,1678,1698,1718,1738,1758],"xSR":741.5,"ySR":449.15000000000003,"xT1":424.9,"yT1":0,"xT2":1058.1,"yT2":0,"toosoon":0,"cond_shown":"randomdotsizeEA","ratio_trial":900,"smaller_num":"18","larger_num":"20","correct_side":1,"subjID":"MariaCamilaAlegriaLopez","gender":"1","age":"","school":"6"},{"start_time":1551902164925,"click_time":1551902166293,"finger_time":1551902165594,"fix_duration":1070.4099109537465,"trial":58,"RT":669,"MT":699,"sideResp":1,"stimulus":"img/500/equaldotanddens/L/7_Ratio_500_L_10_R_5.png","xmouse":[791,791,791,791,791,791,791,791,791,791,791,791,791,791,791,791,791,791,791,791,791,791,791,791,791,791,791,791,791,791,791,791,789,747,720,710,698,694,693,693,693,693,686,682,665,654,611,589,577,568,560,549,543,542,542,542,542,542,542,543,543,546,547,547,543,538,528,525,524],"ymouse":[475,475,475,475,475,475,475,475,475,475,475,475,475,475,475,475,475,475,475,475,475,475,475,475,475,475,475,475,475,475,475,475,463,404,374,359,343,338,337,337,337,336,305,295,259,232,165,145,131,118,108,95,85,82,82,82,82,82,82,82,82,82,80,79,77,76,75,74,73],"timestamp_mouse":[11,32,48,68,89,109,128,148,168,188,208,229,248,268,288,308,328,347,368,388,409,428,448,468,489,508,528,548,568,588,608,629,648,669,688,709,729,747,768,789,807,829,848,869,888,908,929,947,969,987,1008,1028,1048,1068,1088,1108,1128,1148,1168,1189,1208,1229,1248,1268,1288,1309,1328,1348,1368],"xSR":741.5,"ySR":449.15000000000003,"xT1":424.9,"yT1":0,"xT2":1058.1,"yT2":0,"toosoon":0,"cond_shown":"equaldotanddens","ratio_trial":500,"smaller_num":"5","larger_num":"10","correct_side":1,"subjID":"MariaCamilaAlegriaLopez","gender":"1","age":"","school":"6"},{"start_time":1551902168251,"click_time":1551902172474,"finger_time":1551902171693,"fix_duration":1255.076241266683,"trial":59,"RT":3442,"MT":781,"sideResp":1,"stimulus":"img/750/equaldotsize/R/15_Ratio_750_L_9_R_12.png","xmouse":[799,799,799,799,799,799,799,799,799,799,799,799,799,799,799,799,799,799,799,799,799,799,799,799,799,799,799,799,799,799,799,799,799,799,799,799,799,799,799,799,799,799,799,799,799,799,799,799,799,799,799,799,799,799,799,799,799,799,799,799,799,799,799,799,799,799,799,799,799,799,799,799,799,799,799,799,799,799,799,799,799,799,799,799,799,799,799,799,799,799,799,799,799,799,799,799,799,799,799,799,799,799,799,799,799,799,799,799,799,799,799,799,799,799,799,799,799,799,799,800,800,800,800,800,800,800,800,800,800,814,835,835,835,835,835,835,835,835,835,835,835,835,835,835,835,835,835,835,835,835,835,835,835,835,838,839,833,831,831,830,830,830,830,830,830,830,830,822,806,788,773,754,750,745,730,724,703,700,693,680,661,592,524,392,313,284,282,282,283,283,283,283,283,283,283,283,283,284,301,308,313,327,330,337,353,370,396,403,407,411,418,438],"ymouse":[545,545,545,545,545,545,545,545,545,545,545,545,545,545,545,545,545,545,545,545,545,545,545,545,545,545,545,545,545,545,545,545,545,545,545,545,545,545,545,545,545,545,545,545,545,545,545,545,545,545,545,545,545,545,545,545,545,545,545,545,545,545,545,545,545,545,545,545,545,545,545,545,545,545,545,545,545,545,545,545,545,545,545,545,545,545,545,545,545,545,545,545,545,545,545,545,545,545,545,545,545,545,545,545,545,545,545,545,545,545,545,545,545,545,545,545,545,545,545,545,545,545,545,545,545,545,545,545,545,545,548,548,548,548,548,548,548,548,548,548,548,548,548,548,548,548,548,548,548,548,548,548,548,548,548,548,547,546,546,546,546,546,546,546,546,546,546,540,521,503,484,450,436,422,397,389,367,364,357,343,324,265,213,111,53,30,28,25,25,25,25,25,25,25,25,25,25,25,25,26,28,39,42,44,46,48,55,56,58,59,61,62],"timestamp_mouse":[13,31,42,62,82,103,121,142,163,182,203,222,243,262,282,301,322,342,362,381,401,423,442,462,482,502,522,543,562,582,602,623,642,663,682,701,722,742,762,782,803,822,842,862,881,901,922,942,961,982,1001,1022,1042,1063,1082,1102,1123,1142,1162,1182,1201,1221,1242,1261,1282,1302,1323,1342,1362,1382,1401,1422,1442,1462,1481,1501,1522,1543,1562,1581,1602,1621,1643,1661,1682,1703,1722,1743,1763,1782,1802,1822,1842,1861,1881,1902,1923,1942,1962,1982,2002,2023,2042,2061,2082,2102,2121,2142,2163,21