[{"start_time":1551901223927,"click_time":1551901226110,"finger_time":1551901225490,"fix_duration":1453.768208215738,"trial":0,"RT":1563,"MT":620,"sideResp":1,"stimulus":[],"xmouse":[770,770,770,768,770,770,774,775,775,775,775,775,775,775,775,775,775,775,775,775,775,775,775,775,775,775,775,775,775,775,775,775,775,775,775,775,775,775,775,775,775,775,775,775,775,775,775,775,775,775,775,775,775,775,775,775,775,775,775,775,775,775,775,775,775,775,775,775,775,775,775,775,775,775,775,775,775,747,691,625,552,435,431,440,453,462,471,474,476,478,481,482,482,482,482,482,481,478,478,478,479,480,481,481,482,482,483,484,486,488],"ymouse":[509,509,509,509,503,500,498,497,497,497,497,497,497,497,497,497,497,497,497,497,497,497,497,497,497,497,497,497,497,497,497,497,497,497,497,497,497,497,497,497,497,497,497,497,497,497,497,497,497,497,497,497,497,497,497,497,497,497,497,497,497,497,497,497,497,497,497,497,497,497,497,497,497,497,497,497,497,497,490,470,439,328,297,276,259,244,222,216,211,207,202,198,195,190,184,176,166,140,129,120,116,114,113,112,111,111,110,107,104,98],"timestamp_mouse":[9,22,46,63,82,102,123,144,162,183,203,222,242,262,282,303,322,343,363,382,403,422,442,463,483,502,522,542,563,583,603,623,644,662,682,702,722,744,764,783,802,823,843,862,883,902,922,942,963,982,1002,1023,1044,1064,1084,1103,1122,1142,1163,1184,1202,1222,1242,1263,1283,1302,1322,1342,1364,1383,1403,1422,1442,1464,1483,1502,1522,1543,1563,1583,1603,1622,1644,1662,1682,1703,1723,1743,1764,1784,1804,1822,1842,1863,1882,1903,1923,1942,1964,1983,2003,2023,2044,2062,2082,2102,2123,2142,2163,2182],"xSR":741.5,"ySR":449.15000000000003,"xT1":424.9,"yT1":0,"xT2":1058.1,"yT2":0,"toosoon":0,"cond_shown":"Congruent","ratio_trial":300,"L_num":9,"L_den":10,"R_num":3,"R_den":5,"correct_side":1,"subjID":"MariaCamilaAlegriaLopez6","gender":"1","age":"","school":"6","test":{"fix_dur":[250,1500],"timestim":1000,"targets_dim":[100,100],"targets_relative_coord":[0.3,0.7],"size_stim":[880,420],"start_dim":[100,100],"size_start":[300,300],"size_fix":60,"samplingrate":20,"img_types":["Congruent","Incongruent"],"ratios":[100,200,300],"rep_conds":19,"nTrials":120,"trials_to_rest":500,"Trials_order":[64,96,80,66,21,91,5,36,51,33,75,27,13,88,14,70,25,62,35,72,94,109,23,46,32,1,83,104,44,108,107,76,42,118,77,11,110,48,112,30,34,8,16,82,105,68,106,37,78,103,59,26,86,71,55,52,89,73,95,49,56,81,4,24,41,102,90,2,7,40,97,50,38,58,10,113,19,67,79,0,18,28,3,29,114,100,47,22,93,63,87,117,6,101,9,116,85,74,43,17,69,60,115,39,15,92,98,20,54,61,57,12,111,45,65,119,53,99,84,31],"cond_shown":["Congruent","Congruent","Congruent","Congruent","Incongruent","Incongruent","Incongruent","Congruent","Incongruent","Incongruent","Incongruent","Incongruent","Incongruent","Congruent","Congruent","Congruent","Incongruent","Congruent","Incongruent","Congruent","Congruent","Incongruent","Incongruent","Congruent","Congruent","Incongruent","Incongruent","Congruent","Congruent","Congruent","Incongruent","Congruent","Congruent","Congruent","Incongruent","Incongruent","Congruent","Congruent","Congruent","Congruent","Congruent","Congruent","Congruent","Congruent","Incongruent","Congruent","Congruent","Incongruent","Congruent","Incongruent","Incongruent","Congruent","Congruent","Incongruent","Incongruent","Congruent","Incongruent","Incongruent","Incongruent","Incongruent","Congruent","Incongruent","Congruent","Congruent","Incongruent","Congruent","Congruent","Congruent","Incongruent","Congruent","Incongruent","Congruent","Congruent","Congruent","Congruent","Incongruent","Incongruent","Incongruent","Incongruent","Congruent","Congruent","Congruent","Incongruent","Incongruent","Congruent","Congruent","Incongruent","Congruent","Incongruent","Incongruent","Incongruent","Incongruent","Congruent","Incongruent","Incongruent","Congruent","Incongruent","Congruent","Incongruent","Incongruent","Incongruent","Congruent","Incongruent","Incongruent","Incongruent","Congruent","Congruent","Congruent","Congruent","Incongruent","Incongruent","Congruent","Incongruent","Incongruent","Incongruent","Incongruent","Incongruent","Incongruent","Congruent","Incongruent"],"ratio_trial":[300,100,200,100,200,100,300,100,200,200,200,200,100,300,200,300,100,200,300,100,300,100,300,300,200,100,300,200,200,100,300,300,100,300,300,300,200,100,300,100,300,200,300,300,200,200,300,100,100,100,300,200,200,300,100,300,300,100,300,100,200,200,300,100,300,100,100,200,100,300,100,200,200,300,300,300,100,100,100,100,100,300,200,300,100,300,300,300,200,200,200,200,100,300,200,200,100,200,100,300,200,100,100,200,200,200,200,200,100,100,200,100,200,200,300,300,300,200,100,100],"left_num":[9,9,6,6,1,3,4,2,6,7,11,3,3,2,1,3,9,12,13,2,3,3,4,1,4,12,4,3,3,11,4,20,7,1,8,13,11,2,5,11,1,4,4,8,14,8,20,8,9,9,8,9,6,4,2,1,4,1,7,12,3,14,1,2,4,2,6,16,4,20,9,3,6,20,5,13,9,2,1,7,7,20,14,13,1,8,1,1,7,4,7,6,2,13,7,6,3,9,9,4,11,3,3,4,14,13,20,14,11,9,7,1,7,1,4,4,4,14,6,6],"right_num":[3,8,11,15,3,4,2,6,3,8,3,1,8,12,21,4,6,6,12,11,11,11,8,19,3,2,8,11,14,6,2,5,15,3,14,12,3,11,7,6,6,3,13,1,12,2,8,1,8,14,14,4,7,6,6,11,2,8,8,2,11,12,6,6,2,6,5,12,8,8,20,14,7,13,6,12,14,6,8,15,9,14,12,12,18,10,2,11,8,6,6,3,6,12,4,3,8,4,6,2,3,4,11,6,6,14,9,6,6,13,4,3,12,2,2,2,8,12,15,7],"left_den":[10,15,20,12,2,6,20,5,20,10,20,10,5,10,2,6,18,20,26,5,12,5,5,3,10,30,5,10,6,22,20,25,14,5,10,26,22,5,25,22,5,10,20,16,30,15,25,20,15,15,10,20,12,5,4,5,20,2,10,30,10,30,5,5,20,5,20,20,8,25,10,6,12,25,25,26,15,4,2,14,14,25,30,26,2,15,2,5,10,5,15,20,5,26,15,15,5,20,18,20,20,20,5,5,30,26,25,28,22,15,15,2,10,3,20,20,5,30,12,10],"right_den":[5,16,22,25,10,10,4,12,6,16,4,2,16,24,30,5,10,15,15,22,20,22,16,30,15,4,16,22,20,15,4,10,25,6,28,15,10,22,14,15,12,15,26,5,18,6,16,2,16,28,28,16,10,12,15,22,4,20,20,4,22,18,12,12,4,12,25,20,20,16,25,20,10,26,12,15,28,15,20,25,15,28,18,15,30,12,10,22,16,10,9,6,12,15,6,15,16,16,10,4,4,16,22,10,9,20,15,20,15,26,6,5,24,15,4,4,16,18,25,14],"correct_side":[1,1,2,2,1,1,2,2,2,1,2,2,1,2,2,2,2,1,2,2,2,1,1,2,1,2,1,2,2,1,2,1,2,2,1,2,1,2,2,1,2,1,2,1,2,1,1,2,1,1,1,1,2,1,1,2,2,1,1,2,2,2,2,2,2,2,1,1,1,1,1,2,2,1,2,2,1,1,1,2,2,1,2,2,2,2,1,2,1,1,2,2,2,2,2,1,1,1,2,2,2,2,1,1,2,2,1,1,1,1,2,2,1,1,2,2,1,2,2,1],"img_shown":["img2/300/Congruent/L/C_Dist_300_LN_9_LD_10_RN_3_RD_5_0.png","img2/100/Congruent/L/C_Dist_100_LN_9_LD_15_RN_8_RD_16_0.png","img2/200/Congruent/R/C_Dist_200_LN_6_LD_20_RN_11_RD_22_1.png","img2/100/Congruent/R/C_Dist_100_LN_6_LD_12_RN_15_RD_25_1.png","img2/200/Incongruent/L/I_Dist_200_LN_1_LD_2_RN_3_RD_10_0.png","img2/100/Incongruent/L/I_Dist_100_LN_3_LD_6_RN_4_RD_10_0.png","img2/300/Incongruent/R/I_Dist_300_LN_4_LD_20_RN_2_RD_4_1.png","img2/100/Congruent/R/C_Dist_100_LN_2_LD_5_RN_6_RD_12_1.png","img2/200/Incongruent/R/I_Dist_200_LN_6_LD_20_RN_3_RD_6_1.png","img2/200/Incongruent/L/I_Dist_200_LN_7_LD_10_RN_8_RD_16_0.png","img2/200/Incongruent/R/I_Dist_200_LN_11_LD_20_RN_3_RD_4_1.png","img2/200/Incongruent/R/I_Dist_200_LN_3_LD_10_RN_1_RD_2_1.png","img2/100/Incongruent/L/I_Dist_100_LN_3_LD_5_RN_8_RD_16_0.png","img2/300/Congruent/R/C_Dist_300_LN_2_LD_10_RN_12_RD_24_1.png","img2/200/Congruent/R/C_Dist_200_LN_1_LD_2_RN_21_RD_30_1.png","img2/300/Congruent/R/C_Dist_300_LN_3_LD_6_RN_4_RD_5_1.png","img2/100/Incongruent/R/I_Dist_100_LN_9_LD_18_RN_6_RD_10_1.png","img2/200/Congruent/L/C_Dist_200_LN_12_LD_20_RN_6_RD_15_0.png","img2/300/Incongruent/R/I_Dist_300_LN_13_LD_26_RN_12_RD_15_1.png","img2/100/Congruent/R/C_Dist_100_LN_2_LD_5_RN_11_RD_22_1.png","img2/300/Congruent/R/C_Dist_300_LN_3_LD_12_RN_11_RD_20_1.png","img2/100/Incongruent/L/I_Dist_100_LN_3_LD_5_RN_11_RD_22_0.png","img2/300/Incongruent/L/I_Dist_300_LN_4_LD_5_RN_8_RD_16_0.png","img2/300/Congruent/R/C_Dist_300_LN_1_LD_3_RN_19_RD_30_1.png","img2/200/Congruent/L/C_Dist_200_LN_4_LD_10_RN_3_RD_15_0.png","img2/100/Incongruent/R/I_Dist_100_LN_12_LD_30_RN_2_RD_4_1.png","img2/300/Incongruent/L/I_Dist_300_LN_4_LD_5_RN_8_RD_16_0.png","img2/200/Congruent/R/C_Dist_200_LN_3_LD_10_RN_11_RD_22_1.png","img2/200/Congruent/R/C_Dist_200_LN_3_LD_6_RN_14_RD_20_1.png","img2/100/Congruent/L/C_Dist_100_LN_11_LD_22_RN_6_RD_15_0.png","img2/300/Incongruent/R/I_Dist_300_LN_4_LD_20_RN_2_RD_4_1.png","img2/300/Congruent/L/C_Dist_300_LN_20_LD_25_RN_5_RD_10_0.png","img2/100/Congruent/R/C_Dist_100_LN_7_LD_14_RN_15_RD_25_1.png","img2/300/Congruent/R/C_Dist_300_LN_1_LD_5_RN_3_RD_6_1.png","img2/300/Incongruent/L/I_Dist_300_LN_8_LD_10_RN_14_RD_28_0.png","img2/300/Incongruent/R/I_Dist_300_LN_13_LD_26_RN_12_RD_15_1.png","img2/200/Congruent/L/C_Dist_200_LN_11_LD_22_RN_3_RD_10_0.png","img2/100/Congruent/R/C_Dist_100_LN_2_LD_5_RN_11_RD_22_1.png","img2/300/Congruent/R/C_Dist_300_LN_5_LD_25_RN_7_RD_14_1.png","img2/100/Congruent/L/C_Dist_100_LN_11_LD_22_RN_6_RD_15_0.png","img2/300/Congruent/R/C_Dist_300_LN_1_LD_5_RN_6_RD_12_1.png","img2/200/Congruent/L/C_Dist_200_LN_4_LD_10_RN_3_RD_15_0.png","img2/300/Congruent/R/C_Dist_300_LN_4_LD_20_RN_13_RD_26_1.png","img2/300/Congruent/L/C_Dist_300_LN_8_LD_16_RN_1_RD_5_0.png","img2/200/Incongruent/R/I_Dist_200_LN_14_LD_30_RN_12_RD_18_1.png","img2/200/Congruent/L/C_Dist_200_LN_8_LD_15_RN_2_RD_6_0.png","img2/300/Congruent/L/C_Dist_300_LN_20_LD_25_RN_8_RD_16_0.png","img2/100/Incongruent/R/I_Dist_100_LN_8_LD_20_RN_1_RD_2_1.png","img2/100/Congruent/L/C_Dist_100_LN_9_LD_15_RN_8_RD_16_0.png","img2/100/Incongruent/L/I_Dist_100_LN_9_LD_15_RN_14_RD_28_0.png","img2/300/Incongruent/L/I_Dist_300_LN_8_LD_10_RN_14_RD_28_0.png","img2/200/Congruent/L/C_Dist_200_LN_9_LD_20_RN_4_RD_16_0.png","img2/200/Congruent/R/C_Dist_200_LN_6_LD_12_RN_7_RD_10_1.png","img2/300/Incongruent/L/I_Dist_300_LN_4_LD_5_RN_6_RD_12_0.png","img2/100/Incongruent/L/I_Dist_100_LN_2_LD_4_RN_6_RD_15_0.png","img2/300/Congruent/R/C_Dist_300_LN_1_LD_5_RN_11_RD_22_1.png","img2/300/Incongruent/R/I_Dist_300_LN_4_LD_20_RN_2_RD_4_1.png","img2/100/Incongruent/L/I_Dist_100_LN_1_LD_2_RN_8_RD_20_0.png","img2/300/Incongruent/L/I_Dist_300_LN_7_LD_10_RN_8_RD_20_0.png","img2/100/Incongruent/R/I_Dist_100_LN_12_LD_30_RN_2_RD_4_1.png","img2/200/Congruent/R/C_Dist_200_LN_3_LD_10_RN_11_RD_22_1.png","img2/200/Incongruent/R/I_Dist_200_LN_14_LD_30_RN_12_RD_18_1.png","img2/300/Congruent/R/C_Dist_300_LN_1_LD_5_RN_6_RD_12_1.png","img2/100/Congruent/R/C_Dist_100_LN_2_LD_5_RN_6_RD_12_1.png","img2/300/Incongruent/R/I_Dist_300_LN_4_LD_20_RN_2_RD_4_1.png","img2/100/Congruent/R/C_Dist_100_LN_2_LD_5_RN_6_RD_12_1.png","img2/100/Congruent/L/C_Dist_100_LN_6_LD_20_RN_5_RD_25_0.png","img2/200/Congruent/L/C_Dist_200_LN_16_LD_20_RN_12_RD_20_0.png","img2/100/Incongruent/L/I_Dist_100_LN_4_LD_8_RN_8_RD_20_0.png","img2/300/Congruent/L/C_Dist_300_LN_20_LD_25_RN_8_RD_16_0.png","img2/100/Incongruent/L/I_Dist_100_LN_9_LD_10_RN_20_RD_25_0.png","img2/200/Congruent/R/C_Dist_200_LN_3_LD_6_RN_14_RD_20_1.png","img2/200/Congruent/R/C_Dist_200_LN_6_LD_12_RN_7_RD_10_1.png","img2/300/Congruent/L/C_Dist_300_LN_20_LD_25_RN_13_RD_26_0.png","img2/300/Congruent/R/C_Dist_300_LN_5_LD_25_RN_6_RD_12_1.png","img2/300/Incongruent/R/I_Dist_300_LN_13_LD_26_RN_12_RD_15_1.png","img2/100/Incongruent/L/I_Dist_100_LN_9_LD_15_RN_14_RD_28_0.png","img2/100/Incongruent/L/I_Dist_100_LN_2_LD_4_RN_6_RD_15_0.png","img2/100/Incongruent/L/I_Dist_100_LN_1_LD_2_RN_8_RD_20_0.png","img2/100/Congruent/R/C_Dist_100_LN_7_LD_14_RN_15_RD_25_1.png","img2/100/Congruent/R/C_Dist_100_LN_7_LD_14_RN_9_RD_15_1.png","img2/300/Congruent/L/C_Dist_300_LN_20_LD_25_RN_14_RD_28_0.png","img2/200/Incongruent/R/I_Dist_200_LN_14_LD_30_RN_12_RD_18_1.png","img2/300/Incongruent/R/I_Dist_300_LN_13_LD_26_RN_12_RD_15_1.png","img2/100/Congruent/R/C_Dist_100_LN_1_LD_2_RN_18_RD_30_1.png","img2/300/Congruent/R/C_Dist_300_LN_8_LD_15_RN_10_RD_12_1.png","img2/300/Incongruent/L/I_Dist_300_LN_1_LD_2_RN_2_RD_10_0.png","img2/300/Congruent/R/C_Dist_300_LN_1_LD_5_RN_11_RD_22_1.png","img2/200/Incongruent/L/I_Dist_200_LN_7_LD_10_RN_8_RD_16_0.png","img2/200/Incongruent/L/I_Dist_200_LN_4_LD_5_RN_6_RD_10_0.png","img2/200/Incongruent/R/I_Dist_200_LN_7_LD_15_RN_6_RD_9_1.png","img2/200/Incongruent/R/I_Dist_200_LN_6_LD_20_RN_3_RD_6_1.png","img2/100/Congruent/R/C_Dist_100_LN_2_LD_5_RN_6_RD_12_1.png","img2/300/Incongruent/R/I_Dist_300_LN_13_LD_26_RN_12_RD_15_1.png","img2/200/Incongruent/R/I_Dist_200_LN_7_LD_15_RN_4_RD_6_1.png","img2/200/Congruent/L/C_Dist_200_LN_6_LD_15_RN_3_RD_15_0.png","img2/100/Incongruent/L/I_Dist_100_LN_3_LD_5_RN_8_RD_16_0.png","img2/200/Congruent/L/C_Dist_200_LN_9_LD_20_RN_4_RD_16_0.png","img2/100/Incongruent/R/I_Dist_100_LN_9_LD_18_RN_6_RD_10_1.png","img2/300/Incongruent/R/I_Dist_300_LN_4_LD_20_RN_2_RD_4_1.png","img2/200/Incongruent/R/I_Dist_200_LN_11_LD_20_RN_3_RD_4_1.png","img2/100/Congruent/R/C_Dist_100_LN_3_LD_20_RN_4_RD_16_1.png","img2/100/Incongruent/L/I_Dist_100_LN_3_LD_5_RN_11_RD_22_0.png","img2/200/Incongruent/L/I_Dist_200_LN_4_LD_5_RN_6_RD_10_0.png","img2/200/Incongruent/R/I_Dist_200_LN_14_LD_30_RN_6_RD_9_1.png","img2/200/Congruent/R/C_Dist_200_LN_13_LD_26_RN_14_RD_20_1.png","img2/200/Congruent/L/C_Dist_200_LN_20_LD_25_RN_9_RD_15_0.png","img2/200/Congruent/L/C_Dist_200_LN_14_LD_28_RN_6_RD_20_0.png","img2/100/Congruent/L/C_Dist_100_LN_11_LD_22_RN_6_RD_15_0.png","img2/100/Incongruent/L/I_Dist_100_LN_9_LD_15_RN_13_RD_26_0.png","img2/200/Incongruent/R/I_Dist_200_LN_7_LD_15_RN_4_RD_6_1.png","img2/100/Congruent/R/C_Dist_100_LN_1_LD_2_RN_3_RD_5_1.png","img2/200/Incongruent/L/I_Dist_200_LN_7_LD_10_RN_12_RD_24_0.png","img2/200/Incongruent/L/I_Dist_200_LN_1_LD_3_RN_2_RD_15_0.png","img2/300/Incongruent/R/I_Dist_300_LN_4_LD_20_RN_2_RD_4_1.png","img2/300/Incongruent/R/I_Dist_300_LN_4_LD_20_RN_2_RD_4_1.png","img2/300/Incongruent/L/I_Dist_300_LN_4_LD_5_RN_8_RD_16_0.png","img2/200/Incongruent/R/I_Dist_200_LN_14_LD_30_RN_12_RD_18_1.png","img2/100/Congruent/R/C_Dist_100_LN_6_LD_12_RN_15_RD_25_1.png","img2/100/Incongruent/L/I_Dist_100_LN_6_LD_10_RN_7_RD_14_0.png"],"dist100_C":[["C_Dist_100_LN_10_LD_25_RN_3_RD_10_0.png","C_Dist_100_LN_11_LD_22_RN_4_RD_10_0.png","C_Dist_100_LN_11_LD_22_RN_6_RD_15_0.png","C_Dist_100_LN_15_LD_25_RN_13_RD_26_0.png","C_Dist_100_LN_3_LD_6_RN_2_RD_5_0.png","C_Dist_100_LN_6_LD_20_RN_5_RD_25_0.png","C_Dist_100_LN_8_LD_16_RN_2_RD_5_0.png","C_Dist_100_LN_9_LD_15_RN_8_RD_16_0.png"],["C_Dist_100_LN_1_LD_2_RN_18_RD_30_1.png","C_Dist_100_LN_1_LD_2_RN_3_RD_5_1.png","C_Dist_100_LN_12_LD_30_RN_13_RD_26_1.png","C_Dist_100_LN_2_LD_5_RN_11_RD_22_1.png","C_Dist_100_LN_2_LD_5_RN_6_RD_12_1.png","C_Dist_100_LN_3_LD_20_RN_4_RD_16_1.png","C_Dist_100_LN_4_LD_10_RN_15_RD_30_1.png","C_Dist_100_LN_4_LD_8_RN_6_RD_10_1.png","C_Dist_100_LN_6_LD_12_RN_15_RD_25_1.png","C_Dist_100_LN_7_LD_14_RN_15_RD_25_1.png","C_Dist_100_LN_7_LD_14_RN_9_RD_15_1.png"]],"dist100_I":[["I_Dist_100_LN_1_LD_2_RN_8_RD_20_0.png","I_Dist_100_LN_2_LD_4_RN_6_RD_15_0.png","I_Dist_100_LN_2_LD_4_RN_8_RD_20_0.png","I_Dist_100_LN_3_LD_5_RN_11_RD_22_0.png","I_Dist_100_LN_3_LD_5_RN_8_RD_16_0.png","I_Dist_100_LN_3_LD_6_RN_4_RD_10_0.png","I_Dist_100_LN_3_LD_9_RN_7_RD_30_0.png","I_Dist_100_LN_4_LD_8_RN_8_RD_20_0.png","I_Dist_100_LN_6_LD_10_RN_11_RD_22_0.png","I_Dist_100_LN_6_LD_10_RN_13_RD_26_0.png","I_Dist_100_LN_6_LD_10_RN_7_RD_14_0.png","I_Dist_100_LN_9_LD_10_RN_20_RD_25_0.png","I_Dist_100_LN_9_LD_15_RN_13_RD_26_0.png","I_Dist_100_LN_9_LD_15_RN_14_RD_28_0.png"],["I_Dist_100_LN_10_LD_25_RN_8_RD_16_1.png","I_Dist_100_LN_10_LD_25_RN_9_RD_18_1.png","I_Dist_100_LN_11_LD_22_RN_9_RD_15_1.png","I_Dist_100_LN_12_LD_24_RN_9_RD_15_1.png","I_Dist_100_LN_12_LD_30_RN_2_RD_4_1.png","I_Dist_100_LN_13_LD_26_RN_12_RD_20_1.png","I_Dist_100_LN_13_LD_26_RN_6_RD_10_1.png","I_Dist_100_LN_17_LD_30_RN_10_RD_15_1.png","I_Dist_100_LN_6_LD_12_RN_3_RD_5_1.png","I_Dist_100_LN_8_LD_16_RN_6_RD_10_1.png","I_Dist_100_LN_8_LD_20_RN_1_RD_2_1.png","I_Dist_100_LN_9_LD_18_RN_6_RD_10_1.png"]],"dist100_S":[["E_Dist_100_LN_2_LD_12_RN_2_RD_30_0.png","E_Dist_100_LN_6_LD_10_RN_6_RD_12_0.png"],["E_Dist_100_LN_6_LD_12_RN_6_RD_10_1.png"]],"dist200_C":[["C_Dist_200_LN_11_LD_22_RN_3_RD_10_0.png","C_Dist_200_LN_12_LD_15_RN_6_RD_10_0.png","C_Dist_200_LN_12_LD_20_RN_6_RD_15_0.png","C_Dist_200_LN_14_LD_28_RN_6_RD_20_0.png","C_Dist_200_LN_15_LD_25_RN_4_RD_10_0.png","C_Dist_200_LN_16_LD_20_RN_12_RD_20_0.png","C_Dist_200_LN_16_LD_30_RN_9_RD_27_0.png","C_Dist_200_LN_20_LD_25_RN_9_RD_15_0.png","C_Dist_200_LN_21_LD_30_RN_2_RD_4_0.png","C_Dist_200_LN_4_LD_10_RN_3_RD_15_0.png","C_Dist_200_LN_4_LD_8_RN_3_RD_10_0.png","C_Dist_200_LN_6_LD_15_RN_3_RD_15_0.png","C_Dist_200_LN_7_LD_21_RN_2_RD_15_0.png","C_Dist_200_LN_8_LD_15_RN_2_RD_6_0.png","C_Dist_200_LN_8_LD_15_RN_3_RD_9_0.png","C_Dist_200_LN_8_LD_15_RN_7_RD_21_0.png","C_Dist_200_LN_9_LD_20_RN_4_RD_16_0.png"],["C_Dist_200_LN_1_LD_2_RN_21_RD_30_1.png","C_Dist_200_LN_13_LD_26_RN_14_RD_20_1.png","C_Dist_200_LN_3_LD_10_RN_11_RD_22_1.png","C_Dist_200_LN_3_LD_10_RN_14_RD_28_1.png","C_Dist_200_LN_3_LD_10_RN_7_RD_14_1.png","C_Dist_200_LN_3_LD_12_RN_9_RD_20_1.png","C_Dist_200_LN_3_LD_6_RN_14_RD_20_1.png","C_Dist_200_LN_5_LD_10_RN_14_RD_20_1.png","C_Dist_200_LN_6_LD_12_RN_7_RD_10_1.png","C_Dist_200_LN_6_LD_20_RN_11_RD_22_1.png","C_Dist_200_LN_7_LD_15_RN_18_RD_27_1.png","C_Dist_200_LN_9_LD_30_RN_13_RD_26_1.png"]],"dist200_I":[["I_Dist_200_LN_1_LD_2_RN_3_RD_10_0.png","I_Dist_200_LN_1_LD_3_RN_2_RD_15_0.png","I_Dist_200_LN_3_LD_4_RN_11_RD_20_0.png","I_Dist_200_LN_4_LD_5_RN_6_RD_10_0.png","I_Dist_200_LN_4_LD_6_RN_14_RD_30_0.png","I_Dist_200_LN_7_LD_10_RN_12_RD_24_0.png","I_Dist_200_LN_7_LD_10_RN_14_RD_28_0.png","I_Dist_200_LN_7_LD_10_RN_8_RD_16_0.png"],["I_Dist_200_LN_11_LD_20_RN_3_RD_4_1.png","I_Dist_200_LN_14_LD_30_RN_12_RD_18_1.png","I_Dist_200_LN_14_LD_30_RN_6_RD_9_1.png","I_Dist_200_LN_3_LD_10_RN_1_RD_2_1.png","I_Dist_200_LN_4_LD_30_RN_1_RD_3_1.png","I_Dist_200_LN_6_LD_20_RN_3_RD_6_1.png","I_Dist_200_LN_7_LD_15_RN_4_RD_6_1.png","I_Dist_200_LN_7_LD_15_RN_6_RD_9_1.png","I_Dist_200_LN_9_LD_15_RN_8_RD_10_1.png"]],"dist200_S":[["E_Dist_200_LN_3_LD_6_RN_3_RD_10_0.png"],["E_Dist_200_LN_3_LD_10_RN_3_RD_6_1.png"]],"dist300_C":[["C_Dist_300_LN_11_LD_22_RN_1_RD_5_0.png","C_Dist_300_LN_11_LD_22_RN_2_RD_10_0.png","C_Dist_300_LN_11_LD_22_RN_4_RD_20_0.png","C_Dist_300_LN_12_LD_24_RN_2_RD_10_0.png","C_Dist_300_LN_18_LD_20_RN_9_RD_15_0.png","C_Dist_300_LN_20_LD_25_RN_13_RD_26_0.png","C_Dist_300_LN_20_LD_25_RN_14_RD_28_0.png","C_Dist_300_LN_20_LD_25_RN_5_RD_10_0.png","C_Dist_300_LN_20_LD_25_RN_8_RD_16_0.png","C_Dist_300_LN_20_LD_25_RN_9_RD_18_0.png","C_Dist_300_LN_24_LD_30_RN_2_RD_4_0.png","C_Dist_300_LN_24_LD_30_RN_8_RD_16_0.png","C_Dist_300_LN_3_LD_6_RN_2_RD_10_0.png","C_Dist_300_LN_4_LD_10_RN_1_RD_10_0.png","C_Dist_300_LN_4_LD_5_RN_2_RD_4_0.png","C_Dist_300_LN_8_LD_16_RN_1_RD_5_0.png","C_Dist_300_LN_9_LD_10_RN_3_RD_5_0.png"],["C_Dist_300_LN_1_LD_20_RN_7_RD_20_1.png","C_Dist_300_LN_1_LD_3_RN_19_RD_30_1.png","C_Dist_300_LN_1_LD_30_RN_8_RD_24_1.png","C_Dist_300_LN_1_LD_5_RN_11_RD_22_1.png","C_Dist_300_LN_1_LD_5_RN_3_RD_6_1.png","C_Dist_300_LN_1_LD_5_RN_6_RD_12_1.png","C_Dist_300_LN_2_LD_10_RN_12_RD_24_1.png","C_Dist_300_LN_2_LD_20_RN_10_RD_25_1.png","C_Dist_300_LN_3_LD_12_RN_11_RD_20_1.png","C_Dist_300_LN_3_LD_6_RN_4_RD_5_1.png","C_Dist_300_LN_4_LD_20_RN_13_RD_26_1.png","C_Dist_300_LN_5_LD_25_RN_6_RD_12_1.png","C_Dist_300_LN_5_LD_25_RN_7_RD_14_1.png","C_Dist_300_LN_7_LD_14_RN_20_RD_25_1.png","C_Dist_300_LN_8_LD_15_RN_10_RD_12_1.png"]],"dist300_I":[["I_Dist_300_LN_1_LD_2_RN_2_RD_10_0.png","I_Dist_300_LN_1_LD_2_RN_3_RD_15_0.png","I_Dist_300_LN_2_LD_4_RN_6_RD_30_0.png","I_Dist_300_LN_3_LD_6_RN_4_RD_20_0.png","I_Dist_300_LN_4_LD_5_RN_6_RD_12_0.png","I_Dist_300_LN_4_LD_5_RN_8_RD_16_0.png","I_Dist_300_LN_7_LD_10_RN_8_RD_20_0.png","I_Dist_300_LN_8_LD_10_RN_14_RD_28_0.png","I_Dist_300_LN_8_LD_10_RN_9_RD_18_0.png"],["I_Dist_300_LN_13_LD_26_RN_12_RD_15_1.png","I_Dist_300_LN_4_LD_20_RN_2_RD_4_1.png"]],"dist300_S":[["E_Dist_300_LN_9_LD_12_RN_9_RD_20_0.png"],["E_Dist_300_LN_18_LD_30_RN_18_RD_20_1.png","E_Dist_300_LN_3_LD_10_RN_3_RD_5_1.png","E_Dist_300_LN_9_LD_20_RN_9_RD_12_1.png"]],"dist500_C":[["C_Dist_500_LN_10_LD_13_RN_7_RD_26_0.png","C_Dist_500_LN_10_LD_15_RN_4_RD_24_0.png","C_Dist_500_LN_12_LD_16_RN_3_RD_12_0.png","C_Dist_500_LN_12_LD_18_RN_4_RD_24_0.png","C_Dist_500_LN_15_LD_18_RN_5_RD_15_0.png","C_Dist_500_LN_15_LD_20_RN_1_RD_4_0.png","C_Dist_500_LN_18_LD_27_RN_1_RD_6_0.png","C_Dist_500_LN_20_LD_24_RN_1_RD_3_0.png","C_Dist_500_LN_20_LD_24_RN_3_RD_9_0.png","C_Dist_500_LN_20_LD_24_RN_7_RD_21_0.png","C_Dist_500_LN_20_LD_28_RN_3_RD_14_0.png","C_Dist_500_LN_21_LD_28_RN_6_RD_24_0.png","C_Dist_500_LN_22_LD_28_RN_2_RD_7_0.png","C_Dist_500_LN_25_LD_30_RN_9_RD_27_0.png","C_Dist_500_LN_4_LD_6_RN_1_RD_6_0.png","C_Dist_500_LN_5_LD_6_RN_2_RD_6_0.png","C_Dist_500_LN_6_LD_9_RN_1_RD_6_0.png","C_Dist_500_LN_7_LD_10_RN_1_RD_5_0.png","C_Dist_500_LN_8_LD_12_RN_1_RD_6_0.png","C_Dist_500_LN_8_LD_12_RN_4_RD_24_0.png"],["C_Dist_500_LN_1_LD_4_RN_12_RD_16_1.png","C_Dist_500_LN_1_LD_4_RN_9_RD_12_1.png","C_Dist_500_LN_1_LD_9_RN_11_RD_18_1.png","C_Dist_500_LN_10_LD_24_RN_22_RD_24_1.png","C_Dist_500_LN_2_LD_12_RN_10_RD_15_1.png","C_Dist_500_LN_2_LD_12_RN_12_RD_18_1.png","C_Dist_500_LN_2_LD_12_RN_4_RD_6_1.png","C_Dist_500_LN_2_LD_24_RN_7_RD_12_1.png","C_Dist_500_LN_2_LD_5_RN_18_RD_20_1.png","C_Dist_500_LN_2_LD_5_RN_9_RD_10_1.png","C_Dist_500_LN_2_LD_8_RN_12_RD_16_1.png","C_Dist_500_LN_2_LD_8_RN_21_RD_28_1.png","C_Dist_500_LN_3_LD_10_RN_4_RD_5_1.png","C_Dist_500_LN_3_LD_12_RN_15_RD_20_1.png","C_Dist_500_LN_3_LD_30_RN_6_RD_10_1.png","C_Dist_500_LN_3_LD_8_RN_14_RD_16_1.png","C_Dist_500_LN_4_LD_16_RN_15_RD_20_1.png","C_Dist_500_LN_4_LD_24_RN_12_RD_18_1.png","C_Dist_500_LN_5_LD_14_RN_6_RD_7_1.png","C_Dist_500_LN_7_LD_21_RN_20_RD_24_1.png","C_Dist_500_LN_7_LD_28_RN_12_RD_16_1.png","C_Dist_500_LN_7_LD_28_RN_9_RD_12_1.png","C_Dist_500_LN_9_LD_27_RN_20_RD_24_1.png"]],"dist500_I":[["I_Dist_500_LN_2_LD_3_RN_4_RD_24_0.png","I_Dist_500_LN_5_LD_6_RN_6_RD_18_0.png","I_Dist_500_LN_7_LD_8_RN_9_RD_24_0.png"],["I_Dist_500_LN_7_LD_21_RN_5_RD_6_1.png"]],"dist500_S":[["E_Dist_500_LN_6_LD_8_RN_6_RD_24_0.png"],["E_Dist_500_LN_2_LD_12_RN_2_RD_3_1.png","E_Dist_500_LN_6_LD_24_RN_6_RD_8_1.png"]]}},{"start_time":1551901228068,"click_time":1551901230129,"finger_time":1551901229470,"fix_duration":897.1098727591303,"trial":1,"RT":1402,"MT":659,"sideResp":1,"stimulus":[],"xmouse":[778,778,778,778,778,778,778,778,778,778,778,778,778,778,778,778,778,778,778,778,778,778,778,778,778,778,778,778,778,778,778,778,778,778,778,778,778,778,778,778,778,778,778,778,778,778,778,778,778,778,778,778,778,778,778,778,778,778,778,778,778,778,778,778,778,778,778,780,781,780,719,702,692,684,669,661,652,644,634,602,585,576,567,560,550,542,537,530,527,527,527,525,522,521,520,520,520,520,520,518,517,516,515,515],"ymouse":[493,493,493,493,493,493,493,493,493,493,493,493,493,493,493,493,493,493,493,493,493,493,493,493,493,493,493,493,493,493,493,493,493,493,493,493,493,493,493,493,493,493,493,493,493,493,493,493,493,493,493,493,493,493,493,493,493,493,493,493,493,493,493,493,493,493,493,493,492,479,427,401,378,357,327,315,304,295,287,271,259,249,237,227,216,201,193,177,169,167,159,151,140,136,135,135,135,135,132,124,117,113,108,98],"timestamp_mouse":[10,31,41,61,81,101,121,141,161,181,202,221,241,262,281,301,321,342,361,381,402,421,441,461,482,501,521,542,561,581,601,622,641,662,681,702,721,742,761,781,802,823,842,861,881,902,922,941,961,982,1002,1021,1041,1062,1081,1101,1123,1143,1161,1182,1202,1222,1241,1262,1282,1303,1321,1341,1362,1381,1402,1421,1441,1461,1483,1501,1522,1541,1561,1583,1601,1623,1641,1661,1681,1702,1721,1741,1761,1782,1802,1821,1842,1862,1883,1902,1922,1942,1962,1983,2003,2022,2042,2061],"xSR":741.5,"ySR":449.15000000000003,"xT1":424.9,"yT1":0,"xT2":1058.1,"yT2":0,"toosoon":0,"cond_shown":"Congruent","ratio_trial":100,"L_num":9,"L_den":15,"R_num":8,"R_den":16,"correct_side":1,"subjID":"MariaCamilaAlegriaLopez6","gender":"1","school":"6","age":""},{"start_time":1551901232741,"click_time":1551901234529,"finger_time":1551901233569,"fix_duration":1270.6133233402275,"trial":2,"RT":828,"MT":960,"sideResp":2,"stimulus":[],"xmouse":[814,814,815,815,815,815,815,816,818,819,820,820,820,820,821,822,823,823,823,823,823,823,823,823,823,823,821,813,805,799,796,794,794,794,794,794,794,794,794,798,804,832,841,850,862,874,891,899,907,915,922,925,927,929,942,975,1017,1030,1034,1037,1039,1039,1052,1073,1108,1123,1134,1134,1134,1134,1135,1143,1145,1146,1151,1155,1153,1150,1149,1149,1149,1149,1149,1149,1149,1148,1148,1147,1145,1139],"ymouse":[519,519,519,519,519,519,519,519,519,519,519,519,519,519,519,519,519,519,519,519,519,519,519,519,519,519,515,511,506,503,501,499,499,499,499,499,499,497,494,488,478,443,428,415,403,393,376,364,350,338,332,330,329,327,306,279,256,245,238,230,226,225,210,196,181,175,172,172,172,172,172,166,159,153,143,135,124,119,117,117,117,116,116,116,116,115,113,108,103,90],"timestamp_mouse":[19,37,49,68,90,108,128,149,169,188,209,228,249,268,289,308,328,349,368,389,409,429,448,468,489,509,529,548,568,588,610,628,648,669,688,708,728,750,769,789,808,828,850,869,888,910,928,950,968,989,1008,1028,1048,1068,1089,1109,1129,1148,1170,1188,1209,1228,1248,1269,1288,1308,1329,1348,1370,1390,1409,1429,1448,1469,1488,1508,1529,1548,1569,1588,1609,1629,1649,1668,1689,1709,1728,1748,1768,1788],"xSR":741.5,"ySR":449.15000000000003,"xT1":424.9,"yT1":0,"xT2":1058.1,"yT2":0,"toosoon":0,"cond_shown":"Congruent","ratio_trial":200,"L_num":6,"L_den":20,"R_num":11,"R_den":22,"correct_side":2,"subjID":"MariaCamilaAlegriaLopez6","gender":"1","school":"6","age":""},{"start_time":1551901238654,"click_time":1551901239829,"finger_time":1551901239330,"fix_duration":1042.2569989282379,"trial":3,"RT":676,"MT":499,"sideResp":2,"stimulus":[],"xmouse":[781,781,781,781,781,781,781,781,781,781,781,781,781,781,781,781,781,781,781,781,781,781,781,781,781,781,781,781,781,781,781,783,796,807,824,846,883,893,905,918,942,952,959,963,964,964,978,995,1003,1008,1008,1008,1008,1008,1008,1009,1022,1042,1071],"ymouse":[491,491,491,491,491,491,491,491,491,491,491,491,491,491,491,491,491,491,491,491,491,491,491,491,491,491,491,491,491,491,491,481,458,436,403,352,258,228,197,169,127,111,100,95,94,93,85,74,68,65,65,65,65,65,65,64,60,52,39],"timestamp_mouse":[16,37,55,75,95,117,135,155,176,197,215,235,255,276,296,315,336,356,375,396,415,436,455,475,496,516,537,555,575,596,616,636,655,676,695,716,735,756,776,797,817,835,856,877,895,916,936,956,977,996,1017,1036,1055,1076,1095,1116,1135,1156,1175],"xSR":741.5,"ySR":449.15000000000003,"xT1":424.9,"yT1":0,"xT2":1058.1,"yT2":0,"toosoon":0,"cond_shown":"Congruent","ratio_trial":100,"L_num":6,"L_den":12,"R_num":15,"R_den":25,"correct_side":2,"subjID":"MariaCamilaAlegriaLopez6","gender":"1","school":"6","age":""},{"start_time":1551901241062,"click_time":1551901242249,"finger_time":1551901241510,"fix_duration":250,"trial":4,"RT":448,"MT":739,"sideResp":2,"stimulus":[],"xmouse":[785,785,785,785,785,785,785,785,785,785,785,785,785,785,785,785,786,787,787,787,788,797,800,806,812,824,831,839,841,843,844,848,855,860,865,867,870,870,870,870,870,870,870,873,896,914,987,1011,1029,1040,1041,1041,1041,1041,1041,1041,1049,1052,1057,1060],"ymouse":[494,494,494,494,494,494,494,494,494,494,494,494,494,494,494,494,489,486,483,479,476,452,445,432,416,391,379,361,357,353,349,342,325,313,301,295,287,287,287,287,287,287,287,284,258,237,173,152,139,133,133,133,133,133,133,132,116,109,99,92],"timestamp_mouse":[12,40,48,67,88,108,128,147,168,187,207,228,248,267,287,307,327,347,367,387,407,430,448,467,487,507,527,548,567,588,607,627,648,669,688,707,727,748,768,788,808,827,848,867,888,909,928,949,969,988,1009,1028,1048,1067,1087,1107,1127,1148,1168,1187],"xSR":741.5,"ySR":449.15000000000003,"xT1":424.9,"yT1":0,"xT2":1058.1,"yT2":0,"toosoon":0,"cond_shown":"Incongruent","ratio_trial":200,"L_num":1,"L_den":2,"R_num":3,"R_den":10,"correct_side":1,"subjID":"MariaCamilaAlegriaLopez6","gender":"1","school":"6","age":""},{"start_time":1551901245089,"click_time":1551901247969,"finger_time":1551901246551,"fix_duration":298.81195595835607,"trial":5,"RT":1462,"MT":1418,"sideResp":2,"stimulus":[],"xmouse":[755,755,755,755,755,755,755,755,755,755,755,755,755,755,755,755,755,755,755,755,755,755,755,755,755,755,755,755,755,755,755,755,755,755,755,755,755,755,755,755,755,755,755,755,755,755,755,755,755,755,755,755,755,755,755,755,755,755,755,755,755,755,755,755,755,755,755,755,759,763,769,782,787,793,798,818,828,835,839,842,844,846,847,847,847,847,847,847,847,847,847,847,847,847,847,847,847,849,854,858,862,864,864,864,864,869,896,915,934,949,960,961,961,961,963,966,970,971,975,980,985,995,1000,1002,1003,1003,1006,1006,1007,1007,1010,1011,1011,1011,1011,1011,1011,1014,1020,1041,1070,1077,1082,1088,1092],"ymouse":[528,528,528,528,528,528,528,528,528,528,528,528,528,528,528,528,528,528,528,528,528,528,528,528,528,528,528,528,528,528,528,528,528,528,528,528,528,528,528,528,528,528,528,528,528,528,528,528,528,528,528,528,528,528,528,528,528,528,528,528,528,528,528,528,528,528,528,528,522,512,498,464,451,433,419,383,365,349,340,333,330,325,324,324,324,324,324,324,324,324,324,324,324,324,324,324,324,321,313,307,301,298,298,298,298,292,258,237,217,204,195,194,194,194,193,189,184,183,181,179,177,169,165,164,164,163,162,161,161,161,148,144,143,143,142,142,142,139,135,125,110,106,103,100,97],"timestamp_mouse":[1,25,41,61,80,100,120,142,160,180,200,222,241,260,280,300,321,340,360,380,400,420,440,460,482,501,522,541,560,581,600,621,641,661,681,702,721,742,760,781,800,820,840,860,881,901,921,941,961,981,1000,1021,1040,1060,1080,1100,1120,1140,1162,1181,1200,1220,1240,1260,1280,1300,1320,1341,1360,1380,1400,1420,1440,1462,1482,1502,1520,1541,1562,1581,1600,1621,1640,1660,1680,1701,1720,1741,1760,1780,1801,1820,1840,1860,1880,1901,1921,1941,1960,1981,2000,2021,2040,2060,2081,2101,2120,2140,2160,2180,2202,2220,2240,2260,2280,2300,2320,2340,2360,2380,2400,2420,2440,2460,2480,2500,2520,2540,2560,2581,2603,2620,2640,2660,2680,2701,2720,2740,2760,2781,2803,2820,2841,2861,2880],"xSR":741.5,"ySR":449.15000000000003,"xT1":424.9,"yT1":0,"xT2":1058.1,"yT2":0,"toosoon":0,"cond_shown":"Incongruent","ratio_trial":100,"L_num":3,"L_den":6,"R_num":4,"R_den":10,"correct_side":1,"subjID":"MariaCamilaAlegriaLopez6","gender":"1","school":"6","age":""},{"start_time":1551901252014,"click_time":1551901253849,"finger_time":1551901253329,"fix_duration":262.42155045588555,"trial":6,"RT":1315,"MT":520,"sideResp":1,"stimulus":[],"xmouse":[815,815,815,815,815,815,815,815,815,815,815,815,815,815,815,815,815,815,815,815,815,815,815,815,815,815,815,815,815,815,815,815,815,815,815,815,815,815,815,815,815,815,815,815,815,815,815,815,815,815,815,815,815,815,815,815,815,815,815,815,815,815,815,815,813,738,688,644,615,600,598,598,597,593,585,567,558,550,542,538,531,527,525,521,509,499,492,487,482,468,457,445],"ymouse":[513,513,513,513,513,513,513,513,513,513,513,513,513,513,513,513,513,513,513,513,513,513,513,513,513,513,513,513,513,513,513,513,513,513,513,513,513,513,513,513,513,513,513,513,513,513,513,513,513,513,513,513,513,513,513,513,513,513,513,513,513,513,513,513,510,451,415,383,361,347,345,344,340,333,319,294,282,272,263,258,250,244,243,240,225,212,197,183,168,127,102,76],"timestamp_mouse":[15,42,55,75,95,116,136,156,176,196,215,236,255,275,295,316,336,355,376,395,416,436,456,476,496,519,535,556,575,595,616,635,655,676,696,715,735,755,777,795,815,835,856,875,896,915,935,956,975,995,1016,1035,1056,1075,1095,1116,1136,1155,1175,1195,1216,1235,1255,1275,1295,1315,1335,1356,1375,1395,1417,1437,1455,1475,1496,1515,1535,1555,1575,1595,1615,1635,1655,1675,1696,1716,1736,1756,1777,1796,1815,1835],"xSR":741.5,"ySR":449.15000000000003,"xT1":424.9,"yT1":0,"xT2":1058.1,"yT2":0,"toosoon":0,"cond_shown":"Incongruent","ratio_trial":300,"L_num":4,"L_den":20,"R_num":2,"R_den":4,"correct_side":2,"subjID":"MariaCamilaAlegriaLopez6","gender":"1","school":"6","age":""},{"start_time":1551901257618,"click_time":1551901259811,"finger_time":1551901259410,"fix_duration":726.9295001073298,"trial":7,"RT":1792,"MT":401,"sideResp":2,"stimulus":[],"xmouse":[780,780,780,780,780,780,780,780,780,780,780,780,780,780,780,780,780,780,780,780,780,780,780,780,780,780,780,780,780,780,780,780,780,780,780,780,780,780,780,780,780,780,780,780,780,780,780,780,780,780,780,780,780,780,780,780,780,780,780,780,780,780,780,780,780,780,780,780,780,780,780,780,780,780,780,780,780,780,780,780,780,780,780,780,780,780,780,780,780,785,797,799,811,837,890,890,890,890,890,890,890,890,890,890,890,890,890,890,1047,1060],"ymouse":[492,492,492,492,492,492,492,492,492,492,492,492,492,492,492,492,492,492,492,492,492,492,492,492,492,492,492,492,492,492,492,492,492,492,492,492,492,492,492,492,492,492,492,492,492,492,492,492,492,492,492,492,492,492,492,492,492,492,492,492,492,492,492,492,492,492,492,492,492,490,465,456,455,455,455,455,455,455,455,455,455,455,455,455,455,455,455,455,454,436,341,262,180,106,6,6,6,6,6,6,6,6,6,6,6,6,6,6,2,4],"timestamp_mouse":[12,38,52,71,91,111,131,152,171,191,213,231,251,272,292,312,331,352,372,392,411,431,451,472,491,511,531,552,571,591,611,631,652,671,692,712,733,752,772,792,812,831,851,872,892,913,931,952,971,992,1011,1031,1051,1072,1091,1111,1131,1151,1171,1193,1211,1231,1252,1272,1292,1311,1331,1352,1371,1391,1411,1431,1453,1472,1492,1512,1531,1551,1571,1592,1611,1631,1653,1672,1691,1711,1731,1752,1771,1792,1812,1831,1852,1871,1891,1912,1931,1952,1972,1991,2013,2031,2051,2071,2091,2112,2132,2152,2172,2193],"xSR":741.5,"ySR":449.15000000000003,"xT1":424.9,"yT1":0,"xT2":1058.1,"yT2":0,"toosoon":0,"cond_shown":"Congruent","ratio_trial":100,"L_num":2,"L_den":5,"R_num":6,"R_den":12,"correct_side":2,"subjID":"MariaCamilaAlegriaLopez6","gender":"1","school":"6","age":""},{"start_time":1551901261281,"click_time":1551901262970,"finger_time":1551901262310,"fix_duration":250,"trial":8,"RT":1029,"MT":660,"sideResp":1,"stimulus":[],"xmouse":[815,815,815,815,815,815,815,815,815,815,815,815,815,815,815,815,815,815,815,815,815,815,815,815,815,815,815,815,815,815,815,815,815,815,815,815,815,815,815,815,815,815,815,815,815,815,815,814,808,784,762,735,709,637,622,575,555,519,502,491,479,470,463,461,460,459,456,454,450,448,446,445,444,440,440,440,440,440,440,440,440,440,440,440,444],"ymouse":[510,510,510,510,510,510,510,510,510,510,510,510,510,510,510,510,510,510,510,510,510,510,510,510,510,510,510,510,510,510,510,510,510,510,510,510,510,510,510,510,510,510,510,510,510,510,510,510,510,506,501,496,488,452,443,412,398,364,342,324,304,283,254,240,227,208,190,177,155,144,131,121,115,106,106,106,106,106,106,106,106,106,105,102,95],"timestamp_mouse":[11,33,49,69,89,109,128,149,168,189,208,229,248,269,289,308,328,348,368,389,408,428,448,470,490,509,528,549,568,590,608,628,649,669,688,708,728,748,768,789,808,829,849,869,889,909,928,948,968,989,1009,1029,1049,1068,1088,1109,1129,1150,1168,1188,1208,1228,1250,1268,1289,1311,1330,1349,1368,1388,1408,1429,1449,1469,1489,1509,1528,1548,1568,1588,1608,1630,1649,1669,1689],"xSR":741.5,"ySR":449.15000000000003,"xT1":424.9,"yT1":0,"xT2":1058.1,"yT2":0,"toosoon":0,"cond_shown":"Incongruent","ratio_trial":200,"L_num":6,"L_den":20,"R_num":3,"R_den":6,"correct_side":2,"subjID":"MariaCamilaAlegriaLopez6","gender":"1","school":"6","age":""},{"start_time":1551901290278,"click_time":1551901291809,"finger_time":1551901291650,"fix_duration":807.419109863508,"trial":9,"RT":1372,"MT":159,"sideResp":2,"stimulus":[],"xmouse":[797,797,797,797,797,797,797,797,797,797,797,797,797,797,797,797,797,797,797,797,797,797,797,797,797,797,797,797,797,797,797,797,797,797,797,797,797,797,797,797,797,797,797,797,797,797,797,797,797,797,797,797,797,797,797,797,797,797,797,797,797,797,797,797,797,797,797,809,832,856,876,958,991,1011,1034,1048,1065],"ymouse":[475,475,475,475,475,475,475,475,475,475,475,475,475,475,475,475,475,475,475,475,475,475,475,475,475,475,475,475,475,475,475,475,475,475,475,475,475,475,475,475,475,475,475,475,475,475,475,475,475,475,475,475,475,475,475,475,475,475,475,475,475,475,475,475,475,475,475,470,442,417,391,226,165,130,95,75,54],"timestamp_mouse":[13,30,51,70,92,112,132,150,171,191,212,232,250,271,291,310,332,351,371,390,410,432,451,471,490,511,532,551,570,590,611,632,650,671,691,712,731,751,772,791,811,830,851,871,891,911,930,951,971,991,1011,1030,1051,1071,1090,1111,1131,1151,1170,1190,1211,1232,1252,1271,1290,1311,1332,1351,1372,1391,1411,1431,1451,1470,1490,1511,1531],"xSR":741.5,"ySR":449.15000000000003,"xT1":424.9,"yT1":0,"xT2":1058.1,"yT2":0,"toosoon":0,"cond_shown":"Incongruent","ratio_trial":200,"L_num":7,"L_den":10,"R_num":8,"R_den":16,"correct_side":1,"subjID":"MariaCamilaAlegriaLopez6","gender":"1","school":"6","age":""},{"start_time":1551901295528,"click_time":1551901297129,"finger_time":1551901296509,"fix_duration":1438.2893083804279,"trial":10,"RT":981,"MT":620,"sideResp":1,"stimulus":[],"xmouse":[780,780,780,780,780,780,780,780,780,780,780,780,780,780,780,780,780,780,780,780,780,780,780,780,780,780,780,780,780,780,780,780,780,780,780,780,780,780,780,780,780,780,780,780,780,780,780,780,780,778,776,774,772,769,760,752,741,733,725,715,685,673,658,639,594,580,573,570,569,568,567,567,567,567,567,567,567,567,561,546,516],"ymouse":[474,474,474,474,474,474,474,474,474,474,474,474,474,474,474,474,474,474,474,474,474,474,474,474,474,474,474,474,474,474,474,474,474,474,474,474,474,474,474,474,474,474,474,474,474,474,474,474,471,445,436,426,421,416,402,394,381,370,358,344,312,298,278,247,176,155,142,126,120,112,108,105,105,105,105,104,101,99,92,83,70],"timestamp_mouse":[10,34,41,60,80,100,120,141,161,181,202,220,242,262,281,300,320,342,362,380,400,422,441,461,480,500,520,541,561,581,601,621,641,662,681,700,722,741,760,780,801,821,841,861,880,901,922,942,961,981,1000,1021,1041,1062,1082,1100,1121,1141,1161,1181,1200,1220,1240,1260,1282,1301,1322,1341,1362,1382,1400,1420,1440,1461,1482,1502,1520,1540,1560,1581,1600],"xSR":741.5,"ySR":449.15000000000003,"xT1":424.9,"yT1":0,"xT2":1058.1,"yT2":0,"toosoon":0,"cond_shown":"Incongruent","ratio_trial":200,"L_num":11,"L_den":20,"R_num":3,"R_den":4,"correct_side":2,"subjID":"MariaCamilaAlegriaLopez6","gender":"1","school":"6","age":""},{"start_time":1551901299680,"click_time":1551901301608,"finger_time":1551901301088,"fix_duration":250,"trial":11,"RT":1408,"MT":520,"sideResp":2,"stimulus":[],"xmouse":[793,793,793,793,793,793,793,793,793,793,793,793,793,793,793,793,793,793,793,793,793,793,793,793,793,793,793,793,793,793,793,793,793,793,793,793,793,793,793,793,793,793,793,793,793,793,793,793,793,793,793,793,793,793,793,793,793,793,793,793,793,793,793,793,793,793,793,793,802,811,822,834,842,843,848,857,867,904,919,924,927,928,930,933,938,946,963,981,986,993,1001,1011,1025,1034,1042,1053,1059],"ymouse":[491,491,491,491,491,491,491,491,491,491,491,491,491,491,491,491,491,491,491,491,491,491,491,491,491,491,491,491,491,491,491,491,491,491,491,491,491,491,491,491,491,491,491,491,491,491,491,491,491,491,491,491,491,491,491,491,491,491,491,491,491,491,491,491,491,491,491,491,474,454,432,415,400,395,385,372,360,309,285,272,264,260,256,251,240,227,203,179,172,163,152,140,122,112,104,95,89],"timestamp_mouse":[12,28,48,68,89,109,128,150,170,189,209,230,249,268,289,309,329,350,368,389,410,430,450,468,489,509,529,550,569,588,609,630,649,669,689,709,729,750,769,789,809,829,848,868,889,909,928,950,969,989,1009,1028,1048,1070,1088,1109,1129,1149,1169,1188,1209,1229,1250,1268,1289,1310,1328,1350,1368,1388,1408,1429,1448,1468,1489,1509,1530,1549,1568,1589,1609,1628,1648,1669,1688,1708,1729,1748,1768,1790,1809,1829,1848,1870,1889,1909,1928],"xSR":741.5,"ySR":449.15000000000003,"xT1":424.9,"yT1":0,"xT2":1058.1,"yT2":0,"toosoon":0,"cond_shown":"Incongruent","ratio_trial":200,"L_num":3,"L_den":10,"R_num":1,"R_den":2,"correct_side":2,"subjID":"MariaCamilaAlegriaLopez6","gender":"1","school":"6","age":""},{"start_time":1551901304151,"click_time":1551901305430,"finger_time":1551901305229,"fix_duration":281.3963911954365,"trial":12,"RT":1078,"MT":201,"sideResp":1,"stimulus":[],"xmouse":[807,807,807,807,807,807,807,807,807,807,807,807,807,807,807,807,807,807,807,807,807,807,807,807,807,807,807,807,807,807,807,807,807,807,807,807,807,807,807,807,807,807,807,807,807,810,811,812,813,813,813,813,813,796,778,762,741,709,637,603,564,533,505,476],"ymouse":[492,492,492,492,492,492,492,492,492,492,492,492,492,492,492,492,492,492,492,492,492,492,492,492,492,492,492,492,492,492,492,492,492,492,492,492,492,492,492,492,492,492,492,492,492,491,487,483,474,471,468,465,462,449,432,408,369,327,242,199,156,125,100,76],"timestamp_mouse":[18,42,58,79,98,118,137,159,178,198,217,238,258,278,297,319,339,359,378,397,418,438,458,477,497,518,537,558,577,599,617,638,657,678,697,718,738,758,778,797,818,838,858,878,899,918,938,957,978,998,1017,1039,1057,1078,1098,1117,1137,1158,1178,1198,1218,1239,1259,1278],"xSR":741.5,"ySR":449.15000000000003,"xT1":424.9,"yT1":0,"xT2":1058.1,"yT2":0,"toosoon":0,"cond_shown":"Incongruent","ratio_trial":100,"L_num":3,"L_den":5,"R_num":8,"R_den":16,"correct_side":1,"subjID":"MariaCamilaAlegriaLopez6","gender":"1","school":"6","age":""},{"start_time":1551901306500,"click_time":1551901307730,"finger_time":1551901307349,"fix_duration":250,"trial":13,"RT":849,"MT":381,"sideResp":1,"stimulus":[],"xmouse":[801,801,801,801,801,801,801,801,801,801,801,801,802,803,803,803,803,803,803,803,803,803,803,803,803,803,803,803,803,803,803,803,803,803,803,803,800,788,778,767,755,747,711,697,684,671,642,632,625,621,617,617,615,612,603,589,573,538,515,500,488,468],"ymouse":[501,501,501,501,501,501,501,501,501,501,501,501,502,502,502,502,502,502,502,502,502,502,502,502,502,502,502,502,502,502,502,502,502,502,502,502,499,495,490,483,476,470,434,417,401,385,349,335,328,324,320,320,318,314,304,288,268,215,173,135,109,62],"timestamp_mouse":[9,39,48,70,89,109,129,149,168,189,209,229,248,269,289,309,328,348,369,389,408,429,449,469,489,508,529,550,569,589,609,629,649,669,688,709,729,749,769,788,809,829,849,869,889,910,931,949,969,990,1008,1029,1048,1068,1088,1108,1128,1148,1168,1188,1208,1229],"xSR":741.5,"ySR":449.15000000000003,"xT1":424.9,"yT1":0,"xT2":1058.1,"yT2":0,"toosoon":0,"cond_shown":"Congruent","ratio_trial":300,"L_num":2,"L_den":10,"R_num":12,"R_den":24,"correct_side":2,"subjID":"MariaCamilaAlegriaLopez6","gender":"1","school":"6","age":""},{"start_time":1551901309588,"click_time":1551901311269,"finger_time":1551901310648,"fix_duration":298.1359608906005,"trial":14,"RT":1060,"MT":621,"sideResp":1,"stimulus":[],"xmouse":[773,773,773,773,773,773,773,773,773,774,776,776,776,776,776,776,776,776,776,776,776,776,776,776,776,776,776,776,776,776,776,776,776,776,778,784,787,788,789,789,789,789,789,789,789,789,790,792,796,798,801,804,805,807,807,807,807,807,807,805,794,774,744,640,578,519,467,441,410,410,410,410,410,410,410,410,410,410,410,410,412,414,418,422,427],"ymouse":[488,488,488,488,488,488,488,488,488,488,488,488,488,488,488,488,488,488,488,488,488,488,488,488,488,488,488,488,488,488,488,488,488,488,488,484,481,480,479,479,479,479,479,479,479,479,478,476,468,463,459,454,450,447,446,446,446,446,443,436,420,400,373,286,236,186,147,128,100,98,98,98,98,98,98,98,98,98,98,98,97,95,92,90,86],"timestamp_mouse":[6,20,41,60,81,101,121,140,161,180,200,221,240,260,281,301,321,341,362,381,401,420,441,461,482,502,520,540,560,581,601,621,641,661,681,701,721,741,762,780,801,821,841,861,882,901,921,942,961,982,1001,1022,1040,1060,1081,1101,1120,1141,1161,1180,1201,1221,1241,1261,1281,1301,1321,1340,1360,1382,1401,1421,1441,1460,1481,1501,1520,1541,1562,1581,1601,1621,1640,1660,1681],"xSR":741.5,"ySR":449.15000000000003,"xT1":424.9,"yT1":0,"xT2":1058.1,"yT2":0,"toosoon":0,"cond_shown":"Congruent","ratio_trial":200,"L_num":1,"L_den":2,"R_num":21,"R_den":30,"correct_side":2,"subjID":"MariaCamilaAlegriaLopez6","gender":"1","school":"6","age":""},{"start_time":1551901314437,"click_time":1551901315889,"finger_time":1551901315570,"fix_duration":1105.0952622374332,"trial":15,"RT":1133,"MT":319,"sideResp":2,"stimulus":[],"xmouse":[805,805,805,805,805,805,805,805,805,805,805,805,805,807,809,810,812,812,812,813,813,813,813,813,813,813,814,816,818,819,820,820,818,810,803,798,798,798,799,801,801,802,806,808,812,818,820,821,822,822,822,824,825,828,832,836,843,849,855,856,857,858,859,860,861,871,882,895,916,947,1023,1085,1122],"ymouse":[522,522,522,522,522,522,522,522,522,522,522,522,522,522,522,522,522,522,522,521,521,521,521,521,521,521,520,519,518,517,517,515,511,508,506,503,503,502,501,501,501,501,500,499,497,495,494,493,493,493,493,491,489,483,474,461,430,405,388,383,379,371,365,363,357,333,319,307,297,273,173,116,77],"timestamp_mouse":[13,31,52,72,92,112,132,152,171,191,212,232,252,272,291,312,332,351,371,392,413,432,451,472,492,511,532,551,571,592,612,632,652,671,691,713,733,752,773,791,812,833,853,872,893,912,931,953,972,992,1011,1032,1052,1072,1092,1112,1133,1152,1173,1192,1213,1231,1252,1272,1292,1313,1331,1352,1372,1392,1414,1431,1452],"xSR":741.5,"ySR":449.15000000000003,"xT1":424.9,"yT1":0,"xT2":1058.1,"yT2":0,"toosoon":0,"cond_shown":"Congruent","ratio_trial":300,"L_num":3,"L_den":6,"R_num":4,"R_den":5,"correct_side":2,"subjID":"MariaCamilaAlegriaLopez6","gender":"1","school":"6","age":""},{"start_time":1551901317931,"click_time":1551901319849,"finger_time":1551901319269,"fix_duration":781.871657943629,"trial":16,"RT":1338,"MT":580,"sideResp":2,"stimulus":[],"xmouse":[767,767,767,767,768,768,768,768,768,768,768,768,768,768,768,768,768,768,768,768,768,768,768,768,768,768,768,768,768,768,768,768,768,768,768,768,768,768,768,768,768,768,768,768,768,768,768,768,768,767,761,760,760,760,760,760,760,760,760,769,774,791,795,797,801,809,822,832,838,843,847,853,854,856,859,864,875,897,908,924,939,983,1021,1055,1082,1093,1100,1103,1104,1104,1104,1104,1104,1104,1105,1108],"ymouse":[511,508,508,503,500,499,499,499,499,499,499,499,499,499,499,499,499,499,499,499,499,499,499,499,499,499,499,499,499,499,499,499,499,499,499,499,499,499,499,499,499,499,499,499,499,499,499,499,499,499,499,499,499,499,499,499,499,499,499,495,493,486,483,480,471,453,432,412,395,378,361,347,341,337,330,320,302,274,264,251,237,199,174,155,139,132,128,124,122,122,122,122,120,114,109,96],"timestamp_mouse":[17,53,57,78,98,118,137,158,178,198,217,237,257,277,298,317,338,358,379,397,418,438,458,477,498,517,537,557,577,598,617,638,658,678,698,719,737,758,778,799,817,837,858,879,898,919,938,958,978,997,1017,1038,1058,1078,1097,1118,1138,1158,1178,1198,1218,1238,1258,1279,1297,1319,1338,1358,1378,1399,1418,1438,1459,1479,1497,1519,1537,1558,1579,1598,1617,1638,1659,1678,1698,1719,1737,1758,1778,1799,1818,1838,1858,1878,1899,1918],"xSR":741.5,"ySR":449.15000000000003,"xT1":424.9,"yT1":0,"xT2":1058.1,"yT2":0,"toosoon":0,"cond_shown":"Incongruent","ratio_trial":100,"L_num":9,"L_den":18,"R_num":6,"R_den":10,"correct_side":2,"subjID":"MariaCamilaAlegriaLopez6","gender":"1","school":"6","age":""},{"start_time":1551901322258,"click_time":1551901324189,"finger_time":1551901323570,"fix_duration":1347.4775897831216,"trial":17,"RT":1312,"MT":619,"sideResp":1,"stimulus":[],"xmouse":[802,802,802,802,802,802,802,802,802,802,802,802,802,802,802,802,802,802,802,802,802,802,802,802,802,802,802,802,802,802,802,802,802,802,802,802,802,802,802,802,802,802,802,802,802,802,802,802,802,801,801,801,801,801,801,801,801,801,801,801,801,801,792,785,770,724,695,661,624,612,605,589,582,580,578,573,571,568,565,560,553,534,529,525,521,520,517,512,510,508,506,495,494,497,502,505,511],"ymouse":[480,480,480,480,480,480,480,480,480,480,480,480,480,480,480,480,480,480,480,480,480,480,480,480,480,480,480,480,480,480,480,480,480,480,480,480,480,480,480,480,480,480,480,480,480,480,480,480,480,479,479,479,479,479,479,479,479,479,479,479,479,479,472,468,457,440,433,424,413,408,402,393,388,386,384,381,373,351,331,311,287,243,233,222,210,200,185,176,172,170,166,151,148,137,123,113,96],"timestamp_mouse":[12,39,51,71,91,110,131,152,171,190,211,231,251,271,290,311,332,352,372,390,411,431,451,471,491,510,531,551,570,591,610,631,651,671,691,711,730,751,771,791,810,831,852,871,891,910,932,951,971,990,1010,1031,1050,1070,1090,1112,1131,1151,1170,1192,1211,1230,1250,1271,1290,1312,1331,1350,1370,1391,1411,1431,1452,1471,1491,1510,1531,1552,1572,1590,1612,1631,1652,1671,1690,1712,1731,1750,1772,1790,1810,1831,1851,1871,1891,1912,1931],"xSR":741.5,"ySR":449.15000000000003,"xT1":424.9,"yT1":0,"xT2":1058.1,"yT2":0,"toosoon":0,"cond_shown":"Congruent","ratio_trial":200,"L_num":12,"L_den":20,"R_num":6,"R_den":15,"correct_side":1,"subjID":"MariaCamilaAlegriaLopez6","gender":"1","school":"6","age":""},{"start_time":1551901325514,"click_time":1551901327709,"finger_time":1551901327009,"fix_duration":383.36261494205036,"trial":18,"RT":1495,"MT":700,"sideResp":1,"stimulus":[],"xmouse":[764,764,764,764,764,764,764,764,764,764,764,764,764,764,764,764,764,764,764,764,764,764,764,764,764,764,764,764,764,764,764,764,764,764,764,764,764,764,764,764,764,764,764,764,764,764,764,764,764,764,764,764,764,764,764,764,764,764,764,767,769,770,771,776,779,785,791,798,807,809,809,809,806,771,718,639,586,573,553,541,533,528,527,527,527,527,527,527,527,525,518,510,497,496,495,495,495,494,491,491,491,491,491,491,491,491,491,491,491,492],"ymouse":[513,513,513,513,513,513,513,513,513,513,513,513,513,513,513,513,513,513,513,513,513,513,513,513,513,513,513,513,513,513,513,513,513,513,513,513,513,513,513,513,513,513,513,513,513,513,513,513,513,513,513,513,513,513,513,513,513,513,513,513,513,513,513,513,513,512,509,508,505,504,504,504,497,464,421,367,348,340,304,282,264,249,244,243,243,243,243,240,222,211,192,174,151,143,141,139,136,131,122,119,119,119,119,118,118,116,114,113,103,95],"timestamp_mouse":[15,38,54,75,96,115,134,156,175,195,216,235,256,276,295,315,336,356,376,394,414,435,456,476,495,516,535,555,574,595,616,635,654,676,695,715,735,754,774,795,815,834,854,876,895,914,935,954,975,995,1015,1035,1055,1075,1095,1115,1135,1155,1176,1195,1216,1235,1254,1274,1294,1315,1336,1354,1374,1394,1415,1435,1456,1474,1495,1515,1535,1555,1575,1595,1616,1635,1654,1675,1696,1714,1734,1754,1774,1796,1815,1835,1854,1875,1895,1915,1934,1954,1974,1995,2015,2035,2056,2074,2094,2115,2135,2156,2174,2195],"xSR":741.5,"ySR":449.15000000000003,"xT1":424.9,"yT1":0,"xT2":1058.1,"yT2":0,"toosoon":0,"cond_shown":"Incongruent","ratio_trial":300,"L_num":13,"L_den":26,"R_num":12,"R_den":15,"correct_side":2,"subjID":"MariaCamilaAlegriaLopez6","gender":"1","school":"6","age":""},{"start_time":1551901331030,"click_time":1551901333570,"finger_time":1551901332069,"fix_duration":438.2079380457291,"trial":19,"RT":1039,"MT":1501,"sideResp":2,"stimulus":[],"xmouse":[819,819,819,819,819,819,819,819,819,819,819,819,819,819,819,819,819,819,819,819,819,819,819,819,819,819,819,819,819,819,819,819,819,819,819,819,819,819,819,819,819,819,819,819,819,819,819,819,819,802,779,756,732,671,603,550,517,497,468,453,440,431,424,418,409,409,409,409,409,409,409,409,410,410,411,411,411,411,411,411,411,411,411,411,411,411,411,411,411,414,416,422,428,446,543,615,652,679,703,739,754,776,802,835,889,917,926,932,956,965,978,994,1007,1018,1023,1027,1027,1027,1027,1028,1030,1030,1031,1031,1033,1039,1051,1064],"ymouse":[491,491,491,491,491,491,491,491,491,491,491,491,491,491,491,491,491,491,491,491,491,491,491,491,491,491,491,491,491,491,491,491,491,491,491,491,491,491,491,491,491,491,491,491,491,491,491,491,491,491,491,489,482,443,390,346,316,290,239,216,194,179,166,149,108,103,100,98,95,94,91,88,85,82,81,80,80,80,80,80,80,80,80,80,80,80,80,83,89,100,105,115,123,137,203,245,260,266,266,255,251,244,237,226,214,208,203,198,175,169,163,159,154,144,118,95,79,62,39,33,29,28,27,26,26,29,35,40],"timestamp_mouse":[1,19,39,58,79,100,119,138,160,179,199,220,238,260,279,299,320,338,359,379,400,418,438,459,479,499,518,538,559,578,599,619,639,659,678,699,719,739,758,778,798,818,838,858,878,900,919,939,959,979,999,1020,1039,1060,1079,1100,1119,1140,1160,1178,1198,1219,1240,1260,1279,1300,1319,1338,1360,1378,1399,1419,1439,1460,1479,1500,1519,1540,1560,1580,1600,1619,1638,1660,1678,1699,1719,1738,1759,1780,1799,1820,1839,1860,1879,1898,1918,1938,1958,1978,1999,2018,2039,2060,2079,2098,2118,2138,2161,2179,2199,2218,2238,2260,2279,2299,2319,2340,2361,2379,2399,2419,2439,2460,2479,2499,2519,2540],"xSR":741.5,"ySR":449.15000000000003,"xT1":424.9,"yT1":0,"xT2":1058.1,"yT2":0,"toosoon":0,"cond_shown":"Congruent","ratio_trial":100,"L_num":2,"L_den":5,"R_num":11,"R_den":22,"correct_side":2,"subjID":"MariaCamilaAlegriaLopez6","gender":"1","school":"6","age":""},{"start_time":1551901337221,"click_time":1551901339148,"finger_time":1551901338569,"fix_duration":1191.5717125233773,"trial":20,"RT":1348,"MT":579,"sideResp":2,"stimulus":[],"xmouse":[802,802,802,802,802,802,802,802,802,802,802,802,802,802,802,802,802,802,802,802,802,802,802,802,802,802,802,802,802,802,802,802,802,802,802,802,802,802,802,802,802,802,802,802,802,802,802,802,802,802,802,802,802,802,802,802,802,802,802,802,802,802,802,802,802,813,827,839,848,852,854,863,879,892,924,940,953,964,969,971,974,979,983,998,1010,1012,1015,1018,1028,1056,1119,1130,1135,1137,1148,1155,1158],"ymouse":[490,490,490,490,490,490,490,490,490,490,490,490,490,490,490,490,490,490,490,490,490,490,490,490,490,490,490,490,490,490,490,490,490,490,490,490,490,490,490,490,490,490,490,490,490,490,490,490,490,490,490,490,490,490,490,490,490,490,490,490,490,490,490,490,490,476,462,444,431,425,423,409,379,358,322,310,297,282,276,272,268,258,251,230,206,196,190,182,172,159,123,120,118,118,114,107,99],"timestamp_mouse":[12,35,48,68,88,107,127,148,168,188,208,228,248,267,288,307,329,349,367,389,408,428,448,468,488,508,528,548,567,588,608,628,648,667,688,708,728,748,768,788,808,828,848,868,888,907,928,948,968,988,1007,1028,1049,1069,1087,1108,1129,1147,1168,1188,1208,1228,1248,1267,1287,1307,1327,1348,1368,1388,1408,1428,1448,1469,1489,1509,1527,1548,1568,1588,1609,1628,1647,1667,1689,1709,1727,1749,1768,1788,1808,1828,1848,1868,1888,1908,1927],"xSR":741.5,"ySR":449.15000000000003,"xT1":424.9,"yT1":0,"xT2":1058.1,"yT2":0,"toosoon":0,"cond_shown":"Congruent","ratio_trial":300,"L_num":3,"L_den":12,"R_num":11,"R_den":20,"correct_side":2,"subjID":"MariaCamilaAlegriaLopez6","gender":"1","school":"6","age":""},{"start_time":1551901342447,"click_time":1551901346729,"finger_time":1551901345909,"fix_duration":816.668282282765,"trial":21,"RT":3462,"MT":820,"sideResp":2,"stimulus":[],"xmouse":[800,800,800,800,800,800,800,800,800,800,800,800,800,800,800,800,800,800,800,800,800,800,800,800,800,800,800,800,800,800,800,800,800,800,800,800,800,800,800,800,800,800,800,800,800,800,800,800,800,800,800,800,800,800,800,800,800,800,800,800,800,800,800,800,800,800,800,800,800,800,800,800,800,800,800,800,800,800,800,800,800,800,800,800,800,800,800,800,800,800,800,800,800,800,800,800,800,800,800,800,800,800,800,800,800,800,800,800,800,800,800,800,800,800,800,800,800,800,800,800,800,800,800,800,800,800,800,800,800,800,800,800,800,800,800,800,800,800,800,800,800,800,800,800,800,800,800,800,800,800,800,800,800,800,800,800,800,800,800,800,800,800,800,800,800,800,798,796,796,796,796,796,795,793,789,780,774,772,771,771,770,768,768,767,767,767,767,767,767,767,767,770,779,796,829,904,924,936,938,939,942,957,979,1001,1026,1029,1031,1031,1031,1033,1036,1041,1047,1054,1065],"ymouse":[480,480,480,480,480,480,480,480,480,480,480,480,480,480,480,480,480,480,480,480,480,480,480,480,480,480,480,480,480,480,480,480,480,480,480,480,480,480,480,480,480,480,480,480,480,480,480,480,480,480,480,480,480,480,480,480,480,480,480,480,480,480,480,480,480,480,480,480,480,480,480,480,480,480,480,480,480,480,480,480,480,480,480,480,480,480,480,480,480,480,480,480,480,480,480,480,480,480,480,480,480,480,480,480,480,480,480,480,480,480,480,480,480,480,480,480,480,480,480,480,480,480,480,480,480,480,480,480,480,480,480,480,480,480,480,480,480,480,480,480,480,480,480,480,480,480,480,480,480,480,480,480,480,480,480,480,480,480,480,480,480,480,480,480,480,477,474,468,468,468,468,466,459,443,425,397,384,379,377,375,367,359,351,341,329,327,327,327,327,327,326,323,305,279,234,164,149,139,137,137,134,119,100,81,59,57,55,55,55,54,53,50,48,46,42],"timestamp_mouse":[9,23,42,63,83,102,122,142,162,182,201,222,242,262,282,302,322,343,363,381,402,421,442,462,482,501,522,542,563,583,602,621,643,661,681,702,722,741,762,782,802,822,842,862,882,901,922,942,963,982,1001,1021,1041,1062,1082,1102,1123,1142,1163,1181,1202,1222,1243,1261,1282,1301,1322,1342,1363,1381,1401,1422,1441,1461,1482,1502,1522,1542,1561,1582,1603,1623,1642,1663,1682,1701,1722,1742,1762,1782,1801,1822,1842,1862,1882,1902,1922,1942,1962,1983,2001,2021,2042,2062,2083,2102,2122,2142,2162,2183,2202,2221,2242,2262,2281,2301,2322,2342,2362,2383,2401,2422,2442,2461,2482,2502,2521,2541,2562,2582,2602,2622,2641,2662,2682,2701,2722,2742,2762,2783,2801,2822,2842,2861,2882,2902,2923,2942,2961,2983,3002,3022,3042,3062,3082,3103,3121,3141,3162,3182,3203,3221,3242,3262,3283,3301,3322,3342,3362,3382,3402,3421,3442,3462,3481,3502,3522,3542,3561,3581,3601,3621,3642,3661,3682,3701,3722,3742,3761,3782,3803,3821,3841,3861,3881,3902,3922,3942,3962,3982,4002,4022,4043,4062,4081,4102,4123,4142,4161,4181,4202,4222,4241,4261,4282],"xSR":741.5,"ySR":449.15000000000003,"xT1":424.9,"yT1":0,"xT2":1058.1,"yT2":0,"toosoon":0,"cond_shown":"Incongruent","ratio_trial":100,"L_num":3,"L_den":5,"R_num":11,"R_den":22,"correct_side":1,"subjID":"MariaCamilaAlegriaLopez6","gender":"1","school":"6","age":""},{"start_time":1551901348093,"click_time":1551901349348,"finger_time":1551901348728,"fix_duration":603.7158315754727,"trial":22,"RT":635,"MT":620,"sideResp":1,"stimulus":[],"xmouse":[771,771,771,771,771,771,771,771,771,771,771,771,771,771,771,771,771,771,771,771,771,771,771,771,771,771,771,773,778,784,789,790,787,779,773,766,752,745,736,720,699,650,615,607,587,578,559,547,537,533,531,530,530,530,530,530,530,530,530,530,530,528,524],"ymouse":[488,488,488,488,488,488,488,488,488,488,488,488,488,488,488,488,488,488,488,488,488,488,488,488,488,488,488,485,476,468,456,441,419,406,400,396,385,376,367,348,318,253,205,194,159,139,99,77,55,37,30,29,29,29,29,28,28,28,28,28,28,28,29],"timestamp_mouse":[16,47,56,76,97,116,135,156,175,195,215,236,256,275,296,316,336,356,376,396,415,435,456,476,496,515,536,555,575,597,615,635,656,676,696,717,737,755,776,796,816,837,855,876,895,915,937,955,975,995,1016,1036,1056,1077,1096,1115,1136,1156,1176,1196,1215,1236,1255],"xSR":741.5,"ySR":449.15000000000003,"xT1":424.9,"yT1":0,"xT2":1058.1,"yT2":0,"toosoon":0,"cond_shown":"Incongruent","ratio_trial":300,"L_num":4,"L_den":5,"R_num":8,"R_den":16,"correct_side":1,"subjID":"MariaCamilaAlegriaLopez6","gender":"1","school":"6","age":""},{"start_time":1551901351342,"click_time":1551901352549,"finger_time":1551901351949,"fix_duration":1093.4147250046121,"trial":23,"RT":607,"MT":600,"sideResp":2,"stimulus":[],"xmouse":[786,786,786,786,786,786,786,786,786,786,786,786,786,786,786,786,786,786,786,786,786,786,786,786,786,788,793,800,809,819,851,860,869,878,887,897,905,914,923,933,955,960,966,971,977,993,1002,1013,1053,1053,1053,1053,1053,1053,1053,1053,1053,1053,1053,1053,1117],"ymouse":[543,543,543,543,543,543,543,543,543,543,543,543,543,543,543,543,543,543,543,543,543,543,543,543,543,530,516,497,477,455,367,345,324,306,285,248,230,207,182,159,116,107,100,93,83,62,52,41,8,8,8,8,8,8,8,8,8,8,8,8,16],"timestamp_mouse":[10,40,46,66,87,107,126,146,167,186,206,226,246,266,288,306,326,346,366,386,406,426,446,466,486,506,527,547,566,586,607,627,647,667,688,707,727,747,766,786,806,826,846,867,886,907,927,946,967,986,1007,1026,1046,1066,1086,1106,1127,1146,1167,1186,1207],"xSR":741.5,"ySR":449.15000000000003,"xT1":424.9,"yT1":0,"xT2":1058.1,"yT2":0,"toosoon":0,"cond_shown":"Congruent","ratio_trial":300,"L_num":1,"L_den":3,"R_num":19,"R_den":30,"correct_side":2,"subjID":"MariaCamilaAlegriaLopez6","gender":"1","school":"6","age":""},{"start_time":1551901354482,"click_time":1551901355649,"finger_time":1551901354828,"fix_duration":952.622561949439,"trial":24,"RT":346,"MT":821,"sideResp":1,"stimulus":[],"xmouse":[806,806,806,806,806,806,806,806,806,806,806,806,806,806,806,806,806,806,809,809,809,809,810,812,812,812,812,813,813,813,813,813,813,813,813,813,813,813,813,813,813,813,813,813,813,813,813,799,759,724,676,612,573,545,523,518,514,510,503],"ymouse":[482,482,482,482,482,482,482,482,482,482,482,482,482,482,482,474,459,449,439,435,433,432,431,427,424,423,423,422,422,422,422,422,422,422,422,422,422,422,422,422,422,422,422,422,422,422,422,416,394,367,325,266,229,196,155,138,124,111,92],"timestamp_mouse":[11,34,46,67,87,106,126,146,166,186,206,228,246,266,286,306,327,346,367,386,406,427,446,466,488,507,527,546,566,587,606,626,647,667,686,706,726,747,767,786,806,826,846,866,886,906,927,946,966,986,1006,1027,1046,1066,1086,1106,1127,1146,1167],"xSR":741.5,"ySR":449.15000000000003,"xT1":424.9,"yT1":0,"xT2":1058.1,"yT2":0,"toosoon":0,"cond_shown":"Congruent","ratio_trial":200,"L_num":4,"L_den":10,"R_num":3,"R_den":15,"correct_side":1,"subjID":"MariaCamilaAlegriaLopez6","gender":"1","school":"6","age":""},{"start_time":1551901357769,"click_time":1551901359209,"finger_time":1551901358569,"fix_duration":1119.4168303755332,"trial":25,"RT":800,"MT":640,"sideResp":1,"stimulus":[],"xmouse":[809,809,809,809,809,809,809,809,809,809,809,809,809,809,809,809,809,809,809,809,809,809,809,809,809,809,809,809,809,809,809,809,809,809,801,784,777,772,770,770,769,769,768,766,756,751,734,718,702,635,588,537,491,452,400,379,371,367,365,363,363,363,363,363,365,377,384,389,394,401,419,420,430],"ymouse":[487,487,487,487,487,487,487,487,487,487,487,487,487,487,487,487,487,487,487,487,487,487,487,487,487,487,487,487,487,487,487,487,487,487,480,466,459,453,451,450,449,449,447,445,433,425,408,394,379,329,304,272,242,214,172,150,138,132,126,109,101,94,86,76,71,56,52,49,46,40,32,27,19],"timestamp_mouse":[1,19,43,59,80,99,119,139,159,179,199,219,239,259,279,299,319,339,359,379,400,419,439,459,480,499,520,539,560,580,600,620,639,659,680,699,719,740,759,779,800,820,840,859,880,899,920,939,960,980,999,1019,1039,1060,1081,1099,1119,1139,1160,1180,1199,1220,1240,1260,1279,1299,1319,1339,1360,1380,1400,1419,1440],"xSR":741.5,"ySR":449.15000000000003,"xT1":424.9,"yT1":0,"xT2":1058.1,"yT2":0,"toosoon":0,"cond_shown":"Incongruent","ratio_trial":100,"L_num":12,"L_den":30,"R_num":2,"R_den":4,"correct_side":2,"subjID":"MariaCamilaAlegriaLopez6","gender":"1","school":"6","age":""},{"start_time":1551901361156,"click_time":1551901362908,"finger_time":1551901362508,"fix_duration":1046.1548001574602,"trial":26,"RT":1352,"MT":400,"sideResp":1,"stimulus":[],"xmouse":[795,795,795,795,795,795,795,795,795,795,795,795,795,795,795,795,795,795,795,795,795,795,795,795,795,795,795,795,795,795,795,795,795,795,795,795,795,795,795,795,795,795,795,795,795,795,795,795,795,795,797,798,798,798,798,798,799,800,800,800,800,798,794,788,779,764,751,721,684,648,578,562,553,551,551,546,540,538,538,538,538,538,536,533,527,515,507,498],"ymouse":[479,479,479,479,479,479,479,479,479,479,479,479,479,479,479,479,479,479,479,479,479,479,479,479,479,479,479,479,479,479,479,479,479,479,479,479,479,479,479,479,479,479,479,479,479,479,479,479,479,479,479,479,479,479,479,479,479,479,479,479,479,479,479,479,476,464,453,419,374,331,257,239,227,218,215,188,178,172,172,172,172,171,162,154,138,112,100,88],"timestamp_mouse":[12,42,52,73,92,112,133,152,172,192,212,233,252,272,292,313,332,352,372,392,412,433,452,472,492,512,532,553,572,592,612,632,652,672,693,714,732,753,772,792,813,832,852,872,892,913,932,952,972,992,1012,1032,1053,1072,1092,1112,1133,1153,1173,1192,1213,1232,1253,1272,1292,1312,1333,1352,1373,1392,1412,1432,1452,1472,1492,1512,1532,1552,1572,1593,1613,1633,1653,1673,1692,1712,1732,1752],"xSR":741.5,"ySR":449.15000000000003,"xT1":424.9,"yT1":0,"xT2":1058.1,"yT2":0,"toosoon":0,"cond_shown":"Incongruent","ratio_trial":300,"L_num":4,"L_den":5,"R_num":8,"R_den":16,"correct_side":1,"subjID":"MariaCamilaAlegriaLopez6","gender":"1","school":"6","age":""},{"start_time":1551901366189,"click_time":1551901367588,"finger_time":1551901367048,"fix_duration":1078.8361772106593,"trial":27,"RT":859,"MT":540,"sideResp":2,"stimulus":[],"xmouse":[788,788,788,788,788,788,788,788,788,788,788,788,788,788,788,788,788,788,788,788,788,788,788,788,788,788,788,788,788,788,788,788,788,788,788,788,788,788,788,788,788,788,802,823,835,849,858,870,882,905,922,934,940,944,949,951,951,952,954,958,989,1001,1004,1005,1006,1012,1022,1034,1046,1054,1063],"ymouse":[508,508,508,508,508,508,508,508,508,508,508,508,508,508,508,508,508,508,508,508,508,508,508,508,508,508,508,508,508,508,508,508,508,508,508,508,508,508,508,508,508,508,465,433,419,408,397,379,358,311,272,248,234,226,215,212,210,209,205,201,172,163,159,157,154,147,134,122,114,107,99],"timestamp_mouse":[1,20,39,59,79,99,119,139,159,179,199,219,239,259,279,300,319,340,359,379,399,420,440,461,479,499,519,541,559,579,599,620,640,660,680,699,719,739,759,780,800,820,839,859,880,900,920,939,959,980,999,1021,1039,1059,1080,1099,1120,1140,1159,1180,1199,1220,1239,1260,1281,1299,1319,1339,1359,1379,1399],"xSR":741.5,"ySR":449.15000000000003,"xT1":424.9,"yT1":0,"xT2":1058.1,"yT2":0,"toosoon":0,"cond_shown":"Congruent","ratio_trial":200,"L_num":3,"L_den":10,"R_num":11,"R_den":22,"correct_side":2,"subjID":"MariaCamilaAlegriaLopez6","gender":"1","school":"6","age":""},{"start_time":1551901371693,"click_time":1551901379028,"finger_time":1551901378228,"fix_duration":662.4160037677004,"trial":28,"RT":6535,"MT":800,"sideResp":1,"stimulus":[],"xmouse":[781,781,781,781,781,781,781,781,781,781,781,781,781,781,781,781,781,781,781,781,781,781,781,781,781,781,781,781,781,781,781,781,781,781,781,781,781,781,781,781,781,781,781,781,781,781,781,781,781,781,781,781,781,781,781,781,781,781,781,781,781,781,781,781,781,781,781,781,781,781,781,781,781,781,781,781,781,781,781,781,781,781,781,781,781,781,781,781,781,781,781,781,781,781,781,781,781,781,781,781,781,781,781,781,781,781,781,781,781,781,781,781,781,781,781,781,781,781,781,781,781,781,781,781,781,781,781,781,781,781,781,781,781,781,781,781,781,781,781,781,781,781,781,781,781,781,781,781,781,781,781,781,781,781,781,781,781,781,781,781,781,781,781,781,781,781,781,781,781,781,781,781,781,781,781,781,781,781,781,781,781,781,781,781,781,781,781,781,781,781,781,781,781,781,781,781,781,781,781,781,781,781,781,781,781,781,781,781,781,781,781,781,781,781,781,781,781,781,781,781,781,781,781,781,781,781,781,781,781,781,781,781,781,781,781,781,781,781,781,781,781,781,781,781,781,781,781,781,781,781,781,781,781,781,781,781,781,781,781,781,781,781,781,781,781,781,781,781,781,781,781,781,781,781,781,781,781,781,781,781,781,781,781,781,781,781,781,781,781,781,781,781,781,781,781,781,781,781,781,781,781,781,781,781,781,781,781,781,781,781,781,781,781,781,781,781,781,781,781,781,781,787,795,801,806,815,822,827,831,838,852,859,866,876,896,903,910,916,924,935,968,976,978,978,977,960,945,925,893,814,741,731,711,687,670,650,638,618,598,582,574,574,574,574,573,557,522],"ymouse":[500,500,500,500,500,500,500,500,500,500,500,500,500,500,500,500,500,500,500,500,500,500,500,500,500,500,500,500,500,500,500,500,500,500,500,500,500,500,500,500,500,500,500,500,500,500,500,500,500,500,500,500,500,500,500,500,500,500,500,500,500,500,500,500,500,500,500,500,500,500,500,500,500,500,500,500,500,500,500,500,500,500,500,500,500,500,500,500,500,500,500,500,500,500,500,500,500,500,500,500,500,500,500,500,500,500,500,500,500,500,500,500,500,500,500,500,500,500,500,500,500,500,500,500,500,500,500,500,500,500,500,500,500,500,500,500,500,500,500,500,500,500,500,500,500,500,500,500,500,500,500,500,500,500,500,500,500,500,500,500,500,500,500,500,500,500,500,500,500,500,500,500,500,500,500,500,500,500,500,500,500,500,500,500,500,500,500,500,500,500,500,500,500,500,500,500,500,500,500,500,500,500,500,500,500,500,500,500,500,500,500,500,500,500,500,500,500,500,500,500,500,500,500,500,500,500,500,500,500,500,500,500,500,500,500,500,500,500,500,500,500,500,500,500,500,500,500,500,500,500,500,500,500,500,500,500,500,500,500,500,500,500,500,500,500,500,500,500,500,500,500,500,500,500,500,500,500,500,500,500,500,500,500,500,500,500,500,500,500,500,500,500,500,500,500,500,500,500,500,500,500,500,500,500,500,500,500,500,500,500,500,500,500,500,500,500,500,500,500,500,500,494,477,469,463,451,441,434,429,422,416,412,408,403,387,380,370,362,352,337,261,246,236,231,226,211,201,189,175,132,76,75,75,75,75,75,75,75,75,75,75,75,75,75,75,75,74],"timestamp_mouse":[16,48,57,76,96,115,135,155,175,195,215,235,256,276,295,315,335,355,376,395,416,437,456,475,495,515,536,555,575,595,615,635,655,675,695,715,735,756,776,795,815,835,855,875,895,916,935,955,975,995,1015,1035,1055,1075,1095,1115,1136,1156,1176,1195,1215,1237,1257,1276,1295,1315,1336,1355,1375,1395,1416,1436,1456,1475,1496,1515,1535,1555,1575,1595,1616,1636,1656,1675,1695,1715,1735,1755,1775,1795,1816,1835,1856,1875,1895,1915,1935,1955,1976,1995,2015,2035,2055,2075,2095,2115,2136,2155,2175,2195,2215,2235,2255,2275,2295,2315,2336,2355,2376,2396,2415,2436,2456,2475,2495,2515,2535,2555,2575,2595,2615,2635,2655,2676,2695,2715,2736,2755,2775,2795,2815,2836,2856,2875,2895,2916,2935,2955,2976,2995,3015,3035,3055,3077,3095,3115,3135,3155,3175,3196,3216,3235,3255,3276,3295,3316,3335,3355,3375,3397,3416,3435,3455,3476,3495,3516,3535,3555,3576,3595,3615,3635,3655,3675,3696,3716,3735,3756,3775,3795,3816,3835,3855,3876,3896,3916,3935,3955,3975,3996,4015,4035,4055,4075,4096,4116,4135,4155,4175,4196,4215,4235,4256,4276,4295,4315,4335,4355,4375,4395,4415,4435,4457,4476,4497,4516,4535,4555,4575,4595,4616,4635,4655,4676,4695,4715,4736,4755,4775,4796,4816,4835,4856,4875,4896,4915,4935,4955,4975,4995,5015,5036,5055,5075,5096,5116,5136,5155,5175,5197,5216,5235,5256,5276,5297,5316,5335,5355,5375,5395,5415,5435,5455,5476,5495,5516,5535,5555,5575,5596,5616,5635,5655,5675,5697,5716,5736,5755,5775,5795,5816,5836,5855,5876,5895,5916,5935,5956,5975,5995,6016,6035,6055,6075,6095,6115,6135,6155,6176,6195,6215,6235,6255,6276,6295,6316,6335,6355,6375,6395,6416,6435,6455,6475,6496,6515,6535,6555,6576,6596,6615,6635,6655,6676,6697,6715,6737,6755,6775,6795,6816,6835,6855,6876,6895,6915,6936,6955,6975,6995,7016,7036,7055,7075,7095,7115,7135,7155,7175,7195,7215,7235,7255,7275,7296,7315,7335],"xSR":741.5,"ySR":449.15000000000003,"xT1":424.9,"yT1":0,"xT2":1058.1,"yT2":0,"toosoon":0,"cond_shown":"Congruent","ratio_trial":200,"L_num":3,"L_den":6,"R_num":14,"R_den":20,"correct_side":2,"subjID":"MariaCamilaAlegriaLopez6","gender":"1","school":"6","age":""},{"start_time":1551901381159,"click_time":1551901382868,"finger_time":1551901382509,"fix_duration":789.883187988785,"trial":29,"RT":1350,"MT":359,"sideResp":1,"stimulus":[],"xmouse":[810,810,810,809,807,806,805,802,802,802,802,802,801,801,801,801,801,801,801,801,801,801,801,801,801,801,801,801,801,801,801,801,801,801,801,801,801,801,801,801,801,801,801,801,801,801,801,801,801,801,801,801,801,801,801,801,801,801,801,801,801,801,801,801,801,801,797,755,724,693,658,608,549,549,549,549,549,549,549,549,549,549,549,549,549,455],"ymouse":[491,492,492,493,493,494,495,498,498,498,498,498,499,499,499,499,499,499,499,499,499,499,499,499,499,499,499,499,499,499,499,499,499,499,499,499,499,499,499,499,499,499,499,499,499,499,499,499,499,499,499,499,499,499,499,499,499,499,499,499,499,499,499,499,499,499,488,427,376,301,190,89,5,5,5,5,5,5,5,5,5,5,5,5,5,7],"timestamp_mouse":[9,36,49,69,89,109,129,149,169,190,210,229,250,269,289,309,330,349,369,389,409,429,449,469,489,510,529,549,570,589,610,629,649,669,689,709,730,749,769,789,809,829,849,869,889,909,929,949,970,990,1010,1029,1049,1069,1089,1111,1129,1150,1170,1190,1209,1229,1249,1269,1290,1310,1330,1350,1369,1390,1409,1429,1449,1470,1490,1510,1530,1550,1569,1589,1610,1630,1649,1669,1690,1709],"xSR":741.5,"ySR":449.15000000000003,"xT1":424.9,"yT1":0,"xT2":1058.1,"yT2":0,"toosoon":0,"cond_shown":"Congruent","ratio_trial":100,"L_num":11,"L_den":22,"R_num":6,"R_den":15,"correct_side":1,"subjID":"MariaCamilaAlegriaLopez6","gender":"1","school":"6","age":""},{"start_time":1551901384137,"click_time":1551901385928,"finger_time":1551901385548,"fix_duration":387.84808708478533,"trial":30,"RT":1411,"MT":380,"sideResp":2,"stimulus":[],"xmouse":[794,794,794,794,794,794,794,794,794,794,794,794,794,794,794,794,794,794,794,794,794,794,794,794,794,794,794,794,794,794,794,794,794,794,794,794,794,795,795,796,797,797,797,797,797,797,797,797,797,797,797,797,797,797,797,797,797,797,797,797,797,797,797,797,797,797,797,797,808,825,843,865,891,908,934,957,971,987,1001,1017,1021,1025,1028,1034,1038,1042,1047,1052,1057,1068],"ymouse":[499,499,499,499,499,499,499,499,499,499,499,499,499,499,499,499,499,499,499,499,499,499,499,499,499,499,499,499,499,499,499,499,499,499,499,499,499,499,499,499,499,499,499,499,499,499,499,499,499,499,499,499,499,499,499,499,499,499,499,499,499,499,499,499,499,499,499,499,492,477,459,426,378,338,282,255,241,227,216,201,194,187,180,167,153,141,127,108,90,59],"timestamp_mouse":[13,36,51,72,91,112,132,153,171,191,211,231,251,271,292,311,331,351,372,391,411,431,451,471,491,511,531,552,571,592,611,631,651,672,692,712,731,751,771,792,812,831,851,872,891,912,931,953,972,991,1011,1031,1051,1071,1092,1111,1131,1151,1171,1191,1212,1231,1252,1271,1292,1311,1331,1351,1373,1392,1411,1431,1451,1471,1491,1512,1532,1551,1572,1591,1612,1632,1651,1673,1691,1711,1731,1752,1772,1791],"xSR":741.5,"ySR":449.15000000000003,"xT1":424.9,"yT1":0,"xT2":1058.1,"yT2":0,"toosoon":0,"cond_shown":"Incongruent","ratio_trial":300,"L_num":4,"L_den":20,"R_num":2,"R_den":4,"correct_side":2,"subjID":"MariaCamilaAlegriaLopez6","gender":"1","school":"6","age":""},{"start_time":1551901387240,"click_time":1551901388629,"finger_time":1551901387988,"fix_duration":350.8197063062581,"trial":31,"RT":748,"MT":641,"sideResp":1,"stimulus":[],"xmouse":[745,745,745,745,745,745,745,745,745,745,745,745,745,745,745,745,746,748,751,756,756,756,756,756,756,756,756,756,756,756,756,756,756,756,756,756,751,739,711,670,646,628,616,613,602,597,590,584,576,561,553,546,536,510,359,359,359,359,359,359,359,359,359,359,359,359,357,372,397,442],"ymouse":[496,496,496,496,496,496,496,496,496,496,496,496,496,496,496,495,495,494,493,490,490,490,490,490,490,490,490,490,490,490,490,490,490,490,490,484,478,466,446,411,391,373,362,358,340,330,320,309,297,274,263,250,233,197,35,35,35,35,35,35,35,35,35,35,35,35,13,32,60,96],"timestamp_mouse":[15,28,48,69,89,109,128,148,168,188,208,228,248,268,288,308,329,348,369,388,408,428,448,468,488,508,529,548,568,588,608,628,648,668,688,708,729,748,769,788,809,830,848,868,888,908,930,948,970,989,1009,1028,1048,1068,1088,1109,1128,1149,1168,1188,1208,1228,1248,1268,1289,1309,1328,1348,1369,1389],"xSR":741.5,"ySR":449.15000000000003,"xT1":424.9,"yT1":0,"xT2":1058.1,"yT2":0,"toosoon":0,"cond_shown":"Congruent","ratio_trial":300,"L_num":20,"L_den":25,"R_num":5,"R_den":10,"correct_side":1,"subjID":"MariaCamilaAlegriaLopez6","gender":"1","school":"6","age":""},{"start_time":1551901390211,"click_time":1551901391350,"finger_time":1551901390609,"fix_duration":880.3365713555175,"trial":32,"RT":398,"MT":741,"sideResp":2,"stimulus":[],"xmouse":[812,812,812,812,812,812,812,812,812,812,812,812,812,812,812,812,818,823,833,849,858,881,901,935,965,1013,1025,1032,1034,1035,1036,1038,1040,1042,1045,1046,1048,1048,1048,1048,1048,1048,1048,1048,1048,1048,1048,1051,1051,1052,1052,1052,1052,1052,1053,1057,1060],"ymouse":[519,519,519,519,519,519,519,519,519,519,519,519,519,519,519,519,513,511,507,503,500,470,397,306,208,114,98,89,87,86,84,76,66,53,38,12,2,2,2,2,2,2,2,2,2,2,2,1,5,6,8,8,9,11,15,21,24],"timestamp_mouse":[17,38,57,77,98,117,137,157,177,197,217,237,257,277,297,317,337,358,377,398,417,438,457,477,498,517,537,558,578,597,617,637,658,677,697,718,737,759,777,797,817,837,859,878,897,917,937,957,977,998,1018,1038,1057,1077,1097,1118,1139],"xSR":741.5,"ySR":449.15000000000003,"xT1":424.9,"yT1":0,"xT2":1058.1,"yT2":0,"toosoon":0,"cond_shown":"Congruent","ratio_trial":100,"L_num":7,"L_den":14,"R_num":15,"R_den":25,"correct_side":2,"subjID":"MariaCamilaAlegriaLopez6","gender":"1","school":"6","age":""},{"start_time":1551901393792,"click_time":1551901395169,"finger_time":1551901394829,"fix_duration":1202.2408923196385,"trial":33,"RT":1037,"MT":340,"sideResp":2,"stimulus":[],"xmouse":[802,802,802,802,802,802,802,802,802,802,802,802,802,802,802,802,802,802,802,802,802,802,802,802,802,802,802,802,802,802,802,802,802,802,802,802,802,802,802,802,802,802,802,802,802,802,802,802,802,802,810,824,835,839,840,843,846,855,862,871,881,894,930,960,1000,1037,1057,1078,1080],"ymouse":[475,475,475,475,475,475,475,475,475,475,475,475,475,475,475,475,475,475,475,475,475,475,475,475,475,475,475,475,475,475,475,475,475,475,475,475,475,475,475,475,475,475,475,475,475,475,475,475,475,471,460,444,432,429,427,423,420,407,398,384,370,350,304,269,221,169,136,104,97],"timestamp_mouse":[16,36,56,76,96,117,136,156,176,197,216,236,257,276,296,317,336,356,376,397,416,436,457,476,496,516,536,556,577,597,616,636,656,676,696,717,736,756,776,796,816,837,856,876,896,916,936,957,978,996,1017,1037,1056,1076,1097,1117,1137,1156,1176,1196,1218,1236,1256,1277,1297,1316,1336,1357,1377],"xSR":741.5,"ySR":449.15000000000003,"xT1":424.9,"yT1":0,"xT2":1058.1,"yT2":0,"toosoon":0,"cond_shown":"Congruent","ratio_trial":300,"L_num":1,"L_den":5,"R_num":3,"R_den":6,"correct_side":2,"subjID":"MariaCamilaAlegriaLopez6","gender":"1","school":"6","age":""},{"start_time":1551901396381,"click_time":1551901397489,"finger_time":1551901396948,"fix_duration":250,"trial":34,"RT":567,"MT":541,"sideResp":2,"stimulus":[],"xmouse":[776,776,776,776,776,776,776,776,776,776,776,776,776,776,776,776,776,776,791,794,794,794,794,794,794,794,795,796,825,843,863,883,901,926,934,944,964,974,1007,1017,1025,1028,1029,1029,1029,1029,1029,1029,1029,1029,1029,1035,1042,1054,1058,1062],"ymouse":[493,493,493,493,493,493,493,493,493,493,493,493,493,493,493,493,493,492,481,479,479,479,479,479,479,479,478,474,421,391,358,320,277,210,189,171,141,128,78,63,53,49,49,49,49,49,49,49,49,49,49,49,50,54,56,56],"timestamp_mouse":[13,34,48,68,88,107,127,147,167,187,207,227,247,267,287,308,327,347,367,388,407,427,447,467,487,508,528,547,567,588,607,628,648,667,688,709,727,747,767,787,808,827,847,868,887,907,927,947,968,987,1007,1027,1047,1067,1088,1108],"xSR":741.5,"ySR":449.15000000000003,"xT1":424.9,"yT1":0,"xT2":1058.1,"yT2":0,"toosoon":0,"cond_shown":"Incongruent","ratio_trial":300,"L_num":8,"L_den":10,"R_num":14,"R_den":28,"correct_side":1,"subjID":"MariaCamilaAlegriaLopez6","gender":"1","school":"6","age":""},{"start_time":1551901399679,"click_time":1551901401248,"finger_time":1551901400649,"fix_duration":1370.0031658896594,"trial":35,"RT":970,"MT":599,"sideResp":1,"stimulus":[],"xmouse":[763,763,763,763,763,763,763,763,763,763,763,763,763,763,763,763,763,763,763,763,763,763,763,763,763,763,763,763,763,763,763,763,763,763,763,763,763,763,763,763,763,763,763,763,763,763,763,760,755,752,749,744,739,722,716,710,702,693,679,672,659,645,624,570,554,547,543,536,526,522,520,519,519,519,519,519,520,521,521],"ymouse":[503,503,503,503,503,503,503,503,503,503,503,503,503,503,503,503,503,503,503,503,503,503,503,503,503,503,503,503,503,503,503,503,503,503,503,503,503,503,503,503,503,503,503,499,483,474,467,459,443,432,412,396,378,325,306,291,275,263,247,244,237,227,216,181,170,164,157,147,139,131,127,125,125,125,124,116,110,100,89],"timestamp_mouse":[11,33,49,69,89,110,130,149,169,189,209,229,249,269,289,309,329,350,369,390,410,429,450,469,490,510,529,549,569,589,609,629,649,669,689,710,729,749,769,789,809,829,849,870,890,909,929,949,970,989,1010,1029,1050,1070,1089,1109,1129,1149,1170,1189,1210,1229,1250,1270,1289,1310,1330,1349,1369,1389,1410,1429,1449,1470,1490,1509,1530,1550,1569],"xSR":741.5,"ySR":449.15000000000003,"xT1":424.9,"yT1":0,"xT2":1058.1,"yT2":0,"toosoon":0,"cond_shown":"Incongruent","ratio_trial":300,"L_num":13,"L_den":26,"R_num":12,"R_den":15,"correct_side":2,"subjID":"MariaCamilaAlegriaLopez6","gender":"1","school":"6","age":""},{"start_time":1551901403498,"click_time":1551901405268,"finger_time":1551901404950,"fix_duration":1227.3917412523942,"trial":36,"RT":1452,"MT":318,"sideResp":1,"stimulus":[],"xmouse":[794,794,794,794,794,794,794,794,794,794,794,794,794,794,794,794,794,794,794,794,794,794,794,794,794,794,794,794,794,794,794,794,794,794,794,794,794,794,794,794,794,794,794,794,794,794,794,794,794,794,794,794,794,794,794,794,794,794,794,794,794,794,794,794,794,794,794,793,783,770,759,745,727,628,572,544,528,523,523,523,523,523,522,519,517,515,514,511,505],"ymouse":[508,508,508,508,508,508,508,508,508,508,508,508,508,508,508,508,508,508,508,508,508,508,508,508,508,508,508,508,508,508,508,508,508,508,508,508,508,508,508,508,508,508,508,508,508,508,508,508,508,508,508,508,508,508,508,508,508,508,508,508,508,508,508,508,508,508,508,508,493,481,467,450,426,311,246,210,191,185,185,185,185,185,184,171,160,144,126,107,76],"timestamp_mouse":[12,32,50,70,91,110,131,150,170,192,210,230,250,270,290,310,332,351,370,390,410,430,451,470,490,510,530,551,571,591,610,630,650,670,690,710,730,750,771,790,810,830,850,871,890,910,931,951,970,991,1010,1032,1050,1070,1090,1110,1130,1150,1171,1190,1210,1231,1250,1270,1291,1311,1330,1350,1370,1391,1410,1432,1452,1470,1490,1511,1530,1550,1570,1590,1610,1630,1650,1671,1691,1710,1731,1750,1770],"xSR":741.5,"ySR":449.15000000000003,"xT1":424.9,"yT1":0,"xT2":1058.1,"yT2":0,"toosoon":0,"cond_shown":"Congruent","ratio_trial":200,"L_num":11,"L_den":22,"R_num":3,"R_den":10,"correct_side":1,"subjID":"MariaCamilaAlegriaLopez6","gender":"1","school":"6","age":""},{"start_time":1551901407078,"click_time":1551901408248,"finger_time":1551901407668,"fix_duration":446.41729393035257,"trial":37,"RT":590,"MT":580,"sideResp":2,"stimulus":[],"xmouse":[823,823,823,823,823,823,823,823,823,823,823,823,823,823,823,823,823,823,823,823,823,823,823,823,823,823,823,824,826,846,855,863,868,876,885,906,916,925,939,970,995,1021,1039,1050,1056,1057,1057,1057,1057,1059,1062,1066,1067,1068,1077,1081,1089,1091,1092],"ymouse":[497,497,497,497,497,497,497,497,497,497,497,497,497,497,497,497,497,497,497,497,497,497,497,497,497,497,497,497,497,489,483,476,468,456,439,409,398,387,368,323,285,251,223,205,182,178,175,174,171,165,150,143,141,139,129,123,108,102,97],"timestamp_mouse":[12,36,50,70,90,110,131,150,170,190,210,230,250,270,291,311,330,350,371,390,410,431,451,470,490,510,530,551,570,590,610,631,651,670,690,711,731,751,770,791,810,830,851,870,890,910,930,950,971,991,1010,1030,1050,1070,1091,1112,1130,1150,1170],"xSR":741.5,"ySR":449.15000000000003,"xT1":424.9,"yT1":0,"xT2":1058.1,"yT2":0,"toosoon":0,"cond_shown":"Congruent","ratio_trial":100,"L_num":2,"L_den":5,"R_num":11,"R_den":22,"correct_side":2,"subjID":"MariaCamilaAlegriaLopez6","gender":"1","school":"6","age":""},{"start_time":1551901409545,"click_time":1551901411108,"finger_time":1551901410609,"fix_duration":414.7202714056897,"trial":38,"RT":1064,"MT":499,"sideResp":2,"stimulus":[],"xmouse":[771,771,771,771,771,771,771,771,771,771,771,771,771,771,771,771,771,771,771,771,771,771,771,771,771,771,771,771,771,771,771,771,771,771,771,771,771,771,771,771,771,773,777,783,786,788,789,790,792,794,798,802,813,821,824,828,837,841,846,852,861,876,890,901,914,932,955,1004,1027,1041,1045,1047,1048,1048,1048,1049,1054,1057,1061],"ymouse":[495,495,495,495,495,495,495,495,495,495,495,495,495,495,495,495,495,495,495,495,495,495,495,495,495,495,495,495,495,495,495,495,495,495,495,495,495,495,495,495,495,495,494,491,487,486,485,485,483,481,479,476,457,432,409,389,353,336,320,305,292,270,251,236,219,202,185,149,135,124,121,119,118,118,117,113,105,101,95],"timestamp_mouse":[9,38,44,63,83,103,122,143,163,183,204,223,243,263,283,303,323,343,362,383,403,423,442,464,484,504,523,544,564,582,603,624,643,664,683,703,723,744,763,783,803,823,843,863,883,903,923,942,964,983,1002,1023,1042,1064,1083,1103,1125,1142,1163,1184,1204,1224,1243,1264,1283,1304,1323,1343,1363,1384,1404,1422,1443,1463,1483,1503,1524,1543,1563],"xSR":741.5,"ySR":449.15000000000003,"xT1":424.9,"yT1":0,"xT2":1058.1,"yT2":0,"toosoon":0,"cond_shown":"Congruent","ratio_trial":300,"L_num":5,"L_den":25,"R_num":7,"R_den":14,"correct_side":2,"subjID":"MariaCamilaAlegriaLopez6","gender":"1","school":"6","age":""},{"start_time":1551901413739,"click_time":1551901415468,"finger_time":1551901415088,"fix_duration":250,"trial":39,"RT":1349,"MT":380,"sideResp":1,"stimulus":[],"xmouse":[804,804,804,804,804,804,804,804,804,804,804,804,804,804,804,804,804,804,804,804,804,804,804,804,804,804,804,804,804,804,804,804,804,804,804,804,804,804,804,804,804,804,804,804,804,804,804,804,804,804,804,804,804,804,804,804,804,804,804,804,804,804,804,804,804,804,805,762,733,717,710,694,677,674,671,670,667,660,652,642,629,604,585,553,531,494,465],"ymouse":[493,493,493,493,493,493,493,493,493,493,493,493,493,493,493,493,493,493,493,493,493,493,493,493,493,493,493,493,493,493,493,493,493,493,493,493,493,493,493,493,493,493,493,493,493,493,493,493,493,493,493,493,493,493,493,493,493,493,493,493,493,493,493,493,493,493,493,430,381,351,325,285,248,242,238,235,231,218,209,198,186,170,160,140,123,103,86],"timestamp_mouse":[13,33,49,68,89,108,129,150,169,190,209,229,249,269,290,309,329,350,368,390,410,429,448,469,489,509,529,548,568,589,609,629,649,669,689,709,729,749,770,789,809,830,849,869,889,909,929,950,969,988,1008,1030,1050,1068,1089,1108,1129,1149,1169,1189,1209,1229,1249,1269,1289,1310,1329,1349,1369,1388,1409,1429,1449,1469,1490,1509,1529,1548,1569,1589,1609,1629,1649,1669,1690,1709,1729],"xSR":741.5,"ySR":449.15000000000003,"xT1":424.9,"yT1":0,"xT2":1058.1,"yT2":0,"toosoon":0,"cond_shown":"Congruent","ratio_trial":100,"L_num":11,"L_den":22,"R_num":6,"R_den":15,"correct_side":1,"subjID":"MariaCamilaAlegriaLopez6","gender":"1","school":"6","age":""},{"start_time":1551901416500,"click_time":1551901418228,"finger_time":1551901417687,"fix_duration":250,"trial":40,"RT":1187,"MT":541,"sideResp":2,"stimulus":[],"xmouse":[780,780,780,780,780,780,780,780,780,780,780,780,780,780,780,780,780,780,780,780,780,780,780,780,780,780,780,780,780,780,780,780,780,780,780,780,780,780,780,781,784,784,784,784,784,784,784,784,784,784,784,784,784,784,788,795,801,806,812,816,823,829,835,841,864,886,907,926,943,972,982,990,994,999,1002,1005,1006,1007,1010,1011,1028,1042,1048,1053,1055,1058,1059],"ymouse":[500,500,500,500,500,500,500,500,500,500,500,500,500,500,500,500,500,500,500,500,500,500,500,500,500,500,500,500,500,500,500,500,500,500,500,500,500,500,500,499,495,494,494,494,494,494,494,494,494,494,494,494,494,494,488,480,472,464,457,449,425,402,388,375,316,274,239,215,195,164,154,144,139,132,129,125,124,123,122,120,111,102,99,96,95,93,92],"timestamp_mouse":[12,36,48,68,88,109,127,148,168,188,208,227,248,268,288,308,329,347,369,388,409,428,448,468,488,508,527,548,568,588,608,628,648,669,688,708,728,748,768,789,808,829,848,868,888,908,928,948,968,988,1009,1028,1048,1069,1088,1109,1129,1148,1168,1187,1208,1229,1248,1268,1289,1309,1328,1349,1367,1389,1407,1428,1447,1467,1489,1508,1528,1549,1568,1589,1608,1628,1647,1668,1688,1707,1728],"xSR":741.5,"ySR":449.15000000000003,"xT1":424.9,"yT1":0,"xT2":1058.1,"yT2":0,"toosoon":0,"cond_shown":"Congruent","ratio_trial":300,"L_num":1,"L_den":5,"R_num":6,"R_den":12,"correct_side":2,"subjID":"MariaCamilaAlegriaLopez6","gender":"1","school":"6","age":""},{"start_time":1551901420929,"click_time":1551901422448,"finger_time":1551901422288,"fix_duration":1318.162678218854,"trial":41,"RT":1359,"MT":160,"sideResp":1,"stimulus":[],"xmouse":[754,754,754,754,754,754,754,754,754,754,754,754,754,754,754,754,754,754,754,754,754,754,754,754,754,754,754,754,754,754,754,756,762,772,773,773,773,773,773,773,773,772,772,770,770,770,770,770,770,770,770,770,770,770,770,770,770,770,770,770,770,770,770,770,770,770,768,762,739,676,647,621,599,579,546,531,516],"ymouse":[490,490,490,490,490,490,490,490,490,490,490,490,490,490,490,490,490,490,490,490,490,490,490,490,490,490,490,490,490,490,490,485,476,463,462,461,460,460,460,460,460,460,460,460,460,460,460,460,460,460,460,460,460,460,460,460,460,460,460,460,460,460,460,460,460,460,460,454,429,302,251,215,182,156,120,106,94],"timestamp_mouse":[1,19,39,60,79,100,119,139,158,180,199,219,238,259,280,300,319,338,359,379,399,420,439,460,480,498,520,539,560,580,600,620,639,660,679,699,720,739,760,778,799,820,840,859,880,898,919,939,959,979,999,1018,1039,1059,1080,1099,1119,1139,1159,1180,1198,1218,1239,1259,1279,1298,1319,1339,1359,1379,1398,1419,1438,1458,1478,1500,1518],"xSR":741.5,"ySR":449.15000000000003,"xT1":424.9,"yT1":0,"xT2":1058.1,"yT2":0,"toosoon":0,"cond_shown":"Congruent","ratio_trial":200,"L_num":4,"L_den":10,"R_num":3,"R_den":15,"correct_side":1,"subjID":"MariaCamilaAlegriaLopez6","gender":"1","school":"6","age":""},{"start_time":1551901423800,"click_time":1551901425509,"finger_time":1551901424888,"fix_duration":250,"trial":42,"RT":1088,"MT":621,"sideResp":2,"stimulus":[],"xmouse":[795,795,795,795,795,795,795,795,795,795,795,795,795,795,795,795,795,795,795,795,795,795,795,795,795,795,795,795,795,795,795,795,795,795,795,795,795,795,795,795,795,795,795,795,795,795,795,795,795,795,799,807,818,831,852,864,889,901,912,919,931,939,947,949,960,972,979,983,987,993,1005,1008,1010,1012,1013,1013,1013,1016,1019,1020,1020,1020,1020,1030,1040,1065],"ymouse":[486,486,486,486,486,486,486,486,486,486,486,486,486,486,486,486,486,486,486,486,486,486,486,486,486,486,486,486,486,486,486,486,486,486,486,486,486,486,486,486,486,486,486,486,486,486,486,486,486,486,481,472,463,453,435,425,399,383,365,351,322,304,262,250,212,163,141,122,104,91,76,72,70,68,68,67,67,64,63,63,63,63,62,57,47,22],"timestamp_mouse":[18,41,48,67,87,108,128,148,168,188,208,228,249,268,288,308,328,348,368,389,409,428,448,468,488,508,528,549,569,588,608,628,648,668,688,708,728,749,768,787,808,828,849,868,887,908,928,949,968,988,1009,1028,1049,1067,1088,1108,1129,1147,1168,1187,1208,1229,1249,1267,1289,1308,1328,1348,1369,1388,1408,1427,1449,1469,1489,1508,1529,1547,1568,1588,1609,1628,1648,1668,1688,1709],"xSR":741.5,"ySR":449.15000000000003,"xT1":424.9,"yT1":0,"xT2":1058.1,"yT2":0,"toosoon":0,"cond_shown":"Congruent","ratio_trial":300,"L_num":4,"L_den":20,"R_num":13,"R_den":26,"correct_side":2,"subjID":"MariaCamilaAlegriaLopez6","gender":"1","school":"6","age":""},{"start_time":1551901427938,"click_time":1551901429310,"finger_time":1551901428849,"fix_duration":1268.7989746430637,"trial":43,"RT":911,"MT":461,"sideResp":1,"stimulus":[],"xmouse":[761,761,761,761,761,761,761,761,761,761,761,761,761,761,761,761,761,761,761,761,761,761,761,761,761,761,761,761,761,761,761,761,761,761,761,761,763,767,768,769,769,769,771,768,743,718,687,660,633,596,586,577,567,554,548,547,546,546,545,545,545,544,542,536,532,532,529,527,524],"ymouse":[483,483,483,483,483,483,483,483,483,483,483,483,483,483,483,483,483,483,483,483,483,483,483,483,483,483,483,483,483,483,483,483,483,483,483,483,483,483,482,482,482,482,481,475,453,432,405,380,355,321,308,294,280,252,235,230,226,223,212,205,195,181,158,107,70,50,32,22,12],"timestamp_mouse":[10,38,50,70,91,109,130,150,169,189,210,231,250,269,291,310,330,350,370,390,410,430,451,469,490,510,531,550,570,590,610,630,650,671,691,711,730,750,770,791,810,830,850,871,891,911,931,950,970,990,1011,1030,1050,1072,1089,1110,1130,1151,1172,1189,1211,1230,1250,1272,1290,1310,1330,1350,1372],"xSR":741.5,"ySR":449.15000000000003,"xT1":424.9,"yT1":0,"xT2":1058.1,"yT2":0,"toosoon":0,"cond_shown":"Congruent","ratio_trial":300,"L_num":8,"L_den":16,"R_num":1,"R_den":5,"correct_side":1,"subjID":"MariaCamilaAlegriaLopez6","gender":"1","school":"6","age":""},{"start_time":1551901431315,"click_time":1551901432748,"finger_time":1551901432348,"fix_duration":786.8836384571583,"trial":44,"RT":1033,"MT":400,"sideResp":1,"stimulus":[],"xmouse":[781,781,781,781,781,781,781,781,781,781,781,781,781,781,781,781,781,781,781,781,781,781,781,781,781,781,781,781,781,781,781,781,781,781,781,781,781,781,781,781,781,781,781,781,781,781,781,781,781,781,777,764,754,738,726,704,698,693,687,681,669,662,656,645,629,606,592,575,555,540,522,500],"ymouse":[483,483,483,483,483,483,483,483,483,483,483,483,483,483,483,483,483,483,483,483,483,483,483,483,483,483,483,483,483,483,483,483,483,483,483,483,483,483,483,483,483,483,483,483,483,483,483,483,483,477,459,437,417,386,365,326,314,300,288,275,254,239,232,218,196,172,159,143,129,115,105,97],"timestamp_mouse":[13,43,53,73,93,113,132,153,174,193,213,233,253,273,293,313,333,353,373,394,413,433,453,473,493,514,533,554,573,593,614,633,654,673,693,713,733,753,774,793,813,833,853,873,892,912,933,953,973,993,1014,1033,1054,1073,1093,1112,1134,1153,1174,1194,1213,1232,1253,1274,1294,1313,1333,1353,1373,1393,1413,1433],"xSR":741.5,"ySR":449.15000000000003,"xT1":424.9,"yT1":0,"xT2":1058.1,"yT2":0,"toosoon":0,"cond_shown":"Incongruent","ratio_trial":200,"L_num":14,"L_den":30,"R_num":12,"R_den":18,"correct_side":2,"subjID":"MariaCamilaAlegriaLopez6","gender":"1","school":"6","age":""},{"start_time":1551901433920,"click_time":1551901435448,"finger_time":1551901435227,"fix_duration":250,"trial":45,"RT":1307,"MT":221,"sideResp":2,"stimulus":[],"xmouse":[757,757,757,757,757,758,758,760,760,760,762,763,766,772,776,780,784,785,786,787,790,790,790,790,790,790,791,791,792,792,792,792,792,793,794,799,803,806,808,808,808,809,809,809,809,810,811,815,816,820,826,826,827,827,827,827,827,827,827,827,827,828,829,829,830,833,838,841,846,852,872,883,911,938,972,1048,1072],"ymouse":[495,495,495,495,495,495,495,495,495,495,495,495,495,495,495,495,494,493,493,493,492,492,492,492,492,492,491,491,491,491,491,491,491,490,490,488,486,484,483,483,483,482,482,482,482,482,482,481,480,479,473,470,469,469,469,469,469,469,469,469,468,465,460,456,452,441,429,419,406,393,355,331,288,251,206,113,84],"timestamp_mouse":[10,41,48,67,88,108,128,148,168,189,208,228,248,268,288,308,329,348,369,388,408,428,447,468,488,508,528,548,568,588,607,628,648,668,688,707,729,748,768,788,809,828,848,868,888,908,928,947,968,988,1009,1028,1047,1068,1088,1108,1128,1148,1168,1188,1209,1228,1248,1268,1288,1307,1328,1349,1368,1388,1409,1427,1448,1468,1487,1508,1527],"xSR":741.5,"ySR":449.15000000000003,"xT1":424.9,"yT1":0,"xT2":1058.1,"yT2":0,"toosoon":0,"cond_shown":"Congruent","ratio_trial":200,"L_num":8,"L_den":15,"R_num":2,"R_den":6,"correct_side":1,"subjID":"MariaCamilaAlegriaLopez6","gender":"1","school":"6","age":""},{"start_time":1551901437159,"click_time":1551901438488,"finger_time":1551901437989,"fix_duration":250,"trial":46,"RT":830,"MT":499,"sideResp":1,"stimulus":[],"xmouse":[784,784,784,784,784,783,782,782,782,782,782,782,782,782,782,782,782,782,782,782,782,782,782,782,782,782,782,782,782,782,782,782,782,782,782,782,782,782,782,775,756,728,698,673,637,628,619,617,617,612,596,579,563,555,539,534,530,528,528,528,528,528,528,528,526,525,524],"ymouse":[488,488,488,488,488,488,488,488,488,488,488,488,488,488,488,488,488,488,488,488,488,488,488,488,488,488,488,488,488,488,488,488,488,488,488,488,488,488,488,487,470,444,416,392,367,360,355,354,353,347,323,291,251,221,173,151,137,130,113,101,96,93,91,89,82,78,75],"timestamp_mouse":[12,32,49,70,90,110,129,149,170,190,209,229,248,269,290,309,329,349,369,388,410,429,449,470,489,509,530,549,570,590,608,629,649,668,690,709,729,749,768,790,810,830,849,869,889,909,929,949,970,989,1009,1029,1050,1069,1089,1109,1129,1149,1171,1188,1209,1229,1250,1268,1289,1309,1329],"xSR":741.5,"ySR":449.15000000000003,"xT1":424.9,"yT1":0,"xT2":1058.1,"yT2":0,"toosoon":0,"cond_shown":"Congruent","ratio_trial":300,"L_num":20,"L_den":25,"R_num":8,"R_den":16,"correct_side":1,"subjID":"MariaCamilaAlegriaLopez6","gender":"1","school":"6","age":""},{"start_time":1551901439840,"click_time":1551901441709,"finger_time":1551901441428,"fix_duration":250,"trial":47,"RT":1588,"MT":281,"sideResp":1,"stimulus":[],"xmouse":[798,798,798,798,798,798,798,798,798,798,798,798,798,798,798,798,798,798,798,798,798,798,798,798,798,798,798,798,798,798,798,798,798,798,798,798,798,798,798,798,798,798,798,798,798,798,798,798,798,798,798,798,798,798,798,798,798,798,798,798,798,798,798,798,798,798,798,798,798,798,798,798,798,798,798,798,798,779,748,699,559,500,468,455,454,453,451,451,450,450,450,452,455,459],"ymouse":[522,522,522,522,522,522,522,522,522,522,522,522,522,522,522,522,522,522,522,522,522,522,522,522,522,522,522,522,522,522,522,522,522,522,522,522,522,522,522,522,522,522,522,522,522,522,522,522,522,522,522,522,522,522,522,522,522,522,522,522,522,522,522,522,522,522,522,522,522,522,522,522,522,522,522,522,521,495,466,420,299,234,196,177,173,167,153,146,140,133,127,114,103,87],"timestamp_mouse":[18,38,48,68,88,108,128,148,168,188,208,228,247,268,288,308,328,349,369,388,408,429,449,468,488,508,528,549,568,588,608,628,649,668,687,708,727,748,768,788,807,828,848,868,888,908,928,948,968,987,1007,1028,1049,1068,1088,1108,1128,1148,1169,1188,1208,1229,1248,1269,1288,1308,1329,1348,1368,1388,1408,1428,1448,1468,1488,1508,1529,1548,1569,1587,1608,1627,1648,1668,1688,1708,1729,1748,1768,1789,1808,1829,1848,1869],"xSR":741.5,"ySR":449.15000000000003,"xT1":424.9,"yT1":0,"xT2":1058.1,"yT2":0,"toosoon":0,"cond_shown":"Incongruent","ratio_trial":100,"L_num":8,"L_den":20,"R_num":1,"R_den":2,"correct_side":2,"subjID":"MariaCamilaAlegriaLopez6","gender":"1","school":"6","age":""},{"start_time":1551901444872,"click_time":1551901446508,"finger_time":1551901445987,"fix_duration":502.34216723011593,"trial":48,"RT":1115,"MT":521,"sideResp":1,"stimulus":[],"xmouse":[809,809,809,809,809,809,809,809,809,809,809,809,809,809,809,809,809,809,809,809,809,809,809,809,809,809,809,809,809,809,809,809,809,809,809,809,809,809,809,809,808,807,805,803,801,801,800,800,800,797,796,796,794,792,786,783,780,779,776,766,756,739,720,700,650,631,611,592,557,542,532,523,514,508,501,500,497,494,493,491,491,491],"ymouse":[499,499,499,499,499,499,499,499,499,499,499,499,499,499,499,499,499,499,499,499,499,499,499,499,499,499,499,499,499,499,499,499,499,499,499,499,499,499,499,499,496,493,489,481,480,478,477,476,474,471,469,468,465,462,452,448,444,442,440,430,421,408,394,379,342,328,311,295,265,246,234,223,207,191,167,159,148,139,132,122,110,83],"timestamp_mouse":[32,36,56,76,97,117,136,156,176,196,216,236,256,276,297,316,336,356,377,396,416,436,456,476,496,516,536,556,576,596,617,637,657,676,696,716,735,756,776,797,816,836,857,876,895,917,936,956,976,997,1017,1036,1056,1076,1097,1115,1136,1156,1176,1196,1216,1237,1257,1276,1297,1316,1337,1356,1377,1396,1416,1436,1456,1477,1497,1516,1537,1556,1578,1595,1617,1636],"xSR":741.5,"ySR":449.15000000000003,"xT1":424.9,"yT1":0,"xT2":1058.1,"yT2":0,"toosoon":0,"cond_shown":"Congruent","ratio_trial":100,"L_num":9,"L_den":15,"R_num":8,"R_den":16,"correct_side":1,"subjID":"MariaCamilaAlegriaLopez6","gender":"1","school":"6","age":""},{"start_time":1551901447979,"click_time":1551901449628,"finger_time":1551901449368,"fix_duration":328.23090034846547,"trial":49,"RT":1389,"MT":260,"sideResp":1,"stimulus":[],"xmouse":[796,796,796,796,796,796,796,796,796,796,796,796,796,796,796,796,796,796,796,796,796,796,796,796,796,796,796,796,796,796,796,796,796,796,796,796,796,796,796,796,796,796,796,796,796,796,796,796,796,796,796,796,796,796,796,796,796,793,790,783,782,781,780,780,780,780,780,780,780,770,762,753,741,719,664,632,587,570,559,545,540,529,520],"ymouse":[486,486,486,486,486,486,486,486,486,486,486,486,486,486,486,486,486,486,486,486,486,486,486,486,486,486,486,486,486,486,486,486,486,486,486,486,486,486,486,486,486,486,486,486,486,486,486,486,486,486,486,486,486,486,486,486,486,486,486,485,485,485,484,484,484,484,481,477,470,443,428,410,393,360,264,218,160,129,111,88,77,61,47],"timestamp_mouse":[9,29,49,68,89,109,129,149,169,189,209,229,248,269,289,309,329,348,369,389,410,429,450,469,489,508,529,550,569,590,609,629,649,670,689,709,729,749,769,789,809,829,848,869,889,909,929,949,969,989,1009,1030,1050,1068,1089,1109,1129,1150,1168,1190,1208,1228,1249,1269,1289,1310,1329,1349,1369,1389,1409,1430,1450,1470,1488,1509,1529,1550,1568,1589,1608,1629,1649],"xSR":741.5,"ySR":449.15000000000003,"xT1":424.9,"yT1":0,"xT2":1058.1,"yT2":0,"toosoon":0,"cond_shown":"Incongruent","ratio_trial":100,"L_num":9,"L_den":15,"R_num":14,"R_den":28,"correct_side":1,"subjID":"MariaCamilaAlegriaLopez6","gender":"1","school":"6","age":""},{"start_time":1551901451535,"click_time":1