[{"start_time":1551801263823,"click_time":1551801267820,"finger_time":1551801267079,"fix_duration":599.8625415367441,"trial":0,"RT":3256,"MT":741,"sideResp":1,"stimulus":"img/750/randomdotsizeEA/L/6_Ratio_750_L_24_R_18.png","xmouse":[794,794,794,794,794,794,794,794,794,794,794,794,794,794,794,794,794,794,794,794,794,794,794,794,794,794,794,794,794,794,794,794,794,794,794,794,794,794,794,794,794,794,794,794,794,794,794,794,794,794,794,794,794,794,794,794,794,794,794,794,794,794,794,794,794,794,794,794,794,794,794,794,794,794,794,794,794,794,794,794,794,794,794,794,794,794,794,794,794,794,794,794,794,794,794,794,794,794,794,794,794,794,794,794,794,794,794,794,794,794,794,794,794,794,794,794,794,794,794,794,794,794,794,794,794,794,794,794,794,794,794,794,794,794,794,794,794,799,800,800,800,801,802,802,802,802,802,802,802,802,802,802,802,802,802,802,802,802,802,802,802,803,801,788,783,777,762,757,750,746,740,736,729,723,710,691,684,677,659,639,615,590,564,508,497,494,491,489,489,489,489,489,489,489,489,489,482,463,454,450,450],"ymouse":[526,526,526,526,526,526,526,526,526,526,526,526,526,526,526,526,526,526,526,526,526,526,526,526,526,526,526,526,526,526,526,526,526,526,526,526,526,526,526,526,526,526,526,526,526,526,526,526,526,526,526,526,526,526,526,526,526,526,526,526,526,526,526,526,526,526,526,526,526,526,526,526,526,526,526,526,526,526,526,526,526,526,526,526,526,526,526,526,526,526,526,526,526,526,526,526,526,526,526,526,526,526,526,526,526,526,526,526,526,526,526,526,526,526,526,526,526,526,526,526,526,526,526,526,526,526,526,526,526,526,526,526,526,526,526,526,525,519,518,518,518,518,518,518,518,518,518,518,518,518,518,518,518,518,518,518,518,518,518,518,518,514,504,422,388,363,323,312,296,288,282,278,270,266,261,253,250,249,249,249,249,249,249,241,236,233,228,224,220,218,216,214,211,210,210,208,192,148,126,107,99],"timestamp_mouse":[1,16,48,56,77,97,117,137,157,177,196,216,237,255,277,297,316,337,357,376,397,416,437,456,476,496,516,536,556,576,597,615,636,657,675,696,717,736,756,777,797,816,836,856,877,896,917,937,957,976,997,1017,1037,1057,1076,1096,1116,1137,1155,1176,1197,1217,1237,1256,1277,1296,1317,1337,1357,1376,1396,1416,1436,1457,1477,1497,1516,1537,1556,1576,1595,1616,1635,1657,1677,1696,1716,1737,1757,1777,1796,1817,1837,1857,1876,1896,1917,1935,1956,1976,1995,2017,2036,2056,2077,2096,2117,2137,2157,2176,2196,2216,2237,2256,2277,2296,2316,2336,2356,2377,2396,2416,2437,2457,2476,2497,2516,2536,2557,2577,2597,2616,2636,2657,2677,2695,2716,2737,2756,2776,2797,2817,2837,2856,2876,2896,2915,2937,2956,2975,2997,3016,3037,3055,3075,3097,3116,3137,3156,3176,3196,3216,3235,3256,3277,3296,3316,3336,3356,3375,3397,3415,3436,3456,3477,3496,3515,3537,3557,3575,3596,3616,3637,3655,3676,3696,3715,3736,3756,3777,3797,3816,3837,3856,3876,3895,3915,3936,3956,3976,3997],"xSR":741.5,"ySR":501.8,"xT1":424.9,"yT1":0,"xT2":1058.1,"yT2":0,"toosoon":0,"cond_shown":"randomdotsizeEA","ratio_trial":750,"smaller_num":"18","larger_num":"24","correct_side":1,"subjID":"MariaCamilaOrtegonGOMEZ","gender":"1","age":"12","school":"6}","test":{"fix_dur":[250,1500],"timestim":300,"targets_dim":[100,100],"targets_relative_coord":[0.3,0.7],"size_stim":[880,420],"start_dim":[100,100],"size_start":[300,300],"size_fix":60,"samplingrate":20,"img_types":["equaldotsize","equaldotanddens","randomdotsizeEA"],"ratios":[250,500,750,900],"rep_conds":9,"nTrials":120,"trials_to_rest":500,"Trials_order":[20,110,97,57,1,119,92,21,13,46,52,42,31,96,45,118,115,3,65,10,83,81,69,116,19,95,106,47,17,28,90,56,114,77,84,18,105,2,112,89,72,44,11,41,9,94,59,76,39,32,98,5,38,86,51,117,33,58,12,37,63,35,70,79,15,74,85,107,62,25,71,0,43,101,50,67,22,93,60,14,100,78,64,66,61,91,87,16,49,102,103,6,34,82,30,53,104,109,8,99,4,36,54,48,29,27,113,73,111,55,40,26,108,75,80,23,24,7,88,68],"cond_shown":["randomdotsizeEA","randomdotsizeEA","equaldotanddens","equaldotsize","equaldotanddens","randomdotsizeEA","randomdotsizeEA","equaldotsize","equaldotanddens","equaldotanddens","equaldotanddens","equaldotsize","equaldotanddens","equaldotsize","equaldotsize","equaldotanddens","equaldotanddens","equaldotsize","randomdotsizeEA","equaldotanddens","randomdotsizeEA","equaldotsize","equaldotsize","randomdotsizeEA","equaldotanddens","randomdotsizeEA","equaldotanddens","randomdotsizeEA","randomdotsizeEA","equaldotanddens","equaldotsize","randomdotsizeEA","equaldotsize","randomdotsizeEA","equaldotsize","equaldotsize","equaldotsize","randomdotsizeEA","equaldotanddens","randomdotsizeEA","equaldotsize","randomdotsizeEA","randomdotsizeEA","randomdotsizeEA","equaldotsize","equaldotanddens","randomdotsizeEA","equaldotanddens","equaldotsize","randomdotsizeEA","randomdotsizeEA","randomdotsizeEA","randomdotsizeEA","randomdotsizeEA","equaldotsize","equaldotsize","equaldotsize","equaldotanddens","equaldotsize","equaldotanddens","equaldotsize","randomdotsizeEA","equaldotanddens","equaldotanddens","equaldotsize","randomdotsizeEA","equaldotanddens","randomdotsizeEA","randomdotsizeEA","equaldotanddens","randomdotsizeEA","equaldotsize","equaldotanddens","randomdotsizeEA","randomdotsizeEA","equaldotanddens","equaldotanddens","equaldotsize","equaldotsize","randomdotsizeEA","equaldotanddens","equaldotsize","equaldotanddens","equaldotsize","equaldotanddens","equaldotanddens","equaldotsize","equaldotanddens","equaldotanddens","equaldotsize","equaldotanddens","equaldotsize","equaldotanddens","equaldotanddens","equaldotsize","randomdotsizeEA","randomdotsizeEA","equaldotanddens","randomdotsizeEA","equaldotsize","equaldotanddens","equaldotsize","equaldotsize","equaldotsize","randomdotsizeEA","equaldotsize","randomdotsizeEA","equaldotanddens","equaldotsize","equaldotanddens","equaldotanddens","randomdotsizeEA","equaldotsize","equaldotsize","randomdotsizeEA","randomdotsizeEA","equaldotsize","equaldotanddens","equaldotanddens","randomdotsizeEA"],"ratio_trial":[750,250,250,900,250,900,750,900,250,900,500,750,750,250,900,900,750,500,500,900,900,900,900,750,750,900,900,900,500,500,750,750,750,500,250,750,900,250,500,500,250,750,900,500,900,900,900,500,500,750,250,500,250,250,500,900,900,900,250,250,500,900,900,750,500,250,250,900,250,250,900,250,750,500,250,750,900,900,250,250,500,750,500,750,250,750,500,500,250,750,750,750,900,900,750,500,750,250,750,500,500,250,750,250,500,500,500,250,500,750,500,250,250,500,750,900,250,750,500,750],"smaller_num":["18","4","3","18","2","9","3","18","5","18","9","15","6","3","18","18","6","1","9","18","18","9","18","6","18","18","18","18","2","1","15","3","6","4","2","18","9","6","4","6","3","15","18","2","18","18","18","6","4","15","4","6","3","3","2","9","18","9","3","4","10","9","18","12","10","5","3","9","4","4","9","3","15","6","1","15","9","18","3","6","9","12","3","3","3","3","2","4","2","3","3","15","18","9","3","1","6","6","15","10","9","2","15","5","2","1","9","6","1","15","6","1","2","1","3","18","3","12","9","15"],"larger_num":["24","16","12","20","8","10","4","20","20","20","18","20","8","12","20","20","8","2","18","20","20","10","20","8","24","20","20","20","4","2","20","4","8","8","8","24","10","24","8","12","12","20","20","4","20","20","20","12","8","20","16","12","12","12","4","10","20","10","12","16","20","10","20","16","20","20","12","10","16","16","10","12","20","12","4","20","10","20","12","24","18","16","6","4","12","4","4","8","8","4","4","20","20","10","4","2","8","24","20","20","18","8","20","20","4","2","18","24","2","20","12","4","8","2","4","20","12","16","18","20"],"correct_side":[1,1,1,2,2,2,1,2,2,1,2,2,1,2,1,1,1,2,2,1,2,2,1,1,1,2,2,2,1,2,2,2,1,1,1,1,1,1,1,1,1,2,1,1,1,1,1,1,1,2,2,1,1,2,1,2,2,2,2,2,2,2,1,2,2,2,2,2,1,2,1,2,1,1,2,2,1,1,2,1,2,2,2,1,2,1,2,1,2,1,1,1,1,2,2,2,1,1,2,2,1,1,2,2,1,2,1,1,2,1,1,2,1,2,1,1,2,2,2,2],"img_shown":["img/750/randomdotsizeEA/L/6_Ratio_750_L_24_R_18.png","img/250/randomdotsizeEA/L/2_Ratio_250_L_16_R_4.png","img/250/equaldotanddens/L/14_Ratio_250_L_12_R_3.png","img/900/equaldotsize/R/14_Ratio_900_L_18_R_20.png","img/250/equaldotanddens/R/13_Ratio_250_L_2_R_8.png","img/900/randomdotsizeEA/R/7_Ratio_900_L_9_R_10.png","img/750/randomdotsizeEA/L/8_Ratio_750_L_4_R_3.png","img/900/equaldotsize/R/12_Ratio_900_L_18_R_20.png","img/250/equaldotanddens/R/12_Ratio_250_L_5_R_20.png","img/900/equaldotanddens/L/2_Ratio_900_L_20_R_18.png","img/500/equaldotanddens/R/1_Ratio_500_L_9_R_18.png","img/750/equaldotsize/R/3_Ratio_750_L_15_R_20.png","img/750/equaldotanddens/L/14_Ratio_750_L_8_R_6.png","img/250/equaldotsize/R/9_Ratio_250_L_3_R_12.png","img/900/equaldotsize/L/2_Ratio_900_L_20_R_18.png","img/900/equaldotanddens/L/10_Ratio_900_L_20_R_18.png","img/750/equaldotanddens/L/13_Ratio_750_L_8_R_6.png","img/500/equaldotsize/R/15_Ratio_500_L_1_R_2.png","img/500/randomdotsizeEA/R/6_Ratio_500_L_9_R_18.png","img/900/equaldotanddens/L/2_Ratio_900_L_20_R_18.png","img/900/randomdotsizeEA/R/13_Ratio_900_L_18_R_20.png","img/900/equaldotsize/R/15_Ratio_900_L_9_R_10.png","img/900/equaldotsize/L/2_Ratio_900_L_20_R_18.png","img/750/randomdotsizeEA/L/13_Ratio_750_L_8_R_6.png","img/750/equaldotanddens/L/6_Ratio_750_L_24_R_18.png","img/900/randomdotsizeEA/R/9_Ratio_900_L_18_R_20.png","img/900/equaldotanddens/R/11_Ratio_900_L_18_R_20.png","img/900/randomdotsizeEA/R/14_Ratio_900_L_18_R_20.png","img/500/randomdotsizeEA/L/10_Ratio_500_L_4_R_2.png","img/500/equaldotanddens/R/12_Ratio_500_L_1_R_2.png","img/750/equaldotsize/R/4_Ratio_750_L_15_R_20.png","img/750/randomdotsizeEA/R/12_Ratio_750_L_3_R_4.png","img/750/equaldotsize/L/14_Ratio_750_L_8_R_6.png","img/500/randomdotsizeEA/L/8_Ratio_500_L_8_R_4.png","img/250/equaldotsize/L/1_Ratio_250_L_8_R_2.png","img/750/equaldotsize/L/6_Ratio_750_L_24_R_18.png","img/900/equaldotsize/L/1_Ratio_900_L_10_R_9.png","img/250/randomdotsizeEA/L/5_Ratio_250_L_24_R_6.png","img/500/equaldotanddens/L/8_Ratio_500_L_8_R_4.png","img/500/randomdotsizeEA/L/13_Ratio_500_L_12_R_6.png","img/250/equaldotsize/L/15_Ratio_250_L_12_R_3.png","img/750/randomdotsizeEA/R/4_Ratio_750_L_15_R_20.png","img/900/randomdotsizeEA/L/4_Ratio_900_L_20_R_18.png","img/500/randomdotsizeEA/L/5_Ratio_500_L_4_R_2.png","img/900/equaldotsize/L/8_Ratio_900_L_20_R_18.png","img/900/equaldotanddens/L/4_Ratio_900_L_20_R_18.png","img/900/randomdotsizeEA/L/2_Ratio_900_L_20_R_18.png","img/500/equaldotanddens/L/13_Ratio_500_L_12_R_6.png","img/500/equaldotsize/L/8_Ratio_500_L_8_R_4.png","img/750/randomdotsizeEA/R/5_Ratio_750_L_15_R_20.png","img/250/randomdotsizeEA/R/10_Ratio_250_L_4_R_16.png","img/500/randomdotsizeEA/L/11_Ratio_500_L_12_R_6.png","img/250/randomdotsizeEA/L/14_Ratio_250_L_12_R_3.png","img/250/randomdotsizeEA/R/9_Ratio_250_L_3_R_12.png","img/500/equaldotsize/L/10_Ratio_500_L_4_R_2.png","img/900/equaldotsize/R/6_Ratio_900_L_9_R_10.png","img/900/equaldotsize/R/14_Ratio_900_L_18_R_20.png","img/900/equaldotanddens/R/7_Ratio_900_L_9_R_10.png","img/250/equaldotsize/R/4_Ratio_250_L_3_R_12.png","img/250/equaldotanddens/R/10_Ratio_250_L_4_R_16.png","img/500/equaldotsize/R/3_Ratio_500_L_10_R_20.png","img/900/randomdotsizeEA/R/7_Ratio_900_L_9_R_10.png","img/900/equaldotanddens/L/8_Ratio_900_L_20_R_18.png","img/750/equaldotanddens/R/11_Ratio_750_L_12_R_16.png","img/500/equaldotsize/R/3_Ratio_500_L_10_R_20.png","img/250/randomdotsizeEA/R/12_Ratio_250_L_5_R_20.png","img/250/equaldotanddens/R/11_Ratio_250_L_3_R_12.png","img/900/randomdotsizeEA/R/3_Ratio_900_L_9_R_10.png","img/250/randomdotsizeEA/L/2_Ratio_250_L_16_R_4.png","img/250/equaldotanddens/R/10_Ratio_250_L_4_R_16.png","img/900/randomdotsizeEA/L/1_Ratio_900_L_10_R_9.png","img/250/equaldotsize/R/11_Ratio_250_L_3_R_12.png","img/750/equaldotanddens/L/1_Ratio_750_L_20_R_15.png","img/500/randomdotsizeEA/L/13_Ratio_500_L_12_R_6.png","img/250/randomdotsizeEA/R/8_Ratio_250_L_1_R_4.png","img/750/equaldotanddens/R/3_Ratio_750_L_15_R_20.png","img/900/equaldotanddens/L/1_Ratio_900_L_10_R_9.png","img/900/equaldotsize/L/10_Ratio_900_L_20_R_18.png","img/250/equaldotsize/R/11_Ratio_250_L_3_R_12.png","img/250/randomdotsizeEA/L/5_Ratio_250_L_24_R_6.png","img/500/equaldotanddens/R/1_Ratio_500_L_9_R_18.png","img/750/equaldotsize/R/11_Ratio_750_L_12_R_16.png","img/500/equaldotanddens/R/2_Ratio_500_L_3_R_6.png","img/750/equaldotsize/L/8_Ratio_750_L_4_R_3.png","img/250/equaldotanddens/R/4_Ratio_250_L_3_R_12.png","img/750/equaldotanddens/L/8_Ratio_750_L_4_R_3.png","img/500/equaldotsize/R/9_Ratio_500_L_2_R_4.png","img/500/equaldotanddens/L/8_Ratio_500_L_8_R_4.png","img/250/equaldotanddens/R/13_Ratio_250_L_2_R_8.png","img/750/equaldotsize/L/9_Ratio_750_L_4_R_3.png","img/750/equaldotanddens/L/8_Ratio_750_L_4_R_3.png","img/750/equaldotsize/L/1_Ratio_750_L_20_R_15.png","img/900/equaldotanddens/L/10_Ratio_900_L_20_R_18.png","img/900/equaldotanddens/R/7_Ratio_900_L_9_R_10.png","img/750/equaldotsize/R/7_Ratio_750_L_3_R_4.png","img/500/randomdotsizeEA/R/15_Ratio_500_L_1_R_2.png","img/750/randomdotsizeEA/L/14_Ratio_750_L_8_R_6.png","img/250/equaldotanddens/L/5_Ratio_250_L_24_R_6.png","img/750/randomdotsizeEA/R/4_Ratio_750_L_15_R_20.png","img/500/equaldotsize/R/3_Ratio_500_L_10_R_20.png","img/500/equaldotanddens/L/4_Ratio_500_L_18_R_9.png","img/250/equaldotsize/L/3_Ratio_250_L_8_R_2.png","img/750/equaldotsize/R/5_Ratio_750_L_15_R_20.png","img/250/equaldotsize/R/12_Ratio_250_L_5_R_20.png","img/500/randomdotsizeEA/L/10_Ratio_500_L_4_R_2.png","img/500/equaldotsize/R/15_Ratio_500_L_1_R_2.png","img/500/randomdotsizeEA/L/4_Ratio_500_L_18_R_9.png","img/250/equaldotanddens/L/5_Ratio_250_L_24_R_6.png","img/500/equaldotsize/R/15_Ratio_500_L_1_R_2.png","img/750/equaldotanddens/L/1_Ratio_750_L_20_R_15.png","img/500/equaldotanddens/L/11_Ratio_500_L_12_R_6.png","img/250/randomdotsizeEA/R/8_Ratio_250_L_1_R_4.png","img/250/equaldotsize/L/1_Ratio_250_L_8_R_2.png","img/500/equaldotsize/R/12_Ratio_500_L_1_R_2.png","img/750/randomdotsizeEA/L/10_Ratio_750_L_4_R_3.png","img/900/randomdotsizeEA/L/10_Ratio_900_L_20_R_18.png","img/250/equaldotsize/R/11_Ratio_250_L_3_R_12.png","img/750/equaldotanddens/R/11_Ratio_750_L_12_R_16.png","img/500/equaldotanddens/R/1_Ratio_500_L_9_R_18.png","img/750/randomdotsizeEA/R/4_Ratio_750_L_15_R_20.png"],"Rat0":[["12_Ratio_0_L_9_R_0.png","13_Ratio_0_L_6_R_0.png","5_Ratio_0_L_2_R_0.png","6_Ratio_0_L_4_R_0.png","8_Ratio_0_L_6_R_0.png"],["1_Ratio_0_L_0_R_17.png","10_Ratio_0_L_0_R_22.png","11_Ratio_0_L_0_R_1.png","14_Ratio_0_L_0_R_24.png","15_Ratio_0_L_0_R_4.png","2_Ratio_0_L_0_R_5.png","3_Ratio_0_L_0_R_17.png","4_Ratio_0_L_0_R_7.png","7_Ratio_0_L_0_R_19.png","9_Ratio_0_L_0_R_15.png"]],"Rat250":[["1_Ratio_250_L_8_R_2.png","14_Ratio_250_L_12_R_3.png","15_Ratio_250_L_12_R_3.png","2_Ratio_250_L_16_R_4.png","3_Ratio_250_L_8_R_2.png","5_Ratio_250_L_24_R_6.png","7_Ratio_250_L_8_R_2.png"],["10_Ratio_250_L_4_R_16.png","11_Ratio_250_L_3_R_12.png","12_Ratio_250_L_5_R_20.png","13_Ratio_250_L_2_R_8.png","4_Ratio_250_L_3_R_12.png","6_Ratio_250_L_6_R_24.png","8_Ratio_250_L_1_R_4.png","9_Ratio_250_L_3_R_12.png"]],"Rat500":[["10_Ratio_500_L_4_R_2.png","11_Ratio_500_L_12_R_6.png","13_Ratio_500_L_12_R_6.png","4_Ratio_500_L_18_R_9.png","5_Ratio_500_L_4_R_2.png","7_Ratio_500_L_10_R_5.png","8_Ratio_500_L_8_R_4.png"],["1_Ratio_500_L_9_R_18.png","12_Ratio_500_L_1_R_2.png","14_Ratio_500_L_5_R_10.png","15_Ratio_500_L_1_R_2.png","2_Ratio_500_L_3_R_6.png","3_Ratio_500_L_10_R_20.png","6_Ratio_500_L_9_R_18.png","9_Ratio_500_L_2_R_4.png"]],"Rat750":[["1_Ratio_750_L_20_R_15.png","10_Ratio_750_L_4_R_3.png","13_Ratio_750_L_8_R_6.png","14_Ratio_750_L_8_R_6.png","6_Ratio_750_L_24_R_18.png","8_Ratio_750_L_4_R_3.png","9_Ratio_750_L_4_R_3.png"],["11_Ratio_750_L_12_R_16.png","12_Ratio_750_L_3_R_4.png","15_Ratio_750_L_9_R_12.png","2_Ratio_750_L_6_R_8.png","3_Ratio_750_L_15_R_20.png","4_Ratio_750_L_15_R_20.png","5_Ratio_750_L_15_R_20.png","7_Ratio_750_L_3_R_4.png"]],"Rat900":[["1_Ratio_900_L_10_R_9.png","10_Ratio_900_L_20_R_18.png","2_Ratio_900_L_20_R_18.png","4_Ratio_900_L_20_R_18.png","8_Ratio_900_L_20_R_18.png"],["11_Ratio_900_L_18_R_20.png","12_Ratio_900_L_18_R_20.png","13_Ratio_900_L_18_R_20.png","14_Ratio_900_L_18_R_20.png","15_Ratio_900_L_9_R_10.png","3_Ratio_900_L_9_R_10.png","5_Ratio_900_L_9_R_10.png","6_Ratio_900_L_9_R_10.png","7_Ratio_900_L_9_R_10.png","9_Ratio_900_L_18_R_20.png"]],"Rat1000":[["10_Ratio_1000_L_16_R_16.png","11_Ratio_1000_L_6_R_6.png","12_Ratio_1000_L_14_R_14.png","13_Ratio_1000_L_20_R_20.png","15_Ratio_1000_L_15_R_15.png","2_Ratio_1000_L_17_R_17.png","4_Ratio_1000_L_9_R_9.png","5_Ratio_1000_L_6_R_6.png","6_Ratio_1000_L_19_R_19.png","8_Ratio_1000_L_14_R_14.png","9_Ratio_1000_L_25_R_25.png"],["1_Ratio_1000_L_1_R_1.png","14_Ratio_1000_L_17_R_17.png","3_Ratio_1000_L_17_R_17.png","7_Ratio_1000_L_6_R_6.png"]]}},{"start_time":1551801270965,"click_time":1551801272499,"finger_time":1551801272239,"fix_duration":942.6501550597318,"trial":1,"RT":1274,"MT":260,"sideResp":1,"stimulus":"img/250/randomdotsizeEA/L/2_Ratio_250_L_16_R_4.png","xmouse":[829,829,829,829,829,829,829,829,829,829,829,829,829,829,829,829,829,829,829,829,829,829,829,829,829,829,829,829,829,829,829,829,829,829,829,829,829,829,829,829,829,829,829,829,829,829,829,829,829,829,829,829,829,829,829,829,829,829,829,829,829,824,791,682,584,475,460,459,459,462,467,467,468,471,471,471,469],"ymouse":[513,513,513,513,513,513,513,513,513,513,513,513,513,513,513,513,513,513,513,513,513,513,512,511,511,511,511,511,511,511,511,511,511,511,511,511,511,511,511,511,511,511,511,511,511,511,511,511,511,511,511,511,511,511,511,511,511,511,511,511,511,505,488,433,404,370,359,345,313,290,242,219,198,175,151,101,81],"timestamp_mouse":[14,34,55,73,94,114,133,155,173,195,214,235,253,274,293,314,335,353,373,394,415,434,454,474,495,514,535,555,574,595,613,635,655,674,693,715,735,755,774,794,814,835,855,873,895,915,934,955,974,995,1015,1034,1054,1073,1095,1114,1133,1154,1175,1195,1215,1233,1255,1274,1293,1314,1335,1354,1374,1393,1414,1435,1455,1474,1495,1514,1534],"xSR":741.5,"ySR":469.95,"xT1":424.9,"yT1":0,"xT2":1058.1,"yT2":0,"toosoon":0,"cond_shown":"randomdotsizeEA","ratio_trial":250,"smaller_num":"4","larger_num":"16","correct_side":1,"subjID":"MariaCamilaOrtegonGOMEZ","gender":"1","age":"12","school":"6}"},{"start_time":1551801274490,"click_time":1551801275820,"finger_time":1551801275299,"fix_duration":1049.447014225901,"trial":2,"RT":809,"MT":521,"sideResp":1,"stimulus":"img/250/equaldotanddens/L/14_Ratio_250_L_12_R_3.png","xmouse":[818,818,818,818,818,818,818,818,818,818,818,818,818,818,818,818,818,818,818,818,818,818,818,818,818,818,818,818,818,818,818,818,818,818,818,818,818,818,818,812,798,779,735,687,660,660,660,660,660,655,647,631,607,596,574,565,557,548,541,533,530,528,528,527,526,525,524],"ymouse":[496,496,496,496,496,496,496,496,496,496,496,496,496,496,496,496,496,496,496,496,496,496,496,496,496,496,496,496,496,496,496,496,496,496,496,494,490,486,484,471,429,346,148,60,23,22,22,22,22,22,22,30,40,45,51,53,54,55,55,55,55,55,55,55,55,55,55],"timestamp_mouse":[9,36,49,69,89,108,129,149,169,189,209,229,250,269,288,308,330,349,370,389,408,429,449,469,490,508,529,550,570,590,609,630,649,669,688,709,729,749,769,788,809,828,849,869,889,910,929,950,970,989,1009,1029,1048,1069,1090,1110,1128,1150,1168,1188,1209,1229,1249,1269,1290,1308,1330],"xSR":741.5,"ySR":469.95,"xT1":424.9,"yT1":0,"xT2":1058.1,"yT2":0,"toosoon":0,"cond_shown":"equaldotanddens","ratio_trial":250,"smaller_num":"3","larger_num":"12","correct_side":1,"subjID":"MariaCamilaOrtegonGOMEZ","gender":"1","age":"12","school":"6}"},{"start_time":1551801276985,"click_time":1551801278760,"finger_time":1551801277798,"fix_duration":304.4859990837617,"trial":3,"RT":813,"MT":962,"sideResp":2,"stimulus":"img/900/equaldotsize/R/14_Ratio_900_L_18_R_20.png","xmouse":[819,819,819,819,819,819,819,819,819,819,819,819,819,819,819,819,819,819,819,819,819,819,819,819,819,819,819,819,819,819,819,819,819,819,819,819,819,819,818,812,803,790,774,741,713,668,640,635,633,628,624,615,606,594,578,575,573,572,572,572,573,577,583,625,648,674,693,705,713,728,744,765,786,822,838,858,882,917,985,996,1002,1005,1009,1012,1030,1043,1047,1055,1059],"ymouse":[494,494,494,494,494,494,494,494,494,494,494,494,494,494,494,494,494,494,494,494,494,494,494,494,494,494,494,494,494,494,494,494,494,494,494,494,494,494,492,482,469,450,429,352,287,212,163,152,144,136,131,125,119,114,107,106,106,105,105,105,105,105,105,94,84,70,57,49,44,39,38,37,37,37,37,37,38,42,51,52,52,52,52,51,44,41,41,41,41],"timestamp_mouse":[15,39,55,75,95,113,135,153,175,195,214,234,255,275,295,313,335,353,374,394,415,434,455,474,493,513,534,554,574,595,614,634,654,674,695,715,735,755,775,794,813,834,855,875,894,914,934,954,975,994,1014,1035,1055,1073,1093,1114,1134,1154,1173,1193,1213,1235,1254,1275,1294,1314,1334,1354,1373,1393,1414,1435,1453,1474,1493,1514,1534,1554,1575,1594,1614,1633,1654,1674,1694,1714,1735,1754,1775],"xSR":741.5,"ySR":469.95,"xT1":424.9,"yT1":0,"xT2":1058.1,"yT2":0,"toosoon":0,"cond_shown":"equaldotsize","ratio_trial":900,"smaller_num":"18","larger_num":"20","correct_side":2,"subjID":"MariaCamilaOrtegonGOMEZ","gender":"1","age":"12","school":"6}"},{"start_time":1551801279889,"click_time":1551801281239,"finger_time":1551801280720,"fix_duration":250,"trial":4,"RT":831,"MT":519,"sideResp":2,"stimulus":"img/250/equaldotanddens/R/13_Ratio_250_L_2_R_8.png","xmouse":[823,823,823,823,823,823,823,823,823,823,823,823,823,823,823,823,823,823,823,823,823,823,823,823,823,823,823,823,823,823,823,823,823,823,823,823,823,823,823,824,834,853,886,903,913,915,919,923,928,945,948,951,955,982,1003,1022,1034,1042,1045,1045,1045,1047,1049,1051,1054,1056,1058,1061],"ymouse":[500,500,500,500,500,500,500,500,500,500,500,500,500,500,500,500,500,500,500,500,500,500,500,500,500,500,500,500,500,500,500,500,500,500,500,500,500,500,500,498,486,460,418,393,375,366,359,345,323,264,241,224,198,131,89,55,32,19,15,15,15,15,20,23,30,35,39,43],"timestamp_mouse":[14,39,50,71,91,111,130,151,170,190,211,231,250,271,290,310,330,350,371,389,410,431,449,470,491,510,530,550,571,590,611,631,651,670,689,711,730,750,770,790,810,831,851,870,890,910,930,949,970,990,1009,1030,1051,1071,1090,1110,1130,1150,1171,1189,1209,1230,1250,1270,1290,1310,1331,1350],"xSR":741.5,"ySR":469.95,"xT1":424.9,"yT1":0,"xT2":1058.1,"yT2":0,"toosoon":0,"cond_shown":"equaldotanddens","ratio_trial":250,"smaller_num":"2","larger_num":"8","correct_side":2,"subjID":"MariaCamilaOrtegonGOMEZ","gender":"1","age":"12","school":"6}"},{"start_time":1551801283590,"click_time":1551801284878,"finger_time":1551801284578,"fix_duration":250,"trial":5,"RT":988,"MT":300,"sideResp":2,"stimulus":"img/900/randomdotsizeEA/R/7_Ratio_900_L_9_R_10.png","xmouse":[790,790,790,788,788,788,788,788,788,788,788,788,788,788,788,788,788,788,788,788,788,788,788,788,788,788,788,788,788,788,788,788,788,788,788,788,788,788,788,788,788,788,788,788,788,788,790,802,821,880,895,902,903,904,911,929,938,971,1002,1008,1013,1018,1030,1085,1109],"ymouse":[536,536,536,534,534,534,534,534,534,534,534,534,534,534,534,534,534,534,534,534,534,534,534,534,534,534,534,534,534,534,534,534,534,534,534,534,534,534,534,534,534,534,534,534,534,534,527,508,477,383,358,335,319,307,283,257,247,212,176,164,156,150,140,111,97],"timestamp_mouse":[9,38,49,70,90,109,130,149,170,190,208,229,250,269,290,310,329,348,370,390,409,429,449,469,489,509,529,549,570,589,610,629,649,669,690,710,729,750,770,788,809,829,848,869,890,910,928,948,968,988,1009,1029,1049,1070,1089,1108,1128,1149,1170,1188,1209,1228,1248,1271,1288],"xSR":741.5,"ySR":469.95,"xT1":424.9,"yT1":0,"xT2":1058.1,"yT2":0,"toosoon":0,"cond_shown":"randomdotsizeEA","ratio_trial":900,"smaller_num":"9","larger_num":"10","correct_side":2,"subjID":"MariaCamilaOrtegonGOMEZ","gender":"1","age":"12","school":"6}"},{"start_time":1551801287054,"click_time":1551801288139,"finger_time":1551801287979,"fix_duration":1253.9882628638625,"trial":6,"RT":925,"MT":160,"sideResp":1,"stimulus":"img/750/randomdotsizeEA/L/8_Ratio_750_L_4_R_3.png","xmouse":[820,820,820,820,820,820,820,820,820,820,820,820,820,820,820,820,820,820,820,820,820,820,820,820,820,820,820,820,820,820,820,820,820,820,820,820,820,820,820,820,820,820,820,820,819,815,795,773,733,692,650,586,554,544,499],"ymouse":[511,511,511,511,511,511,511,511,511,511,511,511,511,511,511,511,511,511,511,511,511,511,511,511,511,511,511,511,511,511,511,511,511,511,511,511,511,511,511,511,511,511,511,511,508,490,450,420,378,332,284,211,164,150,98],"timestamp_mouse":[10,40,45,66,85,106,125,146,165,186,206,225,244,266,284,304,325,344,364,385,405,424,445,465,484,505,526,544,565,586,604,626,645,665,684,705,726,745,765,785,805,824,846,865,885,905,925,945,965,985,1006,1025,1045,1065,1085],"xSR":741.5,"ySR":469.95,"xT1":424.9,"yT1":0,"xT2":1058.1,"yT2":0,"toosoon":0,"cond_shown":"randomdotsizeEA","ratio_trial":750,"smaller_num":"3","larger_num":"4","correct_side":1,"subjID":"MariaCamilaOrtegonGOMEZ","gender":"1","age":"12","school":"6}"},{"start_time":1551801290240,"click_time":1551801291360,"finger_time":1551801291078,"fix_duration":1238.560262053513,"trial":7,"RT":838,"MT":282,"sideResp":2,"stimulus":"img/900/equaldotsize/R/12_Ratio_900_L_18_R_20.png","xmouse":[783,783,783,783,783,783,783,783,783,783,783,783,783,783,783,783,783,783,783,783,783,783,783,783,783,783,783,783,783,783,783,783,783,783,783,783,783,783,783,783,784,797,872,910,935,957,964,968,971,976,985,996,1031,1073,1090,1122,1132],"ymouse":[503,503,503,503,503,503,503,503,503,503,503,503,503,503,503,503,503,503,503,503,503,503,503,503,503,503,503,503,503,503,503,503,502,497,496,496,496,496,496,495,492,484,444,418,396,364,345,315,300,281,261,238,190,149,136,112,95],"timestamp_mouse":[1,20,40,59,80,98,120,139,160,178,199,220,238,259,279,300,320,339,360,379,400,419,440,459,480,500,518,539,560,579,599,619,639,659,678,700,720,740,759,779,798,819,838,859,879,899,918,939,959,980,999,1019,1038,1060,1079,1099,1120],"xSR":741.5,"ySR":469.95,"xT1":424.9,"yT1":0,"xT2":1058.1,"yT2":0,"toosoon":0,"cond_shown":"equaldotsize","ratio_trial":900,"smaller_num":"18","larger_num":"20","correct_side":2,"subjID":"MariaCamilaOrtegonGOMEZ","gender":"1","age":"12","school":"6}"},{"start_time":1551801292472,"click_time":1551801293459,"finger_time":1551801293138,"fix_duration":250,"trial":8,"RT":666,"MT":321,"sideResp":2,"stimulus":"img/250/equaldotanddens/R/12_Ratio_250_L_5_R_20.png","xmouse":[822,822,822,822,822,822,822,822,822,822,822,822,822,822,822,822,822,822,822,822,822,822,822,822,822,822,822,822,822,822,822,822,824,852,886,939,968,987,999,1005,1010,1013,1024,1041,1051,1068,1076,1083,1089,1097],"ymouse":[492,492,492,492,492,492,492,492,492,492,492,492,492,492,492,492,492,492,492,492,492,492,492,492,492,492,492,492,492,492,492,492,487,444,388,297,258,230,213,205,199,195,186,173,164,143,129,119,108,97],"timestamp_mouse":[10,37,47,66,88,108,127,146,167,188,208,227,247,267,288,307,327,347,367,387,407,426,447,468,488,508,526,548,567,587,607,628,646,666,687,707,727,746,766,787,806,827,847,867,887,907,927,946,967,987],"xSR":741.5,"ySR":469.95,"xT1":424.9,"yT1":0,"xT2":1058.1,"yT2":0,"toosoon":0,"cond_shown":"equaldotanddens","ratio_trial":250,"smaller_num":"5","larger_num":"20","correct_side":2,"subjID":"MariaCamilaOrtegonGOMEZ","gender":"1","age":"12","school":"6}"},{"start_time":1551801294915,"click_time":1551801295659,"finger_time":1551801295239,"fix_duration":653.2251231169894,"trial":9,"RT":324,"MT":420,"sideResp":2,"stimulus":"img/900/equaldotanddens/L/2_Ratio_900_L_20_R_18.png","xmouse":[826,826,826,826,826,826,826,826,826,826,826,826,826,826,829,838,858,889,901,913,930,943,981,1007,1031,1047,1056,1060,1059,1055,1055,1055,1056,1058,1059,1061,1063,1065],"ymouse":[528,528,528,528,528,528,528,528,528,528,528,528,528,528,523,514,499,478,470,460,447,436,400,368,332,302,277,254,201,175,155,134,124,111,106,103,100,97],"timestamp_mouse":[10,24,44,64,85,103,125,143,164,184,205,224,243,264,284,305,323,345,364,384,403,424,445,464,484,503,523,545,565,584,604,625,644,664,685,703,723,744],"xSR":741.5,"ySR":469.95,"xT1":424.9,"yT1":0,"xT2":1058.1,"yT2":0,"toosoon":0,"cond_shown":"equaldotanddens","ratio_trial":900,"smaller_num":"18","larger_num":"20","correct_side":1,"subjID":"MariaCamilaOrtegonGOMEZ","gender":"1","age":"12","school":"6}"},{"start_time":1551801297842,"click_time":1551801298800,"finger_time":1551801298558,"fix_duration":1362.8864714990796,"trial":10,"RT":716,"MT":242,"sideResp":2,"stimulus":"img/500/equaldotanddens/R/1_Ratio_500_L_9_R_18.png","xmouse":[810,810,809,809,809,809,809,809,809,809,809,809,808,805,802,798,792,792,792,792,792,792,792,792,792,792,792,792,792,793,794,808,820,830,839,848,910,962,1022,1069,1100,1136,1145,1150,1158,1160,1160,1157],"ymouse":[536,534,531,530,530,530,530,530,530,530,530,530,529,527,523,517,509,509,509,509,509,509,509,509,509,509,509,509,509,508,508,503,500,493,483,467,390,341,299,265,240,199,180,160,130,85,65,50],"timestamp_mouse":[17,37,57,77,98,118,137,157,177,196,217,238,257,277,297,316,338,358,376,397,418,436,457,477,497,518,536,557,577,597,618,638,657,678,696,716,736,756,776,797,816,837,857,877,897,918,937,957],"xSR":741.5,"ySR":469.95,"xT1":424.9,"yT1":0,"xT2":1058.1,"yT2":0,"toosoon":0,"cond_shown":"equaldotanddens","ratio_trial":500,"smaller_num":"9","larger_num":"18","correct_side":2,"subjID":"MariaCamilaOrtegonGOMEZ","gender":"1","age":"12","school":"6}"},{"start_time":1551801300951,"click_time":1551801302020,"finger_time":1551801301679,"fix_duration":1351.7087781763892,"trial":11,"RT":728,"MT":341,"sideResp":1,"stimulus":"img/750/equaldotsize/R/3_Ratio_750_L_15_R_20.png","xmouse":[797,797,797,797,796,795,795,795,795,795,795,795,795,796,796,796,796,796,796,796,796,796,796,796,796,796,796,796,796,796,796,796,796,790,784,773,750,738,724,710,701,694,682,666,642,582,561,552,540,532,524,508,495,483],"ymouse":[513,513,513,513,510,506,503,499,498,498,498,498,497,497,497,497,497,497,497,497,497,497,497,497,500,504,515,516,516,516,516,516,516,510,501,480,401,355,308,259,235,226,216,204,191,155,143,138,135,131,125,113,105,98],"timestamp_mouse":[13,39,48,68,88,109,127,148,168,189,207,228,248,268,287,308,329,349,368,388,409,428,448,469,488,508,529,548,569,588,609,629,649,668,689,708,728,749,768,789,809,828,848,868,888,909,928,949,968,989,1008,1027,1047,1069],"xSR":741.5,"ySR":469.95,"xT1":424.9,"yT1":0,"xT2":1058.1,"yT2":0,"toosoon":0,"cond_shown":"equaldotsize","ratio_trial":750,"smaller_num":"15","larger_num":"20","correct_side":2,"subjID":"MariaCamilaOrtegonGOMEZ","gender":"1","age":"12","school":"6}"},{"start_time":1551801304168,"click_time":1551801305299,"finger_time":1551801305119,"fix_duration":1306.957987007302,"trial":12,"RT":951,"MT":180,"sideResp":1,"stimulus":"img/750/equaldotanddens/L/14_Ratio_750_L_8_R_6.png","xmouse":[786,786,786,786,786,786,786,786,786,786,786,786,786,786,786,786,786,786,786,785,784,784,784,784,784,784,784,783,782,781,781,781,781,781,781,781,780,775,771,767,760,758,757,756,756,756,756,753,751,751,723,663,608,569,530,485,471],"ymouse":[503,503,503,503,503,503,503,503,503,503,503,503,503,503,503,503,503,503,503,503,505,505,505,505,505,506,506,506,506,506,506,506,506,506,506,506,506,505,501,497,490,486,484,483,483,481,475,463,428,390,302,237,192,165,137,105,94],"timestamp_mouse":[11,41,50,71,91,112,132,151,172,192,211,232,251,271,292,310,332,351,370,391,410,431,452,470,490,511,531,550,571,590,612,632,652,671,691,711,731,751,771,791,812,830,851,871,892,911,932,951,972,991,1010,1031,1052,1070,1091,1112,1131],"xSR":741.5,"ySR":469.95,"xT1":424.9,"yT1":0,"xT2":1058.1,"yT2":0,"toosoon":0,"cond_shown":"equaldotanddens","ratio_trial":750,"smaller_num":"6","larger_num":"8","correct_side":1,"subjID":"MariaCamilaOrtegonGOMEZ","gender":"1","age":"12","school":"6}"},{"start_time":1551801306252,"click_time":1551801308279,"finger_time":1551801307660,"fix_duration":250,"trial":13,"RT":1408,"MT":619,"sideResp":2,"stimulus":"img/250/equaldotsize/R/9_Ratio_250_L_3_R_12.png","xmouse":[798,798,798,798,798,798,798,798,798,798,798,798,798,798,798,798,798,798,798,798,798,798,798,798,798,798,798,798,798,798,798,798,798,798,798,798,798,798,798,798,798,798,798,798,798,798,798,798,798,798,798,798,798,798,798,800,800,801,801,801,801,801,801,801,801,801,804,813,826,840,854,869,870,874,881,928,958,983,1004,1021,1030,1041,1049,1058,1064,1064,1061,1058,1054,1052,1050,1049,1049,1049,1049,1049,1051,1053,1059,1063,1066,1069],"ymouse":[510,510,510,510,510,510,510,510,510,510,510,510,510,510,510,510,510,510,510,510,510,510,510,510,510,510,510,510,510,510,510,510,510,510,510,510,510,510,510,510,510,510,510,510,510,510,510,510,510,510,510,510,510,510,510,509,507,507,507,507,507,507,507,507,507,507,506,501,496,488,477,461,451,436,426,385,369,359,353,344,336,317,297,280,262,235,220,201,185,169,155,131,119,116,114,114,110,107,103,101,100,99],"timestamp_mouse":[6,26,48,68,87,107,127,148,168,188,208,228,247,266,287,308,328,347,368,387,408,427,447,467,487,508,527,547,568,587,607,628,646,666,687,708,727,748,768,787,807,828,848,868,888,907,927,947,967,988,1008,1027,1047,1066,1086,1108,1128,1148,1166,1188,1206,1226,1246,1266,1286,1306,1327,1346,1368,1388,1408,1427,1447,1468,1488,1508,1526,1548,1567,1588,1607,1628,1647,1668,1688,1708,1727,1747,1767,1787,1807,1828,1848,1868,1888,1907,1927,1947,1968,1987,2007,2027],"xSR":741.5,"ySR":469.95,"xT1":424.9,"yT1":0,"xT2":1058.1,"yT2":0,"toosoon":0,"cond_shown":"equaldotsize","ratio_trial":250,"smaller_num":"3","larger_num":"12","correct_side":2,"subjID":"MariaCamilaOrtegonGOMEZ","gender":"1","age":"12","school":"6}"},{"start_time":1551801309352,"click_time":1551801310379,"finger_time":1551801310020,"fix_duration":250,"trial":14,"RT":668,"MT":359,"sideResp":1,"stimulus":"img/900/equaldotsize/L/2_Ratio_900_L_20_R_18.png","xmouse":[786,786,786,786,786,786,786,786,786,786,786,786,786,786,786,786,786,786,786,786,786,786,786,786,786,786,786,786,786,786,786,785,781,773,764,736,716,699,684,675,664,642,629,609,589,569,565,562,557,544,536,521],"ymouse":[509,509,509,509,509,509,509,509,509,509,509,509,509,509,509,509,509,509,509,509,509,509,509,509,509,509,509,509,509,509,509,507,491,461,409,273,215,184,158,140,127,107,96,84,73,69,69,70,71,72,73,76],"timestamp_mouse":[10,41,47,66,87,107,128,147,167,186,207,228,247,267,287,308,327,348,368,388,408,427,447,467,487,507,527,547,568,586,607,627,646,667,687,708,727,748,766,787,807,827,847,866,887,908,927,947,966,988,1007,1027],"xSR":741.5,"ySR":469.95,"xT1":424.9,"yT1":0,"xT2":1058.1,"yT2":0,"toosoon":0,"cond_shown":"equaldotsize","ratio_trial":900,"smaller_num":"18","larger_num":"20","correct_side":1,"subjID":"MariaCamilaOrtegonGOMEZ","gender":"1","age":"12","school":"6}"},{"start_time":1551801311291,"click_time":1551801312439,"finger_time":1551801312318,"fix_duration":250,"trial":15,"RT":1027,"MT":121,"sideResp":1,"stimulus":"img/900/equaldotanddens/L/10_Ratio_900_L_20_R_18.png","xmouse":[813,813,813,813,813,813,813,813,813,813,813,813,813,813,813,813,813,813,813,813,813,813,813,813,813,813,813,813,813,813,813,813,813,813,813,813,813,813,813,814,817,823,825,825,825,825,825,825,825,825,825,821,776,714,572,507,466,447],"ymouse":[553,553,553,553,553,553,553,553,553,553,553,553,553,553,553,553,553,553,553,553,553,553,553,553,553,553,553,553,553,553,553,553,553,553,553,553,553,553,553,552,548,541,539,539,539,539,539,539,538,527,500,454,363,293,175,134,105,89],"timestamp_mouse":[8,33,48,69,87,108,128,149,169,189,208,229,247,268,288,309,328,348,368,389,407,428,448,468,487,509,528,549,568,588,609,628,648,669,688,707,729,747,769,787,808,828,848,868,889,908,928,948,968,988,1008,1027,1049,1067,1087,1109,1128,1147],"xSR":741.5,"ySR":469.95,"xT1":424.9,"yT1":0,"xT2":1058.1,"yT2":0,"toosoon":0,"cond_shown":"equaldotanddens","ratio_trial":900,"smaller_num":"18","larger_num":"20","correct_side":1,"subjID":"MariaCamilaOrtegonGOMEZ","gender":"1","age":"12","school":"6}"},{"start_time":1551801313975,"click_time":1551801314678,"finger_time":1551801314580,"fix_duration":855.2387177602659,"trial":16,"RT":605,"MT":98,"sideResp":1,"stimulus":"img/750/equaldotanddens/L/13_Ratio_750_L_8_R_6.png","xmouse":[783,783,783,783,783,783,783,783,783,783,783,783,783,783,783,783,783,783,783,783,783,783,783,783,783,783,783,783,782,774,741,714,683,644,551,524],"ymouse":[522,522,522,522,522,522,522,522,522,522,522,522,522,522,522,522,522,522,522,522,522,522,522,522,522,522,522,522,519,511,458,398,321,244,122,99],"timestamp_mouse":[20,38,45,63,85,104,124,145,164,184,204,224,245,264,285,304,323,345,364,385,404,425,445,464,485,504,525,544,564,584,605,624,645,664,685,703],"xSR":741.5,"ySR":469.95,"xT1":424.9,"yT1":0,"xT2":1058.1,"yT2":0,"toosoon":0,"cond_shown":"equaldotanddens","ratio_trial":750,"smaller_num":"6","larger_num":"8","correct_side":1,"subjID":"MariaCamilaOrtegonGOMEZ","gender":"1","age":"12","school":"6}"},{"start_time":1551801316425,"click_time":1551801317660,"finger_time":1551801317340,"fix_duration":1105.7304781402413,"trial":17,"RT":915,"MT":320,"sideResp":2,"stimulus":"img/500/equaldotsize/R/15_Ratio_500_L_1_R_2.png","xmouse":[783,783,783,783,783,783,783,783,783,783,783,783,783,783,783,783,783,783,783,783,783,783,783,783,783,783,783,783,783,783,783,783,783,783,783,783,783,783,783,783,785,798,814,827,835,847,853,886,921,955,979,1019,1037,1049,1061,1070,1078,1093,1100,1107,1107,1107],"ymouse":[548,548,548,548,548,548,548,548,548,548,548,548,548,548,548,548,548,548,548,548,548,548,548,548,548,548,548,548,548,548,548,548,548,548,548,548,548,548,548,548,545,529,509,489,475,458,452,426,403,380,360,327,311,298,272,252,231,177,154,129,116,89],"timestamp_mouse":[14,34,54,74,94,115,135,155,174,194,213,235,253,274,294,313,335,354,375,395,413,433,454,474,494,514,534,554,574,595,614,634,653,675,694,714,734,754,775,794,814,835,854,874,893,915,933,953,973,994,1013,1035,1054,1074,1093,1113,1133,1153,1173,1194,1214,1234],"xSR":741.5,"ySR":469.95,"xT1":424.9,"yT1":0,"xT2":1058.1,"yT2":0,"toosoon":0,"cond_shown":"equaldotsize","ratio_trial":500,"smaller_num":"1","larger_num":"2","correct_side":2,"subjID":"MariaCamilaOrtegonGOMEZ","gender":"1","age":"12","school":"6}"},{"start_time":1551801318848,"click_time":1551801320439,"finger_time":1551801319678,"fix_duration":308.81758357887423,"trial":18,"RT":830,"MT":761,"sideResp":2,"stimulus":"img/500/randomdotsizeEA/R/6_Ratio_500_L_9_R_18.png","xmouse":[777,777,777,777,777,777,777,777,777,777,777,777,777,777,777,777,777,777,777,777,777,777,777,777,777,777,777,777,777,777,777,777,777,777,777,777,777,777,776,776,776,776,776,776,776,776,776,776,773,761,735,678,665,660,658,658,663,696,760,831,893,902,906,913,927,953,1044,1072,1086,1090,1093,1097,1104,1113,1126,1134,1137,1137,1133,1131],"ymouse":[496,496,496,496,496,496,496,496,496,496,496,496,496,496,496,496,496,496,496,496,496,496,496,496,496,496,496,496,496,496,496,496,496,496,496,496,496,496,492,487,477,469,467,466,463,456,433,419,400,372,329,253,241,237,235,235,234,244,266,293,310,310,307,302,290,269,223,216,210,206,186,175,161,148,135,128,122,116,107,97],"timestamp_mouse":[28,30,52,70,91,111,132,151,171,192,212,231,251,272,291,311,331,352,370,391,412,432,450,472,490,511,532,551,571,592,612,632,650,672,691,711,731,752,770,791,812,830,851,871,891,910,930,951,970,990,1011,1030,1050,1071,1091,1112,1132,1151,1170,1191,1212,1231,1251,1271,1291,1311,1331,1351,1370,1391,1412,1431,1451,1471,1490,1510,1532,1550,1571,1591],"xSR":741.5,"ySR":469.95,"xT1":424.9,"yT1":0,"xT2":1058.1,"yT2":0,"toosoon":0,"cond_shown":"randomdotsizeEA","ratio_trial":500,"smaller_num":"9","larger_num":"18","correct_side":2,"subjID":"MariaCamilaOrtegonGOMEZ","gender":"1","age":"12","school":"6}"},{"start_time":1551801321540,"click_time":1551801322719,"finger_time":1551801322299,"fix_duration":278.36119908505594,"trial":19,"RT":759,"MT":420,"sideResp":1,"stimulus":"img/900/equaldotanddens/L/2_Ratio_900_L_20_R_18.png","xmouse":[798,798,798,798,798,798,798,798,798,798,798,798,798,798,798,798,798,798,798,798,798,798,798,798,798,798,798,798,798,798,798,798,798,798,798,798,798,798,797,797,792,777,710,657,611,579,555,531,528,526,522,518,511,511,511,511,511,510,509,509],"ymouse":[509,509,509,509,509,509,509,509,509,509,509,509,509,509,509,509,509,509,509,509,509,509,509,509,509,509,509,509,509,509,509,509,509,509,509,509,510,488,465,442,417,382,293,240,199,173,153,125,119,115,112,109,105,104,104,104,104,103,101,99],"timestamp_mouse":[1,35,39,59,80,98,120,139,158,179,199,220,238,259,280,298,318,339,359,378,399,420,440,459,479,499,519,540,560,579,600,620,639,659,678,700,719,740,759,779,798,819,839,859,879,898,919,938,959,979,1000,1020,1039,1059,1079,1099,1120,1139,1159,1179],"xSR":741.5,"ySR":469.95,"xT1":424.9,"yT1":0,"xT2":1058.1,"yT2":0,"toosoon":0,"cond_shown":"equaldotanddens","ratio_trial":900,"smaller_num":"18","larger_num":"20","correct_side":1,"subjID":"MariaCamilaOrtegonGOMEZ","gender":"1","age":"12","school":"6}"},{"start_time":1551801323728,"click_time":1551801324619,"finger_time":1551801324479,"fix_duration":308.47230895847156,"trial":20,"RT":751,"MT":140,"sideResp":2,"stimulus":"img/900/randomdotsizeEA/R/13_Ratio_900_L_18_R_20.png","xmouse":[804,804,804,804,804,804,804,804,804,804,804,804,804,804,804,804,804,804,804,804,804,804,804,805,806,806,806,806,806,806,806,806,806,807,809,814,822,843,867,877,926,1037,1094,1134,1156],"ymouse":[522,522,522,522,522,522,522,522,522,522,522,522,522,522,522,522,522,522,520,519,518,517,513,512,510,509,508,508,508,508,508,508,508,506,504,496,487,457,425,408,337,184,129,105,95],"timestamp_mouse":[11,39,51,71,90,111,132,152,171,191,211,231,252,272,290,311,332,351,372,392,411,431,451,470,492,511,530,552,571,591,612,631,651,671,692,710,731,751,770,791,811,832,851,870,890],"xSR":741.5,"ySR":469.95,"xT1":424.9,"yT1":0,"xT2":1058.1,"yT2":0,"toosoon":0,"cond_shown":"randomdotsizeEA","ratio_trial":900,"smaller_num":"18","larger_num":"20","correct_side":2,"subjID":"MariaCamilaOrtegonGOMEZ","gender":"1","age":"12","school":"6}"},{"start_time":1551801326453,"click_time":1551801327420,"finger_time":1551801327118,"fix_duration":832.9758000384668,"trial":21,"RT":665,"MT":302,"sideResp":2,"stimulus":"img/900/equaldotsize/R/15_Ratio_900_L_9_R_10.png","xmouse":[790,790,790,790,790,790,790,790,790,790,790,790,790,790,790,790,790,790,790,790,790,790,790,790,790,790,790,790,794,796,809,821,834,853,866,917,936,948,957,967,985,996,1003,1013,1021,1029,1046,1052,1059],"ymouse":[538,538,538,538,538,538,538,538,538,538,538,538,538,538,538,538,536,536,536,536,536,536,536,536,536,536,536,536,532,530,514,501,487,463,444,379,341,304,269,236,191,172,159,139,125,113,95,92,88],"timestamp_mouse":[14,50,50,65,85,107,126,145,165,186,206,225,245,266,285,305,325,346,365,385,405,426,445,467,485,506,525,546,566,585,606,625,647,665,685,707,725,746,765,785,806,825,846,865,885,905,925,945,966],"xSR":741.5,"ySR":469.95,"xT1":424.9,"yT1":0,"xT2":1058.1,"yT2":0,"toosoon":0,"cond_shown":"equaldotsize","ratio_trial":900,"smaller_num":"9","larger_num":"10","correct_side":2,"subjID":"MariaCamilaOrtegonGOMEZ","gender":"1","age":"12","school":"6}"},{"start_time":1551801329402,"click_time":1551801330278,"finger_time":1551801330018,"fix_duration":1160.5349706737852,"trial":22,"RT":616,"MT":260,"sideResp":1,"stimulus":"img/900/equaldotsize/L/2_Ratio_900_L_20_R_18.png","xmouse":[804,804,804,804,801,798,797,797,797,796,796,795,795,795,795,795,795,795,795,795,795,795,795,795,795,795,795,794,795,796,798,798,798,796,780,731,689,646,562,544,533,526,520,504],"ymouse":[491,491,491,491,491,490,490,490,490,490,490,490,490,490,490,490,490,490,490,490,490,490,490,490,490,490,490,488,482,476,469,463,441,420,381,315,267,228,176,158,144,130,119,98],"timestamp_mouse":[16,41,57,77,96,117,137,156,176,197,217,236,257,278,296,317,336,357,376,397,416,437,457,476,497,517,536,557,576,596,616,636,658,676,697,716,736,756,776,796,816,836,856,876],"xSR":741.5,"ySR":469.95,"xT1":424.9,"yT1":0,"xT2":1058.1,"yT2":0,"toosoon":0,"cond_shown":"equaldotsize","ratio_trial":900,"smaller_num":"18","larger_num":"20","correct_side":1,"subjID":"MariaCamilaOrtegonGOMEZ","gender":"1","age":"12","school":"6}"},{"start_time":1551801331873,"click_time":1551801333118,"finger_time":1551801332659,"fix_duration":851.5866725489144,"trial":23,"RT":786,"MT":459,"sideResp":1,"stimulus":"img/750/randomdotsizeEA/L/13_Ratio_750_L_8_R_6.png","xmouse":[803,803,803,803,803,803,803,803,803,803,803,803,803,803,803,803,803,803,803,803,803,803,803,803,803,803,803,803,803,803,803,803,803,803,803,803,803,801,798,795,791,790,787,784,775,713,653,592,541,517,490,482,476,465,454,452,450,449,448,448,448,448,447],"ymouse":[512,512,512,512,512,512,512,512,512,512,512,512,512,512,512,512,512,512,512,512,512,512,512,512,512,512,512,512,512,512,512,512,512,512,512,512,499,484,471,462,449,445,439,434,422,375,342,311,279,259,222,208,194,175,154,146,140,137,133,129,118,109,99],"timestamp_mouse":[8,37,45,65,85,105,125,145,165,185,206,226,245,265,285,306,326,345,365,386,405,426,447,466,485,506,527,546,566,585,606,627,646,665,686,706,725,745,765,786,805,826,845,866,885,905,925,945,965,985,1005,1025,1046,1066,1087,1105,1127,1145,1165,1185,1205,1226,1245],"xSR":741.5,"ySR":469.95,"xT1":424.9,"yT1":0,"xT2":1058.1,"yT2":0,"toosoon":0,"cond_shown":"randomdotsizeEA","ratio_trial":750,"smaller_num":"6","larger_num":"8","correct_side":1,"subjID":"MariaCamilaOrtegonGOMEZ","gender":"1","age":"12","school":"6}"},{"start_time":1551801336430,"click_time":1551801337279,"finger_time":1551801336979,"fix_duration":1169.426608251612,"trial":24,"RT":549,"MT":300,"sideResp":1,"stimulus":"img/750/equaldotanddens/L/6_Ratio_750_L_24_R_18.png","xmouse":[782,782,782,782,782,782,782,782,782,782,782,782,782,782,782,782,782,782,782,782,782,782,784,784,781,774,766,727,703,677,648,602,591,581,567,559,553,546,541,535,529,521,512],"ymouse":[543,543,543,543,543,543,543,543,543,543,543,543,543,543,543,543,543,543,543,543,543,543,543,538,526,509,492,448,422,390,351,266,228,195,163,147,138,128,121,115,110,103,96],"timestamp_mouse":[8,35,48,69,89,109,129,148,169,189,208,229,250,268,288,308,328,349,368,390,408,428,448,468,488,508,529,549,569,588,608,629,648,669,689,709,728,749,768,788,808,828,849],"xSR":741.5,"ySR":469.95,"xT1":424.9,"yT1":0,"xT2":1058.1,"yT2":0,"toosoon":0,"cond_shown":"equaldotanddens","ratio_trial":750,"smaller_num":"18","larger_num":"24","correct_side":1,"subjID":"MariaCamilaOrtegonGOMEZ","gender":"1","age":"12","school":"6}"},{"start_time":1551801340737,"click_time":1551801341779,"finger_time":1551801341479,"fix_duration":1357.9158977941092,"trial":25,"RT":742,"MT":300,"sideResp":1,"stimulus":"img/900/randomdotsizeEA/R/9_Ratio_900_L_18_R_20.png","xmouse":[799,799,799,799,799,799,799,799,799,799,799,799,799,799,799,799,799,799,799,799,799,799,799,799,799,799,799,799,799,799,799,799,799,799,799,796,791,757,726,665,630,610,579,566,555,541,531,513,508,505,503,502,501],"ymouse":[509,509,509,509,509,509,509,509,509,509,509,509,509,509,509,509,509,509,509,509,509,509,509,509,509,509,509,509,509,509,509,509,509,509,509,507,499,452,415,354,323,303,266,252,238,224,211,182,165,150,129,117,96],"timestamp_mouse":[13,24,41,61,82,102,123,142,161,181,201,221,241,262,281,301,322,341,363,382,401,422,443,462,482,501,522,541,561,581,602,621,643,662,681,701,722,742,762,782,802,821,841,861,881,901,921,941,962,981,1001,1021,1042],"xSR":741.5,"ySR":469.95,"xT1":424.9,"yT1":0,"xT2":1058.1,"yT2":0,"toosoon":0,"cond_shown":"randomdotsizeEA","ratio_trial":900,"smaller_num":"18","larger_num":"20","correct_side":2,"subjID":"MariaCamilaOrtegonGOMEZ","gender":"1","age":"12","school":"6}"},{"start_time":1551801343734,"click_time":1551801344839,"finger_time":1551801344558,"fix_duration":1094.5872189622883,"trial":26,"RT":824,"MT":281,"sideResp":2,"stimulus":"img/900/equaldotanddens/R/11_Ratio_900_L_18_R_20.png","xmouse":[827,827,827,827,827,827,826,826,826,826,826,826,826,826,826,826,826,826,826,826,826,826,826,826,826,826,826,826,826,826,826,826,826,824,820,817,816,815,815,828,838,851,876,897,912,928,963,971,979,988,1000,1010,1017,1027,1044,1065],"ymouse":[517,517,517,517,517,517,518,518,518,518,518,518,518,518,518,518,518,518,518,518,518,518,518,518,518,518,518,518,518,518,518,518,519,519,517,514,512,508,506,491,477,459,423,398,373,345,273,247,224,203,179,160,127,105,79,52],"timestamp_mouse":[10,24,44,66,84,104,126,145,164,184,204,224,245,264,285,305,324,345,364,385,405,425,444,464,485,504,525,545,564,585,606,625,644,666,685,704,725,745,765,786,804,824,844,864,885,904,925,944,964,984,1005,1025,1044,1065,1085,1104],"xSR":741.5,"ySR":469.95,"xT1":424.9,"yT1":0,"xT2":1058.1,"yT2":0,"toosoon":0,"cond_shown":"equaldotanddens","ratio_trial":900,"smaller_num":"18","larger_num":"20","correct_side":2,"subjID":"MariaCamilaOrtegonGOMEZ","gender":"1","age":"12","school":"6}"},{"start_time":1551801346050,"click_time":1551801347919,"finger_time":1551801347580,"fix_duration":250,"trial":27,"RT":1530,"MT":339,"sideResp":2,"stimulus":"img/900/randomdotsizeEA/R/14_Ratio_900_L_18_R_20.png","xmouse":[803,803,803,803,803,803,803,803,803,803,803,803,803,803,803,803,803,803,803,803,803,803,803,803,803,803,803,803,803,803,803,803,803,803,803,803,803,803,803,803,803,803,803,803,803,803,803,803,803,803,803,803,803,803,803,803,803,803,803,803,803,803,803,803,802,802,801,799,797,795,792,785,782,779,779,778,778,778,782,791,812,845,856,866,876,890,924,944,976,999,1018,1033,1041,1072],"ymouse":[528,528,528,528,528,528,528,528,528,528,528,528,528,528,528,528,528,528,528,528,528,528,528,528,528,528,528,528,528,528,528,528,528,528,528,528,528,528,528,528,528,528,528,528,528,528,528,528,528,528,528,528,528,528,528,528,528,528,528,528,528,528,528,528,528,527,527,526,526,524,518,500,492,481,477,474,465,459,448,427,379,294,256,223,208,194,164,143,112,86,67,64,63,57],"timestamp_mouse":[10,40,48,69,88,109,129,148,169,189,210,228,248,268,289,310,329,349,368,388,408,429,449,468,488,508,528,548,568,590,608,629,648,668,688,708,728,750,768,789,809,829,850,868,888,910,928,949,969,989,1010,1030,1048,1069,1089,1108,1128,1149,1169,1189,1209,1229,1248,1270,1289,1310,1329,1349,1369,1388,1409,1428,1450,1468,1489,1508,1530,1550,1568,1588,1609,1628,1649,1668,1688,1708,1729,1749,1769,1788,1808,1829,1848,1869],"xSR":741.5,"ySR":469.95,"xT1":424.9,"yT1":0,"xT2":1058.1,"yT2":0,"toosoon":0,"cond_shown":"randomdotsizeEA","ratio_trial":900,"smaller_num":"18","larger_num":"20","correct_side":2,"subjID":"MariaCamilaOrtegonGOMEZ","gender":"1","age":"12","school":"6}"},{"start_time":1551801349430,"click_time":1551801351418,"finger_time":1551801349979,"fix_duration":250,"trial":28,"RT":549,"MT":1439,"sideResp":1,"stimulus":"img/500/randomdotsizeEA/L/10_Ratio_500_L_4_R_2.png","xmouse":[786,786,786,786,786,786,786,786,786,786,786,786,786,786,786,786,789,792,793,793,793,795,798,807,826,836,841,843,843,841,832,776,734,698,673,646,627,626,626,629,631,633,633,632,629,628,628,637,654,680,712,764,949,1068,1212,1244,1247,1247,1248,1248,1248,1248,1246,1236,1201,1156,1120,1039,995,950,916,887,771,665,632,552,489,408,398,396,396,396,395,394,394,394,392,391,399,406,410,411,411,411,411,411,411,415,419,425],"ymouse":[524,524,524,524,524,524,525,529,532,534,535,535,535,535,536,536,539,540,540,540,540,540,540,532,509,488,472,449,444,437,419,358,323,297,280,264,256,256,256,253,251,244,216,202,188,183,180,175,173,173,172,177,163,159,160,170,171,171,171,170,168,167,163,162,157,153,153,155,162,165,165,165,165,165,165,170,178,189,191,191,191,191,191,191,191,186,178,138,114,96,89,88,88,88,87,86,86,81,77,71],"timestamp_mouse":[11,34,48,68,88,108,128,149,168,189,208,229,248,270,288,308,330,348,368,390,409,428,448,468,488,509,528,549,568,588,608,629,648,668,688,709,729,749,768,788,808,828,849,868,888,908,928,948,968,990,1009,1029,1049,1069,1089,1110,1128,1148,1168,1188,1208,1228,1248,1268,1288,1310,1328,1348,1368,1389,1408,1430,1448,1469,1490,1509,1528,1548,1568,1588,1608,1630,1648,1669,1689,1709,1729,1749,1769,1788,1808,1829,1848,1868,1890,1909,1928,1948,1968,1988],"xSR":741.5,"ySR":469.95,"xT1":424.9,"yT1":0,"xT2":1058.1,"yT2":0,"toosoon":0,"cond_shown":"randomdotsizeEA","ratio_trial":500,"smaller_num":"2","larger_num":"4","correct_side":1,"subjID":"MariaCamilaOrtegonGOMEZ","gender":"1","age":"12","school":"6}"},{"start_time":1551801354011,"click_time":1551801355478,"finger_time":1551801354739,"fix_duration":250,"trial":29,"RT":728,"MT":739,"sideResp":2,"stimulus":"img/500/equaldotanddens/R/12_Ratio_500_L_1_R_2.png","xmouse":[759,759,759,759,759,759,759,759,759,759,759,759,759,758,757,756,756,755,753,752,752,751,751,751,751,751,751,751,751,751,751,751,751,750,750,750,750,751,769,794,822,849,871,902,915,930,949,957,987,1004,1013,1021,1027,1038,1042,1048,1048,1048,1048,1048,1048,1048,1049,1049,1050,1050,1050,1050,1050,1050,1050,1051,1053,1060],"ymouse":[498,498,498,498,498,498,498,498,498,498,498,498,498,498,498,497,497,496,494,493,492,491,491,491,491,491,491,491,491,489,488,487,487,484,481,474,468,458,421,387,359,336,316,285,268,245,216,199,145,122,100,80,68,54,51,48,48,48,48,48,48,48,48,48,48,48,50,51,56,58,58,60,61,64],"timestamp_mouse":[8,31,48,68,87,108,127,149,168,187,208,227,248,268,288,307,327,347,367,387,407,427,448,469,487,508,527,548,568,589,608,627,648,667,687,707,728,749,767,787,807,827,847,868,887,907,929,947,967,987,1007,1028,1048,1067,1087,1108,1127,1148,1167,1188,1208,1228,1248,1267,1287,1308,1327,1347,1367,1389,1407,1427,1447,1467],"xSR":741.5,"ySR":469.95,"xT1":424.9,"yT1":0,"xT2":1058.1,"yT2":0,"toosoon":0,"cond_shown":"equaldotanddens","ratio_trial":500,"smaller_num":"1","larger_num":"2","correct_side":2,"subjID":"MariaCamilaOrtegonGOMEZ","gender":"1","age":"12","school":"6}"},{"start_time":1551801356759,"click_time":1551801357758,"finger_time":1551801357438,"fix_duration":697.6681410072082,"trial":30,"RT":679,"MT":320,"sideResp":2,"stimulus":"img/750/equaldotsize/R/4_Ratio_750_L_15_R_20.png","xmouse":[796,796,796,796,796,796,796,796,797,797,797,798,798,798,799,799,800,801,803,804,804,804,804,804,804,804,804,804,805,806,808,821,831,841,847,864,874,884,905,932,973,1017,1030,1035,1038,1040,1042,1048,1060,1071,1073],"ymouse":[518,518,518,518,518,518,518,517,516,515,515,514,514,512,512,512,510,509,507,506,506,506,506,506,506,506,506,506,505,504,502,491,481,470,461,432,415,400,374,341,297,253,241,236,231,217,206,181,152,116,99],"timestamp_mouse":[1,19,52,59,80,100,120,140,159,179,200,219,240,261,279,300,319,339,360,380,401,419,441,460,480,499,519,539,559,581,599,619,639,659,679,700,719,741,759,781,799,819,839,859,879,900,919,939,959,980,999],"xSR":741.5,"ySR":469.95,"xT1":424.9,"yT1":0,"xT2":1058.1,"yT2":0,"toosoon":0,"cond_shown":"equaldotsize","ratio_trial":750,"smaller_num":"15","larger_num":"20","correct_side":2,"subjID":"MariaCamilaOrtegonGOMEZ","gender":"1","age":"12","school":"6}"},{"start_time":1551801359295,"click_time":1551801360378,"finger_time":1551801360178,"fix_duration":794.0214784515125,"trial":31,"RT":883,"MT":200,"sideResp":2,"stimulus":"img/750/randomdotsizeEA/R/12_Ratio_750_L_3_R_4.png","xmouse":[745,745,745,745,745,745,745,745,745,745,745,745,745,745,745,745,745,745,745,745,745,745,745,745,745,745,745,745,745,745,745,745,745,745,745,745,745,745,745,745,745,747,752,767,825,874,909,930,940,947,949,949,971,1013,1062],"ymouse":[521,521,521,521,521,521,521,521,521,521,521,521,521,521,521,521,521,521,521,521,521,521,521,521,521,521,521,521,521,521,521,521,521,521,521,521,521,521,521,521,521,521,519,512,469,426,387,359,336,289,261,261,178,97,10],"timestamp_mouse":[10,30,45,64,83,105,123,143,165,183,204,225,243,264,283,303,324,343,364,384,404,423,445,463,483,503,523,543,564,585,603,623,643,664,684,705,723,744,764,784,803,823,844,863,883,903,924,943,964,983,1004,1024,1045,1063,1083],"xSR":741.5,"ySR":469.95,"xT1":424.9,"yT1":0,"xT2":1058.1,"yT2":0,"toosoon":0,"cond_shown":"randomdotsizeEA","ratio_trial":750,"smaller_num":"3","larger_num":"4","correct_side":2,"subjID":"MariaCamilaOrtegonGOMEZ","gender":"1","age":"12","school":"6}"},{"start_time":1551801362190,"click_time":1551801364878,"finger_time":1551801362618,"fix_duration":1011.6293478326859,"trial":32,"RT":428,"MT":2260,"sideResp":1,"stimulus":"img/750/equaldotsize/L/14_Ratio_750_L_8_R_6.png","xmouse":[765,765,765,765,765,765,765,765,765,765,765,765,763,763,763,763,763,763,763,763,763,763,763,762,761,758,752,745,734,685,674,666,647,604,604,604,604,604,604,604,604,604,604,604,604,604,603,603,603,603,603,603,603,603,603,603,603,603,603,603,603,603,603,603,603,603,603,603,603,603,603,603,603,603,603,603,603,603,603,603,603,603,817,1066,1066,1066,1066,1066,1066,1066,1066,1066,1066,1066,1066,1066,1066,1066,1066,1066,1066,1066,1066,1066,1066,1066,1066,1066,1066,1066,1066,1066,1066,1066,1066,1551,1491,1429,1429,1429,1429,1429,1429,1429,1429,1429,1429,1429,1429,1429,1429,1429,1429,1429,461],"ymouse":[485,485,485,485,485,485,485,485,485,485,485,485,485,484,481,477,475,473,472,471,470,467,466,463,460,454,441,425,404,332,318,306,281,225,223,223,223,223,223,223,223,223,223,223,223,223,223,223,223,223,223,223,223,223,223,223,223,223,223,223,223,223,223,223,223,223,223,223,223,223,223,223,223,223,223,223,223,223,223,223,223,224,452,704,704,704,704,704,704,704,704,704,704,704,704,704,704,704,704,704,704,704,704,704,704,704,704,704,704,704,704,704,704,704,704,354,172,45,45,45,45,45,45,45,45,45,45,45,45,45,45,45,45,45,78],"timestamp_mouse":[13,34,49,69,88,109,129,149,170,188,209,228,249,270,288,309,328,348,369,388,408,428,448,470,488,508,528,549,570,588,608,628,648,670,689,708,729,749,768,788,808,830,848,868,888,909,928,949,968,988,1009,1028,1048,1068,1088,1108,1128,1148,1169,1189,1208,1228,1249,1269,1289,1309,1328,1350,1370,1388,1408,1429,1448,1469,1488,1508,1528,1549,1568,1589,1609,1628,1648,1669,1688,1709,1728,1748,1769,1788,1808,1829,1849,1868,1889,1909,1929,1950,1968,1989,2008,2028,2049,2068,2088,2108,2130,2148,2169,2188,2209,2230,2249,2269,2288,2309,2328,2349,2368,2389,2409,2429,2450,2468,2489,2508,2529,2548,2569,2588,2608,2629,2649,2668,2688],"xSR":741.5,"ySR":469.95,"xT1":424.9,"yT1":0,"xT2":1058.1,"yT2":0,"toosoon":0,"cond_shown":"equaldotsize","ratio_trial":750,"smaller_num":"6","larger_num":"8","correct_side":1,"subjID":"MariaCamilaOrtegonGOMEZ","gender":"1","age":"12","school":"6}"},{"start_time":1551801367145,"click_time":1551801368438,"finger_time":1551801367878,"fix_duration":1085.3558011252148,"trial":33,"RT":733,"MT":560,"sideResp":2,"stimulus":"img/500/randomdotsizeEA/L/8_Ratio_500_L_8_R_4.png","xmouse":[810,810,810,810,810,810,810,810,810,810,810,810,810,810,810,810,810,810,810,810,810,810,810,810,810,810,810,810,810,810,810,810,810,810,817,826,867,892,919,928,929,948,979,1008,1037,1037,1037,1037,1037,1037,1037,1037,1037,1037,1037,1037,1054,1054,1056,1057,1057,1058,1058,1058,1059],"ymouse":[547,547,547,547,547,547,547,547,547,547,547,547,547,547,547,547,547,547,547,547,547,547,547,547,547,547,547,547,547,547,547,547,547,547,525,505,418,358,287,246,224,163,103,54,4,4,4,4,4,4,4,4,4,4,4,4,15,31,41,46,47,50,53,60,69],"timestamp_mouse":[14,35,53,73,95,113,133,153,175,193,214,233,253,274,294,313,333,353,374,395,413,434,453,473,495,514,535,553,573,594,613,633,653,674,694,714,733,753,773,795,815,833,853,873,893,914,933,953,973,993,1014,1033,1054,1073,1094,1113,1134,1153,1174,1193,1213,1233,1253,1274,1293],"xSR":741.5,"ySR":469.95,"xT1":424.9,"yT1":0,"xT2":1058.1,"yT2":0,"toosoon":0,"cond_shown":"randomdotsizeEA","ratio_trial":500,"smaller_num":"4","larger_num":"8","correct_side":1,"subjID":"MariaCamilaOrtegonGOMEZ","gender":"1","age":"12","school":"6}"},{"start_time":1551801372111,"click_time":1551801372979,"finger_time":1551801372659,"fix_duration":1072.8122509564746,"trial":34,"RT":548,"MT":320,"sideResp":1,"stimulus":"img/250/equaldotsize/L/1_Ratio_250_L_8_R_2.png","xmouse":[823,823,823,823,823,823,823,823,823,823,823,823,823,823,823,823,823,823,823,823,823,823,823,823,823,823,823,815,792,750,697,658,658,658,658,658,658,658,658,658,658,658,658,481],"ymouse":[514,514,514,514,514,514,514,514,514,514,514,514,514,514,514,514,514,514,514,514,514,514,514,514,514,506,490,360,263,166,78,11,11,11,11,11,11,11,11,11,11,11,11,17],"timestamp_mouse":[10,34,47,68,87,107,127,147,169,189,207,227,249,267,287,308,327,349,368,388,408,429,448,467,489,507,527,548,567,587,607,628,647,668,688,708,728,748,767,788,807,827,847,868],"xSR":741.5,"ySR":469.95,"xT1":424.9,"yT1":0,"xT2":1058.1,"yT2":0,"toosoon":0,"cond_shown":"equaldotsize","ratio_trial":250,"smaller_num":"2","larger_num":"8","correct_side":1,"subjID":"MariaCamilaOrtegonGOMEZ","gender":"1","age":"12","school":"6}"},{"start_time":1551801375084,"click_time":1551801376099,"finger_time":1551801375698,"fix_duration":1144.8159020480748,"trial":35,"RT":614,"MT":401,"sideResp":1,"stimulus":"img/750/equaldotsize/L/6_Ratio_750_L_24_R_18.png","xmouse":[822,822,822,822,822,822,822,822,822,822,822,822,822,822,822,822,822,821,820,820,820,820,820,820,820,820,820,818,818,813,811,809,798,748,706,653,627,627,627,627,627,627,627,627,627,627,627,627,627,627,473],"ymouse":[485,485,485,485,485,485,485,485,485,485,485,485,485,485,485,485,485,485,485,485,485,485,485,485,485,485,485,482,480,473,469,461,419,263,156,53,7,7,7,7,7,7,7,7,7,7,7,7,7,7,1],"timestamp_mouse":[14,39,55,76,94,115,135,154,175,195,214,234,256,274,294,315,334,354,375,394,414,435,454,474,495,514,536,554,574,594,614,634,655,675,694,714,735,754,774,794,814,834,855,875,894,915,935,955,976,995,1015],"xSR":741.5,"ySR":469.95,"xT1":424.9,"yT1":0,"xT2":1058.1,"yT2":0,"toosoon":0,"cond_shown":"equaldotsize","ratio_trial":750,"smaller_num":"18","larger_num":"24","correct_side":1,"subjID":"MariaCamilaOrtegonGOMEZ","gender":"1","age":"12","school":"6}"},{"start_time":1551801377651,"click_time":1551801378478,"finger_time":1551801378038,"fix_duration":250,"trial":36,"RT":387,"MT":440,"sideResp":1,"stimulus":"img/900/equaldotsize/L/1_Ratio_900_L_10_R_9.png","xmouse":[797,797,797,797,797,797,797,797,797,797,797,797,797,797,797,797,794,792,788,784,778,772,768,764,759,755,750,749,748,748,748,748,748,748,748,748,730,701,662,611,561,500],"ymouse":[472,472,472,472,472,472,472,472,472,472,472,472,472,472,472,472,472,472,470,466,460,445,435,422,405,392,373,369,367,367,367,367,367,367,367,366,344,304,246,175,105,10],"timestamp_mouse":[13,41,47,68,89,108,128,148,168,187,209,227,247,269,287,307,328,348,367,387,407,427,447,468,488,507,527,547,567,588,608,627,647,669,688,707,727,747,768,787,807,827],"xSR":741.5,"ySR":469.95,"xT1":424.9,"yT1":0,"xT2":1058.1,"yT2":0,"toosoon":0,"cond_shown":"equaldotsize","ratio_trial":900,"smaller_num":"9","larger_num":"10","correct_side":1,"subjID":"MariaCamilaOrtegonGOMEZ","gender":"1","age":"12","school":"6}"},{"start_time":1551801380474,"click_time":1551801381278,"finger_time":1551801380860,"fix_duration":934.6327998275113,"trial":37,"RT":386,"MT":418,"sideResp":1,"stimulus":"img/250/randomdotsizeEA/L/5_Ratio_250_L_24_R_6.png","xmouse":[755,755,755,755,755,755,755,755,755,755,755,755,755,755,755,755,755,751,749,742,726,717,709,702,699,689,678,666,651,624,613,603,590,585,580,570,562,551,543,534,514],"ymouse":[480,480,480,480,480,480,480,480,480,480,480,480,480,480,480,480,480,476,470,453,416,396,378,349,325,270,243,220,196,162,146,131,113,107,103,96,90,83,77,71,63],"timestamp_mouse":[8,34,44,65,85,106,124,145,164,186,205,225,244,266,284,304,325,344,364,386,404,424,445,465,484,504,524,544,564,585,605,625,644,664,684,704,724,744,765,785,804],"xSR":741.5,"ySR":469.95,"xT1":424.9,"yT1":0,"xT2":1058.1,"yT2":0,"toosoon":0,"cond_shown":"randomdotsizeEA","ratio_trial":250,"smaller_num":"6","larger_num":"24","correct_side":1,"subjID":"MariaCamilaOrtegonGOMEZ","gender":"1","age":"12","school":"6}"},{"start_time":1551801382330,"click_time":1551801383420,"finger_time":1551801383038,"fix_duration":250,"trial":38,"RT":708,"MT":382,"sideResp":1,"stimulus":"img/500/equaldotanddens/L/8_Ratio_500_L_8_R_4.png","xmouse":[812,812,812,812,812,812,812,812,812,812,812,812,812,812,812,812,812,812,812,812,812,812,812,812,812,812,812,812,812,812,812,812,812,813,808,802,754,720,685,664,635,607,596,592,590,590,590,589,588,584,581,577,555,534,509],"ymouse":[494,494,494,494,494,494,494,494,494,494,494,494,494,494,494,494,494,494,494,494,494,494,494,494,494,494,494,494,494,494,494,494,494,495,476,458,335,260,199,161,118,77,65,60,58,58,58,57,57,55,54,53,51,51,51],"timestamp_mouse":[10,29,49,69,88,108,130,148,168,189,208,228,250,268,289,309,329,349,370,388,408,429,448,468,488,508,528,548,568,589,608,629,648,670,688,708,729,748,768,789,809,830,849,869,888,908,929,948,968,989,1008,1028,1048,1068,1089],"xSR":741.5,"ySR":469.95,"xT1":424.9,"yT1":0,"xT2":1058.1,"yT2":0,"toosoon":0,"cond_shown":"equaldotanddens","ratio_trial":500,"smaller_num":"4","larger_num":"8","correct_side":1,"subjID":"MariaCamilaOrtegonGOMEZ","gender":"1","age":"12","school":"6}"},{"start_time":1551801384905,"click_time":1551801385939,"finger_time":1551801385478,"fix_duration":664.0036907334907,"trial":39,"RT":573,"MT":461,"sideResp":1,"stimulus":"img/500/randomdotsizeEA/L/13_Ratio_500_L_12_R_6.png","xmouse":[778,778,778,778,778,778,777,777,777,777,777,777,777,777,777,777,777,775,773,771,769,768,767,766,763,761,756,750,733,721,710,691,675,667,660,656,652,646,643,640,632,627,623,615,607,596,585,565,553,542,530,523],"ymouse":[495,495,495,495,495,495,495,495,495,495,495,495,495,495,495,495,495,494,492,490,489,487,486,485,484,482,478,472,451,436,419,385,324,290,256,227,199,153,137,121,100,91,86,84,84,84,84,85,87,87,87,87],"timestamp_mouse":[13,36,54,75,93,114,134,153,173,193,214,233,254,273,293,313,333,354,373,393,414,434,453,473,493,514,534,554,573,594,613,634,654,673,693,713,733,754,773,794,813,833,853,873,894,914,933,955,973,993,1013,1034],"xSR":741.5,"ySR":469.95,"xT1":424.9,"yT1":0,"xT2":1058.1,"yT2":0,"toosoon":0,"cond_shown":"randomdotsizeEA","ratio_trial":500,"smaller_num":"6","larger_num":"12","correct_side":1,"subjID":"MariaCamilaOrtegonGOMEZ","gender":"1","age":"12","school":"6}"},{"start_time":1551801387733,"click_time":1551801388717,"finger_time":1551801388359,"fix_duration":1055.7052891059725,"trial":40,"RT":626,"MT":358,"sideResp":1,"stimulus":"img/250/equaldotsize/L/15_Ratio_250_L_12_R_3.png","xmouse":[800,800,800,800,800,800,800,800,800,800,800,800,800,800,800,800,800,800,800,800,800,801,802,802,802,802,802,797,790,771,762,738,728,712,698,685,672,669,666,663,660,648,637,624,610,595,577,543,529,517],"ymouse":[527,527,527,527,527,527,527,527,527,527,527,527,527,527,527,527,527,527,527,527,527,525,523,522,522,521,520,517,512,494,477,393,345,288,236,197,157,150,144,139,136,128,123,118,114,110,105,96,93,89],"timestamp_mouse":[9,42,45,64,84,105,124,145,164,185,204,224,244,264,285,304,324,344,364,384,405,426,444,464,486,504,524,544,565,584,605,626,644,665,684,705,726,745,766,785,805,826,844,865,885,904,924,945,964,984],"xSR":741.5,"ySR":469.95,"xT1":424.9,"yT1":0,"xT2":1058.1,"yT2":0,"toosoon":0,"cond_shown":"equaldotsize","ratio_trial":250,"smaller_num":"3","larger_num":"12","correct_side":1,"subjID":"MariaCamilaOrtegonGOMEZ","gender":"1","age":"12","school":"6}"},{"start_time":1551801389999,"click_time":1551801390738,"finger_time":1551801390359,"fix_duration":499.25021474957146,"trial":41,"RT":360,"MT":379,"sideResp":1,"stimulus":"img/750/randomdotsizeEA/R/4_Ratio_750_L_15_R_20.png","xmouse":[809,809,809,809,809,809,809,809,809,809,809,809,809,809,809,806,804,795,784,779,776,768,754,734,690,665,657,638,627,608,594,580,566,542,534,530,526,524],"ymouse":[534,534,534,534,534,534,534,534,534,534,534,534,534,534,534,528,519,487,449,434,423,401,368,322,250,212,202,178,162,134,115,95,76,48,36,29,23,20],"timestamp_mouse":[2,22,41,60,78,99,118,138,158,179,198,220,238,260,278,298,318,339,360,379,398,419,438,459,478,498,518,540,559,579,598,618,638,659,678,698,718,739],"xSR":741.5,"ySR":469.95,"xT1":424.9,"yT1":0,"xT2":1058.1,"yT2":0,"toosoon":0,"cond_shown":"randomdotsizeEA","ratio_trial":750,"smaller_num":"15","larger_num":"20","correct_side":2,"subjID":"MariaCamilaOrtegonGOMEZ","gender":"1","age":"12","school":"6}"},{"start_time":1551801392664,"click_time":1551801393598,"finger_time":1551801393278,"fix_duration":865.3373923509512,"trial":42,"RT":614,"MT":320,"sideResp":2,"stimulus":"img/900/randomdotsizeEA/L/4_Ratio_900_L_20_R_18.png","xmouse":[804,804,804,804,804,804,804,804,804,804,804,804,804,804,804,804,804,804,804,804,804,804,804,804,804,804,804,804,805,808,846,861,897,948,977,1017,1024,1027,1031,1037,1050,1054,1056,1056,1056,1056,1060],"ymouse":[545,545,545,545,545,545,545,545,545,545,545,545,545,545,545,544,543,540,536,532,532,532,532,532,532,532,532,532,526,520,459,437,386,309,261,179,150,127,108,90,56,47,42,42,42,42,42],"timestamp_mouse":[15,33,61,73,94,113,135,154,173,194,214,233,255,274,295,314,333,355,373,394,415,434,453,474,494,514,534,553,573,594,614,634,654,674,693,713,733,753,774,793,813,835,854,873,893,913,934],"xSR":741.5,"ySR":469.95,"xT1":424.9,"yT1":0,"xT2":1058.1,"yT2":0,"toosoon":0,"cond_shown":"randomdotsizeEA","ratio_trial":900,"smaller_num":"18","larger_num":"20","correct_side":1,"subjID":"MariaCamilaOrtegonGOMEZ","gender":"1","age":"12","school":"6}"},{"start_time":1551801397476,"click_time":1551801398458,"finger_time":1551801398197,"fix_duration":1476.7147500942322,"trial":43,"RT":721,"MT":261,"sideResp":1,"stimulus":"img/500/randomdotsizeEA/L/5_Ratio_500_L_4_R_2.png","xmouse":[794,794,794,794,794,794,794,794,794,794,793,793,793,793,793,794,795,796,796,796,796,796,796,797,797,797,797,797,797,797,797,797,797,797,797,798,798,792,777,759,719,704,691,676,663,636,620,599,572,509],"ymouse":[517,517,517,517,517,517,517,517,517,517,516,516,515,514,512,508,504,501,499,499,499,499,498,498,497,497,496,496,496,496,496,496,496,495,494,475,444,398,353,310,245,223,207,185,172,151,139,124,104,57],"timestamp_mouse":[11,31,41,61,81,102,121,141,163,181,202,223,241,261,282,301,321,342,361,381,402,421,442,462,482,502,522,543,561,583,601,622,643,661,681,702,721,741,762,782,801,821,841,861,882,902,921,942,961,982],"xSR":741.5,"ySR":469.95,"xT1":424.9,"yT1":0,"xT2":1058.1,"yT2":0,"toosoon":0,"cond_shown":"randomdotsizeEA","ratio_trial":500,"smaller_num":"2","larger_num":"4","correct_side":1,"subjID":"MariaCamilaOrtegonGOMEZ","gender":"1","age":"12","school":"6}"},{"start_time":1551801399863,"click_time":1551801401137,"finger_time":1551801400777,"fix_duration":383.6150118846411,"trial":44,"RT":914,"MT":360,"sideResp":2,"stimulus":"img/900/equaldotsize/L/8_Ratio_900_L_20_R_18.png","xmouse":[756,756,756,756,756,756,756,756,756,756,756,756,756,756,756,756,756,756,756,756,756,756,756,756,756,756,756,756,756,756,756,756,756,756,757,757,757,757,757,757,759,762,773,792,809,837,847,858,868,875,893,907,946,989,1044,1133,1146,1153,1156,1156,1157,1157,1157,1157],"ymouse":[521,521,521,521,521,521,521,521,521,521,521,521,521,521,521,521,521,521,521,521,521,521,521,521,521,521,521,521,521,521,521,521,521,521,521,521,521,521,521,521,519,515,508,493,478,447,430,411,393,372,326,300,256,228,202,164,157,151,146,143,127,115,100,93],"timestamp_mouse":[15,36,55,74,95,114,134,154,174,194,215,234,255,275,295,315,335,355,374,395,414,434,455,475,494,515,535,554,576,595,614,636,655,674,695,716,734,755,775,795,814,834,854,876,894,914,934,954,974,995,1014,1035,1054,1075,1094,1114,1135,1156,1175,1194,1214,1235,1254,1274],"xSR":741.5,"ySR":469.95,"xT1":424.9,"yT1":0,"xT2":1058.1,"yT2":0,"toosoon":0,"cond_shown":"equaldotsize","ratio_trial":900,"smaller_num":"18","larger_num":"20","correct_side":1,"subjID":"MariaCamilaOrtegonGOMEZ","gender":"1","age":"12","school":"6}"},{"start_time":1551801402130,"click_time":1551801403179,"finger_time":1551801402757,"fix_duration":250,"trial":45,"RT":627,"MT":422,"sideResp":1,"stimulus":"img/900/equaldotanddens/L/4_Ratio_900_L_20_R_18.png","xmouse":[778,778,778,778,778,778,778,778,778,778,778,778,778,778,778,778,778,778,778,778,778,778,778,778,778,778,778,778,778,780,782,784,781,777,767,751,732,684,662,642,614,605,590,581,573,565,558,549,546,543,540,535,524],"ymouse":[528,528,528,528,528,528,528,528,528,528,528,528,528,528,528,528,528,528,528,528,528,528,528,528,528,528,528,528,528,510,483,455,405,376,345,312,278,223,207,194,181,176,168,162,157,151,145,131,125,114,106,97,78],"timestamp_mouse":[7,27,48,67,87,107,127,147,168,188,207,227,248,268,288,307,328,349,368,387,409,428,448,467,488,507,528,548,568,588,607,627,647,667,687,707,727,747,768,788,808,827,847,868,889,908,928,948,968,987,1009,1029,1049],"xSR":741.5,"ySR":469.95,"xT1":424.9,"yT1":0,"xT2":1058.1,"yT2":0,"toosoon":0,"cond_shown":"equaldotanddens","ratio_trial":900,"smaller_num":"18","larger_num":"20","correct_side":1,"subjID":"MariaCamilaOrtegonGOMEZ","gender":"1","age":"12","school":"6}"},{"start_time":1551801406009,"click_time":1551801406977,"finger_time":1551801406658,"fix_duration":568.8807672187083,"trial":46,"RT":649,"MT":319,"sideResp":1,"stimulus":"img/900/randomdotsizeEA/L/2_Ratio_900_L_20_R_18.png","xmouse":[796,796,796,796,796,796,796,796,796,796,796,796,796,796,796,796,796,796,796,796,796,796,796,796,796,796,796,796,796,796,793,790,782,739,678,653,575,529,529,529,529,529,529,529,529,529,529,529,522],"ymouse":[537,537,537,537,537,537,537,537,537,537,537,537,537,537,537,537,537,537,537,537,537,537,537,537,537,537,537,537,537,537,518,506,465,324,195,160,55,6,6,6,6,6,6,6,6,6,6,6,13],"timestamp_mouse":[10,41,48,70,88,109,130,149,169,189,209,228,249,269,288,309,329,348,369,390,408,429,448,469,490,508,528,550,568,589,609,629,649,668,689,708,729,748,768,789,809,828,848,868,889,908,928,948,968],"xSR":741.5,"ySR":469.95,"xT1":424.9,"yT1":0,"xT2":1058.1,"yT2":0,"toosoon":0,"cond_shown":"randomdotsizeEA","ratio_trial":900,"smaller_num":"18","larger_num":"20","correct_side":1,"subjID":"MariaCamilaOrtegonGOMEZ","gender":"1","age":"12","school":"6}"},{"start_time":1551801408503,"click_time":1551801409859,"finger_time":1551801409077,"fix_duration":644.8187187772542,"trial":47,"RT":574,"MT":782,"sideResp":1,"stimulus":"img/500/equaldotanddens/L/13_Ratio_500_L_12_R_6.png","xmouse":[832,832,832,832,832,832,832,832,832,832,832,832,832,832,832,832,832,832,832,832,832,832,832,832,832,832,831,825,813,795,778,761,747,733,730,730,730,730,750,766,803,821,943,975,986,987,987,987,987,985,972,963,949,912,895,876,857,835,784,755,706,670,619,600,581,563,541,458],"ymouse":[501,501,501,501,501,501,501,501,501,501,501,501,501,501,501,501,501,501,501,501,501,501,501,501,501,498,491,475,433,389,351,320,295,265,260,258,258,257,249,240,217,207,138,125,120,119,119,119,119,119,119,119,117,111,109,106,105,104,103,103,103,103,101,96,90,85,78,63],"timestamp_mouse":[16,37,56,75,94,114,134,155,174,195,215,234,254,274,295,315,335,354,374,394,416,436,455,475,495,514,535,554,574,595,614,634,654,674,694,715,735,755,774,794,814,834,855,874,895,915,935,955,975,994,1014,1034,1054,1074,1095,1115,1134,1155,1175,1195,1215,1234,1255,1274,1295,1314,1334,1355],"xSR":741.5,"ySR":469.95,"xT1":424.9,"yT1":0,"xT2":1058.1,"yT2":0,"toosoon":0,"cond_shown":"equaldotanddens","ratio_trial":500,"smaller_num":"6","larger_num":"12","correct_side":1,"subjID":"MariaCamilaOrtegonGOMEZ","gender":"1","age":"12","school":"6}"},{"start_time":1551801412968,"click_time":1551801414177,"finger_time":1551801413797,"fix_duration":947.2012838940337,"trial":48,"RT":829,"MT":380,"sideResp":1,"stimulus":"img/500/equaldotsize/L/8_Ratio_500_L_8_R_4.png","xmouse":[815,815,815,815,814,813,811,810,809,809,809,808,808,808,807,807,807,807,807,806,806,806,806,806,806,806,806,806,806,806,806,806,806,806,806,806,806,806,806,805,791,776,748,715,655,629,606,604,603,603,603,603,602,600,598,583,569,563,548,539,519],"ymouse":[497,497,497,497,499,499,501,501,502,502,502,502,502,502,503,503,503,503,503,503,503,503,503,503,503,503,503,503,503,503,503,503,503,503,503,503,503,503,503,502,473,440,375,295,130,80,53,51,51,51,51,51,51,51,51,54,56,57,58,59,61],"timestamp_mouse":[9,41,49,70,91,109,129,150,169,191,209,229,249,269,291,309,330,350,369,391,409,430,449,470,490,510,529,550,571,589,609,631,649,669,690,710,729,750,769,789,809,829,850,869,890,909,930,949,970,989,1010,1029,1051,1069,1090,1109,1129,1150,1170,1189,1209],"xSR":741.5,"ySR":469.95,"xT1":424.9,"yT1":0,"xT2":1058.1,"yT2":0,"toosoon":0,"cond_shown":"equaldotsize","ratio_trial":500,"smaller_num":"4","larger_num":"8","correct_side":1,"subjID":"MariaCamilaOrtegonGOMEZ","gender":"1","age":"12","school":"6}"},{"start_time":1551801415484,"click_time":1551801417778,"finger_time":1551801416637,"fix_duration":485.6256991003496,"trial":49,"RT":1153,"MT":1141,"sideResp":1,"stimulus":"img/750/randomdotsizeEA/R/5_Ratio_750_L_15_R_20.png","xmouse":[800,800,800,800,800,800,800,800,800,800,800,800,800,800,800,800,800,800,800,800,800,800,800,800,800,800,800,800,800,799,799,799,799,799,799,799,799,799,799,799,799,799,799,799,799,799,799,799,799,799,799,799,799,799,799,799,803,809,815,825,829,836,852,864,894,907,918,929,937,952,962,968,988,1000,1007,1009,1009,1009,1009,1009,1009,1011,1016,1028,1049,1052,1054,1054,1054,1054,1054,1053,1033,1012,936,883,831,787,743,675,647,614,597,563,552,542,533,526,515,500,494,488,484,479,477],"ymouse":[508,508,508,508,508,508,508,508,508,508,508,508,508,508,508,508,508,508,508,508,508,508,508,508,508,508,508,508,508,508,506,501,498,497,497,497,497,497,497,497,497,497,497,497,497,497,497,497,497,497,497,497,497,497,495,486,475,462,449,427,417,407,385,370,336,320,306,293,283,266,258,255,243,238,235,234,234,234,234,234,234,232,228,219,205,202,200,199,197,196,195,193,187,184,175,172,165,157,152,144,142,138,134,131,131,131,131,131,131,130,128,125,122,108,98],"timestamp_mouse":[13,39,53,74,93,114,134,153,174,194,213,235,253,273,293,313,334,353,375,393,413,434,454,474,493,513,534,554,573,593,614,633,653,674,693,713,734,753,775,794,814,834,853,873,894,914,933,954,975,995,1013,1033,1054,1073,1094,1113,1134,1153,1173,1193,1213,1233,1253,1273,1294,1313,1334,1353,1374,1393,1413,1434,1454,1473,1493,1514,1533,1553,1574,1594,1614,1633,1653,1673,1693,1713,1734,1753,1774,1794,1813,1834,1853,1873,1894,1914,1934,1953,1973,1993,2013,2033,2053,2075,2093,2113,2134,2153,2174,2193,2213,2233,2253,2274,2294],"xSR":741.5,"ySR":469.95,"xT1":424.9,"yT1":0,"xT2":1058.1,"yT2":0,"toosoon":0,"cond_shown":"randomdotsizeEA","ratio_trial":750,"smaller_num":"15","larger_num":"20","correct_side":2,"subjID":"MariaCamilaOrtegonGOMEZ","gender":"1","age":"12","school":"6}"},{"start_time":1551801419825,"click_time":1551801421258,"finger_time":1551801420658,"fix_duration":1206.2888582699752,"trial":50,"RT":833,"MT":600,"sideResp":2,"stimulus":"img/250/randomdotsizeEA/R/10_Ratio_250_L_4_R_16.png","xmouse":[814,814,814,814,814,814,814,814,814,814,814,814,814,814,814,814,814,814,814,814,814,814,814,814,814,814,814,814,814,814,814,814,814,814,814,814,814,814,814,818,825,870,891,908,922,935,944,948,950,950,950,950,951,951,955,960,963,974,976,978,979,982,998,1012,1015,1024,1043,1060,1076,1092,1102,1109],"ymouse":[531,531,531,531,531,531,531,531,531,531,531,531,531,531,531,531,531,531,531,531,531,531,531,531,531,531,531,531,531,531,531,531,531,531,531,531,531,531,531,531,524,467,440,420,407,390,371,365,360,358,358,358,354,349,343,333,324,302,292,283,273,261,222,191,184,170,157,147,134,118,101,83],"timestamp_mouse":[13,35,53,72,92,113,134,152,173,194,213,234,252,273,293,312,333,353,372,393,413,433,452,472,492,512,532,552,572,592,613,634,653,674,692,713,733,752,772,793,812,833,852,872,893,913,934,953,972,993,1014,1033,1053,1073,1093,1113,1132,1153,1172,1193,1212,1232,1252,1272,1292,1312,1333,1352,1372,1392,1412,1433],"xSR":741.5,"ySR":469.95,"xT1":424.9,"yT1":0,"xT2":1058.1,"yT2":0,"toosoon":0,"cond_shown":"randomdotsizeEA","ratio_trial":250,"smaller_num":"4","larger_num":"16","correct_side":2,"subjID":"MariaCamilaOrtegonGOMEZ","gender":"1","age":"12","school":"6}"},{"start_time":1551801425520,"click_time":1551801427137,"finger_time":1551801426297,"fix_duration":1220.887179268181,"trial":51,"RT":777,"MT":840,"sideResp":1,"stimulus":"img/500/randomdotsizeEA/L/11_Ratio_500_L_12_R_6.png","xmouse":[798,798,798,798,798,798,798,798,798,798,798,798,798,798,798,798,798,798,798,798,798,798,798,798,798,798,798,798,798,798,798,798,798,798,798,798,803,824,851,889,911,927,930,930,930,933,936,941,942,943,943,943,943,943,942,940,914,890,880,849,830,809,766,746,726,703,651,624,601,577,565,556,539,535,532,530,530,530,529,527,521],"ymouse":[545,545,545,545,545,545,545,545,545,545,545,545,545,545,545,545,545,545,545,545,545,545,545,545,545,545,545,545,545,545,545,545,545,545,545,545,538,499,427,297,234,179,123,101,84,66,56,40,35,33,33,33,33,33,34,38,61,72,76,80,81,81,80,80,82,89,103,111,116,116,112,107,96,94,93,92,92,92,92,92,93],"timestamp_mouse":[18,38,58,77,98,117,139,159,177,197,217,237,258,277,297,318,337,357,381,398,419,439,457,478,497,519,538,557,579,598,618,638,657,677,697,719,739,757,777,797,818,837,857,877,897,917,938,958,978,998,1018,1038,1057,1078,1097,1118,1139,1158,1178,1197,1217,1237,1257,1277,1297,1317,1338,1357,1379,1398,1417,1437,1457,1477,1497,1517,1537,1558,1578,1597,1617],"xSR":741.5,"ySR":469.95,"xT1":424.9,"yT1":0,"xT2":1058.1,"yT2":0,"toosoon":0,"cond_shown":"randomdotsizeEA","ratio_trial":500,"smaller_num":"6","larger_num":"12","correct_side":1,"subjID":"MariaCamilaOrtegonGOMEZ","gender":"1","age":"12","school":"6}"},{"start_time":1551801428527,"click_time":1551801429877,"finger_time":1551801429298,"fix_duration":368.12175021363856,"trial":52,"RT":771,"MT":579,"sideResp":1,"stimulus":"img/250/randomdotsizeEA/L/14_Ratio_250_L_12_R_3.png","xmouse":[825,825,825,825,825,825,825,825,825,825,825,825,825,825,825,825,825,825,825,825,825,825,825,825,825,825,825,825,825,825,825,825,825,825,825,825,825,823,803,778,748,718,649,639,639,639,639,639,639,639,639,639,639,639,639,549,548,548,548,550,554,556,557,557,557,557,542,461],"ymouse":[488,488,488,488,488,488,488,488,488,488,488,488,488,488,488,488,488,488,488,488,488,488,488,488,488,488,488,488,488,488,488,488,488,488,488,488,488,486,441,365,259,154,19,7,7,7,7,7,7,7,7,7,7,7,7,0,4,16,31,54,87,106,116,116,116,116,101,39],"timestamp_mouse":[10,33,52,71,90,111,131,150,170,191,212,230,250,272,290,310,331,351,370,391,410,431,452,470,491,510,530,552,571,590,611,630,650,671,690,710,730,750,771,790,810,830,850,870,891,911,930,950,970,990,1010,1031,1051,1072,1092,1112,1130,1151,1170,1190,1210,1230,1250,1271,1291,1310,1330,1350],"xSR":741.5,"ySR":469.95,"xT1":424.9,"yT1":0,"xT2":1058.1,"yT2":0,"toosoon":0,"cond_shown":"randomdotsizeEA","ratio_trial":250,"smaller_num":"3","larger_num":"12","correct_side":1,"subjID":"MariaCamilaOrtegonGOMEZ","gender":"1","age":"12","school":"6}"},{"start_time":1551801432869,"click_time":1551801434917,"finger_time":1551801433557,"fix_duration":1469.9408553885416,"trial":53,"RT":688,"MT":1360,"sideResp":2,"stimulus":"img/250/randomdotsizeEA/R/9_Ratio_250_L_3_R_12.png","xmouse":[775,775,775,775,775,775,775,775,775,775,775,775,775,775,775,775,775,775,775,775,775,775,775,775,775,775,775,775,775,775,775,775,775,772,768,734,727,727,728,732,740,753,792,823,847,889,897,903,906,906,906,906,906,906,906,906,906,906,906,906,906,906,906,906,906,906,906,906,906,906,906,906,906,906,906,906,906,906,906,906,906,906,906,906,906,906,906,906,906,906,906,906,906,906,906,906,906,906,906,906,906,906,1124],"ymouse":[478,478,478,478,478,478,478,478,478,478,478,478,478,478,478,478,478,478,478,478,478,478,478,478,478,478,478,478,478,478,478,478,478,477,466,391,374,367,361,344,328,303,218,167,118,42,22,9,1,1,1,1,1,1,1,1,1,1,1,1,1,1,1,1,1,1,1,1,1,1,1,1,1,1,1,1,1,1,1,1,1,1,1,1,1,1,1,1,1,1,1,1,1,1,1,1,1,1,1,1,1,1,4],"timestamp_mouse":[10,36,48,68,90,108,128,149,170,189,209,230,249,268,288,308,329,349,370,389,408,429,450,468,489,510,529,548,569,588,608,628,649,668,688,708,729,750,769,789,808,830,849,870,888,908,929,948,968,990,1010,1029,1049,1069,1088,1108,1128,1148,1168,1189,1208,1229,1249,1268,1289,1309,1328,1348,1369,1389,1409,1429,1449,1468,1489,1510,1529,1549,1569,1589,1608,1628,1649,1670,1688,1709,1728,1748,1769,1788,1808,1829,1848,1868,1888,1909,1928,1949,1969,1988,2009,2028,2048],"xSR":741.5,"ySR":469.95,"xT1":424.9,"yT1":0,"xT2":1058.1,"yT2":0,"toosoon":0,"cond_shown":"randomdotsizeEA","ratio_trial":250,"smaller_num":"3","larger_num":"12","correct_side":2,"subjID":"MariaCamilaOrtegonGOMEZ","gender":"1","age":"12","school":"6}"},{"start_time":1551801437178,"click_time":1551801438337,"finger_time":1551801437997,"fix_duration":899.7898159662589,"trial":54,"RT":819,"MT":340,"sideResp":1,"stimulus":"img/500/equaldotsize/L/10_Ratio_500_L_4_R_2.png","xmouse":[795,795,795,795,795,795,795,795,795,795,795,795,795,795,795,795,795,795,795,795,795,795,795,795,795,795,795,795,795,795,795,795,795,795,795,795,795,795,795,795,787,782,770,746,670,647,647,647,647,647,647,647,647,647,647,647,647,647,513],"ymouse":[545,544,544,544,544,544,544,544,544,544,544,544,544,544,544,544,544,544,544,544,544,544,544,544,544,544,544,544,544,544,544,544,544,544,544,544,544,544,542,537,498,464,393,306,80,35,35,35,35,35,35,35,35,35,35,35,35,35,26],"timestamp_mouse":[1,33,40,59,80,99,119,140,160,179,199,219,239,259,280,299,319,340,359,380,399,419,440,461,481,499,520,539,561,579,600,619,641,661,680,699,719,740,759,779,800,819,839,859,880,899,920,940,960,979,999,1019,1039,1060,1079,1099,1120,1139,1159],"xSR":741.5,"ySR":469.95,"xT1":424.9,"yT1":0,"xT2":1058.1,"yT2":0,"toosoon":0,"cond_shown":"equaldotsize","ratio_trial":500,"smaller_num":"2","larger_num":"4","correct_side":1,"subjID":"MariaCamilaOrtegonGOMEZ","gender":"1","age":"12","school":"6}"},{"start_time":1551801442030,"click_time":1551801443157,"finger_time":1551801442917,"fix_duration":1430.8616604999047,"trial":55,"RT":887,"MT":240,"sideResp":2,"stimulus":"img/900/equaldotsize/R/6_Ratio_900_L_9_R_10.png","xmouse":[794,794,794,794,794,794,794,794,794,794,794,794,794,794,794,794,794,794,794,794,794,794,794,794,794,794,794,794,794,794,794,794,794,794,794,794,794,794,794,794,794,794,798,804,816,850,908,1007,1030,1044,1055,1067,1086,1095,1110,1115,1126],"ymouse":[524,524,524,524,524,524,524,524,524,524,524,524,524,524,524,524,524,524,524,524,524,524,524,524,524,524,524,524,524,524,524,524,524,524,524,524,524,524,524,524,524,523,506,490,461,404,313,195,180,172,165,157,142,133,117,110,89],"timestamp_mouse":[10,31,48,68,88,109,127,147,169,188,209,229,248,267,288,308,327,347,368,387,409,429,448,467,488,507,529,548,568,588,607,627,648,668,687,707,728,749,769,788,807,827,848,867,887,907,927,947,969,987,1010,1027,1047,1067,1087,1108,1127],"xSR":741.5,"ySR":469.95,"xT1":424.9,"yT1":0,"xT2":1058.1,"yT2":0,"toosoon":0,"cond_shown":"equaldotsize","ratio_trial":900,"smaller_num":"9","larger_num":"10","correct_side":2,"subjID":"MariaCamilaOrtegonGOMEZ","gender":"1","age":"12","school":"6}"},{"start_time":1551801444724,"click_time":1551801445577,"finger_time":1551801445437,"fix_duration":783.2296175992335,"trial":56,"RT":713,"MT":140,"sideResp":2,"stimulus":"img/900/equaldotsize/R/14_Ratio_900_L_18_R_20.png","xmouse":[757,757,757,757,757,757,757,757,757,757,757,757,757,757,757,757,757,757,757,757,757,757,757,757,757,757,757,757,757,757,757,757,759,769,788,810,867,913,969,1064,1116,1141,1149],"ymouse":[516,516,516,516,516,516,516,516,516,516,516,516,516,516,516,516,516,516,516,516,516,516,516,516,516,516,516,516,516,516,516,516,515,499,472,446,389,348,299,199,139,108,91],"timestamp_mouse":[13,36,54,73,93,113,133,153,173,193,213,233,253,273,293,314,333,354,373,395,413,433,453,473,493,514,533,553,575,594,615,633,653,673,693,713,735,753,773,794,814,833,853],"xSR":741.5,"ySR":469.95,"xT1":424.9,"yT1":0,"xT2":1058.1,"yT2":0,"toosoon":0,"cond_shown":"equaldotsize","ratio_trial":900,"smaller_num":"18","larger_num":"20","correct_side":2,"subjID":"MariaCamilaOrtegonGOMEZ","gender":"1","age":"12","school":"6}"},{"start_time":1551801447526,"click_time":1551801449478,"finger_time":1551801448477,"fix_duration":1187.2250551987408,"trial":57,"RT":951,"MT":1001,"sideResp":1,"stimulus":"img/900/equaldotanddens/R/7_Ratio_900_L_9_R_10.png","xmouse":[785,785,785,785,785,785,785,785,785,785,785,785,785,785,785,785,785,785,785,785,785,785,785,785,785,785,785,785,785,785,785,785,785,785,785,785,785,785,785,785,785,785,785,783,781,781,781,781,781,781,781,781,782,782,783,785,789,812,829,853,865,875,881,881,881,881,879,875,870,863,858,848,823,807,786,763,742,705,691,676,654,640,610,595,585,576,571,559,555,548,545,543,541,539,537,533,526,523],"ymouse":[500,500,500,500,500,500,500,500,500,500,500,500,500,500,500,500,500,500,500,500,500,500,500,500,500,500,500,500,500,500,500,500,500,500,500,500,500,500,500,500,500,500,500,501,495,488,471,468,465,462,459,457,455,454,452,449,442,409,386,353,335,319,306,302,298,295,290,281,273,263,257,249,245,245,245,245,246,246,242,235,225,215,190,178,165,156,146,125,115,102,99,96,94,93,91,89,86,84],"timestamp_mouse":[11,31,51,72,92,112,131,151,172,191,212,232,252,272,292,312,332,352,371,393,411,433,452,471,493,513,532,552,573,591,613,633,651,672,692,711,733,751,773,793,811,833,851,872,891,912,933,951,972,991,1012,1032,1052,1073,1093,1112,1132,1152,1172,1192,1211,1232,1252,1273,1293,1312,1331,1351,1371,1393,1412,1433,1452,1472,1491,1511,1532,1552,1572,1592,1612,1632,1652,1672,1693,1711,1733,1753,1772,1792,1812,1833,1853,1872,1893,1913,1934,1952],"xSR":741.5,"ySR":469.95,"xT1":424.9,"yT1":0,"xT2":1058.1,"yT2":0,"toosoon":0,"cond_shown":"equaldotanddens","ratio_trial":900,"smaller_num":"9","larger_num":"10","correct_side":2,"subjID":"MariaCamilaOrtegonGOMEZ","gender":"1","age":"12","school":"6}"},{"start_time":1551801452388,"click_time":1551801453499,"finger_time":1551801453257,"fix_duration":369.1007106320542,"trial":58,"RT":869,"MT":242,"sideResp":2,"stimulus":"img/250/equaldotsize/R/4_Ratio_250_L_3_R_12.png","xmouse":[806,806,806,806,806,806,806,806,806,806,806,806,806,806,806,806,806,806,806,806,806,806,806,806,806,806,806,806,806,806,806,806,806,806,806,806,806,806,806,806,812,820,834,857,893,908,929,983,1057,1076,1092,1104,1113,1120,1120,1119],"ymouse":[549,549,549,549,549,549,549,549,549,549,549,549,549,549,549,549,549,549,549,549,549,549,549,549,549,549,549,549,549,549,549,549,549,549,549,549,549,549,549,549,537,517,490,450,399,378,354,295,227,210,193,180,169,137,116,92],"timestamp_mouse":[10,37,51,69,90,110,130,150,169,190,211,230,250,270,291,309,331,350,370,389,410,430,450,470,490,510,529,551,571,589,611,631,651,669,691,710,729,750,770,790,809,831,851,869,889,910,930,951,971,989,1010,1030,1050,1071,1090,1111],"xSR":741.5,"ySR":469.95,"xT1":424.9,"yT1":0,"xT2":1058.1,"yT2":0,"toosoon":0,"cond_shown":"equaldotsize","ratio_trial":250,"smaller_num":"3","larger_num":"12","correct_side":2,"subjID":"MariaCamilaOrtegonGOMEZ","gender":"1","age":"12","school":"6}"},{"start_time":1551801457041,"click_time":1551801458178,"finger_time":1551801457718,"fix_duration":1422.59682155074,"trial":59,"RT":677,"MT":460,"sideResp":2,"stimulus":"img/250/equaldotanddens/R/10_Ratio_250_L_4_R_16.png","xmouse":[780,780,780,780,780,780,780,780,780,780,780,780,780,780,780,780,780,780,780,780,780,780,780,780,780,780,780,780,780,780,780,780,782,820,882,1036,1078,1100,1112,1124,1129,1131,1126,1121,1115,1111,1105,1104,1102,1102,1101,1101,1099,1099,1098,1098,1098],"ymouse":[511,511,511,511,511,511,511,511,511,511,511,511,511,511,511,511,511,511,511,511,511,511,511,511,511,511,511,511,511,511,511,511,508,464,413,344,322,308,301,290,274,242,216,198,184,170,153,148,143,139,135,127,121,116,113,104,90],"timestamp_mouse":[17,38,56,77,97,118,137,157,177,197,217,237,257,277,297,318,337,357,377,397,418,436,457,477,498,517,537,557,577,597,616,637,658,677,697,718,737,757,777,797,817,836,856,877,896,917,937,957,978,996,1018,1036,1057,1077,1098,1117,1137],"xSR":741.5,"ySR":469.95,"xT1":424.9,"yT1":0,"xT2":1058.1,"yT2":0,"toosoon":0,"cond_shown":"equaldotanddens","ratio_trial":250,"smaller_num":"4","larger_num":"16","correct_side":2,"subjID":"MariaCamilaOrtegonGOMEZ","gender":"1","age":"12","school":"6}"},{"start_time":1551801462406,"click_time":1551801463238,"finger_time":1551801463019,"fix_duration":945.2302290564771,"trial":60,"RT":613,"MT":219,"sideResp":2,"stimulus":"img/500/equaldotsize/R/3_Ratio_500_L_10_R_20.png","xmouse":[812,812,812,812,812,812,812,812,812,812,812,812,812,812,812,812,812,812,812,812,812,812,812,812,812,812,812,812,812,817,825,840,861,919,942,977,992,1006,1038,1054,1067,1079],"ymouse":[484,484,484,484,484,484,484,484,484,484,484,484,484,484,484,484,484,484,484,484,484,484,484,484,484,484,484,484,484,474,455,426,389,309,278,237,218,197,151,130,111,95],"timestamp_mouse":[12,37,52,72,92,113,132,153,172,192,212,233,253,272,292,313,332,351,372,392,413,431,452,473,492,513,532,551,573,592,613,632,653,671,693,711,733,752,772,792,812,831],"xSR":741.5,"ySR":469.95,"xT1":424.9,"yT1":0,"xT2":1058.1,"yT2":0,"toosoon":0,"cond_shown":"equaldotsize","ratio_trial":500,"smaller_num":"10","larger_num":"20","correct_side":2,"subjID":"MariaCamilaOrtegonGOMEZ","gender":"1","age":"12","school":"6}"},{"start_time":1551801465367,"click_time":1551801465899,"finger_time":1551801465717,"fix_duration":1348.3367638130626,"trial":61,"RT":350,"MT":182,"sideResp":2,"stimulus":"img/900/randomdotsizeEA/R/7_Ratio_900_L_9_R_10.png","xmouse":[793,793,793,793,793,793,793,793,793,793,793,793,793,793,793,792,797,807,833,849,876,896,917,945,976,1038,1066],"ymouse":[502,502,502,502,502,502,502,502,502,502,502,502,502,502,502,502,488,465,417,388,342,312,277,238,194,124,94],"timestamp_mouse":[11,35,51,72,91,112,131,151,172,192,210,231,252,271,291,311,331,350,371,390,410,430,451,471,491,510,532],"xSR":741.5,"ySR":469.95,"xT1":424.9,"yT1":0,"xT2":1058.1,"yT2":0,"toosoon":0,"cond_shown":"randomdotsizeEA","ratio_trial":900,"smaller_num":"9","larger_num":"10","correct_side":2,"subjID":"MariaCamilaOrtegonGOMEZ","gender":"1","age":"12","school":"6}"},{"start_time":1551801466942,"click_time":1551801467778,"finger_time":1551801467359,"fix_duration":402.37427028518425,"trial":62,"RT":417,"MT":419,"sideResp":1,"stimulus":"img/900/equaldotanddens/L/8_Ratio_900_L_20_R_18.png","xmouse":[758,758,758,758,758,758,758,758,758,758,758,758,758,758,758,758,758,758,762,770,786,791,793,793,793,788,779,761,728,658,612,563,553,550,548,543,538,529,522,521,520,517],"ymouse":[521,521,521,521,521,521,521,521,521,521,521,521,521,521,521,521,521,521,515,498,460,445,434,426,416,383,365,333,285,209,170,135,126,121,117,111,107,103,100,100,100,97],"timestamp_mouse":[33,35,57,76,97,117,137,157,177,197,217,237,255,277,295,317,336,357,376,397,417,436,455,476,496,517,536,557,576,597,616,636,655,676,696,717,735,756,775,796,816,835],"xSR":741.5,"ySR":469.95,"xT1":424.9,"yT1":0,"xT2":1058.1,"yT2":0,"toosoon":0,"cond_shown":"equaldotanddens","ratio_trial":900,"smaller_num":"18","larger_num":"20","correct_side":1,"subjID":"MariaCamilaOrtegonGOMEZ","gender":"1","age":"12","school":"6}"},{"start_time":1551801468729,"click_time":1551801469998,"finger_time":1551801469197,"fix_duration":250,"trial":63,"RT":468,"MT":801,"sideResp":2,"stimulus":"img/750/equaldotanddens/R/11_Ratio_750_L_12_R_16.png","xmouse":[804,804,804,804,804,804,804,804,804,804,804,804,804,804,804,804,804,804,804,804,805,804,784,774,752,712,656,574,565,565,565,565,565,573,590,615,681,723,759,792,836,871,906,906,906,906,906,906,906,906,1019,1028,1046,1054,1062,1067,1070,1072,1074,1077,1079,1081,1083,1084],"ymouse":[545,545,545,545,545,545,545,545,545,545,545,545,545,545,545,545,545,545,545,545,544,534,479,425,352,245,164,88,82,82,82,82,82,82,82,81,71,64,57,49,29,14,0,0,0,0,0,0,0,0,11,28,72,96,114,121,122,123,122,118,114,110,100,95],"timestamp_mouse":[10,28,49,69,89,109,129,150,169,190,209,230,249,269,290,308,328,349,369,390,409,429,449,468,488,508,530,549,569,588,609,629,649,669,688,709,730,748,770,788,809,829,849,869,889,908,930,949,969,989,1010,1029,1049,1069,1090,1109,1130,1149,1170,1189,1210,1228,1248,1268],"xSR":741.5,"ySR":469.95,"xT1":424.9,"yT1":0,"xT2":1058.1,"yT2":0,"toosoon":0,"cond_shown":"equaldotanddens","ratio_trial":750,"smaller_num":"12","larger_num":"16","correct_side":2,"subjID":"MariaCamilaOrtegonGOMEZ","gender":"1","age":"12","school":"6}"},{"start_time":1551801472186,"click_time":1551801472977,"finger_time":1551801472879,"fix_duration":1426.4444567494436,"trial":64,"RT":693,"MT":98,"sideResp":2,"stimulus":"img/500/equaldotsize/R/3_Ratio_500_L_10_R_20.png","xmouse":[785,785,785,785,785,785,785,785,785,785,785,785,785,785,785,785,785,785,785,785,785,785,785,785,785,785,785,785,785,785,785,791,800,826,953,1034,1067,1100,1145,1153],"ymouse":[523,523,523,523,523,523,523,523,523,523,523,523,523,523,523,523,523,523,523,523,523,523,523,523,523,523,523,523,523,523,523,517,506,470,337,257,219,177,100,71],"timestamp_mouse":[19,40,51,73,93,112,132,152,171,192,212,233,252,273,292,312,333,352,373,392,412,432,453,473,493,512,532,553,572,593,613,633,653,672,693,712,732,752,773,791],"xSR":741.5,"ySR":469.95,"xT1":424.9,"yT1":0,"xT2":1058.1,"yT2":0,"toosoon":0,"cond_shown":"equaldotsize","ratio_trial":500,"smaller_num":"10","larger_num":"20","correct_side":2,"subjID":"MariaCamilaOrtegonGOMEZ","gender":"1","age":"12","school":"6}"},{"start_time":1551801475017,"click_time":1551801476378,"finger_time":1551801475659,"fix_duration":1057.496381028653,"trial":65,"RT":642,"MT":719,"sideResp":2,"stimulus":"img/250/randomdotsizeEA/R/12_Ratio_250_L_5_R_20.png","xmouse":[769,769,769,769,769,769,769,769,769,769,769,769,769,769,769,769,769,769,769,769,769,769,769,769,769,769,769,769,769,769,770,770,783,793,796,799,799,799,799,799,799,799,799,799,799,800,813,824,853,869,890,915,936,956,961,963,966,971,984,996,1007,1015,1020,1029,1034,1042,1049,1054,1062],"ymouse":[524,524,524,524,524,524,524,524,524,524,524,524,524,524,524,524,524,524,524,524,524,524,524,524,524,524,524,524,524,524,522,518,462,417,392,376,375,375,375,375,375,375,375,375,374,372,359,346,312,293,267,231,198,160,151,143,138,131,110,96,83,74,68,59,56,53,52,52,51],"timestamp_mouse":[9,22,41,61,82,100,122,142,162,181,201,220,241,261,281,301,321,341,362,381,402,422,441,461,482,501,521,541,560,582,600,621,642,660,680,701,720,742,761,781,801,820,842,861,881,902,922,940,961,981,1001,1020,1040,1061,1082,1100,1122,1140,1160,1181,1201,1221,1241,1261,1281,1301,1320,1341,1361],"xSR":741.5,"ySR":469.95,"xT1":424.9,"yT1":0,"xT2":1058.1,"yT2":0,"toosoon":0,"cond_shown":"randomdotsizeEA","ratio_trial":250,"smaller_num":"5","larger_num":"20","correct_side":2,"subjID":"MariaCamilaOrtegonGOMEZ","gender":"1","age":"12","school":"6}"},{"start_time":1551801477906,"click_time":1551801478718,"finger_time":1551801478318,"fix_duration":727.2879894064298,"trial":66,"RT":412,"MT":400,"sideResp":2,"stimulus":"img/250/equaldotanddens/R/11_Ratio_250_L_3_R_12.png","xmouse":[816,816,816,816,816,816,816,816,816,816,816,816,816,816,816,816,816,816,818,824,847,871,904,954,974,995,1017,1036,1068,1089,1094,1106,1112,1119,1123,1123,1124,1124,1124,1124,1124],"ymouse":[522,522,522,522,522,522,522,522,522,522,522,522,522,522,522,522,522,522,518,509,484,461,433,398,382,364,344,322,273,239,229,203,188,162,151,144,137,128,112,104,99],"timestamp_mouse":[12,35,52,71,92,112,131,153,172,192,211,232,251,272,292,311,333,353,372,393,412,432,453,471,491,512,532,552,572,593,612,632,651,672,693,712,732,751,772,792,812],"xSR":741.5,"ySR":469.95,"xT1":424.9,"yT1":0,"xT2":1058.1,"yT2":0,"toosoon":0,"cond_shown":"equaldotanddens","ratio_trial":250,"smaller_num":"3","larger_num":"12","correct_side":2,"subjID":"MariaCamilaOrtegonGOMEZ","gender":"1","age":"12","school":"6}"},{"start_time":1551801484738,"click_time":1551801486118,"finger_time":1551801485179,"fix_duration":1139.3114941291326,"trial":67,"RT":441,"MT":939,"sideResp":2,"stimulus":"img/900/randomdotsizeEA/R/3_Ratio_900_L_9_R_10.png","xmouse":[763,763,763,763,763,763,763,763,763,763,763,763,763,763,763,763,763,763,763,763,763,764,755,755,755,755,755,755,755,755,755,755,755,755,755,755,755,755,755,755,755,755,755,755,755,755,762,772,779,784,791,816,822,824,826,829,834,852,871,878,895,906,912,920,932,953,1013,1042,1058,1068],"ymouse":[556,556,556,556,556,556,556,556,556,556,556,556,556,556,556,556,556,556,556,556,556,558,572,572,572,573,573,573,573,573,573,573,573,573,573,573,573,573,573,573,573,573,573,564,546,529,504,454,422,404,387,351,341,334,326,316,302,275,259,254,244,237,232,223,212,192,138,107,85,61],"timestamp_mouse":[9,21,40,59,81,100,119,141,161,181,200,219,240,259,281,300,321,341,361,379,399,420,441,460,480,500,520,540,560,580,600,621,640,660,679,701,721,740,760,779,801,820,840,860,880,900,921,940,960,980,1000,1021,1040,1059,1080,1099,1120,1140,1161,1180,1200,1221,1240,1259,1280,1300,1321,1339,1360,1380],"xSR":741.5,"ySR":469.95,"xT1":424.9,"y