[{"start_time":1551899936430,"click_time":1551899940389,"finger_time":1551899936439,"fix_duration":977.3935852937187,"trial":0,"RT":9,"MT":3950,"sideResp":2,"stimulus":[],"xmouse":[805,805,805,805,805,805,805,805,805,805,805,805,805,805,805,805,805,805,805,805,805,805,805,805,805,805,805,805,805,805,805,805,805,805,805,805,805,805,805,805,805,807,811,812,809,806,805,803,803,803,803,803,803,803,803,803,803,803,803,803,803,803,803,803,803,803,803,803,803,803,803,803,803,803,803,803,803,803,803,803,803,803,803,803,803,803,803,803,803,803,803,803,803,803,803,803,803,803,803,803,803,803,803,803,803,803,803,803,803,803,803,803,803,803,803,803,803,803,803,803,803,803,803,803,803,803,803,803,803,803,803,803,803,803,803,803,803,803,803,803,803,803,803,803,803,803,803,803,803,803,803,803,803,803,803,803,803,803,803,803,803,803,803,803,803,803,803,803,803,803,803,803,803,803,808,815,822,829,835,845,854,864,873,886,910,924,937,945,955,981,993,1000,1008,1015,1023,1032,1041,1050,1062],"ymouse":[498,498,498,498,498,498,498,498,498,498,498,498,498,498,498,498,498,498,498,498,498,498,498,498,498,498,498,498,498,498,498,498,498,498,498,498,498,498,498,498,498,513,542,567,608,624,635,642,644,645,645,645,645,645,645,645,645,645,645,645,645,645,645,645,645,645,645,645,645,645,645,645,645,645,645,645,645,645,645,645,645,645,645,645,645,645,645,645,645,645,645,645,645,645,645,645,645,645,645,645,645,645,645,645,645,645,645,645,645,645,645,645,645,645,645,645,645,645,645,645,645,645,645,645,645,645,645,645,645,645,645,645,645,645,645,645,645,645,645,645,645,645,645,645,645,645,645,645,645,645,645,645,645,645,645,645,645,645,645,645,645,645,645,645,645,645,645,645,645,645,645,645,645,645,643,638,633,625,615,592,571,552,535,513,471,447,423,401,350,227,184,152,125,102,65,47,32,22,15],"timestamp_mouse":[9,21,41,60,80,99,119,141,160,181,201,220,239,259,280,299,319,340,360,380,399,420,440,459,479,499,519,539,559,579,599,620,639,659,680,701,719,739,759,779,801,820,839,859,879,900,919,939,959,979,1000,1019,1039,1059,1079,1099,1119,1140,1159,1181,1199,1220,1239,1259,1279,1299,1319,1340,1359,1380,1399,1420,1440,1460,1479,1499,1520,1539,1560,1579,1600,1620,1639,1660,1679,1700,1719,1739,1760,1779,1800,1819,1840,1859,1879,1900,1920,1940,1959,1980,2000,2019,2041,2060,2080,2099,2119,2140,2161,2179,2200,2220,2240,2261,2280,2299,2319,2340,2361,2380,2400,2419,2440,2459,2479,2499,2519,2540,2560,2580,2600,2621,2640,2659,2680,2700,2719,2739,2761,2780,2800,2819,2840,2860,2881,2899,2919,2941,2960,2980,3000,3020,3039,3059,3080,3100,3120,3141,3159,3180,3201,3220,3239,3259,3280,3301,3319,3340,3359,3379,3399,3419,3439,3459,3480,3499,3520,3540,3560,3579,3599,3620,3641,3660,3679,3701,3719,3741,3760,3779,3799,3819,3839,3860,3880,3900,3921,3939,3959],"xSR":741.5,"ySR":449.15000000000003,"xT1":424.9,"yT1":0,"xT2":1058.1,"yT2":0,"toosoon":0,"cond_shown":"Incongruent","ratio_trial":200,"L_num":7,"L_den":10,"R_num":14,"R_den":28,"correct_side":1,"subjID":"MARIFERNANDAGONZALEZDURAN16","gender":"1","age":"10","school":"6","test":{"fix_dur":[250,1500],"timestim":1000,"targets_dim":[100,100],"targets_relative_coord":[0.3,0.7],"size_stim":[880,420],"start_dim":[100,100],"size_start":[300,300],"size_fix":60,"samplingrate":20,"img_types":["Congruent","Incongruent"],"ratios":[100,200,300],"rep_conds":19,"nTrials":120,"trials_to_rest":500,"Trials_order":[57,88,104,119,95,90,38,110,13,48,64,45,5,103,34,96,35,4,89,11,75,111,14,100,94,79,19,59,92,73,70,58,101,1,71,60,10,3,15,65,20,37,113,105,28,106,21,107,9,83,63,61,53,52,102,69,91,29,67,85,46,6,84,97,49,17,43,77,40,51,72,23,116,76,66,87,18,26,24,25,39,108,8,36,32,82,74,31,68,78,33,118,114,115,12,81,16,80,109,117,22,54,42,30,93,98,99,44,41,27,112,0,55,56,2,50,47,62,86,7],"cond_shown":["Incongruent","Congruent","Congruent","Incongruent","Incongruent","Congruent","Congruent","Congruent","Incongruent","Congruent","Congruent","Incongruent","Incongruent","Incongruent","Congruent","Congruent","Incongruent","Congruent","Incongruent","Incongruent","Incongruent","Incongruent","Congruent","Congruent","Congruent","Incongruent","Incongruent","Incongruent","Congruent","Incongruent","Congruent","Congruent","Incongruent","Incongruent","Incongruent","Congruent","Congruent","Incongruent","Incongruent","Incongruent","Congruent","Incongruent","Incongruent","Incongruent","Congruent","Congruent","Incongruent","Incongruent","Incongruent","Incongruent","Incongruent","Incongruent","Incongruent","Congruent","Congruent","Incongruent","Incongruent","Incongruent","Incongruent","Incongruent","Congruent","Congruent","Congruent","Incongruent","Incongruent","Incongruent","Incongruent","Incongruent","Congruent","Incongruent","Congruent","Incongruent","Congruent","Congruent","Congruent","Incongruent","Congruent","Congruent","Congruent","Incongruent","Incongruent","Congruent","Congruent","Congruent","Congruent","Congruent","Congruent","Incongruent","Congruent","Congruent","Incongruent","Congruent","Congruent","Incongruent","Congruent","Incongruent","Congruent","Congruent","Incongruent","Incongruent","Congruent","Congruent","Congruent","Congruent","Incongruent","Congruent","Incongruent","Congruent","Incongruent","Incongruent","Congruent","Congruent","Incongruent","Congruent","Congruent","Congruent","Incongruent","Congruent","Congruent","Incongruent"],"ratio_trial":[200,300,200,300,300,100,200,200,100,100,300,200,300,100,300,100,300,300,300,300,200,200,200,300,300,100,100,300,200,100,300,300,300,100,300,100,300,200,200,300,200,100,300,200,300,300,200,300,200,300,200,100,300,300,100,200,100,300,100,100,300,100,100,100,100,300,100,300,300,200,100,300,200,300,100,200,100,200,100,100,200,100,200,100,200,300,200,100,200,100,200,300,100,100,100,200,300,200,100,200,300,100,100,100,200,200,200,200,300,200,300,100,100,200,200,200,300,200,200,100],"left_num":[7,11,12,4,4,1,5,1,9,1,24,14,13,10,8,1,7,8,3,13,1,4,6,8,18,9,4,1,3,11,2,1,4,3,4,7,1,7,4,4,7,10,3,11,5,7,4,4,4,13,1,9,4,5,6,7,12,4,9,3,20,4,1,10,9,8,6,13,3,3,8,13,12,11,9,4,3,8,3,6,11,11,12,11,13,3,8,9,3,6,7,20,15,3,1,9,1,21,17,6,11,2,15,6,1,21,7,3,7,9,11,6,9,8,14,15,8,7,6,10],"right_num":[14,2,6,2,2,3,14,21,20,18,2,6,12,9,10,3,8,10,4,12,2,14,3,10,9,6,8,3,7,9,12,7,2,8,8,15,19,14,14,6,18,8,4,3,7,20,6,2,14,12,3,6,2,6,5,8,9,2,6,8,14,6,18,8,6,9,13,12,11,11,2,12,6,1,8,1,4,7,2,7,3,4,6,4,14,11,7,14,14,5,14,8,13,7,3,8,11,2,10,3,1,11,13,5,3,2,4,11,8,8,1,5,6,3,6,4,9,2,3,8],"left_den":[10,22,20,20,20,2,10,2,10,2,30,30,26,25,15,2,10,15,6,26,3,6,15,15,20,18,8,2,10,22,10,20,20,5,5,14,3,10,6,5,15,25,6,20,25,14,5,20,6,26,2,18,20,25,20,10,24,20,18,5,25,8,2,25,18,10,10,26,12,4,16,26,20,22,15,30,20,15,6,10,20,22,20,22,26,12,15,15,10,20,10,25,25,9,2,15,5,30,30,20,22,5,25,20,2,30,15,10,10,15,22,20,18,15,28,25,10,21,15,25],"right_den":[28,10,15,4,4,5,20,30,25,30,4,9,15,18,12,5,20,12,20,15,15,30,15,12,15,10,20,15,14,15,24,20,4,16,16,25,30,28,30,12,27,16,20,4,14,25,10,4,30,15,10,10,4,12,25,16,15,4,10,16,28,10,30,16,10,18,26,15,20,20,5,15,15,5,16,3,16,21,5,14,4,10,15,10,20,20,21,28,28,25,28,16,26,30,5,10,22,4,15,6,5,22,26,25,10,4,6,22,20,10,5,25,10,9,20,10,18,15,15,16],"correct_side":[1,1,1,2,2,2,2,2,1,2,1,2,2,2,2,2,1,2,1,2,1,1,1,2,1,2,1,1,2,2,2,2,2,1,1,2,2,1,1,1,2,2,1,2,2,2,1,2,1,2,1,2,2,2,1,1,2,2,2,1,1,2,2,2,2,1,1,2,2,1,1,2,1,1,1,2,2,1,1,1,2,1,1,1,2,2,1,1,2,1,1,1,1,1,2,2,2,1,2,2,1,2,1,1,1,1,2,2,1,2,1,1,2,1,1,1,1,1,1,2],"img_shown":["img2/200/Incongruent/L/I_Dist_200_LN_7_LD_10_RN_14_RD_28_0.png","img2/300/Congruent/L/C_Dist_300_LN_11_LD_22_RN_2_RD_10_0.png","img2/200/Congruent/L/C_Dist_200_LN_12_LD_20_RN_6_RD_15_0.png","img2/300/Incongruent/R/I_Dist_300_LN_4_LD_20_RN_2_RD_4_1.png","img2/300/Incongruent/R/I_Dist_300_LN_4_LD_20_RN_2_RD_4_1.png","img2/100/Congruent/R/C_Dist_100_LN_1_LD_2_RN_3_RD_5_1.png","img2/200/Congruent/R/C_Dist_200_LN_5_LD_10_RN_14_RD_20_1.png","img2/200/Congruent/R/C_Dist_200_LN_1_LD_2_RN_21_RD_30_1.png","img2/100/Incongruent/L/I_Dist_100_LN_9_LD_10_RN_20_RD_25_0.png","img2/100/Congruent/R/C_Dist_100_LN_1_LD_2_RN_18_RD_30_1.png","img2/300/Congruent/L/C_Dist_300_LN_24_LD_30_RN_2_RD_4_0.png","img2/200/Incongruent/R/I_Dist_200_LN_14_LD_30_RN_6_RD_9_1.png","img2/300/Incongruent/R/I_Dist_300_LN_13_LD_26_RN_12_RD_15_1.png","img2/100/Incongruent/R/I_Dist_100_LN_10_LD_25_RN_9_RD_18_1.png","img2/300/Congruent/R/C_Dist_300_LN_8_LD_15_RN_10_RD_12_1.png","img2/100/Congruent/R/C_Dist_100_LN_1_LD_2_RN_3_RD_5_1.png","img2/300/Incongruent/L/I_Dist_300_LN_7_LD_10_RN_8_RD_20_0.png","img2/300/Congruent/R/C_Dist_300_LN_8_LD_15_RN_10_RD_12_1.png","img2/300/Incongruent/L/I_Dist_300_LN_3_LD_6_RN_4_RD_20_0.png","img2/300/Incongruent/R/I_Dist_300_LN_13_LD_26_RN_12_RD_15_1.png","img2/200/Incongruent/L/I_Dist_200_LN_1_LD_3_RN_2_RD_15_0.png","img2/200/Incongruent/L/I_Dist_200_LN_4_LD_6_RN_14_RD_30_0.png","img2/200/Congruent/L/C_Dist_200_LN_6_LD_15_RN_3_RD_15_0.png","img2/300/Congruent/R/C_Dist_300_LN_8_LD_15_RN_10_RD_12_1.png","img2/300/Congruent/L/C_Dist_300_LN_18_LD_20_RN_9_RD_15_0.png","img2/100/Incongruent/R/I_Dist_100_LN_9_LD_18_RN_6_RD_10_1.png","img2/100/Incongruent/L/I_Dist_100_LN_4_LD_8_RN_8_RD_20_0.png","img2/300/Incongruent/L/I_Dist_300_LN_1_LD_2_RN_3_RD_15_0.png","img2/200/Congruent/R/C_Dist_200_LN_3_LD_10_RN_7_RD_14_1.png","img2/100/Incongruent/R/I_Dist_100_LN_11_LD_22_RN_9_RD_15_1.png","img2/300/Congruent/R/C_Dist_300_LN_2_LD_10_RN_12_RD_24_1.png","img2/300/Congruent/R/C_Dist_300_LN_1_LD_20_RN_7_RD_20_1.png","img2/300/Incongruent/R/I_Dist_300_LN_4_LD_20_RN_2_RD_4_1.png","img2/100/Incongruent/L/I_Dist_100_LN_3_LD_5_RN_8_RD_16_0.png","img2/300/Incongruent/L/I_Dist_300_LN_4_LD_5_RN_8_RD_16_0.png","img2/100/Congruent/R/C_Dist_100_LN_7_LD_14_RN_15_RD_25_1.png","img2/300/Congruent/R/C_Dist_300_LN_1_LD_3_RN_19_RD_30_1.png","img2/200/Incongruent/L/I_Dist_200_LN_7_LD_10_RN_14_RD_28_0.png","img2/200/Incongruent/L/I_Dist_200_LN_4_LD_6_RN_14_RD_30_0.png","img2/300/Incongruent/L/I_Dist_300_LN_4_LD_5_RN_6_RD_12_0.png","img2/200/Congruent/R/C_Dist_200_LN_7_LD_15_RN_18_RD_27_1.png","img2/100/Incongruent/R/I_Dist_100_LN_10_LD_25_RN_8_RD_16_1.png","img2/300/Incongruent/L/I_Dist_300_LN_3_LD_6_RN_4_RD_20_0.png","img2/200/Incongruent/R/I_Dist_200_LN_11_LD_20_RN_3_RD_4_1.png","img2/300/Congruent/R/C_Dist_300_LN_5_LD_25_RN_7_RD_14_1.png","img2/300/Congruent/R/C_Dist_300_LN_7_LD_14_RN_20_RD_25_1.png","img2/200/Incongruent/L/I_Dist_200_LN_4_LD_5_RN_6_RD_10_0.png","img2/300/Incongruent/R/I_Dist_300_LN_4_LD_20_RN_2_RD_4_1.png","img2/200/Incongruent/L/I_Dist_200_LN_4_LD_6_RN_14_RD_30_0.png","img2/300/Incongruent/R/I_Dist_300_LN_13_LD_26_RN_12_RD_15_1.png","img2/200/Incongruent/L/I_Dist_200_LN_1_LD_2_RN_3_RD_10_0.png","img2/100/Incongruent/R/I_Dist_100_LN_9_LD_18_RN_6_RD_10_1.png","img2/300/Incongruent/R/I_Dist_300_LN_4_LD_20_RN_2_RD_4_1.png","img2/300/Congruent/R/C_Dist_300_LN_5_LD_25_RN_6_RD_12_1.png","img2/100/Congruent/L/C_Dist_100_LN_6_LD_20_RN_5_RD_25_0.png","img2/200/Incongruent/L/I_Dist_200_LN_7_LD_10_RN_8_RD_16_0.png","img2/100/Incongruent/R/I_Dist_100_LN_12_LD_24_RN_9_RD_15_1.png","img2/300/Incongruent/R/I_Dist_300_LN_4_LD_20_RN_2_RD_4_1.png","img2/100/Incongruent/R/I_Dist_100_LN_9_LD_18_RN_6_RD_10_1.png","img2/100/Incongruent/L/I_Dist_100_LN_3_LD_5_RN_8_RD_16_0.png","img2/300/Congruent/L/C_Dist_300_LN_20_LD_25_RN_14_RD_28_0.png","img2/100/Congruent/R/C_Dist_100_LN_4_LD_8_RN_6_RD_10_1.png","img2/100/Congruent/R/C_Dist_100_LN_1_LD_2_RN_18_RD_30_1.png","img2/100/Incongruent/R/I_Dist_100_LN_10_LD_25_RN_8_RD_16_1.png","img2/100/Incongruent/R/I_Dist_100_LN_9_LD_18_RN_6_RD_10_1.png","img2/300/Incongruent/L/I_Dist_300_LN_8_LD_10_RN_9_RD_18_0.png","img2/100/Incongruent/L/I_Dist_100_LN_6_LD_10_RN_13_RD_26_0.png","img2/300/Incongruent/R/I_Dist_300_LN_13_LD_26_RN_12_RD_15_1.png","img2/300/Congruent/R/C_Dist_300_LN_3_LD_12_RN_11_RD_20_1.png","img2/200/Incongruent/L/I_Dist_200_LN_3_LD_4_RN_11_RD_20_0.png","img2/100/Congruent/L/C_Dist_100_LN_8_LD_16_RN_2_RD_5_0.png","img2/300/Incongruent/R/I_Dist_300_LN_13_LD_26_RN_12_RD_15_1.png","img2/200/Congruent/L/C_Dist_200_LN_12_LD_20_RN_6_RD_15_0.png","img2/300/Congruent/L/C_Dist_300_LN_11_LD_22_RN_1_RD_5_0.png","img2/100/Congruent/L/C_Dist_100_LN_9_LD_15_RN_8_RD_16_0.png","img2/200/Incongruent/R/I_Dist_200_LN_4_LD_30_RN_1_RD_3_1.png","img2/100/Congruent/R/C_Dist_100_LN_3_LD_20_RN_4_RD_16_1.png","img2/200/Congruent/L/C_Dist_200_LN_8_LD_15_RN_7_RD_21_0.png","img2/100/Congruent/L/C_Dist_100_LN_3_LD_6_RN_2_RD_5_0.png","img2/100/Incongruent/L/I_Dist_100_LN_6_LD_10_RN_7_RD_14_0.png","img2/200/Incongruent/R/I_Dist_200_LN_11_LD_20_RN_3_RD_4_1.png","img2/100/Congruent/L/C_Dist_100_LN_11_LD_22_RN_4_RD_10_0.png","img2/200/Congruent/L/C_Dist_200_LN_12_LD_20_RN_6_RD_15_0.png","img2/100/Congruent/L/C_Dist_100_LN_11_LD_22_RN_4_RD_10_0.png","img2/200/Congruent/R/C_Dist_200_LN_13_LD_26_RN_14_RD_20_1.png","img2/300/Congruent/R/C_Dist_300_LN_3_LD_12_RN_11_RD_20_1.png","img2/200/Congruent/L/C_Dist_200_LN_8_LD_15_RN_7_RD_21_0.png","img2/100/Incongruent/L/I_Dist_100_LN_9_LD_15_RN_14_RD_28_0.png","img2/200/Congruent/R/C_Dist_200_LN_3_LD_10_RN_14_RD_28_1.png","img2/100/Congruent/L/C_Dist_100_LN_6_LD_20_RN_5_RD_25_0.png","img2/200/Incongruent/L/I_Dist_200_LN_7_LD_10_RN_14_RD_28_0.png","img2/300/Congruent/L/C_Dist_300_LN_20_LD_25_RN_8_RD_16_0.png","img2/100/Congruent/L/C_Dist_100_LN_15_LD_25_RN_13_RD_26_0.png","img2/100/Incongruent/L/I_Dist_100_LN_3_LD_9_RN_7_RD_30_0.png","img2/100/Congruent/R/C_Dist_100_LN_1_LD_2_RN_3_RD_5_1.png","img2/200/Incongruent/R/I_Dist_200_LN_9_LD_15_RN_8_RD_10_1.png","img2/300/Congruent/R/C_Dist_300_LN_1_LD_5_RN_11_RD_22_1.png","img2/200/Congruent/L/C_Dist_200_LN_21_LD_30_RN_2_RD_4_0.png","img2/100/Incongruent/R/I_Dist_100_LN_17_LD_30_RN_10_RD_15_1.png","img2/200/Incongruent/R/I_Dist_200_LN_6_LD_20_RN_3_RD_6_1.png","img2/300/Congruent/L/C_Dist_300_LN_11_LD_22_RN_1_RD_5_0.png","img2/100/Congruent/R/C_Dist_100_LN_2_LD_5_RN_11_RD_22_1.png","img2/100/Congruent/L/C_Dist_100_LN_15_LD_25_RN_13_RD_26_0.png","img2/100/Congruent/L/C_Dist_100_LN_6_LD_20_RN_5_RD_25_0.png","img2/200/Incongruent/L/I_Dist_200_LN_1_LD_2_RN_3_RD_10_0.png","img2/200/Congruent/L/C_Dist_200_LN_21_LD_30_RN_2_RD_4_0.png","img2/200/Incongruent/R/I_Dist_200_LN_7_LD_15_RN_4_RD_6_1.png","img2/200/Congruent/R/C_Dist_200_LN_3_LD_10_RN_11_RD_22_1.png","img2/300/Incongruent/L/I_Dist_300_LN_7_LD_10_RN_8_RD_20_0.png","img2/200/Incongruent/R/I_Dist_200_LN_9_LD_15_RN_8_RD_10_1.png","img2/300/Congruent/L/C_Dist_300_LN_11_LD_22_RN_1_RD_5_0.png","img2/100/Congruent/L/C_Dist_100_LN_6_LD_20_RN_5_RD_25_0.png","img2/100/Incongruent/R/I_Dist_100_LN_9_LD_18_RN_6_RD_10_1.png","img2/200/Congruent/L/C_Dist_200_LN_8_LD_15_RN_3_RD_9_0.png","img2/200/Congruent/L/C_Dist_200_LN_14_LD_28_RN_6_RD_20_0.png","img2/200/Congruent/L/C_Dist_200_LN_15_LD_25_RN_4_RD_10_0.png","img2/300/Incongruent/L/I_Dist_300_LN_8_LD_10_RN_9_RD_18_0.png","img2/200/Congruent/L/C_Dist_200_LN_7_LD_21_RN_2_RD_15_0.png","img2/200/Congruent/L/C_Dist_200_LN_6_LD_15_RN_3_RD_15_0.png","img2/100/Incongruent/R/I_Dist_100_LN_10_LD_25_RN_8_RD_16_1.png"],"dist100_C":[["C_Dist_100_LN_10_LD_25_RN_3_RD_10_0.png","C_Dist_100_LN_11_LD_22_RN_4_RD_10_0.png","C_Dist_100_LN_11_LD_22_RN_6_RD_15_0.png","C_Dist_100_LN_15_LD_25_RN_13_RD_26_0.png","C_Dist_100_LN_3_LD_6_RN_2_RD_5_0.png","C_Dist_100_LN_6_LD_20_RN_5_RD_25_0.png","C_Dist_100_LN_8_LD_16_RN_2_RD_5_0.png","C_Dist_100_LN_9_LD_15_RN_8_RD_16_0.png"],["C_Dist_100_LN_1_LD_2_RN_18_RD_30_1.png","C_Dist_100_LN_1_LD_2_RN_3_RD_5_1.png","C_Dist_100_LN_12_LD_30_RN_13_RD_26_1.png","C_Dist_100_LN_2_LD_5_RN_11_RD_22_1.png","C_Dist_100_LN_2_LD_5_RN_6_RD_12_1.png","C_Dist_100_LN_3_LD_20_RN_4_RD_16_1.png","C_Dist_100_LN_4_LD_10_RN_15_RD_30_1.png","C_Dist_100_LN_4_LD_8_RN_6_RD_10_1.png","C_Dist_100_LN_6_LD_12_RN_15_RD_25_1.png","C_Dist_100_LN_7_LD_14_RN_15_RD_25_1.png","C_Dist_100_LN_7_LD_14_RN_9_RD_15_1.png"]],"dist100_I":[["I_Dist_100_LN_1_LD_2_RN_8_RD_20_0.png","I_Dist_100_LN_2_LD_4_RN_6_RD_15_0.png","I_Dist_100_LN_2_LD_4_RN_8_RD_20_0.png","I_Dist_100_LN_3_LD_5_RN_11_RD_22_0.png","I_Dist_100_LN_3_LD_5_RN_8_RD_16_0.png","I_Dist_100_LN_3_LD_6_RN_4_RD_10_0.png","I_Dist_100_LN_3_LD_9_RN_7_RD_30_0.png","I_Dist_100_LN_4_LD_8_RN_8_RD_20_0.png","I_Dist_100_LN_6_LD_10_RN_11_RD_22_0.png","I_Dist_100_LN_6_LD_10_RN_13_RD_26_0.png","I_Dist_100_LN_6_LD_10_RN_7_RD_14_0.png","I_Dist_100_LN_9_LD_10_RN_20_RD_25_0.png","I_Dist_100_LN_9_LD_15_RN_13_RD_26_0.png","I_Dist_100_LN_9_LD_15_RN_14_RD_28_0.png"],["I_Dist_100_LN_10_LD_25_RN_8_RD_16_1.png","I_Dist_100_LN_10_LD_25_RN_9_RD_18_1.png","I_Dist_100_LN_11_LD_22_RN_9_RD_15_1.png","I_Dist_100_LN_12_LD_24_RN_9_RD_15_1.png","I_Dist_100_LN_12_LD_30_RN_2_RD_4_1.png","I_Dist_100_LN_13_LD_26_RN_12_RD_20_1.png","I_Dist_100_LN_13_LD_26_RN_6_RD_10_1.png","I_Dist_100_LN_17_LD_30_RN_10_RD_15_1.png","I_Dist_100_LN_6_LD_12_RN_3_RD_5_1.png","I_Dist_100_LN_8_LD_16_RN_6_RD_10_1.png","I_Dist_100_LN_8_LD_20_RN_1_RD_2_1.png","I_Dist_100_LN_9_LD_18_RN_6_RD_10_1.png"]],"dist100_S":[["E_Dist_100_LN_2_LD_12_RN_2_RD_30_0.png","E_Dist_100_LN_6_LD_10_RN_6_RD_12_0.png"],["E_Dist_100_LN_6_LD_12_RN_6_RD_10_1.png"]],"dist200_C":[["C_Dist_200_LN_11_LD_22_RN_3_RD_10_0.png","C_Dist_200_LN_12_LD_15_RN_6_RD_10_0.png","C_Dist_200_LN_12_LD_20_RN_6_RD_15_0.png","C_Dist_200_LN_14_LD_28_RN_6_RD_20_0.png","C_Dist_200_LN_15_LD_25_RN_4_RD_10_0.png","C_Dist_200_LN_16_LD_20_RN_12_RD_20_0.png","C_Dist_200_LN_16_LD_30_RN_9_RD_27_0.png","C_Dist_200_LN_20_LD_25_RN_9_RD_15_0.png","C_Dist_200_LN_21_LD_30_RN_2_RD_4_0.png","C_Dist_200_LN_4_LD_10_RN_3_RD_15_0.png","C_Dist_200_LN_4_LD_8_RN_3_RD_10_0.png","C_Dist_200_LN_6_LD_15_RN_3_RD_15_0.png","C_Dist_200_LN_7_LD_21_RN_2_RD_15_0.png","C_Dist_200_LN_8_LD_15_RN_2_RD_6_0.png","C_Dist_200_LN_8_LD_15_RN_3_RD_9_0.png","C_Dist_200_LN_8_LD_15_RN_7_RD_21_0.png","C_Dist_200_LN_9_LD_20_RN_4_RD_16_0.png"],["C_Dist_200_LN_1_LD_2_RN_21_RD_30_1.png","C_Dist_200_LN_13_LD_26_RN_14_RD_20_1.png","C_Dist_200_LN_3_LD_10_RN_11_RD_22_1.png","C_Dist_200_LN_3_LD_10_RN_14_RD_28_1.png","C_Dist_200_LN_3_LD_10_RN_7_RD_14_1.png","C_Dist_200_LN_3_LD_12_RN_9_RD_20_1.png","C_Dist_200_LN_3_LD_6_RN_14_RD_20_1.png","C_Dist_200_LN_5_LD_10_RN_14_RD_20_1.png","C_Dist_200_LN_6_LD_12_RN_7_RD_10_1.png","C_Dist_200_LN_6_LD_20_RN_11_RD_22_1.png","C_Dist_200_LN_7_LD_15_RN_18_RD_27_1.png","C_Dist_200_LN_9_LD_30_RN_13_RD_26_1.png"]],"dist200_I":[["I_Dist_200_LN_1_LD_2_RN_3_RD_10_0.png","I_Dist_200_LN_1_LD_3_RN_2_RD_15_0.png","I_Dist_200_LN_3_LD_4_RN_11_RD_20_0.png","I_Dist_200_LN_4_LD_5_RN_6_RD_10_0.png","I_Dist_200_LN_4_LD_6_RN_14_RD_30_0.png","I_Dist_200_LN_7_LD_10_RN_12_RD_24_0.png","I_Dist_200_LN_7_LD_10_RN_14_RD_28_0.png","I_Dist_200_LN_7_LD_10_RN_8_RD_16_0.png"],["I_Dist_200_LN_11_LD_20_RN_3_RD_4_1.png","I_Dist_200_LN_14_LD_30_RN_12_RD_18_1.png","I_Dist_200_LN_14_LD_30_RN_6_RD_9_1.png","I_Dist_200_LN_3_LD_10_RN_1_RD_2_1.png","I_Dist_200_LN_4_LD_30_RN_1_RD_3_1.png","I_Dist_200_LN_6_LD_20_RN_3_RD_6_1.png","I_Dist_200_LN_7_LD_15_RN_4_RD_6_1.png","I_Dist_200_LN_7_LD_15_RN_6_RD_9_1.png","I_Dist_200_LN_9_LD_15_RN_8_RD_10_1.png"]],"dist200_S":[["E_Dist_200_LN_3_LD_6_RN_3_RD_10_0.png"],["E_Dist_200_LN_3_LD_10_RN_3_RD_6_1.png"]],"dist300_C":[["C_Dist_300_LN_11_LD_22_RN_1_RD_5_0.png","C_Dist_300_LN_11_LD_22_RN_2_RD_10_0.png","C_Dist_300_LN_11_LD_22_RN_4_RD_20_0.png","C_Dist_300_LN_12_LD_24_RN_2_RD_10_0.png","C_Dist_300_LN_18_LD_20_RN_9_RD_15_0.png","C_Dist_300_LN_20_LD_25_RN_13_RD_26_0.png","C_Dist_300_LN_20_LD_25_RN_14_RD_28_0.png","C_Dist_300_LN_20_LD_25_RN_5_RD_10_0.png","C_Dist_300_LN_20_LD_25_RN_8_RD_16_0.png","C_Dist_300_LN_20_LD_25_RN_9_RD_18_0.png","C_Dist_300_LN_24_LD_30_RN_2_RD_4_0.png","C_Dist_300_LN_24_LD_30_RN_8_RD_16_0.png","C_Dist_300_LN_3_LD_6_RN_2_RD_10_0.png","C_Dist_300_LN_4_LD_10_RN_1_RD_10_0.png","C_Dist_300_LN_4_LD_5_RN_2_RD_4_0.png","C_Dist_300_LN_8_LD_16_RN_1_RD_5_0.png","C_Dist_300_LN_9_LD_10_RN_3_RD_5_0.png"],["C_Dist_300_LN_1_LD_20_RN_7_RD_20_1.png","C_Dist_300_LN_1_LD_3_RN_19_RD_30_1.png","C_Dist_300_LN_1_LD_30_RN_8_RD_24_1.png","C_Dist_300_LN_1_LD_5_RN_11_RD_22_1.png","C_Dist_300_LN_1_LD_5_RN_3_RD_6_1.png","C_Dist_300_LN_1_LD_5_RN_6_RD_12_1.png","C_Dist_300_LN_2_LD_10_RN_12_RD_24_1.png","C_Dist_300_LN_2_LD_20_RN_10_RD_25_1.png","C_Dist_300_LN_3_LD_12_RN_11_RD_20_1.png","C_Dist_300_LN_3_LD_6_RN_4_RD_5_1.png","C_Dist_300_LN_4_LD_20_RN_13_RD_26_1.png","C_Dist_300_LN_5_LD_25_RN_6_RD_12_1.png","C_Dist_300_LN_5_LD_25_RN_7_RD_14_1.png","C_Dist_300_LN_7_LD_14_RN_20_RD_25_1.png","C_Dist_300_LN_8_LD_15_RN_10_RD_12_1.png"]],"dist300_I":[["I_Dist_300_LN_1_LD_2_RN_2_RD_10_0.png","I_Dist_300_LN_1_LD_2_RN_3_RD_15_0.png","I_Dist_300_LN_2_LD_4_RN_6_RD_30_0.png","I_Dist_300_LN_3_LD_6_RN_4_RD_20_0.png","I_Dist_300_LN_4_LD_5_RN_6_RD_12_0.png","I_Dist_300_LN_4_LD_5_RN_8_RD_16_0.png","I_Dist_300_LN_7_LD_10_RN_8_RD_20_0.png","I_Dist_300_LN_8_LD_10_RN_14_RD_28_0.png","I_Dist_300_LN_8_LD_10_RN_9_RD_18_0.png"],["I_Dist_300_LN_13_LD_26_RN_12_RD_15_1.png","I_Dist_300_LN_4_LD_20_RN_2_RD_4_1.png"]],"dist300_S":[["E_Dist_300_LN_9_LD_12_RN_9_RD_20_0.png"],["E_Dist_300_LN_18_LD_30_RN_18_RD_20_1.png","E_Dist_300_LN_3_LD_10_RN_3_RD_5_1.png","E_Dist_300_LN_9_LD_20_RN_9_RD_12_1.png"]],"dist500_C":[["C_Dist_500_LN_10_LD_13_RN_7_RD_26_0.png","C_Dist_500_LN_10_LD_15_RN_4_RD_24_0.png","C_Dist_500_LN_12_LD_16_RN_3_RD_12_0.png","C_Dist_500_LN_12_LD_18_RN_4_RD_24_0.png","C_Dist_500_LN_15_LD_18_RN_5_RD_15_0.png","C_Dist_500_LN_15_LD_20_RN_1_RD_4_0.png","C_Dist_500_LN_18_LD_27_RN_1_RD_6_0.png","C_Dist_500_LN_20_LD_24_RN_1_RD_3_0.png","C_Dist_500_LN_20_LD_24_RN_3_RD_9_0.png","C_Dist_500_LN_20_LD_24_RN_7_RD_21_0.png","C_Dist_500_LN_20_LD_28_RN_3_RD_14_0.png","C_Dist_500_LN_21_LD_28_RN_6_RD_24_0.png","C_Dist_500_LN_22_LD_28_RN_2_RD_7_0.png","C_Dist_500_LN_25_LD_30_RN_9_RD_27_0.png","C_Dist_500_LN_4_LD_6_RN_1_RD_6_0.png","C_Dist_500_LN_5_LD_6_RN_2_RD_6_0.png","C_Dist_500_LN_6_LD_9_RN_1_RD_6_0.png","C_Dist_500_LN_7_LD_10_RN_1_RD_5_0.png","C_Dist_500_LN_8_LD_12_RN_1_RD_6_0.png","C_Dist_500_LN_8_LD_12_RN_4_RD_24_0.png"],["C_Dist_500_LN_1_LD_4_RN_12_RD_16_1.png","C_Dist_500_LN_1_LD_4_RN_9_RD_12_1.png","C_Dist_500_LN_1_LD_9_RN_11_RD_18_1.png","C_Dist_500_LN_10_LD_24_RN_22_RD_24_1.png","C_Dist_500_LN_2_LD_12_RN_10_RD_15_1.png","C_Dist_500_LN_2_LD_12_RN_12_RD_18_1.png","C_Dist_500_LN_2_LD_12_RN_4_RD_6_1.png","C_Dist_500_LN_2_LD_24_RN_7_RD_12_1.png","C_Dist_500_LN_2_LD_5_RN_18_RD_20_1.png","C_Dist_500_LN_2_LD_5_RN_9_RD_10_1.png","C_Dist_500_LN_2_LD_8_RN_12_RD_16_1.png","C_Dist_500_LN_2_LD_8_RN_21_RD_28_1.png","C_Dist_500_LN_3_LD_10_RN_4_RD_5_1.png","C_Dist_500_LN_3_LD_12_RN_15_RD_20_1.png","C_Dist_500_LN_3_LD_30_RN_6_RD_10_1.png","C_Dist_500_LN_3_LD_8_RN_14_RD_16_1.png","C_Dist_500_LN_4_LD_16_RN_15_RD_20_1.png","C_Dist_500_LN_4_LD_24_RN_12_RD_18_1.png","C_Dist_500_LN_5_LD_14_RN_6_RD_7_1.png","C_Dist_500_LN_7_LD_21_RN_20_RD_24_1.png","C_Dist_500_LN_7_LD_28_RN_12_RD_16_1.png","C_Dist_500_LN_7_LD_28_RN_9_RD_12_1.png","C_Dist_500_LN_9_LD_27_RN_20_RD_24_1.png"]],"dist500_I":[["I_Dist_500_LN_2_LD_3_RN_4_RD_24_0.png","I_Dist_500_LN_5_LD_6_RN_6_RD_18_0.png","I_Dist_500_LN_7_LD_8_RN_9_RD_24_0.png"],["I_Dist_500_LN_7_LD_21_RN_5_RD_6_1.png"]],"dist500_S":[["E_Dist_500_LN_6_LD_8_RN_6_RD_24_0.png"],["E_Dist_500_LN_2_LD_12_RN_2_RD_3_1.png","E_Dist_500_LN_6_LD_24_RN_6_RD_8_1.png"]]}},{"start_time":1551899943700,"click_time":1551899949910,"finger_time":1551899945050,"fix_duration":927.9216856150058,"trial":1,"RT":1350,"MT":4860,"sideResp":2,"stimulus":[],"xmouse":[796,796,796,796,796,796,796,796,796,796,796,796,796,796,796,796,796,796,796,796,796,796,796,796,796,796,796,796,796,796,796,796,796,796,796,796,796,796,796,796,796,796,796,796,796,796,796,796,796,796,796,796,796,796,796,796,796,796,796,796,796,796,796,796,796,794,788,780,764,749,721,710,704,699,696,694,694,694,694,694,694,694,694,694,694,694,694,694,694,694,694,694,694,694,694,694,694,694,694,694,694,694,703,718,737,789,821,834,842,844,844,844,844,844,844,844,844,844,844,844,844,844,844,844,844,844,844,844,846,849,876,896,919,947,968,1010,1022,1033,1038,1041,1045,1048,1049,1052,1052,1052,1052,1052,1052,1052,1052,1052,1052,1052,1052,1050,1041,1033,1016,991,939,922,914,913,913,913,913,911,908,896,859,835,810,786,766,741,739,739,739,739,739,734,722,704,692,685,685,685,685,685,685,685,685,685,685,685,685,685,685,685,685,691,707,724,739,766,770,771,772,772,773,777,782,786,789,793,793,793,793,793,793,793,793,793,793,793,793,793,793,793,793,794,794,794,794,794,794,794,794,794,794,794,794,794,794,794,794,794,794,794,794,794,794,794,794,794,794,794,794,794,794,794,794,794,794,794,794,819,833,855,909,928,939,951,962,993,1006,1020,1033,1046,1065,1070,1072,1075,1078,1087,1088,1092,1095,1095,1095,1095,1095,1095,1095,1095,1095,1095,1095,1095,1095,1095,1095,1095,1095,1095,1095,1096,1096,1096,1096],"ymouse":[632,632,632,632,632,632,632,632,632,632,632,632,632,632,632,632,632,632,632,632,632,632,632,632,632,632,632,632,632,632,632,632,632,632,632,632,632,632,632,632,632,632,632,632,632,632,632,632,632,632,632,632,632,632,632,632,632,632,632,632,632,632,632,632,632,612,583,556,521,491,441,421,407,397,390,385,385,385,385,385,385,385,385,385,385,385,385,385,385,385,385,385,385,385,385,385,385,385,385,385,385,386,391,396,402,415,423,424,425,425,425,425,425,425,425,425,425,425,425,425,425,425,425,425,425,425,425,425,425,424,407,391,371,347,327,253,219,193,166,147,116,102,95,90,89,89,89,89,89,89,89,89,89,89,90,96,107,115,124,130,133,126,123,121,121,121,121,121,121,121,121,121,121,121,121,121,121,121,121,121,121,122,125,130,134,136,136,136,136,136,136,136,136,136,136,136,136,136,136,136,136,136,136,135,129,122,121,121,120,120,120,119,118,116,116,114,114,114,114,114,114,114,114,114,114,114,114,114,114,114,114,114,117,122,123,123,123,123,123,123,123,123,123,123,123,123,123,123,123,123,123,123,123,123,123,123,123,123,123,123,123,123,123,123,123,123,124,117,113,110,102,99,95,90,86,83,88,96,104,108,111,111,111,110,109,105,105,103,102,101,101,101,101,101,101,101,101,101,101,101,101,101,101,101,101,101,101,101,101,101,96],"timestamp_mouse":[11,42,50,70,89,111,130,151,169,189,210,229,249,269,289,309,329,350,370,391,409,429,449,469,489,509,530,549,569,589,610,629,650,671,689,709,729,749,769,790,811,830,849,871,890,910,929,949,970,989,1009,1030,1049,1069,1090,1111,1129,1150,1169,1190,1209,1230,1249,1270,1290,1309,1330,1350,1370,1389,1409,1430,1450,1469,1489,1509,1530,1549,1569,1590,1610,1630,1649,1669,1690,1710,1729,1749,1769,1790,1809,1830,1850,1870,1890,1910,1930,1949,1970,1990,2010,2031,2049,2070,2090,2109,2129,2149,2170,2190,2210,2231,2249,2269,2291,2309,2329,2350,2370,2389,2410,2430,2450,2470,2489,2509,2530,2550,2569,2591,2609,2629,2649,2669,2690,2709,2730,2750,2770,2791,2809,2829,2850,2870,2890,2910,2930,2949,2969,2989,3009,3029,3049,3070,3089,3109,3130,3149,3170,3189,3209,3229,3249,3270,3290,3309,3329,3350,3369,3389,3409,3429,3449,3469,3490,3510,3530,3549,3569,3590,3609,3629,3650,3669,3690,3709,3729,3749,3771,3789,3809,3829,3849,3869,3890,3909,3930,3949,3969,3990,4010,4030,4049,4069,4090,4109,4130,4150,4169,4190,4209,4230,4249,4269,4290,4309,4330,4350,4369,4390,4409,4430,4450,4470,4489,4509,4530,4550,4570,4591,4609,4629,4650,4670,4689,4709,4730,4751,4769,4789,4809,4829,4851,4869,4890,4909,4929,4950,4970,4989,5010,5029,5049,5070,5089,5110,5130,5150,5170,5189,5210,5231,5250,5270,5289,5309,5331,5349,5369,5390,5410,5430,5449,5469,5490,5509,5529,5550,5570,5590,5610,5630,5649,5670,5689,5709,5729,5749,5769,5790,5809,5830,5849,5869,5890,5909,5930,5949,5969,5990,6010,6029,6050,6069,6089,6109,6130,6150,6170,6190,6209],"xSR":741.5,"ySR":573.95,"xT1":424.9,"yT1":0,"xT2":1058.1,"yT2":0,"toosoon":0,"cond_shown":"Congruent","ratio_trial":300,"L_num":11,"L_den":22,"R_num":2,"R_den":10,"correct_side":1,"subjID":"MARIFERNANDAGONZALEZDURAN16","gender":"1","school":"6","age":"10"},{"start_time":1551899953485,"click_time":1551899955131,"finger_time":1551899954830,"fix_duration":1092.1317657500786,"trial":2,"RT":1345,"MT":301,"sideResp":1,"stimulus":[],"xmouse":[806,804,804,804,804,804,804,804,804,804,804,804,804,804,804,804,804,804,804,804,804,804,804,804,804,804,804,804,804,804,804,804,804,804,804,804,804,804,804,804,804,804,804,804,804,804,804,804,804,804,804,804,804,804,804,804,804,804,804,804,804,804,804,804,804,801,786,774,766,757,748,733,724,713,695,675,608,556,533,518,505,471,456],"ymouse":[616,616,616,616,616,616,616,616,616,616,616,616,616,616,616,616,616,616,616,616,616,616,616,616,616,616,616,616,616,616,616,616,616,616,616,616,616,616,616,616,616,616,616,616,616,616,616,616,616,616,616,616,616,616,616,616,616,616,616,616,616,616,616,616,611,606,584,568,554,538,519,482,462,438,407,375,292,234,203,183,159,104,80],"timestamp_mouse":[5,25,45,65,84,104,125,145,166,184,205,224,244,264,284,304,324,345,365,385,404,425,446,465,486,506,525,544,565,584,605,624,645,665,684,704,726,745,765,786,804,824,846,864,884,904,925,945,966,985,1004,1025,1045,1064,1085,1104,1126,1144,1164,1185,1205,1226,1244,1266,1286,1304,1325,1345,1364,1386,1404,1425,1445,1465,1484,1505,1524,1544,1565,1584,1604,1625,1645],"xSR":741.5,"ySR":573.95,"xT1":424.9,"yT1":0,"xT2":1058.1,"yT2":0,"toosoon":0,"cond_shown":"Congruent","ratio_trial":200,"L_num":12,"L_den":20,"R_num":6,"R_den":15,"correct_side":1,"subjID":"MARIFERNANDAGONZALEZDURAN16","gender":"1","school":"6","age":"10"},{"start_time":1551899959691,"click_time":1551899961329,"finger_time":1551899960949,"fix_duration":1380.7984848418855,"trial":3,"RT":1258,"MT":380,"sideResp":2,"stimulus":[],"xmouse":[764,764,764,764,764,764,764,764,764,764,764,764,764,764,764,764,764,764,764,764,764,764,764,764,764,764,764,764,764,764,764,764,764,764,764,764,764,764,764,764,764,764,764,764,764,764,764,764,764,764,764,773,778,779,782,782,782,782,782,782,784,789,793,801,810,839,866,904,928,946,968,972,975,978,979,982,986,994,1006,1021,1059,1078],"ymouse":[626,626,626,626,626,626,626,626,626,626,626,626,626,626,626,626,626,626,626,626,626,626,626,626,626,626,626,626,626,626,626,626,626,626,626,626,626,626,626,626,626,626,626,626,626,626,626,626,626,626,623,608,600,595,590,588,588,588,588,588,585,576,568,555,538,489,441,377,341,316,283,278,275,271,270,266,258,245,224,193,106,60],"timestamp_mouse":[32,38,59,79,98,118,138,158,180,199,219,239,258,280,298,319,339,358,378,399,419,439,460,478,498,518,539,559,579,598,618,639,660,678,698,718,738,758,778,798,818,838,858,878,898,918,938,958,979,998,1019,1038,1058,1078,1099,1118,1138,1158,1179,1199,1219,1240,1258,1279,1299,1318,1339,1359,1379,1398,1418,1439,1458,1478,1498,1518,1539,1558,1579,1599,1619,1638],"xSR":741.5,"ySR":573.95,"xT1":424.9,"yT1":0,"xT2":1058.1,"yT2":0,"toosoon":0,"cond_shown":"Incongruent","ratio_trial":300,"L_num":4,"L_den":20,"R_num":2,"R_den":4,"correct_side":2,"subjID":"MARIFERNANDAGONZALEZDURAN16","gender":"1","school":"6","age":"10"},{"start_time":1551899964284,"click_time":1551899966791,"finger_time":1551899965789,"fix_duration":251.76384712283829,"trial":4,"RT":1505,"MT":1002,"sideResp":2,"stimulus":[],"xmouse":[792,792,792,792,792,792,792,792,792,792,792,792,792,792,792,792,792,792,792,792,792,792,792,792,792,792,792,792,792,792,792,792,792,792,792,792,792,792,792,792,792,792,792,792,792,792,792,792,792,792,792,792,792,792,792,792,792,792,792,792,792,792,792,792,792,792,792,792,792,792,792,792,794,799,807,817,842,850,855,861,867,883,896,909,920,932,947,957,962,967,972,980,982,986,989,991,996,1000,1003,1006,1011,1020,1026,1030,1034,1036,1039,1039,1040,1041,1042,1044,1045,1047,1049,1050,1051,1052,1054,1055,1056,1057,1058,1058,1058,1059],"ymouse":[601,601,601,601,601,601,601,601,601,601,601,601,601,601,601,601,601,601,601,601,601,601,601,601,601,601,601,601,601,601,601,601,601,601,601,601,601,601,601,601,601,601,601,601,601,601,601,601,601,601,601,601,601,601,601,601,601,601,601,601,601,601,601,601,601,601,601,601,601,601,601,600,595,588,578,564,529,515,507,496,484,458,435,408,383,356,310,281,260,243,226,199,190,181,172,167,157,148,143,136,128,110,99,94,89,87,84,83,82,81,80,78,77,75,73,71,70,68,66,64,63,62,61,60,59,59],"timestamp_mouse":[8,25,45,65,87,107,126,146,165,185,207,226,246,267,285,306,325,346,366,386,407,426,445,466,487,505,525,546,565,585,606,627,646,666,685,706,725,746,767,785,805,827,845,865,886,905,927,946,966,985,1006,1027,1045,1065,1085,1106,1126,1146,1166,1186,1206,1225,1246,1265,1286,1305,1325,1347,1366,1385,1405,1426,1447,1466,1485,1505,1525,1546,1566,1585,1605,1625,1646,1665,1685,1705,1726,1745,1766,1785,1806,1825,1846,1866,1885,1906,1925,1945,1965,1986,2005,2026,2047,2066,2086,2107,2126,2146,2165,2186,2206,2226,2246,2265,2285,2306,2325,2345,2365,2385,2407,2425,2447,2467,2486,2507],"xSR":741.5,"ySR":573.95,"xT1":424.9,"yT1":0,"xT2":1058.1,"yT2":0,"toosoon":0,"cond_shown":"Incongruent","ratio_trial":300,"L_num":4,"L_den":20,"R_num":2,"R_den":4,"correct_side":2,"subjID":"MARIFERNANDAGONZALEZDURAN16","gender":"1","school":"6","age":"10"},{"start_time":1551899968782,"click_time":1551899971009,"finger_time":1551899970649,"fix_duration":250,"trial":5,"RT":1867,"MT":360,"sideResp":2,"stimulus":[],"xmouse":[823,823,823,823,823,821,819,819,819,819,819,819,819,817,813,812,810,809,809,809,809,809,809,809,809,809,809,809,809,809,809,809,809,809,809,809,809,809,809,809,809,811,811,811,811,811,811,811,811,811,811,811,811,811,811,812,813,813,814,814,814,814,814,814,814,814,814,814,814,814,815,816,817,819,819,821,821,821,821,821,821,821,821,821,821,821,821,821,822,823,824,830,833,836,838,841,844,845,846,847,850,858,873,886,903,922,979,1012,1043,1071,1093,1128],"ymouse":[604,604,604,604,605,608,611,611,611,611,611,611,611,612,615,617,620,620,620,620,620,620,620,620,620,620,620,620,620,620,620,620,620,620,620,620,620,620,621,621,622,623,623,623,623,623,623,623,623,623,623,623,623,623,623,623,622,619,616,613,612,610,610,610,610,610,610,610,610,610,608,604,601,599,596,594,593,592,592,592,592,592,592,592,592,592,592,592,591,590,588,579,575,571,568,564,560,560,559,557,554,543,521,502,477,449,352,279,207,154,121,66],"timestamp_mouse":[10,39,47,67,88,108,127,147,167,188,207,228,248,269,287,309,327,347,369,388,407,427,447,467,487,507,527,548,568,588,609,628,648,669,687,707,728,747,767,789,808,827,847,868,887,907,927,948,967,988,1008,1028,1048,1068,1087,1108,1128,1147,1169,1188,1207,1228,1248,1268,1287,1307,1328,1348,1368,1387,1407,1427,1448,1467,1487,1508,1528,1547,1567,1588,1608,1627,1649,1667,1688,1709,1728,1748,1768,1788,1807,1828,1849,1867,1888,1909,1927,1947,1968,1987,2008,2029,2047,2067,2089,2108,2127,2147,2168,2187,2208,2227],"xSR":741.5,"ySR":573.95,"xT1":424.9,"yT1":0,"xT2":1058.1,"yT2":0,"toosoon":0,"cond_shown":"Congruent","ratio_trial":100,"L_num":1,"L_den":2,"R_num":3,"R_den":5,"correct_side":2,"subjID":"MARIFERNANDAGONZALEZDURAN16","gender":"1","school":"6","age":"10"},{"start_time":1551899975908,"click_time":1551899977230,"finger_time":1551899976690,"fix_duration":998.6206889414652,"trial":6,"RT":782,"MT":540,"sideResp":2,"stimulus":[],"xmouse":[808,808,808,808,808,808,808,808,808,808,808,808,808,808,808,808,808,808,808,808,808,808,808,808,808,808,808,808,808,807,810,814,818,823,827,831,831,832,832,834,839,844,849,854,861,880,895,910,927,941,962,972,980,985,991,997,1002,1003,1006,1009,1017,1023,1028,1035,1043,1058,1083],"ymouse":[626,626,626,626,626,626,626,626,626,626,626,626,626,626,626,626,626,626,626,626,626,626,626,626,626,626,626,626,626,625,618,610,603,593,588,580,580,578,574,568,555,546,537,528,516,478,442,414,383,357,307,283,261,245,230,209,196,188,181,171,158,148,137,125,115,97,84],"timestamp_mouse":[9,33,42,61,81,101,121,142,162,181,201,221,241,263,281,302,321,342,361,381,401,421,442,461,481,501,522,541,561,581,601,621,643,661,683,701,721,743,762,782,801,821,842,862,881,902,922,942,962,981,1001,1021,1042,1062,1081,1101,1121,1141,1163,1182,1201,1222,1241,1261,1283,1302,1321],"xSR":741.5,"ySR":573.95,"xT1":424.9,"yT1":0,"xT2":1058.1,"yT2":0,"toosoon":0,"cond_shown":"Congruent","ratio_trial":200,"L_num":5,"L_den":10,"R_num":14,"R_den":20,"correct_side":2,"subjID":"MARIFERNANDAGONZALEZDURAN16","gender":"1","school":"6","age":"10"},{"start_time":1551899981499,"click_time":1551899982870,"finger_time":1551899982090,"fix_duration":1008.0889772934627,"trial":7,"RT":591,"MT":780,"sideResp":2,"stimulus":[],"xmouse":[793,793,793,793,793,793,793,793,793,793,793,793,793,793,793,793,793,793,793,793,793,793,793,793,793,793,792,792,795,804,842,873,906,937,967,1021,1039,1048,1052,1055,1055,1055,1055,1055,1055,1055,1055,1055,1052,1048,1044,1044,1044,1044,1044,1044,1044,1044,1044,1044,1044,1045,1046,1048,1049,1054,1062,1067,1073],"ymouse":[610,610,610,610,610,610,610,610,610,610,610,610,610,610,610,610,610,610,610,610,610,610,610,610,610,610,610,596,575,545,442,372,297,219,141,4,0,0,0,0,0,0,0,0,0,0,0,16,40,63,101,111,113,113,113,113,113,113,113,113,113,114,113,113,111,109,103,100,95],"timestamp_mouse":[10,39,51,70,90,110,130,150,170,190,211,230,250,271,291,311,332,351,371,390,410,430,450,471,490,511,530,551,570,591,611,630,651,671,691,711,730,751,771,790,810,831,850,870,890,911,931,952,972,990,1010,1030,1050,1070,1090,1110,1130,1152,1170,1190,1211,1232,1251,1271,1290,1310,1330,1351,1371],"xSR":741.5,"ySR":573.95,"xT1":424.9,"yT1":0,"xT2":1058.1,"yT2":0,"toosoon":0,"cond_shown":"Congruent","ratio_trial":200,"L_num":1,"L_den":2,"R_num":21,"R_den":30,"correct_side":2,"subjID":"MARIFERNANDAGONZALEZDURAN16","gender":"1","school":"6","age":"10"},{"start_time":1551899990432,"click_time":1551899992350,"finger_time":1551899991630,"fix_duration":1221.9394754460964,"trial":8,"RT":1198,"MT":720,"sideResp":1,"stimulus":[],"xmouse":[788,788,788,788,788,788,788,788,788,788,788,788,788,788,788,788,788,788,788,788,788,788,788,788,788,788,788,788,788,788,788,788,788,788,788,788,788,788,788,788,788,788,788,788,788,788,788,788,788,788,788,788,788,788,786,779,771,764,746,737,725,711,692,652,631,608,589,573,557,554,552,549,547,538,532,525,516,508,490,483,478,474,471,467,465,463,463,463,463,463,463,463,463,459,456,454],"ymouse":[638,638,638,638,638,638,638,638,638,638,638,638,638,638,638,638,638,638,638,638,638,638,638,638,638,638,638,638,638,638,638,638,638,638,638,638,638,638,638,638,638,638,638,638,638,638,638,638,638,638,638,638,638,638,635,629,620,613,600,595,589,581,571,547,534,518,505,491,475,469,465,458,449,416,394,369,337,307,244,222,203,188,175,158,150,146,145,145,145,145,145,144,142,121,105,91],"timestamp_mouse":[18,45,57,78,98,117,137,157,177,197,217,238,257,278,297,317,338,358,377,397,417,438,458,478,497,517,537,559,577,598,618,638,657,677,699,718,737,758,778,798,817,838,857,878,898,918,938,959,977,997,1017,1037,1058,1077,1097,1119,1139,1158,1177,1198,1218,1237,1259,1277,1298,1317,1337,1357,1377,1398,1418,1437,1457,1477,1498,1517,1539,1558,1577,1599,1618,1638,1659,1677,1699,1717,1737,1757,1777,1797,1817,1837,1858,1878,1898,1918],"xSR":741.5,"ySR":573.95,"xT1":424.9,"yT1":0,"xT2":1058.1,"yT2":0,"toosoon":0,"cond_shown":"Incongruent","ratio_trial":100,"L_num":9,"L_den":10,"R_num":20,"R_den":25,"correct_side":1,"subjID":"MARIFERNANDAGONZALEZDURAN16","gender":"1","school":"6","age":"10"},{"start_time":1551899995728,"click_time":1551899997351,"finger_time":1551899996369,"fix_duration":1176.8182583488194,"trial":9,"RT":641,"MT":982,"sideResp":2,"stimulus":[],"xmouse":[770,770,770,770,770,770,770,770,770,770,770,770,770,770,770,770,770,770,770,770,770,770,770,770,770,774,778,785,792,807,814,819,827,834,841,845,848,850,851,852,852,852,852,852,852,852,852,852,855,867,878,892,906,920,949,958,966,971,975,984,986,991,993,997,1002,1003,1006,1009,1012,1018,1020,1022,1024,1024,1027,1033,1038,1043,1047,1055,1057,1059],"ymouse":[660,660,660,660,660,660,660,660,660,660,660,660,660,660,660,660,660,660,660,660,660,660,660,660,660,653,642,633,622,599,591,583,573,563,550,544,539,536,534,533,533,533,533,533,533,533,533,529,523,506,492,476,456,435,383,365,345,329,313,282,250,218,201,189,171,165,158,150,143,135,132,129,128,127,124,114,107,100,94,85,83,80],"timestamp_mouse":[8,31,41,63,81,102,121,142,163,182,202,221,241,262,282,302,321,343,362,382,403,423,441,462,483,503,522,541,562,581,601,622,641,662,681,703,721,743,762,782,802,822,842,862,883,902,921,941,962,982,1002,1021,1042,1061,1082,1102,1121,1142,1162,1181,1203,1222,1242,1263,1281,1303,1323,1342,1362,1382,1401,1422,1442,1462,1482,1502,1521,1542,1561,1582,1601,1623],"xSR":741.5,"ySR":573.95,"xT1":424.9,"yT1":0,"xT2":1058.1,"yT2":0,"toosoon":0,"cond_shown":"Congruent","ratio_trial":100,"L_num":1,"L_den":2,"R_num":18,"R_den":30,"correct_side":2,"subjID":"MARIFERNANDAGONZALEZDURAN16","gender":"1","school":"6","age":"10"},{"start_time":1551900000942,"click_time":1551900002350,"finger_time":1551900001610,"fix_duration":611.9505354476994,"trial":10,"RT":668,"MT":740,"sideResp":1,"stimulus":[],"xmouse":[768,768,768,769,769,769,769,769,769,769,769,769,769,769,769,769,769,769,769,769,769,769,769,769,769,769,769,769,769,769,769,769,770,740,729,719,708,703,699,693,689,685,681,660,638,617,592,565,501,467,433,409,392,380,380,380,378,378,378,378,378,382,388,400,407,412,415,418,422,424,426],"ymouse":[621,622,622,622,622,622,622,622,622,622,622,622,622,622,622,622,622,622,622,622,622,622,622,622,622,622,622,622,622,622,622,622,622,563,546,533,520,512,507,497,493,489,485,470,454,441,424,405,355,326,302,283,268,255,255,253,244,236,218,210,199,188,173,145,127,117,108,101,89,83,79],"timestamp_mouse":[12,40,48,69,89,107,128,149,168,187,207,228,249,268,287,309,328,349,367,388,408,428,447,468,487,507,529,547,567,587,608,628,648,668,688,708,729,749,767,788,809,827,847,867,887,908,928,949,968,988,1009,1028,1048,1067,1087,1107,1128,1148,1167,1187,1207,1228,1247,1267,1289,1308,1329,1349,1369,1387,1408],"xSR":741.5,"ySR":573.95,"xT1":424.9,"yT1":0,"xT2":1058.1,"yT2":0,"toosoon":0,"cond_shown":"Congruent","ratio_trial":300,"L_num":24,"L_den":30,"R_num":2,"R_den":4,"correct_side":1,"subjID":"MARIFERNANDAGONZALEZDURAN16","gender":"1","school":"6","age":"10"},{"start_time":1551900004752,"click_time":1551900006710,"finger_time":1551900006109,"fix_duration":620.0909233530216,"trial":11,"RT":1357,"MT":601,"sideResp":2,"stimulus":[],"xmouse":[791,791,791,791,791,791,791,791,791,791,791,791,791,791,791,791,791,791,791,791,791,791,791,791,791,791,791,791,791,791,791,791,791,791,791,791,791,791,791,791,791,792,792,793,793,793,793,793,793,793,793,793,793,793,793,793,793,793,793,793,793,793,794,795,797,801,806,816,819,825,832,838,857,871,880,889,901,932,946,956,966,980,991,997,1002,1007,1011,1021,1025,1026,1026,1026,1026,1026,1027,1034,1043,1065],"ymouse":[609,609,609,609,609,609,609,609,609,609,609,609,609,609,609,609,609,609,609,609,609,609,609,609,609,609,609,609,609,609,609,609,609,609,609,609,609,609,609,609,609,610,610,610,610,610,610,610,610,610,610,610,610,610,610,610,610,610,610,610,610,610,610,608,603,597,588,568,560,547,533,516,471,439,420,398,374,309,278,251,228,201,174,161,151,139,130,109,102,100,100,100,100,100,99,97,94,89],"timestamp_mouse":[18,37,58,77,97,117,138,157,177,199,219,237,257,277,298,317,338,358,377,398,418,438,458,478,497,517,537,558,577,599,619,639,658,677,699,718,737,758,778,797,818,838,859,878,897,918,938,957,977,998,1018,1037,1057,1077,1097,1117,1138,1159,1177,1198,1219,1238,1257,1278,1298,1318,1337,1357,1378,1398,1417,1438,1457,1489,1497,1517,1539,1558,1578,1597,1617,1638,1658,1678,1698,1718,1738,1757,1778,1797,1818,1839,1858,1877,1897,1919,1938,1958],"xSR":741.5,"ySR":573.95,"xT1":424.9,"yT1":0,"xT2":1058.1,"yT2":0,"toosoon":0,"cond_shown":"Incongruent","ratio_trial":200,"L_num":14,"L_den":30,"R_num":6,"R_den":9,"correct_side":2,"subjID":"MARIFERNANDAGONZALEZDURAN16","gender":"1","school":"6","age":"10"},{"start_time":1551900010204,"click_time":1551900011610,"finger_time":1551900011330,"fix_duration":394.6702948299065,"trial":12,"RT":1126,"MT":280,"sideResp":2,"stimulus":[],"xmouse":[794,794,794,794,794,794,794,794,794,794,794,794,794,794,794,794,794,794,794,794,794,794,794,794,794,794,794,794,794,794,794,794,794,794,794,794,794,794,794,794,794,794,794,794,794,794,794,795,797,798,803,806,810,813,816,832,843,853,866,880,908,927,940,953,973,1007,1026,1041,1051,1059,1072],"ymouse":[640,640,640,640,640,640,640,640,640,640,640,640,640,640,640,640,640,640,640,640,640,640,640,640,640,640,640,640,640,640,640,640,640,640,640,640,640,640,640,640,640,640,640,640,640,640,640,638,636,634,627,624,621,618,614,597,586,574,560,544,511,478,450,418,375,282,217,160,129,107,78],"timestamp_mouse":[11,38,45,66,85,106,125,147,165,185,207,226,246,265,286,305,326,347,365,386,406,425,445,465,486,506,526,547,566,586,605,625,646,667,685,706,726,745,766,786,807,825,846,865,886,906,925,946,965,985,1005,1027,1045,1065,1087,1106,1126,1145,1166,1186,1206,1226,1245,1267,1286,1306,1325,1345,1366,1385,1406],"xSR":741.5,"ySR":573.95,"xT1":424.9,"yT1":0,"xT2":1058.1,"yT2":0,"toosoon":0,"cond_shown":"Incongruent","ratio_trial":300,"L_num":13,"L_den":26,"R_num":12,"R_den":15,"correct_side":2,"subjID":"MARIFERNANDAGONZALEZDURAN16","gender":"1","school":"6","age":"10"},{"start_time":1551900014182,"click_time":1551900016210,"finger_time":1551900015630,"fix_duration":330.11467581419083,"trial":13,"RT":1448,"MT":580,"sideResp":2,"stimulus":[],"xmouse":[793,793,793,793,793,793,793,793,793,793,793,793,793,793,793,793,793,793,793,793,793,793,793,793,793,793,793,793,793,793,793,793,793,793,792,792,792,792,792,792,792,792,792,792,792,793,793,793,793,793,793,793,793,793,793,793,793,793,793,793,793,793,793,793,793,796,796,797,800,802,807,822,833,847,860,873,897,912,927,940,956,988,1007,1016,1022,1025,1026,1026,1026,1026,1026,1028,1030,1030,1031,1033,1039,1044,1054,1065,1075,1101],"ymouse":[636,636,636,636,636,636,636,636,636,636,636,636,636,636,636,636,636,636,636,636,636,636,636,636,636,636,636,636,636,636,636,636,636,636,636,636,636,636,636,636,636,636,635,635,635,635,635,635,635,635,635,635,635,635,635,635,635,635,635,635,635,635,635,635,635,633,631,628,621,614,603,576,563,548,534,519,486,466,446,422,396,329,287,264,245,231,213,207,200,193,185,171,165,163,161,158,145,138,127,117,107,83],"timestamp_mouse":[8,40,48,68,87,108,128,147,168,188,207,227,249,267,288,309,327,348,368,388,407,429,447,468,487,508,529,548,567,588,607,627,647,669,687,707,728,747,767,787,808,828,847,867,887,908,928,948,968,989,1008,1027,1047,1067,1088,1107,1128,1147,1168,1189,1207,1228,1249,1267,1288,1308,1327,1347,1367,1387,1408,1427,1448,1469,1488,1509,1528,1547,1567,1587,1607,1628,1647,1667,1687,1709,1728,1749,1767,1787,1808,1828,1848,1868,1887,1907,1927,1947,1967,1987,2007,2028],"xSR":741.5,"ySR":573.95,"xT1":424.9,"yT1":0,"xT2":1058.1,"yT2":0,"toosoon":0,"cond_shown":"Incongruent","ratio_trial":100,"L_num":10,"L_den":25,"R_num":9,"R_den":18,"correct_side":2,"subjID":"MARIFERNANDAGONZALEZDURAN16","gender":"1","school":"6","age":"10"},{"start_time":1551900020789,"click_time":1551900022309,"finger_time":1551900021849,"fix_duration":1418.7584779892343,"trial":14,"RT":1060,"MT":460,"sideResp":2,"stimulus":[],"xmouse":[784,784,784,784,784,784,784,784,784,784,784,784,784,784,784,784,784,784,784,784,784,784,784,784,784,784,784,784,784,784,784,784,784,784,784,784,784,784,784,784,784,784,784,784,784,784,784,784,784,784,787,815,834,846,856,867,897,914,936,955,976,1000,1011,1012,1012,1012,1015,1018,1021,1024,1030,1033,1038,1043,1047,1058,1070],"ymouse":[663,663,663,663,663,663,663,663,663,663,663,663,663,663,663,663,663,663,663,663,663,663,663,663,663,663,663,663,663,663,663,663,663,663,663,663,663,663,663,663,663,663,663,663,663,663,663,663,663,661,660,651,642,634,623,603,538,495,439,393,345,281,247,225,201,182,146,129,114,106,93,89,82,78,75,68,64],"timestamp_mouse":[8,33,40,61,81,100,121,140,161,180,200,220,240,261,281,300,321,341,361,380,401,420,440,461,481,501,521,541,560,580,600,622,641,662,681,700,720,741,761,781,800,821,841,862,880,900,921,940,960,982,1001,1021,1041,1060,1080,1101,1121,1140,1160,1181,1201,1220,1241,1261,1282,1301,1320,1340,1360,1381,1402,1420,1440,1461,1482,1502,1520],"xSR":741.5,"ySR":573.95,"xT1":424.9,"yT1":0,"xT2":1058.1,"yT2":0,"toosoon":0,"cond_shown":"Congruent","ratio_trial":300,"L_num":8,"L_den":15,"R_num":10,"R_den":12,"correct_side":2,"subjID":"MARIFERNANDAGONZALEZDURAN16","gender":"1","school":"6","age":"10"},{"start_time":1551900026793,"click_time":1551900028409,"finger_time":1551900028009,"fix_duration":362.1591026108978,"trial":15,"RT":1216,"MT":400,"sideResp":2,"stimulus":[],"xmouse":[788,788,788,788,788,788,788,788,788,788,788,788,788,788,788,788,788,788,788,788,788,788,788,788,788,788,788,788,788,788,788,788,788,788,788,788,788,788,788,788,788,788,788,788,788,788,788,788,789,789,791,792,792,793,794,797,799,803,809,817,838,853,865,870,873,890,900,911,924,934,953,961,972,979,991,1018,1033,1047,1055,1061,1070],"ymouse":[641,641,641,641,641,641,641,641,641,641,641,641,641,641,641,641,641,641,641,641,641,641,641,641,641,641,641,641,641,641,641,641,641,641,641,641,641,641,641,641,641,641,641,641,641,641,641,641,641,641,631,629,628,626,625,620,616,607,594,575,531,507,475,456,435,373,340,311,282,262,229,215,201,191,178,146,132,118,109,101,90],"timestamp_mouse":[35,36,56,77,96,117,137,156,177,197,217,236,256,276,296,318,337,357,376,396,417,436,457,478,496,517,536,558,578,596,616,638,656,676,697,717,737,756,778,796,816,836,857,878,896,916,936,956,977,997,1017,1036,1057,1077,1096,1117,1136,1158,1177,1196,1216,1237,1258,1277,1296,1317,1337,1358,1378,1397,1418,1438,1456,1476,1496,1518,1537,1557,1577,1596,1616],"xSR":741.5,"ySR":573.95,"xT1":424.9,"yT1":0,"xT2":1058.1,"yT2":0,"toosoon":0,"cond_shown":"Congruent","ratio_trial":100,"L_num":1,"L_den":2,"R_num":3,"R_den":5,"correct_side":2,"subjID":"MARIFERNANDAGONZALEZDURAN16","gender":"1","school":"6","age":"10"},{"start_time":1551900032043,"click_time":1551900033830,"finger_time":1551900033329,"fix_duration":250,"trial":16,"RT":1286,"MT":501,"sideResp":1,"stimulus":[],"xmouse":[803,803,803,803,803,803,803,803,803,803,803,803,803,803,803,803,803,803,803,803,803,803,803,803,803,803,803,803,803,803,803,803,803,803,803,803,803,803,803,803,803,803,803,803,803,803,803,803,803,803,803,803,803,803,803,803,803,803,803,803,803,803,803,797,785,771,751,709,693,679,674,660,651,632,622,611,599,591,581,578,576,571,567,559,552,542,532,524,502,486],"ymouse":[593,593,593,593,593,593,593,593,593,593,593,593,593,593,597,599,600,602,603,603,603,603,603,603,603,603,603,603,603,603,603,603,603,603,603,603,603,603,603,603,603,603,603,603,603,603,603,603,603,603,603,603,603,603,603,603,603,603,603,603,603,603,603,587,558,514,451,320,277,241,231,203,187,159,146,135,125,118,113,112,112,112,112,114,114,114,114,114,107,99],"timestamp_mouse":[8,31,47,67,88,108,126,147,168,188,206,227,248,268,286,307,327,346,366,386,407,426,446,468,486,507,526,546,566,587,608,627,646,666,687,707,727,748,767,786,806,826,847,867,886,906,927,948,966,987,1006,1026,1047,1067,1087,1106,1128,1148,1166,1187,1206,1227,1247,1266,1286,1307,1326,1348,1366,1386,1406,1427,1446,1466,1486,1506,1527,1547,1566,1587,1606,1627,1647,1667,1686,1708,1726,1747,1766,1786],"xSR":741.5,"ySR":573.95,"xT1":424.9,"yT1":0,"xT2":1058.1,"yT2":0,"toosoon":0,"cond_shown":"Incongruent","ratio_trial":300,"L_num":7,"L_den":10,"R_num":8,"R_den":20,"correct_side":1,"subjID":"MARIFERNANDAGONZALEZDURAN16","gender":"1","school":"6","age":"10"},{"start_time":1551900036890,"click_time":1551900038209,"finger_time":1551900037891,"fix_duration":819.3706409850802,"trial":17,"RT":1001,"MT":318,"sideResp":2,"stimulus":[],"xmouse":[808,808,808,808,808,808,808,808,808,808,808,808,808,808,808,808,808,808,808,808,808,808,808,808,808,808,808,808,808,808,808,808,808,808,808,808,808,808,808,808,808,808,808,808,808,808,808,808,808,809,826,835,844,852,861,871,897,911,929,956,977,1008,1020,1031,1043,1051,1059],"ymouse":[607,607,607,607,607,607,607,607,607,607,607,607,607,607,607,607,607,607,607,607,607,607,607,607,607,607,607,607,607,607,607,607,607,607,607,607,607,607,607,607,607,607,607,607,607,607,607,607,605,598,564,544,526,510,495,476,432,406,374,325,290,219,194,173,151,129,79],"timestamp_mouse":[8,30,40,60,79,99,119,139,159,179,200,219,240,259,279,299,319,339,359,379,400,419,440,460,479,500,519,540,560,579,601,620,640,659,680,699,720,739,761,780,800,820,840,860,880,899,920,939,959,980,1001,1019,1040,1060,1080,1101,1119,1139,1159,1179,1199,1219,1240,1260,1280,1299,1319],"xSR":741.5,"ySR":573.95,"xT1":424.9,"yT1":0,"xT2":1058.1,"yT2":0,"toosoon":0,"cond_shown":"Congruent","ratio_trial":300,"L_num":8,"L_den":15,"R_num":10,"R_den":12,"correct_side":2,"subjID":"MARIFERNANDAGONZALEZDURAN16","gender":"1","school":"6","age":"10"},{"start_time":1551900040694,"click_time":1551900042370,"finger_time":1551900041671,"fix_duration":1202.9892159271926,"trial":18,"RT":977,"MT":699,"sideResp":1,"stimulus":[],"xmouse":[814,814,814,814,814,814,814,814,814,814,814,814,814,814,814,814,814,814,814,814,814,814,814,814,814,814,814,814,814,814,814,814,814,814,814,814,812,809,802,798,797,796,796,796,796,796,796,796,787,769,689,643,609,588,547,537,528,528,525,523,523,523,522,519,513,492,487,483,483,483,483,483,483,484,487,487,487,487,487,487,487,487,489,489],"ymouse":[613,613,613,613,613,613,613,613,613,613,613,613,613,613,613,613,613,613,613,613,613,613,613,613,613,613,613,613,613,613,613,613,613,613,613,613,613,611,594,585,583,582,582,582,582,582,582,579,566,546,475,434,401,370,306,282,256,250,236,219,212,206,198,185,168,130,119,108,106,106,106,106,105,105,105,105,105,105,105,105,105,105,100,91],"timestamp_mouse":[16,35,56,77,96,115,135,156,176,196,215,236,255,275,296,316,335,355,377,395,416,435,456,476,495,515,536,556,577,595,617,635,657,676,696,716,736,755,776,796,816,836,857,876,897,915,935,955,976,996,1015,1035,1056,1075,1096,1115,1136,1155,1175,1197,1215,1235,1261,1277,1295,1317,1335,1356,1376,1396,1415,1436,1455,1475,1496,1517,1536,1556,1576,1597,1616,1637,1656,1676],"xSR":741.5,"ySR":573.95,"xT1":424.9,"yT1":0,"xT2":1058.1,"yT2":0,"toosoon":0,"cond_shown":"Incongruent","ratio_trial":300,"L_num":3,"L_den":6,"R_num":4,"R_den":20,"correct_side":1,"subjID":"MARIFERNANDAGONZALEZDURAN16","gender":"1","school":"6","age":"10"},{"start_time":1551900043881,"click_time":1551900045331,"finger_time":1551900044809,"fix_duration":250,"trial":19,"RT":928,"MT":522,"sideResp":2,"stimulus":[],"xmouse":[817,817,817,817,817,817,817,817,817,817,817,817,817,817,817,817,817,817,817,817,817,817,817,817,817,817,817,817,817,817,817,817,817,817,817,817,817,817,817,817,817,817,818,824,829,838,869,884,900,920,946,953,960,964,968,981,984,988,992,997,1002,1010,1013,1016,1016,1017,1024,1027,1033,1038,1046,1058,1061],"ymouse":[636,636,636,636,636,636,636,636,636,636,636,636,636,636,636,636,636,636,636,636,636,636,636,636,636,636,636,636,636,636,636,636,636,636,636,636,636,636,636,636,636,636,637,627,614,594,540,502,455,384,311,293,278,269,255,217,203,189,179,164,155,141,136,134,133,130,119,114,105,99,91,82,79],"timestamp_mouse":[10,39,48,68,88,110,129,148,168,189,208,228,250,268,290,310,328,348,368,388,409,428,449,468,489,508,529,548,569,590,609,630,649,669,690,709,729,749,770,788,809,829,849,868,888,909,928,948,970,990,1011,1028,1048,1069,1088,1110,1128,1149,1168,1189,1208,1229,1248,1270,1289,1308,1328,1348,1368,1388,1408,1430,1449],"xSR":741.5,"ySR":573.95,"xT1":424.9,"yT1":0,"xT2":1058.1,"yT2":0,"toosoon":0,"cond_shown":"Incongruent","ratio_trial":300,"L_num":13,"L_den":26,"R_num":12,"R_den":15,"correct_side":2,"subjID":"MARIFERNANDAGONZALEZDURAN16","gender":"1","school":"6","age":"10"},{"start_time":1551900049973,"click_time":1551900051829,"finger_time":1551900051129,"fix_duration":1301.7526408228186,"trial":20,"RT":1156,"MT":700,"sideResp":2,"stimulus":[],"xmouse":[780,780,780,780,780,780,780,780,780,780,780,780,780,780,780,780,780,780,780,780,780,780,780,780,780,780,780,780,780,780,780,780,780,780,780,780,780,780,780,780,780,780,780,780,780,780,780,780,780,780,780,780,781,784,785,803,813,826,838,850,860,860,860,860,860,861,862,866,873,888,966,1030,1106,1168,1200,1224,1228,1230,1231,1233,1233,1233,1233,1233,1230,1217,1210,1203,1194,1184,1170,1163,1158],"ymouse":[658,658,658,658,658,658,658,658,658,658,658,658,658,658,658,658,658,658,658,658,658,658,658,658,658,658,658,658,658,658,658,658,658,658,658,658,658,658,658,658,658,658,658,658,658,658,658,658,658,658,658,658,657,651,644,601,578,544,500,447,360,334,314,298,296,292,287,275,260,240,181,155,135,117,104,84,70,55,44,34,24,23,23,22,22,25,30,36,45,51,58,62,62],"timestamp_mouse":[32,38,58,76,97,117,136,156,176,197,217,238,257,277,297,316,337,357,377,397,417,437,457,476,496,517,536,558,576,596,618,637,657,677,697,716,738,757,776,798,817,838,856,877,896,917,936,957,976,998,1018,1037,1056,1077,1096,1117,1137,1156,1177,1197,1217,1236,1257,1276,1297,1317,1336,1357,1377,1396,1417,1436,1456,1477,1497,1517,1536,1557,1576,1597,1616,1636,1656,1676,1697,1717,1736,1757,1777,1798,1816,1837,1856],"xSR":741.5,"ySR":573.95,"xT1":424.9,"yT1":0,"xT2":1058.1,"yT2":0,"toosoon":0,"cond_shown":"Incongruent","ratio_trial":200,"L_num":1,"L_den":3,"R_num":2,"R_den":15,"correct_side":1,"subjID":"MARIFERNANDAGONZALEZDURAN16","gender":"1","school":"6","age":"10"},{"start_time":1551900055572,"click_time":1551900057369,"finger_time":1551900056690,"fix_duration":841.4048026821825,"trial":21,"RT":1118,"MT":679,"sideResp":1,"stimulus":[],"xmouse":[808,808,808,808,808,808,808,808,808,808,808,808,808,808,808,808,808,808,808,808,808,808,808,808,808,808,808,808,808,808,808,808,808,808,808,808,808,808,808,808,808,808,808,808,808,808,808,808,808,808,808,802,797,785,773,742,725,708,693,678,656,646,639,631,618,595,581,564,547,536,529,527,526,525,516,505,490,490,490,490,490,487,484,483,482,482,481,481,478,468],"ymouse":[624,624,624,624,624,624,624,624,624,624,624,624,624,624,624,624,624,624,624,624,624,624,624,624,624,624,624,624,624,624,624,624,624,624,624,624,624,624,624,624,624,624,624,624,624,624,624,624,624,624,624,620,617,604,593,570,558,544,531,516,483,465,446,427,393,340,303,265,227,202,176,171,168,165,149,136,122,122,122,122,122,113,110,109,106,105,104,104,100,90],"timestamp_mouse":[32,39,58,77,97,117,138,158,177,197,217,238,258,278,298,319,338,358,377,398,418,437,457,479,498,519,537,558,577,597,618,637,657,677,698,719,738,757,778,799,818,837,857,879,899,917,938,957,979,997,1017,1037,1059,1077,1098,1118,1138,1157,1178,1197,1218,1237,1257,1278,1299,1318,1337,1358,1378,1398,1417,1437,1457,1477,1498,1517,1537,1557,1578,1598,1618,1638,1657,1677,1698,1718,1737,1757,1778,1797],"xSR":741.5,"ySR":573.95,"xT1":424.9,"yT1":0,"xT2":1058.1,"yT2":0,"toosoon":0,"cond_shown":"Incongruent","ratio_trial":200,"L_num":4,"L_den":6,"R_num":14,"R_den":30,"correct_side":1,"subjID":"MARIFERNANDAGONZALEZDURAN16","gender":"1","school":"6","age":"10"},{"start_time":1551900059418,"click_time":1551900061209,"finger_time":1551900060610,"fix_duration":428.65242292774155,"trial":22,"RT":1192,"MT":599,"sideResp":1,"stimulus":[],"xmouse":[814,814,814,814,814,814,814,814,814,814,814,814,814,814,814,814,814,814,814,814,814,814,814,813,808,800,794,785,773,768,766,764,763,763,763,763,763,763,763,763,763,763,763,763,763,763,763,763,763,763,763,763,763,763,763,763,763,756,752,695,635,565,506,458,384,360,342,336,334,333,333,333,333,333,333,336,343,355,367,384,387,390,394,400,409,411,416,418,421,431],"ymouse":[641,641,641,641,641,641,641,641,641,641,641,641,641,641,641,641,641,641,641,641,641,641,641,642,639,634,629,623,614,610,609,607,607,606,606,606,606,606,606,606,606,606,606,606,606,606,606,606,606,606,606,606,606,606,605,603,598,586,577,497,418,332,260,192,88,45,18,1,0,0,0,0,0,0,0,1,5,11,19,31,34,35,37,40,43,45,47,48,49,55],"timestamp_mouse":[11,37,51,73,91,111,132,151,172,191,211,232,251,271,292,311,332,351,372,392,412,432,451,471,492,512,536,553,571,592,612,632,651,673,691,712,732,752,772,791,811,832,851,873,891,911,932,951,971,993,1012,1031,1051,1073,1091,1112,1131,1153,1173,1192,1211,1231,1253,1273,1292,1311,1331,1352,1371,1392,1412,1432,1453,1473,1491,1512,1531,1552,1571,1591,1611,1631,1651,1672,1691,1712,1732,1751,1772,1791],"xSR":741.5,"ySR":573.95,"xT1":424.9,"yT1":0,"xT2":1058.1,"yT2":0,"toosoon":0,"cond_shown":"Congruent","ratio_trial":200,"L_num":6,"L_den":15,"R_num":3,"R_den":15,"correct_side":1,"subjID":"MARIFERNANDAGONZALEZDURAN16","gender":"1","school":"6","age":"10"},{"start_time":1551900063162,"click_time":1551900064290,"finger_time":1551900063909,"fix_duration":250,"trial":23,"RT":747,"MT":381,"sideResp":2,"stimulus":[],"xmouse":[793,793,793,793,793,793,793,793,793,793,793,793,793,793,793,793,793,793,793,793,793,793,793,793,793,793,793,793,793,793,793,793,793,793,793,794,803,842,863,888,914,939,983,1004,1013,1024,1033,1048,1060,1074,1087,1100,1119,1126,1127,1127,1127],"ymouse":[636,636,636,636,636,636,636,636,636,636,636,636,636,636,636,636,636,636,636,636,636,636,636,636,636,636,636,636,636,636,636,636,636,636,636,637,628,596,580,561,540,520,490,471,457,439,419,367,336,301,276,244,190,155,131,107,90],"timestamp_mouse":[10,31,47,67,87,107,127,147,167,187,207,228,248,267,289,308,327,349,368,388,408,429,447,468,489,508,528,549,568,588,608,628,648,667,687,708,728,747,767,787,809,827,847,869,888,907,928,947,968,987,1007,1027,1047,1067,1087,1109,1128],"xSR":741.5,"ySR":573.95,"xT1":424.9,"yT1":0,"xT2":1058.1,"yT2":0,"toosoon":0,"cond_shown":"Congruent","ratio_trial":300,"L_num":8,"L_den":15,"R_num":10,"R_den":12,"correct_side":2,"subjID":"MARIFERNANDAGONZALEZDURAN16","gender":"1","school":"6","age":"10"},{"start_time":1551900066375,"click_time":1551900067631,"finger_time":1551900067170,"fix_duration":802.3754511337987,"trial":24,"RT":795,"MT":461,"sideResp":1,"stimulus":[],"xmouse":[821,821,821,821,821,821,821,821,821,821,821,821,821,821,821,821,821,821,821,821,821,821,821,821,821,821,821,821,821,821,821,821,821,821,821,821,821,804,764,720,676,580,560,546,534,526,511,507,503,499,497,497,497,497,498,498,498,494,487,480,475,469,465],"ymouse":[624,624,624,624,624,624,624,624,624,624,624,624,624,624,624,624,624,624,624,624,624,624,624,624,624,624,624,624,624,624,624,624,624,624,624,624,624,612,580,550,519,444,426,411,395,380,351,337,321,307,297,288,282,273,259,241,192,169,148,132,120,104,91],"timestamp_mouse":[16,41,54,75,95,114,134,154,174,194,214,234,254,274,294,314,335,355,374,394,416,434,455,475,496,514,534,556,576,595,614,636,655,674,694,714,734,754,775,794,816,835,854,874,894,914,935,955,974,994,1014,1034,1055,1075,1094,1115,1134,1155,1175,1194,1215,1234,1255],"xSR":741.5,"ySR":573.95,"xT1":424.9,"yT1":0,"xT2":1058.1,"yT2":0,"toosoon":0,"cond_shown":"Congruent","ratio_trial":300,"L_num":18,"L_den":20,"R_num":9,"R_den":15,"correct_side":1,"subjID":"MARIFERNANDAGONZALEZDURAN16","gender":"1","school":"6","age":"10"},{"start_time":1551900068981,"click_time":1551900070631,"finger_time":1551900070470,"fix_duration":250,"trial":25,"RT":1489,"MT":161,"sideResp":2,"stimulus":[],"xmouse":[826,826,826,826,826,826,826,826,826,826,826,826,826,826,826,826,826,826,826,826,826,826,826,826,826,826,826,826,826,826,826,826,826,826,826,826,826,826,826,826,826,826,826,826,826,826,826,826,826,826,826,826,826,826,826,826,826,826,826,826,826,826,826,826,826,826,826,826,826,826,826,829,829,837,842,848,874,901,937,979,1029,1119,1143],"ymouse":[630,630,630,630,630,630,630,630,630,630,630,630,630,630,630,630,630,630,630,630,630,630,630,630,630,630,630,630,630,631,631,631,631,631,631,631,631,631,631,631,631,631,631,631,631,631,631,631,631,631,631,631,631,631,631,631,631,631,631,631,631,631,631,631,631,631,631,631,631,631,631,624,620,596,574,547,449,392,326,266,209,109,82],"timestamp_mouse":[8,40,50,68,89,108,128,150,168,189,209,229,249,270,288,308,328,349,368,388,409,430,448,468,488,508,529,548,570,588,608,629,650,668,689,708,729,749,768,789,808,828,848,868,889,908,928,948,969,988,1008,1028,1050,1068,1088,1108,1129,1149,1168,1190,1209,1229,1250,1268,1289,1310,1329,1348,1369,1388,1408,1428,1448,1468,1489,1508,1528,1549,1569,1589,1608,1628,1649],"xSR":741.5,"ySR":573.95,"xT1":424.9,"yT1":0,"xT2":1058.1,"yT2":0,"toosoon":0,"cond_shown":"Incongruent","ratio_trial":100,"L_num":9,"L_den":18,"R_num":6,"R_den":10,"correct_side":2,"subjID":"MARIFERNANDAGONZALEZDURAN16","gender":"1","school":"6","age":"10"},{"start_time":1551900072454,"click_time":1551900073970,"finger_time":1551900073230,"fix_duration":324.4923468623826,"trial":26,"RT":776,"MT":740,"sideResp":2,"stimulus":[],"xmouse":[780,780,780,780,780,780,780,780,780,780,780,780,780,780,780,780,780,780,780,780,780,780,780,780,780,780,780,780,780,780,780,780,780,781,782,784,786,798,808,822,843,857,873,879,884,890,897,915,928,935,944,952,966,972,976,981,984,988,989,991,993,997,1015,1022,1028,1034,1038,1040,1040,1040,1040,1042,1048,1051,1056,1064],"ymouse":[658,658,658,658,658,658,658,658,658,658,658,658,658,658,658,658,658,658,658,658,658,658,658,658,658,658,658,658,658,658,657,657,653,650,644,637,624,575,545,501,452,410,375,360,348,335,319,282,250,230,211,193,164,152,144,138,134,128,125,121,116,108,76,68,64,61,58,56,56,56,56,56,55,54,53,52],"timestamp_mouse":[16,35,56,75,97,115,135,155,176,195,215,236,256,275,295,315,336,355,376,396,417,436,455,475,495,515,535,555,575,595,615,636,655,675,696,717,737,756,776,796,815,836,855,876,896,917,935,955,977,996,1015,1035,1057,1076,1096,1115,1136,1156,1176,1195,1217,1237,1255,1277,1297,1315,1335,1356,1376,1395,1416,1436,1456,1475,1495,1516],"xSR":741.5,"ySR":573.95,"xT1":424.9,"yT1":0,"xT2":1058.1,"yT2":0,"toosoon":0,"cond_shown":"Incongruent","ratio_trial":100,"L_num":4,"L_den":8,"R_num":8,"R_den":20,"correct_side":1,"subjID":"MARIFERNANDAGONZALEZDURAN16","gender":"1","school":"6","age":"10"},{"start_time":1551900075743,"click_time":1551900077809,"finger_time":1551900077030,"fix_duration":471.4206557552023,"trial":27,"RT":1287,"MT":779,"sideResp":1,"stimulus":[],"xmouse":[800,800,800,798,798,798,798,798,798,798,798,797,797,797,797,796,795,795,795,795,795,795,795,795,795,795,795,795,793,790,789,787,787,779,772,770,769,769,769,769,769,769,769,769,769,769,769,769,769,769,769,769,769,769,769,769,769,769,767,764,761,758,756,744,734,718,701,689,677,675,672,671,671,670,669,666,661,655,646,638,630,621,612,585,571,546,501,450,411,405,399,394,393,390,390,390,390,390,391,395,402,409,417,428],"ymouse":[643,643,643,643,643,643,643,643,643,642,642,641,641,641,641,641,641,641,641,641,641,641,641,641,641,641,641,641,640,640,640,639,638,634,629,627,625,625,625,625,625,625,625,625,625,625,625,625,625,625,625,625,625,625,625,625,625,625,620,616,612,608,605,577,552,514,471,426,348,323,300,285,282,277,268,257,245,234,218,209,204,199,195,180,168,153,135,122,110,107,101,94,89,80,80,80,80,80,80,80,80,80,80,80],"timestamp_mouse":[10,31,47,67,86,107,126,147,167,186,207,226,246,268,287,306,327,346,368,386,407,426,447,466,487,506,527,548,566,586,607,626,647,667,688,706,726,747,767,786,807,826,846,868,887,908,926,947,967,986,1006,1027,1046,1066,1087,1106,1127,1146,1166,1187,1207,1227,1246,1266,1287,1307,1327,1346,1367,1387,1406,1426,1447,1466,1487,1506,1527,1546,1566,1586,1607,1627,1647,1667,1687,1706,1726,1747,1767,1787,1806,1826,1847,1866,1887,1908,1927,1946,1966,1987,2007,2027,2047,2066],"xSR":741.5,"ySR":573.95,"xT1":424.9,"yT1":0,"xT2":1058.1,"yT2":0,"toosoon":0,"cond_shown":"Incongruent","ratio_trial":300,"L_num":1,"L_den":2,"R_num":3,"R_den":15,"correct_side":1,"subjID":"MARIFERNANDAGONZALEZDURAN16","gender":"1","school":"6","age":"10"},{"start_time":1551900079382,"click_time":1551900080690,"finger_time":1551900080249,"fix_duration":250,"trial":28,"RT":867,"MT":441,"sideResp":2,"stimulus":[],"xmouse":[811,811,811,811,811,811,811,811,811,811,811,811,811,811,811,811,811,811,811,811,811,811,811,811,811,811,811,811,811,811,811,811,811,811,811,811,811,811,811,811,812,823,837,869,892,912,952,968,981,991,997,1017,1042,1055,1065,1072,1083,1085,1088,1091,1097,1100,1103,1106,1108,1108],"ymouse":[634,634,634,634,634,634,634,634,634,634,634,634,634,634,634,634,634,634,634,634,634,634,634,634,634,634,634,634,634,634,634,634,634,634,634,634,634,634,634,634,634,631,627,622,619,616,603,595,584,569,549,481,423,391,365,341,299,279,257,237,191,167,144,121,110,99],"timestamp_mouse":[12,41,48,68,87,109,127,148,169,187,207,229,247,267,287,308,328,348,367,388,409,427,447,467,489,508,527,548,567,588,607,627,647,667,689,707,729,747,768,787,807,828,847,867,887,908,927,947,968,987,1007,1028,1047,1067,1088,1109,1127,1148,1167,1187,1209,1227,1247,1267,1289,1308],"xSR":741.5,"ySR":573.95,"xT1":424.9,"yT1":0,"xT2":1058.1,"yT2":0,"toosoon":0,"cond_shown":"Congruent","ratio_trial":200,"L_num":3,"L_den":10,"R_num":7,"R_den":14,"correct_side":2,"subjID":"MARIFERNANDAGONZALEZDURAN16","gender":"1","school":"6","age":"10"},{"start_time":1551900082957,"click_time":1551900084250,"finger_time":1551900083669,"fix_duration":947.7211522783151,"trial":29,"RT":712,"MT":581,"sideResp":1,"stimulus":[],"xmouse":[796,796,796,796,796,796,796,796,796,796,796,796,796,796,796,796,796,796,796,796,796,796,796,796,796,796,796,796,796,796,796,796,796,789,781,773,753,745,734,723,715,710,698,690,684,678,672,654,644,634,623,597,581,568,550,544,539,537,537,537,537,537,535,529,520],"ymouse":[634,634,634,634,634,634,634,634,634,634,634,634,634,634,634,634,634,634,634,634,634,634,634,634,634,634,634,634,634,634,634,634,634,621,598,568,514,488,465,444,429,419,394,374,357,341,325,282,261,240,219,171,147,123,96,85,76,71,71,71,71,71,71,71,74],"timestamp_mouse":[13,32,53,72,93,114,134,152,173,194,213,232,253,273,292,314,332,352,374,392,412,433,453,472,494,512,533,554,572,593,613,633,652,672,693,712,734,752,772,792,812,832,852,873,892,913,932,952,973,993,1013,1034,1052,1072,1092,1112,1132,1152,1172,1193,1212,1233,1252,1272,1293],"xSR":741.5,"ySR":573.95,"xT1":424.9,"yT1":0,"xT2":1058.1,"yT2":0,"toosoon":0,"cond_shown":"Incongruent","ratio_trial":100,"L_num":11,"L_den":22,"R_num":9,"R_den":15,"correct_side":2,"subjID":"MARIFERNANDAGONZALEZDURAN16","gender":"1","school":"6","age":"10"},{"start_time":1551900086228,"click_time":1551900087710,"finger_time":1551900087371,"fix_duration":537.9988869187562,"trial":30,"RT":1143,"MT":339,"sideResp":1,"stimulus":[],"xmouse":[802,802,802,802,802,802,802,802,802,802,802,802,802,802,802,802,802,802,802,802,802,802,802,802,802,802,802,802,802,802,802,802,802,802,802,802,805,806,809,812,815,815,815,816,816,816,816,816,816,816,816,816,816,816,816,808,794,778,744,644,583,566,553,538,531,524,516,508,501,492,490,487,483,479,466],"ymouse":[630,630,630,630,630,630,630,630,630,630,630,630,630,630,630,630,630,630,630,630,630,630,630,630,630,630,630,630,630,630,630,630,630,630,630,630,627,625,622,619,617,617,617,616,616,616,616,616,616,616,616,616,616,616,616,609,593,570,523,386,315,298,285,256,240,224,206,188,171,150,143,136,131,123,99],"timestamp_mouse":[11,23,45,62,82,102,122,141,162,183,201,222,243,262,282,301,323,342,361,382,403,421,441,461,482,503,521,542,561,582,602,623,642,662,681,702,723,741,763,783,801,821,842,861,883,902,922,943,961,982,1002,1022,1042,1062,1081,1101,1122,1143,1162,1183,1201,1221,1241,1262,1281,1302,1322,1341,1361,1382,1401,1421,1443,1461,1482],"xSR":741.5,"ySR":573.95,"xT1":424.9,"yT1":0,"xT2":1058.1,"yT2":0,"toosoon":0,"cond_shown":"Congruent","ratio_trial":300,"L_num":2,"L_den":10,"R_num":12,"R_den":24,"correct_side":2,"subjID":"MARIFERNANDAGONZALEZDURAN16","gender":"1","school":"6","age":"10"},{"start_time":1551900089362,"click_time":1551900091049,"finger_time":1551900090591,"fix_duration":250,"trial":31,"RT":1229,"MT":458,"sideResp":2,"stimulus":[],"xmouse":[788,788,788,788,788,788,788,788,788,788,788,788,788,788,788,788,788,788,788,788,788,788,788,788,788,788,788,788,788,788,788,788,788,788,788,788,788,788,788,788,788,788,788,788,788,788,788,788,788,788,788,788,788,788,788,788,788,788,790,795,812,861,887,908,933,944,959,966,972,980,989,1004,1032,1043,1051,1053,1055,1058,1059,1061,1062,1065,1067,1069,1074],"ymouse":[606,606,606,606,606,606,606,606,606,606,606,606,606,606,606,606,606,606,606,606,606,606,606,606,606,606,606,606,606,606,606,606,606,606,606,606,606,606,606,606,606,606,606,606,606,606,606,606,606,606,606,606,606,606,606,606,606,607,608,608,608,603,599,596,593,589,580,572,555,529,491,437,332,291,253,237,222,202,193,184,173,148,134,119,96],"timestamp_mouse":[8,32,48,67,87,107,127,148,168,188,207,228,249,267,287,307,327,347,367,388,408,429,447,467,487,509,527,547,567,588,608,628,648,669,689,707,728,747,768,788,807,829,847,868,889,907,928,948,967,988,1009,1028,1049,1068,1089,1108,1127,1148,1167,1187,1208,1229,1247,1267,1288,1308,1328,1347,1367,1388,1407,1427,1448,1468,1487,1508,1527,1547,1568,1588,1608,1628,1647,1667,1687],"xSR":741.5,"ySR":573.95,"xT1":424.9,"yT1":0,"xT2":1058.1,"yT2":0,"toosoon":0,"cond_shown":"Congruent","ratio_trial":300,"L_num":1,"L_den":20,"R_num":7,"R_den":20,"correct_side":2,"subjID":"MARIFERNANDAGONZALEZDURAN16","gender":"1","school":"6","age":"10"},{"start_time":1551900092887,"click_time":1551900094291,"finger_time":1551900093790,"fix_duration":594.0236874350427,"trial":32,"RT":903,"MT":501,"sideResp":2,"stimulus":[],"xmouse":[788,788,788,788,788,788,788,788,788,788,788,788,788,788,788,788,788,788,788,788,788,788,788,788,788,788,788,788,788,788,788,788,788,788,788,788,788,788,788,788,788,789,791,796,802,818,834,841,874,899,924,967,981,992,999,1010,1016,1022,1033,1041,1055,1058,1058,1058,1058,1058,1058,1058,1058,1058,1061],"ymouse":[629,629,629,629,629,629,629,629,629,629,629,629,629,629,629,629,629,629,629,629,629,629,629,629,629,629,629,629,629,629,629,629,629,629,629,629,629,629,629,629,629,625,617,607,592,546,505,492,439,392,344,270,246,226,209,182,169,154,130,115,92,90,90,90,90,90,90,90,90,89,85],"timestamp_mouse":[15,33,43,63,82,102,122,142,162,183,202,223,243,263,283,302,322,343,363,384,403,423,443,463,484,504,523,542,563,582,602,623,643,663,683,703,722,743,764,782,802,824,843,863,883,903,923,943,963,983,1002,1022,1044,1063,1082,1103,1123,1144,1163,1182,1203,1223,1243,1263,1282,1302,1324,1343,1363,1382,1404],"xSR":741.5,"ySR":573.95,"xT1":424.9,"yT1":0,"xT2":1058.1,"yT2":0,"toosoon":0,"cond_shown":"Incongruent","ratio_trial":300,"L_num":4,"L_den":20,"R_num":2,"R_den":4,"correct_side":2,"subjID":"MARIFERNANDAGONZALEZDURAN16","gender":"1","school":"6","age":"10"},{"start_time":1551900095762,"click_time":1551900097150,"finger_time":1551900096729,"fix_duration":250,"trial":33,"RT":967,"MT":421,"sideResp":1,"stimulus":[],"xmouse":[770,770,770,770,770,770,770,770,770,770,770,770,772,772,773,773,773,773,773,773,773,773,773,773,773,773,773,773,773,773,773,773,773,773,773,773,773,773,773,773,773,772,772,772,771,769,756,744,728,706,681,659,621,597,590,572,565,549,543,536,529,524,521,521,521,521,521,519,517,515],"ymouse":[649,649,649,649,649,649,649,649,649,649,649,649,647,646,646,646,646,646,646,646,646,646,646,646,646,646,646,646,646,646,646,646,646,646,646,646,646,646,644,640,639,636,635,635,635,633,615,600,577,555,530,509,472,442,432,401,382,350,336,319,300,279,239,218,186,166,146,111,100,92],"timestamp_mouse":[8,42,49,68,87,108,127,148,168,188,207,229,247,268,289,307,328,348,368,387,408,429,447,468,488,507,527,549,568,587,608,629,647,668,688,708,728,747,767,788,808,828,848,868,887,907,929,947,967,989,1008,1029,1047,1068,1087,1108,1129,1147,1168,1188,1207,1227,1247,1268,1288,1307,1329,1348,1368,1387],"xSR":741.5,"ySR":573.95,"xT1":424.9,"yT1":0,"xT2":1058.1,"yT2":0,"toosoon":0,"cond_shown":"Incongruent","ratio_trial":100,"L_num":3,"L_den":5,"R_num":8,"R_den":16,"correct_side":1,"subjID":"MARIFERNANDAGONZALEZDURAN16","gender":"1","school":"6","age":"10"},{"start_time":1551900099921,"click_time":1551900101450,"finger_time":1551900100970,"fix_duration":250,"trial":34,"RT":1049,"MT":480,"sideResp":1,"stimulus":[],"xmouse":[818,816,816,801,795,793,793,793,793,793,793,793,793,793,793,793,793,793,793,793,793,793,793,793,793,793,793,793,793,793,793,793,793,793,793,793,793,793,793,793,793,793,793,793,793,793,793,793,793,787,769,747,726,675,647,613,561,523,493,450,431,420,410,392,389,385,385,385,388,393,395,397,401,412,415,420,426],"ymouse":[662,660,660,645,642,641,641,641,641,641,641,641,641,641,641,641,641,641,641,641,641,641,641,641,641,641,641,641,641,641,641,641,641,641,641,641,641,641,641,641,641,641,641,641,641,641,641,641,641,636,618,596,572,522,504,477,433,402,375,327,300,276,245,176,149,118,91,59,47,38,37,36,34,29,28,26,26],"timestamp_mouse":[10,35,48,68,89,108,129,149,168,189,208,228,248,268,288,309,328,349,368,390,409,429,448,468,488,509,529,548,569,588,608,628,648,670,688,709,728,749,769,788,808,830,849,870,888,908,928,949,969,989,1008,1029,1049,1069,1088,1109,1129,1150,1168,1188,1209,1228,1248,1269,1288,1309,1328,1349,1368,1389,1409,1430,1449,1469,1488,1508,1529],"xSR":741.5,"ySR":573.95,"xT1":424.9,"yT1":0,"xT2":1058.1,"yT2":0,"toosoon":0,"cond_shown":"Incongruent","ratio_trial":300,"L_num":4,"L_den":5,"R_num":8,"R_den":16,"correct_side":1,"subjID":"MARIFERNANDAGONZALEZDURAN16","gender":"1","school":"6","age":"10"},{"start_time":1551900104239,"click_time":1551900105511,"finger_time":1551900105170,"fix_duration":1468.68339550366,"trial":35,"RT":931,"MT":341,"sideResp":1,"stimulus":[],"xmouse":[785,785,785,785,785,785,785,785,785,785,785,785,785,785,785,785,785,785,785,785,785,785,785,785,785,785,785,785,785,785,785,785,785,785,785,785,785,785,785,785,785,785,785,785,782,778,768,755,725,710,692,680,672,653,645,640,635,626,620,607,596,581,562,484],"ymouse":[596,596,596,596,596,596,596,596,596,596,596,596,596,596,596,596,596,596,596,596,596,596,596,596,596,596,596,596,596,596,596,596,596,596,596,596,596,596,596,596,596,596,596,596,586,576,553,531,485,459,421,394,373,328,306,286,270,240,224,199,182,165,146,81],"timestamp_mouse":[10,32,52,70,90,112,130,151,170,190,210,232,251,271,290,311,330,350,371,390,410,430,450,471,491,511,531,550,571,590,611,630,650,671,690,710,731,751,770,791,811,831,850,872,890,911,931,950,970,990,1011,1031,1051,1070,1090,1111,1130,1150,1170,1190,1210,1230,1250,1271],"xSR":741.5,"ySR":573.95,"xT1":424.9,"yT1":0,"xT2":1058.1,"yT2":0,"toosoon":0,"cond_shown":"Congruent","ratio_trial":100,"L_num":7,"L_den":14,"R_num":15,"R_den":25,"correct_side":2,"subjID":"MARIFERNANDAGONZALEZDURAN16","gender":"1","school":"6","age":"10"},{"start_time":1551900107621,"click_time":1551900110190,"finger_time":1551900108309,"fix_duration":1029.2112096098795,"trial":36,"RT":688,"MT":1881,"sideResp":1,"stimulus":[],"xmouse":[802,802,802,802,802,802,802,802,802,802,802,802,802,802,802,802,802,802,802,802,802,802,802,802,802,802,802,802,802,802,802,804,812,821,845,856,864,870,875,880,882,882,882,882,882,882,882,882,882,882,882,882,882,882,882,882,882,882,882,882,882,882,882,882,882,882,882,882,882,882,882,882,882,882,882,882,882,882,882,882,882,882,882,882,882,882,882,882,882,882,882,882,882,882,882,882,882,882,882,882,882,882,882,882,874,866,851,835,791,763,707,685,616,531,498,478,467,462,457,457,457,457,457,457,458,460,464,471,476],"ymouse":[625,625,625,625,625,625,625,625,625,625,625,625,625,625,625,625,625,625,625,625,625,625,625,625,625,625,625,625,625,625,625,626,620,611,594,586,579,573,567,560,559,559,558,558,558,558,558,558,558,558,558,558,558,558,558,558,558,558,558,558,558,558,558,558,558,558,558,558,558,558,558,558,558,558,558,558,558,558,558,558,558,558,558,558,558,558,558,558,558,558,558,558,558,558,558,558,558,558,558,558,558,558,558,558,541,529,512,496,463,443,402,386,336,280,256,242,232,226,214,209,205,194,184,162,149,134,117,101,90],"timestamp_mouse":[8,36,48,69,88,109,130,149,169,189,208,228,248,270,289,308,329,349,369,388,408,428,449,468,488,509,528,550,568,588,608,628,649,668,688,708,729,749,768,788,809,829,848,869,888,909,928,948,969,988,1009,1029,1050,1069,1088,1108,1128,1149,1169,1188,1209,1229,1249,1270,1288,1309,1330,1349,1368,1389,1408,1430,1449,1468,1488,1509,1528,1550,1569,1588,1609,1628,1649,1669,1690,1708,1728,1749,1770,1788,1808,1829,1849,1869,1888,1908,1930,1949,1968,1989,2009,2029,2049,2068,2088,2109,2130,2149,2169,2188,2208,2230,2249,2269,2288,2309,2328,2349,2369,2388,2409,2428,2448,2468,2488,2509,2528,2549,2569],"xSR":741.5,"ySR":573.95,"xT1":424.9,"yT1":0,"xT2":1058.1,"yT2":0,"toosoon":0,"cond_shown":"Congruent","ratio_trial":300,"L_num":1,"L_den":3,"R_num":19,"R_den":30,"correct_side":2,"subjID":"MARIFERNANDAGONZALEZDURAN16","gender":"1","school":"6","age":"10"},{"start_time":1551900112500,"click_time":1551900113989,"finger_time":1551900113570,"fix_duration":627.1056966134325,"trial":37,"RT":1070,"MT":419,"sideResp":1,"stimulus":[],"xmouse":[817,817,817,817,816,814,812,811,811,810,810,810,810,810,810,810,810,810,810,810,810,808,806,805,803,803,803,803,803,803,803,803,803,803,803,803,803,803,803,803,803,803,803,803,803,803,803,803,803,803,800,793,785,773,755,713,686,658,630,615,609,604,600,595,587,586,584,584,583,576,572,564,557,547,524],"ymouse":[621,621,621,621,617,617,616,616,616,616,616,616,616,616,616,616,616,616,616,616,616,616,616,616,616,616,616,616,616,616,616,616,616,616,616,616,616,616,616,616,616,616,616,616,616,616,616,616,616,616,615,599,579,549,494,355,281,219,155,109,89,71,56,41,21,18,16,16,15,15,15,18,20,23,30],"timestamp_mouse":[10,37,49,69,89,109,129,150,169,188,210,228,249,269,290,310,328,350,369,390,408,428,450,470,489,509,529,548,568,589,610,628,648,668,689,709,729,749,769,789,809,830,849,870,889,909,929,949,968,990,1008,1029,1049,1070,1088,1108,1135,1148,1168,1189,1208,1229,1249,1269,1289,1309,1329,1348,1369,1389,1408,1429,1449,1469,1489],"xSR":741.5,"ySR":573.95,"xT1":424.9,"yT1":0,"xT2":1058.1,"yT2":0,"toosoon":0,"cond_shown":"Incongruent","ratio_trial":200,"L_num":7,"L_den":10,"R_num":14,"R_den":28,"correct_side":1,"subjID":"MARIFERNANDAGONZALEZDURAN16","gender":"1","school":"6","age":"10"},{"start_time":1551900115528,"click_time":1551900116748,"finger_time":1551900116209,"fix_duration":418.816837379236,"trial":38,"RT":681,"MT":539,"sideResp":1,"stimulus":[],"xmouse":[802,802,802,802,802,802,802,802,802,802,802,802,802,802,802,802,802,802,802,802,802,802,802,802,802,802,802,802,802,802,802,802,802,789,777,763,748,727,707,701,695,690,684,678,661,652,640,621,591,574,557,545,534,523,521,520,517,514,506,503,502,501],"ymouse":[609,609,609,609,609,609,609,609,609,609,609,609,609,609,609,609,609,609,609,609,609,609,609,609,609,609,609,609,609,609,609,609,603,576,549,517,484,446,410,398,389,377,368,356,326,309,288,257,215,194,176,160,149,136,133,130,126,121,106,103,100,98],"timestamp_mouse":[8,32,40,61,81,100,121,141,161,181,200,222,240,260,280,301,321,342,361,381,401,422,442,461,481,500,520,541,561,581,600,621,640,660,681,701,721,740,760,780,801,820,840,861,882,901,921,940,961,982,1000,1022,1040,1060,1081,1101,1120,1140,1161,1180,1201,1220],"xSR":741.5,"ySR":573.95,"xT1":424.9,"yT1":0,"xT2":1058.1,"yT2":0,"toosoon":0,"cond_shown":"Incongruent","ratio_trial":200,"L_num":4,"L_den":6,"R_num":14,"R_den":30,"correct_side":1,"subjID":"MARIFERNANDAGONZALEZDURAN16","gender":"1","school":"6","age":"10"},{"start_time":1551900118000,"click_time":1551900118989,"finger_time":1551900118728,"fix_duration":250,"trial":39,"RT":728,"MT":261,"sideResp":1,"stimulus":[],"xmouse":[787,787,787,787,787,787,787,787,787,787,787,787,787,787,787,787,787,787,787,787,787,787,787,787,787,787,787,787,787,787,787,787,787,788,774,758,732,700,629,597,570,546,524,504,495,487,480,476,468],"ymouse":[631,631,631,631,631,631,631,631,631,631,631,631,631,631,631,631,631,631,631,631,631,631,631,631,631,631,631,631,631,631,631,631,631,629,598,565,522,469,370,324,287,254,221,181,163,142,123,108,83],"timestamp_mouse":[29,49,68,90,108,128,148,169,189,210,228,250,268,290,308,328,350,370,389,409,428,449,470,489,509,528,550,568,590,609,628,649,668,688,710,728,749,768,789,809,828,849,868,888,908,930,949,969,989],"xSR":741.5,"ySR":573.95,"xT1":424.9,"yT1":0,"xT2":1058.1,"yT2":0,"toosoon":0,"cond_shown":"Incongruent","ratio_trial":300,"L_num":4,"L_den":5,"R_num":6,"R_den":12,"correct_side":1,"subjID":"MARIFERNANDAGONZALEZDURAN16","gender":"1","school":"6","age":"10"},{"start_time":1551900120589,"click_time":1551900123089,"finger_time":1551900122690,"fix_duration":700.6477440110914,"trial":40,"RT":2101,"MT":399,"sideResp":2,"stimulus":[],"xmouse":[774,774,774,774,774,774,774,774,774,774,774,774,774,774,774,774,774,774,774,774,774,774,774,774,774,774,774,774,774,774,774,774,774,774,774,774,774,774,774,774,774,774,774,774,774,774,774,774,774,774,774,774,774,774,774,774,774,774,774,774,774,774,774,774,774,774,774,774,774,774,774,774,774,774,774,774,774,774,774,774,774,774,774,774,774,774,774,774,774,774,774,774,774,774,774,774,774,774,774,774,780,788,796,804,812,840,857,878,905,935,993,1011,1029,1048,1064,1094,1108,1116,1124,1129,1136,1136,1136,1136,1136],"ymouse":[630,630,630,630,630,630,630,630,630,630,630,630,630,630,630,630,630,630,630,630,630,630,630,630,630,630,630,630,630,630,630,630,630,630,630,630,630,630,630,630,630,630,630,630,630,630,630,630,630,630,630,630,630,630,630,630,630,630,630,630,630,630,630,630,630,630,630,630,630,630,630,630,630,630,630,630,630,630,630,630,630,630,630,630,630,630,630,630,630,630,630,630,630,630,630,630,630,630,630,630,623,608,595,580,567,520,493,462,419,377,311,296,282,266,248,209,187,167,148,131,107,104,103,100,96],"timestamp_mouse":[35,40,59,80,99,120,139,160,180,200,219,239,261,279,300,319,339,361,379,400,419,440,461,480,501,520,539,560,580,599,620,640,661,679,699,721,739,759,780,800,819,840,861,880,901,919,941,959,979,1000,1020,1040,1059,1079,1099,1121,1139,1159,1179,1201,1221,1240,1261,1279,1301,1321,1339,1360,1379,1400,1419,1440,1460,1481,1501,1520,1540,1559,1581,1600,1621,1640,1659,1681,1699,1719,1741,1760,1781,1800,1819,1840,1861,1880,1900,1921,1940,1961,1981,2000,2019,2041,2059,2080,2101,2119,2139,2160,2180,2201,2220,2240,2260,2281,2299,2319,2341,2360,2380,2400,2420,2439,2459,2479,2499],"xSR":741.5,"ySR":573.95,"xT1":424.9,"yT1":0,"xT2":1058.1,"yT2":0,"toosoon":0,"cond_shown":"Congruent","ratio_trial":200,"L_num":7,"L_den":15,"R_num":18,"R_den":27,"correct_side":2,"subjID":"MARIFERNANDAGONZALEZDURAN16","gender":"1","school":"6","age":"10"},{"start_time":1551900125278,"click_time":1551900126530,"finger_time":1551900126268,"fix_duration":1269.729440498792,"trial":41,"RT":990,"MT":262,"sideResp":1,"stimulus":[],"xmouse":[792,792,792,792,792,792,792,792,792,792,792,792,792,792,792,792,792,792,792,792,792,792,792,792,792,790,778,775,773,772,771,771,771,771,771,771,771,771,771,771,771,771,771,771,769,768,763,756,749,738,727,702,683,654,618,587,536,516,507,502,497,492,488],"ymouse":[649,649,649,649,649,649,649,649,649,649,649,649,649,649,649,649,649,649,649,649,649,649,649,649,649,648,647,647,647,646,646,646,646,646,646,646,646,646,646,646,646,646,646,646,646,644,639,633,627,617,607,571,546,509,464,413,325,264,227,193,162,113,89],"timestamp_mouse":[10,31,51,70,90,111,131,150,172,191,211,230,251,270,290,310,330,350,371,391,411,430,451,472,490,510,531,551,571,591,610,631,650,670,691,710,732,750,771,791,810,830,852,871,890,912,930,950,972,990,1011,1030,1050,1071,1091,1110,1130,1151,1170,1191,1211,1231,1252],"xSR":741.5,"ySR":573.95,"xT1":424.9,"yT1":0,"xT2":1058.1,"yT2":0,"toosoon":0,"cond_shown":"Incongruent","ratio_trial":100,"L_num":10,"L_den":25,"R_num":8,"R_den":16,"correct_side":2,"subjID":"MARIFERNANDAGONZALEZDURAN16","gender":"1","school":"6","age":"10"},{"start_time":1551900129088,"click_time":1551900132589,"finger_time":1551900130969,"fix_duration":1378.8332225164345,"trial":42,"RT":1881,"MT":1620,"sideResp":1,"stimulus":[],"xmouse":[823,823,823,823,823,823,823,823,823,823,823,823,823,823,823,823,823,823,823,823,823,823,823,823,823,823,823,823,823,823,823,823,823,823,823,823,823,823,823,823,823,823,823,823,823,823,823,823,823,823,823,823,823,823,823,823,823,823,823,823,823,823,823,823,823,823,823,823,823,823,823,823,823,823,823,823,823,823,823,823,823,823,823,823,823,823,823,823,823,823,823,823,826,833,840,854,886,891,892,893,893,893,893,893,894,895,895,895,895,895,895,895,895,895,895,895,895,895,895,895,895,895,895,895,895,895,895,895,895,895,895,895,895,895,895,895,899,901,902,903,904,904,905,905,905,905,905,905,905,905,902,881,870,855,836,804,734,689,664,643,625,585,567,551,533,518,504,501,500,499,499,497,496,495,491,489],"ymouse":[619,619,619,619,619,619,619,619,619,619,619,619,619,619,619,619,619,619,619,619,619,619,619,619,619,619,619,619,619,619,619,619,619,619,619,619,619,619,619,619,619,619,619,619,619,619,619,619,619,619,619,619,619,619,619,619,619,619,619,619,619,619,619,619,619,619,619,619,619,619,619,619,619,619,619,619,619,619,619,619,619,619,619,619,619,619,619,619,619,619,619,616,596,574,552,518,453,443,438,436,436,436,436,436,434,431,431,431,431,431,431,431,431,431,431,431,431,431,431,431,431,431,431,431,431,431,431,431,431,431,431,431,431,431,431,430,423,422,420,418,418,417,416,416,416,416,416,416,416,414,412,405,401,395,385,372,348,328,317,308,300,272,250,229,209,188,164,155,146,139,133,122,118,112,103,95],"timestamp_mouse":[8,34,40,61,82,100,122,141,160,181,200,221,240,262,280,300,321,341,360,382,401,420,441,460,480,501,520,540,561,580,601,620,641,660,681,700,721,741,760,780,801,822,840,861,881,900,920,941,960,980,1001,1021,1041,1061,1082,1101,1121,1142,1161,1182,1201,1222,1240,1261,1281,1300,1320,1342,1361,1381,1402,1420,1440,1461,1480,1500,1522,1541,1560,1581,1602,1620,1641,1660,1680,1700,1722,1740,1760,1780,1800,1822,1841,1860,1881,1900,1920,1941,1960,1982,2001,2020,2040,2061,2082,2101,2120,2140,2161,2180,2201,2220,2241,2262,2280,2301,2321,2341,2361,2380,2400,2421,2442,2461,2482,2501,2521,2541,2561,2580,2601,2622,2641,2661,2681,2700,2721,2742,2761,2780,2801,2821,2852,2861,2881,2902,2922,2941,2960,2980,3000,3021,3042,3061,3081,3101,3120,3141,3161,3181,3201,3220,3241,3261,3282,3301,3321,3341,3362,3380,3401,3422,3442,3461,3480,3501],"xSR":741.5,"ySR":573.95,"xT1":424.9,"yT1":0,"xT2":1058.1,"yT2":0,"toosoon":0,"cond_shown":"Incongruent","ratio_trial":300,"L_num":3,"L_den":6,"R_num":4,"R_den":20,"correct_side":1,"subjID":"MARIFERNANDAGONZALEZDURAN16","gender":"1","school":"6","age":"10"},{"start_time":1551900150331,"click_time":1551900152049,"finger_time":1551900151668,"fix_duration":900.6001362701153,"trial":43,"RT":1337,"MT":381,"sideResp":2,"stimulus":[],"xmouse":[821,821,821,821,821,821,821,821,821,821,821,821,821,821,821,821,821,821,821,821,821,821,821,821,821,821,821,821,821,821,821,821,821,821,821,821,821,821,821,821,821,821,821,821,821,821,821,821,821,821,821,821,821,821,821,821,821,821,821,821,821,821,821,823,827,836,850,906,934,962,982,999,1020,1026,1031,1048,1061,1085,1092,1096,1100,1102,1106,1107,1109,1113],"ymouse":[647,647,647,647,647,647,647,647,647,647,647,647,647,647,647,647,647,647,647,647,647,647,647,647,647,647,647,647,647,647,647,647,647,647,647,647,647,647,647,647,647,647,647,647,647,647,647,647,647,647,647,647,647,647,647,647,647,647,647,647,647,647,647,647,638,621,595,515,472,433,405,386,352,333,314,281,260,226,210,196,181,167,143,134,120,93],"timestamp_mouse":[18,38,58,79,98,118,139,157,179,198,218,238,259,277,298,319,337,357,379,397,418,438,459,477,497,519,537,559,577,597,618,637,657,677,698,717,739,757,778,798,817,839,858,877,898,918,939,957,979,998,1019,1038,1059,1078,1098,1118,1137,1159,1178,1199,1217,1237,1259,1277,1297,1319,1337,1359,1377,1399,1418,1439,1459,1477,1498,1517,1537,1558,1577,1599,1617,1638,1659,1678,1697,1718],"xSR":741.5,"ySR":573.95,"xT1":424.9,"yT1":0,"xT2":1058.1,"yT2":0,"toosoon":0,"cond_shown":"Incongruent","ratio_trial":200,"L_num":11,"L_den":20,"R_num":3,"R_den":4,"correct_side":2,"subjID":"MARIFERNANDAGONZALEZDURAN16","gender":"1","school":"6","age":"10"},{"start_time":1551900157149,"click_time":1551900159048,"finger_time":1551900158368,"fix_duration":759.0719557415049,"trial":44,"RT":1219,"MT":680,"sideResp":2,"stimulus":[],"xmouse":[759,759,759,759,759,759,759,759,759,759,759,759,759,759,759,759,759,759,759,759,759,759,759,759,759,759,759,759,759,759,759,759,759,759,759,759,759,759,759,759,759,759,759,759,759,759,759,759,759,759,759,759,759,759,759,759,759,762,770,775,782,795,857,891,935,983,1038,1132,1166,1196,1211,1219,1220,1220,1220,1221,1223,1228,1230,1230,1230,1230,1225,1223,1223,1222,1222,1219,1216,1210,1200,1194,1177,1168,1158],"ymouse":[626,626,626,626,626,626,626,626,626,626,626,626,626,626,626,626,626,626,626,626,626,626,626,626,626,626,626,626,626,626,626,626,626,626,626,626,626,626,626,626,626,626,626,626,626,626,626,626,626,626,626,626,626,626,626,626,626,617,602,585,564,535,388,308,213,108,9,0,0,0,0,0,0,0,0,1,11,29,35,41,46,49,55,56,57,57,57,57,57,56,53,52,52,52,55],"timestamp_mouse":[19,42,59,80,100,119,139,160,180,199,220,241,259,279,299,320,339,361,379,401,421,439,460,480,500,519,539,559,580,600,619,641,660,680,701,721,739,760,779,799,820,839,861,880,901,919,940,961,980,999,1020,1040,1061,1080,1101,1120,1140,1159,1179,1200,1219,1240,1259,1280,1300,1319,1339,1360,1379,1399,1420,1439,1459,1479,1500,1519,1539,1560,1579,1600,1621,1640,1660,1680,1700,1719,1739,1759,1780,1801,1821,1841,1859,1880,1899],"xSR":741.5,"ySR":573.95,"xT1":424.9,"yT1":0,"xT2":1058.1,"yT2":0,"toosoon":0,"cond_shown":"Congruent","ratio_trial":300,"L_num":5,"L_den":25,"R_num":7,"R_den":14,"correct_side":2,"subjID":"MARIFERNANDAGONZALEZDURAN16","gender":"1","school":"6","age":"10"},{"start_time":1551900162473,"click_time":1551900165249,"finger_time":1551900164429,"fix_duration":1062.6781005774944,"trial":45,"RT":1956,"MT":820,"sideResp":2,"stimulus":[],"xmouse":[819,819,819,819,819,819,819,819,819,819,819,819,819,819,819,819,819,819,819,819,819,819,819,819,819,819,819,819,819,819,819,819,819,819,819,819,819,819,819,819,819,819,819,819,819,819,819,819,819,819,819,819,819,819,819,819,819,819,819,819,819,819,819,819,819,819,819,819,819,819,819,819,819,819,819,819,819,819,819,819,819,819,819,819,819,819,819,819,819,819,819,819,819,819,819,819,819,908,908,908,908,908,908,908,908,908,908,908,908,908,908,908,908,908,908,908,908,910,912,916,919,927,931,935,940,945,959,965,970,973,978,990,996,1001,1006,1013,1039,1048,1061],"ymouse":[634,634,634,634,634,634,634,634,634,634,634,634,634,634,634,634,634,634,634,634,634,634,634,634,634,634,634,634,634,634,634,634,634,634,634,634,634,634,634,634,634,634,634,634,634,634,634,634,634,634,634,634,634,634,634,634,634,634,634,634,634,634,634,634,634,634,634,634,634,634,634,634,634,634,634,634,634,634,634,634,634,634,634,634,634,634,634,634,634,634,634,634,634,634,634,634,634,646,646,646,646,646,646,646,646,646,646,646,646,646,646,646,646,646,646,646,646,640,629,618,608,585,572,554,535,516,468,449,431,416,399,355,331,307,280,241,141,108,76],"timestamp_mouse":[15,36,57,76,96,116,137,156,176,196,216,236,256,276,296,315,337,355,376,397,415,436,456,475,496,516,535,555,576,597,615,635,655,675,696,715,736,756,775,796,815,835,856,875,896,915,935,955,975,995,1017,1036,1055,1075,1096,1116,1135,1156,1175,1197,1215,1236,1255,1277,1295,1315,1335,1355,1375,1396,1417,1435,1455,1476,1495,1516,1536,1557,1576,1596,1616,1636,1656,1675,1695,1715,1737,1755,1775,1797,1815,1836,1855,1875,1896,1916,1935,1956,1976,1996,2015,2036,2056,2077,2097,2116,2137,2156,2177,2197,2215,2235,2256,2275,2295,2315,2336,2355,2376,2395,2415,2436,2457,2476,2497,2516,2536,2556,2577,2596,2617,2635,2656,2676,2696,2716,2736,2756,2776],"xSR":741.5,"ySR":573.95,"xT1":424.9,"yT1":0,"xT2":1058.1,"yT2":0,"toosoon":0,"cond_shown":"Congruent","ratio_trial":300,"L_num":7,"L_den":14,"R_num":20,"R_den":25,"correct_side":2,"subjID":"MARIFERNANDAGONZALEZDURAN16","gender":"1","school":"6","age":"10"},{"start_time":1551900170589,"click_time":1551900172909,"finger_time":1551900170708,"fix_duration":559.0794157283106,"trial":46,"RT":119,"MT":2201,"sideResp":1,"stimulus":[],"xmouse":[795,796,805,805,824,835,850,857,861,866,870,879,882,883,884,885,888,890,894,897,898,899,899,899,899,899,899,899,899,899,899,896,892,887,883,878,868,864,862,861,859,854,852,850,847,840,822,814,806,803,801,801,801,801,801,801,801,801,801,801,801,801,801,801,799,798,796,795,794,793,792,790,790,790,790,790,790,790,790,789,788,788,786,785,784,783,780,777,775,775,775,775,775,775,774,773,759,746,717,680,637,519,487,461,444,436,430,429,429,429,429,429,429,429,429,431,435],"ymouse":[621,621,620,620,612,607,599,596,594,592,590,584,582,581,579,578,575,570,567,564,563,562,562,562,562,562,562,562,562,562,562,565,568,571,573,575,579,582,583,585,586,590,591,592,594,598,605,608,612,613,614,614,614,614,614,614,614,614,614,614,614,614,614,614,614,614,614,614,614,614,614,614,614,614,614,614,614,614,614,615,615,615,616,616,616,616,616,617,617,617,617,617,617,617,617,617,595,575,536,491,452,350,310,267,229,199,148,132,123,118,116,107,106,104,104,102,94],"timestamp_mouse":[8,20,51,59,80,100,119,139,160,181,199,220,240,260,279,299,320,340,360,380,399,419,441,459,480,499,519,541,561,580,600,620,640,659,680,699,720,740,759,781,799,819,840,860,879,900,920,939,960,980,1000,1019,1040,1059,1080,1099,1120,1140,1159,1180,1201,1219,1239,1260,1279,1299,1319,1339,1361,1380,1399,1420,1440,1459,1479,1501,1520,1541,1559,1579,1600,1621,1640,1659,1679,1699,1719,1740,1759,1779,1799,1819,1841,1860,1879,1899,1920,1941,1961,1980,2000,2020,2041,2060,2081,2101,2120,2141,2160,2181,2200,2221,2240,2260,2280,2302,2320],"xSR":741.5,"ySR":573.95,"xT1":424.9,"yT1":0,"xT2":1058.1,"yT2":0,"toosoon":0,"cond_shown":"Incongruent","ratio_trial":200,"L_num":4,"L_den":5,"R_num":6,"R_den":10,"correct_side":1,"subjID":"MARIFERNANDAGONZALEZDURAN16","gender":"1","school":"6","age":"10"},{"start_time":1551900182264,"click_time":1551900184249,"finger_time":1551900183650,"fix_duration":633.6565784075929,"trial":47,"RT":1386,"MT":599,"sideResp":2,"stimulus":[],"xmouse":[800,800,800,800,800,800,800,800,800,800,800,800,800,800,800,800,800,800,800,800,800,800,800,800,800,800,800,800,800,800,800,800,800,800,800,799,798,789,787,785,785,785,785,785,785,785,785,785,785,785,785,785,785,785,785,785,785,785,785,785,785,785,785,785,785,785,785,793,799,805,812,820,850,881,902,916,931,962,974,982,991,996,1014,1022,1034,1042,1046,1050,1050,1050,1050,1049,1044,1044,1044,1044,1047,1052,1058,1064],"ymouse":[655,655,655,655,655,655,655,655,655,655,655,655,655,655,655,655,655,655,655,655,655,655,655,655,655,655,655,655,655,655,655,655,655,655,655,655,651,636,632,630,630,630,630,630,630,630,630,630,630,630,630,630,630,630,630,630,630,630,630,630,630,630,630,630,630,630,630,605,588,573,559,544,496,461,433,411,389,332,311,294,280,271,247,231,213,193,173,147,138,136,132,130,117,110,105,98,91,78,69,61],"timestamp_mouse":[10,27,46,65,85,105,126,145,166,185,206,225,246,265,285,305,326,346,365,385,405,426,445,465,485,506,525,545,565,585,605,625,646,666,686,706,725,745,765,786,805,825,845,865,885,905,925,946,965,986,1005,1026,1046,1066,1086,1107,1126,1145,1166,1186,1205,1225,1247,1265,1285,1306,1325,1345,1366,1386,1405,1427,1445,1466,1485,1506,1526,1545,1566,1585,1606,1626,1646,1666,1685,1705,1726,1745,1765,1785,1806,1825,1845,1865,1885,1905,1926,1945,1966,1985],"xSR":741.5,"ySR":573.95,"xT1":424.9,"yT1":0,"xT2":1058.1,"yT2":0,"toosoon":0,"cond_shown":"Incongruent","ratio_trial":300,"L_num":4,"L_den":20,"R_num":2,"R_den":4,"correct_side":2,"subjID":"MARIFERNANDAGONZALEZDURAN16","gender":"1","school":"6","age":"10"},{"start_time":1551900191222,"click_time":1551900192650,"finger_time":1551900192109,"fix_duration":1010.8140035081503,"trial":48,"RT":887,"MT":541,"sideResp":1,"stimulus":[],"xmouse":[776,776,776,776,776,776,776,776,776,776,776,776,776,776,776,776,776,776,777,782,783,784,784,784,784,784,784,784,784,784,784,784,784,784,784,784,784,784,784,784,784,783,779,773,746,729,708,695,689,680,677,672,667,660,645,638,629,613,606,579,557,544,534,527,517,516,515,512,506,484,468,458],"ymouse":[621,621,621,621,621,621,621,621,621,621,621,621,621,621,621,621,621,621,617,607,603,602,601,601,601,601,601,601,601,601,601,601,601,601,601,601,600,599,598,597,595,592,586,578,547,532,515,503,498,487,480,472,464,454,434,426,415,392,384,345,315,296,279,262,233,220,205,190,172,130,101,82],"timestamp_mouse":[10,35,48,67,87,108,129,147,167,187,208,227,247,267,288,307,327,347,368,387,407,427,447,467,488,507,529,547,567,588,607,628,647,667,688,707,728,747,768,787,807,827,847,867,887,907,928,949,968,987,1009,1027,1047,1067,1088,1107,1127,1147,1167,1189,1208,1228,1247,1268,1287,1307,1327,1347,1368,1387,1407,1428],"xSR":741.5,"ySR":573.95,"xT1":424.9,"yT1":0,"xT2":1058.1,"yT2":0,"toosoon":0,"cond_shown":"Incongruent","ratio_trial":200,"L_num":4,"L_den":6,"R_num":14,"R_den":30,"correct_side":1,"subjID":"MARIFERNANDAGONZALEZDURAN16","gender":"1","school":"6","age":"10"},{"start_time":1551900195850,"click_time":1551900197429,"finger_time":1551900196829,"fix_duration":1458.9901373180244,"trial":49,"RT":979,"MT":600,"sideResp":2,"stimulus":[],"xmouse":[786,786,786,786,786,786,786,786,786,786,786,786,786