[{"start_time":1551901453864,"click_time":1551901456913,"finger_time":1551901453874,"fix_duration":1406.4481998710821,"trial":0,"RT":10,"MT":3039,"sideResp":1,"stimulus":"img/900/randomdotsizeEA/L/2_Ratio_900_L_20_R_18.png","xmouse":[798,798,798,798,798,798,798,798,798,798,798,798,798,798,798,798,798,798,798,798,798,798,798,798,798,798,798,798,798,798,798,798,798,798,798,798,798,798,798,798,798,797,797,797,797,797,796,795,795,795,795,795,795,795,795,795,795,795,795,795,795,795,795,795,795,795,795,795,795,795,795,795,795,795,795,795,795,795,795,795,795,795,795,795,795,795,795,795,795,795,795,795,795,795,795,795,795,795,795,795,795,795,795,795,795,795,795,800,806,809,813,815,818,818,818,818,818,818,818,819,819,819,819,819,819,819,819,819,819,818,816,812,806,802,790,780,770,739,719,691,665,646,622,614,607,602,592,573,562,554,541,527,494],"ymouse":[478,478,478,478,478,478,478,478,478,478,478,480,484,485,486,486,486,486,486,486,486,486,486,486,486,486,486,486,486,486,486,486,486,486,486,486,486,486,486,488,490,496,497,497,497,497,500,507,510,514,517,518,519,519,519,519,519,519,519,519,519,519,519,519,519,519,519,519,519,519,519,519,519,519,519,519,521,526,527,529,531,534,537,538,538,539,539,542,543,543,543,543,543,543,543,543,543,543,543,543,543,543,543,543,543,543,544,543,540,537,534,532,529,529,528,528,528,528,528,527,527,526,526,526,526,526,526,526,521,515,507,498,475,459,430,407,380,312,266,227,198,177,150,141,134,130,122,106,96,88,78,68,47],"timestamp_mouse":[9,29,49,69,89,109,129,149,169,189,210,229,249,270,289,309,330,350,369,390,410,429,450,470,489,510,529,549,569,590,610,629,649,669,688,710,729,750,770,789,810,830,848,869,889,910,929,950,969,990,1009,1028,1049,1070,1090,1109,1129,1149,1168,1190,1209,1230,1249,1269,1290,1310,1330,1350,1369,1390,1410,1430,1449,1469,1489,1508,1529,1550,1569,1590,1609,1629,1649,1669,1689,1709,1728,1749,1770,1790,1809,1829,1850,1868,1889,1909,1930,1949,1970,1989,2010,2030,2049,2069,2089,2110,2129,2150,2169,2190,2210,2230,2249,2269,2290,2310,2329,2350,2369,2390,2409,2429,2450,2469,2489,2510,2530,2550,2569,2589,2609,2629,2649,2669,2689,2708,2730,2750,2769,2790,2810,2829,2849,2869,2889,2910,2929,2949,2969,2989,3009,3030,3048],"xSR":741.5,"ySR":449.15000000000003,"xT1":424.9,"yT1":0,"xT2":1058.1,"yT2":0,"toosoon":0,"cond_shown":"randomdotsizeEA","ratio_trial":900,"smaller_num":"18","larger_num":"20","correct_side":1,"subjID":"MARIAFERNANDAGONZALEZ","gender":"1","age":"10","school":"6","test":{"fix_dur":[250,1500],"timestim":300,"targets_dim":[100,100],"targets_relative_coord":[0.3,0.7],"size_stim":[880,420],"start_dim":[100,100],"size_start":[300,300],"size_fix":60,"samplingrate":20,"img_types":["equaldotsize","equaldotanddens","randomdotsizeEA"],"ratios":[250,500,750,900],"rep_conds":9,"nTrials":120,"trials_to_rest":500,"Trials_order":[11,48,1,34,86,105,45,28,29,60,38,8,5,109,58,7,17,31,80,10,4,67,72,95,21,118,83,44,93,82,79,0,115,23,84,25,57,55,102,76,50,113,52,12,36,119,110,94,26,73,51,47,107,16,116,24,20,59,87,117,64,78,63,13,99,97,43,91,42,106,68,92,81,32,56,22,66,75,111,103,71,89,104,14,37,35,27,54,74,108,112,70,96,41,100,69,39,88,18,61,49,77,6,40,62,19,30,65,90,33,9,114,3,2,98,53,15,46,85,101],"cond_shown":["randomdotsizeEA","equaldotsize","equaldotanddens","equaldotanddens","randomdotsizeEA","equaldotsize","equaldotsize","equaldotanddens","randomdotsizeEA","equaldotsize","randomdotsizeEA","randomdotsizeEA","randomdotsizeEA","equaldotanddens","equaldotanddens","equaldotanddens","randomdotsizeEA","equaldotanddens","randomdotsizeEA","equaldotanddens","equaldotanddens","equaldotanddens","equaldotsize","randomdotsizeEA","equaldotsize","equaldotanddens","randomdotsizeEA","randomdotsizeEA","equaldotsize","equaldotanddens","equaldotanddens","equaldotsize","equaldotanddens","randomdotsizeEA","equaldotsize","equaldotanddens","equaldotsize","equaldotanddens","equaldotsize","equaldotanddens","randomdotsizeEA","randomdotsizeEA","equaldotanddens","equaldotsize","equaldotsize","randomdotsizeEA","randomdotsizeEA","equaldotanddens","randomdotsizeEA","equaldotanddens","equaldotsize","randomdotsizeEA","randomdotsizeEA","equaldotanddens","randomdotsizeEA","equaldotsize","randomdotsizeEA","randomdotsizeEA","equaldotsize","equaldotsize","equaldotanddens","equaldotsize","equaldotsize","equaldotanddens","equaldotsize","equaldotanddens","equaldotanddens","equaldotanddens","equaldotsize","equaldotanddens","randomdotsizeEA","randomdotsizeEA","equaldotsize","randomdotsizeEA","randomdotsizeEA","equaldotanddens","equaldotsize","equaldotsize","equaldotsize","equaldotanddens","randomdotsizeEA","randomdotsizeEA","randomdotsizeEA","randomdotsizeEA","equaldotanddens","randomdotsizeEA","equaldotsize","equaldotsize","randomdotsizeEA","equaldotsize","equaldotanddens","equaldotanddens","equaldotsize","randomdotsizeEA","equaldotanddens","equaldotsize","equaldotsize","equaldotanddens","equaldotsize","equaldotanddens","equaldotanddens","randomdotsizeEA","equaldotsize","equaldotanddens","randomdotsizeEA","equaldotanddens","equaldotsize","randomdotsizeEA","equaldotsize","equaldotsize","equaldotsize","equaldotsize","equaldotsize","randomdotsizeEA","randomdotsizeEA","randomdotsizeEA","equaldotsize","equaldotanddens","equaldotanddens","randomdotsizeEA"],"ratio_trial":[900,250,250,900,250,900,900,500,500,250,250,750,500,250,900,750,500,750,750,900,500,750,250,900,900,900,900,750,900,900,750,250,750,900,250,250,900,750,750,500,250,500,500,250,250,900,250,900,250,250,500,900,900,500,750,250,750,900,500,900,500,750,500,250,500,250,750,750,750,900,750,750,900,750,750,900,750,500,500,750,900,500,750,250,250,900,500,750,250,250,500,900,250,500,500,900,500,500,750,250,250,500,750,500,250,750,750,500,750,900,900,750,500,250,250,500,500,900,250,500],"smaller_num":["18","2","4","9","3","18","18","3","4","3","4","3","6","2","9","15","6","12","3","9","3","3","2","9","18","18","18","15","18","18","15","2","3","18","4","2","18","15","3","1","6","10","3","4","2","18","2","18","3","1","9","18","18","1","15","6","3","9","1","18","5","3","9","2","6","3","15","15","6","18","3","15","9","15","12","18","18","1","10","15","9","4","3","3","6","9","9","3","3","5","4","18","5","3","1","18","9","1","6","3","2","2","15","6","1","18","15","5","3","18","18","15","9","1","3","6","2","18","4","5"],"larger_num":["20","8","16","10","12","20","20","6","8","12","16","4","12","8","10","20","12","16","4","10","6","4","8","10","20","20","20","20","20","20","20","8","4","20","16","8","20","20","4","2","24","20","6","16","8","20","8","20","12","4","18","20","20","2","20","24","4","10","2","20","10","4","18","8","12","12","20","20","8","20","4","20","10","20","16","20","24","2","20","20","10","8","4","12","24","10","18","4","12","20","8","20","20","6","2","20","18","2","8","12","8","4","20","12","4","24","20","10","4","20","20","20","18","4","12","12","4","20","16","10"],"correct_side":[1,2,2,2,2,1,2,2,1,2,2,2,1,1,2,2,1,2,1,2,2,2,1,2,2,1,2,2,2,2,2,1,2,2,1,1,1,2,1,2,1,2,2,1,1,1,1,1,1,2,1,1,1,2,1,2,1,1,2,2,2,1,2,1,1,2,2,1,1,1,1,2,2,2,2,2,1,2,2,2,2,1,1,2,1,1,2,1,1,2,1,1,2,2,2,1,2,2,1,1,1,2,2,1,2,1,2,1,1,2,2,2,2,2,2,1,2,2,2,2],"img_shown":["img/900/randomdotsizeEA/L/2_Ratio_900_L_20_R_18.png","img/250/equaldotsize/R/13_Ratio_250_L_2_R_8.png","img/250/equaldotanddens/R/10_Ratio_250_L_4_R_16.png","img/900/equaldotanddens/R/6_Ratio_900_L_9_R_10.png","img/250/randomdotsizeEA/R/11_Ratio_250_L_3_R_12.png","img/900/equaldotsize/L/10_Ratio_900_L_20_R_18.png","img/900/equaldotsize/R/13_Ratio_900_L_18_R_20.png","img/500/equaldotanddens/R/2_Ratio_500_L_3_R_6.png","img/500/randomdotsizeEA/L/8_Ratio_500_L_8_R_4.png","img/250/equaldotsize/R/9_Ratio_250_L_3_R_12.png","img/250/randomdotsizeEA/R/10_Ratio_250_L_4_R_16.png","img/750/randomdotsizeEA/R/12_Ratio_750_L_3_R_4.png","img/500/randomdotsizeEA/L/11_Ratio_500_L_12_R_6.png","img/250/equaldotanddens/L/7_Ratio_250_L_8_R_2.png","img/900/equaldotanddens/R/5_Ratio_900_L_9_R_10.png","img/750/equaldotanddens/R/5_Ratio_750_L_15_R_20.png","img/500/randomdotsizeEA/L/13_Ratio_500_L_12_R_6.png","img/750/equaldotanddens/R/11_Ratio_750_L_12_R_16.png","img/750/randomdotsizeEA/L/8_Ratio_750_L_4_R_3.png","img/900/equaldotanddens/R/5_Ratio_900_L_9_R_10.png","img/500/equaldotanddens/R/2_Ratio_500_L_3_R_6.png","img/750/equaldotanddens/R/7_Ratio_750_L_3_R_4.png","img/250/equaldotsize/L/1_Ratio_250_L_8_R_2.png","img/900/randomdotsizeEA/R/7_Ratio_900_L_9_R_10.png","img/900/equaldotsize/R/11_Ratio_900_L_18_R_20.png","img/900/equaldotanddens/L/10_Ratio_900_L_20_R_18.png","img/900/randomdotsizeEA/R/11_Ratio_900_L_18_R_20.png","img/750/randomdotsizeEA/R/5_Ratio_750_L_15_R_20.png","img/900/equaldotsize/R/11_Ratio_900_L_18_R_20.png","img/900/equaldotanddens/R/14_Ratio_900_L_18_R_20.png","img/750/equaldotanddens/R/5_Ratio_750_L_15_R_20.png","img/250/equaldotsize/L/3_Ratio_250_L_8_R_2.png","img/750/equaldotanddens/R/7_Ratio_750_L_3_R_4.png","img/900/randomdotsizeEA/R/9_Ratio_900_L_18_R_20.png","img/250/equaldotsize/L/2_Ratio_250_L_16_R_4.png","img/250/equaldotanddens/L/3_Ratio_250_L_8_R_2.png","img/900/equaldotsize/L/10_Ratio_900_L_20_R_18.png","img/750/equaldotanddens/R/5_Ratio_750_L_15_R_20.png","img/750/equaldotsize/L/10_Ratio_750_L_4_R_3.png","img/500/equaldotanddens/R/15_Ratio_500_L_1_R_2.png","img/250/randomdotsizeEA/L/5_Ratio_250_L_24_R_6.png","img/500/randomdotsizeEA/R/3_Ratio_500_L_10_R_20.png","img/500/equaldotanddens/R/2_Ratio_500_L_3_R_6.png","img/250/equaldotsize/L/2_Ratio_250_L_16_R_4.png","img/250/equaldotsize/L/1_Ratio_250_L_8_R_2.png","img/900/randomdotsizeEA/L/10_Ratio_900_L_20_R_18.png","img/250/randomdotsizeEA/L/7_Ratio_250_L_8_R_2.png","img/900/equaldotanddens/L/2_Ratio_900_L_20_R_18.png","img/250/randomdotsizeEA/L/14_Ratio_250_L_12_R_3.png","img/250/equaldotanddens/R/8_Ratio_250_L_1_R_4.png","img/500/equaldotsize/L/4_Ratio_500_L_18_R_9.png","img/900/randomdotsizeEA/L/2_Ratio_900_L_20_R_18.png","img/900/randomdotsizeEA/L/2_Ratio_900_L_20_R_18.png","img/500/equaldotanddens/R/15_Ratio_500_L_1_R_2.png","img/750/randomdotsizeEA/L/1_Ratio_750_L_20_R_15.png","img/250/equaldotsize/R/6_Ratio_250_L_6_R_24.png","img/750/randomdotsizeEA/L/10_Ratio_750_L_4_R_3.png","img/900/randomdotsizeEA/L/1_Ratio_900_L_10_R_9.png","img/500/equaldotsize/R/15_Ratio_500_L_1_R_2.png","img/900/equaldotsize/R/9_Ratio_900_L_18_R_20.png","img/500/equaldotanddens/R/14_Ratio_500_L_5_R_10.png","img/750/equaldotsize/L/9_Ratio_750_L_4_R_3.png","img/500/equaldotsize/R/1_Ratio_500_L_9_R_18.png","img/250/equaldotanddens/L/3_Ratio_250_L_8_R_2.png","img/500/equaldotsize/L/11_Ratio_500_L_12_R_6.png","img/250/equaldotanddens/R/4_Ratio_250_L_3_R_12.png","img/750/equaldotanddens/R/3_Ratio_750_L_15_R_20.png","img/750/equaldotanddens/L/1_Ratio_750_L_20_R_15.png","img/750/equaldotsize/L/14_Ratio_750_L_8_R_6.png","img/900/equaldotanddens/L/10_Ratio_900_L_20_R_18.png","img/750/randomdotsizeEA/L/10_Ratio_750_L_4_R_3.png","img/750/randomdotsizeEA/R/4_Ratio_750_L_15_R_20.png","img/900/equaldotsize/R/6_Ratio_900_L_9_R_10.png","img/750/randomdotsizeEA/R/3_Ratio_750_L_15_R_20.png","img/750/randomdotsizeEA/R/11_Ratio_750_L_12_R_16.png","img/900/equaldotanddens/R/12_Ratio_900_L_18_R_20.png","img/750/equaldotsize/L/6_Ratio_750_L_24_R_18.png","img/500/equaldotsize/R/15_Ratio_500_L_1_R_2.png","img/500/equaldotsize/R/3_Ratio_500_L_10_R_20.png","img/750/equaldotanddens/R/3_Ratio_750_L_15_R_20.png","img/900/randomdotsizeEA/R/7_Ratio_900_L_9_R_10.png","img/500/randomdotsizeEA/L/8_Ratio_500_L_8_R_4.png","img/750/randomdotsizeEA/L/8_Ratio_750_L_4_R_3.png","img/250/randomdotsizeEA/R/9_Ratio_250_L_3_R_12.png","img/250/equaldotanddens/L/5_Ratio_250_L_24_R_6.png","img/900/randomdotsizeEA/L/1_Ratio_900_L_10_R_9.png","img/500/equaldotsize/R/6_Ratio_500_L_9_R_18.png","img/750/equaldotsize/L/8_Ratio_750_L_4_R_3.png","img/250/randomdotsizeEA/L/15_Ratio_250_L_12_R_3.png","img/250/equaldotsize/R/12_Ratio_250_L_5_R_20.png","img/500/equaldotanddens/L/8_Ratio_500_L_8_R_4.png","img/900/equaldotanddens/L/8_Ratio_900_L_20_R_18.png","img/250/equaldotsize/R/12_Ratio_250_L_5_R_20.png","img/500/randomdotsizeEA/R/2_Ratio_500_L_3_R_6.png","img/500/equaldotanddens/R/12_Ratio_500_L_1_R_2.png","img/900/equaldotsize/L/4_Ratio_900_L_20_R_18.png","img/500/equaldotsize/R/1_Ratio_500_L_9_R_18.png","img/500/equaldotanddens/R/15_Ratio_500_L_1_R_2.png","img/750/equaldotsize/L/13_Ratio_750_L_8_R_6.png","img/250/equaldotanddens/L/14_Ratio_250_L_12_R_3.png","img/250/equaldotanddens/L/1_Ratio_250_L_8_R_2.png","img/500/randomdotsizeEA/R/9_Ratio_500_L_2_R_4.png","img/750/equaldotsize/R/4_Ratio_750_L_15_R_20.png","img/500/equaldotanddens/L/11_Ratio_500_L_12_R_6.png","img/250/randomdotsizeEA/R/8_Ratio_250_L_1_R_4.png","img/750/equaldotanddens/L/6_Ratio_750_L_24_R_18.png","img/750/equaldotsize/R/4_Ratio_750_L_15_R_20.png","img/500/randomdotsizeEA/L/7_Ratio_500_L_10_R_5.png","img/750/equaldotsize/L/8_Ratio_750_L_4_R_3.png","img/900/equaldotsize/R/14_Ratio_900_L_18_R_20.png","img/900/equaldotsize/R/13_Ratio_900_L_18_R_20.png","img/750/equaldotsize/R/3_Ratio_750_L_15_R_20.png","img/500/equaldotsize/R/6_Ratio_500_L_9_R_18.png","img/250/randomdotsizeEA/R/8_Ratio_250_L_1_R_4.png","img/250/randomdotsizeEA/R/9_Ratio_250_L_3_R_12.png","img/500/randomdotsizeEA/L/11_Ratio_500_L_12_R_6.png","img/500/equaldotsize/R/9_Ratio_500_L_2_R_4.png","img/900/equaldotanddens/R/12_Ratio_900_L_18_R_20.png","img/250/equaldotanddens/R/10_Ratio_250_L_4_R_16.png","img/500/randomdotsizeEA/R/14_Ratio_500_L_5_R_10.png"],"Rat0":[["12_Ratio_0_L_9_R_0.png","13_Ratio_0_L_6_R_0.png","5_Ratio_0_L_2_R_0.png","6_Ratio_0_L_4_R_0.png","8_Ratio_0_L_6_R_0.png"],["1_Ratio_0_L_0_R_17.png","10_Ratio_0_L_0_R_22.png","11_Ratio_0_L_0_R_1.png","14_Ratio_0_L_0_R_24.png","15_Ratio_0_L_0_R_4.png","2_Ratio_0_L_0_R_5.png","3_Ratio_0_L_0_R_17.png","4_Ratio_0_L_0_R_7.png","7_Ratio_0_L_0_R_19.png","9_Ratio_0_L_0_R_15.png"]],"Rat250":[["1_Ratio_250_L_8_R_2.png","14_Ratio_250_L_12_R_3.png","15_Ratio_250_L_12_R_3.png","2_Ratio_250_L_16_R_4.png","3_Ratio_250_L_8_R_2.png","5_Ratio_250_L_24_R_6.png","7_Ratio_250_L_8_R_2.png"],["10_Ratio_250_L_4_R_16.png","11_Ratio_250_L_3_R_12.png","12_Ratio_250_L_5_R_20.png","13_Ratio_250_L_2_R_8.png","4_Ratio_250_L_3_R_12.png","6_Ratio_250_L_6_R_24.png","8_Ratio_250_L_1_R_4.png","9_Ratio_250_L_3_R_12.png"]],"Rat500":[["10_Ratio_500_L_4_R_2.png","11_Ratio_500_L_12_R_6.png","13_Ratio_500_L_12_R_6.png","4_Ratio_500_L_18_R_9.png","5_Ratio_500_L_4_R_2.png","7_Ratio_500_L_10_R_5.png","8_Ratio_500_L_8_R_4.png"],["1_Ratio_500_L_9_R_18.png","12_Ratio_500_L_1_R_2.png","14_Ratio_500_L_5_R_10.png","15_Ratio_500_L_1_R_2.png","2_Ratio_500_L_3_R_6.png","3_Ratio_500_L_10_R_20.png","6_Ratio_500_L_9_R_18.png","9_Ratio_500_L_2_R_4.png"]],"Rat750":[["1_Ratio_750_L_20_R_15.png","10_Ratio_750_L_4_R_3.png","13_Ratio_750_L_8_R_6.png","14_Ratio_750_L_8_R_6.png","6_Ratio_750_L_24_R_18.png","8_Ratio_750_L_4_R_3.png","9_Ratio_750_L_4_R_3.png"],["11_Ratio_750_L_12_R_16.png","12_Ratio_750_L_3_R_4.png","15_Ratio_750_L_9_R_12.png","2_Ratio_750_L_6_R_8.png","3_Ratio_750_L_15_R_20.png","4_Ratio_750_L_15_R_20.png","5_Ratio_750_L_15_R_20.png","7_Ratio_750_L_3_R_4.png"]],"Rat900":[["1_Ratio_900_L_10_R_9.png","10_Ratio_900_L_20_R_18.png","2_Ratio_900_L_20_R_18.png","4_Ratio_900_L_20_R_18.png","8_Ratio_900_L_20_R_18.png"],["11_Ratio_900_L_18_R_20.png","12_Ratio_900_L_18_R_20.png","13_Ratio_900_L_18_R_20.png","14_Ratio_900_L_18_R_20.png","15_Ratio_900_L_9_R_10.png","3_Ratio_900_L_9_R_10.png","5_Ratio_900_L_9_R_10.png","6_Ratio_900_L_9_R_10.png","7_Ratio_900_L_9_R_10.png","9_Ratio_900_L_18_R_20.png"]],"Rat1000":[["10_Ratio_1000_L_16_R_16.png","11_Ratio_1000_L_6_R_6.png","12_Ratio_1000_L_14_R_14.png","13_Ratio_1000_L_20_R_20.png","15_Ratio_1000_L_15_R_15.png","2_Ratio_1000_L_17_R_17.png","4_Ratio_1000_L_9_R_9.png","5_Ratio_1000_L_6_R_6.png","6_Ratio_1000_L_19_R_19.png","8_Ratio_1000_L_14_R_14.png","9_Ratio_1000_L_25_R_25.png"],["1_Ratio_1000_L_1_R_1.png","14_Ratio_1000_L_17_R_17.png","3_Ratio_1000_L_17_R_17.png","7_Ratio_1000_L_6_R_6.png"]]}},{"start_time":1551901459319,"click_time":1551901461713,"finger_time":1551901461073,"fix_duration":904.616507416097,"trial":1,"RT":1754,"MT":640,"sideResp":2,"stimulus":"img/250/equaldotsize/R/13_Ratio_250_L_2_R_8.png","xmouse":[769,769,769,769,769,769,769,769,769,769,769,769,769,769,769,769,769,769,769,769,769,769,769,769,769,769,769,769,769,769,769,769,769,769,769,769,769,769,769,769,769,769,769,769,769,769,769,769,769,769,769,769,769,769,769,769,769,769,769,769,769,769,769,769,769,769,769,769,769,769,769,769,769,769,769,769,769,769,769,769,769,773,778,791,811,825,838,845,854,882,900,917,935,956,983,993,1000,1008,1023,1030,1036,1043,1050,1061,1076,1084,1092,1100,1108,1119,1122,1123,1123,1123,1123,1123,1122,1120,1118,1112],"ymouse":[606,606,606,606,606,606,606,606,606,606,606,606,606,606,606,606,606,606,606,606,606,606,606,606,606,606,606,606,606,606,606,606,606,606,606,606,606,606,606,606,606,606,606,606,606,606,606,606,606,606,606,606,606,606,606,606,606,606,606,606,606,606,606,606,606,606,606,606,606,606,606,606,606,606,606,606,606,606,606,606,606,603,601,597,593,590,587,584,581,567,558,547,533,513,482,467,455,442,407,390,373,357,343,325,302,290,280,265,248,221,212,208,203,195,178,168,155,140,126,93],"timestamp_mouse":[14,36,55,74,95,113,134,155,175,194,214,235,254,274,294,315,334,355,375,394,415,434,454,475,495,513,535,554,574,594,614,635,653,674,695,714,735,754,775,794,815,835,854,874,894,915,934,954,974,995,1014,1034,1054,1074,1094,1115,1135,1154,1175,1195,1215,1234,1254,1275,1294,1315,1334,1354,1375,1395,1414,1434,1454,1475,1495,1514,1535,1554,1574,1593,1614,1634,1654,1674,1694,1713,1735,1754,1774,1793,1814,1833,1854,1874,1894,1914,1934,1954,1975,1994,2014,2034,2055,2074,2094,2114,2134,2154,2174,2193,2214,2234,2254,2275,2295,2314,2335,2354,2374,2394],"xSR":741.5,"ySR":573.95,"xT1":424.9,"yT1":0,"xT2":1058.1,"yT2":0,"toosoon":0,"cond_shown":"equaldotsize","ratio_trial":250,"smaller_num":"2","larger_num":"8","correct_side":2,"subjID":"MARIAFERNANDAGONZALEZ","gender":"1","age":"10","school":"6"},{"start_time":1551901465169,"click_time":1551901466693,"finger_time":1551901465913,"fix_duration":1334.9621662019601,"trial":2,"RT":744,"MT":780,"sideResp":2,"stimulus":"img/250/equaldotanddens/R/10_Ratio_250_L_4_R_16.png","xmouse":[793,793,793,793,793,793,793,793,793,793,793,793,793,793,793,793,793,793,793,793,793,793,793,793,793,793,793,793,793,793,793,793,793,793,800,808,829,874,900,928,948,971,1002,1017,1034,1047,1061,1091,1103,1112,1125,1135,1146,1148,1148,1148,1144,1135,1134,1134,1134,1134,1130,1127,1124,1122,1119,1118,1118,1118,1118,1118,1118,1118,1118,1117,1116],"ymouse":[607,607,607,607,607,607,607,607,607,607,607,607,607,607,607,607,607,607,607,607,607,607,607,607,607,607,607,607,607,607,607,607,607,607,608,608,605,596,588,578,566,549,527,512,493,475,455,408,384,362,332,307,261,238,218,199,181,160,159,159,159,159,148,139,131,123,118,117,117,117,117,115,114,112,109,105,99],"timestamp_mouse":[10,24,44,65,83,105,124,145,164,184,205,225,244,263,285,305,325,345,364,384,404,423,444,463,485,505,524,544,563,584,604,625,645,665,685,704,724,744,764,784,804,825,844,864,884,905,924,944,966,985,1005,1025,1044,1064,1085,1105,1125,1144,1164,1185,1204,1224,1245,1264,1284,1304,1325,1345,1364,1383,1404,1424,1445,1464,1484,1504,1524],"xSR":741.5,"ySR":573.95,"xT1":424.9,"yT1":0,"xT2":1058.1,"yT2":0,"toosoon":0,"cond_shown":"equaldotanddens","ratio_trial":250,"smaller_num":"4","larger_num":"16","correct_side":2,"subjID":"MARIAFERNANDAGONZALEZ","gender":"1","age":"10","school":"6"},{"start_time":1551901468527,"click_time":1551901472013,"finger_time":1551901471313,"fix_duration":811.104289157089,"trial":3,"RT":2786,"MT":700,"sideResp":2,"stimulus":"img/900/equaldotanddens/R/6_Ratio_900_L_9_R_10.png","xmouse":[768,768,768,768,768,768,768,768,768,768,768,768,768,769,771,773,775,775,775,775,775,775,775,775,775,775,775,776,776,776,777,777,777,777,777,777,777,777,777,777,777,777,777,777,777,777,777,777,777,777,777,777,777,777,777,777,777,777,777,777,777,777,777,777,777,777,777,777,777,777,777,777,777,777,777,777,777,777,777,777,777,777,777,777,777,777,777,777,777,777,777,777,777,777,777,777,777,777,777,777,777,777,777,777,777,776,776,776,775,775,775,775,775,775,775,775,775,775,775,775,775,775,775,775,775,775,775,775,775,775,775,775,775,776,785,791,797,807,814,836,848,856,868,875,897,911,920,926,932,949,958,965,970,974,974,974,978,992,1012,1038,1042,1057,1064,1083,1105,1112,1116,1117,1119,1121,1121,1121,1121,1121,1118],"ymouse":[625,625,625,625,625,627,628,628,628,628,628,629,629,633,637,639,640,640,640,640,640,640,640,640,640,640,640,640,640,640,640,640,640,640,640,640,640,640,640,640,640,640,640,640,640,640,640,640,640,640,640,640,640,640,640,640,640,640,640,640,640,640,640,640,640,640,640,640,640,640,640,640,640,640,640,640,640,640,640,640,640,640,640,640,640,640,640,640,640,640,640,640,640,640,640,640,640,640,640,640,640,640,640,641,642,642,643,643,643,643,643,643,643,643,643,643,643,643,643,643,643,643,643,643,643,643,643,643,643,643,643,643,643,643,640,636,632,625,613,573,549,525,482,443,373,341,319,298,280,236,218,201,193,187,185,185,181,177,171,164,163,162,161,161,156,153,148,144,141,136,133,131,129,127,95],"timestamp_mouse":[9,28,46,67,86,106,127,147,165,186,206,226,245,266,286,306,327,346,366,386,406,426,446,467,487,507,526,547,566,586,606,626,647,667,687,706,727,747,766,786,806,827,846,866,886,906,926,946,966,986,1007,1026,1047,1066,1087,1106,1126,1147,1165,1187,1207,1226,1246,1266,1287,1306,1327,1347,1366,1385,1407,1426,1446,1466,1486,1507,1526,1547,1566,1586,1606,1626,1647,1666,1687,1706,1726,1746,1767,1787,1806,1827,1846,1867,1886,1907,1927,1947,1966,1987,2006,2026,2047,2066,2086,2106,2126,2146,2166,2186,2207,2226,2246,2266,2286,2306,2326,2346,2367,2386,2407,2426,2447,2467,2486,2506,2527,2547,2566,2587,2606,2626,2647,2666,2686,2706,2727,2746,2766,2786,2806,2826,2846,2866,2887,2906,2926,2947,2966,2986,3006,3026,3047,3066,3087,3106,3127,3147,3166,3186,3206,3226,3246,3266,3285,3306,3326,3347,3367,3386,3407,3426,3446,3465,3486],"xSR":741.5,"ySR":573.95,"xT1":424.9,"yT1":0,"xT2":1058.1,"yT2":0,"toosoon":0,"cond_shown":"equaldotanddens","ratio_trial":900,"smaller_num":"9","larger_num":"10","correct_side":2,"subjID":"MARIAFERNANDAGONZALEZ","gender":"1","age":"10","school":"6"},{"start_time":1551901475075,"click_time":1551901476894,"finger_time":1551901476393,"fix_duration":1061.1478439315542,"trial":4,"RT":1318,"MT":501,"sideResp":2,"stimulus":"img/250/randomdotsizeEA/R/11_Ratio_250_L_3_R_12.png","xmouse":[789,789,789,789,789,789,789,789,789,789,789,789,789,789,789,789,790,790,790,790,790,790,790,790,790,790,790,790,790,790,790,790,790,790,790,790,790,790,790,790,790,790,790,790,790,790,790,790,790,790,790,790,790,790,790,790,790,790,790,790,790,790,801,816,819,843,935,978,1023,1053,1085,1161,1207,1224,1231,1233,1231,1228,1223,1219,1217,1211,1208,1203,1197,1191,1185,1179,1172,1165,1158],"ymouse":[614,614,614,614,614,614,614,614,614,614,614,614,614,614,614,614,615,615,615,615,615,615,615,615,615,615,615,615,615,615,615,615,615,615,615,615,615,615,615,615,615,615,615,615,615,615,615,615,615,615,615,615,615,615,615,615,615,615,615,615,615,615,605,594,589,560,472,433,388,349,303,189,104,64,36,15,0,0,0,0,0,0,0,1,4,6,10,14,18,24,31],"timestamp_mouse":[19,39,58,79,98,117,139,157,179,199,218,239,259,279,299,318,339,359,378,398,419,439,458,478,499,519,538,558,579,599,618,638,658,679,698,719,739,758,779,798,818,838,858,879,899,919,939,958,978,998,1018,1038,1058,1079,1098,1118,1139,1159,1178,1198,1218,1238,1259,1278,1298,1318,1338,1358,1378,1399,1418,1438,1457,1478,1499,1518,1538,1557,1578,1599,1619,1638,1658,1679,1699,1718,1738,1758,1778,1798,1819],"xSR":741.5,"ySR":573.95,"xT1":424.9,"yT1":0,"xT2":1058.1,"yT2":0,"toosoon":0,"cond_shown":"randomdotsizeEA","ratio_trial":250,"smaller_num":"3","larger_num":"12","correct_side":2,"subjID":"MARIAFERNANDAGONZALEZ","gender":"1","age":"10","school":"6"},{"start_time":1551901478568,"click_time":1551901480193,"finger_time":1551901479513,"fix_duration":311.4407730636214,"trial":5,"RT":945,"MT":680,"sideResp":1,"stimulus":"img/900/equaldotsize/L/10_Ratio_900_L_20_R_18.png","xmouse":[805,805,805,805,806,806,806,807,807,807,807,807,807,807,807,808,808,808,808,808,808,809,809,810,810,810,810,810,810,810,810,810,810,810,809,807,807,807,807,807,807,807,813,818,821,827,833,849,859,869,877,886,898,903,910,919,928,955,964,974,977,984,990,994,996,998,999,999,999,992,958,917,784,725,682,645,612,571,552,532,517,501],"ymouse":[635,635,635,635,635,635,635,636,636,636,636,636,636,636,636,637,637,637,637,637,637,637,637,637,637,637,637,637,637,637,637,637,637,637,637,637,637,637,637,637,637,636,616,606,600,591,584,568,559,549,541,524,493,475,455,432,404,339,318,294,287,272,257,248,237,233,230,228,228,230,237,238,238,235,218,197,174,142,126,110,100,86],"timestamp_mouse":[9,26,45,65,85,104,125,146,166,184,206,225,246,265,286,305,325,345,365,385,406,426,446,466,486,505,525,545,566,585,606,625,646,664,685,705,726,744,765,785,805,825,845,865,885,906,925,945,965,985,1005,1026,1046,1065,1085,1106,1125,1145,1165,1185,1205,1225,1245,1265,1285,1305,1325,1345,1365,1386,1405,1425,1446,1465,1485,1505,1525,1545,1565,1585,1605,1625],"xSR":741.5,"ySR":573.95,"xT1":424.9,"yT1":0,"xT2":1058.1,"yT2":0,"toosoon":0,"cond_shown":"equaldotsize","ratio_trial":900,"smaller_num":"18","larger_num":"20","correct_side":1,"subjID":"MARIAFERNANDAGONZALEZ","gender":"1","age":"10","school":"6"},{"start_time":1551901481843,"click_time":1551901483193,"finger_time":1551901482772,"fix_duration":450.8635640218883,"trial":6,"RT":929,"MT":421,"sideResp":2,"stimulus":"img/900/equaldotsize/R/13_Ratio_900_L_18_R_20.png","xmouse":[782,782,782,782,782,782,784,785,790,794,798,802,805,812,814,815,816,816,816,816,816,816,816,816,816,816,816,816,816,816,816,816,816,816,816,816,816,816,817,817,818,819,819,822,826,833,843,855,882,898,917,937,956,989,1009,1034,1064,1097,1117,1125,1129,1133,1134,1132,1127,1121,1120,1114],"ymouse":[619,619,619,619,619,619,619,619,622,626,629,632,634,639,640,640,640,640,640,640,640,640,640,640,640,640,640,640,640,640,640,640,640,640,640,640,640,640,640,640,639,639,637,631,623,611,596,581,554,543,530,514,500,468,442,393,328,262,214,196,177,163,148,125,112,103,101,98],"timestamp_mouse":[10,29,50,69,91,109,130,150,171,189,210,229,249,269,291,311,329,351,371,389,411,430,450,471,489,509,529,551,570,590,610,629,650,669,690,709,730,749,770,789,810,829,849,869,890,910,929,951,971,989,1010,1030,1049,1069,1090,1110,1129,1149,1170,1190,1209,1230,1250,1269,1289,1309,1330,1350],"xSR":741.5,"ySR":573.95,"xT1":424.9,"yT1":0,"xT2":1058.1,"yT2":0,"toosoon":0,"cond_shown":"equaldotsize","ratio_trial":900,"smaller_num":"18","larger_num":"20","correct_side":2,"subjID":"MARIAFERNANDAGONZALEZ","gender":"1","age":"10","school":"6"},{"start_time":1551901490442,"click_time":1551901491653,"finger_time":1551901491232,"fix_duration":1267.4103707694358,"trial":7,"RT":790,"MT":421,"sideResp":2,"stimulus":"img/500/equaldotanddens/R/2_Ratio_500_L_3_R_6.png","xmouse":[790,790,790,790,790,790,790,790,790,790,790,790,790,790,790,790,790,790,790,790,790,790,790,790,790,790,790,790,790,790,790,790,790,790,790,790,790,792,815,841,860,879,889,898,905,921,925,941,957,962,963,964,964,964,964,966,971,989,1022,1043,1065],"ymouse":[668,668,668,668,668,668,668,668,668,668,668,668,668,668,668,668,668,668,668,668,668,668,668,668,668,668,668,668,668,668,668,668,668,668,668,668,668,667,613,551,483,421,373,314,280,220,204,161,121,109,107,106,106,106,106,104,102,96,90,85,80],"timestamp_mouse":[10,30,51,71,92,110,132,151,170,192,212,231,251,270,291,311,331,351,370,391,412,431,452,472,491,511,532,551,571,590,612,632,652,670,692,711,731,750,771,790,812,831,852,870,890,910,930,950,970,991,1010,1031,1050,1072,1091,1110,1132,1151,1171,1190,1211],"xSR":741.5,"ySR":573.95,"xT1":424.9,"yT1":0,"xT2":1058.1,"yT2":0,"toosoon":0,"cond_shown":"equaldotanddens","ratio_trial":500,"smaller_num":"3","larger_num":"6","correct_side":2,"subjID":"MARIAFERNANDAGONZALEZ","gender":"1","age":"10","school":"6"},{"start_time":1551901494545,"click_time":1551901495852,"finger_time":1551901495293,"fix_duration":1131.8955304302378,"trial":8,"RT":748,"MT":559,"sideResp":2,"stimulus":"img/500/randomdotsizeEA/L/8_Ratio_500_L_8_R_4.png","xmouse":[804,804,804,804,804,804,804,804,804,804,804,804,804,804,804,804,804,804,804,804,804,804,804,804,804,804,804,804,804,804,804,804,804,804,804,804,807,821,856,875,895,919,1014,1052,1077,1091,1102,1107,1116,1118,1121,1124,1135,1154,1162,1167,1170,1172,1172,1167,1157,1155,1150,1143,1139,1135],"ymouse":[612,612,612,612,612,612,612,612,612,612,612,612,612,612,612,612,612,612,612,612,612,612,612,612,612,612,612,612,612,612,612,612,612,612,612,606,597,573,532,516,502,485,416,382,362,349,340,336,329,326,321,316,298,275,264,257,250,240,209,187,156,146,126,108,103,97],"timestamp_mouse":[10,29,49,69,88,108,127,149,167,187,208,227,249,267,287,309,329,348,367,387,407,427,447,467,488,507,527,547,568,588,608,629,647,668,687,708,728,748,767,787,808,827,848,867,888,909,928,947,967,987,1008,1028,1047,1068,1088,1109,1127,1147,1167,1188,1207,1227,1247,1267,1288,1307],"xSR":741.5,"ySR":573.95,"xT1":424.9,"yT1":0,"xT2":1058.1,"yT2":0,"toosoon":0,"cond_shown":"randomdotsizeEA","ratio_trial":500,"smaller_num":"4","larger_num":"8","correct_side":1,"subjID":"MARIAFERNANDAGONZALEZ","gender":"1","age":"10","school":"6"},{"start_time":1551901497242,"click_time":1551901498213,"finger_time":1551901497973,"fix_duration":407.8680330402804,"trial":9,"RT":731,"MT":240,"sideResp":2,"stimulus":"img/250/equaldotsize/R/9_Ratio_250_L_3_R_12.png","xmouse":[792,792,792,792,792,792,792,792,792,792,792,792,792,792,792,792,792,792,792,792,792,792,790,788,787,787,787,787,787,787,787,787,787,787,787,788,803,808,848,880,903,925,959,980,996,1010,1021,1050,1065],"ymouse":[619,619,619,619,619,619,619,619,619,619,619,619,619,619,619,619,619,619,619,619,619,619,609,594,589,588,588,588,588,588,588,588,588,588,586,581,564,558,497,446,400,363,282,240,200,168,145,101,86],"timestamp_mouse":[12,32,50,71,92,110,130,150,171,190,210,230,251,271,290,311,331,351,370,391,411,430,451,470,490,510,531,552,572,591,611,631,651,671,690,711,731,750,771,790,811,830,851,870,891,911,930,951,971],"xSR":741.5,"ySR":573.95,"xT1":424.9,"yT1":0,"xT2":1058.1,"yT2":0,"toosoon":0,"cond_shown":"equaldotsize","ratio_trial":250,"smaller_num":"3","larger_num":"12","correct_side":2,"subjID":"MARIAFERNANDAGONZALEZ","gender":"1","age":"10","school":"6"},{"start_time":1551901499631,"click_time":1551901501372,"finger_time":1551901500792,"fix_duration":476.77245778186693,"trial":10,"RT":1161,"MT":580,"sideResp":2,"stimulus":"img/250/randomdotsizeEA/R/10_Ratio_250_L_4_R_16.png","xmouse":[802,802,802,802,802,802,802,802,802,802,802,802,802,802,802,802,802,802,802,802,802,802,802,802,802,802,802,802,802,802,802,802,801,801,801,801,801,801,801,801,801,801,801,801,801,802,803,805,805,805,805,805,805,805,805,805,806,809,822,857,883,921,972,1023,1144,1195,1234,1253,1266,1274,1277,1278,1278,1278,1273,1270,1267,1264,1258,1248,1240,1234,1223,1211,1192,1184,1173,1156],"ymouse":[601,601,601,601,601,601,601,601,601,601,601,601,601,601,601,601,601,601,601,601,601,601,601,601,601,601,601,601,601,601,601,601,600,597,597,597,597,597,597,597,597,597,597,597,596,592,590,588,588,588,588,588,588,588,588,588,586,584,572,542,520,488,446,400,313,281,253,237,218,197,184,175,165,155,140,135,131,129,125,118,114,109,103,97,86,79,74,66],"timestamp_mouse":[5,22,41,62,81,102,121,141,163,182,202,222,242,261,283,301,322,341,361,381,402,423,441,461,482,502,521,543,562,582,602,621,641,662,681,701,723,743,762,783,802,823,841,861,881,902,921,941,962,983,1002,1021,1042,1061,1083,1101,1121,1142,1161,1181,1201,1221,1241,1262,1281,1302,1321,1342,1362,1381,1401,1422,1442,1463,1481,1502,1522,1541,1562,1583,1601,1621,1642,1662,1682,1702,1722,1741],"xSR":741.5,"ySR":573.95,"xT1":424.9,"yT1":0,"xT2":1058.1,"yT2":0,"toosoon":0,"cond_shown":"randomdotsizeEA","ratio_trial":250,"smaller_num":"4","larger_num":"16","correct_side":2,"subjID":"MARIAFERNANDAGONZALEZ","gender":"1","age":"10","school":"6"},{"start_time":1551901512941,"click_time":1551901514074,"finger_time":1551901513493,"fix_duration":646.1744568221899,"trial":11,"RT":552,"MT":581,"sideResp":2,"stimulus":"img/750/randomdotsizeEA/R/12_Ratio_750_L_3_R_4.png","xmouse":[767,767,767,769,772,773,773,773,774,774,774,774,776,782,783,783,783,783,783,783,783,783,783,783,776,766,765,765,765,765,766,770,776,797,819,855,885,905,926,934,944,954,959,976,985,993,1002,1010,1020,1027,1046,1056,1073,1074,1074,1074,1079],"ymouse":[643,643,643,643,644,645,645,645,645,645,645,645,645,648,649,649,649,649,649,649,649,649,649,643,617,588,575,571,564,563,561,548,535,495,460,411,374,351,329,318,305,290,281,246,225,205,184,167,142,130,115,110,103,103,103,102,97],"timestamp_mouse":[12,31,52,72,91,113,131,151,172,192,212,232,251,271,292,311,331,352,372,391,413,431,452,471,491,513,532,552,571,591,612,632,652,671,691,711,732,751,771,792,812,833,852,871,892,911,932,952,971,992,1011,1033,1053,1072,1091,1112,1132],"xSR":741.5,"ySR":573.95,"xT1":424.9,"yT1":0,"xT2":1058.1,"yT2":0,"toosoon":0,"cond_shown":"randomdotsizeEA","ratio_trial":750,"smaller_num":"3","larger_num":"4","correct_side":2,"subjID":"MARIAFERNANDAGONZALEZ","gender":"1","age":"10","school":"6"},{"start_time":1551901518882,"click_time":1551901520592,"finger_time":1551901519813,"fix_duration":448.8215605172721,"trial":12,"RT":931,"MT":779,"sideResp":1,"stimulus":"img/500/randomdotsizeEA/L/11_Ratio_500_L_12_R_6.png","xmouse":[811,811,811,811,811,811,811,811,811,811,811,811,811,811,811,811,811,811,811,811,811,811,811,811,811,811,811,811,811,811,811,811,811,811,811,811,811,811,811,811,811,811,811,814,819,828,838,841,845,848,854,869,879,890,903,932,962,970,978,983,984,982,973,963,948,922,877,851,826,800,776,726,707,693,684,667,658,651,642,635,626,620,613,598,570,500],"ymouse":[644,644,644,644,644,644,644,644,644,644,644,644,644,644,644,644,644,644,644,644,644,644,644,644,644,644,644,644,644,644,644,644,644,644,644,644,644,644,644,644,644,644,642,634,612,589,563,555,546,538,527,499,481,462,439,386,325,302,277,255,233,186,154,126,98,66,38,32,29,29,29,41,49,55,59,70,75,78,81,84,87,87,85,76,56,13],"timestamp_mouse":[11,30,51,71,91,112,130,152,170,191,210,230,251,272,290,311,332,351,371,390,410,430,451,470,490,512,531,550,571,590,610,631,651,672,690,711,730,752,770,791,810,832,850,871,891,911,931,951,970,991,1010,1030,1050,1071,1091,1110,1131,1150,1170,1190,1210,1231,1251,1271,1292,1310,1331,1350,1372,1391,1411,1430,1451,1471,1490,1511,1530,1551,1571,1590,1611,1631,1652,1671,1690,1710],"xSR":741.5,"ySR":573.95,"xT1":424.9,"yT1":0,"xT2":1058.1,"yT2":0,"toosoon":0,"cond_shown":"randomdotsizeEA","ratio_trial":500,"smaller_num":"6","larger_num":"12","correct_side":1,"subjID":"MARIAFERNANDAGONZALEZ","gender":"1","age":"10","school":"6"},{"start_time":1551901524031,"click_time":1551901526414,"finger_time":1551901524172,"fix_duration":317.12387740484536,"trial":13,"RT":141,"MT":2242,"sideResp":2,"stimulus":"img/250/equaldotanddens/L/7_Ratio_250_L_8_R_2.png","xmouse":[777,777,777,777,777,778,779,781,787,789,789,789,789,789,789,789,789,789,789,789,789,789,789,789,789,789,789,789,789,789,790,791,793,795,801,804,805,807,808,808,808,808,808,808,808,808,808,808,808,808,808,808,808,808,808,808,812,814,815,816,817,817,815,813,809,808,806,806,805,802,801,801,799,799,799,799,800,802,802,802,802,802,802,804,809,813,822,842,870,935,958,971,979,987,1012,1022,1030,1047,1054,1056,1056,1056,1057,1057,1058,1058,1058,1058,1058,1058,1058,1058,1058,1058,1058,1058,1058,1058,1058,1059],"ymouse":[620,620,620,620,612,597,585,571,550,539,539,539,539,539,539,539,539,539,539,539,539,539,539,539,539,539,539,539,539,537,531,526,519,513,502,497,494,491,490,490,490,490,490,490,490,490,490,490,490,490,490,490,490,490,490,489,489,490,490,492,496,501,505,510,516,519,522,524,535,566,585,603,621,639,664,670,674,678,678,678,678,678,678,678,667,657,637,602,556,472,444,427,415,400,351,321,261,164,117,63,51,46,42,37,20,13,11,11,11,11,11,11,11,11,16,29,32,42,48,57],"timestamp_mouse":[8,27,42,61,81,101,122,141,162,182,202,221,243,262,282,302,321,342,362,382,402,422,442,463,482,501,522,541,562,582,601,621,642,661,681,702,721,741,762,782,802,822,843,861,881,903,921,942,963,982,1002,1022,1043,1063,1082,1101,1121,1143,1161,1181,1201,1221,1241,1261,1281,1301,1321,1342,1362,1381,1401,1422,1441,1462,1481,1502,1521,1541,1563,1583,1602,1622,1642,1661,1681,1702,1722,1743,1762,1781,1802,1821,1842,1861,1881,1902,1921,1941,1962,1983,2001,2021,2042,2062,2081,2101,2122,2143,2163,2181,2201,2222,2241,2262,2281,2303,2322,2341,2362,2383],"xSR":741.5,"ySR":573.95,"xT1":424.9,"yT1":0,"xT2":1058.1,"yT2":0,"toosoon":0,"cond_shown":"equaldotanddens","ratio_trial":250,"smaller_num":"2","larger_num":"8","correct_side":1,"subjID":"MARIAFERNANDAGONZALEZ","gender":"1","age":"10","school":"6"},{"start_time":1551901527879,"click_time":1551901535972,"finger_time":1551901534214,"fix_duration":505.2658350632333,"trial":14,"RT":6335,"MT":1758,"sideResp":2,"stimulus":"img/900/equaldotanddens/R/5_Ratio_900_L_9_R_10.png","xmouse":[821,821,821,821,821,821,821,821,821,821,821,821,821,821,821,821,821,821,821,821,821,821,821,821,821,821,821,821,821,821,821,821,821,821,821,821,821,821,821,821,821,821,821,821,821,821,821,821,821,821,821,821,821,821,821,821,821,821,821,821,821,821,821,821,821,821,821,821,821,821,821,821,821,821,821,821,821,821,821,821,821,821,821,821,821,821,821,821,821,821,821,821,821,821,821,821,821,821,821,821,821,821,821,821,821,822,824,824,824,824,824,824,824,824,824,824,824,824,824,824,824,824,824,824,824,824,824,824,824,824,824,824,824,824,824,824,824,824,824,824,824,824,824,824,824,824,824,824,824,824,824,824,824,824,824,824,824,824,824,824,824,824,824,824,824,824,824,824,824,824,824,824,824,824,824,824,824,824,824,824,824,824,824,824,824,824,824,824,825,825,825,825,825,825,825,825,825,825,825,825,825,825,825,825,825,825,825,825,825,825,825,825,825,825,825,825,825,825,825,825,825,825,825,825,825,825,825,825,825,825,825,825,825,825,825,825,825,825,825,825,825,825,825,825,825,825,825,825,825,825,825,825,825,825,825,825,825,825,825,825,825,825,825,825,825,825,825,825,825,825,825,825,825,825,825,825,825,825,825,825,825,825,825,825,825,825,825,825,825,825,825,825,825,825,825,825,825,825,825,825,825,825,825,825,825,825,825,825,825,825,825,825,825,825,826,826,826,826,826,826,826,826,826,826,826,826,826,826,826,826,826,826,826,826,826,826,826,826,826,826,827,828,829,829,829,829,829,830,831,831,833,833,834,834,835,838,838,838,838,838,838,838,838,838,838,843,851,857,864,867,870,873,873,873,876,878,883,886,890,895,899,902,905,913,916,931,959,967,971,975,979,993,1002,1008,1013,1015,1015,1016,1018,1023,1029,1042,1048,1056,1062],"ymouse":[604,604,604,604,604,604,604,604,604,604,604,604,604,604,604,604,604,604,604,604,604,604,604,604,604,604,604,604,604,604,604,604,604,604,604,604,604,604,604,604,604,604,604,604,604,604,604,604,604,604,604,604,604,604,604,604,604,604,604,604,604,604,604,604,604,604,604,604,604,604,604,604,604,604,604,604,604,604,604,604,604,604,604,604,604,604,604,604,604,604,604,604,604,604,604,603,602,600,600,599,599,598,596,593,591,589,584,583,583,583,583,583,583,583,583,583,583,583,583,583,583,583,583,583,583,583,583,583,583,583,583,583,583,583,583,583,583,583,583,583,583,583,583,583,583,583,583,583,583,583,583,583,583,583,583,583,583,583,583,583,583,583,583,583,583,583,583,583,583,583,583,583,583,583,583,583,583,583,583,583,583,583,583,583,583,582,582,582,581,581,581,581,581,581,581,581,581,581,581,581,581,581,581,581,581,581,581,581,581,581,581,581,581,581,581,581,581,581,581,581,581,581,581,581,581,581,581,581,581,581,581,581,581,581,581,581,581,581,581,581,581,581,581,581,581,581,581,581,581,581,581,581,581,581,581,581,581,581,581,581,581,581,581,581,581,581,581,581,581,581,581,581,581,581,581,581,581,581,581,581,581,581,581,581,581,581,581,581,581,581,581,581,581,581,581,581,581,581,581,581,581,581,581,581,581,581,581,581,581,581,581,581,581,580,575,574,572,571,571,571,571,571,571,571,571,571,571,571,571,571,571,571,571,571,571,571,571,571,571,571,571,569,568,568,567,565,565,564,562,560,554,553,550,547,546,540,540,540,540,540,540,540,540,540,539,529,515,505,495,491,487,482,482,482,480,478,472,467,461,454,446,435,428,409,400,358,287,263,244,228,215,188,173,163,157,154,151,150,147,140,131,114,107,98,93],"timestamp_mouse":[14,34,54,74,95,115,134,154,173,194,215,234,254,273,294,314,334,354,373,394,415,434,453,475,493,514,535,554,575,593,613,635,654,674,694,714,734,754,773,793,814,835,853,874,893,915,935,953,975,994,1014,1034,1054,1075,1094,1113,1135,1154,1173,1194,1213,1233,1254,1275,1294,1314,1334,1354,1375,1394,1413,1434,1453,1473,1495,1513,1535,1555,1574,1594,1613,1635,1653,1674,1695,1713,1733,1755,1773,1794,1815,1835,1854,1873,1895,1914,1934,1953,1975,1994,2013,2034,2054,2073,2094,2114,2134,2154,2175,2193,2215,2234,2253,2274,2293,2313,2333,2354,2374,2393,2413,2433,2455,2473,2493,2513,2535,2555,2573,2593,2614,2633,2655,2673,2693,2715,2734,2755,2774,2793,2813,2834,2853,2875,2893,2913,2935,2954,2974,2994,3013,3033,3055,3073,3094,3115,3133,3154,3175,3193,3214,3235,3254,3275,3293,3313,3334,3353,3374,3394,3413,3435,3453,3473,3495,3513,3535,3553,3573,3594,3613,3634,3655,3673,3695,3714,3734,3753,3774,3793,3814,3835,3854,3874,3895,3915,3933,3953,3974,3993,4014,4035,4055,4074,4093,4115,4133,4153,4174,4195,4214,4234,4254,4274,4295,4313,4333,4354,4374,4394,4413,4434,4454,4473,4494,4514,4534,4553,4573,4595,4613,4634,4653,4673,4694,4714,4734,4753,4773,4795,4814,4833,4855,4874,4894,4914,4933,4954,4973,4995,5013,5033,5054,5073,5093,5115,5133,5155,5173,5193,5214,5234,5254,5275,5294,5313,5335,5353,5374,5393,5413,5434,5455,5473,5493,5515,5534,5553,5575,5593,5613,5634,5653,5673,5693,5714,5733,5755,5773,5793,5814,5833,5854,5873,5894,5914,5933,5954,5975,5994,6014,6033,6054,6074,6094,6113,6133,6154,6174,6194,6213,6233,6255,6273,6293,6313,6335,6354,6373,6394,6413,6434,6455,6474,6494,6514,6533,6555,6573,6594,6613,6634,6658,6674,6693,6713,6734,6754,6774,6794,6814,6833,6853,6873,6894,6915,6934,6953,6973,6993,7014,7033,7053,7073,7095,7114,7144,7155,7175,7195,7214,7234,7253,7274,7294,7314,7334,7354,7374,7394,7414,7434,7453,7474,7494,7514,7534,7553,7574,7594,7614,7633,7653,7673,7694,7714,7734,7753,7774,7793,7813,7833,7854,7874,7893,7913,7935,7953,7974,7994,8014,8033,8054,8074,8093],"xSR":741.5,"ySR":573.95,"xT1":424.9,"yT1":0,"xT2":1058.1,"yT2":0,"toosoon":0,"cond_shown":"equaldotanddens","ratio_trial":900,"smaller_num":"9","larger_num":"10","correct_side":2,"subjID":"MARIAFERNANDAGONZALEZ","gender":"1","age":"10","school":"6"},{"start_time":1551901542063,"click_time":1551901543311,"finger_time":1551901542791,"fix_duration":250,"trial":15,"RT":728,"MT":520,"sideResp":2,"stimulus":"img/750/equaldotanddens/R/5_Ratio_750_L_15_R_20.png","xmouse":[782,782,782,782,782,782,782,782,782,782,782,782,782,782,782,782,782,782,782,782,782,782,782,782,782,782,782,782,782,782,782,782,782,782,782,797,872,924,979,1021,1048,1081,1093,1102,1103,1103,1094,1089,1085,1083,1083,1083,1085,1089,1092,1094,1094,1094,1094,1094,1094,1094,1094],"ymouse":[621,621,621,621,621,621,621,621,621,621,621,621,621,621,621,621,621,621,621,621,621,621,621,621,621,621,621,621,621,621,621,621,621,621,621,611,557,520,480,458,439,407,382,355,329,299,241,222,208,197,189,178,155,143,130,115,110,107,107,107,106,102,98],"timestamp_mouse":[10,27,49,68,88,108,129,150,168,188,208,229,248,268,289,308,329,348,368,388,409,428,448,468,488,508,528,548,568,588,608,628,648,668,688,708,728,748,768,788,808,829,848,868,888,908,929,948,968,988,1008,1028,1048,1068,1088,1110,1128,1149,1168,1188,1208,1229,1248],"xSR":741.5,"ySR":573.95,"xT1":424.9,"yT1":0,"xT2":1058.1,"yT2":0,"toosoon":0,"cond_shown":"equaldotanddens","ratio_trial":750,"smaller_num":"15","larger_num":"20","correct_side":2,"subjID":"MARIAFERNANDAGONZALEZ","gender":"1","age":"10","school":"6"},{"start_time":1551901546100,"click_time":1551901548272,"finger_time":1551901547012,"fix_duration":1487.276019278488,"trial":16,"RT":912,"MT":1260,"sideResp":1,"stimulus":"img/500/randomdotsizeEA/L/13_Ratio_500_L_12_R_6.png","xmouse":[814,814,815,815,815,816,816,816,816,816,816,816,816,816,816,816,816,816,816,816,816,816,816,816,816,816,816,816,816,816,816,816,816,816,816,816,816,816,816,816,816,816,821,828,833,935,1028,1142,1252,1338,1343,1345,1346,1346,1345,1328,1319,1311,1304,1296,1282,1271,1255,1234,1175,1151,1124,1092,1052,990,967,944,921,901,869,856,841,823,798,767,676,628,597,580,569,569,569,569,569,569,569,569,569,567,563,559,559,559,559,559,559,559,559,559,559,557,542,529,523],"ymouse":[613,613,613,613,613,614,614,614,614,614,614,614,614,614,614,614,614,614,614,614,614,614,614,614,614,614,614,614,614,614,614,614,614,614,614,614,614,614,614,614,614,614,612,605,600,509,434,356,285,222,209,192,176,160,150,122,111,101,94,90,86,86,86,93,112,123,135,150,174,206,214,219,221,224,224,223,219,210,200,186,148,131,123,117,113,113,113,113,113,113,113,113,113,113,113,112,112,112,112,112,112,112,112,112,112,111,100,93,90],"timestamp_mouse":[11,35,51,71,91,112,131,152,172,191,211,232,252,271,291,312,331,351,372,391,412,431,451,472,491,512,532,552,571,591,611,632,652,671,692,712,731,751,772,792,811,833,851,871,891,912,931,951,971,992,1011,1032,1051,1072,1091,1112,1131,1151,1171,1191,1211,1231,1252,1272,1291,1311,1331,1352,1371,1392,1411,1431,1451,1471,1492,1511,1531,1551,1571,1591,1611,1631,1651,1671,1692,1711,1731,1751,1771,1792,1811,1831,1851,1872,1891,1912,1932,1951,1971,1991,2011,2031,2051,2071,2091,2111,2131,2151,2172],"xSR":741.5,"ySR":573.95,"xT1":424.9,"yT1":0,"xT2":1058.1,"yT2":0,"toosoon":0,"cond_shown":"randomdotsizeEA","ratio_trial":500,"smaller_num":"6","larger_num":"12","correct_side":1,"subjID":"MARIAFERNANDAGONZALEZ","gender":"1","age":"10","school":"6"},{"start_time":1551901550828,"click_time":1551901552351,"finger_time":1551901551791,"fix_duration":1014.209097941188,"trial":17,"RT":963,"MT":560,"sideResp":2,"stimulus":"img/750/equaldotanddens/R/11_Ratio_750_L_12_R_16.png","xmouse":[774,774,774,774,774,774,774,774,774,774,774,774,774,774,774,774,774,774,774,774,774,774,774,774,774,774,774,774,774,774,774,774,774,774,774,774,774,774,774,774,774,774,774,778,791,801,808,813,817,821,824,830,839,848,882,899,920,947,1079,1146,1189,1212,1220,1228,1229,1229,1228,1224,1215,1207,1203,1196,1187,1159,1142,1119,1102],"ymouse":[647,647,647,647,647,647,647,647,647,647,647,647,647,647,647,647,647,647,647,647,647,647,647,647,647,647,647,647,647,647,647,647,647,647,647,647,647,647,647,647,647,647,647,646,622,598,585,577,571,566,562,555,548,539,515,503,489,470,402,371,354,343,336,323,312,298,285,269,240,220,213,202,187,147,126,102,83],"timestamp_mouse":[10,28,43,63,84,103,124,144,164,184,203,223,243,263,284,303,324,344,363,384,403,423,443,463,483,502,523,543,563,583,603,623,643,663,683,704,724,743,763,783,803,824,844,863,883,903,924,943,963,983,1003,1023,1043,1063,1083,1103,1123,1143,1164,1183,1206,1223,1243,1264,1283,1303,1323,1344,1363,1383,1403,1423,1443,1463,1483,1503,1523],"xSR":741.5,"ySR":573.95,"xT1":424.9,"yT1":0,"xT2":1058.1,"yT2":0,"toosoon":0,"cond_shown":"equaldotanddens","ratio_trial":750,"smaller_num":"12","larger_num":"16","correct_side":2,"subjID":"MARIAFERNANDAGONZALEZ","gender":"1","age":"10","school":"6"},{"start_time":1551901554155,"click_time":1551901555671,"finger_time":1551901554951,"fix_duration":383.72549153251055,"trial":18,"RT":796,"MT":720,"sideResp":1,"stimulus":"img/750/randomdotsizeEA/L/8_Ratio_750_L_4_R_3.png","xmouse":[761,761,761,761,761,761,761,761,761,761,761,761,761,761,761,761,761,761,761,761,761,761,761,761,761,761,761,761,761,761,761,761,761,761,761,761,760,757,756,754,750,740,727,719,704,690,660,648,637,628,624,614,609,603,593,581,550,531,509,488,472,456,454,454,454,454,454,454,454,454,454,454,454,456,469,483],"ymouse":[623,623,623,623,623,623,623,623,623,623,623,623,623,623,623,623,623,623,623,623,623,623,623,623,623,623,623,623,623,623,623,623,623,623,619,611,604,593,586,573,549,512,471,441,406,366,309,287,265,245,231,202,191,181,165,149,124,116,112,111,111,110,110,110,110,110,110,110,110,110,110,110,110,109,105,99],"timestamp_mouse":[17,37,56,76,96,116,136,156,176,196,216,237,256,277,297,316,336,356,377,396,416,436,457,476,496,517,537,556,576,597,617,636,656,676,696,716,737,756,777,796,816,836,856,876,898,916,937,956,976,996,1016,1036,1056,1076,1096,1116,1137,1156,1176,1197,1216,1236,1256,1276,1296,1317,1337,1357,1376,1397,1416,1437,1456,1476,1496,1516],"xSR":741.5,"ySR":573.95,"xT1":424.9,"yT1":0,"xT2":1058.1,"yT2":0,"toosoon":0,"cond_shown":"randomdotsizeEA","ratio_trial":750,"smaller_num":"3","larger_num":"4","correct_side":1,"subjID":"MARIAFERNANDAGONZALEZ","gender":"1","age":"10","school":"6"},{"start_time":1551901557277,"click_time":1551901558511,"finger_time":1551901557872,"fix_duration":584.9307925011371,"trial":19,"RT":595,"MT":639,"sideResp":2,"stimulus":"img/900/equaldotanddens/R/5_Ratio_900_L_9_R_10.png","xmouse":[801,801,801,801,801,801,801,801,801,801,801,801,801,801,801,801,801,801,801,801,801,801,801,801,801,801,801,811,830,848,883,894,901,908,913,922,929,935,942,949,967,980,991,1005,1019,1037,1060,1071,1080,1089,1100,1104,1110,1116,1120,1124,1125,1126,1129,1129,1131,1131],"ymouse":[654,654,654,654,654,654,654,654,654,654,654,654,654,654,654,654,654,654,654,654,654,654,654,654,654,654,654,646,624,604,564,548,537,528,519,502,485,474,462,449,416,392,365,339,317,289,261,247,235,221,200,189,177,166,158,143,134,126,118,111,100,95],"timestamp_mouse":[20,35,54,74,95,114,135,155,175,195,214,234,254,274,295,315,335,355,374,395,415,436,455,474,494,515,534,554,574,595,614,634,654,674,694,714,734,754,774,794,815,834,855,875,894,914,935,954,974,994,1015,1034,1055,1074,1094,1115,1134,1154,1174,1194,1214,1234],"xSR":741.5,"ySR":573.95,"xT1":424.9,"yT1":0,"xT2":1058.1,"yT2":0,"toosoon":0,"cond_shown":"equaldotanddens","ratio_trial":900,"smaller_num":"9","larger_num":"10","correct_side":2,"subjID":"MARIAFERNANDAGONZALEZ","gender":"1","age":"10","school":"6"},{"start_time":1551901562950,"click_time":1551901564151,"finger_time":1551901563771,"fix_duration":356.94809406454317,"trial":20,"RT":821,"MT":380,"sideResp":2,"stimulus":"img/500/equaldotanddens/R/2_Ratio_500_L_3_R_6.png","xmouse":[786,786,786,786,786,786,786,786,786,786,786,786,787,791,792,792,792,792,793,793,793,793,793,796,798,799,800,803,806,807,808,809,809,809,809,809,809,809,809,814,826,870,891,948,977,1001,1022,1045,1072,1079,1081,1086,1096,1103,1103,1103,1103,1103,1103,1103,1104],"ymouse":[648,648,648,648,648,648,648,648,648,648,648,648,648,648,648,648,648,648,648,648,648,648,648,649,650,650,651,652,654,654,655,655,655,655,655,655,655,655,655,655,645,573,515,383,323,280,243,205,166,154,149,138,120,106,106,106,106,106,106,105,83],"timestamp_mouse":[8,22,41,62,82,101,121,142,162,182,201,222,241,261,281,301,321,342,361,382,401,422,441,461,482,502,521,542,561,581,601,622,641,661,682,701,721,741,761,782,801,821,841,861,881,901,921,941,961,982,1001,1022,1041,1061,1081,1101,1121,1141,1161,1182,1201],"xSR":741.5,"ySR":573.95,"xT1":424.9,"yT1":0,"xT2":1058.1,"yT2":0,"toosoon":0,"cond_shown":"equaldotanddens","ratio_trial":500,"smaller_num":"3","larger_num":"6","correct_side":2,"subjID":"MARIAFERNANDAGONZALEZ","gender":"1","age":"10","school":"6"},{"start_time":1551901566615,"click_time":1551901568092,"finger_time":1551901567491,"fix_duration":1001.5011992874696,"trial":21,"RT":876,"MT":601,"sideResp":2,"stimulus":"img/750/equaldotanddens/R/7_Ratio_750_L_3_R_4.png","xmouse":[812,812,812,812,812,812,812,812,812,812,812,812,812,812,812,812,812,812,812,812,812,812,812,812,812,812,812,812,812,812,812,812,812,812,812,812,812,812,812,812,812,818,832,845,864,871,880,889,901,920,930,945,968,1005,1016,1024,1027,1029,1030,1030,1030,1030,1030,1030,1032,1033,1035,1039,1042,1049,1053,1057,1058,1059],"ymouse":[622,622,622,622,622,622,622,622,622,622,622,622,622,622,622,622,622,622,622,622,622,622,622,622,622,622,622,622,622,622,622,622,622,622,622,622,622,622,622,622,622,622,616,610,599,592,582,570,552,519,498,462,408,322,296,275,259,245,210,195,181,162,146,135,125,121,116,107,100,89,86,83,82,82],"timestamp_mouse":[16,37,56,77,96,116,136,156,177,196,216,236,256,277,296,317,336,357,376,396,416,436,456,476,496,516,536,556,576,596,616,637,657,676,696,716,736,756,776,797,816,837,856,876,896,917,936,957,976,996,1016,1036,1056,1078,1097,1116,1136,1156,1177,1196,1216,1236,1256,1278,1295,1316,1336,1356,1377,1396,1416,1436,1457,1476],"xSR":741.5,"ySR":573.95,"xT1":424.9,"yT1":0,"xT2":1058.1,"yT2":0,"toosoon":0,"cond_shown":"equaldotanddens","ratio_trial":750,"smaller_num":"3","larger_num":"4","correct_side":2,"subjID":"MARIAFERNANDAGONZALEZ","gender":"1","age":"10","school":"6"},{"start_time":1551901570313,"click_time":1551901571272,"finger_time":1551901570691,"fix_duration":1199.37038797265,"trial":22,"RT":378,"MT":581,"sideResp":1,"stimulus":"img/250/equaldotsize/L/1_Ratio_250_L_8_R_2.png","xmouse":[763,763,763,763,763,763,763,763,763,763,763,763,763,763,763,763,770,780,790,801,818,822,825,827,829,830,832,835,840,843,847,847,847,847,847,847,843,833,823,798,782,766,746,722,672,583,543,518,499],"ymouse":[635,635,635,635,635,635,635,635,635,635,635,635,635,635,635,635,628,605,581,556,516,506,499,494,490,487,482,474,466,457,439,433,431,431,430,430,426,415,397,354,333,313,289,262,213,144,119,105,94],"timestamp_mouse":[1,27,38,58,78,99,119,138,159,178,198,219,239,259,279,298,318,339,359,378,398,418,439,459,479,498,518,538,559,578,598,618,639,658,678,699,718,739,758,779,798,818,838,859,878,898,918,939,959],"xSR":741.5,"ySR":573.95,"xT1":424.9,"yT1":0,"xT2":1058.1,"yT2":0,"toosoon":0,"cond_shown":"equaldotsize","ratio_trial":250,"smaller_num":"2","larger_num":"8","correct_side":1,"subjID":"MARIAFERNANDAGONZALEZ","gender":"1","age":"10","school":"6"},{"start_time":1551901573449,"click_time":1551901574692,"finger_time":1551901574311,"fix_duration":1154.1966739932507,"trial":23,"RT":862,"MT":381,"sideResp":2,"stimulus":"img/900/randomdotsizeEA/R/7_Ratio_900_L_9_R_10.png","xmouse":[815,815,815,815,815,815,815,815,815,815,815,815,815,815,815,815,815,815,815,815,815,815,815,815,815,815,815,815,815,815,815,815,815,815,815,815,815,815,815,815,815,815,827,873,909,947,992,1005,1023,1033,1039,1045,1053,1064,1068,1073,1075,1080,1086,1089,1092,1100,1107],"ymouse":[594,594,594,594,594,594,594,594,594,594,594,594,594,594,594,594,594,594,594,594,594,594,594,594,594,594,594,594,594,594,594,594,594,594,594,594,594,594,594,594,594,594,576,512,458,417,365,350,320,303,289,273,257,223,205,189,176,164,142,132,120,104,86],"timestamp_mouse":[8,23,43,63,83,102,123,142,162,183,202,223,243,263,282,302,322,342,362,382,402,422,442,463,483,502,522,542,562,583,602,622,643,662,683,703,723,743,762,782,803,822,844,862,882,902,923,942,963,982,1003,1022,1042,1062,1082,1102,1122,1142,1162,1183,1203,1222,1242],"xSR":741.5,"ySR":573.95,"xT1":424.9,"yT1":0,"xT2":1058.1,"yT2":0,"toosoon":0,"cond_shown":"randomdotsizeEA","ratio_trial":900,"smaller_num":"9","larger_num":"10","correct_side":2,"subjID":"MARIAFERNANDAGONZALEZ","gender":"1","age":"10","school":"6"},{"start_time":1551901575850,"click_time":1551901577191,"finger_time":1551901576611,"fix_duration":497.8109053901251,"trial":24,"RT":761,"MT":580,"sideResp":1,"stimulus":"img/900/equaldotsize/R/11_Ratio_900_L_18_R_20.png","xmouse":[826,826,826,826,826,826,826,826,826,826,826,826,826,826,826,826,826,826,826,826,826,826,826,826,826,826,826,826,826,826,826,826,826,826,826,826,826,819,740,704,690,682,667,661,656,652,643,630,628,627,627,627,626,609,596,580,558,545,525,518,515,515,514,514,510,504,497,488],"ymouse":[627,627,627,627,627,627,627,627,627,627,627,627,627,627,627,627,627,627,627,627,627,627,627,627,627,627,627,627,627,627,627,627,627,627,627,627,626,590,354,270,235,218,183,168,155,144,129,111,110,109,109,109,109,115,121,128,137,143,146,146,146,146,145,145,135,122,107,90],"timestamp_mouse":[8,22,42,62,81,101,121,141,161,181,203,221,242,261,281,301,321,341,362,381,401,421,441,461,481,501,521,542,561,581,601,622,641,662,681,702,721,741,761,781,803,821,842,861,881,901,921,942,961,982,1001,1021,1041,1061,1081,1101,1121,1141,1161,1181,1201,1222,1241,1261,1281,1301,1321,1341],"xSR":741.5,"ySR":573.95,"xT1":424.9,"yT1":0,"xT2":1058.1,"yT2":0,"toosoon":0,"cond_shown":"equaldotsize","ratio_trial":900,"smaller_num":"18","larger_num":"20","correct_side":2,"subjID":"MARIAFERNANDAGONZALEZ","gender":"1","age":"10","school":"6"},{"start_time":1551901579431,"click_time":1551901580612,"finger_time":1551901580351,"fix_duration":1257.457901665369,"trial":25,"RT":920,"MT":261,"sideResp":1,"stimulus":"img/900/equaldotanddens/L/10_Ratio_900_L_20_R_18.png","xmouse":[790,790,790,790,790,790,790,790,790,790,790,790,790,790,790,790,790,790,790,790,790,790,790,790,790,790,790,790,790,790,790,790,790,790,790,790,790,790,790,790,790,790,790,791,794,795,792,781,745,698,677,650,619,561,538,529,523,520,519,514],"ymouse":[609,609,609,609,609,609,609,609,609,609,609,609,609,609,609,609,609,609,609,609,609,609,609,609,609,609,609,609,609,609,609,609,609,609,609,609,609,609,609,609,609,609,609,609,597,576,548,517,446,373,338,290,239,168,144,135,128,122,116,88],"timestamp_mouse":[8,27,40,61,80,100,120,140,161,181,200,222,241,261,280,301,320,340,360,381,400,420,441,461,480,501,521,540,560,580,600,620,640,660,680,700,720,740,760,781,800,821,840,860,880,900,920,940,960,980,1000,1021,1041,1060,1080,1100,1121,1140,1160,1181],"xSR":741.5,"ySR":573.95,"xT1":424.9,"yT1":0,"xT2":1058.1,"yT2":0,"toosoon":0,"cond_shown":"equaldotanddens","ratio_trial":900,"smaller_num":"18","larger_num":"20","correct_side":1,"subjID":"MARIAFERNANDAGONZALEZ","gender":"1","age":"10","school":"6"},{"start_time":1551901581783,"click_time":1551901583652,"finger_time":1551901582691,"fix_duration":250,"trial":26,"RT":908,"MT":961,"sideResp":1,"stimulus":"img/900/randomdotsizeEA/R/11_Ratio_900_L_18_R_20.png","xmouse":[794,794,794,794,794,794,794,794,794,794,794,794,794,794,794,794,794,794,794,794,794,794,794,794,794,794,794,794,794,794,794,794,794,794,794,794,794,794,794,794,794,794,794,808,819,849,861,876,884,888,889,890,898,916,928,934,937,937,937,937,913,892,872,849,826,769,711,633,539,446,329,325,325,325,325,325,325,325,325,325,338,357,374,386,388,389,389,389,389,390,390,408,420,432],"ymouse":[606,606,606,606,606,606,606,606,606,606,606,606,606,606,606,606,606,606,606,606,606,606,606,606,606,606,606,606,606,606,606,606,606,606,606,606,606,606,606,606,606,606,606,598,588,554,536,513,499,491,491,490,480,455,432,417,407,407,407,407,411,419,427,431,431,395,325,209,73,0,0,0,0,0,0,0,0,0,0,0,41,80,113,124,127,127,127,127,127,127,127,112,97,83],"timestamp_mouse":[8,36,48,68,88,109,129,148,169,189,209,229,249,269,288,308,328,349,368,389,408,428,448,469,488,509,528,549,569,589,608,629,649,669,688,709,729,748,769,788,808,828,849,869,888,908,928,948,969,989,1009,1029,1048,1068,1089,1108,1129,1148,1168,1189,1208,1228,1248,1269,1288,1309,1328,1348,1369,1388,1409,1428,1448,1468,1488,1509,1528,1549,1568,1588,1609,1628,1648,1668,1688,1709,1729,1749,1768,1788,1808,1828,1849,1869],"xSR":741.5,"ySR":573.95,"xT1":424.9,"yT1":0,"xT2":1058.1,"yT2":0,"toosoon":0,"cond_shown":"randomdotsizeEA","ratio_trial":900,"smaller_num":"18","larger_num":"20","correct_side":2,"subjID":"MARIAFERNANDAGONZALEZ","gender":"1","age":"10","school":"6"},{"start_time":1551901585365,"click_time":1551901587052,"finger_time":1551901586071,"fix_duration":452.7902351405041,"trial":27,"RT":706,"MT":981,"sideResp":1,"stimulus":"img/750/randomdotsizeEA/R/5_Ratio_750_L_15_R_20.png","xmouse":[798,798,799,799,799,799,799,799,799,799,799,799,799,799,799,799,799,799,799,799,799,799,799,799,799,799,799,799,799,799,799,799,799,809,830,853,871,893,896,896,896,896,898,911,932,956,978,1007,1011,1013,1013,1011,1011,1010,1009,1005,999,975,955,932,903,837,738,687,664,649,636,601,583,566,544,538,535,535,535,535,535,535,535,535,535,535,535,532,522],"ymouse":[629,629,629,629,629,629,629,629,629,629,629,629,629,629,629,629,629,629,629,629,629,629,629,629,629,629,629,629,629,629,629,629,629,623,611,591,574,559,557,557,557,557,555,541,524,507,486,443,429,418,409,402,402,401,401,400,400,394,386,372,348,293,199,166,148,138,129,110,103,100,102,103,105,105,105,105,105,105,105,105,105,105,105,104,93],"timestamp_mouse":[8,31,46,66,86,107,127,147,167,187,206,227,246,266,286,306,326,347,366,387,407,427,446,466,487,506,527,546,567,587,607,627,647,666,686,706,726,746,766,786,806,826,847,866,886,906,926,946,966,986,1006,1027,1046,1066,1086,1107,1127,1146,1166,1186,1206,1226,1248,1266,1286,1306,1327,1346,1366,1386,1406,1427,1446,1466,1486,1506,1526,1546,1566,1587,1606,1627,1646,1666,1687],"xSR":741.5,"ySR":573.95,"xT1":424.9,"yT1":0,"xT2":1058.1,"yT2":0,"toosoon":0,"cond_shown":"randomdotsizeEA","ratio_trial":750,"smaller_num":"15","larger_num":"20","correct_side":2,"subjID":"MARIAFERNANDAGONZALEZ","gender":"1","age":"10","school":"6"},{"start_time":1551901588362,"click_time":1551901589531,"finger_time":1551901588911,"fix_duration":250,"trial":28,"RT":549,"MT":620,"sideResp":2,"stimulus":"img/900/equaldotsize/R/11_Ratio_900_L_18_R_20.png","xmouse":[809,809,809,809,809,809,809,809,809,809,809,809,809,809,809,811,825,827,827,827,828,828,830,835,838,839,840,843,845,849,855,861,880,890,897,903,915,920,924,931,941,961,984,993,1000,1005,1013,1016,1019,1024,1027,1034,1038,1042,1046,1051,1064,1071,1074],"ymouse":[664,664,664,664,664,664,664,664,664,664,664,664,664,664,664,664,658,657,657,657,657,657,655,652,650,649,648,646,644,641,635,629,607,590,572,550,507,491,477,460,437,387,319,296,276,266,254,249,244,234,222,199,186,172,155,140,112,100,93],"timestamp_mouse":[10,29,49,69,89,109,130,150,169,189,209,230,250,271,289,309,330,350,369,389,409,429,449,469,490,509,529,549,569,589,610,630,650,669,690,709,731,749,770,789,810,830,850,869,890,910,930,949,969,990,1010,1030,1049,1070,1090,1110,1131,1149,1169],"xSR":741.5,"ySR":573.95,"xT1":424.9,"yT1":0,"xT2":1058.1,"yT2":0,"toosoon":0,"cond_shown":"equaldotsize","ratio_trial":900,"smaller_num":"18","larger_num":"20","correct_side":2,"subjID":"MARIAFERNANDAGONZALEZ","gender":"1","age":"10","school":"6"},{"start_time":1551901591269,"click_time":1551901592431,"finger_time":1551901592012,"fix_duration":857.4471156630399,"trial":29,"RT":743,"MT":419,"sideResp":2,"stimulus":"img/900/equaldotanddens/R/14_Ratio_900_L_18_R_20.png","xmouse":[798,798,798,798,798,798,798,798,798,798,798,798,798,798,798,798,798,798,798,798,798,798,798,798,798,798,798,798,798,798,798,798,798,798,798,814,839,904,958,1005,1040,1064,1092,1102,1109,1114,1118,1118,1117,1112,1109,1106,1098,1096,1095,1094,1094,1094,1097],"ymouse":[621,621,621,621,621,621,621,621,621,621,621,621,621,621,621,621,621,621,621,621,621,621,621,621,621,621,621,621,621,621,621,621,621,621,621,610,598,568,544,520,499,481,451,433,412,393,358,312,290,267,247,226,177,160,146,134,119,105,95],"timestamp_mouse":[9,23,42,63,83,103,122,143,162,182,202,223,244,263,282,302,323,342,363,382,402,423,442,462,483,503,523,542,562,583,602,622,643,662,682,703,723,743,762,783,803,823,842,862,882,902,922,942,962,983,1003,1022,1042,1063,1083,1102,1122,1143,1162],"xSR":741.5,"ySR":573.95,"xT1":424.9,"yT1":0,"xT2":1058.1,"yT2":0,"toosoon":0,"cond_shown":"equaldotanddens","ratio_trial":900,"smaller_num":"18","larger_num":"20","correct_side":2,"subjID":"MARIAFERNANDAGONZALEZ","gender":"1","age":"10","school":"6"},{"start_time":1551901594779,"click_time":1551901596032,"finger_time":1551901595412,"fix_duration":1467.489730810713,"trial":30,"RT":633,"MT":620,"sideResp":2,"stimulus":"img/750/equaldotanddens/R/5_Ratio_750_L_15_R_20.png","xmouse":[805,805,805,805,805,805,805,805,805,805,805,805,805,805,805,805,805,805,805,805,805,805,805,805,805,805,805,805,805,805,806,843,871,894,915,935,947,961,976,1003,1017,1034,1041,1045,1049,1050,1054,1059,1064,1070,1076,1079,1079,1079,1079,1079,1086,1092,1097,1097,1097,1097,1100],"ymouse":[623,623,623,623,623,623,623,623,623,623,623,623,623,623,623,623,623,623,623,623,623,623,623,623,623,623,623,623,623,623,623,610,595,581,563,518,490,457,422,356,310,238,212,192,179,174,165,154,143,128,115,110,110,110,110,110,107,103,101,101,101,101,98],"timestamp_mouse":[12,32,53,72,92,112,132,152,172,192,212,232,253,272,292,312,333,352,373,392,412,433,453,472,492,513,532,552,572,593,612,632,652,672,692,713,732,752,773,792,813,833,852,873,893,913,932,952,972,993,1012,1033,1052,1072,1093,1112,1132,1152,1173,1192,1212,1233,1253],"xSR":741.5,"ySR":573.95,"xT1":424.9,"yT1":0,"xT2":1058.1,"yT2":0,"toosoon":0,"cond_shown":"equaldotanddens","ratio_trial":750,"smaller_num":"15","larger_num":"20","correct_side":2,"subjID":"MARIAFERNANDAGONZALEZ","gender":"1","age":"10","school":"6"},{"start_time":1551901597624,"click_time":1551901598912,"finger_time":1551901598492,"fix_duration":250,"trial":31,"RT":868,"MT":420,"sideResp":1,"stimulus":"img/250/equaldotsize/L/3_Ratio_250_L_8_R_2.png","xmouse":[804,804,804,804,804,804,804,804,804,804,804,804,804,804,804,804,804,804,804,804,804,804,804,804,804,804,804,804,804,804,804,804,804,804,804,804,804,804,804,804,804,794,787,778,758,747,729,696,674,644,635,631,630,628,620,610,600,589,580,571,562,550,534,519,499],"ymouse":[625,625,625,625,625,625,625,625,625,625,625,625,625,625,625,625,625,625,625,625,625,625,625,625,625,625,625,625,625,625,625,625,625,625,625,625,625,625,625,625,625,611,598,569,498,455,403,313,267,216,203,196,191,187,172,161,151,145,137,131,126,119,112,105,96],"timestamp_mouse":[10,29,47,68,87,107,128,147,167,187,207,227,247,268,287,307,328,348,367,389,407,427,448,468,487,507,527,547,567,587,608,627,647,668,687,707,727,747,768,787,808,828,848,867,887,908,927,947,967,988,1007,1028,1047,1068,1087,1108,1127,1147,1167,1187,1207,1227,1248,1267,1288],"xSR":741.5,"ySR":573.95,"xT1":424.9,"yT1":0,"xT2":1058.1,"yT2":0,"toosoon":0,"cond_shown":"equaldotsize","ratio_trial":250,"smaller_num":"2","larger_num":"8","correct_side":1,"subjID":"MARIAFERNANDAGONZALEZ","gender":"1","age":"10","school":"6"},{"start_time":1551901603524,"click_time":1551901604551,"finger_time":1551901604310,"fix_duration":1370.9657192725272,"trial":32,"RT":786,"MT":241,"sideResp":2,"stimulus":"img/750/equaldotanddens/R/7_Ratio_750_L_3_R_4.png","xmouse":[820,820,820,820,820,820,820,820,820,820,820,820,820,820,820,820,820,820,820,820,820,820,820,820,820,820,820,820,820,820,820,820,820,820,820,820,820,821,829,889,926,971,1003,1032,1084,1094,1099,1101,1104,1117,1121,1132],"ymouse":[618,618,618,618,618,618,618,618,618,618,618,618,618,618,618,618,618,618,618,618,618,618,618,618,618,618,618,618,618,618,618,618,618,618,618,618,618,618,614,546,494,429,373,325,242,223,210,201,188,141,113,72],"timestamp_mouse":[9,28,46,68,87,106,128,147,168,187,206,228,246,268,287,307,327,348,368,386,407,427,448,467,487,507,527,546,566,587,606,630,648,668,688,708,727,747,767,786,806,827,847,867,886,907,928,947,966,986,1008,1027],"xSR":741.5,"ySR":573.95,"xT1":424.9,"yT1":0,"xT2":1058.1,"yT2":0,"toosoon":0,"cond_shown":"equaldotanddens","ratio_trial":750,"smaller_num":"3","larger_num":"4","correct_side":2,"subjID":"MARIAFERNANDAGONZALEZ","gender":"1","age":"10","school":"6"},{"start_time":1551901606309,"click_time":1551901608012,"finger_time":1551901607310,"fix_duration":796.6807169747163,"trial":33,"RT":1001,"MT":702,"sideResp":1,"stimulus":"img/900/randomdotsizeEA/R/9_Ratio_900_L_18_R_20.png","xmouse":[805,805,805,805,805,805,805,805,805,805,805,805,805,805,805,805,805,805,805,805,805,805,805,805,805,805,805,805,805,805,805,805,805,805,805,805,805,805,805,805,805,805,805,805,805,805,797,782,769,762,745,737,731,720,698,690,682,676,670,662,641,633,625,616,614,611,611,610,609,599,569,556,546,542,539,539,539,539,539,539,539,539,538,538,535,520],"ymouse":[609,609,609,609,609,609,609,609,609,609,609,609,609,609,609,609,609,609,609,609,609,609,609,609,609,609,609,609,609,609,609,609,609,609,609,609,609,609,609,609,609,609,609,609,609,610,613,613,609,604,563,523,466,395,228,196,170,152,135,113,56,19,0,0,0,0,0,0,0,3,18,25,32,40,45,45,45,45,45,45,45,45,46,46,49,76],"timestamp_mouse":[11,29,43,63,82,102,122,143,162,181,203,223,241,263,283,301,322,342,362,382,401,422,442,462,482,501,522,543,562,582,602,621,642,662,683,701,722,742,762,782,801,823,841,862,881,903,921,942,962,981,1001,1022,1042,1062,1083,1102,1121,1142,1162,1182,1201,1222,1243,1263,1282,1302,1323,1342,1362,1383,1402,1422,1442,1462,1483,1501,1521,1541,1562,1581,1602,1621,1642,1662,1683,1703],"xSR":741.5,"ySR":573.95,"xT1":424.9,"yT1":0,"xT2":1058.1,"yT2":0,"toosoon":0,"cond_shown":"randomdotsizeEA","ratio_trial":900,"smaller_num":"18","larger_num":"20","correct_side":2,"subjID":"MARIAFERNANDAGONZALEZ","gender":"1","age":"10","school":"6"},{"start_time":1551901610173,"click_time":1551901611211,"finger_time":1551901610892,"fix_duration":1182.7936748618545,"trial":34,"RT":719,"MT":319,"sideResp":1,"stimulus":"img/250/equaldotsize/L/2_Ratio_250_L_16_R_4.png","xmouse":[800,800,800,800,800,800,800,800,800,800,800,800,800,800,800,800,800,800,800,800,800,800,800,800,800,800,800,800,800,800,800,800,800,795,787,755,688,666,637,612,597,579,576,576,576,575,565,559,551,537,530,505],"ymouse":[652,652,652,652,652,652,652,652,652,652,652,652,652,652,652,652,652,652,652,652,652,652,652,652,652,652,652,652,652,652,652,652,652,640,620,532,336,260,159,105,74,48,45,44,44,42,33,29,27,26,28,39],"timestamp_mouse":[18,38,58,78,98,118,137,158,178,197,217,238,259,277,299,319,339,358,379,397,417,437,459,479,497,518,538,557,577,598,619,637,657,678,697,719,737,757,777,797,818,837,857,879,898,918,938,959,978,997,1018,1038],"xSR":741.5,"ySR":573.95,"xT1":424.9,"yT1":0,"xT2":1058.1,"yT2":0,"toosoon":0,"cond_shown":"equaldotsize","ratio_trial":250,"smaller_num":"4","larger_num":"16","correct_side":1,"subjID":"MARIAFERNANDAGONZALEZ","gender":"1","age":"10","school":"6"},{"start_time":1551901612682,"click_time":1551901613992,"finger_time":1551901613510,"fix_duration":250,"trial":35,"RT":828,"MT":482,"sideResp":1,"stimulus":"img/250/equaldotanddens/L/3_Ratio_250_L_8_R_2.png","xmouse":[780,780,780,780,780,780,780,780,780,780,780,780,780,780,780,780,780,780,780,780,780,780,780,780,780,780,780,780,780,780,780,780,780,780,780,780,780,780,780,771,763,730,722,713,705,700,685,673,663,653,643,622,610,599,589,585,579,577,576,573,566,562,555,543,526,487],"ymouse":[656,656,656,656,656,656,656,656,656,656,656,656,656,656,656,656,656,656,656,656,656,656,656,656,656,656,656,656,656,656,656,656,656,656,656,656,656,656,656,613,581,467,425,380,324,295,248,225,202,178,160,120,106,92,83,81,79,79,78,78,78,77,77,77,77,77],"timestamp_mouse":[8,37,49,69,89,109,129,149,169,188,210,229,248,270,290,309,329,349,369,390,410,429,448,470,488,508,530,550,570,588,609,630,648,670,688,710,730,750,770,788,810,828,850,869,890,909,928,949,970,989,1009,1029,1048,1069,1088,1108,1130,1149,1168,1189,1210,1228,1248,1268,1289,1310],"xSR":741.5,"ySR":573.95,"xT1":424.9,"yT1":0,"xT2":1058.1,"yT2":0,"toosoon":0,"cond_shown":"equaldotanddens","ratio_trial":250,"smaller_num":"2","larger_num":"8","correct_side":1,"subjID":"MARIAFERNANDAGONZALEZ","gender":"1","age":"10","school":"6"},{"start_time":1551901616462,"click_time":1551901617811,"finger_time":1551901617230,"fix_duration":1408.0138580889775,"trial":36,"RT":768,"MT":581,"sideResp":2,"stimulus":"img/900/equaldotsize/L/10_Ratio_900_L_20_R_18.png","xmouse":[782,782,782,782,782,782,782,782,782,782,782,782,782,782,782,782,782,782,782,782,782,782,782,782,782,782,782,782,782,782,782,782,782,782,782,784,788,833,857,881,901,918,942,954,976,990,1003,1033,1050,1071,1089,1122,1136,1150,1163,1170,1170,1170,1171,1171,1171,1171,1171,1171,1171,1166,1163,1155],"ymouse":[635,635,635,635,635,635,635,635,635,635,635,635,635,635,635,635,635,635,635,635,635,635,635,635,635,635,635,635,635,635,635,635,635,635,635,635,635,616,603,583,564,546,506,486,456,438,424,397,384,368,352,306,280,251,221,177,109,46,29,20,15,15,15,14,14,14,15,19],"timestamp_mouse":[10,28,48,69,89,109,128,148,169,189,209,229,249,269,289,310,330,350,369,389,410,430,449,469,489,509,530,549,569,589,609,628,648,669,689,710,729,749,768,789,809,829,849,869,888,910,929,949,969,990,1010,1030,1048,1070,1089,1110,1129,1149,1169,1189,1210,1230,1248,1269,1289,1309,1329,1349],"xSR":741.5,"ySR":573.95,"xT1":424.9,"yT1":0,"xT2":1058.1,"yT2":0,"toosoon":0,"cond_shown":"equaldotsize","ratio_trial":900,"smaller_num":"18","larger_num":"20","correct_side":1,"subjID":"MARIAFERNANDAGONZALEZ","gender":"1","age":"10","school":"6"},{"start_time":1551901620918,"click_time":1551901622331,"finger_time":1551901621790,"fix_duration":605.6171616054872,"trial":37,"RT":872,"MT":541,"sideResp":2,"stimulus":"img/750/equaldotanddens/R/5_Ratio_750_L_15_R_20.png","xmouse":[817,817,817,817,817,817,817,817,817,817,817,817,817,817,817,817,817,817,817,817,817,817,817,817,817,817,817,817,817,817,817,817,817,817,817,817,817,817,817,817,816,819,832,842,860,870,877,888,903,944,960,968,974,982,986,991,1000,1016,1029,1045,1053,1060,1077,1115,1152,1160,1164,1167,1168,1164,1149],"ymouse":[662,662,662,662,662,662,662,662,662,662,662,662,662,662,662,662,662,662,662,662,662,662,662,662,662,662,662,662,662,662,662,662,662,662,662,662,662,662,662,662,661,654,637,624,594,576,557,533,504,434,400,372,349,324,308,297,283,261,243,222,215,209,198,181,164,156,150,142,135,117,98],"timestamp_mouse":[13,34,53,73,92,113,132,153,174,193,212,233,252,274,293,312,334,354,373,393,424,433,452,473,492,513,532,552,574,592,612,633,654,673,694,713,732,753,773,794,813,832,852,872,894,913,933,953,973,992,1012,1032,1054,1073,1094,1112,1133,1152,1173,1192,1213,1233,1253,1273,1294,1313,1332,1353,1373,1392,1413],"xSR":741.5,"ySR":573.95,"xT1":424.9,"yT1":0,"xT2":1058.1,"yT2":0,"toosoon":0,"cond_shown":"equaldotanddens","ratio_trial":750,"smaller_num":"15","larger_num":"20","correct_side":2,"subjID":"MARIAFERNANDAGONZALEZ","gender":"1","age":"10","school":"6"},{"start_time":1551901625913,"click_time":1551901627111,"finger_time":1551901626852,"fix_duration":1140.4106473146853,"trial":38,"RT":939,"MT":259,"sideResp":1,"stimulus":"img/750/equaldotsize/L/10_Ratio_750_L_4_R_3.png","xmouse":[796,796,796,796,796,796,796,796,796,796,796,796,796,796,796,796,796,796,796,796,796,796,796,796,796,796,796,796,796,796,796,796,796,796,796,796,796,796,796,796,796,796,796,796,796,790,771,749,722,661,633,613,594,586,574,567,560,549,537,520],"ymouse":[647,647,647,647,647,647,647,647,647,647,647,647,647,647,647,647,647,647,647,647,647,647,647,647,647,647,647,647,647,647,647,647,647,647,647,647,647,647,647,647,647,647,647,647,643,605,540,477,417,304,258,221,177,155,114,97,79,59,41,18],"timestamp_mouse":[21,38,59,77,99,119,138,158,178,198,218,238,258,277,299,317,339,359,378,399,417,437,458,478,499,518,537,559,577,598,618,637,659,679,697,718,738,759,779,798,818,838,857,878,898,917,939,958,978,998,1018,1038,1058,1078,1099,1118,1138,1157,1177,1198],"xSR":741.5,"ySR":573.95,"xT1":424.9,"yT1":0,"xT2":1058.1,"yT2":0,"toosoon":0,"cond_shown":"equaldotsize","ratio_trial":750,"smaller_num":"3","larger_num":"4","correct_side":1,"subjID":"MARIAFERNANDAGONZALEZ","gender":"1","age":"10","school":"6"},{"start_time":1551901629386,"click_time":1551901630572,"finger_time":1551901630191,"fix_duration":453.6405638093598,"trial":39,"RT":805,"MT":381,"sideResp":2,"stimulus":"img/500/equaldotanddens/R/15_Ratio_500_L_1_R_2.png","xmouse":[749,749,749,749,749,749,749,749,749,749,749,749,749,749,749,749,749,749,749,749,749,749,749,749,749,749,749,749,749,749,749,749,749,749,749,753,769,780,795,834,886,976,1007,1049,1091,1160,1183,1200,1219,1231,1243,1261,1264,1264,1258,1241,1202,1185,1169,1152],"ymouse":[613,613,613,613,613,613,613,613,613,613,613,613,613,613,613,613,613,613,613,613,613,613,613,613,613,613,613,613,613,613,613,613,613,613,613,613,613,613,614,615,615,615,610,597,583,549,532,516,487,465,443,385,346,306,262,209,125,87,54,27],"timestamp_mouse":[8,33,46,64,84,106,125,145,164,186,204,225,245,265,286,305,326,344,366,385,405,426,444,466,485,506,525,545,565,585,604,625,645,665,685,705,724,745,765,784,805,825,844,865,885,906,924,945,964,985,1005,1025,1044,1064,1085,1105,1124,1146,1165,1186],"xSR":741.5,"ySR":573.95,"xT1":424.9,"yT1":0,"xT2":1058.1,"yT2":0,"toosoon":0,"cond_shown":"equaldotanddens","ratio_trial":500,"smaller_num":"1","larger_num":"2","correct_side":2,"subjID":"MARIAFERNANDAGONZALEZ","gender":"1","age":"10","school":"6"},{"start_time":1551901636952,"click_time":1551901638486,"finger_time":1551901638486,"fix_duration":400.8112054860822,"trial":40,"RT":1534,"MT":0,"sideResp":2,"stimulus":"img/250/randomdotsizeEA/L/5_Ratio_250_L_24_R_6.png","xmouse":[1095],"ymouse":[75],"timestamp_mouse":[1534],"xSR":741.5,"ySR":573.95,"xT1":424.9,"yT1":0,"xT2":1058.1,"yT2":0,"toosoon":0,"cond_shown":"randomdotsizeEA","ratio_trial":250,"smaller_num":"6","larger_num":"24","correct_side":1,"subjID":"MARIAFERNANDAGONZALEZ","gender":"1","age":"10","school":"6"},{"start_time":1551901661422,"click_time":1551901665231,"finger_time":1551901664711,"fix_duration":250,"trial":41,"RT":3289,"MT":520,"sideResp":2,"stimulus":"img/500/randomdotsizeEA/R/3_Ratio_500_L_10_R_20.png","xmouse":[818,818,818,818,818,818,818,818,818,818,818,818,818,818,818,818,818,818,818,818,818,818,818,818,818,818,818,818,818,818,818,818,818,818,818,818,818,818,818,818,818,818,818,818,818,818,818,818,818,818,818,818,818,818,818,818,818,818,818,818,818,818,818,818,818,818,818,818,818,818,818,818,818,818,818,818,818,818,818,818,818,818,818,818,818,818,818,818,818,818,818,818,818,818,818,818,818,818,818,818,818,818,818,818,818,818,818,818,818,818,818,818,818,818,818,818,818,818,818,818,818,818,818,818,818,818,818,818,818,818,818,818,818,818,818,818,818,818,818,818,818,818,818,818,818,818,818,818,818,818,818,818,818,818,818,818,818,818,818,818,818,818,818,826,854,873,900,917,930,945,947,950,951,953,958,963,971,981,988,1006,1017,1028,1043,1070,1079,1089,1095,1096,1097,1099,1100],"ymouse":[626,626,626,626,626,626,626,626,626,626,625,625,625,625,625,625,625,625,625,625,625,625,625,625,625,625,625,625,625,625,625,625,625,625,625,625,625,625,625,625,625,625,625,625,625,625,625,625,625,625,625,625,625,625,625,625,625,625,625,625,625,625,625,625,625,625,625,625,625,625,625,625,625,625,625,625,625,625,625,625,625,625,625,625,625,625,625,625,625,625,625,625,625,625,625,625,625,625,625,625,625,625,625,625,625,625,625,625,625,625,625,625,625,625,625,625,625,625,625,625,625,625,625,625,625,625,625,625,625,625,625,625,625,625,625,625,625,625,625,625,625,625,625,625,625,625,625,625,625,625,625,625,625,625,625,625,625,625,625,625,625,625,625,619,594,576,553,539,526,505,497,490,482,474,451,433,414,382,359,310,283,256,228,176,156,136,120,118,111,103,97],"timestamp_mouse":[9,32,49,69,88,110,129,148,169,189,210,228,250,269,289,310,329,349,370,389,410,429,449,469,489,508,529,549,570,590,608,628,649,670,688,709,728,750,770,788,809,829,849,868,890,908,928,949,970,988,1008,1030,1048,1068,1089,1108,1129,1148,1170,1188,1209,1228,1249,1268,1289,1308,1328,1349,1369,1389,1408,1428,1448,1469,1488,1509,1528,1550,1570,1588,1609,1628,1649,1670,1688,1708,1729,1748,1770,1789,1809,1828,1849,1869,1889,1910,1929,1948,1969,1989,2009,2029,2048,2069,2088,2111,2130,2149,2169,2190,2209,2229,2249,2269,2289,2309,2329,2349,2370,2390,2409,2430,2449,2469,2490,2509,2529,2549,2570,2589,2609,2630,2649,2669,2690,2709,2730,2750,2769,2789,2810,2829,2850,2870,2889,2910,2930,2950,2969,2989,3009,3029,3049,3069,3089,3110,3129,3149,3169,3189,3209,3229,3249,3269,3289,3310,3329,3350,3369,3389,3409,3430,3449,3470,3489,3510,3530,3550,3569,3590,3610,3629,3649,3670,3689,3710,3729,3749,3769,3789,3809],"xSR":741.5,"ySR":573.95,"xT1":424.9,"yT1":0,"xT2":1058.1,"yT2":0,"toosoon":0,"cond_shown":"randomdotsizeEA","ratio_trial":500,"smaller_num":"10","larger_num":"20","correct_side":2,"subjID":"MARIAFERNANDAGONZALEZ","gender":"1","age":"10","school":"6"},{"start_time":1551901667803,"click_time":1551901669312,"finger_time":1551901668651,"fix_duration":1290.8334919171693,"trial":42,"RT":848,"MT":661,"sideResp":2,"stimulus":"img/500/equaldotanddens/R/2_Ratio_500_L_3_R_6.png","xmouse":[757,757,757,757,757,757,757,757,757,757,757,757,757,757,757,757,757,757,757,757,757,757,757,757,757,757,757,757,757,757,757,757,757,757,757,757,757,757,757,757,760,833,943,1060,1161,1278,1289,1294,1300,1308,1313,1319,1323,1325,1325,1315,1307,1296,1291,1276,1246,1236,1228,1223,1213,1207,1197,1183,1181,1181,1177,1172,1166,1162,1160,1156],"ymouse":[659,659,659,659,659,659,659,659,659,659,659,659,659,659,659,659,659,659,659,659,659,659,659,659,659,659,659,659,659,659,659,659,659,659,659,659,659,659,659,659,657,613,564,525,494,438,421,402,360,293,260,230,203,174,146,99,84,77,76,77,91,95,97,97,95,94,90,84,83,83,82,80,79,79,79,79],"timestamp_mouse":[10,33,48,69,88,109,128,148,169,188,208,229,249,269,289,308,328,348,368,388,409,429,448,468,488,508,528,548,568,588,608,629,648,669,688,708,728,749,768,788,809,828,848,869,888,908,928,948,969,989,1008,1028,1048,1068,1088,1108,1129,1148,1168,1188,1209,1228,1249,1268,1289,1309,1329,1348,1369,1388,1409,1428,1448,1469,1488,1509],"xSR":741.5,"ySR":573.95,"xT1":424.9,"yT1":0,"xT2":1058.1,"yT2":0,"toosoon":0,"cond_shown":"equaldotanddens","ratio_trial":500,"smaller_num":"3","larger_num":"6","correct_side":2,"subjID":"MARIAFERNANDAGONZALEZ","gender":"1","age":"10","school":"6"},{"start_time":1551901672406,"click_time":1551901673732,"finger_time":1551901673151,"fix_duration":732.20384079085,"trial":43,"RT":745,"MT":581,"sideResp":1,"stimulus":"img/250/equaldotsize/L/2_Ratio_250_L_16_R_4.png","xmouse":[773,773,773,773,773,773,773,773,773,773,773,773,773,773,773,773,773,773,773,773,773,773,773,773,773,773,773,773,773,773,773,773,773,773,773,767,751,735,702,675,626,613,604,601,601,598,593,582,564,468,434,413,406,404,402,401,401,401,401,401,401,401,401,401,403,419,429],"ymouse":[632,632,632,632,632,632,632,632,632,632,632,632,632,632,632,632,632,632,632,632,632,632,632,632,632,632,632,632,632,632,632,632,632,632,632,622,606,586,540,495,407,385,371,365,363,360,354,343,327,242,195,160,143,132,121,107,105,104,104,104,104,104,104,103,100,91,85],"timestamp_mouse":[9,29,45,66,86,106,126,146,166,185,206,225,245,266,285,305,325,345,365,385,405,426,446,465,486,505,525,546,565,586,606,625,645,665,685,705,725,745,766,786,806,825,846,865,885,905,925,945,966,986,1005,1025,1045,1065,1085,1105,1125,1145,1165,1185,1205,1225,1245,1265,1285,1305,1326],"xSR":741.5,"ySR":573.95,"xT1":424.9,"yT1":0,"xT2":1058.1,"yT2":0,"toosoon":0,"cond_shown":"equaldotsize","ratio_trial":250,"smaller_num":"4","larger_num":"16","correct_side":1,"subjID":"MARIAFERNANDAGONZALEZ","gender":"1","age":"10","school":"6"},{"start_time":1551901675487,"click_time":1551901676591,"finger_time":1551901676251,"fix_duration":475.49467274228,"trial":44,"RT":764,"MT":340,"sideResp":1,"stimulus":"img/250/equaldotsize/L/1_Ratio_250_L_8_R_2.png","xmouse":[810,809,808,808,808,808,808,808,808,808,808,808,808,808,808,808,808,808,808,808,808,808,808,808,808,808,808,808,808,808,808,808,808,808,808,808,791,780,764,750,733,705,690,676,672,663,656,650,643,632,618,580,553,529,509,501],"ymouse":[659,658,658,658,658,658,658,658,658,658,658,658,658,658,658,658,658,658,658,658,658,658,658,658,658,658,658,658,658,658,658,658,658,658,657,652,611,584,534,478,421,325,292,263,257,246,240,236,230,218,203,169,144,124,106,95],"timestamp_mouse":[5,24,44,64,84,104,125,145,165,185,206,224,245,264,285,305,326,345,364,384,404,424,445,464,484,505,524,545,565,585,604,624,645,665,684,704,725,744,764,785,804,824,845,864,884,904,924,944,964,984,1005,1024,1045,1065,1084,1104],"xSR":741.5,"ySR":573.95,"xT1":424.9,"yT1":0,"xT2":1058.1,"yT2":0,"toosoon":0,"cond_shown":"equaldotsize","ratio_trial":250,"smaller_num":"2","larger_num":"8","correct_side":1,"subjID":"MARIAFERNANDAGONZALEZ","gender":"1","age":"10","school":"6"},{"start_time":1551901680181,"click_time":1551901681311,"finger_time":1551901680971,"fix_duration":1309.8327768544232,"trial":45,"RT":790,"MT":340,"sideResp":2,"stimulus":"img/900/randomdotsizeEA/L/10_Ratio_900_L_20_R_18.png","xmouse":[825,825,825,825,825,825,825,825,825,825,825,825,825,825,825,825,825,825,825,825,825,825,825,825,825,825,825,825,825,825,825,825,825,825,828,830,835,837,839,844,848,866,881,902,928,953,1000,1020,1038,1065,1075,1089,1097,1106,1118,1136,1151],"ymouse":[644,644,644,644,644,644,644,644,644,644,644,644,644,644,644,644,644,644,644,644,644,644,644,644,644,644,644,644,644,644,644,644,644,640,637,633,626,623,619,611,603,578,559,533,499,450,365,326,294,245,224,186,169,149,126,102,76],"timestamp_mouse":[11,39,50,70,90,111,131,151,170,191,210,231,250,271,290,310,330,351,371,391,410,430,450,471,490,511,530,550,571,590,610,630,650,671,691,711,730,751,771,790,810,830,850,872,891,910,930,950,970,991,1010,1030,1050,1070,1090,1110,1130],"xSR":741.5,"ySR":573.95,"xT1":424.9,"yT1":0,"xT2":1058.1,"yT2":0,"toosoon":0,"cond_shown":"randomdotsizeEA","ratio_trial":900,"smaller_num":"18","larger_num":"20","correct_side":1,"subjID":"MARIAFERNANDAGONZALEZ","gender":"1","age":"10","school":"6"},{"start_time":1551901682402,"click_time":1551901684071,"finger_time":1551901683311,"fix_duration":250,"trial":46,"RT":909,"MT":760,"sideResp":1,"stimulus":"img/250/randomdotsizeEA/L/7_Ratio_250_L_8_R_2.png","xmouse":[821,821,821,821,821,821,821,821,821,821,821,821,821,821,821,821,821,821,821,821,821,821,821,821,821,821,821,821,819,813,799,793,791,791,791,791,791,791,791,791,791,791,791,791,800,827,873,906,1016,1103,1249,1295,1323,1333,1333,1333,1333,1331,1326,1307,1248,1204,1153,1109,1069,1011,959,940,860,805,694,674,665,664,664,664,664,664,664,653,630,597,547,499],"ymouse":[618,618,618,618,618,618,618,618,618,618,618,618,618,618,618,618,618,618,618,618,618,618,618,618,618,618,618,619,619,612,597,589,587,587,587,587,587,587,587,587,587,587,587,587,580,569,548,534,471,407,296,254,228,217,216,216,216,215,215,219,232,244,258,271,281,293,296,296,294,284,246,235,230,229,229,229,229,229,229,214,187,153,106,64],"timestamp_mouse":[9,30,50,69,89,110,129,149,169,191,209,230,249,270,290,310,329,351,369,389,410,430,449,469,490,510,529,549,569,589,609,629,650,669,689,709,729,749,769,790,809,830,849,869,889,909,930,949,969,989,1009,1029,1049,1070,1090,1110,1129,1149,1170,1189,1209,1229,1250,1269,1289,1309,1330,1349,1370,1390,1409,1429,1450,1469,1490,1510,1531,1549,1569,1590,1609,1629,1649,1669],"xSR":741.5,"ySR":573.95,"xT1":424.9,"yT1":0,"xT2":1058.1,"yT2":0,"toosoon":0,"cond_shown":"randomdotsizeEA","ratio_trial":250,"smaller_num":"2","larger_num":"8","correct_side":1,"subjID":"MARIAFERNANDAGONZALEZ","gender":"1","age":"10","school":"6"},{"start_time":1551901686640,"click_time":1551901688292,"finger_time":1551901687811,"fix_duration":1346.308554451814,"trial":47,"RT":1171,"MT":481,"sideResp":1,"stimulus":"img/900/equaldotanddens/L/2_Ratio_900_L_20_R_18.png","xmouse":[792,792,792,792,792,792,792,792,792,792,792,792,792,792,792,792,792,792,792,792,792,792,792,792,792,792,792,792,792,792,792,792,792,792,792,792,792,792,792,792,792,792,792,792,792,792,792,792,792,792,792,792,792,792,792,792,792,792,792,792,792,787,778,753,740,723,708,689,679,674,667,658,645,606,590,582,579,575,562,553,540,525,521],"ymouse":[615,615,615,615,615,615,615,615,615,615,615,615,615,615,615,615,615,615,615,615,615,615,615,615,615,615,615,615,615,615,615,615,615,615,615,615,615,615,615,615,615,615,615,615,615,615,615,615,615,615,615,615,615,615,615,615,615,616,562,537,512,479,438,382,361,340,325,305,289,280,268,252,233,180,163,152,146,139,118,103,86,72,71],"timestamp_mouse":[11,31,52,72,91,111,132,152,171,191,212,231,252,271,292,312,331,353,371,392,412,431,452,472,491,511,532,551,573,591,611,631,652,671,691,711,732,752,771,791,811,831,851,871,892,912,933,953,971,992,1011,1033,1051,1072,1091,1112,1131,1152,1171,1191,1212,1231,1251,1271,1292,1311,1331,1351,1371,1391,1411,1431,1451,1471,1491,1511,1532,1552,1571,1591,1611,1632,1652],"xSR":741.5,"ySR":573.95,"xT1":424.9,"yT1":0,"xT2":1058.1,"yT2":0,"toosoon":0,"cond_shown":"equaldotanddens","ratio_trial":900,"smaller_num":"18","larger_num":"20","correct_side":1,"subjID":"MARIAFERNANDAGONZALEZ","gender":"1","age":"10","school":"6"},{"start_time":1551901689223,"click_time":1551901690231,"finger_time":1551901689991,"fix_duration":250,"trial":48,"RT":768,"MT":240,"sideResp":1,"stimulus":"img/250/randomdotsizeEA/L/14_Ratio_250_L_12_R_3.png","xmouse":[822,822,822,822,822,822,822,822,822,822,822,822,822,822,822,822,822,822,822,822,822,822,822,822,822,822,822,822,822,822,822,822,822,822,822,822,822,822,821,792,771,752,741,735,728,727,724,700,651,543,481],"ymouse":[647,647,647,647,647,647,647,647,647,647,647,647,647,647,647,647,647,647,647,647,647,647,647,647,647,647,647,647,647,647,647,647,647,647,647,647,647,623,557,396,340,299,278,265,255,253,250,224,172,87,46],"timestamp_mouse":[10,32,48,68,88,109,128,148,168,188,209,230,249,268,288,309,328,349,368,389,408,429,449,468,489,509,528,549,569,588,609,629,648,669,688,708,728,749,768,788,808,828,848,868,888,908,928,949,968,989,1008],"xSR":741.5,"ySR":573.95,"xT1":424.9,"yT1":0,"xT2":1058.1,"yT2":0,"toosoon":0,"cond_shown":"randomdotsizeEA","ratio_trial":250,"smaller_num":"3","larger_num":"12","correct_side":1,"subjID":"MARIAFERNANDAGONZALEZ","gender":"1","age":"10","school":"6"},{"start_time":1551901691855,"click_time":1551901693313,"finger_time":1551901692551,"fix_duration":301.6215296600252,"trial":49,"RT":696,"MT":762,"sideResp":2,"stimulus":"img/250/equaldotanddens/R/8_Ratio_250_L_1_R_4.png","xmouse":[800,800,800,800,800,800,800,800,800,800,800,800,800,800,800,800,800,800,800,800,800,800,800,800,800,800,800,800,800,802,805,815,827,831,842,863,878,910,926,945,958,984,995,1006,1020,1040,1055,1083,1094,1102,1108,1111,1113,1113,1113,1110,1105,1091,1084,1078,1070,1066,1065,1065,1065,1065,1065,1065,1065,1065,1067,1070,1075],"ymouse":[626,626,626,626,626,626,626,626,626,626,626,626,626,626,626,626,626,626,626,626,626,626,626,626,626,626,626,626,626,626,626,621,615,612,608,602,598,583,574,563,552,528,519,508,493,460,422,334,293,266,244,229,214,210,201,195,184,164,153,147,139,132,128,125,125,121,118,115,112,110,107,104,98],"timestamp_mouse":[16,37,57,76,96,116,136,156,176,196,216,236,258,277,298,316,336,356,376,396,417,436,456,477,497,517,537,557,577,596,616,637,656,677,696,716,737,757,776,797,816,837,856,876,896,916,936,957,976,996,1016,1036,1056,1076,1096,1116,1136,1156,1176,1197,1216,1238,1256,1276,1296,1318,1336,1356,1376,1396,1416,1436,1457],"xSR":741.5,"ySR":573.95,"xT1":424.9,"yT1":0,"xT2":1058.1,"yT2":0,"toosoon":0,"cond_shown":"equaldotanddens","ratio_trial":250,"smaller_num":"1","larger_num":"4","correct_side":2,"subjID":"MARIAFERNANDAGONZALEZ","gender":"1","age":"10","school":"6"},{"start_time":1551901694982,"click_time":1551901696892,"finger_time":1551901695811,"fix_duration":250,"trial":50,"RT":829,"MT":1081,"sideResp":1,"stimulus":"img/500/equaldotsize/L/4_Ratio_500_L_18_R_9.png","xmouse":[799,799,799,799,799,799,799,799,799,799,799,799,799,799,799,799,799,799,799,799,799,799,799,799,799,799,799,799,799,799,799,799,799,799,799,799,799,798,795,794,788,776,771,760,741,707,690,672,661,650,647,647,647,647,647,643,636,631,626,625,624,624,624,624,624,624,624,623,618,609,599,565,548,534,526,519,519,519,519,519,519,511,508,507,506,504,501,499,497,494,493,492,492,490,484,462],"ymouse":[613,613,613,613,613,613,613,613,613,613,613,613,613,613,613,613,613,613,613,613,613,613,613,613,613,613,613,613,613,613,613,613,613,613,613,613,613,613,602,597,577,548,531,498,450,372,336,304,285,268,263,263,263,262,262,254,242,235,229,229,227,227,227,227,227,227,227,226,218,206,198,179,169,162,158,154,154,154,154,154,153,140,136,134,133,130,126,123,120,116,113,113,113,109,103,88],"timestamp_mouse":[12,37,49,69,89,110,130,150,170,189,209,230,249,269,290,310,330,351,369,389,409,429,450,469,489,509,529,549,569,589,609,629,649,669,689,710,730,749,769,790,809,829,849,869,889,911,929,949,969,989,1009,1029,1049,1069,1089,1109,1129,1149,1169,1189,1210,1230,1249,1269,1290,1310,1330,1349,1370,1389,1409,1430,1449,1469,1489,1510,1529,1549,1570,1589,1609,1629,1649,1669,1689,1710,1729,1749,1769,1790,1810,1829,1849,1869,1889,1910],"xSR":741.5,"ySR":573.95,"xT1":424.9,"yT1":0,"xT2":1058.1,"yT2":0,"toosoon":0,"cond_shown":"equaldotsize","ratio_trial":500,"smaller_num":"9","larger_num":"18","correct_side":1,"subjID":"MARIAFERNANDAGONZALEZ","gender":"1","age":"10","school":"6"},{"start_time":1551901699410,"click_time":1551901700432,"finger_time":1551901700191,"fix_duration":595.3367410879277,"trial":51,"RT":781,"MT":241,"sideResp":2,"stimulus":"img/900/randomdotsizeEA/L/2_Ratio_900_L_20_R_18.png","xmouse":[778,778,778,778,778,778,778,778,778,778,778,778,778,778,778,778,778,778,778,778,778,778,778,778,778,778,778,778,778,778,778,778,778,785,788,797,800,805,810,819,844,861,882,902,924,983,1026,1070,1098,1124,1125,1125],"ymouse":[596,596,596,596,596,596,596,596,596,596,596,596,596,596,596,596,596,596,596,596,596,596,596,596,596,596,596,596,596,596,596,596,596,596,596,596,595,591,584,562,530,519,507,495,478,413,348,283,230,123,102,84],"timestamp_mouse":[10,29,41,62,81,102,121,142,161,181,201,221,241,261,281,301,322,341,362,383,401,421,441,461,482,501,522,541,562,582,602,622,641,661,681,701,721,742,761,781,801,821,841,861,881,901,922,941,961,982,1001,1022],"xSR":741.5,"ySR":573.95,"xT1":424.9,"yT1":0,"xT2":1058.1,"yT2":0,"toosoon":0,"cond_shown":"randomdotsizeEA","ratio_trial":900,"smaller_num":"18","larger_num":"20","correct_side":1,"subjID":"MARIAFERNANDAGONZALEZ","gender":"1","age":"10","school":"6"},{"start_time":1551901702908,"click_time":1551901705031,"finger_time":1551901703391,"fix_duration":1054.3159002970988,"trial":52,"RT":483,"MT":1640,"sideResp":1,"stimulus":"img/900/randomdotsizeEA/L/2_Ratio_900_L_20_R_18.png","xmouse":[799,799,799,799,799,799,799,799,799,799,799,799,802,803,804,804,804,804,804,804,804,804,809,814,829,836,836,836,836,836,836,836,836,836,837,837,834,831,831,831,830,828,819,775,708,523,443,392,370,351,342,330,316,298,267,251,236,221,212,206,200,200,200,200,204,227,236,240,242,244,272,305,348,433,490,551,558,558,558,558,558,558,559,565,565,565,565,565,565,565,564,555,548,544,541,535,535,535,535,535,535,535,535,535,535,531,522],"ymouse":[623,623,623,623,623,623,623,623,623,623,623,623,622,622,621,621,621,621,621,621,621,621,612,598,555,517,496,486,483,482,482,482,477,470,456,438,435,432,432,432,432,432,431,414,388,344,341,341,341,348,350,350,347,336,309,286,251,222,196,174,152,148,148,148,148,148,148,148,148,147,144,139,139,139,139,131,128,127,127,127,127,127,127,114,108,106,106,106,106,106,105,107,109,110,108,101,101,101,101,101,101,101,101,101,101,96,85],"timestamp_mouse":[9,24,43,63,83,103,123,144,164,183,204,223,243,263,283,304,323,344,365,383,403,423,443,464,483,503,524,544,563,584,603,623,643,663,683,703,723,743,763,784,803,823,843,863,883,903,923,943,964,984,1003,1023,1043,1064,1084,1104,1123,1143,1163,1184,1203,1223,1243,1264,1284,1303,1323,1343,1363,1384,1403,1423,1443,1464,1483,1503,1524,1543,1563,1583,1603,1623,1645,1663,1684,1703,1724,1744,1763,1784,1803,1823,1843,1863,1883,1903,1924,1943,1963,1983,2003,2023,2043,2064,2083,2103,2123],"xSR":741.5,"ySR":573.95,"xT1":424.9,"yT1":0,"xT2":1058.1,"yT2":0,"toosoon":0,"cond_shown":"randomdotsizeEA","ratio_trial":900,"smaller_num":"18","larger_num":"20","correct_side":1,"subjID":"MARIAFERNANDAGONZALEZ","gender":"1","age":"10","school":"6"},{"start_time":1551901708122,"click_time":1551901709571,"finger_time":1551901708891,"fix_duration":1108.9581403960985,"trial":53,"RT":769,"MT":680,"sideResp":2,"stimulus":"img/500/equaldotanddens/R/15_Ratio_500_L_1_R_2.png","xmouse":[782,782,782,782,782,782,782,782,782,782,782,782,782,782,782,782,782,782,782,782,782,783,784,791,793,794,794,796,797,800,801,804,805,808,817,823,831,840,853,881,895,905,912,924,940,946,950,956,977,995,1021,1048,1071,1102,1146,1167,1186,1202,1223,1228,1229,1229,1229,1227,1223,1217,1210,1201,1190,1170,1164,1160,1156],"ymouse":[639,639,639,639,639,639,639,639,639,639,639,639,639,639,639,639,639,639,639,639,639,638,637,634,633,633,633,632,629,628,626,625,625,623,620,617,614,610,604,591,580,573,566,550,520,504,488,471,424,388,346,307,280,246,207,190,175,159,129,114,103,90,88,76,68,61,52,43,34,22,18,16,15],"timestamp_mouse":[10,30,51,70,90,109,130,149,169,190,211,229,249,269,291,309,329,349,370,391,409,429,450,469,490,510,529,549,569,589,610,630,649,669,689,709,729,749,769,789,809,829,850,869,890,909,930,950,970,989,1009,1029,1049,1071,1089,1109,1130,1150,1170,1189,1209,1229,1249,1269,1289,1309,1329,1349,1370,1389,1410,1429,1449],"xSR":741.5,"ySR":573.95,"xT1":424.9,"yT1":0,"xT2":1058.1,"yT2":0,"toosoon":0,"cond_shown":"equaldotanddens","ratio_trial":500,"smaller_num":"1","larger_num":"2","correct_side":2,"subjID":"MARIAFERNANDAGONZALEZ","gender":"1","age":"10","school":"6"},{"start_time":1551901716303,"click_time":1551901717351,"finger_time":1551901716991,"fix_duration":1431.388483675975,"trial":54,"RT":688,"MT":360,"sideResp":1,"stimulus":"img/750/randomdotsizeEA/L/1_Ratio_750_L_20_R_15.png","xmouse":[773,773,773,773,773,773,773,773,773,773,773,773,773,773,773,773,773,773,773,773,773,773,773,773,773,773,773,773,773,773,777,779,782,783,777,696,660,630,604,582,557,548,540,532,522,514,502,493,486,485,485,483,476],"ymouse":[659,659,659,659,659,659,659,659,659,659,659,659,659,659,659,659,659,659,659,659,659,659,659,659,659,659,659,659,659,659,651,647,632,608,571,397,328,263,204,155,94,72,51,12,0,0,0,0,0,0,0,0,3],"timestamp_mouse":[11,32,49,68,89,108,128,148,169,189,208,229,249,268,288,308,328,348,368,388,408,429,448,468,489,509,528,548,568,588,608,628,649,668,688,708,728,748,768,789,808,829,848,868,888,909,928,948,969,988,1009,1028,1048],"xSR":741.5,"ySR":573.95,"xT1":424.9,"yT1":0,"xT2":1058.1,"yT2":0,"toosoon":0,"cond_shown":"randomdotsizeEA","ratio_trial":750,"smaller_num":"15","larger_num":"20","correct_side":1,"subjID":"MARIAFERNANDAGONZALEZ","gender":"1","age":"10","school":"6"},{"start_time":1551901725199,"click_time":1551901726411,"finger_time":1551901725830,"fix_duration":606.6444173154522,"trial":55,"RT":631,"MT":581,"sideResp":2,"stimulus":"img/250/equaldotsize/R/6_Ratio_250_L_6_R_24.png","xmouse":[775,775,775,775,775,775,775,775,775,775,775,775,775,775,775,775,775,775,775,775,775,775,775,775,775,775,775,779,791,802,841,861,881,900,918,923,928,933,942,950,973,985,999,1012,1027,1044,1048,1055,1057,1058,1062,1065,1069,1074,1078,1087,1094,1099,1110,1118,1130],"ymouse":[647,647,647,647,647,647,647,647,647,647,647,647,647,647,647,647,647,647,647,647,647,647,647,647,647,647,647,644,638,632,605,584,556,529,500,491,481,472,457,441,408,393,375,359,341,304,285,261,251,245,236,228,221,214,210,196,184,171,143,119,74],"timestamp_mouse":[11,36,52,71,91,112,131,151,172,191,212,232,251,272,291,312,331,351,371,392,413,431,451,471,492,512,532,551,571,591,611,631,651,671,693,711,731,751,772,791,811,831,851,872,892,911,931,951,972,991,1011,1031,1051,1071,1091,1112,1131,1151,1171,1191,1212],"xSR":741.5,"ySR":573.95,"xT1":424.9,"yT1":0,"xT2":1058.1,"yT2":0,"toosoon":0,"cond_shown":"equaldotsize","ratio_trial":250,"smaller_num":"6","larger_num":"24","correct_side":2,"subjID":"MARIAFERNANDAGONZALEZ","gender":"1","age":"10","school":"6"},{"start_time":1551901729662,"click_time":1551901730830,"finger_time":1551901730430,"fix_duration":250,"trial":56,"RT":768,"MT":400,"sideResp":2,"stimulus":"img/750/randomdotsizeEA/L/10_Ratio_750_L_4_R_3.png","xmouse":[806,806,806,806,806,806,806,806,806,806,806,806,806,806,806,806,806,806,806,806,806,806,806,806,806,806,806,806,806,806,806,806,806,806,806,806,806,816,831,848,879,914,998,1023,1033,1037,1038,1039,1040,1042,1046,1050,1056,1056,1056,1058,1068,1089,1095],"ymouse":[617,617,617,617,617,617,617,617,617,617,617,617,617,617,617,617,617,614,609,603,600,599,599,599,599,599,599,599,599,599,599,599,599,599,599,599,596,586,571,552,517,470,373,343,326,310,295,286,279,268,251,229,185,166,154,146,129,103,94],"timestamp_mouse":[10,28,49,73,88,108,129,148,168,189,208,228,248,268,288,308,328,349,368,388,408,429,448,468,489,508,528,549,568,588,608,628,649,669,688,709,728,748,768,788,808,828,848,868,888,909,928,949,968,988,1008,1028,1048,1068,1088,1108,1128,1149,1168],"xSR":741.5,"ySR