[{"start_time":1551891066959,"click_time":1551891080170,"finger_time":1551891079470,"fix_duration":1344.983882171981,"trial":0,"RT":12511,"MT":700,"sideResp":1,"stimulus":[],"xmouse":[804,804,804,804,804,804,804,804,804,804,804,804,804,804,804,804,804,804,804,804,804,804,804,804,804,804,804,804,804,804,804,804,804,804,804,804,804,804,804,804,804,804,804,804,804,804,804,804,804,804,804,804,804,804,804,804,804,804,804,804,804,804,804,804,804,804,804,804,804,804,804,804,804,804,804,804,804,804,804,804,804,804,804,804,804,804,804,804,804,804,804,804,804,804,804,804,804,804,804,804,804,804,804,804,804,804,804,804,804,804,804,804,804,804,804,804,804,804,804,804,804,804,804,804,804,804,804,804,804,804,804,804,804,804,804,804,804,804,804,804,804,804,804,804,804,804,804,804,804,804,804,804,804,804,804,804,804,804,804,804,804,804,804,804,804,804,804,804,804,804,804,804,804,804,804,804,804,804,804,804,804,804,804,804,804,804,804,804,804,804,804,804,804,804,804,804,804,804,804,804,804,804,804,804,804,804,804,804,804,804,804,804,804,804,804,804,804,804,804,804,804,804,804,804,804,804,804,804,804,804,804,804,804,804,804,804,804,804,804,804,804,804,804,804,804,804,804,804,804,804,804,804,804,804,804,804,804,804,804,804,804,804,804,804,804,804,804,804,804,804,804,804,804,804,804,804,804,804,804,804,804,804,804,804,804,804,804,804,804,804,804,804,804,804,804,804,804,804,804,804,804,804,808,822,822,822,822,822,822,822,822,822,819,817,817,817,817,817,817,817,817,817,817,817,817,817,817,817,817,817,817,817,817,817,817,817,817,817,817,817,817,817,817,817,817,817,817,817,817,817,817,817,817,817,817,817,817,817,817,817,817,817,817,817,817,817,817,817,817,817,817,817,817,817,817,817,817,817,817,817,817,817,817,817,817,817,817,817,817,817,817,817,817,817,817,817,817,817,817,817,817,817,817,817,817,817,817,817,817,817,817,817,817,817,817,817,817,817,817,817,817,817,817,817,817,817,817,817,817,817,817,817,817,817,817,817,817,817,817,817,817,817,817,817,817,817,817,817,817,817,817,817,817,817,817,817,817,817,817,817,817,817,817,817,817,817,817,817,817,817,817,817,817,817,817,817,817,817,817,817,817,817,817,817,817,817,817,817,817,817,817,817,817,817,817,817,817,817,817,817,817,817,817,817,817,817,817,817,817,817,817,817,817,817,817,817,817,817,817,817,817,817,817,817,817,817,817,817,817,817,817,817,817,817,817,817,817,817,817,817,817,817,817,817,817,817,817,817,817,817,817,817,817,817,817,817,817,817,817,817,817,817,817,817,817,817,817,817,817,817,817,817,817,817,817,817,817,817,817,817,817,817,817,817,817,817,817,817,817,817,817,817,817,817,817,817,817,817,817,817,817,817,817,817,817,817,817,817,817,817,817,817,817,817,817,817,817,817,817,817,815,811,795,779,761,741,724,703,689,683,678,675,666,655,637,621,604,584,570,557,544,531,515,513,512,511,511,511,511,511,512,512,513,514,514,514,514,514,513,513,512],"ymouse":[562,562,562,562,562,562,562,562,562,562,562,562,562,562,562,562,562,562,562,562,562,562,562,562,562,562,562,562,562,562,562,562,562,562,562,562,562,562,562,562,562,562,562,562,562,562,562,562,562,562,562,562,562,562,562,562,562,562,562,562,562,562,562,562,562,562,562,562,562,562,562,562,562,562,562,562,562,562,562,562,562,562,562,562,562,562,562,562,562,562,562,562,562,562,562,562,562,562,562,562,562,562,562,562,562,562,562,562,562,562,562,562,562,562,562,562,562,562,562,562,562,562,562,562,562,562,562,562,562,562,562,562,562,562,562,562,562,562,562,562,562,562,562,562,562,562,562,562,562,562,562,562,562,562,562,562,562,562,562,562,562,562,562,562,562,562,562,562,562,562,562,562,562,562,562,562,562,562,562,562,562,562,562,562,562,562,562,562,562,562,562,562,562,562,562,562,562,562,562,562,562,562,562,562,562,562,562,562,562,562,562,562,562,562,562,562,562,562,562,562,562,562,562,562,562,562,562,562,562,562,562,562,562,562,562,562,562,562,562,562,562,562,562,562,562,562,562,562,562,562,562,562,562,562,562,562,562,562,562,562,562,562,562,562,562,562,562,562,562,562,562,562,562,562,562,562,562,562,562,562,562,562,562,562,562,562,562,562,562,562,562,562,562,562,562,562,562,562,562,562,562,559,553,539,539,539,539,539,539,539,539,539,544,545,546,546,546,546,546,546,546,546,546,546,546,546,546,546,546,546,546,546,546,546,546,546,546,546,546,546,546,546,546,546,546,546,546,546,546,546,546,546,546,546,546,546,546,546,546,546,546,546,546,546,546,546,546,546,546,546,546,546,546,546,546,546,546,546,546,546,546,546,546,546,546,546,546,546,546,546,546,546,546,546,546,546,546,546,546,546,546,546,546,546,546,546,546,546,546,546,546,546,546,546,546,546,546,546,546,546,546,546,546,546,546,546,546,546,546,546,546,546,546,546,546,546,546,546,546,546,546,546,546,546,546,546,546,546,546,546,546,546,546,546,546,546,546,546,546,546,546,546,546,546,546,546,546,546,546,546,546,546,546,546,546,546,546,546,546,546,546,546,546,546,546,546,546,546,546,546,546,546,546,546,546,546,546,546,546,546,546,546,546,546,546,546,546,546,546,546,546,546,546,546,546,546,546,546,546,546,546,546,546,546,546,546,546,546,546,546,546,546,546,546,546,546,546,546,546,546,546,546,546,546,546,546,546,546,546,546,546,546,546,546,546,546,546,546,546,546,546,546,546,546,546,546,546,546,546,546,546,546,546,546,546,546,546,546,546,546,546,546,546,546,546,546,546,546,546,546,546,546,546,546,546,546,546,546,546,546,546,546,546,546,546,546,546,546,546,546,546,546,546,546,546,546,546,546,546,546,546,546,539,532,524,516,506,492,477,466,451,438,398,374,347,325,299,253,222,203,184,170,157,156,154,147,140,133,129,128,125,122,109,107,105,105,105,104,103,101,97],"timestamp_mouse":[10,36,50,70,90,110,131,150,171,190,211,231,251,271,290,311,330,351,370,390,411,430,451,470,490,510,531,552,571,591,610,630,651,671,690,710,730,751,770,791,810,831,851,871,891,910,931,951,971,991,1011,1030,1050,1071,1090,1111,1131,1151,1170,1190,1211,1230,1251,1270,1290,1310,1330,1350,1372,1390,1410,1431,1450,1472,1490,1511,1531,1551,1572,1590,1611,1631,1651,1670,1690,1711,1731,1751,1770,1790,1810,1830,1851,1871,1891,1911,1931,1952,1970,1990,2010,2030,2050,2070,2091,2111,2130,2151,2170,2190,2211,2230,2251,2270,2290,2310,2330,2350,2371,2390,2410,2430,2451,2471,2490,2510,2531,2552,2570,2590,2610,2630,2650,2670,2690,2710,2731,2750,2771,2790,2810,2830,2851,2871,2891,2911,2932,2951,2971,2991,3011,3030,3051,3071,3092,3110,3130,3151,3171,3190,3211,3230,3250,3271,3290,3311,3331,3352,3371,3392,3410,3430,3450,3472,3491,3510,3530,3551,3571,3590,3610,3630,3650,3672,3691,3711,3731,3750,3771,3791,3810,3830,3850,3871,3891,3910,3930,3951,3971,3991,4010,4031,4052,4070,4091,4111,4132,4151,4171,4190,4210,4231,4252,4270,4291,4312,4330,4351,4371,4390,4410,4432,4451,4471,4491,4511,4531,4550,4571,4592,4610,4630,4651,4671,4691,4710,4731,4752,4771,4791,4810,4831,4851,4871,4892,4911,4931,4950,4971,4991,5010,5031,5050,5071,5090,5111,5131,5151,5170,5190,5210,5230,5250,5270,5290,5310,5331,5350,5371,5390,5410,5431,5450,5472,5490,5510,5530,5551,5571,5591,5612,5630,5651,5672,5691,5711,5730,5750,5771,5791,5811,5831,5851,5871,5892,5911,5931,5952,5971,5991,6012,6031,6050,6071,6091,6111,6131,6151,6171,6190,6210,6230,6251,6270,6292,6310,6330,6351,6371,6392,6411,6432,6451,6470,6490,6510,6530,6551,6571,6591,6610,6631,6651,6671,6691,6711,6730,6750,6771,6791,6810,6830,6851,6870,6892,6912,6931,6950,6971,6992,7011,7030,7051,7071,7090,7111,7131,7151,7171,7190,7212,7231,7250,7271,7290,7311,7330,7350,7370,7391,7410,7431,7450,7472,7490,7511,7531,7551,7572,7591,7611,7631,7651,7671,7691,7712,7731,7751,7771,7790,7811,7832,7850,7870,7892,7911,7931,7950,7971,7991,8011,8031,8050,8070,8090,8110,8130,8152,8171,8191,8210,8231,8251,8270,8290,8311,8330,8351,8370,8392,8410,8431,8451,8471,8491,8511,8530,8550,8572,8591,8610,8631,8651,8671,8691,8712,8731,8750,8771,8791,8810,8830,8851,8870,8892,8911,8930,8950,8970,8991,9010,9031,9051,9071,9092,9110,9131,9152,9172,9190,9211,9232,9250,9271,9291,9310,9330,9352,9371,9391,9411,9431,9452,9471,9490,9510,9531,9550,9570,9590,9611,9632,9651,9671,9690,9711,9730,9750,9771,9791,9812,9831,9850,9872,9890,9912,9931,9950,9972,9991,10011,10031,10050,10072,10091,10111,10131,10150,10170,10191,10211,10231,10251,10270,10291,10310,10331,10351,10371,10391,10411,10431,10450,10470,10491,10511,10531,10551,10570,10591,10611,10630,10650,10671,10691,10711,10731,10750,10771,10791,10811,10832,10851,10871,10892,10910,10931,10951,10970,10992,11011,11030,11051,11071,11090,11111,11131,11150,11171,11190,11211,11231,11252,11271,11291,11311,11331,11351,11371,11390,11410,11431,11451,11470,11490,11510,11531,11550,11571,11592,11610,11630,11650,11671,11692,11710,11730,11750,11771,11790,11811,11831,11851,11872,11890,11910,11930,11951,11971,11990,12011,12031,12050,12071,12092,12110,12131,12152,12171,12190,12211,12230,12252,12270,12291,12312,12331,12351,12371,12391,12410,12431,12450,12471,12490,12511,12532,12550,12570,12590,12611,12630,12651,12670,12690,12712,12730,12751,12770,12791,12810,12830,12850,12870,12890,12912,12931,12951,12970,12990,13011,13030,13051,13070,13090,13110,13130,13151,13170,13190,13210],"xSR":741.5,"ySR":490.1,"xT1":424.9,"yT1":0,"xT2":1058.1,"yT2":0,"toosoon":0,"cond_shown":"Incongruent","ratio_trial":100,"L_num":9,"L_den":15,"R_num":14,"R_den":28,"correct_side":1,"subjID":"anasofiaortegonguachaves6","gender":"1","age":"12","school":"6","test":{"fix_dur":[250,1500],"timestim":1000,"targets_dim":[100,100],"targets_relative_coord":[0.3,0.7],"size_stim":[880,420],"start_dim":[100,100],"size_start":[300,300],"size_fix":60,"samplingrate":20,"img_types":["Congruent","Incongruent"],"ratios":[100,200,300],"rep_conds":19,"nTrials":120,"trials_to_rest":500,"Trials_order":[7,88,73,102,34,47,41,79,46,106,31,40,42,50,57,105,94,11,72,110,85,93,0,21,15,2,104,74,39,14,48,29,68,82,3,66,63,52,38,18,109,116,49,44,80,75,95,84,83,97,118,64,9,60,62,76,35,90,6,89,54,87,37,78,108,22,4,98,43,91,115,32,45,101,59,51,27,8,56,13,111,65,67,81,92,77,119,61,96,112,58,33,30,36,103,113,1,53,69,10,107,114,26,117,19,100,25,5,16,71,17,99,28,86,55,20,23,70,24,12],"cond_shown":["Incongruent","Congruent","Incongruent","Congruent","Congruent","Incongruent","Incongruent","Incongruent","Congruent","Congruent","Incongruent","Congruent","Congruent","Congruent","Incongruent","Incongruent","Congruent","Incongruent","Congruent","Congruent","Incongruent","Incongruent","Congruent","Incongruent","Incongruent","Congruent","Congruent","Congruent","Incongruent","Congruent","Congruent","Incongruent","Congruent","Congruent","Incongruent","Congruent","Incongruent","Congruent","Congruent","Congruent","Incongruent","Congruent","Incongruent","Congruent","Congruent","Incongruent","Incongruent","Congruent","Incongruent","Incongruent","Congruent","Congruent","Incongruent","Congruent","Congruent","Congruent","Incongruent","Congruent","Congruent","Incongruent","Congruent","Incongruent","Incongruent","Congruent","Congruent","Congruent","Congruent","Congruent","Incongruent","Incongruent","Incongruent","Congruent","Incongruent","Incongruent","Incongruent","Incongruent","Incongruent","Congruent","Congruent","Incongruent","Incongruent","Incongruent","Incongruent","Incongruent","Congruent","Incongruent","Incongruent","Incongruent","Congruent","Congruent","Congruent","Incongruent","Congruent","Congruent","Incongruent","Incongruent","Incongruent","Incongruent","Incongruent","Congruent","Incongruent","Congruent","Congruent","Incongruent","Incongruent","Congruent","Incongruent","Incongruent","Congruent","Incongruent","Incongruent","Incongruent","Congruent","Congruent","Incongruent","Congruent","Incongruent","Congruent","Congruent","Congruent"],"ratio_trial":[100,300,100,100,300,300,300,100,300,300,100,300,100,200,200,200,300,300,100,200,100,200,100,200,200,200,200,200,200,200,100,300,200,300,200,100,200,300,200,100,100,200,100,200,200,200,300,100,300,100,300,300,200,100,200,300,300,100,100,300,100,200,100,100,100,300,300,200,100,100,100,200,200,300,300,200,200,200,200,100,200,300,100,200,200,300,300,100,100,300,300,200,100,100,100,300,100,300,200,300,300,100,200,200,100,300,100,300,300,300,300,200,300,200,100,200,300,300,100,100],"left_num":[9,11,9,3,4,13,2,9,8,20,8,1,3,7,6,3,3,13,2,7,9,7,9,1,3,7,12,12,3,7,1,4,12,20,4,10,7,24,11,9,6,8,2,21,9,7,7,12,8,1,4,24,6,3,6,12,4,11,10,4,11,6,6,11,9,9,4,1,13,8,8,1,1,8,13,4,7,9,7,10,1,2,10,6,6,8,4,2,8,2,3,4,9,6,10,13,1,8,7,2,1,10,4,7,6,20,9,13,3,4,4,9,4,8,3,7,13,18,10,12],"right_num":[14,2,20,2,1,12,6,20,10,8,1,7,2,2,3,1,11,12,11,2,20,12,8,2,1,18,6,6,11,2,3,2,6,8,6,3,6,8,3,8,11,7,8,2,4,4,8,13,14,8,1,2,3,2,7,2,8,4,3,2,4,3,11,6,8,3,2,21,6,6,6,21,3,9,12,14,12,4,18,8,3,6,9,3,7,9,6,8,2,12,2,6,8,15,8,12,8,14,6,10,3,3,3,4,11,8,14,12,11,2,8,8,13,2,7,18,12,9,3,13],"left_den":[15,22,10,6,10,26,4,10,15,25,20,20,6,21,20,10,12,26,5,21,10,10,15,3,10,15,15,15,4,21,2,20,20,25,5,25,15,30,22,15,10,15,4,30,20,15,10,30,10,2,10,30,20,6,12,24,5,22,25,20,22,20,10,22,15,10,5,2,26,16,16,2,2,10,26,6,10,20,15,25,2,4,25,20,12,10,5,4,16,10,6,5,15,12,25,26,2,10,15,20,2,25,8,15,10,25,15,26,12,20,5,15,20,15,9,15,26,20,25,30],"right_den":[28,10,25,5,10,15,30,25,12,16,2,20,5,15,6,2,20,15,22,15,25,24,16,15,2,27,10,10,20,15,5,4,15,16,10,10,9,16,10,16,22,21,20,4,16,6,20,26,28,20,10,4,6,5,10,10,16,10,10,4,10,6,22,15,16,5,4,30,10,10,10,30,10,18,15,30,24,16,27,16,10,30,18,6,10,18,12,20,5,24,10,10,16,25,16,15,20,28,9,25,15,10,10,6,22,16,28,15,20,4,16,10,26,6,30,27,15,15,10,26],"correct_side":[1,1,1,1,1,2,1,1,2,1,2,2,1,1,2,2,2,2,2,1,1,1,1,1,2,2,1,1,1,1,2,2,1,1,1,1,2,1,1,1,1,1,1,1,1,2,1,2,1,1,1,1,2,1,2,1,1,1,1,2,1,2,1,1,1,1,1,2,2,2,2,2,1,1,2,1,1,1,2,2,1,1,2,2,2,1,1,1,1,2,1,1,1,2,2,2,1,1,2,2,1,1,1,2,1,1,1,2,2,2,1,2,2,1,1,2,2,1,1,2],"img_shown":["img2/100/Incongruent/L/I_Dist_100_LN_9_LD_15_RN_14_RD_28_0.png","img2/300/Congruent/L/C_Dist_300_LN_11_LD_22_RN_2_RD_10_0.png","img2/100/Incongruent/L/I_Dist_100_LN_9_LD_10_RN_20_RD_25_0.png","img2/100/Congruent/L/C_Dist_100_LN_3_LD_6_RN_2_RD_5_0.png","img2/300/Congruent/L/C_Dist_300_LN_4_LD_10_RN_1_RD_10_0.png","img2/300/Incongruent/R/I_Dist_300_LN_13_LD_26_RN_12_RD_15_1.png","img2/300/Incongruent/L/I_Dist_300_LN_2_LD_4_RN_6_RD_30_0.png","img2/100/Incongruent/L/I_Dist_100_LN_9_LD_10_RN_20_RD_25_0.png","img2/300/Congruent/R/C_Dist_300_LN_8_LD_15_RN_10_RD_12_1.png","img2/300/Congruent/L/C_Dist_300_LN_20_LD_25_RN_8_RD_16_0.png","img2/100/Incongruent/R/I_Dist_100_LN_8_LD_20_RN_1_RD_2_1.png","img2/300/Congruent/R/C_Dist_300_LN_1_LD_20_RN_7_RD_20_1.png","img2/100/Congruent/L/C_Dist_100_LN_3_LD_6_RN_2_RD_5_0.png","img2/200/Congruent/L/C_Dist_200_LN_7_LD_21_RN_2_RD_15_0.png","img2/200/Incongruent/R/I_Dist_200_LN_6_LD_20_RN_3_RD_6_1.png","img2/200/Incongruent/R/I_Dist_200_LN_3_LD_10_RN_1_RD_2_1.png","img2/300/Congruent/R/C_Dist_300_LN_3_LD_12_RN_11_RD_20_1.png","img2/300/Incongruent/R/I_Dist_300_LN_13_LD_26_RN_12_RD_15_1.png","img2/100/Congruent/R/C_Dist_100_LN_2_LD_5_RN_11_RD_22_1.png","img2/200/Congruent/L/C_Dist_200_LN_7_LD_21_RN_2_RD_15_0.png","img2/100/Incongruent/L/I_Dist_100_LN_9_LD_10_RN_20_RD_25_0.png","img2/200/Incongruent/L/I_Dist_200_LN_7_LD_10_RN_12_RD_24_0.png","img2/100/Congruent/L/C_Dist_100_LN_9_LD_15_RN_8_RD_16_0.png","img2/200/Incongruent/L/I_Dist_200_LN_1_LD_3_RN_2_RD_15_0.png","img2/200/Incongruent/R/I_Dist_200_LN_3_LD_10_RN_1_RD_2_1.png","img2/200/Congruent/R/C_Dist_200_LN_7_LD_15_RN_18_RD_27_1.png","img2/200/Congruent/L/C_Dist_200_LN_12_LD_15_RN_6_RD_10_0.png","img2/200/Congruent/L/C_Dist_200_LN_12_LD_15_RN_6_RD_10_0.png","img2/200/Incongruent/L/I_Dist_200_LN_3_LD_4_RN_11_RD_20_0.png","img2/200/Congruent/L/C_Dist_200_LN_7_LD_21_RN_2_RD_15_0.png","img2/100/Congruent/R/C_Dist_100_LN_1_LD_2_RN_3_RD_5_1.png","img2/300/Incongruent/R/I_Dist_300_LN_4_LD_20_RN_2_RD_4_1.png","img2/200/Congruent/L/C_Dist_200_LN_12_LD_20_RN_6_RD_15_0.png","img2/300/Congruent/L/C_Dist_300_LN_20_LD_25_RN_8_RD_16_0.png","img2/200/Incongruent/L/I_Dist_200_LN_4_LD_5_RN_6_RD_10_0.png","img2/100/Congruent/L/C_Dist_100_LN_10_LD_25_RN_3_RD_10_0.png","img2/200/Incongruent/R/I_Dist_200_LN_7_LD_15_RN_6_RD_9_1.png","img2/300/Congruent/L/C_Dist_300_LN_24_LD_30_RN_8_RD_16_0.png","img2/200/Congruent/L/C_Dist_200_LN_11_LD_22_RN_3_RD_10_0.png","img2/100/Congruent/L/C_Dist_100_LN_9_LD_15_RN_8_RD_16_0.png","img2/100/Incongruent/L/I_Dist_100_LN_6_LD_10_RN_11_RD_22_0.png","img2/200/Congruent/L/C_Dist_200_LN_8_LD_15_RN_7_RD_21_0.png","img2/100/Incongruent/L/I_Dist_100_LN_2_LD_4_RN_8_RD_20_0.png","img2/200/Congruent/L/C_Dist_200_LN_21_LD_30_RN_2_RD_4_0.png","img2/200/Congruent/L/C_Dist_200_LN_9_LD_20_RN_4_RD_16_0.png","img2/200/Incongruent/R/I_Dist_200_LN_7_LD_15_RN_4_RD_6_1.png","img2/300/Incongruent/L/I_Dist_300_LN_7_LD_10_RN_8_RD_20_0.png","img2/100/Congruent/R/C_Dist_100_LN_12_LD_30_RN_13_RD_26_1.png","img2/300/Incongruent/L/I_Dist_300_LN_8_LD_10_RN_14_RD_28_0.png","img2/100/Incongruent/L/I_Dist_100_LN_1_LD_2_RN_8_RD_20_0.png","img2/300/Congruent/L/C_Dist_300_LN_4_LD_10_RN_1_RD_10_0.png","img2/300/Congruent/L/C_Dist_300_LN_24_LD_30_RN_2_RD_4_0.png","img2/200/Incongruent/R/I_Dist_200_LN_6_LD_20_RN_3_RD_6_1.png","img2/100/Congruent/L/C_Dist_100_LN_3_LD_6_RN_2_RD_5_0.png","img2/200/Congruent/R/C_Dist_200_LN_6_LD_12_RN_7_RD_10_1.png","img2/300/Congruent/L/C_Dist_300_LN_12_LD_24_RN_2_RD_10_0.png","img2/300/Incongruent/L/I_Dist_300_LN_4_LD_5_RN_8_RD_16_0.png","img2/100/Congruent/L/C_Dist_100_LN_11_LD_22_RN_4_RD_10_0.png","img2/100/Congruent/L/C_Dist_100_LN_10_LD_25_RN_3_RD_10_0.png","img2/300/Incongruent/R/I_Dist_300_LN_4_LD_20_RN_2_RD_4_1.png","img2/100/Congruent/L/C_Dist_100_LN_11_LD_22_RN_4_RD_10_0.png","img2/200/Incongruent/R/I_Dist_200_LN_6_LD_20_RN_3_RD_6_1.png","img2/100/Incongruent/L/I_Dist_100_LN_6_LD_10_RN_11_RD_22_0.png","img2/100/Congruent/L/C_Dist_100_LN_11_LD_22_RN_6_RD_15_0.png","img2/100/Congruent/L/C_Dist_100_LN_9_LD_15_RN_8_RD_16_0.png","img2/300/Congruent/L/C_Dist_300_LN_9_LD_10_RN_3_RD_5_0.png","img2/300/Congruent/L/C_Dist_300_LN_4_LD_5_RN_2_RD_4_0.png","img2/200/Congruent/R/C_Dist_200_LN_1_LD_2_RN_21_RD_30_1.png","img2/100/Incongruent/R/I_Dist_100_LN_13_LD_26_RN_6_RD_10_1.png","img2/100/Incongruent/R/I_Dist_100_LN_8_LD_16_RN_6_RD_10_1.png","img2/100/Incongruent/R/I_Dist_100_LN_8_LD_16_RN_6_RD_10_1.png","img2/200/Congruent/R/C_Dist_200_LN_1_LD_2_RN_21_RD_30_1.png","img2/200/Incongruent/L/I_Dist_200_LN_1_LD_2_RN_3_RD_10_0.png","img2/300/Incongruent/L/I_Dist_300_LN_8_LD_10_RN_9_RD_18_0.png","img2/300/Incongruent/R/I_Dist_300_LN_13_LD_26_RN_12_RD_15_1.png","img2/200/Incongruent/L/I_Dist_200_LN_4_LD_6_RN_14_RD_30_0.png","img2/200/Incongruent/L/I_Dist_200_LN_7_LD_10_RN_12_RD_24_0.png","img2/200/Congruent/L/C_Dist_200_LN_9_LD_20_RN_4_RD_16_0.png","img2/200/Congruent/R/C_Dist_200_LN_7_LD_15_RN_18_RD_27_1.png","img2/100/Incongruent/R/I_Dist_100_LN_10_LD_25_RN_8_RD_16_1.png","img2/200/Incongruent/L/I_Dist_200_LN_1_LD_2_RN_3_RD_10_0.png","img2/300/Incongruent/L/I_Dist_300_LN_2_LD_4_RN_6_RD_30_0.png","img2/100/Incongruent/R/I_Dist_100_LN_10_LD_25_RN_9_RD_18_1.png","img2/200/Incongruent/R/I_Dist_200_LN_6_LD_20_RN_3_RD_6_1.png","img2/200/Congruent/R/C_Dist_200_LN_6_LD_12_RN_7_RD_10_1.png","img2/300/Incongruent/L/I_Dist_300_LN_8_LD_10_RN_9_RD_18_0.png","img2/300/Incongruent/L/I_Dist_300_LN_4_LD_5_RN_6_RD_12_0.png","img2/100/Incongruent/L/I_Dist_100_LN_2_LD_4_RN_8_RD_20_0.png","img2/100/Congruent/L/C_Dist_100_LN_8_LD_16_RN_2_RD_5_0.png","img2/300/Congruent/R/C_Dist_300_LN_2_LD_10_RN_12_RD_24_1.png","img2/300/Congruent/L/C_Dist_300_LN_3_LD_6_RN_2_RD_10_0.png","img2/200/Incongruent/L/I_Dist_200_LN_4_LD_5_RN_6_RD_10_0.png","img2/100/Congruent/L/C_Dist_100_LN_9_LD_15_RN_8_RD_16_0.png","img2/100/Congruent/R/C_Dist_100_LN_6_LD_12_RN_15_RD_25_1.png","img2/100/Incongruent/R/I_Dist_100_LN_10_LD_25_RN_8_RD_16_1.png","img2/300/Incongruent/R/I_Dist_300_LN_13_LD_26_RN_12_RD_15_1.png","img2/100/Incongruent/L/I_Dist_100_LN_1_LD_2_RN_8_RD_20_0.png","img2/300/Incongruent/L/I_Dist_300_LN_8_LD_10_RN_14_RD_28_0.png","img2/200/Incongruent/R/I_Dist_200_LN_7_LD_15_RN_6_RD_9_1.png","img2/300/Congruent/R/C_Dist_300_LN_2_LD_20_RN_10_RD_25_1.png","img2/300/Incongruent/L/I_Dist_300_LN_1_LD_2_RN_3_RD_15_0.png","img2/100/Congruent/L/C_Dist_100_LN_10_LD_25_RN_3_RD_10_0.png","img2/200/Congruent/L/C_Dist_200_LN_4_LD_8_RN_3_RD_10_0.png","img2/200/Incongruent/R/I_Dist_200_LN_7_LD_15_RN_4_RD_6_1.png","img2/100/Incongruent/L/I_Dist_100_LN_6_LD_10_RN_11_RD_22_0.png","img2/300/Congruent/L/C_Dist_300_LN_20_LD_25_RN_8_RD_16_0.png","img2/100/Incongruent/L/I_Dist_100_LN_9_LD_15_RN_14_RD_28_0.png","img2/300/Incongruent/R/I_Dist_300_LN_13_LD_26_RN_12_RD_15_1.png","img2/300/Congruent/R/C_Dist_300_LN_3_LD_12_RN_11_RD_20_1.png","img2/300/Incongruent/R/I_Dist_300_LN_4_LD_20_RN_2_RD_4_1.png","img2/300/Incongruent/L/I_Dist_300_LN_4_LD_5_RN_8_RD_16_0.png","img2/200/Incongruent/R/I_Dist_200_LN_9_LD_15_RN_8_RD_10_1.png","img2/300/Congruent/R/C_Dist_300_LN_4_LD_20_RN_13_RD_26_1.png","img2/200/Congruent/L/C_Dist_200_LN_8_LD_15_RN_2_RD_6_0.png","img2/100/Incongruent/L/I_Dist_100_LN_3_LD_9_RN_7_RD_30_0.png","img2/200/Congruent/R/C_Dist_200_LN_7_LD_15_RN_18_RD_27_1.png","img2/300/Incongruent/R/I_Dist_300_LN_13_LD_26_RN_12_RD_15_1.png","img2/300/Congruent/L/C_Dist_300_LN_18_LD_20_RN_9_RD_15_0.png","img2/100/Congruent/L/C_Dist_100_LN_10_LD_25_RN_3_RD_10_0.png","img2/100/Congruent/R/C_Dist_100_LN_12_LD_30_RN_13_RD_26_1.png"],"dist100_C":[["C_Dist_100_LN_10_LD_25_RN_3_RD_10_0.png","C_Dist_100_LN_11_LD_22_RN_4_RD_10_0.png","C_Dist_100_LN_11_LD_22_RN_6_RD_15_0.png","C_Dist_100_LN_15_LD_25_RN_13_RD_26_0.png","C_Dist_100_LN_3_LD_6_RN_2_RD_5_0.png","C_Dist_100_LN_6_LD_20_RN_5_RD_25_0.png","C_Dist_100_LN_8_LD_16_RN_2_RD_5_0.png","C_Dist_100_LN_9_LD_15_RN_8_RD_16_0.png"],["C_Dist_100_LN_1_LD_2_RN_18_RD_30_1.png","C_Dist_100_LN_1_LD_2_RN_3_RD_5_1.png","C_Dist_100_LN_12_LD_30_RN_13_RD_26_1.png","C_Dist_100_LN_2_LD_5_RN_11_RD_22_1.png","C_Dist_100_LN_2_LD_5_RN_6_RD_12_1.png","C_Dist_100_LN_3_LD_20_RN_4_RD_16_1.png","C_Dist_100_LN_4_LD_10_RN_15_RD_30_1.png","C_Dist_100_LN_4_LD_8_RN_6_RD_10_1.png","C_Dist_100_LN_6_LD_12_RN_15_RD_25_1.png","C_Dist_100_LN_7_LD_14_RN_15_RD_25_1.png","C_Dist_100_LN_7_LD_14_RN_9_RD_15_1.png"]],"dist100_I":[["I_Dist_100_LN_1_LD_2_RN_8_RD_20_0.png","I_Dist_100_LN_2_LD_4_RN_6_RD_15_0.png","I_Dist_100_LN_2_LD_4_RN_8_RD_20_0.png","I_Dist_100_LN_3_LD_5_RN_11_RD_22_0.png","I_Dist_100_LN_3_LD_5_RN_8_RD_16_0.png","I_Dist_100_LN_3_LD_6_RN_4_RD_10_0.png","I_Dist_100_LN_3_LD_9_RN_7_RD_30_0.png","I_Dist_100_LN_4_LD_8_RN_8_RD_20_0.png","I_Dist_100_LN_6_LD_10_RN_11_RD_22_0.png","I_Dist_100_LN_6_LD_10_RN_13_RD_26_0.png","I_Dist_100_LN_6_LD_10_RN_7_RD_14_0.png","I_Dist_100_LN_9_LD_10_RN_20_RD_25_0.png","I_Dist_100_LN_9_LD_15_RN_13_RD_26_0.png","I_Dist_100_LN_9_LD_15_RN_14_RD_28_0.png"],["I_Dist_100_LN_10_LD_25_RN_8_RD_16_1.png","I_Dist_100_LN_10_LD_25_RN_9_RD_18_1.png","I_Dist_100_LN_11_LD_22_RN_9_RD_15_1.png","I_Dist_100_LN_12_LD_24_RN_9_RD_15_1.png","I_Dist_100_LN_12_LD_30_RN_2_RD_4_1.png","I_Dist_100_LN_13_LD_26_RN_12_RD_20_1.png","I_Dist_100_LN_13_LD_26_RN_6_RD_10_1.png","I_Dist_100_LN_17_LD_30_RN_10_RD_15_1.png","I_Dist_100_LN_6_LD_12_RN_3_RD_5_1.png","I_Dist_100_LN_8_LD_16_RN_6_RD_10_1.png","I_Dist_100_LN_8_LD_20_RN_1_RD_2_1.png","I_Dist_100_LN_9_LD_18_RN_6_RD_10_1.png"]],"dist100_S":[["E_Dist_100_LN_2_LD_12_RN_2_RD_30_0.png","E_Dist_100_LN_6_LD_10_RN_6_RD_12_0.png"],["E_Dist_100_LN_6_LD_12_RN_6_RD_10_1.png"]],"dist200_C":[["C_Dist_200_LN_11_LD_22_RN_3_RD_10_0.png","C_Dist_200_LN_12_LD_15_RN_6_RD_10_0.png","C_Dist_200_LN_12_LD_20_RN_6_RD_15_0.png","C_Dist_200_LN_14_LD_28_RN_6_RD_20_0.png","C_Dist_200_LN_15_LD_25_RN_4_RD_10_0.png","C_Dist_200_LN_16_LD_20_RN_12_RD_20_0.png","C_Dist_200_LN_16_LD_30_RN_9_RD_27_0.png","C_Dist_200_LN_20_LD_25_RN_9_RD_15_0.png","C_Dist_200_LN_21_LD_30_RN_2_RD_4_0.png","C_Dist_200_LN_4_LD_10_RN_3_RD_15_0.png","C_Dist_200_LN_4_LD_8_RN_3_RD_10_0.png","C_Dist_200_LN_6_LD_15_RN_3_RD_15_0.png","C_Dist_200_LN_7_LD_21_RN_2_RD_15_0.png","C_Dist_200_LN_8_LD_15_RN_2_RD_6_0.png","C_Dist_200_LN_8_LD_15_RN_3_RD_9_0.png","C_Dist_200_LN_8_LD_15_RN_7_RD_21_0.png","C_Dist_200_LN_9_LD_20_RN_4_RD_16_0.png"],["C_Dist_200_LN_1_LD_2_RN_21_RD_30_1.png","C_Dist_200_LN_13_LD_26_RN_14_RD_20_1.png","C_Dist_200_LN_3_LD_10_RN_11_RD_22_1.png","C_Dist_200_LN_3_LD_10_RN_14_RD_28_1.png","C_Dist_200_LN_3_LD_10_RN_7_RD_14_1.png","C_Dist_200_LN_3_LD_12_RN_9_RD_20_1.png","C_Dist_200_LN_3_LD_6_RN_14_RD_20_1.png","C_Dist_200_LN_5_LD_10_RN_14_RD_20_1.png","C_Dist_200_LN_6_LD_12_RN_7_RD_10_1.png","C_Dist_200_LN_6_LD_20_RN_11_RD_22_1.png","C_Dist_200_LN_7_LD_15_RN_18_RD_27_1.png","C_Dist_200_LN_9_LD_30_RN_13_RD_26_1.png"]],"dist200_I":[["I_Dist_200_LN_1_LD_2_RN_3_RD_10_0.png","I_Dist_200_LN_1_LD_3_RN_2_RD_15_0.png","I_Dist_200_LN_3_LD_4_RN_11_RD_20_0.png","I_Dist_200_LN_4_LD_5_RN_6_RD_10_0.png","I_Dist_200_LN_4_LD_6_RN_14_RD_30_0.png","I_Dist_200_LN_7_LD_10_RN_12_RD_24_0.png","I_Dist_200_LN_7_LD_10_RN_14_RD_28_0.png","I_Dist_200_LN_7_LD_10_RN_8_RD_16_0.png"],["I_Dist_200_LN_11_LD_20_RN_3_RD_4_1.png","I_Dist_200_LN_14_LD_30_RN_12_RD_18_1.png","I_Dist_200_LN_14_LD_30_RN_6_RD_9_1.png","I_Dist_200_LN_3_LD_10_RN_1_RD_2_1.png","I_Dist_200_LN_4_LD_30_RN_1_RD_3_1.png","I_Dist_200_LN_6_LD_20_RN_3_RD_6_1.png","I_Dist_200_LN_7_LD_15_RN_4_RD_6_1.png","I_Dist_200_LN_7_LD_15_RN_6_RD_9_1.png","I_Dist_200_LN_9_LD_15_RN_8_RD_10_1.png"]],"dist200_S":[["E_Dist_200_LN_3_LD_6_RN_3_RD_10_0.png"],["E_Dist_200_LN_3_LD_10_RN_3_RD_6_1.png"]],"dist300_C":[["C_Dist_300_LN_11_LD_22_RN_1_RD_5_0.png","C_Dist_300_LN_11_LD_22_RN_2_RD_10_0.png","C_Dist_300_LN_11_LD_22_RN_4_RD_20_0.png","C_Dist_300_LN_12_LD_24_RN_2_RD_10_0.png","C_Dist_300_LN_18_LD_20_RN_9_RD_15_0.png","C_Dist_300_LN_20_LD_25_RN_13_RD_26_0.png","C_Dist_300_LN_20_LD_25_RN_14_RD_28_0.png","C_Dist_300_LN_20_LD_25_RN_5_RD_10_0.png","C_Dist_300_LN_20_LD_25_RN_8_RD_16_0.png","C_Dist_300_LN_20_LD_25_RN_9_RD_18_0.png","C_Dist_300_LN_24_LD_30_RN_2_RD_4_0.png","C_Dist_300_LN_24_LD_30_RN_8_RD_16_0.png","C_Dist_300_LN_3_LD_6_RN_2_RD_10_0.png","C_Dist_300_LN_4_LD_10_RN_1_RD_10_0.png","C_Dist_300_LN_4_LD_5_RN_2_RD_4_0.png","C_Dist_300_LN_8_LD_16_RN_1_RD_5_0.png","C_Dist_300_LN_9_LD_10_RN_3_RD_5_0.png"],["C_Dist_300_LN_1_LD_20_RN_7_RD_20_1.png","C_Dist_300_LN_1_LD_3_RN_19_RD_30_1.png","C_Dist_300_LN_1_LD_30_RN_8_RD_24_1.png","C_Dist_300_LN_1_LD_5_RN_11_RD_22_1.png","C_Dist_300_LN_1_LD_5_RN_3_RD_6_1.png","C_Dist_300_LN_1_LD_5_RN_6_RD_12_1.png","C_Dist_300_LN_2_LD_10_RN_12_RD_24_1.png","C_Dist_300_LN_2_LD_20_RN_10_RD_25_1.png","C_Dist_300_LN_3_LD_12_RN_11_RD_20_1.png","C_Dist_300_LN_3_LD_6_RN_4_RD_5_1.png","C_Dist_300_LN_4_LD_20_RN_13_RD_26_1.png","C_Dist_300_LN_5_LD_25_RN_6_RD_12_1.png","C_Dist_300_LN_5_LD_25_RN_7_RD_14_1.png","C_Dist_300_LN_7_LD_14_RN_20_RD_25_1.png","C_Dist_300_LN_8_LD_15_RN_10_RD_12_1.png"]],"dist300_I":[["I_Dist_300_LN_1_LD_2_RN_2_RD_10_0.png","I_Dist_300_LN_1_LD_2_RN_3_RD_15_0.png","I_Dist_300_LN_2_LD_4_RN_6_RD_30_0.png","I_Dist_300_LN_3_LD_6_RN_4_RD_20_0.png","I_Dist_300_LN_4_LD_5_RN_6_RD_12_0.png","I_Dist_300_LN_4_LD_5_RN_8_RD_16_0.png","I_Dist_300_LN_7_LD_10_RN_8_RD_20_0.png","I_Dist_300_LN_8_LD_10_RN_14_RD_28_0.png","I_Dist_300_LN_8_LD_10_RN_9_RD_18_0.png"],["I_Dist_300_LN_13_LD_26_RN_12_RD_15_1.png","I_Dist_300_LN_4_LD_20_RN_2_RD_4_1.png"]],"dist300_S":[["E_Dist_300_LN_9_LD_12_RN_9_RD_20_0.png"],["E_Dist_300_LN_18_LD_30_RN_18_RD_20_1.png","E_Dist_300_LN_3_LD_10_RN_3_RD_5_1.png","E_Dist_300_LN_9_LD_20_RN_9_RD_12_1.png"]],"dist500_C":[["C_Dist_500_LN_10_LD_13_RN_7_RD_26_0.png","C_Dist_500_LN_10_LD_15_RN_4_RD_24_0.png","C_Dist_500_LN_12_LD_16_RN_3_RD_12_0.png","C_Dist_500_LN_12_LD_18_RN_4_RD_24_0.png","C_Dist_500_LN_15_LD_18_RN_5_RD_15_0.png","C_Dist_500_LN_15_LD_20_RN_1_RD_4_0.png","C_Dist_500_LN_18_LD_27_RN_1_RD_6_0.png","C_Dist_500_LN_20_LD_24_RN_1_RD_3_0.png","C_Dist_500_LN_20_LD_24_RN_3_RD_9_0.png","C_Dist_500_LN_20_LD_24_RN_7_RD_21_0.png","C_Dist_500_LN_20_LD_28_RN_3_RD_14_0.png","C_Dist_500_LN_21_LD_28_RN_6_RD_24_0.png","C_Dist_500_LN_22_LD_28_RN_2_RD_7_0.png","C_Dist_500_LN_25_LD_30_RN_9_RD_27_0.png","C_Dist_500_LN_4_LD_6_RN_1_RD_6_0.png","C_Dist_500_LN_5_LD_6_RN_2_RD_6_0.png","C_Dist_500_LN_6_LD_9_RN_1_RD_6_0.png","C_Dist_500_LN_7_LD_10_RN_1_RD_5_0.png","C_Dist_500_LN_8_LD_12_RN_1_RD_6_0.png","C_Dist_500_LN_8_LD_12_RN_4_RD_24_0.png"],["C_Dist_500_LN_1_LD_4_RN_12_RD_16_1.png","C_Dist_500_LN_1_LD_4_RN_9_RD_12_1.png","C_Dist_500_LN_1_LD_9_RN_11_RD_18_1.png","C_Dist_500_LN_10_LD_24_RN_22_RD_24_1.png","C_Dist_500_LN_2_LD_12_RN_10_RD_15_1.png","C_Dist_500_LN_2_LD_12_RN_12_RD_18_1.png","C_Dist_500_LN_2_LD_12_RN_4_RD_6_1.png","C_Dist_500_LN_2_LD_24_RN_7_RD_12_1.png","C_Dist_500_LN_2_LD_5_RN_18_RD_20_1.png","C_Dist_500_LN_2_LD_5_RN_9_RD_10_1.png","C_Dist_500_LN_2_LD_8_RN_12_RD_16_1.png","C_Dist_500_LN_2_LD_8_RN_21_RD_28_1.png","C_Dist_500_LN_3_LD_10_RN_4_RD_5_1.png","C_Dist_500_LN_3_LD_12_RN_15_RD_20_1.png","C_Dist_500_LN_3_LD_30_RN_6_RD_10_1.png","C_Dist_500_LN_3_LD_8_RN_14_RD_16_1.png","C_Dist_500_LN_4_LD_16_RN_15_RD_20_1.png","C_Dist_500_LN_4_LD_24_RN_12_RD_18_1.png","C_Dist_500_LN_5_LD_14_RN_6_RD_7_1.png","C_Dist_500_LN_7_LD_21_RN_20_RD_24_1.png","C_Dist_500_LN_7_LD_28_RN_12_RD_16_1.png","C_Dist_500_LN_7_LD_28_RN_9_RD_12_1.png","C_Dist_500_LN_9_LD_27_RN_20_RD_24_1.png"]],"dist500_I":[["I_Dist_500_LN_2_LD_3_RN_4_RD_24_0.png","I_Dist_500_LN_5_LD_6_RN_6_RD_18_0.png","I_Dist_500_LN_7_LD_8_RN_9_RD_24_0.png"],["I_Dist_500_LN_7_LD_21_RN_5_RD_6_1.png"]],"dist500_S":[["E_Dist_500_LN_6_LD_8_RN_6_RD_24_0.png"],["E_Dist_500_LN_2_LD_12_RN_2_RD_3_1.png","E_Dist_500_LN_6_LD_24_RN_6_RD_8_1.png"]]}},{"start_time":1551891084773,"click_time":1551891087410,"finger_time":1551891086129,"fix_duration":943.5617469011015,"trial":1,"RT":1356,"MT":1281,"sideResp":2,"stimulus":[],"xmouse":[779,779,779,779,779,779,779,779,779,779,779,779,779,779,779,779,779,779,779,779,779,779,779,779,779,779,779,779,779,779,779,779,779,779,779,779,779,779,779,779,779,779,779,779,779,779,779,779,779,779,779,779,779,779,779,779,779,781,782,784,784,784,786,786,786,787,789,791,792,793,794,795,795,795,795,795,795,795,795,795,795,795,795,795,795,795,795,795,795,795,795,795,795,795,795,795,795,795,795,795,795,796,798,802,807,816,834,839,843,848,858,907,928,942,952,957,966,985,1007,1022,1035,1047,1052,1054,1055,1058,1071,1072,1076,1078,1078,1079],"ymouse":[527,527,527,527,527,527,527,527,527,527,527,527,527,527,527,527,527,527,527,527,527,527,527,527,527,527,527,527,527,527,527,527,527,527,527,527,527,527,527,527,527,527,527,527,527,527,527,527,527,527,527,527,527,527,528,529,533,539,543,547,551,557,562,566,572,577,586,594,599,604,606,609,609,609,609,609,609,609,609,609,609,609,609,609,609,609,609,609,609,609,609,609,609,609,609,609,609,609,609,609,609,603,597,589,580,565,530,504,485,468,451,392,369,352,340,327,306,286,268,252,237,211,199,192,185,178,153,150,137,128,115,93],"timestamp_mouse":[16,41,57,77,96,116,136,158,177,196,217,236,258,277,296,317,338,357,376,397,416,436,456,476,496,517,538,557,576,598,616,636,656,677,698,716,736,756,778,797,816,836,857,878,896,916,937,958,976,996,1017,1036,1057,1077,1096,1116,1136,1157,1177,1196,1217,1237,1257,1276,1298,1316,1336,1356,1377,1396,1417,1437,1457,1477,1496,1516,1536,1558,1577,1596,1616,1637,1657,1676,1697,1716,1737,1757,1776,1797,1817,1837,1857,1876,1897,1916,1937,1956,1976,1996,2018,2037,2056,2077,2097,2116,2136,2157,2176,2197,2216,2237,2256,2277,2297,2316,2338,2356,2377,2396,2416,2437,2456,2476,2497,2516,2538,2556,2576,2597,2617,2637],"xSR":741.5,"ySR":490.1,"xT1":424.9,"yT1":0,"xT2":1058.1,"yT2":0,"toosoon":0,"cond_shown":"Congruent","ratio_trial":300,"L_num":11,"L_den":22,"R_num":2,"R_den":10,"correct_side":1,"subjID":"anasofiaortegonguachaves6","gender":"1","school":"6","age":"12"},{"start_time":1551891090909,"click_time":1551891093750,"finger_time":1551891091529,"fix_duration":717.1952162610513,"trial":2,"RT":620,"MT":2221,"sideResp":2,"stimulus":[],"xmouse":[780,780,780,780,780,780,780,780,780,780,780,780,780,779,779,779,779,779,779,779,779,779,779,779,779,779,779,779,779,781,788,816,826,838,852,886,903,918,930,938,952,959,963,964,965,965,965,965,965,965,965,965,965,965,967,973,974,976,977,979,981,982,982,982,982,982,982,982,981,979,972,965,961,959,958,957,957,956,956,956,956,956,956,956,956,956,956,956,956,956,956,956,956,956,956,956,956,956,956,956,956,956,956,956,956,956,956,956,956,956,956,956,955,953,953,953,953,953,953,953,953,955,956,958,961,969,972,976,980,983,983,984,985,985,987,1003,1012,1028,1042,1059,1086,1097,1103],"ymouse":[553,553,553,553,553,553,553,553,553,553,553,553,553,553,553,553,553,553,553,553,553,553,553,553,553,553,553,553,548,543,528,470,450,429,408,360,337,317,300,286,259,247,241,239,238,238,238,238,238,238,238,237,235,232,229,221,219,218,216,214,212,210,210,210,210,210,210,210,211,212,217,223,225,227,228,229,229,230,230,230,230,230,230,230,230,230,230,230,230,230,230,230,230,230,230,230,230,230,230,230,230,230,230,230,230,230,230,230,230,230,230,230,232,234,236,237,237,237,237,237,236,233,232,230,226,220,219,216,214,214,214,214,213,213,211,199,190,177,167,154,126,102,83],"timestamp_mouse":[9,21,42,61,80,100,120,141,162,180,201,222,241,260,281,300,321,340,361,380,401,421,440,460,481,501,521,540,560,581,600,620,640,660,680,701,720,740,761,780,801,820,840,861,880,900,920,940,960,981,1001,1020,1040,1061,1080,1100,1120,1140,1161,1180,1200,1222,1241,1260,1281,1301,1321,1341,1361,1380,1401,1420,1440,1461,1480,1501,1520,1541,1561,1581,1600,1621,1640,1661,1682,1701,1720,1740,1761,1781,1801,1821,1840,1861,1882,1901,1921,1941,1962,1980,2001,2020,2041,2060,2080,2101,2121,2142,2160,2181,2201,2220,2240,2260,2280,2301,2320,2341,2360,2381,2400,2420,2440,2460,2480,2500,2520,2541,2562,2580,2601,2620,2641,2660,2680,2701,2720,2741,2762,2780,2801,2820,2841],"xSR":741.5,"ySR":490.1,"xT1":424.9,"yT1":0,"xT2":1058.1,"yT2":0,"toosoon":0,"cond_shown":"Incongruent","ratio_trial":100,"L_num":9,"L_den":10,"R_num":20,"R_den":25,"correct_side":1,"subjID":"anasofiaortegonguachaves6","gender":"1","school":"6","age":"12"},{"start_time":1551891097555,"click_time":1551891109790,"finger_time":1551891109110,"fix_duration":1163.3482697240386,"trial":3,"RT":11555,"MT":680,"sideResp":1,"stimulus":[],"xmouse":[765,765,765,765,765,765,765,765,765,765,765,765,765,765,765,765,765,765,765,765,765,765,765,765,765,765,765,765,765,765,765,765,765,765,765,765,765,765,765,765,765,765,765,765,765,765,765,765,765,765,765,765,765,765,765,765,765,765,765,765,765,765,765,765,765,765,765,765,765,765,765,765,765,765,765,765,765,765,765,765,765,765,765,765,765,765,765,765,765,765,765,765,765,765,765,765,765,765,765,765,765,765,765,765,765,765,765,765,765,765,765,765,765,765,765,765,765,765,765,765,765,765,765,765,765,765,765,765,765,765,765,765,765,765,765,765,765,765,765,765,765,765,765,765,765,765,765,765,765,765,765,765,765,765,765,765,765,765,765,765,765,765,765,765,765,765,765,765,765,765,765,765,765,765,765,765,765,765,765,765,765,765,765,765,765,765,765,765,765,765,765,765,765,765,765,765,765,765,765,765,765,765,765,765,765,765,765,765,765,765,765,765,765,765,765,765,765,765,765,765,765,765,765,765,765,765,765,765,765,765,765,765,765,765,765,765,765,765,765,765,765,765,765,765,765,765,765,765,765,765,765,765,765,765,765,765,765,765,765,765,765,765,765,765,765,765,765,765,765,765,765,765,765,765,765,765,765,765,765,765,765,765,765,765,765,765,765,765,765,765,765,765,765,765,765,765,765,765,765,765,765,765,765,765,765,765,765,765,765,765,765,765,765,765,765,765,765,765,765,765,765,765,765,765,765,765,765,765,765,765,765,765,765,765,765,765,765,765,765,765,765,765,765,765,765,765,765,765,765,765,765,765,765,765,765,765,765,765,765,765,765,765,765,765,765,765,765,765,765,765,765,765,765,765,765,765,765,765,765,765,765,765,765,765,765,765,765,765,765,765,765,765,765,765,765,765,765,765,765,765,765,765,765,765,765,765,765,765,765,765,765,765,765,765,765,765,765,765,765,765,765,765,765,765,765,765,765,765,765,765,765,765,765,765,765,765,765,765,765,765,765,765,765,765,765,765,765,765,765,765,765,765,765,765,765,765,765,765,765,765,765,765,765,765,765,765,765,765,765,765,765,765,765,765,765,765,765,765,765,765,765,765,765,765,765,765,765,765,765,765,765,765,765,765,765,765,765,765,765,765,765,765,765,765,765,765,765,765,765,765,765,765,765,765,765,765,765,765,765,765,765,765,765,765,765,765,765,765,765,765,765,765,765,765,765,765,765,765,765,765,765,765,765,765,765,765,765,765,765,765,765,765,765,765,765,765,765,765,765,765,765,765,765,765,765,765,765,765,765,765,765,765,765,765,765,765,764,741,720,637,613,610,607,605,603,603,603,605,609,610,611,609,580,530,465,400,369,332,319,317,317,317,323,330,340,342,343,348,368,393,424,450],"ymouse":[526,526,526,526,526,526,526,526,526,526,526,526,526,526,526,526,526,526,526,526,526,526,526,526,526,526,526,526,526,526,526,526,526,526,526,526,526,526,526,526,526,526,526,526,526,526,526,526,526,526,526,526,526,526,526,526,526,526,526,526,526,526,526,526,526,526,526,526,526,526,526,526,526,526,526,526,526,526,526,526,526,526,526,526,526,526,526,526,526,526,526,526,526,526,526,526,526,526,526,526,526,526,526,526,526,526,526,526,526,526,526,526,526,526,526,526,526,526,526,526,526,526,526,526,526,526,526,526,526,526,526,526,526,526,526,526,526,526,526,526,526,526,526,526,526,526,526,526,526,526,526,526,526,526,526,526,526,526,526,526,526,526,526,526,526,526,526,526,526,526,526,526,526,526,526,526,526,526,526,526,526,526,526,526,526,526,526,526,526,526,526,526,526,526,526,526,526,526,526,526,526,526,526,526,526,526,526,526,526,526,526,526,526,526,526,526,526,526,526,526,526,526,526,526,526,526,526,526,526,526,526,526,526,526,526,526,526,526,526,526,526,526,526,526,526,526,526,526,526,526,526,526,526,526,526,526,526,526,526,526,526,526,526,526,526,526,526,526,526,526,526,526,526,526,526,526,526,526,526,526,526,526,526,526,526,526,526,526,526,526,526,526,526,526,526,526,526,526,526,526,526,526,526,526,526,526,526,526,526,526,526,526,526,526,526,526,526,526,526,526,526,526,526,526,526,526,526,526,526,526,526,526,526,526,526,526,526,526,526,526,526,526,526,526,526,526,526,526,526,526,526,526,526,526,526,526,526,526,526,526,526,526,526,526,526,526,526,526,526,526,526,526,526,526,526,526,526,526,526,526,526,526,526,526,526,526,526,526,526,526,526,526,526,526,526,526,526,526,526,526,526,526,526,526,526,526,526,526,526,526,526,526,526,526,526,526,526,526,526,526,526,526,526,526,526,526,526,526,526,526,526,526,526,526,526,526,526,526,526,526,526,526,526,526,526,526,526,526,526,526,526,526,526,526,526,526,526,526,526,526,526,526,526,526,526,526,526,526,526,526,526,526,526,526,526,526,526,526,526,526,526,526,526,526,526,526,526,526,526,526,526,526,526,526,526,526,526,526,526,526,526,526,526,526,526,526,526,526,526,526,526,526,526,526,526,526,526,526,526,526,526,526,526,526,526,526,526,526,526,526,526,526,526,526,526,526,526,526,526,526,526,526,526,526,526,526,526,526,526,526,526,526,526,526,526,526,526,526,526,526,526,526,526,526,526,526,526,526,526,526,526,526,526,526,526,526,521,493,470,395,365,353,336,323,311,304,293,277,269,263,255,246,227,211,192,175,160,118,81,68,58,54,51,50,49,48,48,48,48,55,64,70],"timestamp_mouse":[16,48,55,74,95,114,134,155,174,194,214,234,254,276,294,315,334,355,375,394,415,435,454,475,494,515,535,554,575,596,615,635,655,674,695,715,736,755,775,795,815,834,854,875,896,915,934,956,974,994,1014,1035,1054,1074,1095,1114,1135,1156,1174,1195,1215,1234,1255,1274,1295,1314,1335,1355,1375,1395,1414,1435,1454,1476,1495,1515,1535,1556,1574,1595,1614,1634,1656,1675,1694,1715,1734,1754,1775,1794,1814,1835,1855,1875,1894,1915,1935,1954,1974,1995,2015,2034,2054,2074,2095,2115,2134,2154,2174,2194,2215,2234,2256,2274,2294,2314,2335,2355,2375,2394,2414,2434,2455,2475,2495,2514,2535,2554,2575,2594,2615,2634,2654,2674,2695,2714,2734,2755,2776,2794,2814,2834,2854,2874,2894,2915,2935,2954,2975,2995,3015,3034,3054,3074,3094,3114,3135,3154,3174,3195,3214,3235,3256,3275,3295,3315,3334,3354,3375,3394,3416,3435,3455,3475,3495,3515,3534,3554,3575,3595,3616,3635,3655,3675,3696,3715,3735,3754,3776,3795,3815,3835,3854,3875,3895,3916,3934,3954,3975,3995,4014,4034,4054,4075,4096,4115,4135,4154,4175,4194,4215,4235,4254,4274,4294,4315,4335,4355,4375,4396,4414,4435,4456,4476,4496,4514,4534,4554,4575,4596,4615,4635,4656,4675,4694,4714,4734,4755,4775,4794,4815,4836,4855,4875,4896,4915,4935,4954,4975,4994,5015,5035,5056,5074,5094,5116,5135,5154,5174,5194,5215,5235,5255,5274,5295,5314,5335,5354,5374,5394,5414,5435,5455,5475,5494,5514,5534,5554,5576,5595,5614,5635,5654,5675,5694,5715,5735,5755,5775,5794,5816,5835,5854,5875,5895,5915,5935,5955,5974,5995,6015,6035,6054,6075,6094,6115,6135,6155,6174,6194,6214,6234,6255,6276,6294,6315,6335,6354,6374,6394,6416,6435,6455,6475,6494,6514,6534,6554,6574,6594,6614,6634,6654,6675,6695,6715,6735,6754,6775,6794,6816,6834,6854,6874,6894,6915,6936,6954,6974,6995,7015,7035,7054,7075,7095,7114,7136,7155,7174,7195,7214,7235,7255,7274,7295,7315,7336,7356,7375,7395,7416,7435,7456,7475,7495,7515,7536,7554,7576,7595,7614,7634,7654,7674,7694,7715,7735,7755,7775,7795,7815,7834,7854,7874,7894,7914,7935,7954,7975,7995,8014,8035,8055,8074,8094,8114,8135,8154,8174,8194,8214,8235,8254,8274,8295,8315,8334,8354,8375,8395,8415,8435,8454,8475,8496,8515,8535,8554,8576,8595,8614,8635,8655,8675,8694,8714,8734,8754,8775,8794,8815,8835,8855,8875,8894,8915,8935,8955,8974,8994,9014,9035,9056,9076,9094,9115,9134,9155,9174,9194,9215,9235,9255,9275,9294,9314,9335,9354,9375,9395,9415,9435,9454,9475,9496,9514,9535,9554,9575,9595,9615,9634,9655,9676,9694,9714,9736,9755,9775,9795,9814,9834,9854,9875,9894,9914,9934,9954,9975,9996,10015,10035,10056,10075,10094,10115,10135,10156,10174,10195,10214,10234,10254,10274,10296,10315,10335,10355,10375,10396,10415,10434,10454,10475,10495,10516,10535,10555,10575,10595,10615,10634,10654,10675,10696,10715,10734,10754,10776,10796,10814,10835,10854,10874,10895,10914,10935,10955,10975,10994,11014,11035,11054,11074,11095,11115,11135,11156,11175,11195,11215,11235,11255,11274,11294,11316,11336,11354,11376,11394,11416,11434,11454,11474,11494,11514,11534,11555,11576,11594,11614,11634,11655,11674,11694,11715,11734,11755,11775,11795,11815,11834,11854,11874,11895,11915,11935,11954,11975,11994,12015,12034,12054,12074,12096,12114,12135,12154,12175,12194,12215,12235],"xSR":741.5,"ySR":490.1,"xT1":424.9,"yT1":0,"xT2":1058.1,"yT2":0,"toosoon":0,"cond_shown":"Congruent","ratio_trial":100,"L_num":3,"L_den":6,"R_num":2,"R_den":5,"correct_side":1,"subjID":"anasofiaortegonguachaves6","gender":"1","school":"6","age":"12"},{"start_time":1551891112251,"click_time":1551891113510,"finger_time":1551891113310,"fix_duration":1240.8415178011323,"trial":4,"RT":1059,"MT":200,"sideResp":1,"stimulus":[],"xmouse":[767,767,767,767,767,767,767,767,767,767,767,767,767,767,767,767,767,767,767,767,767,767,767,767,767,767,767,767,767,767,767,767,767,767,767,767,767,767,767,767,767,767,767,767,767,767,767,767,767,768,766,759,716,690,659,631,593,528,512,504,497,492,488],"ymouse":[527,527,527,527,527,527,527,527,527,527,527,527,527,527,527,527,527,527,527,527,527,527,527,527,527,527,527,527,527,527,527,527,527,527,527,527,527,527,527,527,527,527,527,527,527,527,527,527,527,523,517,505,422,382,340,297,240,155,135,122,110,100,85],"timestamp_mouse":[18,43,60,79,98,118,138,159,180,198,220,239,259,280,299,319,338,359,378,400,419,438,458,478,499,519,538,559,579,599,618,638,658,678,698,718,739,758,779,799,818,838,859,879,900,919,939,959,978,999,1018,1038,1059,1078,1099,1119,1138,1158,1178,1198,1220,1239,1259],"xSR":741.5,"ySR":490.1,"xT1":424.9,"yT1":0,"xT2":1058.1,"yT2":0,"toosoon":0,"cond_shown":"Congruent","ratio_trial":300,"L_num":4,"L_den":10,"R_num":1,"R_den":10,"correct_side":1,"subjID":"anasofiaortegonguachaves6","gender":"1","school":"6","age":"12"},{"start_time":1551891115060,"click_time":1551891116449,"finger_time":1551891116130,"fix_duration":250,"trial":5,"RT":1070,"MT":319,"sideResp":2,"stimulus":[],"xmouse":[780,780,780,780,780,780,780,780,780,780,780,780,780,780,780,780,780,780,780,780,780,780,780,780,780,780,780,780,780,780,780,780,780,780,780,780,780,780,780,780,780,780,780,780,782,784,785,786,787,790,797,810,825,867,882,895,907,930,944,960,980,994,1005,1017,1020,1025,1034,1063,1094,1123],"ymouse":[547,547,547,547,547,547,547,547,547,547,547,547,547,547,547,547,547,547,547,547,547,547,547,547,547,547,547,547,547,547,547,547,547,547,547,547,547,547,547,547,547,547,547,547,546,546,545,545,544,541,535,524,506,453,436,418,401,366,348,325,296,273,255,235,233,227,214,166,124,87],"timestamp_mouse":[14,38,49,70,89,111,131,149,169,189,211,229,249,269,289,309,329,350,369,390,410,430,449,469,491,509,531,550,570,591,609,629,651,670,690,709,729,750,769,790,810,830,849,870,889,910,929,950,970,989,1009,1030,1049,1070,1089,1109,1130,1150,1169,1190,1210,1229,1249,1270,1290,1311,1329,1350,1369,1389],"xSR":741.5,"ySR":490.1,"xT1":424.9,"yT1":0,"xT2":1058.1,"yT2":0,"toosoon":0,"cond_shown":"Incongruent","ratio_trial":300,"L_num":13,"L_den":26,"R_num":12,"R_den":15,"correct_side":2,"subjID":"anasofiaortegonguachaves6","gender":"1","school":"6","age":"12"},{"start_time":1551891118918,"click_time":1551891120330,"finger_time":1551891119729,"fix_duration":1306.0625487580298,"trial":6,"RT":811,"MT":601,"sideResp":1,"stimulus":[],"xmouse":[789,789,789,789,789,789,789,789,789,789,789,789,789,789,789,789,789,789,789,789,789,789,789,789,789,789,789,789,789,789,789,789,789,789,789,789,789,789,788,781,769,760,750,743,725,716,708,696,676,618,596,593,593,593,590,586,580,574,570,563,561,560,558,556,555,552,549,545,541,526,516],"ymouse":[534,534,534,534,534,534,534,534,534,534,534,534,534,534,534,534,534,534,534,534,534,534,534,534,534,534,534,534,534,534,534,534,534,534,534,534,534,534,533,510,475,448,426,409,378,363,344,318,277,190,155,147,144,142,130,119,107,97,92,83,79,77,74,72,71,69,69,69,69,69,68],"timestamp_mouse":[11,43,51,72,91,112,132,150,171,192,211,231,251,272,291,311,331,352,371,392,411,432,451,471,491,512,531,552,570,592,611,631,652,670,692,712,732,751,772,791,811,831,851,871,891,911,931,952,971,992,1011,1031,1051,1071,1092,1110,1131,1152,1171,1192,1210,1231,1251,1272,1291,1311,1331,1352,1372,1391,1412],"xSR":741.5,"ySR":490.1,"xT1":424.9,"yT1":0,"xT2":1058.1,"yT2":0,"toosoon":0,"cond_shown":"Incongruent","ratio_trial":300,"L_num":2,"L_den":4,"R_num":6,"R_den":30,"correct_side":1,"subjID":"anasofiaortegonguachaves6","gender":"1","school":"6","age":"12"},{"start_time":1551891122145,"click_time":1551891124389,"finger_time":1551891123948,"fix_duration":874.5609703537747,"trial":7,"RT":1803,"MT":441,"sideResp":2,"stimulus":[],"xmouse":[776,776,776,776,776,776,776,776,776,776,776,776,776,776,776,776,776,776,776,776,776,776,776,776,776,776,776,776,776,776,776,776,776,776,776,776,776,776,776,776,776,776,776,776,774,774,774,774,774,774,774,774,774,774,774,774,774,774,774,774,774,774,774,774,774,774,774,774,774,774,774,774,774,774,774,774,774,774,774,774,774,774,774,774,774,774,774,777,784,800,831,878,920,970,999,1031,1051,1063,1079,1091,1112,1143,1170,1198,1201,1202,1202,1202,1196,1187,1177,1167,1155],"ymouse":[563,563,563,563,563,563,563,563,563,563,563,563,563,563,563,563,563,563,563,563,563,563,563,563,563,563,563,563,563,563,563,563,563,563,563,563,563,563,563,563,563,563,559,553,541,541,541,541,541,541,541,541,541,541,541,541,541,541,541,541,541,541,541,541,541,541,541,541,541,542,542,542,542,542,542,542,542,542,542,542,542,542,542,542,542,542,542,542,533,515,482,439,403,363,339,315,299,284,253,226,195,153,119,70,58,55,54,53,50,46,42,38,34],"timestamp_mouse":[10,32,45,64,84,104,125,145,164,184,204,223,244,264,285,303,324,344,364,385,404,424,445,464,484,503,524,544,564,585,604,624,644,663,685,704,724,744,764,784,804,824,844,864,885,904,924,944,965,984,1004,1024,1048,1064,1084,1104,1125,1144,1164,1184,1205,1223,1243,1264,1285,1303,1325,1343,1364,1385,1405,1423,1444,1464,1484,1504,1525,1544,1565,1585,1604,1624,1643,1664,1685,1704,1724,1745,1765,1783,1803,1824,1844,1864,1884,1904,1925,1944,1965,1983,2004,2025,2044,2064,2083,2104,2124,2144,2164,2184,2204,2224,2244],"xSR":741.5,"ySR":490.1,"xT1":424.9,"yT1":0,"xT2":1058.1,"yT2":0,"toosoon":0,"cond_shown":"Incongruent","ratio_trial":100,"L_num":9,"L_den":10,"R_num":20,"R_den":25,"correct_side":1,"subjID":"anasofiaortegonguachaves6","gender":"1","school":"6","age":"12"},{"start_time":1551891127805,"click_time":1551891140449,"finger_time":1551891139389,"fix_duration":755.1656319711459,"trial":8,"RT":11584,"MT":1060,"sideResp":2,"stimulus":[],"xmouse":[773,773,773,773,773,773,773,773,773,773,773,773,773,773,773,773,773,773,773,773,773,773,773,773,773,773,773,773,773,773,773,773,773,773,773,773,773,773,773,773,773,773,773,773,773,773,773,773,773,773,773,773,773,773,773,773,773,773,773,773,773,773,773,773,773,773,773,773,773,773,773,773,773,773,773,773,773,773,773,773,773,773,773,773,773,773,773,773,773,773,773,773,773,773,773,773,773,773,773,773,773,773,773,773,773,773,773,773,773,773,773,773,773,773,773,773,773,773,773,773,773,773,773,773,773,773,773,773,773,773,773,773,773,773,773,773,773,773,773,773,773,773,773,773,773,773,773,773,773,773,773,773,773,773,773,773,773,773,773,773,773,773,773,773,773,773,773,773,773,773,773,773,773,773,773,773,773,773,773,773,773,773,773,773,773,773,773,773,773,773,773,773,773,773,773,773,773,773,773,773,773,773,773,773,773,773,773,773,773,773,773,773,773,773,773,773,773,773,773,773,773,773,773,773,773,773,773,773,773,773,773,773,773,773,773,773,773,773,773,773,773,773,773,773,773,773,773,773,773,773,773,773,773,773,773,773,773,773,773,773,773,773,773,773,773,773,773,773,773,773,773,773,773,773,773,773,773,773,773,773,773,773,773,773,773,773,773,773,773,773,773,773,773,773,773,773,773,773,773,773,773,773,773,773,773,773,773,773,773,773,773,773,773,773,773,773,773,773,773,773,773,773,773,773,773,773,773,773,773,773,773,773,773,773,773,773,773,773,773,773,773,773,773,773,773,773,773,773,773,773,773,773,773,773,773,773,773,773,773,773,773,773,773,773,773,773,773,773,773,773,773,773,773,773,773,773,773,773,773,773,773,773,773,773,773,773,773,773,773,773,773,773,773,773,773,773,773,773,773,773,773,773,773,773,773,773,773,773,773,773,773,773,773,773,773,773,773,773,773,773,773,773,773,773,773,773,773,773,773,773,773,773,773,773,773,773,773,773,773,773,773,773,773,773,773,773,773,773,773,773,773,773,773,773,773,773,773,773,773,773,773,773,773,773,773,773,773,773,773,773,773,773,773,773,773,773,773,773,773,773,773,773,773,773,773,773,773,773,773,773,773,773,773,773,773,773,773,773,773,773,773,773,773,773,773,773,773,773,773,773,773,773,773,773,773,773,773,773,773,773,773,773,773,773,773,773,773,773,773,773,773,773,773,773,773,773,773,773,773,773,773,773,773,773,773,773,773,773,773,773,773,773,773,773,773,773,773,773,773,773,773,773,773,773,773,773,773,773,773,773,773,773,773,773,773,773,777,783,785,786,788,789,791,797,810,840,871,897,924,948,983,997,1009,1023,1037,1076,1091,1099,1105,1106,1106,1106,1106,1106,1106,1106,1100,1098,1093,1090,1077,1073,1069,1067,1067,1067,1067,1067,1067,1067,1067,1067,1068,1073,1079,1091,1095,1097,1099,1100,1101,1101,1101],"ymouse":[527,527,527,527,527,527,527,527,527,527,527,527,527,527,527,527,527,527,527,527,527,527,527,527,527,527,527,527,527,527,527,527,527,527,527,527,527,527,527,527,527,527,527,527,527,527,527,527,527,527,527,527,527,527,527,527,527,527,527,527,527,527,527,527,527,527,527,527,527,527,527,527,527,527,527,527,527,527,527,527,527,527,527,527,527,527,527,527,527,527,527,527,527,527,527,527,527,527,527,527,527,527,527,527,527,527,527,527,527,527,527,527,527,527,527,527,527,527,527,527,527,527,527,527,527,527,527,527,527,527,527,527,527,527,527,527,527,527,527,527,527,527,527,527,527,527,527,527,527,527,527,527,527,527,527,527,527,527,527,527,527,527,527,527,527,527,527,527,527,527,527,527,527,527,527,527,527,527,527,527,527,527,527,527,527,527,527,527,527,527,527,527,527,527,527,527,527,527,527,527,527,527,527,527,527,527,527,527,527,527,527,527,527,527,527,527,527,527,527,527,527,527,527,527,527,527,527,527,527,527,527,527,527,527,527,527,527,527,527,527,527,527,527,527,527,527,527,527,527,527,527,527,527,527,527,527,527,527,527,527,527,527,527,527,527,527,527,527,527,527,527,527,527,527,527,527,527,527,527,527,527,527,527,527,527,527,527,527,527,527,527,527,527,527,527,527,527,527,527,527,527,527,527,527,527,527,527,527,527,527,527,527,527,527,527,527,527,527,527,527,527,527,527,527,527,527,527,527,527,527,527,527,527,527,527,527,527,527,527,527,527,527,527,527,527,527,527,527,527,527,527,527,527,527,527,527,527,527,527,527,527,527,527,527,527,527,527,527,527,527,527,527,527,527,527,527,527,527,527,527,527,527,527,527,527,527,527,527,527,527,527,527,527,527,527,527,527,527,527,527,527,527,527,527,527,527,527,527,527,527,527,527,527,527,527,527,527,527,527,527,527,527,527,527,527,527,527,527,527,527,527,527,527,527,527,527,527,527,527,527,527,527,527,527,527,527,527,527,527,527,527,527,527,527,527,527,527,527,527,527,527,527,527,527,527,527,527,527,527,527,527,527,527,527,527,527,527,527,527,527,527,527,527,527,527,527,527,527,527,527,527,527,527,527,527,527,527,527,527,527,527,527,527,527,527,527,527,527,527,527,527,527,527,527,527,527,527,527,527,527,527,527,527,527,527,527,527,527,527,527,527,527,527,527,527,527,527,527,527,527,527,527,527,527,527,527,527,527,527,527,527,527,527,527,527,527,527,527,527,527,527,527,527,527,527,527,527,527,527,527,527,527,527,527,527,527,526,510,497,488,472,466,456,436,412,372,343,323,304,290,277,273,270,262,250,199,180,169,163,160,160,160,159,159,159,158,158,159,160,161,168,171,175,177,177,178,178,178,178,178,178,178,176,172,167,154,148,146,142,139,127,110,94],"timestamp_mouse":[11,25,49,64,85,104,123,145,165,184,203,225,244,264,284,305,324,345,364,384,403,425,445,465,485,504,524,543,564,583,604,625,645,665,684,705,724,743,765,785,804,824,844,865,884,905,925,945,965,984,1005,1024,1045,1064,1085,1104,1124,1144,1164,1183,1204,1225,1243,1264,1285,1304,1325,1345,1364,1384,1405,1424,1445,1464,1484,1505,1523,1544,1565,1584,1604,1625,1644,1664,1684,1703,1724,1744,1764,1784,1804,1824,1844,1864,1885,1905,1924,1944,1964,1983,2004,2024,2043,2064,2084,2104,2124,2144,2165,2184,2204,2225,2244,2264,2284,2304,2324,2344,2364,2385,2405,2424,2445,2464,2484,2505,2524,2545,2564,2584,2604,2624,2645,2664,2685,2705,2725,2744,2764,2784,2804,2825,2845,2864,2884,2905,2925,2945,2965,2984,3005,3025,3045,3064,3085,3104,3124,3145,3164,3183,3205,3225,3245,3264,3283,3305,3325,3344,3363,3383,3405,3425,3444,3464,3485,3505,3525,3544,3564,3584,3604,3625,3645,3665,3685,3704,3724,3745,3764,3785,3803,3825,3845,3864,3885,3904,3924,3943,3964,3985,4005,4024,4045,4065,4084,4104,4125,4144,4165,4185,4204,4224,4244,4264,4284,4304,4324,4344,4364,4384,4404,4424,4445,4464,4485,4505,4524,4545,4565,4584,4604,4625,4644,4664,4684,4705,4725,4744,4765,4785,4805,4825,4845,4864,4885,4905,4924,4944,4964,4985,5005,5025,5045,5065,5084,5104,5123,5145,5164,5184,5204,5225,5244,5264,5285,5304,5324,5345,5364,5384,5404,5424,5445,5465,5485,5504,5524,5544,5564,5584,5604,5625,5645,5665,5684,5705,5725,5743,5763,5785,5805,5825,5845,5864,5883,5904,5925,5944,5965,5983,6005,6025,6045,6064,6085,6104,6124,6144,6164,6183,6205,6225,6244,6264,6285,6304,6325,6345,6364,6385,6405,6423,6444,6465,6485,6505,6525,6544,6565,6585,6604,6625,6645,6665,6684,6705,6724,6745,6764,6785,6804,6825,6845,6865,6884,6905,6925,6944,6965,6984,7004,7025,7045,7065,7084,7105,7125,7145,7165,7184,7205,7224,7244,7264,7285,7305,7324,7344,7365,7385,7403,7425,7444,7464,7483,7505,7525,7544,7564,7585,7604,7624,7644,7664,7685,7705,7725,7743,7765,7785,7805,7824,7845,7864,7884,7903,7925,7945,7965,7985,8004,8025,8045,8065,8084,8104,8125,8144,8165,8184,8203,8224,8244,8264,8283,8305,8325,8344,8364,8384,8404,8425,8445,8465,8484,8505,8523,8545,8565,8585,8604,8625,8643,8664,8683,8705,8725,8745,8764,8785,8805,8825,8844,8864,8884,8905,8925,8944,8964,8985,9004,9023,9044,9065,9083,9105,9124,9145,9164,9183,9204,9225,9245,9265,9285,9304,9325,9345,9364,9385,9403,9425,9444,9465,9485,9503,9525,9544,9565,9584,9603,9625,9644,9663,9684,9704,9724,9745,9765,9785,9804,9825,9845,9863,9883,9904,9924,9944,9965,9984,10004,10024,10045,10065,10085,10104,10124,10145,10165,10185,10204,10224,10244,10264,10285,10305,10324,10345,10364,10384,10404,10423,10445,10464,10483,10505,10525,10545,10565,10584,10603,10625,10644,10664,10685,10705,10725,10744,10765,10785,10805,10824,10845,10865,10884,10905,10925,10945,10965,10984,11004,11025,11045,11065,11085,11104,11124,11144,11164,11185,11205,11225,11244,11265,11284,11305,11325,11345,11365,11385,11405,11425,11444,11465,11485,11505,11524,11544,11564,11584,11604,11623,11645,11664,11685,11705,11725,11744,11765,11784,11804,11824,11844,11865,11885,11905,11925,11944,11964,11983,12005,12024,12045,12065,12084,12104,12124,12144,12164,12185,12204,12224,12244,12264,12284,12304,12324,12345,12364,12385,12405,12424,12444,12465,12485,12504,12525,12545,12565,12585,12605,12624,12644],"xSR":741.5,"ySR":490.1,"xT1":424.9,"yT1":0,"xT2":1058.1,"yT2":0,"toosoon":0,"cond_shown":"Congruent","ratio_trial":300,"L_num":8,"L_den":15,"R_num":10,"R_den":12,"correct_side":2,"subjID":"anasofiaortegonguachaves6","gender":"1","school":"6","age":"12"},{"start_time":1551891142210,"click_time":1551891143210,"finger_time":1551891142749,"fix_duration":698.5136881112481,"trial":9,"RT":539,"MT":461,"sideResp":2,"stimulus":[],"xmouse":[772,772,772,772,772,772,772,772,772,772,772,772,772,772,772,772,772,772,772,772,773,773,774,774,776,779,786,793,801,808,814,815,815,815,815,815,815,817,821,825,842,856,866,877,890,928,990,1031,1070,1099,1137],"ymouse":[523,523,523,523,523,523,523,523,523,523,523,523,523,523,523,523,523,523,523,523,523,523,522,521,517,511,498,487,476,467,457,457,457,457,457,457,456,454,451,448,433,421,411,397,383,327,251,198,146,104,43],"timestamp_mouse":[1,19,38,59,79,99,119,140,160,179,199,218,239,260,279,299,318,340,360,379,400,419,439,459,479,499,519,539,559,579,600,619,640,659,680,700,720,739,759,779,799,819,839,860,879,900,919,939,959,980,1000],"xSR":741.5,"ySR":490.1,"xT1":424.9,"yT1":0,"xT2":1058.1,"yT2":0,"toosoon":0,"cond_shown":"Congruent","ratio_trial":300,"L_num":20,"L_den":25,"R_num":8,"R_den":16,"correct_side":1,"subjID":"anasofiaortegonguachaves6","gender":"1","school":"6","age":"12"},{"start_time":1551891145232,"click_time":1551891146449,"finger_time":1551891145889,"fix_duration":721.4866073049019,"trial":10,"RT":657,"MT":560,"sideResp":1,"stimulus":[],"xmouse":[797,797,797,797,797,797,797,797,797,797,797,797,797,797,797,797,797,797,797,797,797,797,797,796,788,783,778,775,763,759,755,750,745,729,714,704,689,670,625,608,594,580,568,551,540,535,530,527,521,517,515,515,514,513,513,513,513,511,503,497,491],"ymouse":[567,567,567,567,567,567,567,567,567,567,567,567,567,567,567,567,567,567,567,567,567,567,567,565,554,546,540,534,514,506,498,491,482,463,444,433,416,397,350,328,308,287,268,234,211,194,180,170,148,137,125,122,119,117,117,117,116,115,108,104,99],"timestamp_mouse":[17,42,58,77,98,118,137,156,177,197,217,237,257,277,297,317,337,357,378,398,417,437,457,477,498,517,538,557,578,597,617,637,657,677,698,717,737,758,777,796,817,838,857,878,896,917,937,957,977,997,1018,1037,1058,1077,1096,1118,1138,1157,1177,1197,1217],"xSR":741.5,"ySR":490.1,"xT1":424.9,"yT1":0,"xT2":1058.1,"yT2":0,"toosoon":0,"cond_shown":"Incongruent","ratio_trial":100,"L_num":8,"L_den":20,"R_num":1,"R_den":2,"correct_side":2,"subjID":"anasofiaortegonguachaves6","gender":"1","school":"6","age":"12"},{"start_time":1551891149121,"click_time":1551891151429,"finger_time":1551891150850,"fix_duration":250,"trial":11,"RT":1729,"MT":579,"sideResp":2,"stimulus":[],"xmouse":[779,779,779,779,779,779,779,779,779,779,779,779,779,779,779,779,779,779,779,779,779,779,779,779,779,779,779,779,779,779,779,779,779,779,779,779,779,779,779,779,779,779,779,779,779,779,779,779,779,779,779,779,779,779,779,779,779,779,779,779,779,779,779,779,779,779,779,779,779,779,779,779,779,779,779,779,779,779,779,779,779,779,779,779,779,798,869,960,1070,1303,1400,1421,1429,1430,1430,1430,1430,1430,1430,1430,1430,1430,1430,1430,1430,1430,1430,1212,1211,1208,1202,1195,1185,1172,1160,1132],"ymouse":[542,542,542,542,542,542,542,542,542,542,542,542,542,542,542,542,542,542,542,542,542,542,542,542,542,542,542,542,542,542,542,542,542,542,542,542,542,542,542,542,542,542,542,542,542,542,542,542,542,542,542,542,542,542,542,542,542,542,542,542,542,542,542,542,542,542,542,542,542,542,542,542,542,542,542,542,542,542,542,542,542,542,542,542,542,525,473,398,305,115,40,21,10,4,1,1,1,1,1,1,1,1,1,1,1,1,1,0,1,4,11,18,32,46,61,89],"timestamp_mouse":[11,36,47,68,88,108,127,149,169,189,207,229,247,268,288,307,329,349,369,388,409,428,449,469,488,508,527,548,569,588,607,628,648,667,689,708,729,749,768,788,809,829,849,867,889,909,928,949,969,989,1008,1027,1048,1068,1088,1109,1128,1148,1168,1189,1208,1229,1248,1269,1288,1309,1329,1348,1368,1389,1408,1429,1448,1468,1488,1509,1529,1548,1568,1588,1609,1629,1648,1669,1688,1708,1729,1748,1768,1788,1809,1828,1848,1868,1889,1908,1928,1948,1969,1988,2008,2028,2049,2068,2088,2109,2129,2148,2168,2188,2208,2228,2248,2268,2289,2308],"xSR":741.5,"ySR":490.1,"xT1":424.9,"yT1":0,"xT2":1058.1,"yT2":0,"toosoon":0,"cond_shown":"Congruent","ratio_trial":300,"L_num":1,"L_den":20,"R_num":7,"R_den":20,"correct_side":2,"subjID":"anasofiaortegonguachaves6","gender":"1","school":"6","age":"12"},{"start_time":1551891152743,"click_time":1551891154489,"finger_time":1551891154129,"fix_duration":273.32007312514696,"trial":12,"RT":1386,"MT":360,"sideResp":1,"stimulus":[],"xmouse":[772,772,772,772,772,772,772,772,772,772,772,772,772,772,772,772,772,772,772,772,772,772,772,772,772,771,771,771,771,771,771,771,771,771,771,771,771,771,771,771,771,771,771,771,771,771,771,771,771,771,771,771,771,771,771,771,771,771,771,771,771,771,771,771,771,770,768,757,743,701,685,663,642,590,564,549,539,533,531,531,531,531,530,529,525,518,512,503],"ymouse":[528,528,528,528,528,528,528,528,528,528,528,528,528,528,528,528,528,528,528,528,528,528,528,528,528,529,529,529,529,529,529,529,529,529,529,529,529,529,529,529,529,529,529,529,529,529,529,529,529,529,529,529,529,529,529,529,529,529,529,529,529,529,529,529,529,529,529,525,513,473,444,402,354,268,230,208,193,186,183,183,183,183,182,177,164,144,120,98],"timestamp_mouse":[10,34,46,65,86,106,126,146,166,186,207,227,247,266,287,307,326,347,367,386,406,427,447,465,487,506,527,546,566,587,607,626,646,667,687,705,727,746,767,786,806,827,847,866,886,907,927,947,967,987,1006,1026,1047,1066,1086,1105,1126,1147,1167,1186,1205,1226,1246,1267,1286,1306,1326,1346,1366,1386,1406,1426,1446,1467,1486,1506,1526,1546,1567,1586,1607,1626,1646,1667,1686,1706,1726,1745],"xSR":741.5,"ySR":490.1,"xT1":424.9,"yT1":0,"xT2":1058.1,"yT2":0,"toosoon":0,"cond_shown":"Congruent","ratio_trial":100,"L_num":3,"L_den":6,"R_num":2,"R_den":5,"correct_side":1,"subjID":"anasofiaortegonguachaves6","gender":"1","school":"6","age":"12"},{"start_time":1551891155780,"click_time":1551891157249,"finger_time":1551891157148,"fix_duration":250,"trial":13,"RT":1368,"MT":101,"sideResp":1,"stimulus":[],"xmouse":[812,810,810,810,810,810,810,810,810,810,810,810,810,810,810,810,810,810,810,810,810,810,810,810,810,810,810,810,810,810,810,810,810,810,810,810,810,810,810,810,810,810,810,810,810,810,810,810,810,810,810,810,810,810,810,810,810,810,810,810,810,810,810,810,810,810,810,793,762,702,622,542,530,521],"ymouse":[545,547,547,547,547,547,547,547,547,547,547,547,547,547,547,547,547,547,547,547,547,547,547,547,547,547,547,547,547,547,547,547,547,547,547,547,547,547,547,547,547,547,547,547,547,547,547,547,547,547,547,547,547,547,547,547,547,547,547,547,547,547,547,547,547,547,547,527,479,402,305,157,111,80],"timestamp_mouse":[9,39,49,69,89,109,129,150,170,189,209,229,249,269,289,309,329,349,369,389,410,429,449,469,489,510,529,548,570,589,609,629,649,669,690,709,729,750,769,789,810,829,849,869,889,909,928,949,969,990,1009,1029,1049,1070,1089,1109,1129,1149,1170,1189,1210,1229,1249,1269,1290,1308,1328,1350,1368,1390,1409,1429,1449,1469],"xSR":741.5,"ySR":490.1,"xT1":424.9,"yT1":0,"xT2":1058.1,"yT2":0,"toosoon":0,"cond_shown":"Congruent","ratio_trial":200,"L_num":7,"L_den":21,"R_num":2,"R_den":15,"correct_side":1,"subjID":"anasofiaortegonguachaves6","gender":"1","school":"6","age":"12"},{"start_time":1551891159745,"click_time":1551891161110,"finger_time":1551891160569,"fix_duration":1313.2974728668555,"trial":14,"RT":824,"MT":541,"sideResp":1,"stimulus":[],"xmouse":[773,773,773,773,773,773,773,773,773,773,773,773,773,773,773,773,773,773,773,773,773,773,773,773,773,773,773,773,773,773,773,773,773,773,773,773,773,773,773,765,757,729,673,541,499,458,430,410,393,390,389,388,387,382,382,382,382,382,382,382,382,385,390,405,414,419,423,424,426],"ymouse":[547,547,547,547,547,547,547,547,547,547,547,547,547,547,547,547,547,547,547,547,547,547,547,547,547,547,547,547,547,547,547,547,547,547,547,547,547,547,547,538,521,484,402,237,188,148,120,96,70,68,67,65,64,60,60,60,60,60,60,60,60,60,60,60,60,60,60,60,60],"timestamp_mouse":[8,41,44,65,85,105,124,144,165,185,204,224,245,264,283,304,325,344,364,384,405,424,445,464,484,505,524,545,565,584,604,625,645,665,685,705,725,745,764,784,804,824,844,864,884,904,924,944,965,983,1003,1024,1045,1064,1084,1104,1124,1144,1164,1185,1204,1224,1245,1264,1284,1305,1324,1344,1365],"xSR":741.5,"ySR":490.1,"xT1":424.9,"yT1":0,"xT2":1058.1,"yT2":0,"toosoon":0,"cond_shown":"Incongruent","ratio_trial":200,"L_num":6,"L_den":20,"R_num":3,"R_den":6,"correct_side":2,"subjID":"anasofiaortegonguachaves6","gender":"1","school":"6","age":"12"},{"start_time":1551891165961,"click_time":1551891167930,"finger_time":1551891167029,"fix_duration":250,"trial":15,"RT":1068,"MT":901,"sideResp":1,"stimulus":[],"xmouse":[797,797,797,797,797,797,797,797,797,797,797,797,797,797,797,797,797,797,797,797,797,797,797,797,797,797,797,797,797,797,797,797,797,796,797,799,800,802,802,802,802,802,802,802,802,802,802,802,802,802,802,801,796,773,762,748,733,710,706,706,706,706,706,706,706,706,706,706,706,706,706,706,706,706,706,706,706,705,700,690,673,646,573,548,533,525,520,513,507,505,504,499,496,495,494,493,491,487,483],"ymouse":[528,528,528,528,528,528,528,528,528,528,528,528,528,528,528,528,528,528,528,528,528,528,528,528,528,528,528,528,528,528,528,528,528,526,524,522,521,518,518,518,518,518,518,518,518,518,518,518,518,518,518,515,508,466,445,424,404,382,378,378,378,378,378,378,378,378,378,378,378,378,378,378,378,378,378,378,378,377,371,360,344,319,247,224,209,201,192,170,149,139,133,126,122,121,119,116,112,100,94],"timestamp_mouse":[8,30,49,68,88,108,128,147,168,188,208,227,248,269,288,308,328,347,369,389,407,429,448,468,488,508,528,548,568,588,608,628,649,667,688,707,729,748,767,788,808,828,849,869,889,908,928,948,968,988,1009,1028,1048,1068,1089,1108,1129,1149,1168,1188,1209,1227,1249,1269,1288,1308,1328,1348,1369,1388,1409,1428,1449,1468,1488,1507,1528,1548,1568,1587,1609,1629,1648,1668,1688,1708,1728,1749,1769,1787,1809,1828,1848,1868,1888,1909,1928,1948,1969],"xSR":741.5,"ySR":490.1,"xT1":424.9,"yT1":0,"xT2":1058.1,"yT2":0,"toosoon":0,"cond_shown":"Incongruent","ratio_trial":200,"L_num":3,"L_den":10,"R_num":1,"R_den":2,"correct_side":2,"subjID":"anasofiaortegonguachaves6","gender":"1","school":"6","age":"12"},{"start_time":1551891171140,"click_time":1551891172370,"finger_time":1551891171809,"fix_duration":888.887047473024,"trial":16,"RT":669,"MT":561,"sideResp":2,"stimulus":[],"xmouse":[776,776,776,776,776,776,776,776,776,777,777,778,778,778,778,778,778,778,778,778,778,778,778,778,778,778,778,778,778,778,780,782,785,791,795,801,817,837,891,916,939,951,964,997,1018,1036,1048,1059,1075,1079,1080,1080,1080,1079,1079,1078,1077,1075,1072,1072,1072,1072],"ymouse":[506,506,506,506,506,506,506,507,509,511,512,513,513,514,514,514,515,515,515,515,515,515,515,515,515,515,515,515,515,514,508,501,492,479,469,455,433,415,377,359,337,322,306,270,251,235,220,204,163,149,139,133,131,126,126,124,123,120,113,107,103,99],"timestamp_mouse":[9,38,49,69,89,110,129,149,169,189,209,228,249,270,289,310,329,349,370,389,410,429,449,469,489,509,530,550,570,590,609,630,649,669,689,709,729,749,770,789,809,829,850,870,889,910,929,950,970,989,1009,1030,1050,1069,1089,1109,1128,1149,1169,1190,1209,1230],"xSR":741.5,"ySR":490.1,"xT1":424.9,"yT1":0,"xT2":1058.1,"yT2":0,"toosoon":0,"cond_shown":"Congruent","ratio_trial":300,"L_num":3,"L_den":12,"R_num":11,"R_den":20,"correct_side":2,"subjID":"anasofiaortegonguachaves6","gender":"1","school":"6","age":"12"},{"start_time":1551891173821,"click_time":1551891175309,"finger_time":1551891174729,"fix_duration":250.05779914700267,"trial":17,"RT":908,"MT":580,"sideResp":2,"stimulus":[],"xmouse":[767,767,767,767,767,767,767,767,767,767,767,767,767,767,767,767,767,767,767,767,767,767,767,767,767,767,767,767,767,767,767,767,767,767,767,768,768,768,768,770,771,772,774,776,793,814,829,839,848,867,891,914,935,951,964,977,979,981,983,987,990,996,1005,1018,1054,1062,1064,1066,1067,1068,1068,1068,1070,1070,1073],"ymouse":[559,559,559,559,559,559,559,559,559,559,559,559,559,559,559,559,559,559,559,559,559,559,559,559,559,559,559,559,559,559,559,559,559,557,556,553,552,551,550,546,545,542,538,535,513,485,461,440,418,376,341,314,290,268,245,214,207,203,199,196,192,187,180,168,138,129,124,120,117,115,114,111,107,101,90],"timestamp_mouse":[10,36,48,67,89,109,127,149,168,188,208,228,249,269,289,309,327,349,368,389,409,429,449,469,489,507,528,549,567,587,609,628,648,668,687,708,728,747,769,788,808,829,848,868,888,908,927,949,968,988,1008,1028,1048,1067,1089,1108,1128,1148,1168,1188,1207,1228,1248,1269,1288,1307,1328,1348,1369,1388,1408,1428,1449,1469,1488],"xSR":741.5,"ySR":490.1,"xT1":424.9,"yT1":0,"xT2":1058.1,"yT2":0,"toosoon":0,"cond_shown":"Incongruent","ratio_trial":300,"L_num":13,"L_den":26,"R_num":12,"R_den":15,"correct_side":2,"subjID":"anasofiaortegonguachaves6","gender":"1","school":"6","age":"12"},{"start_time":1551891177692,"click_time":1551891178689,"finger_time":1551891178089,"fix_duration":1200.7292112989567,"trial":18,"RT":397,"MT":600,"sideResp":1,"stimulus":[],"xmouse":[788,788,788,788,788,788,788,788,788,788,787,787,785,783,783,780,775,771,766,754,712,692,673,660,652,643,631,625,613,604,592,582,573,560,541,455,430,423,420,417,415,415,415,415,415,421,423,423,423,425],"ymouse":[524,524,524,524,524,524,524,524,524,524,524,524,522,522,521,517,511,505,495,479,431,416,400,387,371,353,320,305,289,278,263,252,245,236,222,151,130,121,115,110,105,105,103,100,94,74,67,63,61,59],"timestamp_mouse":[22,40,57,77,96,118,138,158,176,196,218,237,257,277,297,317,336,358,377,397,418,437,457,477,497,517,537,557,577,597,617,636,657,678,698,717,737,757,777,797,817,837,857,877,897,917,937,957,978,997],"xSR":741.5,"ySR":490.1,"xT1":424.9,"yT1":0,"xT2":1058.1,"yT2":0,"toosoon":0,"cond_shown":"Congruent","ratio_trial":100,"L_num":2,"L_den":5,"R_num":11,"R_den":22,"correct_side":2,"subjID":"anasofiaortegonguachaves6","gender":"1","school":"6","age":"12"},{"start_time":1551891180107,"click_time":1551891181328,"finger_time":1551891180509,"fix_duration":637.5018133904975,"trial":19,"RT":402,"MT":819,"sideResp":2,"stimulus":[],"xmouse":[785,785,785,785,785,785,785,785,785,785,782,782,782,782,782,782,780,780,780,780,780,779,779,788,806,835,851,865,877,892,909,909,909,909,907,903,903,901,899,897,897,897,897,897,898,926,948,974,1002,1025,1042,1043,1044,1046,1048,1050,1054,1055,1056,1057,1058,1060],"ymouse":[544,544,544,544,544,544,544,544,544,544,543,543,543,543,543,541,537,531,519,500,468,430,389,349,310,249,218,186,156,124,71,64,61,59,57,52,52,50,48,47,47,47,47,47,47,58,63,65,65,65,59,58,55,52,48,46,39,38,37,37,35,34],"timestamp_mouse":[9,32,41,62,82,103,121,142,162,181,202,222,241,262,283,302,322,342,362,383,401,423,441,462,482,502,521,542,562,581,602,621,642,663,682,702,721,742,763,783,803,822,841,862,881,902,922,943,963,981,1003,1023,1042,1061,1082,1101,1121,1141,1161,1181,1201,1221],"xSR":741.5,"ySR":490.1,"xT1":424.9,"yT1":0,"xT2":1058.1,"yT2":0,"toosoon":0,"cond_shown":"Congruent","ratio_trial":200,"L_num":7,"L_den":21,"R_num":2,"R_den":15,"correct_side":1,"subjID":"anasofiaortegonguachaves6","gender":"1","school":"6","age":"12"},{"start_time":1551891182621,"click_time":1551891183389,"finger_time":1551891183049,"fix_duration":250,"trial":20,"RT":428,"MT":340,"sideResp":1,"stimulus":[],"xmouse":[791,791,791,791,791,791,791,791,791,791,791,791,791,791,791,791,790,789,785,758,744,730,718,703,646,625,612,604,597,586,577,566,554,544,535,531,529,527,522],"ymouse":[533,533,533,533,533,533,533,533,533,533,533,533,533,533,533,533,533,533,532,514,502,486,472,451,344,310,282,263,239,193,169,146,127,112,90,79,72,65,59],"timestamp_mouse":[10,38,49,67,89,107,129,149,167,188,209,228,248,269,289,309,328,348,367,388,408,428,448,468,489,507,528,547,568,588,608,628,647,668,688,708,727,749,768],"xSR":741.5,"ySR":490.1,"xT1":424.9,"yT1":0,"xT2":1058.1,"yT2":0,"toosoon":0,"cond_shown":"Incongruent","ratio_trial":100,"L_num":9,"L_den":10,"R_num":20,"R_den":25,"correct_side":1,"subjID":"anasofiaortegonguachaves6","gender":"1","school":"6","age":"12"},{"start_time":1551891186844,"click_time":1551891193969,"finger_time":1551891193268,"fix_duration":773.4465777835871,"trial":21,"RT":6424,"MT":701,"sideResp":2,"stimulus":[],"xmouse":[809,809,809,809,809,809,809,809,809,809,809,809,809,809,809,809,809,809,809,809,809,809,809,809,809,809,809,809,809,809,809,809,809,809,809,809,809,809,809,809,809,809,809,809,809,809,809,809,809,809,809,809,809,809,809,809,809,809,809,809,809,809,809,809,809,809,809,809,809,809,809,809,809,809,809,809,809,809,809,809,809,809,809,809,809,809,809,809,809,809,809,807,807,801,800,800,800,800,800,800,800,800,800,800,800,800,800,800,800,800,800,800,800,800,800,800,800,800,800,800,800,800,800,800,800,800,800,800,800,800,800,800,800,800,800,800,800,800,800,800,800,800,800,800,800,800,800,800,800,800,800,800,800,800,800,800,800,800,800,800,800,800,800,800,800,800,800,800,800,800,800,800,800,800,800,800,800,800,800,800,800,800,800,800,800,800,800,800,800,800,800,800,800,800,800,800,800,800,800,800,800,800,800,800,800,800,800,800,800,800,800,800,800,800,800,800,800,800,800,800,800,800,800,800,800,800,800,800,800,800,800,800,800,800,800,800,800,800,800,800,800,800,800,800,800,800,800,800,800,800,800,800,800,800,800,800,800,800,800,800,800,800,800,800,800,800,800,800,800,800,800,800,800,800,800,800,800,800,800,800,800,800,800,800,800,800,800,800,800,800,800,800,800,800,800,800,800,800,800,800,800,800,800,800,800,800,800,800,800,800,800,800,800,800,800,800,800,800,805,819,832,853,874,938,996,1035,1067,1096,1140,1160,1179,1196,1216,1300,1358,1385,1404,1410,1410,1410,1406,1388,1361,1298,1257,1238,1220,1209,1199,1198,1198,1196,1195,1183,1170,1165,1157],"ymouse":[540,540,540,540,540,540,540,540,540,540,540,540,540,540,540,540,540,540,540,540,540,540,540,540,540,540,540,540,540,540,540,540,540,540,540,540,540,540,540,540,540,540,540,540,540,540,540,540,540,540,540,540,540,540,540,540,540,540,540,540,540,540,540,540,540,540,540,540,540,540,540,540,540,540,540,540,540,540,540,540,540,540,540,540,540,540,540,540,540,540,540,539,539,539,539,539,539,539,539,539,539,539,539,539,539,539,539,539,539,539,539,539,539,539,539,539,539,539,539,539,539,539,539,539,539,539,539,539,539,539,539,539,539,539,539,539,539,539,539,539,539,539,539,539,539,539,539,539,539,539,539,539,539,539,539,539,539,539,539,539,539,539,539,539,539,539,539,539,539,539,539,539,539,539,539,539,539,539,539,539,539,539,539,539,539,539,539,539,539,539,539,539,539,539,539,539,539,539,539,539,539,539,539,539,539,539,539,539,539,539,539,539,539,539,539,539,539,539,539,539,539,539,539,539,539,539,539,539,539,539,539,539,539,539,539,539,539,539,539,539,539,539,539,539,539,539,539,539,539,539,539,539,539,539,539,539,539,539,539,539,539,539,539,539,539,539,539,539,539,539,539,539,539,539,539,539,539,539,539,539,539,539,539,539,539,539,539,539,539,539,539,539,539,539,539,539,539,539,539,539,539,539,539,539,539,539,539,539,539,539,539,539,539,539,539,539,539,539,537,530,522,511,500,452,400,362,323,284,240,227,217,206,193,144,110,93,79,74,74,74,74,74,68,52,40,34,29,26,24,23,23,23,23,23,24,27,34],"timestamp_mouse":[11,33,46,65,86,105,125,144,165,196,205,225,245,266,285,305,324,346,364,384,405,424,445,466,485,504,524,545,565,585,606,625,644,665,686,706,725,745,764,786,806,825,844,865,884,904,925,945,965,984,1004,1024,1044,1065,1085,1106,1125,1145,1165,1186,1205,1225,1245,1264,1284,1306,1324,1346,1365,1385,1405,1426,1444,1464,1485,1505,1525,1545,1565,1585,1606,1625,1645,1664,1685,1706,1725,1746,1766,1784,1806,1825,1845,1865,1885,1905,1925,1946,1965,1984,2006,2025,2044,2065,2085,2105,2126,2144,2164,2185,2204,2225,2245,2266,2284,2306,2325,2345,2365,2386,2406,2424,2445,2465,2484,2506,2524,2544,2565,2586,2605,2626,2645,2664,2685,2706,2725,2746,2765,2785,2805,2825,2845,2866,2884,2905,2925,2946,2964,2985,3005,3025,3045,3066,3085,3106,3125,3145,3166,3185,3204,3224,3246,3266,3284,3306,3326,3345,3365,3384,3404,3425,3446,3466,3485,3506,3524,3546,3565,3585,3606,3625,3645,3665,3686,3706,3724,3745,3765,3786,3805,3826,3845,3865,3884,3905,3926,3945,3966,3986,4004,4026,4045,4066,4084,4106,4125,4144,4165,4186,4205,4225,4246,4264,4286,4306,4325,4346,4366,4384,4406,4425,4446,4465,4486,4504,4525,4545,4564,4586,4605,4624,4646,4669,4685,4706,4724,4746,4764,4784,4805,4824,4845,4864,4886,4906,4926,4946,4964,4984,5005,5025,5046,5066,5085,5106,5126,5145,5165,5186,5204,5225,5246,5265,5285,5305,5325,5345,5365,5385,5404,5425,5446,5466,5485,5506,5525,5545,5565,5585,5605,5624,5646,5664,5684,5706,5724,5745,5765,5785,5805,5825,5844,5865,5886,5905,5926,5945,5964,5986,6005,6025,6045,6065,6086,6105,6126,6145,6164,6186,6205,6225,6246,6265,6285,6305,6326,6345,6365,6385,6405,6424,6444,6465,6486,6504,6525,6544,6566,6585,6606,6625,6644,6664,6684,6705,6724,6745,6765,6784,6804,6824,6845,6866,6885,6905,6926,6945,6965,6985,7005,7025,7046,7065,7084,7104,7125],"xSR":741.5,"ySR":490.1,"xT1":424.9,"yT1":0,"xT2":1058.1,"yT2":0,"toosoon":0,"cond_shown":"Incongruent","ratio_trial":200,"L_num":7,"L_den":10,"R_num":12,"R_den":24,"correct_side":1,"subjID":"anasofiaortegonguachaves6","gender":"1","school":"6","age":"12"},{"start_time":1551891201243,"click_time":1551891201949,"finger_time":1551891201649,"fix_duration":432.8422445696547,"trial":22,"RT":406,"MT":300,"sideResp":1,"stimulus":[],"xmouse":[797,797,797,797,797,797,797,797,797,797,797,797,797,797,797,797,794,788,776,767,756,743,729,704,612,589,570,557,545,529,522,518,514,506,496,489],"ymouse":[544,544,544,544,544,544,544,544,544,544,544,544,544,543,542,539,535,530,514,505,487,468,446,409,292,258,235,216,198,169,156,148,140,123,103,90],"timestamp_mouse":[11,41,45,66,87,105,127,146,166,186,207,227,247,266,286,306,326,345,365,385,406,426,445,467,486,505,526,545,565,585,607,627,646,666,686,706],"xSR":741.5,"ySR":490.1,"xT1":424.9,"yT1":0,"xT2":1058.1,"yT2":0,"toosoon":0,"cond_shown":"Congruent","ratio_trial":100,"L_num":9,"L_den":15,"R_num":8,"R_den":16,"correct_side":1,"subjID":"anasofiaortegonguachaves6","gender":"1","school":"6","age":"12"},{"start_time":1551891203185,"click_time":1551891204529,"finger_time":1551891203928,"fix_duration":474.73525689211715,"trial":23,"RT":743,"MT":601,"sideResp":1,"stimulus":[],"xmouse":[805,805,805,805,805,805,805,805,805,805,805,805,805,805,805,805,805,805,805,805,805,805,805,805,805,805,805,805,805,803,803,801,800,796,792,788,773,751,734,715,699,676,669,661,655,649,641,639,638,636,635,631,630,625,619,611,597,590,587,582,575,548,525,503,488,480,476,472],"ymouse":[576,576,576,576,576,576,576,576,576,576,576,576,576,576,576,576,576,576,576,576,576,576,576,576,576,576,576,576,575,573,572,570,568,559,550,540,506,469,437,405,372,322,303,282,272,264,251,248,245,243,241,236,234,231,228,224,213,207,205,200,192,173,160,142,131,119,102,85],"timestamp_mouse":[4,25,44,63,85,103,124,144,164,184,205,223,244,265,285,304,324,345,365,384,404,424,445,465,484,504,523,545,564,585,603,624,644,665,684,704,723,743,764,783,803,824,843,864,883,903,923,945,963,985,1003,1024,1043,1065,1085,1103,1124,1143,1163,1185,1204,1223,1243,1264,1284,1304,1323,1343],"xSR":741.5,"ySR":490.1,"xT1":424.9,"yT1":0,"xT2":1058.1,"yT2":0,"toosoon":0,"cond_shown":"Incongruent","ratio_trial":200,"L_num":1,"L_den":3,"R_num":2,"R_den":15,"correct_side":1,"subjID":"anasofiaortegonguachaves6","gender":"1","school":"6","age":"12"},{"start_time":1551891206322,"click_time":1551891207449,"finger_time":1551891207008,"fix_duration":1071.844282246655,"trial":24,"RT":686,"MT":441,"sideResp":1,"stimulus":[],"xmouse":[806,806,806,806,806,806,806,806,806,806,806,806,806,806,806,806,806,806,806,806,806,806,806,806,806,806,806,806,806,804,802,799,794,776,697,650,606,566,529,457,412,389,377,371,366,365,365,365,365,365,365,365,365,366,398,415,427],"ymouse":[555,555,555,555,555,555,555,555,555,555,555,555,555,555,555,555,555,555,555,555,555,555,555,555,555,555,555,555,555,552,548,544,535,512,409,355,297,249,204,127,92,77,67,61,55,54,54,53,53,52,52,52,51,49,44,42,40],"timestamp_mouse":[7,37,47,67,87,107,127,147,168,187,206,226,248,268,287,306,328,348,366,387,408,426,448,467,486,508,526,548,568,587,608,627,646,667,686,706,726,748,768,787,806,827,847,866,888,907,927,947,967,988,1006,1027,1047,1068,1087,1107,1126],"xSR":741.5,"ySR":490.1,"xT1":424.9,"yT1":0,"xT2":1058.1,"yT2":0,"toosoon":0,"cond_shown":"Incongruent","ratio_trial":200,"L_num":3,"L_den":10,"R_num":1,"R_den":2,"correct_side":2,"subjID":"anasofiaortegonguachaves6","gender":"1","school":"6","age":"12"},{"start_time":1551891208880,"click_time":1551891210189,"finger_time":1551891210008,"fix_duration":250,"trial":25,"RT":1128,"MT":181,"sideResp":1,"stimulus":[],"xmouse":[783,783,783,783,783,783,783,783,783,783,783,783,783,783,783,783,783,783,783,783,783,783,783,783,783,783,783,783,783,783,783,783,783,783,783,783,783,783,783,783,783,783,783,783,783,783,783,783,783,783,782,781,777,771,763,756,745,707,670,630,589,532,509,497,488,478],"ymouse":[569,569,569,569,569,569,569,569,569,569,569,569,569,569,569,569,569,569,569,569,569,569,569,569,569,569,569,569,569,569,569,569,569,569,569,569,569,569,569,569,569,569,569,569,569,569,569,568,566,566,565,562,551,538,520,503,479,414,362,295,240,169,137,117,101,82],"timestamp_mouse":[9,37,50,68,89,110,129,149,168,189,208,229,248,270,288,309,329,348,370,389,410,429,449,468,489,509,529,549,570,588,608,628,650,669,688,710,729,749,769,788,809,828,848,870,888,910,930,949,970,989,1011,1029,1049,1068,1090,1109,1128,1148,1168,1188,1209,1230,1250,1268,1288,1309],"xSR":741.5,"ySR":490.1,"xT1":424.9,"yT1":0,"xT2":1058.1,"yT2":0,"toosoon":0,"cond_shown":"Congruent","ratio_trial":200,"L_num":7,"L_den":15,"R_num":18,"R_den":27,"correct_side":2,"subjID":"anasofiaortegonguachaves6","gender":"1","school":"6","age":"12"},{"start_time":1551891212319,"click_time":1551891213609,"finger_time":1551891212968,"fix_duration":1129.0225024479446,"trial":26,"RT":649,"MT":641,"sideResp":2,"stimulus":[],"xmouse":[787,787,787,787,787,787,787,787,787,787,787,787,787,787,787,787,787,787,787,787,787,787,787,787,787,787,787,787,787,787,789,792,796,801,809,811,812,813,814,821,837,852,864,878,888,901,913,925,943,963,1007,1016,1020,1021,1021,1021,1023,1028,1032,1037,1041,1044,1049,1052,1059],"ymouse":[529,529,529,529,529,529,529,529,529,529,529,529,529,529,529,529,529,529,529,529,529,529,529,529,529,529,529,529,529,529,521,507,488,467,432,422,417,414,410,397,363,332,306,273,253,228,212,196,176,157,122,116,113,112,112,112,110,106,103,97,93,90,84,82,73],"timestamp_mouse":[10,39,50,71,90,109,130,150,170,190,210,230,250,271,290,309,330,349,369,389,410,430,451,471,490,510,531,550,570,590,610,629,649,669,690,709,729,750,770,790,809,830,849,869,889,909,930,951,971,990,1009,1029,1050,1069,1090,1109,1130,1151,1170,1190,1210,1230,1249,1270,1289],"xSR":741.5,"ySR":490.1,"xT1":424.9,"yT1":0,"xT2":1058.1,"yT2":0,"toosoon":0,"cond_shown":"Congruent","ratio_trial":200,"L_num":12,"L_den":15,"R_num":6,"R_den":10,"correct_side":1,"subjID":"anasofiaortegonguachaves6","gender":"1","school":"6","age":"12"},{"start_time":1551891215867,"click_time":1551891216809,"finger_time":1551891216369,"fix_duration":1137.3401299186664,"trial":27,"RT":502,"MT":440,"sideResp":1,"stimulus":[],"xmouse":[787,787,787,787,787,787,787,787,787,787,787,787,787,787,787,787,787,787,787,787,787,787,786,774,757,738,717,614,507,418,366,350,348,371,388,397,400,401,403,406,410,415,421,432,434,438,440,443],"ymouse":[554,554,554,554,554,554,554,554,554,554,554,554,554,554,554,554,554,554,554,554,554,554,554,543,524,507,490,446,399,363,338,327,297,258,230,209,201,197,188,181,171,158,145,120,116,107,101,92],"timestamp_mouse":[8,22,42,62,82,101,121,143,161,181,203,221,243,263,282,302,321,342,361,383,402,421,442,462,482,502,521,543,561,581,603,622,642,661,682,702,721,741,761,782,802,822,841,862,882,901,921,942],"xSR":741.5,"ySR":490.1,"xT1":424.9,"yT1":0,"xT2":1058.1,"yT2":0,"toosoon":0,"cond_shown":"Congruent","ratio_trial":200,"L_num":12,"L_den":15,"R_num":6,"R_den":10,"correct_side":1,"subjID":"anasofiaortegonguachaves6","gender":"1","school":"6","age":"12"},{"start_time":1551891219281,"click_time":1551891221409,"finger_time":1551891220868,"fix_duration":1330.4464605004496,"trial":28,"RT":1587,"MT":541,"sideResp":2,"stimulus":[],"xmouse":[781,781,781,781,781,781,781,781,781,781,781,781,781,781,781,781,781,781,781,781,781,781,781,781,781,781,781,781,781,781,781,781,781,781,781,781,781,781,781,781,781,781,781,781,781,781,781,781,781,781,781,781,781,781,781,781,781,781,781,781,781,781,781,781,781,781,781,781,781,781,781,781,781,781,782,782,782,782,782,782,780,775,774,773,773,773,773,773,773,775,782,798,807,815,822,837,858,942,989,1008,1016,1026,1036,1043,1050,1054,1063],"ymouse":[532,532,532,532,532,532,532,532,532,532,532,532,532,532,532,532,532,532,532,532,532,532,532,532,532,532,532,532,532,532,532,532,532,532,532,532,532,532,532,532,532,532,532,532,532,532,532,532,532,532,532,532,532,532,532,532,532,532,532,532,532,532,532,532,532,532,532,532,532,532,532,532,532,532,532,530,523,512,496,478,461,440,433,432,432,432,432,432,432,430,420,398,376,359,341,315,286,198,160,144,135,119,110,104,98,89,75],"timestamp_mouse":[10,42,48,69,87,109,128,148,169,187,208,229,247,268,288,308,328,348,369,388,407,428,447,468,487,508,527,548,567,589,607,628,649,667,688,708,727,748,769,788,807,827,847,867,889,908,928,949,969,988,1008,1028,1047,1069,1089,1107,1128,1149,1169,1187,1209,1227,1249,1267,1288,1307,1327,1348,1367,1387,1409,1429,1448,1467,1488,1508,1528,1548,1569,1587,1608,1628,1648,1668,1687,1707,1728,1748,1768,1787,1809,1828,1849,1867,1888,1908,1927,1947,1967,1988,2009,2028,2047,2067,2088,2108,2128],"xSR":741.5,"ySR":490.1,"xT1":424.9,"yT1":0,"xT2":1058.1,"yT2":0,"toosoon":0,"cond_shown":"Incongruent","ratio_trial":200,"L_num":3,"L_den":4,"R_num":11,"R_den":20,"correct_side":1,"subjID":"anasofiaortegonguachaves6","gender":"1","school":"6","age":"12"},{"start_time":1551891222599,"click_time":1551891225088,"finger_time":1551891224488,"fix_duration":250,"trial":29,"RT":1889,"MT":600,"sideResp":2,"stimulus":[],"xmouse":[779,779,779,779,779,777,775,775,775,775,775,775,775,775,775,775,775,775,775,775,775,775,775,775,775,775,775,775,775,775,775,775,775,775,775,775,775,773,773,772,772,772,772,772,772,772,772,772,772,772,772,772,772,772,772,772,772,772,772,772,772,772,772,772,772,772,772,772,772,772,772,772,772,772,772,772,772,772,772,772,772,772,772,772,772,772,772,772,772,772,772,772,785,798,826,868,936,1022,1120,1212,1212,1212,1212,1212,1212,1212,1212,1212,1212,1212,1212,1212,1212,1212,1241,1220,1217,1217,1217,1216,1214,1195,1179,1162,1146],"ymouse":[543,543,543,543,543,543,541,541,541,541,541,541,540,539,537,535,533,532,532,532,532,532,532,532,532,532,532,532,532,532,532,532,532,532,532,532,532,531,531,530,530,530,530,530,530,530,530,530,530,530,530,530,530,530,530,530,530,530,530,530,530,530,530,530,530,530,530,530,530,530,530,530,530,530,530,530,530,530,530,530,530,530,530,530,530,530,530,530,530,530,530,530,519,509,489,439,329,217,104,18,18,18,18,18,18,18,18,18,18,18,18,18,18,18,7,19,21,21,21,21,23,36,46,56,63],"timestamp_mouse":[16,31,51,71,90,110,131,150,170,191,210,229,250,270,290,310,331,350,370,389,410,430,449,470,489,510,530,550,570,590,610,630,650,670,690,709,729,749,771,791,811,830,851,871,890,909,929,950,969,990,1009,1030,1050,1071,1090,1109,1129,1150,1170,1190,1209,1231,1251,1270,1289,1309,1331,1350,1370,1390,1409,1430,1449,1470,1491,1509,1530,1550,1570,1589,1609,1630,1650,1670,1691,1711,1729,1750,1769,1790,1811,1830,1851,1869,1889,1910,1929,1949,1970,1989,2009,2029,2051,2070,2090,2110,2130,2150,2171,2191,2210,2230,2251,2270,2290,2310,2330,2349,2369,2389,2410,2430,2450,2469,2489],"xSR":741.5,"ySR":490.1,"xT1":424.9,"yT1":0,"xT2":1058.1,"yT2":0,"toosoon":0,"cond_shown":"Congruent","ratio_trial":200,"L_num":7,"L_den":21,"R_num":2,"R_den":15,"correct_side":1,"subjID":"anasofiaortegonguachaves6","gender":"1","school":"6","age":"12"},{"start_time":1551891227200,"click_time":1551891228868,"finger_time":1551891228768,"fix_duration":1010.2642637768533,"trial":30,"RT":1568,"MT":100,"sideResp":1,"stimulus":[],"xmouse":[798,798,798,798,798,798,798,798,798,798,798,798,798,798,798,798,798,798,798,798,798,798,798,798,798,798,798,798,798,798,798,798,798,798,798,798,798,798,798,798,798,798,798,798,798,798,798,798,798,798,798,798,798,798,798,798,798,798,798,798,798,798,798,798,798,798,798,798,798,798,798,798,798,798,798,798,797,792,775,737,688,569,523,483],"ymouse":[526,526,526,526,526,526,526,526,526,526,526,526,526,526,526,526,526,526,526,526,526,526,526,526,526,526,526,526,526,526,526,526,526,526,526,526,526,526,526,526,526,526,526,526,526,526,526,526,526,525,525,525,525,524,524,524,524,524,524,524,524,524,524,524,524,524,524,524,524,524,524,524,524,524,523,521,511,492,457,402,336,177,105,50],"timestamp_mouse":[13,34,49,69,88,110,130,150,168,190,209,228,250,269,290,309,330,350,370,389,409,430,450,469,489,509,529,550,570,589,609,629,649,669,688,710,729,749,768,788,808,830,850,869,889,909,929,949,970,989,1009,1030,1049,1070,1088,1108,1129,1150,1169,1188,1208,1229,1249,1270,1289,1308,1328,1348,1370,1389,1409,1429,1449,1469,1490,1508,1530,1549,1568,1589,1608,1629,1648,1668],"xSR":741.5,"ySR":490.1,"xT1":424.9,"yT1":0,"xT2":1058.1,"yT2":0,"toosoon":0,"cond_shown":"Congruent","ratio_trial":100,"L_num":1,"L_den":2,"R_num":3,"R_den":5,"correct_side":2,"subjID":"anasofiaortegonguachaves6","gender":"1","school":"6","age":"12"},{"start_time":1551891231699,"click_time":1551891233812,"finger_time":1551891233629,"fix_duration":1488.7036732907266,"trial":31,"RT":1930,"MT":183,"sideResp":1,"stimulus":[],"xmouse":[776,776,776,776,776,776,776,776,776,776,776,776,776,776,776,776,776,776,776,776,776,776,776,776,776,776,776,776,776,776,776,776,776,776,776,776,776,776,776,776,776,776,776,776,776,776,776,776,776,776,776,776,776,776,776,776,776,776,776,776,776,776,776,776,776,776,776,776,776,776,776,776,776,776,776,776,776,776,776,776,776,776,776,776,776,776,776,776,776,776,776,776,776,776,777,777,777,761,732,696,620,563,535,520,515,508],"ymouse":[566,566,566,566,566,566,566,566,566,566,566,566,566,566,566,566,566,566,566,566,566,566,566,566,566,566,566,566,566,566,566,566,566,566,566,566,566,566,566,566,566,566,566,566,566,566,566,566,566,566,566,566,566,566,566,566,566,566,566,566,566,566,566,566,566,566,566,566,566,566,566,566,566,566,566,566,566,566,566,566,566,566,566,566,566,566,566,566,566,566,566,566,566,566,564,525,489,427,355,286,191,142,123,112,107,98],"timestamp_mouse":[14,31,51,70,90,111,131,149,169,189,211,229,250,270,290,310,330,350,371,391,410,430,451,469,489,510,530,550,569,589,609,629,649,669,689,710,730,749,769,791,810,831,850,871,891,910,931,950,971,990,1010,1031,1049,1069,1089,1109,1130,1150,1169,1191,1210,1229,1250,1269,1289,1309,1329,1350,1370,1391,1409,1429,1449,1470,1490,1511,1530,1551,1569,1589,1611,1629,1649,1669,1691,1710,1731,1750,1769,1791,1810,1829,1849,1870,1890,1910,1930,1949,1969,1989,2010,2029,2050,2070,2090,2113],"xSR":741.5,"ySR":490.1,"xT1":424.9,"yT1":0,"xT2":1058.1,"yT2":0,"toosoon":0,"cond_shown":"Incongruent","ratio_trial":300,"L_num":4,"L_den":20,"R_num":2,"R_den":4,"correct_side":2,"subjID":"anasofiaortegonguachaves6","gender":"1","school":"6","age":"12"},{"start_time":1551891236700,"click_time":1551891238649,"finger_time":1551891238389,"fix_duration":250,"trial":32,"RT":1689,"MT":260,"sideResp":1,"stimulus":[],"xmouse":[798,798,798,798,798,798,798,798,798,798,798,798,798,798,798,798,798,798,798,798,798,798,798,798,798,798,798,798,798,798,798,798,798,798,798,798,798,798,798,798,798,798,798,798,798,798,798,798,798,798,798,798,798,798,798,798,798,798,798,798,798,798,798,798,798,798,798,798,798,798,798,798,798,798,798,798,798,798,798,798,798,795,789,778,760,727,636,592,546,510,476,470,467,465,464,464,464,464],"ymouse":[539,539,539,539,539,539,539,539,539,539,539,539,539,539,539,539,539,539,539,539,539,539,539,539,539,539,539,539,539,539,539,539,539,539,539,539,539,539,539,539,539,539,539,539,539,539,539,539,539,539,539,539,539,539,539,539,539,539,539,539,539,539,539,539,539,539,539,539,539,539,539,539,539,539,539,539,539,539,539,539,539,530,517,497,465,416,286,235,193,161,128,123,119,114,110,103,101,99],"timestamp_mouse":[9,40,49,69,90,108,129,148,170,189,208,229,248,270,288,310,330,349,369,388,410,428,449,469,489,510,530,549,569,588,609,629,648,670,688,709,730,749,768,789,808,829,849,869,888,909,930,948,970,989,1009,1029,1048,1070,1088,1108,1130,1149,1169,1189,1209,1229,1248,1270,1288,1308,1330,1349,1369,1388,1410,1429,1448,1469,1490,1508,1529,1550,1570,1589,1608,1630,1648,1669,1689,1708,1729,1749,1769,1788,1809,1828,1848,1869,1889,1909,1929,1948],"xSR":741.5,"ySR":490.1,"xT1":424.9,"yT1":0,"xT2":1058.1,"yT2":0,"toosoon":0,"cond_shown":"Congruent","ratio_trial":200,"L_num":12,"L_den":20,"R_num":6,"R_den":15,"correct_side":1,"subjID":"anasofiaortegonguachaves6","gender":"1","school":"6","age":"12"},{"start_time":1551891239841,"click_time":1551891240829,"finger_time":1551891240670,"fix_duration":250,"trial":33,"RT":829,"MT":159,"sideResp":1,"stimulus":[],"xmouse":[757,757,757,757,757,757,757,757,757,757,757,757,757,757,757,757,757,757,757,757,757,757,757,757,757,757,757,757,757,757,757,757,757,757,757,757,757,757,757,754,746,737,724,703,658,629,594,561,509,494],"ymouse":[558,558,558,558,558,558,558,558,558,558,558,558,558,558,558,558,558,558,558,558,558,558,558,558,558,558,558,558,558,558,558,558,558,558,558,558,558,557,551,543,530,514,494,448,354,297,238,184,112,96],"timestamp_mouse":[10,35,47,68,89,107,128,147,168,189,208,228,247,268,288,310,329,349,368,389,409,428,449,468,489,508,528,549,568,588,609,629,649,669,689,708,728,748,769,788,808,829,848,868,889,908,928,949,968,988],"xSR":741.5,"ySR":490.1,"xT1":424.9,"yT1":0,"xT2":1058.1,"yT2":0,"toosoon":0,"cond_shown":"Congruent","ratio_trial":300,"L_num":20,"L_den":25,"R_num":8,"R_den":16,"correct_side":1,"subjID":"anasofiaortegonguachaves6","gender":"1","school":"6","age":"12"},{"start_time":1551891243673,"click_time":1551891245310,"finger_time":1551891245189,"fix_duration":1360.4240771347606,"trial":34,"RT":1516,"MT":121,"sideResp":1,"stimulus":[],"xmouse":[773,773,773,773,773,773,773,773,773,773,773,773,773,773,773,773,773,773,773,773,773,773,773,773,773,773,773,773,773,774,774,774,775,775,775,775,775,775,775,775,775,775,775,775,775,775,775,775,775,775,775,775,775,775,775,775,775,775,775,775,775,775,775,775,775,775,775,775,775,775,775,775,775,774,762,741,714,653,621,586,537,426],"ymouse":[550,550,550,550,550,550,550,550,550,550,550,550,550,550,550,550,550,550,550,550,550,550,550,550,550,550,550,550,550,547,546,542,540,540,540,540,540,540,540,540,540,540,540,540,540,540,540,540,540,540,540,540,540,540,540,540,540,540,540,540,540,540,540,540,540,540,540,540,540,540,540,540,540,536,514,472,425,330,286,234,166,46],"timestamp_mouse":[16,36,56,76,96,116,136,157,176,206,216,237,258,276,296,317,336,356,376,396,417,437,456,477,496,516,536,556,577,596,617,636,656,676,696,717,736,756,776,797,816,837,856,876,897,917,936,956,976,996,1018,1036,1056,1076,1096,1116,1136,1156,1177,1197,1216,1236,1256,1277,1296,1317,1337,1356,1377,1396,1416,1436,1456,1476,1497,1516,1536,1556,1576,1597,1616,1637],"xSR":741.5,"ySR":490.1,"xT1":424.9,"yT1":0,"xT2":1058.1,"yT2":0,"toosoon":0,"cond_shown":"Incongruent","ratio_trial":200,"L_num":4,"L_den":5,"R_num":6,"R_den":10,"correct_side":1,"subjID":"anasofiaortegonguachaves6","gender":"1","school":"6","age":"12"},{"start_time":1551891247516,"click_time":1551891250069,"finger_time":1551891249609,"fix_duration":1005.6367516911159,"trial":35,"RT":2093,"MT":460,"sideResp":1,"stimulus":[],"xmouse":[796,796,796,796,796,796,796,796,796,796,796,796,796,796,796,796,796,796,796,796,796,796,796,796,796,796,796,796,796,796,796,796,796,794,793,792,792,792,792,792,792,792,792,792,790,788,788,788,788,788,788,788,788,788,788,788,788,788,788,788,788,788,788,788,788,788,788,788,788,788,788,788,788,788,788,788,788,788,788,788,788,788,788,788,788,788,788,788,788,788,788,788,788,788,788,788,788,788,788,788,788,788,784,779,744,723,704,684,665,645,639,633,629,622,601,589,578,570,562,540,527,516,507,502,494,487,476,457],"ymouse":[526,526,526,526,526,526,526,526,526,526,526,526,526,526,526,526,526,526,526,526,526,526,526,526,526,526,526,526,526,526,526,526,526,524,523,522,522,522,522,522,522,522,522,522,520,520,520,520,520,520,520,520,520,520,520,520,520,520,520,520,520,520,520,520,520,520,520,520,520,520,520,520,520,520,520,520,520,520,520,520,520,520,520,520,520,520,520,520,520,520,520,520,520,520,520,520,520,520,520,520,520,520,515,510,471,449,427,405,385,362,354,347,339,327,295,276,257,242,225,183,167,154,144,138,127,117,100,67],"timestamp_mouse":[13,45,53,75,93,114,133,154,173,194,215,234,253,274,295,313,333,353,374,394,413,435,455,473,493,515,534,554,573,593,613,633,654,673,693,713,734,753,774,794,813,833,853,874,894,913,933,955,973,993,1014,1033,1053,1074,1093,1113,1134,1153,1174,1194,1213,1234,1254,1273,1294,1313,1333,1353,1373,1395,1414,1433,1454,1473,1494,1513,1533,1553,1574,1593,1613,1634,1653,1673,1695,1713,1734,1754,1773,1794,1813,1834,1853,1873,1893,1914,1935,1953,1973,1993,2014,2034,2054,2073,2093,2113,2133,2153,2173,2193,2213,2233,2253,2273,2294,2313,2333,2354,2373,2394,2414,2433,2453,2474,2494,2513,2534,2553],"xSR":741.5,"ySR":490.1,"xT1":424.9,"yT1":0,"xT2":1058.1,"yT2":0,"toosoon":0,"cond_shown":"Congruent","ratio_trial":100,"L_num":10,"L_den":25,"R_num":3,"R_den":10,"correct_side":1,"subjID":"anasofiaortegonguachaves6","gender":"1","school":"6","age":"12"},{"start_time":1551891251301,"click_time":1551891265589,"finger_time":1551891261130,"fix_duration":250,"trial":36,"RT":9829,"MT":4459,"sideResp":1,"stimulus":[],"xmouse":[801,801,801,801,801,801,801,801,801,801,801,801,801,801,801,801,801,801,801,801,801,801,801,801,801,801,801,801,801,801,801,801,801,801,801,801,801,801,801,801,801,801,801,801,801,801,801,801,801,801,801,801,801,801,801,801,801,801,801,801,801,801,801,801,801,801,801,801,801,801,801,801,801,801,801,801,801,801,801,801,801,801,801,801,801,801,801,801,801,801,801,801,801,801,801,801,801,801,801,801,801,801,801,801,801,801,801,801,801,801,801,801,801,801,801,801,801,801,801,801,801,801,801,801,801,801,801,801,801,801,801,801,801,801,801,801,801,801,801,801,801,801,801,801,801,801,801,801,801,801,801,801,801,801,801,801,801,801,801,801,801,801,801,801,801,801,801,801,801,801,801,801,801,801,801,800,800,800,800,800,800,800,800,800,800,800,800,800,800,800,800,800,800,800,800,800,800,800,800,800,800,800,800,800,800,800,800,800,800,800,800,800,800,800,800,800,800,800,800,800,800,800,800,800,800,800,800,800,800,800,800,800,800,800,800,800,800,800,800,800,800,800,800,800,800,800,800,800,800,800,800,800,800,800,800,800,800,800,800,800,800,800,800,800,800,800,800,800,800,800,800,800,800,800,800,800,800,800,800,800,800,800,800,800,800,800,800,800,800,800,800,800,800,800,800,800,800,800,800,800,800,800,800,800,800,800,800,800,800,800,800,800,800,800,800,800,800,800,800,800,800,800,800,800,800,800,800,800,800,800,800,800,800,800,800,800,800,800,800,800,800,800,800,800,800,800,800,800,800,800,800,800,800,800,800,800,800,800,800,800,800,800,800,800,800,800,800,800,800,800,800,800,800,800,800,800,800,800,800,800,800,800,800,800,800,800,800,800,800,800,800,800,800,800,800,800,800,800,800,800,800,800,800,800,800,800,800,800,800,800,800,800,800,800,800,800,800,800,800,800,800,800,800,800,800,800,800,800,800,800,800,800,800,800,800,800,800,800,800,800,800,800,800,800,800,800,800,800,800,800,800,800,800,800,800,800,800,800,800,800,800,800,800,800,800,800,800,800,800,800,800