[{"start_time":1551892577527,"click_time":1551892581573,"finger_time":1551892577537,"fix_duration":250,"trial":0,"RT":10,"MT":4036,"sideResp":1,"stimulus":"img/500/randomdotsizeEA/R/15_Ratio_500_L_1_R_2.png","xmouse":[776,776,776,776,776,776,776,776,776,776,776,776,776,776,776,776,776,776,776,776,776,776,776,776,776,776,776,776,776,776,776,776,776,776,776,776,776,776,776,776,776,776,776,776,776,776,776,776,776,776,776,776,776,776,776,776,776,776,776,776,777,780,787,789,790,790,791,791,792,792,792,792,792,792,792,792,792,792,792,792,792,792,792,792,792,792,792,792,792,792,792,792,792,792,792,792,792,792,792,792,792,792,792,792,792,792,792,792,792,792,792,792,792,792,792,792,792,792,792,792,792,792,792,792,792,792,792,792,792,792,792,792,792,792,792,792,792,792,792,792,792,792,790,790,790,790,790,790,790,790,790,790,790,788,788,788,787,785,784,784,784,784,784,784,784,784,784,784,784,784,784,784,784,784,784,784,782,779,774,768,754,735,688,670,655,642,629,613,611,607,603,597,583,579,577,576,576,575,572,568,563,540,521],"ymouse":[544,544,544,544,544,544,544,544,544,544,544,544,544,544,544,544,544,544,544,544,544,544,544,544,544,544,544,544,544,544,544,544,544,544,544,544,544,544,544,544,544,544,544,544,544,544,544,544,544,544,544,544,544,544,544,545,549,557,559,562,567,573,585,588,590,591,593,593,595,595,595,595,595,595,595,595,595,595,595,595,595,595,595,595,595,595,595,595,595,595,595,595,595,595,595,595,595,595,595,595,595,595,595,595,595,595,595,595,595,595,595,595,595,595,595,595,595,595,595,595,595,595,595,595,595,595,595,595,595,595,595,595,595,595,595,595,595,595,595,595,595,595,595,595,595,595,595,595,595,595,595,595,595,594,594,594,594,593,592,592,592,592,592,592,592,592,592,592,592,592,592,592,592,592,592,592,589,584,577,564,529,481,372,327,294,260,226,175,162,146,132,118,93,87,85,85,85,85,85,85,87,93,99],"timestamp_mouse":[10,26,47,67,86,107,126,146,168,186,206,226,246,267,287,306,326,346,366,387,406,427,446,466,486,506,526,547,567,587,606,626,646,667,686,706,727,746,767,787,806,827,847,866,887,908,927,947,966,987,1006,1026,1047,1067,1087,1107,1127,1147,1167,1186,1207,1226,1246,1267,1286,1307,1327,1347,1367,1387,1407,1427,1447,1467,1486,1507,1526,1546,1566,1586,1606,1626,1646,1667,1688,1706,1726,1746,1766,1786,1806,1826,1847,1867,1887,1907,1926,1946,1966,1987,2006,2027,2046,2067,2086,2106,2128,2147,2167,2187,2206,2226,2246,2266,2287,2306,2326,2346,2366,2388,2406,2426,2446,2467,2486,2507,2526,2546,2567,2586,2607,2626,2646,2666,2687,2707,2726,2747,2766,2786,2806,2827,2847,2867,2887,2906,2927,2947,2967,2986,3007,3027,3046,3066,3086,3107,3127,3146,3167,3187,3207,3227,3247,3267,3287,3306,3327,3347,3366,3386,3407,3426,3447,3466,3486,3507,3528,3546,3566,3586,3606,3626,3647,3667,3686,3706,3726,3746,3766,3786,3807,3826,3847,3866,3888,3906,3927,3946,3967,3986,4006,4027,4046],"xSR":741.5,"ySR":490.1,"xT1":424.9,"yT1":0,"xT2":1058.1,"yT2":0,"toosoon":0,"cond_shown":"randomdotsizeEA","ratio_trial":500,"smaller_num":"1","larger_num":"2","correct_side":2,"subjID":"anasofiaortegonguachaves6","gender":"1","age":"12","school":"6","test":{"fix_dur":[250,1500],"timestim":300,"targets_dim":[100,100],"targets_relative_coord":[0.3,0.7],"size_stim":[880,420],"start_dim":[100,100],"size_start":[300,300],"size_fix":60,"samplingrate":20,"img_types":["equaldotsize","equaldotanddens","randomdotsizeEA"],"ratios":[250,500,750,900],"rep_conds":9,"nTrials":120,"trials_to_rest":500,"Trials_order":[17,23,53,49,39,71,76,37,88,87,41,60,25,80,42,43,96,27,106,11,30,108,35,21,46,112,4,82,32,91,64,59,74,52,68,95,72,69,8,7,118,2,113,13,105,103,10,100,20,16,93,14,79,101,70,77,73,22,28,58,75,56,45,40,97,90,26,31,1,61,5,63,66,6,86,38,89,114,51,55,110,18,99,3,33,62,44,116,83,117,92,115,36,94,50,19,65,104,29,24,85,34,78,67,47,119,107,15,102,9,84,81,57,109,0,111,48,54,12,98],"cond_shown":["randomdotsizeEA","randomdotsizeEA","randomdotsizeEA","equaldotanddens","equaldotsize","randomdotsizeEA","equaldotanddens","equaldotanddens","equaldotanddens","equaldotsize","randomdotsizeEA","equaldotsize","equaldotanddens","randomdotsizeEA","equaldotsize","equaldotanddens","equaldotsize","equaldotsize","equaldotanddens","randomdotsizeEA","equaldotsize","equaldotsize","randomdotsizeEA","equaldotsize","equaldotanddens","equaldotanddens","equaldotanddens","equaldotanddens","randomdotsizeEA","equaldotanddens","equaldotanddens","randomdotsizeEA","randomdotsizeEA","equaldotanddens","randomdotsizeEA","randomdotsizeEA","equaldotsize","equaldotsize","randomdotsizeEA","equaldotanddens","equaldotanddens","randomdotsizeEA","randomdotsizeEA","equaldotanddens","equaldotsize","equaldotanddens","equaldotanddens","equaldotanddens","randomdotsizeEA","equaldotanddens","equaldotsize","randomdotsizeEA","equaldotanddens","randomdotsizeEA","equaldotanddens","randomdotsizeEA","equaldotanddens","equaldotanddens","equaldotanddens","equaldotanddens","equaldotsize","randomdotsizeEA","equaldotsize","equaldotanddens","equaldotanddens","equaldotsize","randomdotsizeEA","equaldotanddens","equaldotanddens","equaldotanddens","randomdotsizeEA","equaldotsize","equaldotsize","equaldotsize","randomdotsizeEA","randomdotsizeEA","randomdotsizeEA","equaldotsize","equaldotsize","equaldotanddens","randomdotsizeEA","equaldotsize","equaldotsize","equaldotsize","equaldotsize","randomdotsizeEA","randomdotsizeEA","randomdotsizeEA","randomdotsizeEA","equaldotsize","randomdotsizeEA","equaldotanddens","equaldotsize","equaldotanddens","randomdotsizeEA","equaldotanddens","randomdotsizeEA","randomdotsizeEA","randomdotsizeEA","equaldotsize","equaldotanddens","equaldotanddens","equaldotsize","equaldotanddens","randomdotsizeEA","randomdotsizeEA","randomdotsizeEA","equaldotsize","equaldotsize","equaldotsize","equaldotsize","equaldotsize","equaldotsize","equaldotanddens","equaldotsize","equaldotsize","equaldotsize","equaldotsize","equaldotsize","randomdotsizeEA"],"ratio_trial":[500,900,500,250,500,900,500,250,500,500,500,250,250,750,750,750,250,500,900,900,750,250,900,900,900,500,500,900,750,750,500,900,250,500,750,900,250,900,750,750,900,250,500,250,900,750,900,500,750,500,900,250,750,500,900,500,250,900,500,900,500,750,900,500,250,750,250,750,250,250,500,500,750,750,250,250,500,750,500,750,250,750,500,500,900,250,750,750,900,900,750,750,250,900,250,750,500,750,500,250,250,900,750,750,900,900,900,500,750,900,250,900,900,250,250,500,250,750,250,250],"smaller_num":["1","18","5","3","3","9","2","2","3","6","9","3","3","3","15","12","3","3","18","18","6","3","18","18","9","2","2","18","3","18","2","18","2","9","6","9","6","18","15","18","9","5","9","2","9","9","18","2","18","2","18","3","12","3","18","6","3","18","9","9","2","3","18","5","2","6","3","15","2","4","2","1","3","3","2","3","10","6","9","12","2","18","9","3","18","3","3","6","9","18","9","3","2","18","3","15","2","3","3","4","5","18","3","6","9","18","18","5","15","18","4","18","18","1","6","3","3","6","2","6"],"larger_num":["2","20","10","12","6","10","4","8","6","12","18","12","12","4","20","16","12","6","20","20","8","12","20","20","10","4","4","20","4","24","4","20","8","18","8","10","24","20","20","24","10","20","18","8","10","12","20","4","24","4","20","12","16","6","20","12","12","20","18","10","4","4","20","10","8","8","12","20","8","16","4","2","4","4","8","12","20","8","18","16","8","24","18","6","20","12","4","8","10","20","12","4","8","20","12","20","4","4","6","16","20","20","4","8","10","20","20","10","20","20","16","20","20","4","24","6","12","8","8","24"],"correct_side":[2,2,1,2,2,2,2,1,2,1,2,2,2,1,1,2,1,2,1,2,2,2,1,1,2,1,1,1,2,1,1,2,2,2,2,2,2,2,2,1,2,2,2,1,2,2,2,1,1,1,2,1,2,2,1,1,1,1,2,2,1,2,2,1,1,1,2,1,1,2,1,2,1,2,1,2,2,1,2,2,1,1,1,2,2,1,1,2,1,2,2,2,2,2,2,2,1,2,2,1,2,1,1,1,2,1,2,2,1,1,1,2,1,2,1,2,2,1,1,2],"img_shown":["img/500/randomdotsizeEA/R/15_Ratio_500_L_1_R_2.png","img/900/randomdotsizeEA/R/12_Ratio_900_L_18_R_20.png","img/500/randomdotsizeEA/L/7_Ratio_500_L_10_R_5.png","img/250/equaldotanddens/R/4_Ratio_250_L_3_R_12.png","img/500/equaldotsize/R/2_Ratio_500_L_3_R_6.png","img/900/randomdotsizeEA/R/15_Ratio_900_L_9_R_10.png","img/500/equaldotanddens/R/9_Ratio_500_L_2_R_4.png","img/250/equaldotanddens/L/1_Ratio_250_L_8_R_2.png","img/500/equaldotanddens/R/2_Ratio_500_L_3_R_6.png","img/500/equaldotsize/L/13_Ratio_500_L_12_R_6.png","img/500/randomdotsizeEA/R/1_Ratio_500_L_9_R_18.png","img/250/equaldotsize/R/4_Ratio_250_L_3_R_12.png","img/250/equaldotanddens/R/9_Ratio_250_L_3_R_12.png","img/750/randomdotsizeEA/L/9_Ratio_750_L_4_R_3.png","img/750/equaldotsize/L/1_Ratio_750_L_20_R_15.png","img/750/equaldotanddens/R/11_Ratio_750_L_12_R_16.png","img/250/equaldotsize/L/15_Ratio_250_L_12_R_3.png","img/500/equaldotsize/R/2_Ratio_500_L_3_R_6.png","img/900/equaldotanddens/L/4_Ratio_900_L_20_R_18.png","img/900/randomdotsizeEA/R/14_Ratio_900_L_18_R_20.png","img/750/equaldotsize/R/2_Ratio_750_L_6_R_8.png","img/250/equaldotsize/R/11_Ratio_250_L_3_R_12.png","img/900/randomdotsizeEA/L/10_Ratio_900_L_20_R_18.png","img/900/equaldotsize/L/4_Ratio_900_L_20_R_18.png","img/900/equaldotanddens/R/7_Ratio_900_L_9_R_10.png","img/500/equaldotanddens/L/10_Ratio_500_L_4_R_2.png","img/500/equaldotanddens/L/10_Ratio_500_L_4_R_2.png","img/900/equaldotanddens/L/8_Ratio_900_L_20_R_18.png","img/750/randomdotsizeEA/R/12_Ratio_750_L_3_R_4.png","img/750/equaldotanddens/L/6_Ratio_750_L_24_R_18.png","img/500/equaldotanddens/L/5_Ratio_500_L_4_R_2.png","img/900/randomdotsizeEA/R/13_Ratio_900_L_18_R_20.png","img/250/randomdotsizeEA/R/13_Ratio_250_L_2_R_8.png","img/500/equaldotanddens/R/6_Ratio_500_L_9_R_18.png","img/750/randomdotsizeEA/R/2_Ratio_750_L_6_R_8.png","img/900/randomdotsizeEA/R/6_Ratio_900_L_9_R_10.png","img/250/equaldotsize/R/6_Ratio_250_L_6_R_24.png","img/900/equaldotsize/R/12_Ratio_900_L_18_R_20.png","img/750/randomdotsizeEA/R/5_Ratio_750_L_15_R_20.png","img/750/equaldotanddens/L/6_Ratio_750_L_24_R_18.png","img/900/equaldotanddens/R/3_Ratio_900_L_9_R_10.png","img/250/randomdotsizeEA/R/12_Ratio_250_L_5_R_20.png","img/500/randomdotsizeEA/R/6_Ratio_500_L_9_R_18.png","img/250/equaldotanddens/L/1_Ratio_250_L_8_R_2.png","img/900/equaldotsize/R/6_Ratio_900_L_9_R_10.png","img/750/equaldotanddens/R/15_Ratio_750_L_9_R_12.png","img/900/equaldotanddens/R/14_Ratio_900_L_18_R_20.png","img/500/equaldotanddens/L/10_Ratio_500_L_4_R_2.png","img/750/randomdotsizeEA/L/6_Ratio_750_L_24_R_18.png","img/500/equaldotanddens/L/10_Ratio_500_L_4_R_2.png","img/900/equaldotsize/R/13_Ratio_900_L_18_R_20.png","img/250/randomdotsizeEA/L/15_Ratio_250_L_12_R_3.png","img/750/equaldotanddens/R/11_Ratio_750_L_12_R_16.png","img/500/randomdotsizeEA/R/2_Ratio_500_L_3_R_6.png","img/900/equaldotanddens/L/2_Ratio_900_L_20_R_18.png","img/500/randomdotsizeEA/L/11_Ratio_500_L_12_R_6.png","img/250/equaldotanddens/L/15_Ratio_250_L_12_R_3.png","img/900/equaldotanddens/L/10_Ratio_900_L_20_R_18.png","img/500/equaldotanddens/R/6_Ratio_500_L_9_R_18.png","img/900/equaldotanddens/R/7_Ratio_900_L_9_R_10.png","img/500/equaldotsize/L/10_Ratio_500_L_4_R_2.png","img/750/randomdotsizeEA/R/7_Ratio_750_L_3_R_4.png","img/900/equaldotsize/R/14_Ratio_900_L_18_R_20.png","img/500/equaldotanddens/L/7_Ratio_500_L_10_R_5.png","img/250/equaldotanddens/L/1_Ratio_250_L_8_R_2.png","img/750/equaldotsize/L/13_Ratio_750_L_8_R_6.png","img/250/randomdotsizeEA/R/9_Ratio_250_L_3_R_12.png","img/750/equaldotanddens/L/1_Ratio_750_L_20_R_15.png","img/250/equaldotanddens/L/3_Ratio_250_L_8_R_2.png","img/250/equaldotanddens/R/10_Ratio_250_L_4_R_16.png","img/500/randomdotsizeEA/L/10_Ratio_500_L_4_R_2.png","img/500/equaldotsize/R/12_Ratio_500_L_1_R_2.png","img/750/equaldotsize/L/10_Ratio_750_L_4_R_3.png","img/750/equaldotsize/R/12_Ratio_750_L_3_R_4.png","img/250/randomdotsizeEA/L/1_Ratio_250_L_8_R_2.png","img/250/randomdotsizeEA/R/9_Ratio_250_L_3_R_12.png","img/500/randomdotsizeEA/R/3_Ratio_500_L_10_R_20.png","img/750/equaldotsize/L/13_Ratio_750_L_8_R_6.png","img/500/equaldotsize/R/6_Ratio_500_L_9_R_18.png","img/750/equaldotanddens/R/11_Ratio_750_L_12_R_16.png","img/250/randomdotsizeEA/L/1_Ratio_250_L_8_R_2.png","img/750/equaldotsize/L/6_Ratio_750_L_24_R_18.png","img/500/equaldotsize/L/4_Ratio_500_L_18_R_9.png","img/500/equaldotsize/R/2_Ratio_500_L_3_R_6.png","img/900/equaldotsize/R/11_Ratio_900_L_18_R_20.png","img/250/randomdotsizeEA/L/14_Ratio_250_L_12_R_3.png","img/750/randomdotsizeEA/L/9_Ratio_750_L_4_R_3.png","img/750/randomdotsizeEA/R/2_Ratio_750_L_6_R_8.png","img/900/randomdotsizeEA/L/1_Ratio_900_L_10_R_9.png","img/900/equaldotsize/R/13_Ratio_900_L_18_R_20.png","img/750/randomdotsizeEA/R/15_Ratio_750_L_9_R_12.png","img/750/equaldotanddens/R/7_Ratio_750_L_3_R_4.png","img/250/equaldotsize/R/13_Ratio_250_L_2_R_8.png","img/900/equaldotanddens/R/13_Ratio_900_L_18_R_20.png","img/250/randomdotsizeEA/R/11_Ratio_250_L_3_R_12.png","img/750/equaldotanddens/R/5_Ratio_750_L_15_R_20.png","img/500/randomdotsizeEA/L/5_Ratio_500_L_4_R_2.png","img/750/randomdotsizeEA/R/7_Ratio_750_L_3_R_4.png","img/500/randomdotsizeEA/R/2_Ratio_500_L_3_R_6.png","img/250/equaldotsize/L/2_Ratio_250_L_16_R_4.png","img/250/equaldotanddens/R/12_Ratio_250_L_5_R_20.png","img/900/equaldotanddens/L/2_Ratio_900_L_20_R_18.png","img/750/equaldotsize/L/9_Ratio_750_L_4_R_3.png","img/750/equaldotanddens/L/14_Ratio_750_L_8_R_6.png","img/900/randomdotsizeEA/R/3_Ratio_900_L_9_R_10.png","img/900/randomdotsizeEA/L/4_Ratio_900_L_20_R_18.png","img/900/randomdotsizeEA/R/11_Ratio_900_L_18_R_20.png","img/500/equaldotsize/R/14_Ratio_500_L_5_R_10.png","img/750/equaldotsize/L/1_Ratio_750_L_20_R_15.png","img/900/equaldotsize/L/2_Ratio_900_L_20_R_18.png","img/250/equaldotsize/L/2_Ratio_250_L_16_R_4.png","img/900/equaldotsize/R/13_Ratio_900_L_18_R_20.png","img/900/equaldotsize/L/4_Ratio_900_L_20_R_18.png","img/250/equaldotanddens/R/8_Ratio_250_L_1_R_4.png","img/250/equaldotsize/L/5_Ratio_250_L_24_R_6.png","img/500/equaldotsize/R/2_Ratio_500_L_3_R_6.png","img/250/equaldotsize/R/11_Ratio_250_L_3_R_12.png","img/750/equaldotsize/L/13_Ratio_750_L_8_R_6.png","img/250/equaldotsize/L/7_Ratio_250_L_8_R_2.png","img/250/randomdotsizeEA/R/6_Ratio_250_L_6_R_24.png"],"Rat0":[["12_Ratio_0_L_9_R_0.png","13_Ratio_0_L_6_R_0.png","5_Ratio_0_L_2_R_0.png","6_Ratio_0_L_4_R_0.png","8_Ratio_0_L_6_R_0.png"],["1_Ratio_0_L_0_R_17.png","10_Ratio_0_L_0_R_22.png","11_Ratio_0_L_0_R_1.png","14_Ratio_0_L_0_R_24.png","15_Ratio_0_L_0_R_4.png","2_Ratio_0_L_0_R_5.png","3_Ratio_0_L_0_R_17.png","4_Ratio_0_L_0_R_7.png","7_Ratio_0_L_0_R_19.png","9_Ratio_0_L_0_R_15.png"]],"Rat250":[["1_Ratio_250_L_8_R_2.png","14_Ratio_250_L_12_R_3.png","15_Ratio_250_L_12_R_3.png","2_Ratio_250_L_16_R_4.png","3_Ratio_250_L_8_R_2.png","5_Ratio_250_L_24_R_6.png","7_Ratio_250_L_8_R_2.png"],["10_Ratio_250_L_4_R_16.png","11_Ratio_250_L_3_R_12.png","12_Ratio_250_L_5_R_20.png","13_Ratio_250_L_2_R_8.png","4_Ratio_250_L_3_R_12.png","6_Ratio_250_L_6_R_24.png","8_Ratio_250_L_1_R_4.png","9_Ratio_250_L_3_R_12.png"]],"Rat500":[["10_Ratio_500_L_4_R_2.png","11_Ratio_500_L_12_R_6.png","13_Ratio_500_L_12_R_6.png","4_Ratio_500_L_18_R_9.png","5_Ratio_500_L_4_R_2.png","7_Ratio_500_L_10_R_5.png","8_Ratio_500_L_8_R_4.png"],["1_Ratio_500_L_9_R_18.png","12_Ratio_500_L_1_R_2.png","14_Ratio_500_L_5_R_10.png","15_Ratio_500_L_1_R_2.png","2_Ratio_500_L_3_R_6.png","3_Ratio_500_L_10_R_20.png","6_Ratio_500_L_9_R_18.png","9_Ratio_500_L_2_R_4.png"]],"Rat750":[["1_Ratio_750_L_20_R_15.png","10_Ratio_750_L_4_R_3.png","13_Ratio_750_L_8_R_6.png","14_Ratio_750_L_8_R_6.png","6_Ratio_750_L_24_R_18.png","8_Ratio_750_L_4_R_3.png","9_Ratio_750_L_4_R_3.png"],["11_Ratio_750_L_12_R_16.png","12_Ratio_750_L_3_R_4.png","15_Ratio_750_L_9_R_12.png","2_Ratio_750_L_6_R_8.png","3_Ratio_750_L_15_R_20.png","4_Ratio_750_L_15_R_20.png","5_Ratio_750_L_15_R_20.png","7_Ratio_750_L_3_R_4.png"]],"Rat900":[["1_Ratio_900_L_10_R_9.png","10_Ratio_900_L_20_R_18.png","2_Ratio_900_L_20_R_18.png","4_Ratio_900_L_20_R_18.png","8_Ratio_900_L_20_R_18.png"],["11_Ratio_900_L_18_R_20.png","12_Ratio_900_L_18_R_20.png","13_Ratio_900_L_18_R_20.png","14_Ratio_900_L_18_R_20.png","15_Ratio_900_L_9_R_10.png","3_Ratio_900_L_9_R_10.png","5_Ratio_900_L_9_R_10.png","6_Ratio_900_L_9_R_10.png","7_Ratio_900_L_9_R_10.png","9_Ratio_900_L_18_R_20.png"]],"Rat1000":[["10_Ratio_1000_L_16_R_16.png","11_Ratio_1000_L_6_R_6.png","12_Ratio_1000_L_14_R_14.png","13_Ratio_1000_L_20_R_20.png","15_Ratio_1000_L_15_R_15.png","2_Ratio_1000_L_17_R_17.png","4_Ratio_1000_L_9_R_9.png","5_Ratio_1000_L_6_R_6.png","6_Ratio_1000_L_19_R_19.png","8_Ratio_1000_L_14_R_14.png","9_Ratio_1000_L_25_R_25.png"],["1_Ratio_1000_L_1_R_1.png","14_Ratio_1000_L_17_R_17.png","3_Ratio_1000_L_17_R_17.png","7_Ratio_1000_L_6_R_6.png"]]}},{"start_time":1551892583402,"click_time":1551892590573,"finger_time":1551892590193,"fix_duration":606.7362197265868,"trial":1,"RT":6791,"MT":380,"sideResp":2,"stimulus":"img/900/randomdotsizeEA/R/12_Ratio_900_L_18_R_20.png","xmouse":[794,794,794,794,794,794,794,794,794,794,794,794,794,794,794,794,794,794,794,794,794,794,794,794,794,794,794,794,794,794,794,794,794,794,794,794,794,794,794,794,794,794,794,794,794,794,794,794,794,794,794,794,794,794,794,794,794,794,794,794,794,794,794,794,794,794,794,794,794,794,794,794,793,793,793,793,793,793,793,792,792,792,792,792,792,792,792,792,792,792,792,792,792,792,792,792,792,792,792,792,792,792,792,792,791,791,791,791,791,791,791,791,791,791,791,791,791,791,791,791,791,791,791,791,791,791,791,791,791,791,791,791,791,791,791,791,791,791,791,791,791,791,791,791,791,791,791,791,791,791,791,791,791,791,791,791,791,791,791,791,791,791,791,791,791,791,791,791,791,791,791,791,791,791,791,791,791,791,791,791,791,791,791,791,791,791,791,791,791,791,791,791,791,791,791,791,791,791,791,791,791,791,791,791,791,791,791,791,791,791,791,791,791,791,791,791,791,791,791,791,791,791,791,791,791,791,791,791,791,791,791,791,791,791,791,790,790,790,789,787,786,786,785,785,785,785,785,785,785,785,783,783,782,782,782,782,782,782,782,782,782,782,782,782,782,782,782,782,782,782,782,782,782,782,782,782,782,782,782,782,782,782,782,782,781,781,781,781,781,781,781,781,781,781,781,781,781,781,781,781,781,781,781,781,781,781,780,780,780,780,780,780,780,780,780,780,780,780,780,780,780,780,780,780,780,780,780,780,780,780,780,780,780,780,780,781,786,795,820,841,878,925,972,1027,1042,1046,1060,1069,1080,1083,1085,1089,1107,1116,1122,1131,1135,1139,1146],"ymouse":[643,643,643,643,643,643,643,643,643,643,643,643,643,643,643,643,643,643,643,643,643,643,643,643,643,643,643,643,643,643,643,643,643,643,643,643,643,643,643,643,643,643,643,643,643,643,643,643,643,643,643,643,643,643,643,643,643,643,643,643,643,643,643,643,643,643,643,643,643,643,643,643,643,643,643,643,643,643,643,643,643,643,643,643,643,643,643,643,643,643,643,643,643,643,643,643,643,643,643,643,643,643,643,642,641,641,641,641,641,641,641,641,641,641,641,641,641,641,641,641,641,641,641,641,641,641,641,641,641,641,641,641,641,641,641,641,641,641,641,641,641,641,641,641,641,641,641,641,641,641,641,641,641,641,641,641,641,641,641,641,641,641,641,641,641,641,641,641,641,641,641,641,641,641,641,641,641,641,641,641,641,641,641,641,641,641,641,641,641,641,641,641,641,641,641,641,641,641,641,641,641,641,641,641,641,641,641,641,641,641,641,641,641,641,641,641,641,641,641,641,641,641,641,641,641,641,641,641,641,641,641,641,641,641,641,640,640,640,639,638,637,635,631,631,631,631,631,631,631,631,630,629,629,629,629,629,629,629,629,629,629,629,629,629,629,629,629,629,629,629,629,629,629,629,629,629,629,629,629,629,629,629,629,628,628,628,628,628,628,628,628,628,628,628,628,628,628,628,628,628,628,628,628,628,628,628,628,629,629,629,629,629,629,629,629,629,629,629,629,629,629,629,629,629,629,629,629,629,629,629,629,629,629,629,625,620,614,603,578,561,531,497,463,415,392,383,357,335,292,273,261,248,211,192,170,141,125,111,85],"timestamp_mouse":[11,46,51,71,91,111,131,151,172,191,211,231,251,272,291,311,332,351,371,391,411,431,451,471,491,511,531,551,571,592,611,632,653,672,691,712,732,752,771,791,811,831,852,871,892,911,931,951,971,992,1011,1031,1051,1071,1091,1112,1132,1152,1171,1192,1211,1231,1251,1272,1292,1311,1331,1352,1372,1392,1411,1431,1451,1471,1492,1511,1532,1551,1571,1591,1611,1631,1651,1671,1691,1711,1731,1752,1773,1792,1811,1831,1852,1872,1891,1911,1932,1951,1973,1991,2011,2032,2052,2071,2091,2111,2132,2152,2172,2192,2212,2232,2251,2271,2293,2311,2332,2351,2371,2391,2411,2431,2451,2471,2491,2512,2531,2551,2572,2591,2611,2632,2653,2671,2692,2711,2731,2752,2771,2791,2811,2832,2852,2873,2892,2911,2932,2951,2972,2992,3011,3031,3051,3071,3091,3111,3131,3151,3172,3192,3211,3231,3252,3271,3291,3311,3332,3352,3372,3391,3411,3431,3452,3471,3492,3512,3532,3552,3572,3592,3611,3632,3652,3672,3692,3711,3732,3751,3771,3792,3812,3832,3851,3872,3893,3912,3932,3952,3972,3992,4012,4031,4052,4071,4093,4111,4132,4152,4171,4192,4211,4232,4252,4271,4291,4311,4331,4353,4372,4392,4412,4431,4452,4472,4491,4511,4532,4551,4571,4592,4612,4631,4651,4671,4692,4711,4732,4751,4772,4791,4812,4832,4853,4872,4892,4911,4931,4951,4973,4992,5011,5031,5051,5071,5092,5112,5132,5151,5171,5192,5212,5232,5252,5271,5292,5312,5332,5351,5371,5392,5411,5432,5451,5472,5492,5511,5532,5553,5571,5592,5612,5631,5651,5671,5691,5712,5732,5752,5771,5792,5811,5831,5851,5872,5891,5911,5932,5952,5971,5991,6012,6032,6052,6071,6091,6112,6132,6151,6171,6192,6211,6231,6252,6271,6291,6311,6332,6351,6371,6391,6412,6431,6451,6472,6491,6511,6533,6552,6571,6592,6611,6631,6651,6671,6691,6713,6731,6752,6771,6791,6812,6831,6852,6871,6897,6911,6931,6951,6971,6992,7012,7032,7052,7071,7092,7111,7132,7151,7171],"xSR":741.5,"ySR":573.95,"xT1":424.9,"yT1":0,"xT2":1058.1,"yT2":0,"toosoon":0,"cond_shown":"randomdotsizeEA","ratio_trial":900,"smaller_num":"18","larger_num":"20","correct_side":2,"subjID":"anasofiaortegonguachaves6","gender":"1","age":"12","school":"6"},{"start_time":1551892592336,"click_time":1551892593474,"finger_time":1551892593113,"fix_duration":780.1170733285427,"trial":2,"RT":777,"MT":361,"sideResp":1,"stimulus":"img/500/randomdotsizeEA/L/7_Ratio_500_L_10_R_5.png","xmouse":[802,802,802,802,802,802,802,802,802,802,802,802,802,802,802,802,802,802,802,802,802,802,802,802,802,802,802,802,802,802,802,802,802,802,801,799,784,762,720,638,590,542,529,524,521,518,518,519,521,521,521,521,518,512,503,491,474],"ymouse":[618,618,618,618,618,618,618,618,618,618,618,618,618,618,618,618,618,618,618,618,618,618,618,618,618,618,618,618,618,618,618,618,618,618,618,618,603,579,531,435,376,287,255,236,221,212,204,201,195,188,182,162,152,139,124,107,78],"timestamp_mouse":[32,38,58,79,98,118,137,157,177,197,219,237,258,277,298,317,337,357,377,397,417,437,457,478,497,519,537,557,578,599,617,637,657,677,697,718,739,757,777,798,817,838,858,877,898,917,937,958,978,997,1017,1038,1057,1078,1097,1117,1138],"xSR":741.5,"ySR":573.95,"xT1":424.9,"yT1":0,"xT2":1058.1,"yT2":0,"toosoon":0,"cond_shown":"randomdotsizeEA","ratio_trial":500,"smaller_num":"5","larger_num":"10","correct_side":1,"subjID":"anasofiaortegonguachaves6","gender":"1","age":"12","school":"6"},{"start_time":1551892594560,"click_time":1551892595455,"finger_time":1551892595153,"fix_duration":386.9030405670232,"trial":3,"RT":593,"MT":302,"sideResp":2,"stimulus":"img/250/equaldotanddens/R/4_Ratio_250_L_3_R_12.png","xmouse":[782,782,782,782,782,782,782,782,782,782,782,782,782,782,782,782,782,782,782,782,782,782,782,782,782,782,782,787,797,811,856,891,931,968,1026,1047,1058,1063,1065,1067,1068,1070,1071,1074,1087],"ymouse":[622,622,622,622,622,622,622,622,622,622,622,622,622,622,622,622,622,622,622,622,622,622,622,622,622,622,622,615,597,565,443,377,310,246,174,155,144,140,133,125,114,111,106,102,83],"timestamp_mouse":[17,43,53,73,93,114,135,153,173,193,213,233,253,273,294,313,333,353,374,394,413,433,453,473,493,514,534,554,573,593,613,633,653,674,694,713,733,753,773,794,814,833,854,875,895],"xSR":741.5,"ySR":573.95,"xT1":424.9,"yT1":0,"xT2":1058.1,"yT2":0,"toosoon":0,"cond_shown":"equaldotanddens","ratio_trial":250,"smaller_num":"3","larger_num":"12","correct_side":2,"subjID":"anasofiaortegonguachaves6","gender":"1","age":"12","school":"6"},{"start_time":1551892596792,"click_time":1551892598074,"finger_time":1551892597673,"fix_duration":397.9302975997289,"trial":4,"RT":881,"MT":401,"sideResp":2,"stimulus":"img/500/equaldotsize/R/2_Ratio_500_L_3_R_6.png","xmouse":[797,797,797,797,797,797,797,797,797,797,797,797,797,797,797,797,797,797,797,797,797,797,797,797,797,797,797,797,797,797,797,797,797,797,797,797,797,797,797,797,797,797,802,805,827,843,869,912,939,967,975,980,987,1001,1005,1008,1011,1013,1013,1014,1018,1025,1034,1055,1060],"ymouse":[613,613,613,613,613,613,613,613,613,613,613,613,613,613,613,613,613,613,613,613,613,613,613,613,613,613,613,613,613,613,613,613,613,613,613,613,613,613,613,613,613,613,605,598,561,537,500,435,387,299,255,229,206,167,153,141,125,121,117,109,100,88,73,45,38],"timestamp_mouse":[8,35,41,61,82,102,122,142,161,182,202,221,241,262,281,301,321,342,361,381,403,422,441,461,481,502,521,541,562,581,601,621,641,661,682,701,721,741,761,781,801,821,841,861,881,902,921,942,961,981,1001,1021,1041,1062,1081,1101,1121,1143,1161,1181,1201,1222,1241,1262,1281],"xSR":741.5,"ySR":573.95,"xT1":424.9,"yT1":0,"xT2":1058.1,"yT2":0,"toosoon":0,"cond_shown":"equaldotsize","ratio_trial":500,"smaller_num":"3","larger_num":"6","correct_side":2,"subjID":"anasofiaortegonguachaves6","gender":"1","age":"12","school":"6"},{"start_time":1551892601794,"click_time":1551892602734,"finger_time":1551892602553,"fix_duration":1400.4869500419368,"trial":5,"RT":759,"MT":181,"sideResp":2,"stimulus":"img/900/randomdotsizeEA/R/15_Ratio_900_L_9_R_10.png","xmouse":[785,785,785,785,785,785,785,785,785,785,785,785,785,785,785,785,785,785,785,785,785,785,785,785,785,785,785,785,785,785,785,785,785,785,785,789,810,895,934,977,1006,1016,1020,1033,1042,1050,1060],"ymouse":[615,615,615,615,615,615,615,615,615,615,615,615,615,615,615,615,615,615,615,615,615,615,615,615,615,615,615,615,615,615,615,615,615,615,614,608,586,460,366,259,161,96,66,43,37,29,16],"timestamp_mouse":[19,39,59,80,99,119,139,159,179,200,221,240,260,280,300,319,339,359,379,400,420,439,459,479,499,519,540,559,579,599,619,639,660,679,700,719,740,759,779,799,819,839,859,879,900,919,940],"xSR":741.5,"ySR":573.95,"xT1":424.9,"yT1":0,"xT2":1058.1,"yT2":0,"toosoon":0,"cond_shown":"randomdotsizeEA","ratio_trial":900,"smaller_num":"9","larger_num":"10","correct_side":2,"subjID":"anasofiaortegonguachaves6","gender":"1","age":"12","school":"6"},{"start_time":1551892604211,"click_time":1551892604973,"finger_time":1551892604814,"fix_duration":357.9321755323387,"trial":6,"RT":603,"MT":159,"sideResp":2,"stimulus":"img/500/equaldotanddens/R/9_Ratio_500_L_2_R_4.png","xmouse":[781,781,781,781,781,781,781,781,781,781,781,781,781,781,781,781,781,781,781,781,781,781,781,781,781,781,781,781,783,808,843,891,935,1010,1064,1091,1114,1131,1144],"ymouse":[612,612,612,612,612,612,612,612,612,612,612,612,612,612,612,612,612,612,612,612,612,612,612,612,612,612,612,612,610,594,563,521,475,354,253,191,149,111,79],"timestamp_mouse":[9,34,42,63,82,102,122,142,162,182,202,222,242,262,283,302,322,342,362,382,402,422,443,462,482,502,523,543,562,583,603,623,642,662,683,702,722,742,762],"xSR":741.5,"ySR":573.95,"xT1":424.9,"yT1":0,"xT2":1058.1,"yT2":0,"toosoon":0,"cond_shown":"equaldotanddens","ratio_trial":500,"smaller_num":"2","larger_num":"4","correct_side":2,"subjID":"anasofiaortegonguachaves6","gender":"1","age":"12","school":"6"},{"start_time":1551892606814,"click_time":1551892607773,"finger_time":1551892607373,"fix_duration":839.605337018809,"trial":7,"RT":559,"MT":400,"sideResp":1,"stimulus":"img/250/equaldotanddens/L/1_Ratio_250_L_8_R_2.png","xmouse":[806,806,806,806,806,806,806,806,806,806,806,806,806,806,806,806,806,806,806,806,806,806,806,806,804,799,788,738,705,679,657,637,602,592,576,564,557,550,546,543,540,538,533,530,525,525,525,524],"ymouse":[629,629,629,629,629,629,629,629,629,629,629,629,629,629,629,629,629,629,629,629,629,629,629,629,627,617,596,488,415,353,304,265,200,176,146,126,111,92,84,79,74,72,69,68,66,66,66,65],"timestamp_mouse":[20,45,60,80,99,119,140,159,179,199,219,240,259,280,299,319,340,359,379,400,420,439,461,479,499,520,541,559,580,599,620,639,659,679,699,720,739,759,779,799,819,840,860,880,900,920,939,959],"xSR":741.5,"ySR":573.95,"xT1":424.9,"yT1":0,"xT2":1058.1,"yT2":0,"toosoon":0,"cond_shown":"equaldotanddens","ratio_trial":250,"smaller_num":"2","larger_num":"8","correct_side":1,"subjID":"anasofiaortegonguachaves6","gender":"1","age":"12","school":"6"},{"start_time":1551892609157,"click_time":1551892610173,"finger_time":1551892609754,"fix_duration":682.1751190737149,"trial":8,"RT":597,"MT":419,"sideResp":2,"stimulus":"img/500/equaldotanddens/R/2_Ratio_500_L_3_R_6.png","xmouse":[806,806,806,806,806,806,806,806,806,806,806,806,806,806,806,806,806,806,806,806,806,806,804,802,801,800,801,805,812,823,869,909,955,999,1041,1103,1118,1119,1119,1119,1120,1123,1127,1130,1131,1131,1130,1129,1126,1126,1120],"ymouse":[637,637,637,637,637,637,637,637,637,637,637,637,637,637,637,637,637,637,637,637,637,637,634,631,626,615,608,596,579,557,466,408,352,308,275,232,218,216,215,213,202,188,172,157,145,126,120,114,109,106,95],"timestamp_mouse":[16,36,56,76,96,116,136,156,178,197,217,237,257,277,297,316,337,356,377,396,417,436,457,476,496,517,537,556,576,597,617,636,656,677,697,717,736,756,776,798,816,836,856,877,897,916,936,957,976,996,1016],"xSR":741.5,"ySR":573.95,"xT1":424.9,"yT1":0,"xT2":1058.1,"yT2":0,"toosoon":0,"cond_shown":"equaldotanddens","ratio_trial":500,"smaller_num":"3","larger_num":"6","correct_side":2,"subjID":"anasofiaortegonguachaves6","gender":"1","age":"12","school":"6"},{"start_time":1551892611455,"click_time":1551892613613,"finger_time":1551892613313,"fix_duration":320.85599975557733,"trial":9,"RT":1858,"MT":300,"sideResp":2,"stimulus":"img/500/equaldotsize/L/13_Ratio_500_L_12_R_6.png","xmouse":[823,823,823,823,823,823,823,823,823,823,823,823,823,823,823,823,823,823,823,823,823,823,823,823,823,823,823,823,823,823,823,823,823,823,823,823,823,823,823,823,823,823,823,823,823,823,823,823,823,823,823,823,823,823,823,823,823,823,823,823,823,821,817,814,813,813,813,813,813,813,813,813,813,813,813,813,813,813,813,813,813,813,813,813,813,813,813,813,813,812,810,810,820,834,844,859,864,870,877,889,956,975,1026,1042,1065,1076,1085,1094],"ymouse":[625,625,625,625,625,625,625,625,625,625,625,625,625,625,625,625,625,625,625,625,625,625,625,625,625,625,625,625,625,625,625,625,625,625,625,625,625,625,625,625,625,625,625,625,625,625,625,625,625,625,625,625,625,625,625,625,625,625,625,625,625,626,629,630,630,630,630,630,630,630,630,630,630,630,630,630,630,630,630,630,630,630,630,630,630,630,630,630,630,630,608,588,557,525,503,469,452,434,412,387,285,257,190,168,132,117,105,94],"timestamp_mouse":[18,38,58,79,98,118,138,158,178,199,219,238,258,278,298,318,338,359,379,398,418,438,459,478,498,518,540,558,578,598,618,638,658,678,699,718,738,758,779,800,819,838,858,879,898,918,938,959,979,998,1018,1038,1060,1079,1099,1119,1139,1159,1179,1198,1218,1238,1258,1278,1299,1318,1338,1358,1378,1398,1418,1440,1458,1480,1499,1518,1538,1558,1578,1599,1618,1638,1658,1678,1698,1718,1739,1759,1778,1799,1818,1839,1858,1878,1898,1918,1939,1958,1979,1999,2018,2038,2058,2079,2100,2118,2139,2158],"xSR":741.5,"ySR":573.95,"xT1":424.9,"yT1":0,"xT2":1058.1,"yT2":0,"toosoon":0,"cond_shown":"equaldotsize","ratio_trial":500,"smaller_num":"6","larger_num":"12","correct_side":1,"subjID":"anasofiaortegonguachaves6","gender":"1","age":"12","school":"6"},{"start_time":1551892615533,"click_time":1551892616874,"finger_time":1551892616513,"fix_duration":857.0193915584622,"trial":10,"RT":980,"MT":361,"sideResp":2,"stimulus":"img/500/randomdotsizeEA/R/1_Ratio_500_L_9_R_18.png","xmouse":[775,775,775,775,775,775,775,775,775,775,775,775,775,775,775,775,775,775,775,775,775,775,775,775,775,775,775,775,775,775,775,775,775,775,775,775,775,775,775,775,775,775,775,775,775,775,776,778,793,818,842,874,953,988,1018,1042,1082,1105,1111,1114,1114,1114,1114,1113,1111,1104,1097,1080],"ymouse":[633,633,633,633,633,633,633,633,633,633,633,633,633,633,633,633,633,633,633,633,633,633,633,633,633,633,633,633,633,633,633,633,633,633,633,633,633,633,633,633,633,633,633,633,633,633,634,623,582,525,469,422,329,296,269,247,214,187,173,162,157,154,150,148,142,132,123,94],"timestamp_mouse":[8,21,41,60,81,101,120,141,161,180,201,221,241,260,280,301,321,340,361,381,400,420,441,460,481,500,521,542,561,580,600,620,642,660,680,700,720,741,760,781,800,820,840,861,880,900,920,940,960,980,1002,1020,1040,1061,1081,1101,1121,1140,1161,1180,1200,1220,1241,1260,1280,1300,1321,1341],"xSR":741.5,"ySR":573.95,"xT1":424.9,"yT1":0,"xT2":1058.1,"yT2":0,"toosoon":0,"cond_shown":"randomdotsizeEA","ratio_trial":500,"smaller_num":"9","larger_num":"18","correct_side":2,"subjID":"anasofiaortegonguachaves6","gender":"1","age":"12","school":"6"},{"start_time":1551892618408,"click_time":1551892619414,"finger_time":1551892619034,"fix_duration":553.3831680227087,"trial":11,"RT":626,"MT":380,"sideResp":2,"stimulus":"img/250/equaldotsize/R/4_Ratio_250_L_3_R_12.png","xmouse":[780,780,780,780,780,780,780,780,780,780,780,780,780,780,780,780,780,780,780,780,780,780,780,780,780,780,780,780,783,796,817,846,893,913,931,955,966,981,999,1002,1003,1003,1003,1003,1005,1012,1019,1030,1053,1072,1110],"ymouse":[619,619,619,619,619,619,619,619,619,619,619,619,619,619,619,619,619,619,619,619,619,619,619,619,619,619,619,619,614,602,583,554,481,444,406,351,319,289,245,232,220,208,201,193,188,180,170,158,130,109,79],"timestamp_mouse":[8,34,45,66,85,105,125,146,165,186,205,226,246,267,285,305,326,345,366,386,406,426,445,466,486,505,525,547,566,585,606,626,646,665,685,705,726,745,765,785,805,825,845,865,886,905,925,946,966,985,1005],"xSR":741.5,"ySR":573.95,"xT1":424.9,"yT1":0,"xT2":1058.1,"yT2":0,"toosoon":0,"cond_shown":"equaldotsize","ratio_trial":250,"smaller_num":"3","larger_num":"12","correct_side":2,"subjID":"anasofiaortegonguachaves6","gender":"1","age":"12","school":"6"},{"start_time":1551892621823,"click_time":1551892622736,"finger_time":1551892622475,"fix_duration":1208.453716278168,"trial":12,"RT":652,"MT":261,"sideResp":2,"stimulus":"img/250/equaldotanddens/R/9_Ratio_250_L_3_R_12.png","xmouse":[808,808,808,808,808,808,808,808,808,808,808,808,808,808,808,808,808,808,808,808,808,808,808,808,808,808,808,808,808,808,808,808,871,941,1009,1059,1095,1126,1132,1133,1133,1129,1124,1123,1121,1114],"ymouse":[620,620,620,620,620,620,620,620,620,620,620,620,620,620,620,620,620,620,620,620,620,620,620,620,620,620,620,620,620,620,620,620,568,507,439,380,332,271,245,220,200,182,151,126,111,95],"timestamp_mouse":[10,36,51,70,92,110,131,151,170,190,210,230,250,270,290,310,330,350,370,390,410,432,452,470,490,511,530,552,570,590,610,630,652,672,692,712,732,752,773,792,812,832,852,872,891,913],"xSR":741.5,"ySR":573.95,"xT1":424.9,"yT1":0,"xT2":1058.1,"yT2":0,"toosoon":0,"cond_shown":"equaldotanddens","ratio_trial":250,"smaller_num":"3","larger_num":"12","correct_side":2,"subjID":"anasofiaortegonguachaves6","gender":"1","age":"12","school":"6"},{"start_time":1551892624055,"click_time":1551892625376,"finger_time":1551892624475,"fix_duration":436.67844318686,"trial":13,"RT":420,"MT":901,"sideResp":1,"stimulus":"img/750/randomdotsizeEA/L/9_Ratio_750_L_4_R_3.png","xmouse":[823,823,823,823,823,823,823,823,823,823,823,823,823,823,823,823,823,823,823,826,834,858,862,864,865,865,866,866,866,866,866,866,866,866,866,866,866,866,866,866,866,866,866,866,866,866,866,858,848,835,819,766,717,693,680,668,646,637,629,621,615,607,600,593,578,552,506],"ymouse":[633,633,633,633,633,633,633,633,633,633,633,633,633,633,633,633,633,633,633,630,623,597,586,581,577,575,570,566,563,561,559,558,558,558,558,558,558,558,558,558,558,558,558,558,558,558,557,555,551,542,529,476,402,353,309,261,182,161,140,122,106,80,68,65,58,51,38],"timestamp_mouse":[9,20,39,61,80,101,121,140,160,180,200,221,239,260,279,300,321,340,360,380,400,420,440,460,481,500,520,540,560,580,601,620,640,660,681,700,720,740,759,780,801,820,840,860,880,899,920,940,960,980,1001,1020,1041,1060,1080,1100,1121,1140,1160,1180,1200,1221,1241,1259,1280,1300,1321],"xSR":741.5,"ySR":573.95,"xT1":424.9,"yT1":0,"xT2":1058.1,"yT2":0,"toosoon":0,"cond_shown":"randomdotsizeEA","ratio_trial":750,"smaller_num":"3","larger_num":"4","correct_side":1,"subjID":"anasofiaortegonguachaves6","gender":"1","age":"12","school":"6"},{"start_time":1551892627311,"click_time":1551892628875,"finger_time":1551892628475,"fix_duration":1174.0910947640732,"trial":14,"RT":1164,"MT":400,"sideResp":1,"stimulus":"img/750/equaldotsize/L/1_Ratio_750_L_20_R_15.png","xmouse":[794,794,794,794,794,794,794,794,794,794,794,794,794,794,794,794,794,794,794,794,794,794,794,794,794,794,794,794,794,794,794,794,794,794,794,794,794,794,794,794,794,794,794,794,794,794,794,794,794,794,794,794,794,794,794,786,769,744,680,634,559,526,508,496,494,492,490,489,486,486,486,486,487,490,491,491,490,485,480],"ymouse":[670,670,670,670,670,670,670,670,670,670,670,670,670,670,670,670,670,670,670,670,670,670,670,670,670,670,670,670,670,670,670,670,670,670,670,670,670,670,670,670,670,670,670,670,670,670,670,670,670,670,670,670,670,670,665,645,614,580,515,485,439,415,399,364,349,337,324,316,292,272,253,235,193,172,151,135,122,105,76],"timestamp_mouse":[9,32,43,64,84,104,124,144,164,184,204,224,244,265,283,304,325,344,365,384,404,424,444,464,484,504,524,544,563,584,604,625,643,664,685,703,723,745,764,784,804,824,845,864,885,904,925,944,965,983,1004,1024,1043,1064,1085,1103,1125,1145,1163,1184,1204,1224,1244,1265,1285,1304,1324,1344,1364,1385,1405,1425,1445,1464,1484,1505,1525,1545,1564],"xSR":741.5,"ySR":573.95,"xT1":424.9,"yT1":0,"xT2":1058.1,"yT2":0,"toosoon":0,"cond_shown":"equaldotsize","ratio_trial":750,"smaller_num":"15","larger_num":"20","correct_side":1,"subjID":"anasofiaortegonguachaves6","gender":"1","age":"12","school":"6"},{"start_time":1551892630840,"click_time":1551892631835,"finger_time":1551892631416,"fix_duration":964.9517207541165,"trial":15,"RT":576,"MT":419,"sideResp":2,"stimulus":"img/750/equaldotanddens/R/11_Ratio_750_L_12_R_16.png","xmouse":[792,792,792,792,792,792,792,792,792,792,792,792,792,792,792,792,792,792,792,792,792,792,792,792,792,792,798,818,847,895,947,1017,1036,1038,1038,1038,1033,1028,1024,1022,1021,1019,1018,1017,1017,1026,1035,1045,1056,1069],"ymouse":[622,622,622,622,622,622,622,622,622,622,622,622,622,622,622,622,622,622,622,622,622,622,622,622,622,622,616,599,570,516,450,365,312,285,261,241,210,199,191,186,182,171,168,156,143,114,99,87,75,64],"timestamp_mouse":[16,49,56,75,95,115,134,156,175,194,216,236,255,276,295,316,336,356,375,395,415,435,455,475,494,516,535,556,576,595,616,635,655,675,696,716,735,755,776,796,815,835,856,875,895,916,935,955,974,995],"xSR":741.5,"ySR":573.95,"xT1":424.9,"yT1":0,"xT2":1058.1,"yT2":0,"toosoon":0,"cond_shown":"equaldotanddens","ratio_trial":750,"smaller_num":"12","larger_num":"16","correct_side":2,"subjID":"anasofiaortegonguachaves6","gender":"1","age":"12","school":"6"},{"start_time":1551892634854,"click_time":1551892635595,"finger_time":1551892635395,"fix_duration":575.9652437907935,"trial":16,"RT":541,"MT":200,"sideResp":1,"stimulus":"img/250/equaldotsize/L/15_Ratio_250_L_12_R_3.png","xmouse":[749,749,749,749,749,749,749,749,749,749,749,749,749,749,749,749,749,749,749,749,749,749,749,749,749,749,744,740,736,731,725,715,708,693,679,640,525,461],"ymouse":[603,603,603,603,603,603,603,603,603,603,603,603,603,603,603,603,603,603,603,603,603,603,603,603,600,597,577,564,549,530,509,475,455,406,364,303,161,96],"timestamp_mouse":[12,21,41,61,80,102,122,141,161,181,201,221,242,261,281,301,321,341,361,381,400,421,441,462,481,501,522,541,561,581,601,620,642,662,681,701,721,741],"xSR":741.5,"ySR":573.95,"xT1":424.9,"yT1":0,"xT2":1058.1,"yT2":0,"toosoon":0,"cond_shown":"equaldotsize","ratio_trial":250,"smaller_num":"3","larger_num":"12","correct_side":1,"subjID":"anasofiaortegonguachaves6","gender":"1","age":"12","school":"6"},{"start_time":1551892636973,"click_time":1551892637875,"finger_time":1551892637475,"fix_duration":337.29735355194146,"trial":17,"RT":502,"MT":400,"sideResp":2,"stimulus":"img/500/equaldotsize/R/2_Ratio_500_L_3_R_6.png","xmouse":[779,779,779,779,779,779,779,779,779,779,779,779,779,779,779,779,779,779,779,779,779,781,783,789,792,805,821,844,880,927,1025,1069,1102,1121,1136,1143,1145,1145,1146,1146,1146,1146,1144,1140,1135,1124],"ymouse":[595,595,595,595,595,595,595,595,595,595,595,595,595,595,595,595,595,595,595,595,595,592,589,582,577,557,534,496,446,388,284,233,193,169,149,138,133,131,129,128,125,123,118,112,102,81],"timestamp_mouse":[9,33,43,62,82,102,122,142,163,181,202,222,242,263,283,301,322,342,362,381,402,422,442,462,482,502,522,542,562,583,602,623,642,662,683,702,722,742,762,782,803,822,842,862,881,902],"xSR":741.5,"ySR":573.95,"xT1":424.9,"yT1":0,"xT2":1058.1,"yT2":0,"toosoon":0,"cond_shown":"equaldotsize","ratio_trial":500,"smaller_num":"3","larger_num":"6","correct_side":2,"subjID":"anasofiaortegonguachaves6","gender":"1","age":"12","school":"6"},{"start_time":1551892639596,"click_time":1551892640655,"finger_time":1551892640456,"fix_duration":780.4244525694845,"trial":18,"RT":860,"MT":199,"sideResp":1,"stimulus":"img/900/equaldotanddens/L/4_Ratio_900_L_20_R_18.png","xmouse":[811,811,811,809,809,809,808,808,808,808,808,808,808,808,808,808,808,808,808,808,808,808,808,808,808,808,808,808,808,808,808,808,808,808,808,808,808,807,805,802,796,788,775,702,644,613,584,556,524,517,510,506,503],"ymouse":[608,608,609,612,613,613,613,613,613,613,613,613,613,613,613,613,613,613,613,613,613,613,613,613,613,613,613,613,613,613,613,613,613,613,613,613,613,612,608,602,594,583,565,463,383,339,298,254,179,150,125,110,98],"timestamp_mouse":[20,39,60,78,99,119,139,158,179,199,220,240,260,279,300,319,339,359,380,399,419,440,458,479,500,519,539,559,579,600,619,640,659,678,699,719,739,759,779,799,819,838,860,879,899,919,939,960,979,999,1020,1040,1059],"xSR":741.5,"ySR":573.95,"xT1":424.9,"yT1":0,"xT2":1058.1,"yT2":0,"toosoon":0,"cond_shown":"equaldotanddens","ratio_trial":900,"smaller_num":"18","larger_num":"20","correct_side":1,"subjID":"anasofiaortegonguachaves6","gender":"1","age":"12","school":"6"},{"start_time":1551892642529,"click_time":1551892643656,"finger_time":1551892643475,"fix_duration":890.699412186818,"trial":19,"RT":946,"MT":181,"sideResp":2,"stimulus":"img/900/randomdotsizeEA/R/14_Ratio_900_L_18_R_20.png","xmouse":[788,788,788,788,788,788,788,788,788,788,788,788,788,788,788,788,788,788,788,788,788,788,788,788,788,788,788,788,788,788,788,788,788,788,788,788,788,788,788,788,788,788,788,788,788,794,800,857,906,964,1018,1061,1109,1120,1129,1134,1138],"ymouse":[632,632,632,632,632,632,632,632,632,632,632,632,632,632,632,632,632,632,632,632,632,632,632,632,632,632,632,632,632,632,632,632,632,632,632,632,632,632,632,632,632,632,632,632,632,618,608,524,461,391,322,262,170,143,123,107,91],"timestamp_mouse":[8,42,46,66,86,106,126,147,166,186,207,227,246,266,286,306,326,347,366,386,406,426,446,467,487,506,526,545,567,586,605,627,646,667,685,707,726,746,767,786,807,827,845,866,887,907,927,946,966,986,1006,1026,1046,1066,1086,1107,1127],"xSR":741.5,"ySR":573.95,"xT1":424.9,"yT1":0,"xT2":1058.1,"yT2":0,"toosoon":0,"cond_shown":"randomdotsizeEA","ratio_trial":900,"smaller_num":"18","larger_num":"20","correct_side":2,"subjID":"anasofiaortegonguachaves6","gender":"1","age":"12","school":"6"},{"start_time":1551892645002,"click_time":1551892646275,"finger_time":1551892645956,"fix_duration":345.4522768343686,"trial":20,"RT":954,"MT":319,"sideResp":1,"stimulus":"img/750/equaldotsize/R/2_Ratio_750_L_6_R_8.png","xmouse":[815,815,815,815,815,815,815,815,815,815,815,815,815,815,815,815,815,815,815,815,815,815,815,815,815,815,815,815,815,815,815,815,815,815,815,815,815,815,815,815,815,815,815,815,815,815,803,777,692,646,610,584,567,545,538,533,531,528,526,524,524,523,522,511],"ymouse":[623,623,623,623,623,623,623,623,623,623,623,623,623,623,623,623,623,623,623,623,623,623,623,623,623,623,623,623,623,623,623,623,623,623,623,623,623,623,623,623,623,623,623,623,623,624,606,561,431,366,307,255,219,161,146,135,129,118,113,111,110,108,105,86],"timestamp_mouse":[17,37,54,73,93,113,134,153,174,193,212,234,253,273,293,314,333,353,374,394,412,434,453,473,494,513,534,554,573,593,613,633,654,674,693,714,734,754,774,794,813,832,854,874,894,912,932,954,973,993,1013,1033,1053,1072,1094,1113,1133,1154,1173,1194,1213,1233,1254,1273],"xSR":741.5,"ySR":573.95,"xT1":424.9,"yT1":0,"xT2":1058.1,"yT2":0,"toosoon":0,"cond_shown":"equaldotsize","ratio_trial":750,"smaller_num":"6","larger_num":"8","correct_side":2,"subjID":"anasofiaortegonguachaves6","gender":"1","age":"12","school":"6"},{"start_time":1551892648034,"click_time":1551892648657,"finger_time":1551892648555,"fix_duration":637.0339755557476,"trial":21,"RT":521,"MT":102,"sideResp":2,"stimulus":"img/250/equaldotsize/R/11_Ratio_250_L_3_R_12.png","xmouse":[793,793,793,793,793,793,793,793,793,793,793,793,793,793,793,793,793,793,793,793,793,794,796,806,816,825,839,904,948,998,1040,1079],"ymouse":[634,634,634,634,634,634,634,634,634,634,634,634,634,634,634,634,634,634,634,634,633,632,627,617,604,589,562,416,317,219,137,11],"timestamp_mouse":[8,21,41,61,81,102,122,140,162,181,201,222,240,261,281,301,321,342,361,381,401,421,441,461,482,501,521,541,561,580,601,622],"xSR":741.5,"ySR":573.95,"xT1":424.9,"yT1":0,"xT2":1058.1,"yT2":0,"toosoon":0,"cond_shown":"equaldotsize","ratio_trial":250,"smaller_num":"3","larger_num":"12","correct_side":2,"subjID":"anasofiaortegonguachaves6","gender":"1","age":"12","school":"6"},{"start_time":1551892650047,"click_time":1551892651215,"finger_time":1551892650875,"fix_duration":250,"trial":22,"RT":828,"MT":340,"sideResp":1,"stimulus":"img/900/randomdotsizeEA/L/10_Ratio_900_L_20_R_18.png","xmouse":[788,789,790,790,790,790,790,790,790,790,790,790,790,790,790,790,790,790,790,790,790,790,790,790,790,790,790,790,790,790,790,790,790,790,790,790,790,790,790,786,783,718,676,634,601,576,547,541,538,537,537,534,533,533,531,530,519,510,501],"ymouse":[618,618,618,618,618,618,618,618,618,618,618,618,618,618,618,618,619,619,619,619,619,619,619,619,619,619,619,619,619,619,619,619,619,619,619,619,619,619,619,604,593,455,400,349,307,274,235,228,224,223,223,217,215,209,195,174,132,112,94],"timestamp_mouse":[10,28,48,69,88,109,129,147,169,188,208,228,248,269,288,308,327,348,368,389,408,429,448,468,489,508,528,549,568,587,608,627,648,667,689,707,729,749,767,788,808,828,849,868,888,909,928,948,968,988,1008,1028,1049,1068,1089,1109,1128,1148,1168],"xSR":741.5,"ySR":573.95,"xT1":424.9,"yT1":0,"xT2":1058.1,"yT2":0,"toosoon":0,"cond_shown":"randomdotsizeEA","ratio_trial":900,"smaller_num":"18","larger_num":"20","correct_side":1,"subjID":"anasofiaortegonguachaves6","gender":"1","age":"12","school":"6"},{"start_time":1551892652347,"click_time":1551892653575,"finger_time":1551892653174,"fix_duration":250,"trial":23,"RT":827,"MT":401,"sideResp":2,"stimulus":"img/900/equaldotsize/L/4_Ratio_900_L_20_R_18.png","xmouse":[809,809,809,809,809,809,809,809,809,809,809,809,809,809,809,809,809,809,809,809,809,809,809,809,809,809,809,809,809,809,809,809,809,809,808,808,812,815,817,823,835,888,922,953,981,997,1010,1010,1010,1010,1011,1014,1014,1014,1015,1015,1016,1017,1021,1034,1058,1100],"ymouse":[613,613,613,613,613,613,613,613,613,613,613,613,613,613,613,613,613,613,613,613,613,613,613,613,613,613,613,613,613,613,613,613,613,613,611,610,604,600,598,591,577,504,455,406,351,309,258,226,204,184,166,145,140,135,129,127,125,122,119,109,94,69],"timestamp_mouse":[8,43,48,68,87,108,128,148,168,188,207,229,248,268,289,308,327,348,368,388,408,428,448,468,489,509,527,547,569,588,608,628,648,669,688,708,728,748,769,788,809,827,848,868,888,909,928,948,968,988,1009,1028,1048,1067,1088,1109,1127,1148,1168,1189,1209,1228],"xSR":741.5,"ySR":573.95,"xT1":424.9,"yT1":0,"xT2":1058.1,"yT2":0,"toosoon":0,"cond_shown":"equaldotsize","ratio_trial":900,"smaller_num":"18","larger_num":"20","correct_side":1,"subjID":"anasofiaortegonguachaves6","gender":"1","age":"12","school":"6"},{"start_time":1551892655072,"click_time":1551892657196,"finger_time":1551892655874,"fix_duration":635.4978078226156,"trial":24,"RT":802,"MT":1322,"sideResp":1,"stimulus":"img/900/equaldotanddens/R/7_Ratio_900_L_9_R_10.png","xmouse":[783,783,783,783,783,783,783,783,783,784,785,785,785,785,785,785,785,785,785,785,785,785,785,785,785,785,785,785,785,785,785,785,785,785,785,785,785,785,786,794,923,1092,1163,1207,1226,1238,1238,1234,1226,1214,1192,1185,1178,1174,1173,1173,1173,1172,1171,1170,1167,1164,1163,1161,1161,1161,1161,1161,1161,1158,1142,1118,1096,1079,1063,1036,1028,1013,992,963,857,781,751,734,722,707,696,685,670,656,639,636,630,624,617,591,572,558,550,542,539,538,538,538,536,526,517],"ymouse":[664,664,664,664,664,664,664,662,661,660,659,659,659,659,659,659,659,659,659,659,659,659,659,659,659,659,659,659,659,659,659,659,659,659,659,659,659,659,657,648,548,428,374,333,299,245,232,222,208,193,157,143,131,125,124,124,124,123,124,126,134,145,155,168,181,211,221,231,246,265,315,370,403,425,441,452,452,446,430,406,320,258,232,212,194,161,140,122,105,95,86,86,85,83,81,79,78,77,75,74,74,73,73,73,73,73,75],"timestamp_mouse":[10,24,44,65,84,103,123,143,163,183,203,224,243,263,283,303,323,343,363,384,404,423,443,463,484,503,523,543,564,582,604,623,644,662,683,702,723,743,763,783,802,824,843,863,883,904,923,943,964,984,1003,1023,1043,1063,1084,1103,1124,1143,1163,1183,1203,1223,1243,1263,1283,1304,1324,1343,1363,1384,1404,1422,1442,1464,1484,1503,1522,1543,1564,1583,1603,1623,1643,1663,1683,1703,1723,1743,1763,1783,1802,1824,1843,1864,1882,1903,1923,1943,1964,1983,2003,2023,2043,2063,2083,2103,2124],"xSR":741.5,"ySR":573.95,"xT1":424.9,"yT1":0,"xT2":1058.1,"yT2":0,"toosoon":0,"cond_shown":"equaldotanddens","ratio_trial":900,"smaller_num":"9","larger_num":"10","correct_side":2,"subjID":"anasofiaortegonguachaves6","gender":"1","age":"12","school":"6"},{"start_time":1551892659946,"click_time":1551892660716,"finger_time":1551892660496,"fix_duration":270.5252427804821,"trial":25,"RT":550,"MT":220,"sideResp":1,"stimulus":"img/500/equaldotanddens/L/10_Ratio_500_L_4_R_2.png","xmouse":[772,772,772,772,772,772,772,772,772,772,772,772,772,772,772,772,772,772,772,772,772,772,772,772,772,772,768,731,701,666,630,572,550,535,527,520,502,499,482],"ymouse":[624,624,624,624,624,624,624,624,624,624,624,624,624,624,624,624,624,624,624,624,624,624,624,624,624,624,623,562,497,433,367,237,188,161,145,133,108,104,90],"timestamp_mouse":[9,44,49,70,88,109,129,148,169,189,208,229,249,270,289,309,328,349,370,389,409,428,450,469,490,509,528,550,568,589,609,630,649,669,689,708,728,750,770],"xSR":741.5,"ySR":573.95,"xT1":424.9,"yT1":0,"xT2":1058.1,"yT2":0,"toosoon":0,"cond_shown":"equaldotanddens","ratio_trial":500,"smaller_num":"2","larger_num":"4","correct_side":1,"subjID":"anasofiaortegonguachaves6","gender":"1","age":"12","school":"6"},{"start_time":1551892661709,"click_time":1551892663296,"finger_time":1551892662675,"fix_duration":250,"trial":26,"RT":966,"MT":621,"sideResp":1,"stimulus":"img/500/equaldotanddens/L/10_Ratio_500_L_4_R_2.png","xmouse":[807,807,807,807,807,807,807,807,807,807,807,807,807,807,807,807,807,807,807,807,807,807,807,807,807,807,807,807,807,807,807,807,807,807,807,807,807,807,807,807,807,807,807,807,807,807,798,790,745,709,690,675,665,648,639,630,623,615,602,593,590,588,586,585,583,580,574,570,565,561,558,553,533,521,502,487,476,463,459,453],"ymouse":[631,631,631,631,631,631,631,631,631,631,631,631,631,631,631,631,631,631,631,631,631,631,631,631,631,631,631,631,631,631,631,631,631,631,631,631,631,631,631,631,631,631,631,631,631,631,619,608,540,500,481,466,455,431,417,404,389,371,326,295,276,258,243,223,214,204,193,186,178,173,170,165,157,149,135,122,110,101,100,97],"timestamp_mouse":[5,27,47,66,87,107,127,147,167,187,207,225,247,266,286,306,326,346,366,387,406,427,447,465,487,507,527,547,567,585,606,627,646,667,686,707,726,746,766,787,806,825,847,867,886,906,926,946,966,987,1007,1027,1046,1065,1087,1106,1126,1146,1165,1186,1207,1227,1246,1266,1286,1306,1326,1345,1366,1387,1406,1426,1447,1467,1486,1506,1527,1547,1565,1586],"xSR":741.5,"ySR":573.95,"xT1":424.9,"yT1":0,"xT2":1058.1,"yT2":0,"toosoon":0,"cond_shown":"equaldotanddens","ratio_trial":500,"smaller_num":"2","larger_num":"4","correct_side":1,"subjID":"anasofiaortegonguachaves6","gender":"1","age":"12","school":"6"},{"start_time":1551892664522,"click_time":1551892666315,"finger_time":1551892665195,"fix_duration":326.1922206788934,"trial":27,"RT":673,"MT":1120,"sideResp":1,"stimulus":"img/900/equaldotanddens/L/8_Ratio_900_L_20_R_18.png","xmouse":[794,794,794,794,794,794,794,794,794,794,794,794,794,794,794,794,794,794,794,794,794,794,795,795,796,796,797,800,802,802,802,802,803,803,805,805,805,818,824,843,856,888,910,944,969,983,995,1010,1013,1014,1014,1014,1013,999,973,940,896,838,815,798,783,772,754,749,748,747,747,743,733,721,710,696,669,655,643,628,616,594,576,564,553,548,548,548,548,547,547,538,526,520],"ymouse":[626,626,626,626,626,626,626,626,626,626,626,626,626,626,626,626,626,626,626,623,622,620,617,616,611,607,600,590,584,581,579,578,574,572,570,568,563,519,505,465,437,378,345,298,264,244,228,207,201,199,199,199,199,200,204,211,224,243,255,264,272,276,280,280,280,280,278,266,247,235,224,211,191,180,170,158,149,134,123,116,110,105,105,105,105,104,104,97,90,87],"timestamp_mouse":[14,39,53,72,93,114,132,153,174,194,213,233,252,274,292,313,334,353,372,393,412,433,452,473,494,512,533,553,573,593,614,633,653,673,692,713,734,753,774,793,813,834,853,873,894,913,933,953,972,993,1014,1033,1054,1073,1093,1113,1133,1153,1174,1193,1213,1234,1253,1273,1294,1312,1333,1353,1373,1393,1413,1432,1452,1473,1493,1513,1534,1553,1573,1592,1614,1633,1654,1673,1693,1714,1734,1753,1774,1792],"xSR":741.5,"ySR":573.95,"xT1":424.9,"yT1":0,"xT2":1058.1,"yT2":0,"toosoon":0,"cond_shown":"equaldotanddens","ratio_trial":900,"smaller_num":"18","larger_num":"20","correct_side":1,"subjID":"anasofiaortegonguachaves6","gender":"1","age":"12","school":"6"},{"start_time":1551892668481,"click_time":1551892670536,"finger_time":1551892669075,"fix_duration":1464.7369607329208,"trial":28,"RT":594,"MT":1461,"sideResp":2,"stimulus":"img/750/randomdotsizeEA/R/12_Ratio_750_L_3_R_4.png","xmouse":[802,802,802,802,802,802,802,802,802,802,802,802,802,801,801,801,801,801,801,800,798,797,797,796,796,796,796,795,795,795,795,799,802,812,814,816,816,816,817,817,817,817,817,817,817,817,817,817,817,816,814,814,813,813,813,813,811,810,809,804,800,794,793,793,788,787,784,784,784,799,800,797,794,793,793,793,793,793,793,815,829,891,943,996,1117,1187,1253,1315,1363,1418,1421,1421,1421,1421,1421,1418,1411,1393,1367,1272,1196,1167,1150],"ymouse":[608,608,608,608,608,608,608,608,608,608,608,608,607,607,607,607,607,607,606,597,590,586,585,583,583,583,583,581,579,569,557,541,533,518,515,513,512,512,510,506,506,505,505,505,505,505,505,504,503,502,502,501,501,501,501,500,500,499,499,497,495,490,490,490,489,488,486,485,474,419,392,379,371,370,370,370,370,369,369,346,333,266,216,175,102,57,8,0,0,0,0,0,0,0,0,0,1,7,15,40,62,72,79],"timestamp_mouse":[17,47,55,75,95,113,134,155,173,193,214,233,254,274,295,315,334,354,374,394,414,434,455,474,494,513,534,553,574,594,613,634,655,675,694,713,735,754,775,794,814,834,855,874,895,913,935,953,975,994,1015,1034,1053,1074,1094,1115,1135,1154,1175,1194,1214,1235,1254,1275,1295,1315,1334,1354,1374,1394,1414,1434,1454,1474,1494,1514,1534,1555,1573,1594,1613,1634,1654,1674,1695,1714,1735,1754,1773,1794,1814,1834,1854,1875,1895,1913,1934,1954,1975,1994,2014,2035,2055],"xSR":741.5,"ySR":573.95,"xT1":424.9,"yT1":0,"xT2":1058.1,"yT2":0,"toosoon":0,"cond_shown":"randomdotsizeEA","ratio_trial":750,"smaller_num":"3","larger_num":"4","correct_side":2,"subjID":"anasofiaortegonguachaves6","gender":"1","age":"12","school":"6"},{"start_time":1551892672270,"click_time":1551892673575,"finger_time":1551892672615,"fix_duration":893.2182198385028,"trial":29,"RT":345,"MT":960,"sideResp":1,"stimulus":"img/750/equaldotanddens/L/6_Ratio_750_L_24_R_18.png","xmouse":[813,813,813,813,813,813,813,813,813,813,813,813,813,813,814,817,826,848,871,883,886,886,886,886,886,886,886,886,886,886,886,886,886,886,886,886,886,886,886,886,886,888,887,887,880,866,866,865,861,853,813,771,730,688,654,598,529,489,465,445,432,432,432,432,432,431],"ymouse":[624,624,624,624,624,624,624,624,624,624,623,623,623,623,621,621,620,614,608,607,609,609,609,609,609,609,609,609,609,609,609,609,609,609,609,609,609,609,609,609,609,603,595,593,580,533,516,504,486,459,318,200,138,89,56,11,0,0,0,0,0,0,0,0,0,2],"timestamp_mouse":[9,26,45,66,85,104,126,144,165,185,204,226,245,265,285,305,325,345,366,385,404,425,446,465,485,505,524,546,565,585,605,625,645,665,686,706,725,746,765,785,804,825,845,865,885,905,925,945,966,985,1004,1025,1045,1065,1084,1105,1125,1145,1164,1185,1204,1226,1246,1265,1285,1305],"xSR":741.5,"ySR":573.95,"xT1":424.9,"yT1":0,"xT2":1058.1,"yT2":0,"toosoon":0,"cond_shown":"equaldotanddens","ratio_trial":750,"smaller_num":"18","larger_num":"24","correct_side":1,"subjID":"anasofiaortegonguachaves6","gender":"1","age":"12","school":"6"},{"start_time":1551892675795,"click_time":1551892676756,"finger_time":1551892676475,"fix_duration":1018.317067241294,"trial":30,"RT":680,"MT":281,"sideResp":1,"stimulus":"img/500/equaldotanddens/L/5_Ratio_500_L_4_R_2.png","xmouse":[769,770,770,770,771,771,771,771,771,771,771,771,771,771,771,771,771,771,771,771,771,771,771,771,771,771,771,771,771,771,771,770,767,758,715,697,676,647,627,602,587,574,560,548,517,496,480,456,435],"ymouse":[591,593,598,598,606,606,606,606,606,606,606,606,606,606,606,606,606,606,606,606,606,606,606,606,606,606,606,606,606,606,605,603,597,581,517,489,457,420,394,353,324,294,261,234,187,158,134,101,64],"timestamp_mouse":[1,20,46,60,80,100,120,140,160,180,201,221,239,260,280,300,321,341,360,380,399,420,440,460,479,501,520,540,561,580,599,619,640,660,680,700,721,741,760,780,800,820,841,860,880,899,920,940,961],"xSR":741.5,"ySR":573.95,"xT1":424.9,"yT1":0,"xT2":1058.1,"yT2":0,"toosoon":0,"cond_shown":"equaldotanddens","ratio_trial":500,"smaller_num":"2","larger_num":"4","correct_side":1,"subjID":"anasofiaortegonguachaves6","gender":"1","age":"12","school":"6"},{"start_time":1551892678311,"click_time":1551892679895,"finger_time":1551892679697,"fix_duration":813.0084421589393,"trial":31,"RT":1386,"MT":198,"sideResp":2,"stimulus":"img/900/randomdotsizeEA/R/13_Ratio_900_L_18_R_20.png","xmouse":[774,774,774,774,774,774,774,774,774,774,774,774,774,774,774,774,774,774,774,774,774,774,774,774,774,774,774,774,774,774,774,774,774,774,774,774,774,774,774,774,774,774,774,774,774,774,774,774,774,774,776,776,776,776,776,776,776,776,776,776,776,776,776,776,776,776,776,777,804,843,883,921,964,1019,1027,1030,1037,1045,1055,1060],"ymouse":[647,647,647,647,647,647,647,647,647,647,647,647,647,647,647,647,647,647,647,647,647,647,647,647,647,647,647,647,647,647,647,647,647,647,647,647,647,647,647,647,647,647,647,647,647,647,647,647,647,647,646,645,644,644,644,644,644,644,644,644,644,644,644,644,644,644,644,642,609,556,470,371,284,150,110,82,59,38,17,10],"timestamp_mouse":[8,38,44,64,84,104,124,144,164,183,204,224,244,264,284,304,324,343,364,384,404,424,445,464,485,504,524,544,564,584,603,623,645,664,684,703,725,743,765,784,804,825,845,864,884,904,925,945,963,984,1004,1024,1044,1065,1084,1105,1124,1144,1165,1184,1205,1224,1245,1264,1283,1304,1325,1344,1364,1386,1403,1424,1445,1464,1484,1504,1523,1545,1564,1584],"xSR":741.5,"ySR":573.95,"xT1":424.9,"yT1":0,"xT2":1058.1,"yT2":0,"toosoon":0,"cond_shown":"randomdotsizeEA","ratio_trial":900,"smaller_num":"18","larger_num":"20","correct_side":2,"subjID":"anasofiaortegonguachaves6","gender":"1","age":"12","school":"6"},{"start_time":1551892683157,"click_time":1551892683956,"finger_time":1551892683875,"fix_duration":840.0322475567084,"trial":32,"RT":718,"MT":81,"sideResp":2,"stimulus":"img/250/randomdotsizeEA/R/13_Ratio_250_L_2_R_8.png","xmouse":[767,767,767,767,767,767,767,767,767,767,767,767,767,767,767,767,767,767,767,767,767,767,767,767,767,767,767,767,767,767,767,767,779,788,818,924,971,1011,1045,1081],"ymouse":[663,663,663,663,663,663,663,663,663,663,663,663,663,663,663,663,663,663,663,663,663,663,663,663,663,663,663,663,663,663,663,663,644,628,575,336,248,179,136,98],"timestamp_mouse":[19,40,58,79,99,118,138,158,178,198,218,239,259,278,298,318,338,359,378,398,418,438,458,479,499,518,538,559,578,598,618,639,659,677,699,718,738,758,779,799],"xSR":741.5,"ySR":573.95,"xT1":424.9,"yT1":0,"xT2":1058.1,"yT2":0,"toosoon":0,"cond_shown":"randomdotsizeEA","ratio_trial":250,"smaller_num":"2","larger_num":"8","correct_side":2,"subjID":"anasofiaortegonguachaves6","gender":"1","age":"12","school":"6"},{"start_time":1551892685649,"click_time":1551892686495,"finger_time":1551892686315,"fix_duration":633.2368621960314,"trial":33,"RT":666,"MT":180,"sideResp":2,"stimulus":"img/500/equaldotanddens/R/6_Ratio_500_L_9_R_18.png","xmouse":[767,770,771,772,772,772,772,772,772,772,772,772,772,772,772,772,772,772,772,772,772,772,772,772,772,772,772,772,772,773,775,796,814,834,873,916,1006,1045,1073,1094,1106,1119,1124],"ymouse":[634,636,636,636,636,636,636,636,636,636,636,636,636,636,636,636,636,636,636,636,636,636,636,636,636,636,636,636,636,636,636,614,586,551,492,427,301,248,209,175,147,111,90],"timestamp_mouse":[6,28,46,67,87,106,126,147,166,187,207,226,247,266,286,306,326,346,366,386,407,427,446,466,486,507,527,547,567,586,606,626,647,666,687,706,726,747,766,787,807,826,846],"xSR":741.5,"ySR":573.95,"xT1":424.9,"yT1":0,"xT2":1058.1,"yT2":0,"toosoon":0,"cond_shown":"equaldotanddens","ratio_trial":500,"smaller_num":"9","larger_num":"18","correct_side":2,"subjID":"anasofiaortegonguachaves6","gender":"1","age":"12","school":"6"},{"start_time":1551892688537,"click_time":1551892689596,"finger_time":1551892689276,"fix_duration":1080.2491943422235,"trial":34,"RT":739,"MT":320,"sideResp":1,"stimulus":"img/750/randomdotsizeEA/R/2_Ratio_750_L_6_R_8.png","xmouse":[800,800,800,800,800,800,800,800,800,800,800,800,800,800,800,800,800,800,800,800,800,800,800,800,800,800,800,800,800,800,800,800,800,798,796,795,783,763,747,727,708,648,615,583,558,540,521,511,505,499,493,481,475],"ymouse":[609,609,609,609,609,609,609,609,609,609,609,609,609,609,609,609,609,609,609,609,609,609,609,609,609,609,609,609,609,609,609,609,608,603,591,576,526,486,461,434,409,339,294,248,210,186,159,145,137,128,119,104,97],"timestamp_mouse":[19,47,58,78,98,119,139,158,178,199,219,239,258,279,299,318,338,358,378,399,418,438,458,479,499,518,538,558,578,599,619,639,658,678,699,718,739,758,778,799,818,838,859,878,899,919,938,959,978,997,1019,1038,1059],"xSR":741.5,"ySR":573.95,"xT1":424.9,"yT1":0,"xT2":1058.1,"yT2":0,"toosoon":0,"cond_shown":"randomdotsizeEA","ratio_trial":750,"smaller_num":"6","larger_num":"8","correct_side":2,"subjID":"anasofiaortegonguachaves6","gender":"1","age":"12","school":"6"},{"start_time":1551892691835,"click_time":1551892693415,"finger_time":1551892692816,"fix_duration":1219.3567187041713,"trial":35,"RT":981,"MT":599,"sideResp":1,"stimulus":"img/900/randomdotsizeEA/R/6_Ratio_900_L_9_R_10.png","xmouse":[796,796,796,796,796,796,796,796,796,796,796,796,796,796,796,796,796,796,797,797,799,800,800,800,800,800,800,800,800,800,800,800,800,800,800,800,800,800,800,800,800,801,799,798,798,796,796,796,796,794,793,792,791,789,789,789,788,787,786,781,775,751,723,712,672,638,598,543,522,504,492,483,469,459,446,439,433,431,431,433],"ymouse":[624,624,624,624,624,624,624,624,624,624,624,624,624,624,624,624,624,624,626,626,626,626,626,626,626,626,626,626,626,626,626,626,626,626,626,626,626,626,626,626,626,625,624,620,615,608,601,583,575,566,552,545,540,537,537,537,534,532,530,526,520,495,465,449,392,345,290,212,189,170,161,157,148,141,130,120,110,104,102,97],"timestamp_mouse":[2,21,42,60,80,100,120,140,160,180,200,221,240,260,280,300,321,340,360,380,401,421,441,461,482,500,521,540,560,580,601,620,641,661,680,700,720,740,761,780,801,821,840,860,880,900,921,940,961,981,1001,1021,1041,1060,1081,1101,1121,1140,1160,1180,1200,1221,1241,1260,1280,1300,1320,1341,1360,1380,1401,1420,1441,1460,1480,1500,1521,1540,1561,1580],"xSR":741.5,"ySR":573.95,"xT1":424.9,"yT1":0,"xT2":1058.1,"yT2":0,"toosoon":0,"cond_shown":"randomdotsizeEA","ratio_trial":900,"smaller_num":"9","larger_num":"10","correct_side":2,"subjID":"anasofiaortegonguachaves6","gender":"1","age":"12","school":"6"},{"start_time":1551892694447,"click_time":1551892695795,"finger_time":1551892695375,"fix_duration":250,"trial":36,"RT":928,"MT":420,"sideResp":2,"stimulus":"img/250/equaldotsize/R/6_Ratio_250_L_6_R_24.png","xmouse":[810,810,810,810,810,810,810,810,810,810,810,810,810,810,810,810,810,810,815,821,830,841,841,841,841,841,841,841,841,841,841,841,841,841,841,841,841,841,841,841,841,841,841,841,841,841,847,858,876,914,957,1056,1117,1144,1153,1158,1163,1164,1164,1166,1166,1166,1166,1166,1164,1160,1150,1146],"ymouse":[636,636,636,636,636,636,636,636,636,636,636,636,636,636,636,636,636,636,629,620,608,593,591,591,591,591,591,591,591,591,591,591,591,591,591,591,591,591,591,591,591,591,591,591,591,591,585,566,542,489,429,316,245,206,190,180,163,160,156,150,145,138,134,126,121,116,104,99],"timestamp_mouse":[9,42,48,68,88,108,128,149,168,189,208,228,248,268,289,308,328,348,368,388,409,429,448,469,488,508,528,548,568,589,608,629,648,668,688,708,728,749,768,788,809,828,849,868,889,909,928,948,968,988,1009,1028,1049,1069,1088,1108,1129,1148,1168,1188,1209,1228,1248,1268,1288,1308,1328,1348],"xSR":741.5,"ySR":573.95,"xT1":424.9,"yT1":0,"xT2":1058.1,"yT2":0,"toosoon":0,"cond_shown":"equaldotsize","ratio_trial":250,"smaller_num":"6","larger_num":"24","correct_side":2,"subjID":"anasofiaortegonguachaves6","gender":"1","age":"12","school":"6"},{"start_time":1551892698072,"click_time":1551892700175,"finger_time":1551892698675,"fix_duration":1334.1965828381417,"trial":37,"RT":603,"MT":1500,"sideResp":1,"stimulus":"img/900/equaldotsize/R/12_Ratio_900_L_18_R_20.png","xmouse":[785,785,785,785,785,785,785,785,785,785,785,785,785,785,785,785,785,785,785,785,785,785,785,785,785,785,785,785,785,827,863,879,898,913,920,922,922,922,922,922,922,922,922,922,922,922,922,922,921,920,919,918,918,918,918,917,916,914,912,911,910,910,910,910,910,910,910,910,910,910,908,906,902,897,882,874,870,867,866,865,864,863,863,859,846,830,809,787,762,732,652,592,567,546,518,515,515,513,509,504,492,486,482,477,472,462],"ymouse":[623,623,623,623,623,623,623,623,623,623,623,623,623,623,623,623,623,623,623,623,623,623,623,623,623,623,623,623,621,585,531,488,440,396,372,350,346,344,344,344,344,344,344,344,344,344,344,344,344,345,348,349,350,350,351,355,358,361,364,366,368,368,368,368,368,368,368,368,368,368,369,369,369,369,362,356,353,351,350,350,349,348,348,345,341,337,333,331,326,318,294,270,257,244,226,224,224,222,216,210,195,181,165,149,130,97],"timestamp_mouse":[11,36,44,63,83,103,123,144,163,183,203,223,243,263,283,303,323,343,364,383,404,423,444,463,484,503,523,543,563,584,603,624,644,663,683,703,723,743,764,783,804,823,844,863,883,903,923,943,964,983,1003,1024,1043,1064,1083,1103,1123,1144,1163,1183,1203,1223,1244,1264,1283,1304,1324,1343,1364,1384,1404,1424,1444,1464,1484,1503,1524,1543,1563,1583,1604,1623,1644,1663,1684,1703,1724,1743,1763,1783,1803,1823,1843,1863,1884,1903,1923,1944,1963,1983,2003,2024,2043,2063,2084,2103],"xSR":741.5,"ySR":573.95,"xT1":424.9,"yT1":0,"xT2":1058.1,"yT2":0,"toosoon":0,"cond_shown":"equaldotsize","ratio_trial":900,"smaller_num":"18","larger_num":"20","correct_side":2,"subjID":"anasofiaortegonguachaves6","gender":"1","age":"12","school":"6"},{"start_time":1551892702364,"click_time":1551892703756,"finger_time":1551892703495,"fix_duration":1388.0777049891663,"trial":38,"RT":1131,"MT":261,"sideResp":1,"stimulus":"img/750/randomdotsizeEA/R/5_Ratio_750_L_15_R_20.png","xmouse":[783,783,783,783,783,783,783,783,783,783,783,783,783,783,783,783,783,783,783,783,783,783,783,783,783,783,783,783,783,783,783,783,783,783,783,783,783,783,783,783,783,783,783,784,784,784,784,784,784,784,784,784,784,781,777,753,725,680,654,631,588,561,537,511,496,483,483,483,483,484],"ymouse":[624,624,624,624,624,624,624,624,624,624,624,624,624,624,624,624,624,624,624,624,624,624,624,624,624,624,624,624,624,624,624,624,624,624,624,624,624,624,624,624,624,621,620,620,619,619,619,619,619,619,619,619,619,617,613,592,557,498,462,424,350,305,262,226,204,171,143,130,115,78],"timestamp_mouse":[10,41,51,72,92,111,131,152,171,191,211,231,251,272,291,311,331,351,371,391,411,431,451,472,491,511,530,552,571,592,611,632,652,671,691,712,731,751,771,791,811,831,852,871,891,912,931,951,972,991,1011,1031,1051,1071,1092,1111,1131,1152,1171,1191,1212,1231,1251,1271,1291,1311,1331,1351,1372,1392],"xSR":741.5,"ySR":573.95,"xT1":424.9,"yT1":0,"xT2":1058.1,"yT2":0,"toosoon":0,"cond_shown":"randomdotsizeEA","ratio_trial":750,"smaller_num":"15","larger_num":"20","correct_side":2,"subjID":"anasofiaortegonguachaves6","gender":"1","age":"12","school":"6"},{"start_time":1551892705562,"click_time":1551892706815,"finger_time":1551892705915,"fix_duration":785.312808112852,"trial":39,"RT":353,"MT":900,"sideResp":1,"stimulus":"img/750/equaldotanddens/L/6_Ratio_750_L_24_R_18.png","xmouse":[784,784,784,784,784,784,784,784,784,784,784,784,784,784,784,786,791,796,804,809,815,815,815,815,813,813,812,811,810,808,792,780,763,742,690,663,633,622,619,617,607,598,589,580,577,569,561,555,552,550,542,533,525,523,515,504,492,485,482,480,478,475,472],"ymouse":[640,640,640,640,640,640,640,640,640,640,640,640,640,640,639,628,594,563,524,499,472,466,462,460,456,455,454,452,451,450,444,443,439,435,425,417,401,387,373,356,303,285,269,254,237,191,175,165,161,160,159,157,157,156,148,141,132,126,123,115,108,103,96],"timestamp_mouse":[21,36,53,73,93,113,133,154,173,193,214,233,253,274,294,313,333,353,374,393,413,434,453,473,494,513,534,554,573,593,613,633,653,673,694,713,733,753,773,793,813,833,853,874,893,913,934,953,974,993,1013,1033,1054,1073,1094,1113,1134,1153,1173,1194,1213,1234,1253],"xSR":741.5,"ySR":573.95,"xT1":424.9,"yT1":0,"xT2":1058.1,"yT2":0,"toosoon":0,"cond_shown":"equaldotanddens","ratio_trial":750,"smaller_num":"18","larger_num":"24","correct_side":1,"subjID":"anasofiaortegonguachaves6","gender":"1","age":"12","school":"6"},{"start_time":1551892708186,"click_time":1551892709195,"finger_time":1551892708815,"fix_duration":488.0174205131422,"trial":40,"RT":629,"MT":380,"sideResp":2,"stimulus":"img/900/equaldotanddens/R/3_Ratio_900_L_9_R_10.png","xmouse":[802,802,802,802,802,802,802,802,802,802,802,802,802,802,802,802,802,802,802,802,802,802,802,802,802,802,802,802,802,809,826,871,919,964,1019,1029,1035,1043,1056,1063,1076,1088,1096,1102,1106,1106,1106,1106,1107,1109,1109],"ymouse":[647,647,647,647,647,647,647,647,647,647,647,647,647,647,647,647,647,647,647,647,647,647,647,647,647,647,647,646,644,627,606,554,493,442,345,309,280,244,202,184,165,148,135,125,117,115,115,114,112,100,94],"timestamp_mouse":[9,35,49,69,89,109,129,149,169,190,210,229,249,269,289,310,329,350,370,389,409,429,449,469,490,509,530,550,569,589,609,629,650,669,690,709,729,749,770,789,809,829,848,869,889,910,929,949,969,990,1009],"xSR":741.5,"ySR":573.95,"xT1":424.9,"yT1":0,"xT2":1058.1,"yT2":0,"toosoon":0,"cond_shown":"equaldotanddens","ratio_trial":900,"smaller_num":"9","larger_num":"10","correct_side":2,"subjID":"anasofiaortegonguachaves6","gender":"1","age":"12","school":"6"},{"start_time":1551892711269,"click_time":1551892712396,"finger_time":1551892711975,"fix_duration":1152.0354276206242,"trial":41,"RT":706,"MT":421,"sideResp":2,"stimulus":"img/250/randomdotsizeEA/R/12_Ratio_250_L_5_R_20.png","xmouse":[766,766,766,766,766,766,766,766,766,766,766,766,766,766,766,766,766,766,766,766,766,766,766,766,766,766,766,766,766,766,769,774,778,781,783,796,813,837,869,909,998,1052,1099,1115,1133,1166,1179,1183,1184,1184,1184,1184,1184,1183,1179,1166,1156],"ymouse":[645,645,645,645,645,645,645,645,645,645,645,645,645,645,645,645,645,645,645,645,645,645,645,645,645,645,645,645,645,645,642,631,616,608,600,556,515,466,401,341,232,185,145,128,104,59,43,39,38,37,37,37,36,36,36,36,35],"timestamp_mouse":[11,40,46,66,86,106,127,146,166,186,206,226,247,266,286,307,327,346,366,386,406,426,447,466,486,506,526,547,566,586,606,627,646,666,686,706,726,747,766,786,806,826,846,866,887,906,927,947,966,987,1007,1026,1046,1066,1086,1106,1127],"xSR":741.5,"ySR":573.95,"xT1":424.9,"yT1":0,"xT2":1058.1,"yT2":0,"toosoon":0,"cond_shown":"randomdotsizeEA","ratio_trial":250,"smaller_num":"5","larger_num":"20","correct_side":2,"subjID":"anasofiaortegonguachaves6","gender":"1","age":"12","school":"6"},{"start_time":1551892714734,"click_time":1551892715856,"finger_time":1551892715456,"fix_duration":1177.2384116745,"trial":42,"RT":722,"MT":400,"sideResp":2,"stimulus":"img/500/randomdotsizeEA/R/6_Ratio_500_L_9_R_18.png","xmouse":[794,794,794,794,794,794,794,794,794,794,794,794,794,794,794,794,794,794,794,794,794,794,794,794,794,794,794,794,794,794,794,794,794,794,794,794,852,884,903,916,925,934,941,941,941,944,949,958,961,962,967,973,991,1005,1024,1043,1078],"ymouse":[640,640,640,640,640,640,640,640,640,640,640,640,640,640,640,640,640,640,640,640,640,640,640,640,640,640,640,640,640,640,640,640,640,640,640,639,564,518,486,455,429,396,326,291,258,228,205,170,160,149,132,119,92,78,67,59,47],"timestamp_mouse":[8,21,41,61,82,101,121,141,161,182,201,221,242,261,282,302,321,341,362,381,402,422,441,462,482,501,521,541,561,581,602,621,641,662,682,701,722,741,761,781,801,822,841,861,881,901,921,942,961,981,1002,1021,1042,1062,1082,1102,1122],"xSR":741.5,"ySR":573.95,"xT1":424.9,"yT1":0,"xT2":1058.1,"yT2":0,"toosoon":0,"cond_shown":"randomdotsizeEA","ratio_trial":500,"smaller_num":"9","larger_num":"18","correct_side":2,"subjID":"anasofiaortegonguachaves6","gender":"1","age":"12","school":"6"},{"start_time":1551892718262,"click_time":1551892719395,"finger_time":1551892719055,"fix_duration":1345.7434618768777,"trial":43,"RT":793,"MT":340,"sideResp":1,"stimulus":"img/250/equaldotanddens/L/1_Ratio_250_L_8_R_2.png","xmouse":[770,770,770,770,770,770,770,770,770,770,770,770,770,770,770,770,770,770,770,770,770,770,770,769,769,771,772,772,772,772,772,772,772,772,772,772,772,772,769,740,723,676,630,574,487,463,445,437,428,412,406,402,400,401,410,416,427],"ymouse":[623,623,623,623,623,623,623,623,623,623,623,623,623,623,623,623,623,623,623,623,623,623,623,622,620,612,610,608,608,608,608,608,608,608,608,608,608,602,597,543,503,411,343,274,178,153,136,126,117,93,78,61,40,31,21,20,20],"timestamp_mouse":[16,40,53,73,93,114,134,153,173,193,213,233,253,273,294,314,334,354,374,393,413,433,454,474,493,514,533,553,574,593,613,634,653,674,694,713,734,753,774,793,813,833,853,874,893,912,933,953,973,993,1013,1034,1053,1073,1093,1113,1132],"xSR":741.5,"ySR":573.95,"xT1":424.9,"yT1":0,"xT2":1058.1,"yT2":0,"toosoon":0,"cond_shown":"equaldotanddens","ratio_trial":250,"smaller_num":"2","larger_num":"8","correct_side":1,"subjID":"anasofiaortegonguachaves6","gender":"1","age":"12","school":"6"},{"start_time":1551892721449,"click_time":1551892722796,"finger_time":1551892722355,"fix_duration":1150.0956255868941,"trial":44,"RT":906,"MT":441,"sideResp":1,"stimulus":"img/900/equaldotsize/R/6_Ratio_900_L_9_R_10.png","xmouse":[797,797,797,797,797,797,797,797,797,797,797,797,797,797,797,797,797,797,797,797,797,797,796,796,796,796,795,795,795,795,795,794,794,794,794,793,793,792,792,792,790,788,784,771,754,738,702,683,663,639,617,579,564,546,536,515,509,508,508,508,507,507,505,505,502,498,491,489],"ymouse":[653,653,653,653,653,653,653,653,653,653,653,653,653,653,653,653,653,653,653,653,653,653,651,651,651,649,645,644,644,644,644,643,643,643,642,642,641,640,640,639,635,630,624,599,575,552,502,475,451,422,393,345,325,298,281,237,222,217,211,205,197,192,186,178,161,144,103,84],"timestamp_mouse":[8,26,47,67,87,111,126,147,167,186,206,226,246,267,287,307,326,347,366,387,407,427,447,467,486,507,526,546,566,587,607,626,646,666,686,706,726,746,766,786,807,826,847,865,886,906,927,946,967,986,1007,1026,1046,1067,1086,1106,1126,1146,1167,1186,1206,1227,1246,1266,1286,1306,1326,1346],"xSR":741.5,"ySR":573.95,"xT1":424.9,"yT1":0,"xT2":1058.1,"yT2":0,"toosoon":0,"cond_shown":"equaldotsize","ratio_trial":900,"smaller_num":"9","larger_num":"10","correct_side":2,"subjID":"anasofiaortegonguachaves6","gender":"1","age":"12","school":"6"},{"start_time":1551892724616,"click_time":1551892725495,"finger_time":1551892725056,"fix_duration":1098.0578548122032,"trial":45,"RT":440,"MT":439,"sideResp":2,"stimulus":"img/750/equaldotanddens/R/15_Ratio_750_L_9_R_12.png","xmouse":[788,786,781,781,781,781,781,781,781,781,781,781,781,781,781,781,781,781,781,781,781,781,789,793,800,817,833,854,885,899,914,933,962,1003,1017,1027,1039,1065,1080,1095,1106,1112,1118,1121,1124],"ymouse":[617,610,590,587,587,587,587,587,587,587,587,587,587,587,587,587,587,587,587,587,587,583,566,554,538,506,478,448,402,381,361,336,306,261,245,230,212,179,164,151,143,136,119,108,94],"timestamp_mouse":[2,19,39,59,80,99,119,140,160,180,200,219,239,259,279,299,320,341,359,379,399,419,440,459,479,499,519,539,560,580,599,619,639,659,679,700,720,739,759,779,799,819,839,858,879],"xSR":741.5,"ySR":573.95,"xT1":424.9,"yT1":0,"xT2":1058.1,"yT2":0,"toosoon":0,"cond_shown":"equaldotanddens","ratio_trial":750,"smaller_num":"9","larger_num":"12","correct_side":2,"subjID":"anasofiaortegonguachaves6","gender":"1","age":"12","school":"6"},{"start_time":1551892727795,"click_time":1551892728976,"finger_time":1551892728395,"fix_duration":1457.9564686802405,"trial":46,"RT":600,"MT":581,"sideResp":2,"stimulus":"img/900/equaldotanddens/R/14_Ratio_900_L_18_R_20.png","xmouse":[791,791,791,791,791,791,791,791,791,791,791,791,791,791,791,791,791,791,791,791,791,791,791,791,791,791,791,791,792,799,811,825,839,867,880,898,916,955,991,1006,1016,1025,1033,1049,1054,1055,1055,1054,1054,1051,1051,1051,1058,1078,1085,1089,1089,1089,1089,1089],"ymouse":[617,617,617,617,617,617,617,617,617,617,617,617,617,617,617,617,617,617,616,616,616,616,616,616,616,616,616,616,612,595,573,548,522,477,453,422,392,333,282,261,242,225,210,178,164,154,146,139,135,114,102,85,62,0,0,0,0,0,0,3],"timestamp_mouse":[8,21,40,60,80,100,121,140,160,180,201,221,240,261,280,300,320,340,361,380,401,420,440,461,480,500,520,540,560,580,600,620,640,660,680,700,721,740,760,780,800,820,841,860,880,901,920,941,960,980,1000,1020,1040,1060,1080,1101,1120,1140,1161,1181],"xSR":741.5,"ySR":573.95,"xT1":424.9,"yT1":0,"xT2":1058.1,"yT2":0,"toosoon":0,"cond_shown":"equaldotanddens","ratio_trial":900,"smaller_num":"18","larger_num":"20","correct_side":2,"subjID":"anasofiaortegonguachaves6","gender":"1","age":"12","school":"6"},{"start_time":1551892731799,"click_time":1551892733075,"finger_time":1551892732175,"fix_duration":402.5447606438827,"trial":47,"RT":376,"MT":900,"sideResp":1,"stimulus":"img/500/equaldotanddens/L/10_Ratio_500_L_4_R_2.png","xmouse":[788,788,792,794,795,797,797,797,797,797,797,797,797,797,797,797,805,814,888,931,969,997,1014,1033,1036,1036,1036,1036,1036,1036,1036,1036,1036,1036,1033,1022,1001,967,861,804,754,716,678,613,592,577,570,567,564,564,565,568,580,587,593,595,595,595,586,570,546,518,502,491],"ymouse":[614,614,617,618,619,619,619,619,619,619,619,619,619,619,619,619,613,604,524,452,380,330,297,265,261,261,261,261,261,261,261,261,261,261,260,263,268,279,299,307,314,320,324,320,311,301,288,274,250,241,234,228,210,200,189,186,185,184,173,152,137,118,104,83],"timestamp_mouse":[29,36,57,76,96,117,136,156,177,196,217,236,257,276,296,317,337,356,376,396,416,436,456,477,496,516,536,556,577,596,617,635,657,676,696,716,737,757,776,796,817,837,856,876,896,917,936,956,976,996,1017,1036,1057,1076,1096,1116,1136,1157,1176,1196,1217,1236,1256,1276],"xSR":741.5,"ySR":573.95,"xT1":424.9,"yT1":0,"xT2":1058.1,"yT2":0,"toosoon":0,"cond_shown":"equaldotanddens","ratio_trial":500,"smaller_num":"2","larger_num":"4","correct_side":1,"subjID":"anasofiaortegonguachaves6","gender":"1","age":"12","school":"6"},{"start_time":1551892735146,"click_time":1551892736115,"finger_time":1551892735975,"fix_duration":1090.8775108083298,"trial":48,"RT":829,"MT":140,"sideResp":2,"stimulus":"img/750/randomdotsizeEA/L/6_Ratio_750_L_24_R_18.png","xmouse":[791,791,791,791,791,791,791,791,791,791,791,791,791,791,791,791,791,791,791,791,791,792,792,792,792,792,792,792,792,792,792,792,792,792,792,792,792,794,797,802,812,858,898,931,965,991,1030,1054,1069],"ymouse":[620,620,620,620,620,620,620,620,620,620,620,620,620,620,620,620,620,620,620,620,620,620,618,617,617,617,617,617,617,617,617,617,617,617,617,617,615,612,606,597,579,476,409,346,283,238,169,116,69],"timestamp_mouse":[10,37,49,70,89,109,130,149,170,189,209,230,249,269,290,310,330,349,370,390,410,429,449,469,489,510,529,549,569,590,609,630,649,669,689,710,730,750,769,790,809,829,850,869,890,910,929,949,969],"xSR":741.5,"ySR":573.95,"xT1":424.9,"yT1":0,"xT2":1058.1,"yT2":0,"toosoon":0,"cond_shown":"randomdotsizeEA","ratio_trial":750,"smaller_num":"18","larger_num":"24","correct_side":1,"subjID":"anasofiaortegonguachaves6","gender":"1","age":"12","school":"6"},{"start_time":1551892738216,"click_time":1551892740195,"finger_time":1551892739575,"fix_duration":920.152972158339,"trial":49,"RT":1359,"MT":620,"sideResp":1,"stimulus":"img/500/equaldotanddens/L/10_Ratio_500_L_4_R_2.png","xmouse":[771,771,771,771,771,771,771,771,771,771,771,771,771,771,771,771,771,771,771,771,771,771,771,771,771,771,771,771,771,771,771,771,771,771,771,771,771,771,771,771,771,771,771,771,771,771,771,771,771,771,771,771,771,771,771,771,771,771,771,771,771,771,771,771,771,771,771,748,730,709,688,667,601,561,543,531,526,524,536,559,573,580,586,586,586,586,585,583,582,577,573,569,565,563,559,553,548,531,522],"ymouse":[632,632,632,632,632,632,632,632,632,632,632,632,632,632,632,632,632,632,632,632,632,632,632,632,632,632,632,632,632,632,632,632,630,630,630,630,630,630,630,630,630,630,630,630,630,630,630,630,630,630,630,630,630,630,630,630,630,630,630,630,630,630,630,630,629,621,596,518,485,457,430,408,348,309,291,272,254,210,173,117,78,52,11,5,0,0,0,0,0,0,0,0,4,6,9,14,18,24,26],"timestamp_mouse":[20,39,60,79,99,119,139,159,181,199,220,240,259,279,300,320,340,360,379,400,419,439,460,479,500,520,540,560,579,600,619,640,659,679,699,719,739,759,779,799,820,839,859,879,899,920,940,959,979,1000,1020,1039,1059,1079,1100,1119,1139,1160,1179,1200,1220,1240,1260,1279,1298,1320,1339,1359,1379,1399,1419,1440,1460,1479,1499,1519,1539,1559,1579,1599,1620,1639,1659,1679,1699,1720,1739,1760,1780,1800,1819,1839,1859,1878,1898,1920,1939,1960,1979],"xSR":741.5,"ySR":573.95,"xT1":424.9,"yT1":0,"xT2":1058.1,"yT2":0,"toosoon":0,"cond_shown":"equaldotanddens","ratio_trial":500,"smaller_num":"2","larger_num":"4","correct_side":1,"subjID":"anasofiaortegonguachaves6","gender":"1","age":"12","school":"6"},{"start_time":1551892741708,"click_time":1551892742915,"finger_time":1551892742475,"fix_duration":751.6782857231552,"trial":50,"RT":767,"MT":440,"sideResp":2,"stimulus":"img/900/equaldotsize/R/13_Ratio_900_L_18_R_20.png","xmouse":[775,775,775,775,775,775,775,775,775,775,775,775,775,775,775,775,775,775,775,775,775,775,775,775,775,775,775,775,775,775,775,775,775,775,779,784,789,796,814,823,831,842,857,892,904,913,924,936,967,974,980,988,996,1012,1016,1022,1025,1028,1040,1053,1064],"ymouse":[623,623,623,623,623,623,623,623,623,623,623,623,623,623,623,623,623,623,623,623,623,623,623,623,623,623,623,623,623,623,623,623,623,623,616,604,590,574,533,514,492,466,436,371,343,313,286,262,213,200,189,178,169,149,142,136,130,125,108,91,78],"timestamp_mouse":[8,37,48,67,88,108,127,147,168,187,208,228,248,268,287,307,327,347,368,388,408,427,447,468,487,508,528,547,568,588,607,628,647,667,687,707,728,747,767,787,807,827,847,867,888,907,927,948,967,987,1008,1027,1047,1067,1087,1107,1127,1148,1167,1187,1207],"xSR":741.5,"ySR":573.95,"xT1":424.9,"yT1":0,"xT2":1058.1,"yT2":0,"toosoon":0,"cond_shown":"equaldotsize","ratio_trial":900,"smaller_num":"18","larger_num":"20","correct_side":2,"subjID":"anasofiaortegonguachaves6","gender":"1","age":"12","school":"6"},{"start_time":1551892744049,"click_time":1551892745276,"finger_time":1551892744756,"fix_duration":250,"trial":51,"RT":707,"MT":520,"sideResp":1,"stimulus":"img/250/randomdotsizeEA/L/15_Ratio_250_L_12_R_3.png","xmouse":[804,804,804,804,804,804,804,804,804,804,804,804,804,804,804,804,804,804,804,804,804,804,804,804,804,804,800,799,798,797,796,791,785,767,746,715,637,593,544,499,469,438,429,419,414,410,411,416,419,423,427,445,456,462,464,466,468,468,469,469,469,469],"ymouse":[621,621,621,621,621,621,621,621,621,621,621,621,621,621,621,621,621,621,621,621,621,621,621,621,621,621,620,619,618,617,616,611,608,596,583,560,491,448,394,343,303,233,209,188,168,153,134,127,124,120,119,116,114,112,112,111,109,109,108,106,102,95],"timestamp_mouse":[9,39,48,67,88,107,127,149,168,187,207,228,248,268,288,308,328,347,367,389,408,428,449,467,487,508,527,548,568,587,607,629,647,667,689,707,727,748,767,787,808,827,849,868,887,907,927,948,968,987,1008,1027,1047,1068,1088,1108,1129,1147,1167,1188,1208,1227],"xSR":741.5,"ySR":573.95,"xT1":424.9,"yT1":0,"xT2":1058.1,"yT2":0,"toosoon":0,"cond_shown":"randomdotsizeEA","ratio_trial":250,"smaller_num":"3","larger_num":"12","correct_side":1,"subjID":"anasofiaortegonguachaves6","gender":"1","age":"12","school":"6"},{"start_time":1551892749067,"click_time":1551892750896,"finger_time":1551892750557,"fix_duration":1369.644360989003,"trial":52,"RT":1490,"MT":339,"sideResp":1,"stimulus":"img/750/equaldotanddens/R/11_Ratio_750_L_12_R_16.png","xmouse":[779,779,779,779,779,779,779,779,779,779,779,779,779,779,779,779,779,779,779,779,779,779,779,779,779,779,779,779,779,779,779,779,779,779,780,780,780,781,782,782,784,784,784,784,784,784,784,784,784,784,784,784,784,784,784,784,784,784,784,784,784,784,784,784,784,784,784,784,784,784,784,784,781,779,786,787,773,742,708,691,670,663,648,638,630,610,601,593,588,570,555,523],"ymouse":[620,622,623,624,624,624,621,620,620,620,620,620,620,620,620,620,620,620,620,620,620,620,620,620,620,620,620,620,620,621,623,624,625,625,626,626,626,626,626,626,626,625,623,621,621,621,621,621,621,621,621,621,621,621,621,621,621,621,621,621,621,621,621,621,621,621,621,621,621,620,618,617,612,606,546,486,398,323,276,252,228,217,191,178,165,133,121,109,99,68,50,27],"timestamp_mouse":[18,30,49,71,90,109,129,149,169,189,209,230,250,269,290,311,329,350,371,390,411,429,449,470,489,509,530,550,570,589,609,630,649,670,689,710,729,749,769,789,810,829,850,870,889,909,929,951,970,989,1009,1030,1049,1070,1089,1109,1129,1149,1171,1191,1210,1229,1251,1270,1289,1310,1329,1350,1369,1390,1410,1430,1450,1470,1490,1509,1530,1551,1570,1589,1609,1629,1649,1669,1690,1710,1730,1749,1771,1791,1809,1829],"xSR":741.5,"ySR":573.95,"xT1":424.9,"yT1":0,"xT2":1058.1,"yT2":0,"toosoon":0,"cond_shown":"equaldotanddens","ratio_trial":750,"smaller_num":"12","larger_num":"16","correct_side":2,"subjID":"anasofiaortegonguachaves6","gender":"1","age":"12","school":"6"},{"start_time":1551892752569,"click_time":1551892753477,"finger_time":1551892753276,"fix_duration":709.6815785082358,"trial":53,"RT":707,"MT":201,"sideResp":2,"stimulus":"img/500/randomdotsizeEA/R/2_Ratio_500_L_3_R_6.png","xmouse":[778,778,778,778,778,778,778,778,778,778,778,778,778,778,778,778,778,778,778,778,778,778,778,778,778,778,778,778,778,778,778,778,778,778,780,785,805,823,853,887,971,1000,1020,1032,1045,1061],"ymouse":[605,605,605,605,605,605,605,605,605,605,605,605,605,605,605,605,605,605,605,605,605,605,605,605,605,605,605,605,605,605,605,605,605,598,590,555,498,441,376,308,192,155,121,95,63,26],"timestamp_mouse":[8,28,47,68,88,107,129,148,167,188,207,229,247,268,288,309,329,347,367,388,407,428,447,468,487,507,527,547,568,588,608,627,648,668,688,707,728,748,767,788,808,828,849,867,887,908],"xSR":741.5,"ySR":573.95,"xT1":424.9,"yT1":0,"xT2":1058.1,"yT2":0,"toosoon":0,"cond_shown":"randomdotsizeEA","ratio_trial":500,"smaller_num":"3","larger_num":"6","correct_side":2,"subjID":"anasofiaortegonguachaves6","gender":"1","age":"12","school":"6"},{"start_time":1551892755773,"click_time":1551892756956,"finger_time":1551892756257,"fix_duration":1114.1422719093962,"trial":54,"RT":484,"MT":699,"sideResp":1,"stimulus":"img/900/equaldotanddens/L/2_Ratio_900_L_20_R_18.png","xmouse":[786,786,786,786,786,786,786,786,786,786,786,786,786,786,786,786,786,786,786,786,787,787,787,787,786,786,786,786,786,786,786,786,786,786,786,786,786,786,786,786,783,775,759,730,687,601,552,532,523,515,506,505,504,504,504,504,504,503,502,500],"ymouse":[613,613,613,613,613,613,613,613,613,613,613,613,613,613,613,613,613,613,613,613,602,592,581,575,569,567,567,567,567,567,567,567,567,567,567,567,567,567,567,567,567,566,550,517,454,319,222,176,150,132,116,114,111,111,110,110,109,106,101,93],"timestamp_mouse":[11,23,45,63,83,103,123,143,163,183,203,224,244,263,283,304,323,343,365,384,403,423,444,463,484,504,524,544,564,583,604,624,644,664,684,703,723,744,763,784,804,824,844,863,884,903,923,944,964,985,1003,1024,1043,1064,1084,1104,1124,1143,1164,1183],"xSR":741.5,"ySR":573.95,"xT1":424.9,"yT1":0,"xT2":1058.1,"yT2":0,"toosoon":0,"cond_shown":"equaldotanddens","ratio_trial":900,"smaller_num":"18","larger_num":"20","correct_side":1,"subjID":"anasofiaortegonguachaves6","gender":"1","age":"12","school":"6"},{"start_time":1551892758549,"click_time":1551892760316,"finger_time":1551892759176,"fix_duration":571.4801522221651,"trial":55,"RT":627,"MT":1140,"sideResp":1,"stimulus":"img/500/randomdotsizeEA/L/11_Ratio_500_L_12_R_6.png","xmouse":[797,797,797,797,797,797,797,797,797,797,797,797,797,797,797,797,797,797,797,797,797,797,797,797,797,797,795,794,794,794,794,800,810,818,828,839,902,919,972,984,990,993,994,994,994,994,994,994,994,994,994,994,994,994,994,995,995,995,995,995,995,995,994,991,985,977,952,920,885,846,748,699,642,588,538,497,438,425,423,423,421,420,419,419,419,421,422,423,426],"ymouse":[664,664,664,664,664,664,664,664,664,664,664,664,664,664,664,664,664,664,664,664,664,664,664,664,664,664,664,658,645,625,600,545,512,477,439,401,285,261,198,178,166,156,155,155,155,155,155,155,155,155,155,155,155,155,154,152,152,152,152,152,152,152,153,155,159,165,178,186,195,202,207,207,207,204,195,182,166,164,163,163,162,152,142,130,113,90,81,75,68],"timestamp_mouse":[9,39,48,67,87,108,129,148,167,188,207,228,247,268,287,307,328,347,368,388,407,427,448,467,489,508,527,548,567,587,608,627,647,668,687,708,728,747,767,787,807,827,847,868,889,908,928,947,968,988,1007,1028,1047,1068,1089,1109,1127,1147,1167,1189,1207,1228,1247,1267,1289,1308,1327,1347,1368,1389,1408,1427,1447,1469,1487,1508,1527,1547,1568,1588,1607,1627,1647,1668,1688,1709,1727,1747,1767],"xSR":741.5,"ySR":573.95,"xT1":424.9,"yT1":0,"xT2":1058.1,"yT2":0,"toosoon":0,"cond_shown":"randomdotsizeEA","ratio_trial":500,"smaller_num":"6","larger_num":"12","correct_side":1,"subjID":"anasofiaortegonguachaves6","gender":"1","age":"12","school":"6"},{"start_time":1551892762545,"click_time":1551892763317,"finger_time":1551892763177,"fix_duration":1185.7862029784515,"trial":56,"RT":632,"MT":140,"sideResp":1,"stimulus":"img/250/equaldotanddens/L/15_Ratio_250_L_12_R_3.png","xmouse":[786,786,786,786,786,786,786,786,786,786,786,786,786,786,786,786,786,786,786,786,786,786,786,786,786,786,786,786,786,786,786,775,751,711,668,627,552,504,489],"ymouse":[620,620,620,620,620,620,620,620,620,620,620,620,620,620,620,620,620,620,620,620,620,620,620,620,620,620,620,620,616,605,584,512,438,349,277,224,148,104,88],"timestamp_mouse":[12,42,52,71,92,112,131,151,173,191,211,232,252,272,291,311,331,352,371,393,411,431,452,471,491,513,531,551,571,591,611,632,652,672,693,712,731,751,771],"xSR":741.5,"ySR":573.95,"xT1":424.9,"yT1":0,"xT2":1058.1,"yT2":0,"toosoon":0,"cond_shown":"equaldotanddens","ratio_trial":250,"smaller_num":"3","larger_num":"12","correct_side":1,"subjID":"anasofiaortegonguachaves6","gender":"1","age":"12","school":"6"},{"start_time":1551892764938,"click_time":1551892765976,"finger_time":1551892765776,"fix_duration":800.0078448362334,"trial":57,"RT":838,"MT":200,"sideResp":2,"stimulus":"img/900/equaldotanddens/L/10_Ratio_900_L_20_R_18.png","xmouse":[785,785,785,785,785,785,785,785,785,785,785,785,785,785,785,785,785,785,785,785,785,785,785,785,785,785,785,785,785,785,785,783,783,783,783,783,783,783,783,783,783,788,803,824,848,871,926,974,1007,1037,1055,1074],"ymouse":[611,611,611,611,611,611,611,611,611,611,611,611,611,611,611,611,611,611,611,611,611,611,611,611,611,611,611,611,611,611,607,601,600,600,600,600,600,600,600,599,597,567,526,472,416,367,247,170,127,88,64,34],"timestamp_mouse":[19,39,59,79,100,118,138,158,178,198,218,238,260,278,298,318,339,359,378,400,418,439,459,480,498,518,539,559,578,600,619,639,659,678,698,718,739,758,778,798,819,838,858,879,899,919,940,959,978,999,1018,1038],"xSR":741.5,"ySR":573.95,"xT1":424.9,"yT1":0,"xT2":1058.1,"yT2":0,"toosoon":0,"cond_shown":"equaldotanddens","ratio_trial":900,"smaller_num":"18","larger_num":"20","correct_side":1,"subjID":"anasofiaortegonguachaves6","gender":"1","age":"12","school":"6"},{"start_time":1551892767529,"click_time":1551892768937,"finger_time":1551892768296,"fix_duration":451.9810191968207,"trial":58,"RT":767,"MT":641,"sideResp":2,"stimulus":"img/500/equaldotanddens/R/6_Ratio_500_L_9_R_18.png","xmouse":[808,808,808,808,808,808,808,808,808,808,808,808,808,808,808,808,808,808,808,808,808,808,808,808,808,806,804,802,801,801,801,801,801,801,801,803,805,819,897,1024,1169,1307,1522,1522,1522,1522,1522,1522,1579,1572,1567,1564,1527,1494,1436,1378,1321,1241,1210,1206,1206,1206,1206,1206,1206,1205,1204,1200,1188,1173,1148],"ymouse":[600,600,600,600,600,600,600,600,600,600,600,600,600,600,600,600,600,600,600,600,600,599,598,598,598,598,597,594,593,593,593,593,593,593,591,590,590,584,523,412,292,189,28,28,28,28,28,28,0,0,0,0,0,0,11,31,54,93,110,113,113,113,113,113,113,113,108,79,61,51,40],"timestamp_mouse":[14,38,48,68,89,107,128,147,167,188,208,229,247,267,288,308,329,347,368,387,407,427,447,468,487,507,528,549,567,588,608,628,647,668,688,707,728,748,767,787,808,828,849,869,888,909,929,948,969,989,1008,1027,1047,1068,1087,1108,1129,1149,1168,1187,1207,1228,1249,1268,1287,1309,1328,1348,1367,1387,1408],"xSR":741.5,"ySR":573.95,"xT1":424.9,"yT1":0,"xT2":1058.1,"yT2":0,"toosoon":0,"cond_shown":"equaldotanddens","ratio_trial":500,"smaller_num":"9","larger_num":"18","correct_side":2,"subjID":"anasofiaortegonguachaves6","gender":"1","age":"12","school":"6"},{"start_time":1551892770148,"click_time":1551892771277,"finger_time":1551892770696,"fix_duration":309.37134200071057,"trial":59,"RT":548,"MT":581,"sideResp":1,"stimulus":"img/900/equaldotanddens/R/7_Ratio_900_L_9_R_10.png","xmouse":[802,802,802,802,802,802,802,802,802,802,802,802,802,802,802,802,802,801,800,800,800,800,800,799,798,797,795,789,782,776,765,746,737,729,724,716,686,664,640,627,614,545,483,421,383,362,359,360,366,373,376,381,383,386,391,400,435],"ymouse":[617,617,617,617,617,617,617,617,617,617,617,617,617,617,617,617,617,617,613,607,602,599,598,597,594,590,583,572,564,555,541,504,479,451,430,415,381,365,343,325,307,249,219,195,184,177,175,172,167,160,155,146,141,136,129,122,94],"timestamp_mouse":[8,30,49,68,89,109,130,148,168,188,209,230,248,268,288,309,328,349,369,388,409,430,448,468,488,509,528,548,568,588,609,628,648,669,688,708,728,749,769,788,809,830,850,868,888,909,928,950,970,989,1008,1028,1048,1069,1089,1108,1129],"xSR":741.5,"ySR":573.95,"xT1":424.9,"yT1":0,"xT2":1058.1,"yT2":0,"toosoon":0,"cond_shown":"equaldotanddens","ratio_trial":900,"smaller_num":"9","larger_num":"10","correct_side":2,"subjID":"anasofiaortegonguachaves6","gender":"1","age":"12","school":"6"},{"start_time":1551892772688,"click_time":1551892773498,"finger_time":1551892773336,"fix_duration":250,"trial":60,"RT":648,"MT":162,"sideResp":1,"stimulus":"img/500/equaldotsize/L/10_Ratio_500_L_4_R_2.png","xmouse":[792,792,792,792,792,792,792,792,792,792,792,792,792,792,792,792,792,792,792,792,792,792,792,792,792,792,792,792,792,792,783,768,746,722,672,643,616,592,570,528,516],"ymouse":[644,644,644,644,644,644,644,644,644,644,644,644,644,644,644,644,644,644,644,644,644,644,644,644,644,644,644,644,644,641,622,585,536,469,309,211,142,97,68,27,18],"timestamp_mouse":[11,43,49,69,90,109,128,148,168,189,209,228,249,269,288,308,329,349,368,390,409,428,448,470,488,509,529,548,568,588,609,629,648,669,688,708,729,748,769,788,809],"xSR":741.5,"ySR":573.95,"xT1":424.9,"yT1":0,"xT2":1058.1,"yT2":0,"toosoon":0,"cond_shown":"equaldotsize","ratio_trial":500,"smaller_num":"2","larger_num":"4","correct_side":1,"subjID":"anasofiaortegonguachaves6","gender":"1","age":"12","school":"6"},{"start_time":1551892774808,"click_time":1551892776317,"finger_time":1551892775838,"fix_duration":569.9521240456262,"trial":61,"RT":1030,"MT":479,"sideResp":2,"stimulus":"img/750/randomdotsizeEA/R/7_Ratio_750_L_3_R_4.png","xmouse":[810,810,810,810,810,810,810,810,810,810,810,810,810,810,810,810,810,810,809,809,809,809,809,809,809,809,809,809,809,809,809,809,809,809,809,809,809,809,809,809,809,809,809,809,809,809,809,809,812,818,825,831,841,863,884,901,915,929,946,957,971,986,1001,1025,1031,1034,1035,1037,1039,1040,1041,1043,1046,1050,1053,1060],"ymouse":[602,602,602,602,602,602,602,602,602,602,602,602,602,602,602,602,602,602,602,602,602,602,602,602,602,602,602,602,602,602,602,602,602,602,602,602,602,602,602,602,602,602,602,602,602,602,602,602,599,589,577,562,541,490,445,407,368,326,266,241,209,172,134,71,60,52,50,48,46,46,45,45,44,42,41,40],"timestamp_mouse":[8,34,50,70,89,108,129,149,169,189,209,230,248,269,288,309,330,348,368,390,409,429,449,469,490,509,529,548,570,588,608,628,648,668,688,710,728,748,769,788,808,829,849,868,888,910,929,949,968,989,1009,1030,1049,1068,1088,1108,1129,1149,1168,1189,1209,1229,1249,1268,1289,1308,1328,1348,1369,1389,1408,1428,1450,1468,1488,1508],"xSR":741.5,"ySR":573.95,"xT1":424.9,"yT1":0,"xT2":1058.1,"yT2":0,"toosoon":0,"cond_shown":"randomdotsizeEA","ratio_trial":750,"smaller_num":"3","larger_num":"4","correct_side":2,"subjID":"anasofiaortegonguachaves6","gender":"1","age":"12","school":"6"},{"start_time":1551892777468,"click_time":1551892778498,"finger_time":1551892778296,"fix_duration":250,"trial":62,"RT":828,"MT":202,"sideResp":2,"stimulus":"img/900/equaldotsize/R/14_Ratio_900_L_18_R_20.png","xmouse":[789,789,789,789,789,789,789,789,789,789,789,789,789,789,789,789,789,789,789,789,789,789,789,789,789,789,789,789,789,789,789,789,789,789,789,789,789,789,789,789,807,865,925,989,1052,1115,1120,1120,1119,1115,1112,1124],"ymouse":[632,632,632,632,632,632,632,632,632,632,632,632,632,632,632,632,632,632,632,632,632,632,632,632,632,632,632,632,632,632,632,632,632,632,632,632,632,632,632,630,604,542,481,418,355,262,234,209,183,153,101,70],"timestamp_mouse":[11,38,48,68,89,108,130,148,169,188,209,228,249,269,288,308,329,349,368,389,408,429,448,468,488,509,530,550,568,590,608,628,648,669,689,709,728,748,770,788,809,828,849,869,888,908,928,949,968,988,1009,1030],"xSR":741.5,"ySR":573.95,"xT1":424.9,"yT1":0,"xT2":1058.1,"yT2":0,"toosoon":0,"cond_shown":"equaldotsize","ratio_trial":900,"smaller_num":"18","larger_num":"20","correct_side":2,"subjID":"anasofiaortegonguachaves6","gender":"1","age":"12","school":"6"},{"start_time":1551892784933,"click_time":1551892786076,"finger_time":1551892785597,"fix_duration":1316.1150154240547,"trial":63,"RT":664,"MT":479,"sideResp":1,"stimulus":"img/500/equaldotanddens/L/7_Ratio_500_L_10_R_5.png","xmouse":[790,790,790,790,790,790,790,790,790,790,790,790,790,790,790,790,790,790,790,790,790,790,790,790,790,790,790,790,790,790,789,783,764,720,637,531,431,332,325,327,346,363,362,349,332,317,307,307,323,346,371,396,409,410,410,411,414,436],"ymouse":[614,614,614,614,614,614,614,614,614,614,614,614,614,614,614,614,614,614,614,614,614,614,614,614,614,614,614,614,614,614,614,609,588,563,543,527,514,481,445,379,296,231,179,159,141,129,121,119,103,88,72,62,56,56,56,56,56,68],"timestamp_mouse":[10,23,43,64,83,103,123,143,164,184,204,224,244,264,283,303,324,343,364,384,405,424,443,463,483,504,524,543,565,583,603,623,644,664,684,704,723,743,76