[{"start_time":1551892964717,"click_time":1551892966984,"finger_time":1551892964726,"fix_duration":710.4430290249742,"trial":0,"RT":9,"MT":2258,"sideResp":2,"stimulus":"img/500/equaldotsize/L/5_Ratio_500_L_4_R_2.png","xmouse":[810,810,810,810,810,810,810,810,810,810,810,810,810,810,810,810,810,810,810,810,810,810,810,810,810,810,810,810,810,810,810,810,810,810,810,810,810,810,810,810,810,810,810,810,810,810,810,810,810,810,810,810,810,810,810,810,810,810,810,810,810,810,810,807,790,786,783,783,783,783,783,783,783,781,776,772,765,759,753,752,751,750,750,749,746,744,740,736,721,709,699,686,673,656,633,620,608,600,597,596,596,596,596,596,601,610,627,653,703,841,912,987,1055,1149],"ymouse":[460,460,460,460,460,460,460,460,460,460,460,460,460,460,460,460,460,460,460,460,460,460,460,460,460,460,460,460,460,460,460,460,460,460,460,460,460,460,460,460,460,460,460,460,460,460,460,460,460,460,460,460,460,460,460,460,460,460,460,460,460,460,461,461,459,458,457,457,457,457,457,457,457,456,453,450,444,439,433,431,430,429,429,427,420,415,409,404,385,369,355,338,320,298,269,254,243,237,235,233,232,230,229,228,223,217,207,197,182,141,122,100,81,56],"timestamp_mouse":[9,25,45,67,86,106,126,145,166,186,206,226,247,267,285,307,326,345,365,386,406,425,445,465,486,506,527,547,566,586,606,627,647,666,685,706,726,747,767,786,805,826,845,867,887,907,926,945,965,987,1006,1027,1045,1067,1086,1105,1126,1146,1167,1186,1206,1226,1246,1265,1285,1306,1327,1346,1366,1386,1406,1426,1445,1466,1486,1506,1526,1546,1566,1586,1605,1626,1647,1667,1686,1706,1726,1746,1767,1786,1806,1827,1847,1865,1885,1906,1926,1946,1966,1987,2006,2025,2047,2066,2087,2106,2126,2146,2166,2186,2207,2227,2246,2266],"xSR":741.5,"ySR":449.15000000000003,"xT1":424.9,"yT1":0,"xT2":1058.1,"yT2":0,"toosoon":0,"cond_shown":"equaldotsize","ratio_trial":500,"smaller_num":"2","larger_num":"4","correct_side":1,"subjID":"MariaIsabelKuanCruz23","gender":"1","age":"11","school":"6","test":{"fix_dur":[250,1500],"timestim":300,"targets_dim":[100,100],"targets_relative_coord":[0.3,0.7],"size_stim":[880,420],"start_dim":[100,100],"size_start":[300,300],"size_fix":60,"samplingrate":20,"img_types":["equaldotsize","equaldotanddens","randomdotsizeEA"],"ratios":[250,500,750,900],"rep_conds":9,"nTrials":120,"trials_to_rest":500,"Trials_order":[111,22,96,24,54,90,56,92,108,51,71,82,27,84,17,74,23,40,63,55,68,83,117,11,52,89,77,60,93,101,53,37,25,36,5,20,30,87,46,66,49,35,98,105,43,113,9,81,119,75,72,118,1,73,104,29,91,16,95,8,2,67,45,88,103,31,12,34,19,44,28,97,15,58,47,100,21,69,3,7,14,64,62,99,57,116,6,112,80,107,10,106,4,109,115,78,48,65,61,102,70,38,85,110,26,42,32,94,18,33,76,86,79,13,0,39,114,50,41,59],"cond_shown":["equaldotsize","equaldotanddens","equaldotsize","equaldotsize","equaldotsize","equaldotsize","randomdotsizeEA","randomdotsizeEA","equaldotsize","equaldotsize","randomdotsizeEA","equaldotanddens","equaldotsize","equaldotsize","randomdotsizeEA","randomdotsizeEA","randomdotsizeEA","equaldotanddens","equaldotsize","equaldotanddens","randomdotsizeEA","randomdotsizeEA","equaldotsize","randomdotsizeEA","equaldotanddens","randomdotsizeEA","randomdotsizeEA","equaldotsize","equaldotsize","randomdotsizeEA","randomdotsizeEA","equaldotanddens","equaldotanddens","equaldotsize","randomdotsizeEA","randomdotsizeEA","equaldotsize","equaldotsize","equaldotanddens","equaldotsize","equaldotanddens","randomdotsizeEA","randomdotsizeEA","equaldotsize","equaldotanddens","randomdotsizeEA","equaldotsize","equaldotsize","randomdotsizeEA","equaldotsize","equaldotsize","equaldotanddens","equaldotanddens","equaldotanddens","randomdotsizeEA","randomdotsizeEA","equaldotanddens","equaldotanddens","randomdotsizeEA","randomdotsizeEA","randomdotsizeEA","equaldotanddens","equaldotsize","equaldotanddens","equaldotanddens","equaldotanddens","equaldotsize","equaldotanddens","equaldotanddens","randomdotsizeEA","equaldotanddens","equaldotanddens","equaldotsize","equaldotanddens","randomdotsizeEA","equaldotanddens","equaldotsize","equaldotsize","equaldotsize","equaldotanddens","randomdotsizeEA","equaldotanddens","randomdotsizeEA","equaldotsize","equaldotsize","randomdotsizeEA","equaldotsize","equaldotanddens","randomdotsizeEA","randomdotsizeEA","equaldotanddens","equaldotanddens","equaldotanddens","equaldotanddens","equaldotanddens","equaldotsize","equaldotsize","randomdotsizeEA","equaldotanddens","equaldotsize","equaldotanddens","randomdotsizeEA","equaldotanddens","randomdotsizeEA","randomdotsizeEA","equaldotsize","randomdotsizeEA","equaldotanddens","equaldotsize","equaldotsize","equaldotanddens","randomdotsizeEA","equaldotanddens","equaldotanddens","equaldotsize","equaldotsize","equaldotsize","randomdotsizeEA","randomdotsizeEA","randomdotsizeEA"],"ratio_trial":[500,900,250,250,750,750,750,750,250,500,900,900,500,250,500,250,900,500,500,750,750,900,900,900,500,500,500,250,900,500,500,250,250,250,500,750,750,500,900,750,250,900,250,900,750,500,900,900,900,500,250,900,250,250,750,500,750,500,900,750,250,750,900,500,750,750,250,900,750,750,500,250,500,900,900,500,900,900,500,750,250,500,250,500,900,750,750,500,750,900,900,900,500,250,750,750,250,500,250,750,900,250,250,250,250,750,750,900,750,900,500,250,750,250,250,500,750,250,500,900],"smaller_num":["2","18","3","4","3","15","9","12","5","2","18","18","1","4","6","3","9","6","2","15","3","18","18","9","1","10","2","3","9","2","2","3","1","5","9","3","15","4","18","6","5","9","2","18","12","5","9","9","18","5","3","18","6","3","18","5","6","2","18","18","6","6","18","2","15","3","2","18","3","9","3","5","9","18","9","6","18","18","4","9","4","5","3","9","18","3","3","10","3","18","18","18","4","4","15","15","4","10","3","6","9","2","6","3","2","3","6","9","6","18","6","3","12","3","2","3","15","3","1","9"],"larger_num":["4","20","12","16","4","20","12","16","20","4","20","20","2","16","12","12","10","12","4","20","4","20","20","10","2","20","4","12","10","4","4","12","4","20","18","4","20","8","20","8","20","10","8","20","16","10","10","10","20","10","12","20","24","12","24","10","8","4","20","24","24","8","20","4","20","4","8","20","4","12","6","20","18","20","10","12","20","20","8","12","16","10","12","18","20","4","4","20","4","20","20","20","8","16","20","20","16","20","12","8","10","8","24","12","8","4","8","10","8","20","12","12","16","12","8","6","20","12","2","10"],"correct_side":[1,1,1,2,1,2,2,2,2,2,1,1,2,2,1,1,2,1,1,2,1,1,2,2,2,2,2,2,2,2,1,1,2,2,1,1,1,1,2,1,2,2,1,1,2,2,2,2,2,1,1,2,2,2,1,2,2,2,1,1,2,1,1,2,2,1,1,1,1,2,2,2,2,1,1,1,1,1,1,2,2,1,1,1,2,2,2,2,1,1,1,1,1,2,2,2,1,2,1,1,2,1,1,2,1,1,2,1,1,2,1,2,2,1,2,2,2,2,2,2],"img_shown":["img/500/equaldotsize/L/5_Ratio_500_L_4_R_2.png","img/900/equaldotanddens/L/4_Ratio_900_L_20_R_18.png","img/250/equaldotsize/L/15_Ratio_250_L_12_R_3.png","img/250/equaldotsize/R/10_Ratio_250_L_4_R_16.png","img/750/equaldotsize/L/9_Ratio_750_L_4_R_3.png","img/750/equaldotsize/R/4_Ratio_750_L_15_R_20.png","img/750/randomdotsizeEA/R/15_Ratio_750_L_9_R_12.png","img/750/randomdotsizeEA/R/11_Ratio_750_L_12_R_16.png","img/250/equaldotsize/R/12_Ratio_250_L_5_R_20.png","img/500/equaldotsize/R/9_Ratio_500_L_2_R_4.png","img/900/randomdotsizeEA/L/10_Ratio_900_L_20_R_18.png","img/900/equaldotanddens/L/10_Ratio_900_L_20_R_18.png","img/500/equaldotsize/R/12_Ratio_500_L_1_R_2.png","img/250/equaldotsize/R/10_Ratio_250_L_4_R_16.png","img/500/randomdotsizeEA/L/13_Ratio_500_L_12_R_6.png","img/250/randomdotsizeEA/L/14_Ratio_250_L_12_R_3.png","img/900/randomdotsizeEA/R/5_Ratio_900_L_9_R_10.png","img/500/equaldotanddens/L/13_Ratio_500_L_12_R_6.png","img/500/equaldotsize/L/5_Ratio_500_L_4_R_2.png","img/750/equaldotanddens/R/3_Ratio_750_L_15_R_20.png","img/750/randomdotsizeEA/L/9_Ratio_750_L_4_R_3.png","img/900/randomdotsizeEA/L/4_Ratio_900_L_20_R_18.png","img/900/equaldotsize/R/14_Ratio_900_L_18_R_20.png","img/900/randomdotsizeEA/R/3_Ratio_900_L_9_R_10.png","img/500/equaldotanddens/R/15_Ratio_500_L_1_R_2.png","img/500/randomdotsizeEA/R/3_Ratio_500_L_10_R_20.png","img/500/randomdotsizeEA/R/9_Ratio_500_L_2_R_4.png","img/250/equaldotsize/R/11_Ratio_250_L_3_R_12.png","img/900/equaldotsize/R/5_Ratio_900_L_9_R_10.png","img/500/randomdotsizeEA/R/9_Ratio_500_L_2_R_4.png","img/500/randomdotsizeEA/L/10_Ratio_500_L_4_R_2.png","img/250/equaldotanddens/L/14_Ratio_250_L_12_R_3.png","img/250/equaldotanddens/R/8_Ratio_250_L_1_R_4.png","img/250/equaldotsize/R/12_Ratio_250_L_5_R_20.png","img/500/randomdotsizeEA/L/4_Ratio_500_L_18_R_9.png","img/750/randomdotsizeEA/L/9_Ratio_750_L_4_R_3.png","img/750/equaldotsize/L/1_Ratio_750_L_20_R_15.png","img/500/equaldotsize/L/8_Ratio_500_L_8_R_4.png","img/900/equaldotanddens/R/14_Ratio_900_L_18_R_20.png","img/750/equaldotsize/L/14_Ratio_750_L_8_R_6.png","img/250/equaldotanddens/R/12_Ratio_250_L_5_R_20.png","img/900/randomdotsizeEA/R/7_Ratio_900_L_9_R_10.png","img/250/randomdotsizeEA/L/3_Ratio_250_L_8_R_2.png","img/900/equaldotsize/L/4_Ratio_900_L_20_R_18.png","img/750/equaldotanddens/R/11_Ratio_750_L_12_R_16.png","img/500/randomdotsizeEA/R/14_Ratio_500_L_5_R_10.png","img/900/equaldotsize/R/6_Ratio_900_L_9_R_10.png","img/900/equaldotsize/R/7_Ratio_900_L_9_R_10.png","img/900/randomdotsizeEA/R/14_Ratio_900_L_18_R_20.png","img/500/equaldotsize/L/7_Ratio_500_L_10_R_5.png","img/250/equaldotsize/L/15_Ratio_250_L_12_R_3.png","img/900/equaldotanddens/R/12_Ratio_900_L_18_R_20.png","img/250/equaldotanddens/R/6_Ratio_250_L_6_R_24.png","img/250/equaldotanddens/R/4_Ratio_250_L_3_R_12.png","img/750/randomdotsizeEA/L/6_Ratio_750_L_24_R_18.png","img/500/randomdotsizeEA/R/14_Ratio_500_L_5_R_10.png","img/750/equaldotanddens/R/2_Ratio_750_L_6_R_8.png","img/500/equaldotanddens/R/9_Ratio_500_L_2_R_4.png","img/900/randomdotsizeEA/L/2_Ratio_900_L_20_R_18.png","img/750/randomdotsizeEA/L/6_Ratio_750_L_24_R_18.png","img/250/randomdotsizeEA/R/6_Ratio_250_L_6_R_24.png","img/750/equaldotanddens/L/13_Ratio_750_L_8_R_6.png","img/900/equaldotsize/L/10_Ratio_900_L_20_R_18.png","img/500/equaldotanddens/R/9_Ratio_500_L_2_R_4.png","img/750/equaldotanddens/R/3_Ratio_750_L_15_R_20.png","img/750/equaldotanddens/L/10_Ratio_750_L_4_R_3.png","img/250/equaldotsize/L/7_Ratio_250_L_8_R_2.png","img/900/equaldotanddens/L/10_Ratio_900_L_20_R_18.png","img/750/equaldotanddens/L/10_Ratio_750_L_4_R_3.png","img/750/randomdotsizeEA/R/15_Ratio_750_L_9_R_12.png","img/500/equaldotanddens/R/2_Ratio_500_L_3_R_6.png","img/250/equaldotanddens/R/12_Ratio_250_L_5_R_20.png","img/500/equaldotsize/R/6_Ratio_500_L_9_R_18.png","img/900/equaldotanddens/L/10_Ratio_900_L_20_R_18.png","img/900/randomdotsizeEA/L/1_Ratio_900_L_10_R_9.png","img/500/equaldotanddens/L/11_Ratio_500_L_12_R_6.png","img/900/equaldotsize/L/8_Ratio_900_L_20_R_18.png","img/900/equaldotsize/L/4_Ratio_900_L_20_R_18.png","img/500/equaldotsize/L/8_Ratio_500_L_8_R_4.png","img/750/equaldotanddens/R/15_Ratio_750_L_9_R_12.png","img/250/randomdotsizeEA/R/10_Ratio_250_L_4_R_16.png","img/500/equaldotanddens/L/7_Ratio_500_L_10_R_5.png","img/250/randomdotsizeEA/L/14_Ratio_250_L_12_R_3.png","img/500/equaldotsize/L/4_Ratio_500_L_18_R_9.png","img/900/equaldotsize/R/13_Ratio_900_L_18_R_20.png","img/750/randomdotsizeEA/R/7_Ratio_750_L_3_R_4.png","img/750/equaldotsize/R/12_Ratio_750_L_3_R_4.png","img/500/equaldotanddens/R/3_Ratio_500_L_10_R_20.png","img/750/randomdotsizeEA/L/10_Ratio_750_L_4_R_3.png","img/900/randomdotsizeEA/L/8_Ratio_900_L_20_R_18.png","img/900/equaldotanddens/L/2_Ratio_900_L_20_R_18.png","img/900/equaldotanddens/L/8_Ratio_900_L_20_R_18.png","img/500/equaldotanddens/L/8_Ratio_500_L_8_R_4.png","img/250/equaldotanddens/R/10_Ratio_250_L_4_R_16.png","img/750/equaldotanddens/R/5_Ratio_750_L_15_R_20.png","img/750/equaldotsize/R/3_Ratio_750_L_15_R_20.png","img/250/equaldotsize/L/2_Ratio_250_L_16_R_4.png","img/500/randomdotsizeEA/R/3_Ratio_500_L_10_R_20.png","img/250/equaldotanddens/L/14_Ratio_250_L_12_R_3.png","img/750/equaldotsize/L/13_Ratio_750_L_8_R_6.png","img/900/equaldotanddens/R/6_Ratio_900_L_9_R_10.png","img/250/randomdotsizeEA/L/7_Ratio_250_L_8_R_2.png","img/250/equaldotanddens/L/5_Ratio_250_L_24_R_6.png","img/250/randomdotsizeEA/R/4_Ratio_250_L_3_R_12.png","img/250/randomdotsizeEA/L/3_Ratio_250_L_8_R_2.png","img/750/equaldotsize/L/8_Ratio_750_L_4_R_3.png","img/750/randomdotsizeEA/R/2_Ratio_750_L_6_R_8.png","img/900/equaldotanddens/L/1_Ratio_900_L_10_R_9.png","img/750/equaldotsize/L/13_Ratio_750_L_8_R_6.png","img/900/equaldotsize/R/12_Ratio_900_L_18_R_20.png","img/500/equaldotanddens/L/11_Ratio_500_L_12_R_6.png","img/250/randomdotsizeEA/R/11_Ratio_250_L_3_R_12.png","img/750/equaldotanddens/R/11_Ratio_750_L_12_R_16.png","img/250/equaldotanddens/L/15_Ratio_250_L_12_R_3.png","img/250/equaldotsize/R/13_Ratio_250_L_2_R_8.png","img/500/equaldotsize/R/2_Ratio_500_L_3_R_6.png","img/750/equaldotsize/R/3_Ratio_750_L_15_R_20.png","img/250/randomdotsizeEA/R/9_Ratio_250_L_3_R_12.png","img/500/randomdotsizeEA/R/15_Ratio_500_L_1_R_2.png","img/900/randomdotsizeEA/R/6_Ratio_900_L_9_R_10.png"],"Rat0":[["12_Ratio_0_L_9_R_0.png","13_Ratio_0_L_6_R_0.png","5_Ratio_0_L_2_R_0.png","6_Ratio_0_L_4_R_0.png","8_Ratio_0_L_6_R_0.png"],["1_Ratio_0_L_0_R_17.png","10_Ratio_0_L_0_R_22.png","11_Ratio_0_L_0_R_1.png","14_Ratio_0_L_0_R_24.png","15_Ratio_0_L_0_R_4.png","2_Ratio_0_L_0_R_5.png","3_Ratio_0_L_0_R_17.png","4_Ratio_0_L_0_R_7.png","7_Ratio_0_L_0_R_19.png","9_Ratio_0_L_0_R_15.png"]],"Rat250":[["1_Ratio_250_L_8_R_2.png","14_Ratio_250_L_12_R_3.png","15_Ratio_250_L_12_R_3.png","2_Ratio_250_L_16_R_4.png","3_Ratio_250_L_8_R_2.png","5_Ratio_250_L_24_R_6.png","7_Ratio_250_L_8_R_2.png"],["10_Ratio_250_L_4_R_16.png","11_Ratio_250_L_3_R_12.png","12_Ratio_250_L_5_R_20.png","13_Ratio_250_L_2_R_8.png","4_Ratio_250_L_3_R_12.png","6_Ratio_250_L_6_R_24.png","8_Ratio_250_L_1_R_4.png","9_Ratio_250_L_3_R_12.png"]],"Rat500":[["10_Ratio_500_L_4_R_2.png","11_Ratio_500_L_12_R_6.png","13_Ratio_500_L_12_R_6.png","4_Ratio_500_L_18_R_9.png","5_Ratio_500_L_4_R_2.png","7_Ratio_500_L_10_R_5.png","8_Ratio_500_L_8_R_4.png"],["1_Ratio_500_L_9_R_18.png","12_Ratio_500_L_1_R_2.png","14_Ratio_500_L_5_R_10.png","15_Ratio_500_L_1_R_2.png","2_Ratio_500_L_3_R_6.png","3_Ratio_500_L_10_R_20.png","6_Ratio_500_L_9_R_18.png","9_Ratio_500_L_2_R_4.png"]],"Rat750":[["1_Ratio_750_L_20_R_15.png","10_Ratio_750_L_4_R_3.png","13_Ratio_750_L_8_R_6.png","14_Ratio_750_L_8_R_6.png","6_Ratio_750_L_24_R_18.png","8_Ratio_750_L_4_R_3.png","9_Ratio_750_L_4_R_3.png"],["11_Ratio_750_L_12_R_16.png","12_Ratio_750_L_3_R_4.png","15_Ratio_750_L_9_R_12.png","2_Ratio_750_L_6_R_8.png","3_Ratio_750_L_15_R_20.png","4_Ratio_750_L_15_R_20.png","5_Ratio_750_L_15_R_20.png","7_Ratio_750_L_3_R_4.png"]],"Rat900":[["1_Ratio_900_L_10_R_9.png","10_Ratio_900_L_20_R_18.png","2_Ratio_900_L_20_R_18.png","4_Ratio_900_L_20_R_18.png","8_Ratio_900_L_20_R_18.png"],["11_Ratio_900_L_18_R_20.png","12_Ratio_900_L_18_R_20.png","13_Ratio_900_L_18_R_20.png","14_Ratio_900_L_18_R_20.png","15_Ratio_900_L_9_R_10.png","3_Ratio_900_L_9_R_10.png","5_Ratio_900_L_9_R_10.png","6_Ratio_900_L_9_R_10.png","7_Ratio_900_L_9_R_10.png","9_Ratio_900_L_18_R_20.png"]],"Rat1000":[["10_Ratio_1000_L_16_R_16.png","11_Ratio_1000_L_6_R_6.png","12_Ratio_1000_L_14_R_14.png","13_Ratio_1000_L_20_R_20.png","15_Ratio_1000_L_15_R_15.png","2_Ratio_1000_L_17_R_17.png","4_Ratio_1000_L_9_R_9.png","5_Ratio_1000_L_6_R_6.png","6_Ratio_1000_L_19_R_19.png","8_Ratio_1000_L_14_R_14.png","9_Ratio_1000_L_25_R_25.png"],["1_Ratio_1000_L_1_R_1.png","14_Ratio_1000_L_17_R_17.png","3_Ratio_1000_L_17_R_17.png","7_Ratio_1000_L_6_R_6.png"]]}},{"start_time":1551892968918,"click_time":1551892970583,"finger_time":1551892970184,"fix_duration":873.4073951887481,"trial":1,"RT":1266,"MT":399,"sideResp":1,"stimulus":"img/900/equaldotanddens/L/4_Ratio_900_L_20_R_18.png","xmouse":[832,832,832,832,832,832,832,832,832,832,832,832,832,832,832,832,832,832,832,832,832,832,832,832,832,832,832,832,832,832,832,832,832,832,832,832,832,832,832,832,832,832,832,832,832,832,832,832,832,832,832,832,832,832,832,832,832,832,832,832,832,832,832,820,813,805,796,786,779,769,763,755,744,714,687,667,644,627,596,584,568,549,536,524],"ymouse":[605,605,605,605,605,605,605,605,605,605,605,605,605,605,605,605,605,605,605,605,605,605,605,605,605,605,605,605,605,605,605,605,605,605,605,605,604,604,602,601,600,598,597,595,593,591,590,589,589,589,589,589,589,589,589,589,589,589,589,589,589,586,584,569,559,548,536,522,511,491,478,464,447,407,371,345,314,284,225,196,167,139,122,96],"timestamp_mouse":[10,32,46,66,84,105,125,145,166,184,205,225,245,265,284,305,325,345,365,385,404,425,446,465,486,505,525,544,566,585,605,625,645,665,686,705,726,744,766,785,805,825,845,865,886,905,926,946,966,986,1005,1025,1044,1066,1084,1105,1126,1144,1166,1185,1206,1225,1245,1266,1284,1305,1325,1344,1364,1385,1405,1425,1445,1465,1485,1505,1525,1546,1565,1584,1605,1625,1646,1665],"xSR":741.5,"ySR":573.95,"xT1":424.9,"yT1":0,"xT2":1058.1,"yT2":0,"toosoon":0,"cond_shown":"equaldotanddens","ratio_trial":900,"smaller_num":"18","larger_num":"20","correct_side":1,"subjID":"MariaIsabelKuanCruz23","gender":"1","age":"11","school":"6"},{"start_time":1551892971735,"click_time":1551892973303,"finger_time":1551892972422,"fix_duration":330.0665312404941,"trial":2,"RT":687,"MT":881,"sideResp":1,"stimulus":"img/250/equaldotsize/L/15_Ratio_250_L_12_R_3.png","xmouse":[771,770,770,770,770,770,770,770,770,770,770,770,770,770,770,770,770,770,770,770,770,770,770,770,770,770,770,770,770,775,777,779,781,816,861,918,966,1018,1022,1022,1022,1022,1011,1006,1001,994,988,980,948,924,890,845,793,702,684,672,663,656,644,633,620,610,590,576,572,567,560,548,542,539,536,535,533,531,529,528,528,527,523],"ymouse":[616,616,617,618,618,618,618,618,618,618,618,618,618,618,618,618,618,618,618,618,618,618,618,618,618,618,618,618,618,619,619,619,619,579,526,463,409,353,349,349,349,349,358,360,362,364,365,365,354,341,321,296,263,190,167,151,140,131,122,117,112,108,102,99,97,94,91,83,80,78,76,75,74,71,70,69,68,66,62],"timestamp_mouse":[10,31,48,68,88,109,127,148,169,188,208,227,249,269,289,309,328,348,367,389,408,427,449,469,489,509,529,548,568,588,608,628,649,669,687,709,728,748,767,788,808,828,849,868,887,908,928,948,968,987,1008,1029,1048,1068,1087,1109,1129,1147,1168,1189,1209,1228,1248,1267,1288,1308,1328,1348,1368,1388,1407,1428,1448,1468,1488,1508,1528,1548,1568],"xSR":741.5,"ySR":573.95,"xT1":424.9,"yT1":0,"xT2":1058.1,"yT2":0,"toosoon":0,"cond_shown":"equaldotsize","ratio_trial":250,"smaller_num":"3","larger_num":"12","correct_side":1,"subjID":"MariaIsabelKuanCruz23","gender":"1","age":"11","school":"6"},{"start_time":1551892975159,"click_time":1551892976203,"finger_time":1551892975804,"fix_duration":954.3644895773222,"trial":3,"RT":645,"MT":399,"sideResp":2,"stimulus":"img/250/equaldotsize/R/10_Ratio_250_L_4_R_16.png","xmouse":[800,800,800,800,800,800,800,800,800,800,800,800,800,800,800,800,800,800,800,800,800,800,800,800,800,800,800,800,800,800,800,800,812,833,861,886,929,955,975,989,995,997,999,1000,1003,1005,1010,1016,1025,1031,1038,1047,1066],"ymouse":[607,607,607,607,607,607,607,607,607,607,607,607,607,607,607,607,607,607,607,607,607,607,607,607,607,607,607,607,607,607,607,606,568,520,430,338,209,170,149,138,133,131,128,125,120,118,113,111,108,106,105,102,97],"timestamp_mouse":[8,23,44,64,84,104,125,143,165,184,204,225,245,264,283,303,325,344,363,385,405,423,445,464,484,505,523,544,565,585,604,624,645,664,685,703,725,743,764,785,804,823,845,864,884,905,924,943,964,984,1003,1024,1044],"xSR":741.5,"ySR":573.95,"xT1":424.9,"yT1":0,"xT2":1058.1,"yT2":0,"toosoon":0,"cond_shown":"equaldotsize","ratio_trial":250,"smaller_num":"4","larger_num":"16","correct_side":2,"subjID":"MariaIsabelKuanCruz23","gender":"1","age":"11","school":"6"},{"start_time":1551892977844,"click_time":1551892978723,"finger_time":1551892978564,"fix_duration":559.4086240506963,"trial":4,"RT":720,"MT":159,"sideResp":1,"stimulus":"img/750/equaldotsize/L/9_Ratio_750_L_4_R_3.png","xmouse":[806,806,806,806,806,806,806,806,806,806,806,806,806,806,806,806,806,806,806,806,806,806,806,806,806,806,806,806,806,806,806,806,806,806,803,799,787,741,690,640,585,545,508,504,502],"ymouse":[605,605,605,605,605,605,605,605,605,605,605,605,605,605,605,605,605,605,605,605,605,605,605,605,605,605,605,605,605,605,605,605,605,605,600,593,573,481,356,273,211,175,136,118,94],"timestamp_mouse":[1,19,40,59,79,99,120,138,160,180,199,220,238,259,279,299,318,339,359,379,399,419,438,460,479,499,519,540,560,580,598,620,638,658,679,700,720,739,759,779,799,819,840,859,879],"xSR":741.5,"ySR":573.95,"xT1":424.9,"yT1":0,"xT2":1058.1,"yT2":0,"toosoon":0,"cond_shown":"equaldotsize","ratio_trial":750,"smaller_num":"3","larger_num":"4","correct_side":1,"subjID":"MariaIsabelKuanCruz23","gender":"1","age":"11","school":"6"},{"start_time":1551892979927,"click_time":1551892981023,"finger_time":1551892980603,"fix_duration":380.89312375421457,"trial":5,"RT":676,"MT":420,"sideResp":2,"stimulus":"img/750/equaldotsize/R/4_Ratio_750_L_15_R_20.png","xmouse":[768,768,768,768,768,768,768,768,768,768,768,768,768,768,768,768,768,768,768,768,768,768,768,768,768,768,768,768,768,768,768,768,791,821,859,900,935,986,1006,1018,1024,1027,1030,1032,1034,1039,1046,1053,1061,1064,1068,1071,1083,1085,1088],"ymouse":[608,608,608,608,608,608,608,608,608,608,608,608,608,608,608,608,608,608,608,608,608,608,608,608,608,608,608,608,608,608,608,608,590,568,535,486,427,318,275,247,231,222,210,206,199,188,172,158,138,135,131,128,107,100,94],"timestamp_mouse":[16,39,57,77,95,117,136,155,176,197,215,236,256,277,296,317,337,357,376,395,417,436,455,476,495,517,537,555,575,597,615,637,657,676,696,717,737,757,775,796,817,837,857,875,895,916,936,956,976,996,1015,1036,1057,1075,1096],"xSR":741.5,"ySR":573.95,"xT1":424.9,"yT1":0,"xT2":1058.1,"yT2":0,"toosoon":0,"cond_shown":"equaldotsize","ratio_trial":750,"smaller_num":"15","larger_num":"20","correct_side":2,"subjID":"MariaIsabelKuanCruz23","gender":"1","age":"11","school":"6"},{"start_time":1551892982156,"click_time":1551892983584,"finger_time":1551892983163,"fix_duration":250,"trial":6,"RT":1007,"MT":421,"sideResp":1,"stimulus":"img/750/randomdotsizeEA/R/15_Ratio_750_L_9_R_12.png","xmouse":[804,804,804,804,804,804,804,804,804,804,804,804,804,804,804,804,804,804,804,804,804,804,804,804,804,804,804,804,804,804,804,804,804,804,804,804,804,804,804,804,804,804,804,804,804,804,804,802,800,796,787,774,708,689,658,622,586,579,574,571,569,567,561,558,556,554,551,550,549,545,539,516],"ymouse":[604,604,604,604,604,604,604,604,604,604,604,604,604,604,604,604,604,604,604,604,604,604,604,604,604,604,604,604,604,604,604,604,604,604,604,604,604,604,604,604,604,604,604,604,604,603,601,596,590,574,553,524,403,348,260,189,137,126,116,109,102,93,80,75,74,72,70,70,70,70,70,77],"timestamp_mouse":[10,30,47,66,87,106,127,147,167,187,208,228,247,267,287,307,327,347,366,387,408,427,448,467,486,507,528,547,567,587,606,626,647,666,686,707,726,748,768,786,808,826,846,867,888,907,927,947,966,987,1007,1027,1047,1066,1088,1107,1128,1147,1167,1187,1207,1228,1247,1267,1286,1308,1328,1347,1366,1387,1408,1428],"xSR":741.5,"ySR":573.95,"xT1":424.9,"yT1":0,"xT2":1058.1,"yT2":0,"toosoon":0,"cond_shown":"randomdotsizeEA","ratio_trial":750,"smaller_num":"9","larger_num":"12","correct_side":2,"subjID":"MariaIsabelKuanCruz23","gender":"1","age":"11","school":"6"},{"start_time":1551892985772,"click_time":1551892987224,"finger_time":1551892986844,"fix_duration":1187.2788522568378,"trial":7,"RT":1072,"MT":380,"sideResp":2,"stimulus":"img/750/randomdotsizeEA/R/11_Ratio_750_L_12_R_16.png","xmouse":[787,787,787,787,787,787,787,787,787,787,787,787,787,787,787,787,787,787,787,787,787,787,787,787,787,787,787,787,787,787,787,787,787,787,787,787,787,787,787,787,787,787,787,787,787,787,787,787,787,787,787,787,805,836,866,889,939,972,1007,1033,1066,1107,1124,1139,1148,1151,1143,1134,1125,1110,1083,1083,1083],"ymouse":[619,619,619,619,619,619,619,619,619,619,619,619,619,619,619,619,619,619,619,619,619,619,619,619,619,619,619,619,619,619,619,619,619,619,619,619,619,619,619,619,619,619,619,619,619,619,619,619,619,619,619,618,588,547,516,497,463,447,428,414,391,361,345,323,300,277,247,227,199,162,112,104,97],"timestamp_mouse":[10,33,51,70,91,111,131,150,172,190,212,230,252,271,291,311,332,351,372,392,410,432,450,471,492,511,530,551,571,592,610,630,652,672,691,712,730,751,771,791,811,832,851,871,891,910,932,950,972,991,1010,1031,1050,1072,1091,1111,1131,1151,1171,1191,1210,1231,1251,1271,1291,1311,1331,1352,1372,1392,1412,1430,1451],"xSR":741.5,"ySR":573.95,"xT1":424.9,"yT1":0,"xT2":1058.1,"yT2":0,"toosoon":0,"cond_shown":"randomdotsizeEA","ratio_trial":750,"smaller_num":"12","larger_num":"16","correct_side":2,"subjID":"MariaIsabelKuanCruz23","gender":"1","age":"11","school":"6"},{"start_time":1551892988716,"click_time":1551892989784,"finger_time":1551892989383,"fix_duration":250,"trial":8,"RT":667,"MT":401,"sideResp":2,"stimulus":"img/250/equaldotsize/R/12_Ratio_250_L_5_R_20.png","xmouse":[765,765,765,765,765,765,765,765,765,765,765,765,765,765,765,765,765,765,765,765,765,765,765,765,765,765,765,765,765,765,775,783,805,850,944,991,1036,1074,1106,1172,1189,1202,1212,1213,1217,1217,1213,1208,1201,1184,1174,1166,1162,1149],"ymouse":[642,642,642,642,642,642,642,642,642,642,642,642,642,642,642,642,642,642,642,642,642,642,642,642,642,642,642,642,642,642,629,617,588,531,450,412,381,354,326,249,225,207,189,184,143,125,107,89,74,56,49,46,45,44],"timestamp_mouse":[9,33,48,66,88,106,126,148,168,186,207,227,248,267,287,307,326,347,368,387,407,427,448,467,487,506,528,548,567,587,606,627,647,667,687,707,727,747,766,787,807,827,847,867,888,907,927,947,967,987,1007,1028,1048,1068],"xSR":741.5,"ySR":573.95,"xT1":424.9,"yT1":0,"xT2":1058.1,"yT2":0,"toosoon":0,"cond_shown":"equaldotsize","ratio_trial":250,"smaller_num":"5","larger_num":"20","correct_side":2,"subjID":"MariaIsabelKuanCruz23","gender":"1","age":"11","school":"6"},{"start_time":1551892990856,"click_time":1551892991903,"finger_time":1551892991602,"fix_duration":250,"trial":9,"RT":746,"MT":301,"sideResp":2,"stimulus":"img/500/equaldotsize/R/9_Ratio_500_L_2_R_4.png","xmouse":[786,786,786,786,786,786,786,786,786,786,786,786,786,786,786,786,786,786,786,786,786,786,786,786,786,786,786,786,786,786,786,786,786,786,786,786,786,822,870,920,969,1002,1044,1051,1055,1059,1061,1065,1070,1072,1072,1072,1073],"ymouse":[650,650,650,650,650,650,650,650,650,650,650,650,650,650,650,650,650,650,650,650,650,650,650,650,650,650,650,650,650,650,650,650,650,650,650,647,643,556,485,417,363,325,269,252,240,227,213,183,163,147,134,108,96],"timestamp_mouse":[9,32,47,67,88,108,127,146,168,187,207,227,247,266,288,307,326,346,368,387,407,428,447,467,487,506,528,548,567,587,607,627,647,667,688,707,727,746,767,787,807,827,847,868,887,907,927,948,967,986,1007,1028,1046],"xSR":741.5,"ySR":573.95,"xT1":424.9,"yT1":0,"xT2":1058.1,"yT2":0,"toosoon":0,"cond_shown":"equaldotsize","ratio_trial":500,"smaller_num":"2","larger_num":"4","correct_side":2,"subjID":"MariaIsabelKuanCruz23","gender":"1","age":"11","school":"6"},{"start_time":1551892996123,"click_time":1551892998523,"finger_time":1551892996803,"fix_duration":998.6906146112398,"trial":10,"RT":680,"MT":1720,"sideResp":1,"stimulus":"img/900/randomdotsizeEA/L/10_Ratio_900_L_20_R_18.png","xmouse":[798,798,798,798,798,798,798,798,798,798,798,798,798,798,798,798,798,798,798,798,798,798,798,798,798,798,798,798,798,798,798,798,798,800,821,833,851,872,889,918,930,941,949,955,962,963,967,973,988,995,999,1000,1000,1000,1000,997,991,978,943,904,842,756,596,469,258,201,179,176,176,179,184,190,195,222,245,271,300,324,342,360,363,364,364,364,364,366,368,371,376,385,387,388,389,391,396,399,401,404,406,411,413,416,418,424,425,426,426,426,426,426,426,428,428,429,431,432,432,433,433,433,434],"ymouse":[638,638,638,638,638,638,638,638,638,638,638,638,638,638,638,638,638,638,638,638,638,638,638,638,638,638,638,638,638,638,638,638,637,626,549,493,438,390,352,288,261,239,220,198,174,169,162,155,137,130,126,124,124,124,124,132,142,156,173,179,186,186,186,186,186,186,186,184,184,180,179,177,176,168,161,156,151,148,146,142,142,142,142,142,141,140,138,136,133,129,127,126,124,123,120,119,117,116,115,114,113,113,112,111,111,111,111,111,111,111,110,109,109,107,104,103,103,101,101,100,98],"timestamp_mouse":[8,33,41,61,79,99,120,141,159,179,201,220,239,261,279,300,319,340,360,379,401,421,439,461,480,499,519,539,561,580,599,619,640,661,680,700,720,740,760,780,801,820,839,860,880,900,920,939,960,979,1001,1020,1040,1060,1081,1100,1119,1140,1161,1180,1200,1219,1239,1260,1279,1299,1320,1340,1360,1380,1400,1421,1441,1461,1480,1499,1520,1540,1560,1580,1600,1620,1639,1660,1680,1700,1720,1740,1760,1780,1800,1820,1839,1859,1880,1899,1921,1941,1961,1979,2001,2020,2041,2060,2079,2099,2120,2140,2159,2180,2201,2221,2241,2260,2280,2300,2321,2339,2360,2380,2400],"xSR":741.5,"ySR":573.95,"xT1":424.9,"yT1":0,"xT2":1058.1,"yT2":0,"toosoon":0,"cond_shown":"randomdotsizeEA","ratio_trial":900,"smaller_num":"18","larger_num":"20","correct_side":1,"subjID":"MariaIsabelKuanCruz23","gender":"1","age":"11","school":"6"},{"start_time":1551892999999,"click_time":1551893001143,"finger_time":1551893000643,"fix_duration":534.3680927623567,"trial":11,"RT":644,"MT":500,"sideResp":1,"stimulus":"img/900/equaldotanddens/L/10_Ratio_900_L_20_R_18.png","xmouse":[785,785,785,785,785,785,785,785,785,785,785,785,785,785,785,785,785,785,785,785,785,785,785,785,785,785,785,785,785,785,785,788,805,840,888,896,899,899,893,820,748,671,621,599,588,582,582,583,584,581,576,574,572,572,569,562,543,506],"ymouse":[594,594,594,594,594,594,594,594,594,594,594,594,594,594,594,594,594,594,594,594,594,594,594,594,594,594,594,594,594,594,594,594,569,517,445,427,414,402,393,354,326,284,248,223,198,138,102,72,53,41,38,37,36,34,27,27,29,47],"timestamp_mouse":[18,34,44,64,83,104,124,145,163,184,204,224,244,263,283,303,324,343,364,384,405,425,445,464,485,503,524,545,564,585,604,624,644,664,685,704,725,744,763,784,804,824,845,864,883,904,925,944,965,984,1004,1024,1045,1064,1084,1103,1124,1143],"xSR":741.5,"ySR":573.95,"xT1":424.9,"yT1":0,"xT2":1058.1,"yT2":0,"toosoon":0,"cond_shown":"equaldotanddens","ratio_trial":900,"smaller_num":"18","larger_num":"20","correct_side":1,"subjID":"MariaIsabelKuanCruz23","gender":"1","age":"11","school":"6"},{"start_time":1551893002044,"click_time":1551893003223,"finger_time":1551893002683,"fix_duration":259.14070578965675,"trial":12,"RT":639,"MT":540,"sideResp":2,"stimulus":"img/500/equaldotsize/R/12_Ratio_500_L_1_R_2.png","xmouse":[763,763,763,763,763,763,763,763,763,763,763,763,763,763,763,763,763,763,763,763,763,763,763,763,763,763,763,763,763,780,828,955,1022,1095,1165,1235,1325,1337,1337,1336,1329,1314,1304,1295,1285,1272,1265,1258,1256,1254,1248,1237,1211,1199,1193,1187,1179,1164,1152],"ymouse":[654,654,654,654,654,654,654,654,654,654,654,654,654,654,654,654,654,654,654,654,654,654,654,654,654,654,654,654,654,635,585,469,413,364,322,274,173,130,110,94,81,62,51,44,39,37,36,34,33,32,31,31,27,22,20,17,15,15,18],"timestamp_mouse":[20,39,59,80,100,120,140,159,178,199,220,238,260,280,298,319,339,359,380,398,420,440,459,479,499,519,539,560,579,598,620,639,659,678,700,719,739,758,779,799,819,839,858,880,899,919,939,960,979,998,1019,1039,1058,1079,1099,1120,1139,1159,1179],"xSR":741.5,"ySR":573.95,"xT1":424.9,"yT1":0,"xT2":1058.1,"yT2":0,"toosoon":0,"cond_shown":"equaldotsize","ratio_trial":500,"smaller_num":"1","larger_num":"2","correct_side":2,"subjID":"MariaIsabelKuanCruz23","gender":"1","age":"11","school":"6"},{"start_time":1551893004215,"click_time":1551893005124,"finger_time":1551893004844,"fix_duration":250,"trial":13,"RT":629,"MT":280,"sideResp":2,"stimulus":"img/250/equaldotsize/R/10_Ratio_250_L_4_R_16.png","xmouse":[762,762,762,762,762,762,762,762,762,762,762,762,762,762,762,762,762,762,762,762,762,762,762,762,762,762,762,762,762,762,764,787,817,878,904,932,961,998,1047,1063,1066,1066,1066,1066,1068,1070],"ymouse":[601,601,601,601,601,601,601,601,601,601,601,601,601,601,601,601,601,601,601,601,601,601,601,601,601,601,601,601,601,601,593,553,500,405,367,330,291,239,171,146,140,139,137,132,108,91],"timestamp_mouse":[11,35,48,68,87,109,128,148,169,189,209,227,248,269,287,308,328,349,369,388,407,429,448,468,487,509,528,548,567,588,608,629,649,668,687,708,728,748,768,788,808,828,847,868,888,909],"xSR":741.5,"ySR":573.95,"xT1":424.9,"yT1":0,"xT2":1058.1,"yT2":0,"toosoon":0,"cond_shown":"equaldotsize","ratio_trial":250,"smaller_num":"4","larger_num":"16","correct_side":2,"subjID":"MariaIsabelKuanCruz23","gender":"1","age":"11","school":"6"},{"start_time":1551893006811,"click_time":1551893008103,"finger_time":1551893007683,"fix_duration":926.1288090174631,"trial":14,"RT":872,"MT":420,"sideResp":1,"stimulus":"img/500/randomdotsizeEA/L/13_Ratio_500_L_12_R_6.png","xmouse":[799,799,799,799,799,799,799,799,799,799,799,799,799,799,799,799,799,799,799,799,799,799,799,799,799,799,799,799,799,799,799,799,799,799,800,801,803,804,804,804,804,804,806,810,810,810,806,799,770,727,686,638,594,528,512,510,509,505,501,498,497,496,496,496,490],"ymouse":[621,621,621,621,621,621,621,621,621,621,621,621,621,621,621,621,621,621,621,621,621,621,621,621,621,621,621,621,621,621,621,621,621,612,599,592,586,584,584,584,584,583,577,564,553,541,532,524,507,484,435,343,212,7,0,0,0,0,0,0,0,0,0,0,19],"timestamp_mouse":[12,35,51,72,92,113,133,153,173,192,212,231,253,271,292,312,333,351,373,393,412,433,453,473,492,512,532,552,572,591,612,632,652,673,692,713,732,753,773,791,813,832,852,872,891,912,932,952,972,991,1011,1033,1053,1072,1092,1112,1133,1153,1173,1192,1212,1233,1253,1273,1292],"xSR":741.5,"ySR":573.95,"xT1":424.9,"yT1":0,"xT2":1058.1,"yT2":0,"toosoon":0,"cond_shown":"randomdotsizeEA","ratio_trial":500,"smaller_num":"6","larger_num":"12","correct_side":1,"subjID":"MariaIsabelKuanCruz23","gender":"1","age":"11","school":"6"},{"start_time":1551893011646,"click_time":1551893012784,"finger_time":1551893012383,"fix_duration":720.1585810612559,"trial":15,"RT":737,"MT":401,"sideResp":1,"stimulus":"img/250/randomdotsizeEA/L/14_Ratio_250_L_12_R_3.png","xmouse":[799,799,799,799,799,799,799,799,799,799,799,799,799,799,799,799,799,799,799,799,799,799,799,799,799,799,799,799,799,799,799,799,799,799,799,794,767,621,551,496,461,444,414,399,390,382,375,375,376,386,394,403,421,423,425,426,439],"ymouse":[603,603,603,603,603,603,603,603,603,603,603,603,603,603,603,603,603,603,603,603,603,603,603,603,603,603,603,603,603,603,603,603,603,603,597,587,554,395,328,275,237,201,126,91,73,59,45,37,30,17,7,0,0,0,0,0,15],"timestamp_mouse":[17,38,57,79,98,117,137,158,177,197,218,237,257,277,298,319,337,357,377,397,417,438,458,478,498,519,538,557,577,599,617,637,657,677,697,717,737,758,777,798,817,837,857,877,898,917,938,958,977,997,1017,1037,1057,1078,1097,1117,1138],"xSR":741.5,"ySR":573.95,"xT1":424.9,"yT1":0,"xT2":1058.1,"yT2":0,"toosoon":0,"cond_shown":"randomdotsizeEA","ratio_trial":250,"smaller_num":"3","larger_num":"12","correct_side":1,"subjID":"MariaIsabelKuanCruz23","gender":"1","age":"11","school":"6"},{"start_time":1551893014505,"click_time":1551893015503,"finger_time":1551893015183,"fix_duration":820.7077923702169,"trial":16,"RT":678,"MT":320,"sideResp":1,"stimulus":"img/900/randomdotsizeEA/R/5_Ratio_900_L_9_R_10.png","xmouse":[784,784,784,784,784,784,784,784,784,784,784,784,784,784,784,784,784,784,784,784,784,784,784,784,784,784,784,784,784,784,782,781,768,752,699,669,634,601,574,551,547,545,542,539,537,535,533,530,525,513],"ymouse":[640,640,640,640,640,640,640,640,640,640,640,640,640,640,640,640,640,640,640,640,640,640,640,640,640,640,640,640,640,640,638,631,587,554,459,413,359,300,250,205,195,186,177,163,139,127,117,110,104,95],"timestamp_mouse":[19,40,59,80,99,118,139,158,178,198,219,238,259,278,299,319,338,358,379,399,419,439,458,479,498,518,538,558,579,599,619,638,658,678,699,718,739,759,780,798,818,838,859,878,899,918,939,959,978,998],"xSR":741.5,"ySR":573.95,"xT1":424.9,"yT1":0,"xT2":1058.1,"yT2":0,"toosoon":0,"cond_shown":"randomdotsizeEA","ratio_trial":900,"smaller_num":"9","larger_num":"10","correct_side":2,"subjID":"MariaIsabelKuanCruz23","gender":"1","age":"11","school":"6"},{"start_time":1551893019772,"click_time":1551893021143,"finger_time":1551893020343,"fix_duration":1387.6689343806047,"trial":17,"RT":571,"MT":800,"sideResp":1,"stimulus":"img/500/equaldotanddens/L/13_Ratio_500_L_12_R_6.png","xmouse":[785,785,785,785,785,785,785,785,785,785,785,785,785,785,785,785,786,791,801,807,809,809,809,809,809,811,813,824,845,891,947,968,984,997,1009,1019,1025,1025,1025,1025,981,841,757,654,547,354,283,229,200,182,171,169,177,188,207,231,287,323,350,366,385,396,397,397,397,397,408,422,429],"ymouse":[638,638,638,638,638,638,638,638,638,638,638,638,638,638,638,638,637,636,633,631,630,630,630,630,630,630,625,604,564,462,364,333,309,287,266,246,227,227,227,226,244,268,268,268,263,234,224,216,207,199,184,164,154,144,136,129,113,102,94,90,87,85,85,85,85,85,82,78,76],"timestamp_mouse":[12,31,51,71,91,112,131,153,172,191,213,231,251,271,291,312,331,351,371,392,411,432,451,473,491,512,531,551,571,591,612,631,651,671,691,711,733,752,771,792,811,832,852,872,891,912,931,951,972,991,1011,1031,1051,1073,1092,1112,1131,1152,1171,1193,1211,1231,1251,1271,1291,1312,1331,1351,1371],"xSR":741.5,"ySR":573.95,"xT1":424.9,"yT1":0,"xT2":1058.1,"yT2":0,"toosoon":0,"cond_shown":"equaldotanddens","ratio_trial":500,"smaller_num":"6","larger_num":"12","correct_side":1,"subjID":"MariaIsabelKuanCruz23","gender":"1","age":"11","school":"6"},{"start_time":1551893022332,"click_time":1551893023284,"finger_time":1551893023043,"fix_duration":386.6574026203001,"trial":18,"RT":711,"MT":241,"sideResp":1,"stimulus":"img/500/equaldotsize/L/5_Ratio_500_L_4_R_2.png","xmouse":[768,768,768,768,768,768,768,768,768,768,768,768,768,768,768,768,768,768,768,768,768,768,768,768,768,768,768,768,768,768,768,768,768,768,755,705,646,598,534,512,498,490,486,482,480,477,476,475],"ymouse":[601,601,601,601,601,601,601,601,601,601,601,601,601,601,601,601,601,601,601,601,601,601,601,601,601,601,601,601,601,601,601,601,601,601,580,509,428,357,245,206,183,168,155,132,123,113,103,79],"timestamp_mouse":[15,35,53,71,91,112,132,152,172,192,213,232,251,272,291,311,333,353,372,392,412,432,452,471,491,511,531,552,571,591,612,631,652,672,691,711,731,752,771,792,811,832,851,872,891,913,932,952],"xSR":741.5,"ySR":573.95,"xT1":424.9,"yT1":0,"xT2":1058.1,"yT2":0,"toosoon":0,"cond_shown":"equaldotsize","ratio_trial":500,"smaller_num":"2","larger_num":"4","correct_side":1,"subjID":"MariaIsabelKuanCruz23","gender":"1","age":"11","school":"6"},{"start_time":1551893025142,"click_time":1551893026243,"finger_time":1551893025903,"fix_duration":1058.203715148563,"trial":19,"RT":761,"MT":340,"sideResp":2,"stimulus":"img/750/equaldotanddens/R/3_Ratio_750_L_15_R_20.png","xmouse":[765,765,765,765,765,765,765,765,765,765,765,765,765,765,765,765,765,765,765,765,765,765,765,765,765,765,765,765,765,765,765,765,765,765,765,765,767,769,776,776,770,763,759,790,859,939,997,1070,1085,1092,1098,1101,1105,1106,1106,1105],"ymouse":[613,613,613,613,613,613,613,613,613,613,613,613,613,613,613,613,613,613,613,613,613,613,613,613,613,613,613,613,613,613,613,613,613,613,613,613,613,607,561,537,513,496,485,430,362,295,253,206,193,185,177,169,153,124,107,95],"timestamp_mouse":[8,22,43,61,81,101,121,142,162,181,201,221,243,262,282,301,323,341,362,381,402,421,441,463,483,502,522,541,562,582,603,621,641,662,682,703,721,741,761,781,802,821,841,861,882,901,922,942,961,982,1001,1022,1042,1061,1081,1101],"xSR":741.5,"ySR":573.95,"xT1":424.9,"yT1":0,"xT2":1058.1,"yT2":0,"toosoon":0,"cond_shown":"equaldotanddens","ratio_trial":750,"smaller_num":"15","larger_num":"20","correct_side":2,"subjID":"MariaIsabelKuanCruz23","gender":"1","age":"11","school":"6"},{"start_time":1551893028716,"click_time":1551893029784,"finger_time":1551893029364,"fix_duration":250,"trial":20,"RT":648,"MT":420,"sideResp":1,"stimulus":"img/750/randomdotsizeEA/L/9_Ratio_750_L_4_R_3.png","xmouse":[794,794,794,794,794,794,794,794,794,794,794,794,794,794,794,794,794,794,794,794,794,794,794,794,794,794,794,794,794,794,794,793,785,774,742,728,712,691,662,603,585,576,575,572,550,529,503,484,472,471,470,469,466,456],"ymouse":[626,626,626,626,626,626,626,626,626,626,626,626,626,626,626,626,626,626,626,626,626,626,626,626,626,626,626,626,626,623,605,579,549,524,458,434,404,370,328,259,242,236,236,232,205,187,167,154,144,143,140,133,124,95],"timestamp_mouse":[9,32,48,67,88,107,128,147,167,187,209,227,248,267,287,309,328,347,367,387,407,427,447,467,487,507,528,548,569,587,607,627,648,668,687,707,728,748,767,787,807,827,848,868,887,907,927,947,969,987,1008,1027,1047,1068],"xSR":741.5,"ySR":573.95,"xT1":424.9,"yT1":0,"xT2":1058.1,"yT2":0,"toosoon":0,"cond_shown":"randomdotsizeEA","ratio_trial":750,"smaller_num":"3","larger_num":"4","correct_side":1,"subjID":"MariaIsabelKuanCruz23","gender":"1","age":"11","school":"6"},{"start_time":1551893031581,"click_time":1551893032525,"finger_time":1551893032223,"fix_duration":795.9338430625577,"trial":21,"RT":642,"MT":302,"sideResp":1,"stimulus":"img/900/randomdotsizeEA/L/4_Ratio_900_L_20_R_18.png","xmouse":[781,781,781,781,781,781,781,781,781,781,781,781,781,781,781,781,781,781,781,781,781,781,781,781,781,781,781,781,781,781,781,772,755,723,682,611,597,588,582,575,568,550,539,527,518,501,488,474],"ymouse":[620,620,620,620,620,620,620,620,620,620,620,620,620,620,620,620,620,620,620,620,620,620,620,620,620,620,620,620,620,620,620,589,539,468,406,327,306,283,257,238,214,184,168,155,144,123,108,96],"timestamp_mouse":[8,36,42,62,83,102,122,142,162,182,202,223,244,264,282,302,324,342,363,382,403,424,443,462,482,504,524,543,562,582,602,623,642,662,682,703,722,742,762,782,803,823,843,862,883,903,922,943],"xSR":741.5,"ySR":573.95,"xT1":424.9,"yT1":0,"xT2":1058.1,"yT2":0,"toosoon":0,"cond_shown":"randomdotsizeEA","ratio_trial":900,"smaller_num":"18","larger_num":"20","correct_side":1,"subjID":"MariaIsabelKuanCruz23","gender":"1","age":"11","school":"6"},{"start_time":1551893033970,"click_time":1551893035103,"finger_time":1551893034604,"fix_duration":886.8815462406619,"trial":22,"RT":634,"MT":499,"sideResp":1,"stimulus":"img/900/equaldotsize/R/14_Ratio_900_L_18_R_20.png","xmouse":[808,808,808,808,808,808,808,808,808,808,808,808,808,808,808,808,808,808,808,808,808,808,808,808,808,808,808,808,808,810,822,857,892,933,962,975,977,976,974,969,956,824,727,626,548,498,462,454,452,452,451,451,452,458,463,474,476],"ymouse":[622,622,622,622,622,622,622,622,622,622,622,622,622,622,622,622,622,622,622,622,622,622,622,622,622,622,622,622,622,620,594,522,444,352,282,250,236,233,233,233,236,244,231,218,207,200,182,177,173,170,164,148,139,126,117,103,96],"timestamp_mouse":[14,41,53,74,94,114,133,154,173,193,213,233,253,274,293,314,334,354,373,394,414,434,454,473,493,513,533,554,573,593,614,634,653,674,693,713,733,753,773,794,813,834,853,873,894,913,933,953,974,993,1013,1033,1053,1073,1094,1114,1133],"xSR":741.5,"ySR":573.95,"xT1":424.9,"yT1":0,"xT2":1058.1,"yT2":0,"toosoon":0,"cond_shown":"equaldotsize","ratio_trial":900,"smaller_num":"18","larger_num":"20","correct_side":2,"subjID":"MariaIsabelKuanCruz23","gender":"1","age":"11","school":"6"},{"start_time":1551893037039,"click_time":1551893038086,"finger_time":1551893037703,"fix_duration":1213.3680355862064,"trial":23,"RT":664,"MT":383,"sideResp":1,"stimulus":"img/900/randomdotsizeEA/R/3_Ratio_900_L_9_R_10.png","xmouse":[786,786,786,786,786,786,786,786,786,786,786,786,786,786,786,786,786,786,786,786,786,786,786,786,786,786,786,786,786,786,786,786,783,760,722,673,612,540,426,413,410,410,417,420,422,423,423,423,423,423,423,424,438],"ymouse":[629,629,629,629,629,629,629,629,629,629,629,629,629,629,629,629,629,629,629,629,629,629,629,629,629,629,629,629,629,629,629,629,620,573,506,428,343,258,125,104,89,73,43,29,14,0,0,0,0,0,0,0,13],"timestamp_mouse":[10,33,45,65,85,104,125,146,164,185,205,224,245,265,284,304,324,345,364,384,404,424,444,465,485,506,524,545,564,584,605,626,645,664,684,704,726,744,765,784,805,825,845,864,885,904,925,945,964,984,1004,1024,1046],"xSR":741.5,"ySR":573.95,"xT1":424.9,"yT1":0,"xT2":1058.1,"yT2":0,"toosoon":0,"cond_shown":"randomdotsizeEA","ratio_trial":900,"smaller_num":"9","larger_num":"10","correct_side":2,"subjID":"MariaIsabelKuanCruz23","gender":"1","age":"11","school":"6"},{"start_time":1551893039825,"click_time":1551893040664,"finger_time":1551893040363,"fix_duration":1020.5188326461937,"trial":24,"RT":538,"MT":301,"sideResp":2,"stimulus":"img/500/equaldotanddens/R/15_Ratio_500_L_1_R_2.png","xmouse":[754,754,754,754,754,754,754,754,754,754,754,754,754,754,754,754,754,754,754,762,770,774,779,780,780,777,767,742,669,643,635,637,661,782,855,928,988,1038,1067,1080,1092,1100],"ymouse":[627,627,627,627,627,627,627,627,627,627,627,627,627,627,627,627,627,627,628,621,613,608,596,591,585,574,558,523,444,419,404,388,368,308,277,245,212,177,147,128,111,98],"timestamp_mouse":[18,39,58,79,98,119,138,158,180,199,219,238,260,279,299,320,339,359,379,398,418,439,459,478,498,519,538,558,579,599,618,639,659,678,698,718,740,759,778,798,818,838],"xSR":741.5,"ySR":573.95,"xT1":424.9,"yT1":0,"xT2":1058.1,"yT2":0,"toosoon":0,"cond_shown":"equaldotanddens","ratio_trial":500,"smaller_num":"1","larger_num":"2","correct_side":2,"subjID":"MariaIsabelKuanCruz23","gender":"1","age":"11","school":"6"},{"start_time":1551893042671,"click_time":1551893043783,"finger_time":1551893043323,"fix_duration":1266.4592963003283,"trial":25,"RT":652,"MT":460,"sideResp":1,"stimulus":"img/500/randomdotsizeEA/R/3_Ratio_500_L_10_R_20.png","xmouse":[830,830,830,830,830,830,830,830,830,830,830,830,830,830,830,830,830,830,830,830,830,830,830,830,830,830,830,830,830,830,830,814,772,675,637,451,392,339,297,270,256,249,249,252,258,273,294,305,316,330,347,380,394,406,415,425],"ymouse":[621,621,621,621,621,621,621,621,621,621,621,621,621,621,621,621,621,621,621,621,621,621,621,621,621,621,621,621,621,621,621,610,566,489,462,358,321,282,252,227,214,189,179,168,156,135,115,108,102,95,88,79,76,75,73,72],"timestamp_mouse":[13,34,53,72,93,113,134,153,174,192,213,233,253,273,292,313,333,352,372,393,414,433,452,472,492,512,534,553,572,592,614,633,652,672,692,713,732,753,772,793,812,832,852,873,892,912,933,952,974,993,1012,1032,1052,1072,1092,1112],"xSR":741.5,"ySR":573.95,"xT1":424.9,"yT1":0,"xT2":1058.1,"yT2":0,"toosoon":0,"cond_shown":"randomdotsizeEA","ratio_trial":500,"smaller_num":"10","larger_num":"20","correct_side":2,"subjID":"MariaIsabelKuanCruz23","gender":"1","age":"11","school":"6"},{"start_time":1551893045422,"click_time":1551893046584,"finger_time":1551893046004,"fix_duration":757.6122818972264,"trial":26,"RT":582,"MT":580,"sideResp":2,"stimulus":"img/500/randomdotsizeEA/R/9_Ratio_500_L_2_R_4.png","xmouse":[790,790,790,790,790,790,790,790,790,790,790,790,790,790,790,790,790,790,790,790,790,790,790,790,790,790,790,796,833,854,880,908,936,1003,1036,1058,1075,1087,1099,1084,1060,1033,1011,981,975,974,974,982,1001,1039,1053,1056,1056,1057,1057,1057,1057,1057,1062],"ymouse":[647,647,647,647,647,647,647,647,647,647,647,647,647,647,647,647,647,647,647,647,647,647,647,647,647,647,647,644,602,583,555,527,501,425,389,364,344,324,260,235,210,189,172,133,114,92,72,55,35,24,24,25,25,27,30,31,32,33,35],"timestamp_mouse":[8,32,41,63,82,102,122,142,161,181,201,221,241,261,282,302,321,342,363,381,413,422,441,462,481,502,521,541,562,582,601,622,641,663,681,702,722,741,762,781,802,822,841,862,881,902,921,942,961,982,1002,1022,1043,1062,1081,1101,1122,1142,1162],"xSR":741.5,"ySR":573.95,"xT1":424.9,"yT1":0,"xT2":1058.1,"yT2":0,"toosoon":0,"cond_shown":"randomdotsizeEA","ratio_trial":500,"smaller_num":"2","larger_num":"4","correct_side":2,"subjID":"MariaIsabelKuanCruz23","gender":"1","age":"11","school":"6"},{"start_time":1551893049665,"click_time":1551893050743,"finger_time":1551893050324,"fix_duration":1459.7653674140925,"trial":27,"RT":659,"MT":419,"sideResp":2,"stimulus":"img/250/equaldotsize/R/11_Ratio_250_L_3_R_12.png","xmouse":[793,793,793,793,793,793,793,793,793,793,793,793,793,793,793,793,793,793,793,793,793,793,793,793,793,793,793,793,793,793,793,787,773,748,722,700,683,698,744,807,864,925,1018,1034,1039,1040,1047,1056,1058,1059,1059,1059,1059,1059,1059],"ymouse":[657,657,657,657,657,657,657,657,657,657,657,657,657,657,657,657,657,657,657,657,657,657,657,657,657,657,657,657,657,657,657,641,608,563,527,502,483,431,388,343,305,272,227,218,214,208,189,160,147,138,131,116,108,100,92],"timestamp_mouse":[1,19,39,58,79,98,119,139,159,179,199,218,238,259,279,298,319,338,359,379,400,418,438,459,478,498,518,539,558,579,598,619,638,659,678,699,718,738,759,779,798,818,838,858,878,900,918,938,958,978,998,1019,1038,1059,1078],"xSR":741.5,"ySR":573.95,"xT1":424.9,"yT1":0,"xT2":1058.1,"yT2":0,"toosoon":0,"cond_shown":"equaldotsize","ratio_trial":250,"smaller_num":"3","larger_num":"12","correct_side":2,"subjID":"MariaIsabelKuanCruz23","gender":"1","age":"11","school":"6"},{"start_time":1551893052702,"click_time":1551893053784,"finger_time":1551893053404,"fix_duration":1097.0636778523235,"trial":28,"RT":702,"MT":380,"sideResp":1,"stimulus":"img/900/equaldotsize/R/5_Ratio_900_L_9_R_10.png","xmouse":[793,793,793,793,793,793,793,793,793,793,793,793,793,793,793,793,793,793,793,793,793,793,793,793,793,793,793,793,793,793,793,793,793,793,793,770,737,698,661,627,579,561,551,539,518,497,492,489,487,480,475,473,472,471,471],"ymouse":[586,586,586,586,586,586,586,586,586,586,586,586,586,586,586,586,586,586,586,586,586,586,586,586,586,586,586,586,586,586,586,586,586,586,577,519,471,416,366,330,287,271,259,245,220,190,176,164,153,126,116,110,106,103,92],"timestamp_mouse":[9,31,43,61,81,102,121,141,161,182,201,221,241,261,281,301,322,343,362,382,401,422,441,463,482,501,521,541,561,582,601,621,641,662,682,702,721,741,761,781,801,822,841,862,882,901,922,942,962,982,1001,1022,1041,1063,1082],"xSR":741.5,"ySR":573.95,"xT1":424.9,"yT1":0,"xT2":1058.1,"yT2":0,"toosoon":0,"cond_shown":"equaldotsize","ratio_trial":900,"smaller_num":"9","larger_num":"10","correct_side":2,"subjID":"MariaIsabelKuanCruz23","gender":"1","age":"11","school":"6"},{"start_time":1551893054796,"click_time":1551893055764,"finger_time":1551893055404,"fix_duration":250,"trial":29,"RT":608,"MT":360,"sideResp":2,"stimulus":"img/500/randomdotsizeEA/R/9_Ratio_500_L_2_R_4.png","xmouse":[810,810,810,810,810,810,810,810,810,810,810,810,810,810,810,810,810,810,810,810,810,810,810,810,810,810,810,810,810,833,853,885,925,958,1032,1058,1077,1092,1105,1119,1120,1120,1120,1118,1112,1109,1104,1098,1091],"ymouse":[629,629,629,629,629,629,629,629,629,629,629,629,629,629,629,629,629,629,629,629,629,629,629,629,629,629,629,629,627,596,574,545,515,485,388,345,311,276,239,185,173,163,153,143,128,123,116,107,95],"timestamp_mouse":[7,36,47,68,88,107,128,147,167,188,208,227,248,267,288,307,328,347,368,388,407,429,447,468,488,507,528,548,569,588,608,628,647,667,687,707,728,748,768,788,808,827,848,867,887,908,928,947,968],"xSR":741.5,"ySR":573.95,"xT1":424.9,"yT1":0,"xT2":1058.1,"yT2":0,"toosoon":0,"cond_shown":"randomdotsizeEA","ratio_trial":500,"smaller_num":"2","larger_num":"4","correct_side":2,"subjID":"MariaIsabelKuanCruz23","gender":"1","age":"11","school":"6"},{"start_time":1551893057170,"click_time":1551893058283,"finger_time":1551893057783,"fix_duration":566.3737901256463,"trial":30,"RT":613,"MT":500,"sideResp":1,"stimulus":"img/500/randomdotsizeEA/L/10_Ratio_500_L_4_R_2.png","xmouse":[821,821,821,821,821,821,821,821,821,821,821,821,821,821,821,821,821,821,821,821,821,821,821,821,821,821,821,824,828,836,843,853,853,852,847,817,786,750,698,640,480,423,377,346,331,327,315,315,315,318,328,331,343,364,408,446],"ymouse":[627,627,627,627,627,627,627,627,627,627,627,627,627,627,627,627,627,627,627,627,627,627,627,627,627,627,627,616,608,593,580,561,557,553,547,519,496,468,422,366,165,103,57,28,11,6,0,0,0,0,0,0,0,4,19,35],"timestamp_mouse":[13,34,54,73,93,113,134,154,173,193,214,234,253,274,295,314,334,353,374,393,414,433,453,473,493,513,534,553,573,594,613,633,653,674,694,714,733,754,773,793,814,833,853,874,893,914,933,953,973,993,1014,1034,1053,1074,1094,1113],"xSR":741.5,"ySR":573.95,"xT1":424.9,"yT1":0,"xT2":1058.1,"yT2":0,"toosoon":0,"cond_shown":"randomdotsizeEA","ratio_trial":500,"smaller_num":"2","larger_num":"4","correct_side":1,"subjID":"MariaIsabelKuanCruz23","gender":"1","age":"11","school":"6"},{"start_time":1551893061632,"click_time":1551893062585,"finger_time":1551893062183,"fix_duration":708.2368818938949,"trial":31,"RT":551,"MT":402,"sideResp":1,"stimulus":"img/250/equaldotanddens/L/14_Ratio_250_L_12_R_3.png","xmouse":[803,803,803,803,803,803,802,801,801,800,800,800,800,800,800,800,800,800,800,800,800,800,800,802,807,812,818,827,829,814,791,763,683,653,621,600,588,581,575,569,566,566,566,563,555,541,527,514],"ymouse":[624,624,624,624,624,624,624,624,624,624,624,624,624,625,625,625,625,625,625,625,625,625,625,619,613,605,594,568,530,510,490,470,422,403,376,356,338,314,279,257,235,217,170,145,119,90,55,19],"timestamp_mouse":[16,38,51,72,93,112,131,151,172,191,211,231,251,272,292,312,332,353,371,391,411,432,452,471,491,512,532,551,572,591,612,632,653,671,692,711,732,751,772,791,811,832,852,871,891,912,933,953],"xSR":741.5,"ySR":573.95,"xT1":424.9,"yT1":0,"xT2":1058.1,"yT2":0,"toosoon":0,"cond_shown":"equaldotanddens","ratio_trial":250,"smaller_num":"3","larger_num":"12","correct_side":1,"subjID":"MariaIsabelKuanCruz23","gender":"1","age":"11","school":"6"},{"start_time":1551893064265,"click_time":1551893065245,"finger_time":1551893064723,"fix_duration":900.1288363472312,"trial":32,"RT":458,"MT":522,"sideResp":2,"stimulus":"img/250/equaldotanddens/R/8_Ratio_250_L_1_R_4.png","xmouse":[815,815,815,815,815,815,815,815,815,815,815,815,815,815,815,815,815,815,815,815,812,791,782,776,772,772,802,846,921,1007,1097,1204,1223,1230,1231,1231,1231,1231,1229,1223,1219,1209,1203,1194,1192,1187,1173,1166,1157],"ymouse":[672,672,672,672,672,672,672,672,672,672,672,672,672,672,672,672,672,672,663,654,630,580,557,538,517,511,474,453,422,385,341,269,249,237,232,225,212,199,184,167,152,126,115,103,101,95,88,85,82],"timestamp_mouse":[19,39,59,78,98,118,138,158,179,198,220,238,258,280,299,319,339,360,380,399,419,438,458,478,500,519,539,558,579,598,618,638,658,679,699,719,738,758,779,798,819,838,859,878,898,919,939,958,980],"xSR":741.5,"ySR":573.95,"xT1":424.9,"yT1":0,"xT2":1058.1,"yT2":0,"toosoon":0,"cond_shown":"equaldotanddens","ratio_trial":250,"smaller_num":"1","larger_num":"4","correct_side":2,"subjID":"MariaIsabelKuanCruz23","gender":"1","age":"11","school":"6"},{"start_time":1551893067571,"click_time":1551893068584,"finger_time":1551893067924,"fix_duration":1445.3070926823345,"trial":33,"RT":353,"MT":660,"sideResp":2,"stimulus":"img/250/equaldotsize/R/12_Ratio_250_L_5_R_20.png","xmouse":[793,793,793,793,793,793,793,793,793,793,793,793,793,793,793,793,794,792,788,785,781,781,781,781,781,781,781,779,776,772,772,789,816,845,874,908,969,997,1021,1056,1069,1080,1083,1088,1093,1102,1103,1104,1104,1104,1104],"ymouse":[650,650,650,650,650,650,650,650,650,650,650,650,650,650,650,650,659,684,706,737,761,763,763,763,763,763,763,759,740,701,671,582,527,479,428,379,294,257,225,186,167,144,140,135,128,115,110,108,107,104,97],"timestamp_mouse":[14,39,52,73,92,112,132,153,173,192,212,232,253,273,292,312,334,353,372,392,413,432,452,474,492,512,532,552,573,593,612,632,652,672,693,713,732,752,773,794,813,834,853,872,892,913,932,952,972,993,1013],"xSR":741.5,"ySR":573.95,"xT1":424.9,"yT1":0,"xT2":1058.1,"yT2":0,"toosoon":0,"cond_shown":"equaldotsize","ratio_trial":250,"smaller_num":"5","larger_num":"20","correct_side":2,"subjID":"MariaIsabelKuanCruz23","gender":"1","age":"11","school":"6"},{"start_time":1551893070980,"click_time":1551893071884,"finger_time":1551893071604,"fix_duration":1475.6057706344473,"trial":34,"RT":624,"MT":280,"sideResp":1,"stimulus":"img/500/randomdotsizeEA/L/4_Ratio_500_L_18_R_9.png","xmouse":[749,749,749,749,749,749,749,749,749,749,749,749,749,749,749,749,749,749,749,749,749,749,749,749,749,749,749,749,749,749,750,734,709,683,656,607,599,595,589,579,561,542,536,531,527,522],"ymouse":[644,644,644,644,644,644,644,644,644,644,644,644,644,644,644,644,644,644,644,644,644,644,644,644,644,644,644,644,644,644,643,574,517,455,381,269,245,226,208,186,146,101,88,78,71,58],"timestamp_mouse":[9,35,43,64,85,103,124,143,163,184,203,224,243,263,285,303,324,345,363,383,403,424,444,463,484,504,524,544,563,584,603,624,643,665,684,704,723,744,764,784,803,824,844,865,883,904],"xSR":741.5,"ySR":573.95,"xT1":424.9,"yT1":0,"xT2":1058.1,"yT2":0,"toosoon":0,"cond_shown":"randomdotsizeEA","ratio_trial":500,"smaller_num":"9","larger_num":"18","correct_side":1,"subjID":"MariaIsabelKuanCruz23","gender":"1","age":"11","school":"6"},{"start_time":1551893073586,"click_time":1551893074704,"finger_time":1551893074264,"fix_duration":882.9602495314292,"trial":35,"RT":678,"MT":440,"sideResp":1,"stimulus":"img/750/randomdotsizeEA/L/9_Ratio_750_L_4_R_3.png","xmouse":[801,801,801,801,801,801,801,801,801,801,801,801,801,801,801,801,801,801,801,801,801,801,801,801,801,801,801,801,803,813,816,816,812,802,792,767,749,727,706,686,625,601,588,581,576,572,567,560,553,546,540,540,540,539,538,524],"ymouse":[659,659,659,659,659,659,659,659,659,659,659,659,659,659,659,659,659,659,659,659,659,659,659,659,659,659,659,659,658,630,614,596,579,560,546,511,480,442,401,350,174,120,94,79,60,47,31,15,3,0,0,0,0,0,0,12],"timestamp_mouse":[35,38,57,78,98,117,137,157,178,197,217,237,257,277,297,317,337,357,377,398,418,438,458,477,497,517,537,557,577,597,618,637,658,678,697,717,738,757,777,797,817,837,857,877,898,917,937,958,977,997,1017,1038,1058,1078,1098,1118],"xSR":741.5,"ySR":573.95,"xT1":424.9,"yT1":0,"xT2":1058.1,"yT2":0,"toosoon":0,"cond_shown":"randomdotsizeEA","ratio_trial":750,"smaller_num":"3","larger_num":"4","correct_side":1,"subjID":"MariaIsabelKuanCruz23","gender":"1","age":"11","school":"6"},{"start_time":1551893076271,"click_time":1551893077303,"finger_time":1551893076965,"fix_duration":865.375041153585,"trial":36,"RT":694,"MT":338,"sideResp":1,"stimulus":"img/750/equaldotsize/L/1_Ratio_750_L_20_R_15.png","xmouse":[800,800,800,800,800,800,800,800,800,800,800,800,800,800,800,800,800,800,800,800,800,800,800,800,800,800,800,800,800,800,800,800,782,768,742,696,640,619,602,590,577,563,557,554,548,544,536,532,527,519,509,485],"ymouse":[654,654,654,654,654,654,654,654,654,654,654,654,654,654,654,654,654,654,654,654,654,654,654,654,654,654,654,654,654,654,654,654,628,608,572,502,397,353,317,291,269,222,198,178,159,151,140,134,128,119,109,92],"timestamp_mouse":[12,32,53,72,92,114,132,153,173,192,213,232,253,272,293,312,332,352,372,392,412,432,452,473,494,512,532,552,574,592,612,632,652,672,694,713,733,753,772,792,813,832,853,872,893,913,933,953,972,992,1012,1032],"xSR":741.5,"ySR":573.95,"xT1":424.9,"yT1":0,"xT2":1058.1,"yT2":0,"toosoon":0,"cond_shown":"equaldotsize","ratio_trial":750,"smaller_num":"15","larger_num":"20","correct_side":1,"subjID":"MariaIsabelKuanCruz23","gender":"1","age":"11","school":"6"},{"start_time":1551893079234,"click_time":1551893080203,"finger_time":1551893079804,"fix_duration":1368.3187229519087,"trial":37,"RT":570,"MT":399,"sideResp":1,"stimulus":"img/500/equaldotsize/L/8_Ratio_500_L_8_R_4.png","xmouse":[778,778,778,778,778,778,780,781,783,783,784,784,784,784,784,784,784,784,784,784,784,784,784,784,784,784,784,784,746,710,663,621,583,577,574,571,569,569,569,569,569,569,569,567,559,550,542,530,520],"ymouse":[647,647,647,647,647,647,645,640,629,624,621,621,621,621,621,621,621,621,621,621,621,621,621,621,621,621,620,601,487,401,314,244,174,152,135,124,110,104,96,95,95,95,95,95,95,96,96,95,90],"timestamp_mouse":[12,46,50,69,89,109,130,150,170,189,210,229,249,269,289,309,330,349,370,390,410,430,449,470,489,509,530,550,570,589,609,629,650,669,690,710,729,749,769,789,809,830,851,869,889,909,930,950,969],"xSR":741.5,"ySR":573.95,"xT1":424.9,"yT1":0,"xT2":1058.1,"yT2":0,"toosoon":0,"cond_shown":"equaldotsize","ratio_trial":500,"smaller_num":"4","larger_num":"8","correct_side":1,"subjID":"MariaIsabelKuanCruz23","gender":"1","age":"11","school":"6"},{"start_time":1551893083378,"click_time":1551893084303,"finger_time":1551893083963,"fix_duration":432.89505650090155,"trial":38,"RT":585,"MT":340,"sideResp":1,"stimulus":"img/900/equaldotanddens/R/14_Ratio_900_L_18_R_20.png","xmouse":[755,755,755,755,755,755,755,755,755,755,755,755,755,755,755,755,755,755,755,755,755,755,755,755,755,755,754,751,746,736,733,699,664,613,564,460,415,382,373,373,385,389,391,394,398,405,438],"ymouse":[619,619,619,619,619,619,619,619,619,619,619,619,619,619,619,619,619,619,619,619,619,619,619,619,619,619,611,602,592,578,573,540,491,418,340,211,165,129,104,87,65,57,51,43,38,36,33],"timestamp_mouse":[8,36,45,67,85,106,127,146,166,185,206,225,246,265,286,306,325,345,365,387,406,427,447,465,486,506,525,547,566,585,606,626,645,666,686,706,725,746,765,786,806,826,846,865,886,906,925],"xSR":741.5,"ySR":573.95,"xT1":424.9,"yT1":0,"xT2":1058.1,"yT2":0,"toosoon":0,"cond_shown":"equaldotanddens","ratio_trial":900,"smaller_num":"18","larger_num":"20","correct_side":2,"subjID":"MariaIsabelKuanCruz23","gender":"1","age":"11","school":"6"},{"start_time":1551893087576,"click_time":1551893088603,"finger_time":1551893088004,"fix_duration":250,"trial":39,"RT":428,"MT":599,"sideResp":1,"stimulus":"img/750/equaldotsize/L/14_Ratio_750_L_8_R_6.png","xmouse":[792,792,792,793,793,793,793,794,795,796,797,797,797,797,798,798,798,798,798,803,807,843,859,873,884,902,910,919,933,960,1005,1030,1056,1077,1089,1095,1095,1090,1064,1008,901,765,711,650,598,516,492,473,460,451,436,435],"ymouse":[642,644,644,645,645,645,646,647,649,650,651,651,651,651,651,651,651,651,651,650,647,624,615,606,598,581,565,543,510,441,339,287,232,191,161,144,141,140,150,171,209,226,226,213,198,169,159,150,144,138,103,91],"timestamp_mouse":[15,41,48,67,88,108,127,148,168,188,207,229,247,269,288,307,328,347,367,389,407,428,447,467,487,508,527,547,567,588,608,627,648,668,688,707,727,748,768,788,807,828,847,867,888,908,927,948,967,988,1008,1027],"xSR":741.5,"ySR":573.95,"xT1":424.9,"yT1":0,"xT2":1058.1,"yT2":0,"toosoon":0,"cond_shown":"equaldotsize","ratio_trial":750,"smaller_num":"6","larger_num":"8","correct_side":1,"subjID":"MariaIsabelKuanCruz23","gender":"1","age":"11","school":"6"},{"start_time":1551893089826,"click_time":1551893090664,"finger_time":1551893090423,"fix_duration":540.4584728294258,"trial":40,"RT":597,"MT":241,"sideResp":2,"stimulus":"img/250/equaldotanddens/R/12_Ratio_250_L_5_R_20.png","xmouse":[773,773,773,773,773,773,773,773,773,773,773,773,773,773,773,773,773,773,773,773,773,773,773,773,773,773,773,786,818,858,906,951,1035,1061,1085,1103,1111,1120,1123,1125,1127,1129],"ymouse":[655,655,655,655,655,655,655,655,655,655,655,655,655,655,655,655,655,655,655,655,655,655,655,655,655,655,655,641,604,556,495,441,335,290,250,216,195,155,139,124,109,95],"timestamp_mouse":[21,38,57,77,97,118,137,157,177,197,218,238,258,277,297,318,337,359,378,399,417,438,458,477,499,517,538,558,578,597,618,638,657,677,699,718,737,758,778,797,819,838],"xSR":741.5,"ySR":573.95,"xT1":424.9,"yT1":0,"xT2":1058.1,"yT2":0,"toosoon":0,"cond_shown":"equaldotanddens","ratio_trial":250,"smaller_num":"5","larger_num":"20","correct_side":2,"subjID":"MariaIsabelKuanCruz23","gender":"1","age":"11","school":"6"},{"start_time":1551893091822,"click_time":1551893092645,"finger_time":1551893092464,"fix_duration":397.3544629104464,"trial":41,"RT":642,"MT":181,"sideResp":1,"stimulus":"img/900/randomdotsizeEA/R/7_Ratio_900_L_9_R_10.png","xmouse":[827,827,827,827,827,827,827,827,827,827,827,827,827,827,827,827,827,827,827,827,827,827,827,827,827,827,827,827,827,827,821,803,773,726,618,571,539,515,460,447,438,434],"ymouse":[596,596,596,596,596,596,596,596,596,596,596,596,596,596,596,596,596,596,596,596,596,596,596,596,596,596,596,596,596,596,596,578,542,486,362,308,262,219,145,125,106,83],"timestamp_mouse":[6,27,42,61,81,103,121,141,163,181,202,221,242,263,281,301,322,341,361,382,401,421,441,461,482,501,522,543,561,581,601,621,642,661,681,701,722,741,762,781,802,823],"xSR":741.5,"ySR":573.95,"xT1":424.9,"yT1":0,"xT2":1058.1,"yT2":0,"toosoon":0,"cond_shown":"randomdotsizeEA","ratio_trial":900,"smaller_num":"9","larger_num":"10","correct_side":2,"subjID":"MariaIsabelKuanCruz23","gender":"1","age":"11","school":"6"},{"start_time":1551893093736,"click_time":1551893094464,"finger_time":1551893094303,"fix_duration":250,"trial":42,"RT":567,"MT":161,"sideResp":1,"stimulus":"img/250/randomdotsizeEA/L/3_Ratio_250_L_8_R_2.png","xmouse":[752,752,752,752,752,752,752,752,752,752,752,752,752,752,752,752,752,752,752,752,752,752,752,752,752,752,752,752,727,676,606,526,454,427,425,424,426],"ymouse":[618,618,618,618,618,618,618,618,618,618,618,618,618,618,618,618,618,618,618,618,618,618,618,618,618,618,618,614,563,475,370,273,184,135,119,107,99],"timestamp_mouse":[11,31,47,67,87,108,128,148,167,188,207,228,247,268,289,307,327,348,368,389,408,427,449,468,489,508,528,547,567,587,607,628,648,669,687,709,728],"xSR":741.5,"ySR":573.95,"xT1":424.9,"yT1":0,"xT2":1058.1,"yT2":0,"toosoon":0,"cond_shown":"randomdotsizeEA","ratio_trial":250,"smaller_num":"2","larger_num":"8","correct_side":1,"subjID":"MariaIsabelKuanCruz23","gender":"1","age":"11","school":"6"},{"start_time":1551893096082,"click_time":1551893096984,"finger_time":1551893096783,"fix_duration":935.5920513800743,"trial":43,"RT":701,"MT":201,"sideResp":2,"stimulus":"img/900/equaldotsize/L/4_Ratio_900_L_20_R_18.png","xmouse":[772,772,772,772,772,772,772,772,772,772,772,772,772,772,772,772,772,772,772,772,772,772,772,772,772,772,772,772,772,772,772,772,780,799,825,861,959,992,1013,1025,1031,1038,1040,1045,1052,1067],"ymouse":[661,661,661,661,661,661,661,661,661,661,661,661,661,661,661,661,661,661,661,661,661,661,661,661,661,661,661,661,661,661,661,661,651,635,612,579,458,395,324,264,222,175,155,134,106,50],"timestamp_mouse":[9,35,41,61,81,101,122,143,162,181,201,222,242,262,281,301,323,341,363,381,401,422,441,462,481,503,522,541,561,582,603,621,642,662,682,701,721,741,762,781,802,821,841,861,881,902],"xSR":741.5,"ySR":573.95,"xT1":424.9,"yT1":0,"xT2":1058.1,"yT2":0,"toosoon":0,"cond_shown":"equaldotsize","ratio_trial":900,"smaller_num":"18","larger_num":"20","correct_side":1,"subjID":"MariaIsabelKuanCruz23","gender":"1","age":"11","school":"6"},{"start_time":1551893097997,"click_time":1551893098905,"finger_time":1551893098743,"fix_duration":293.15946310229646,"trial":44,"RT":746,"MT":162,"sideResp":1,"stimulus":"img/750/equaldotanddens/R/11_Ratio_750_L_12_R_16.png","xmouse":[782,782,782,782,782,782,782,782,782,782,782,782,782,782,782,782,782,782,782,782,782,782,782,782,782,782,782,782,782,782,782,782,782,782,781,772,749,717,657,576,548,531,511,500,496,496],"ymouse":[654,654,654,654,654,654,654,654,654,654,654,654,654,654,654,654,654,654,654,654,654,654,654,654,654,654,654,654,654,654,654,654,654,654,654,636,596,540,433,292,242,199,153,121,102,94],"timestamp_mouse":[12,35,47,66,86,107,126,146,166,187,207,227,246,267,286,307,326,346,368,386,406,426,447,468,488,507,526,547,566,586,606,626,648,666,686,706,727,746,766,787,806,827,847,867,887,908],"xSR":741.5,"ySR":573.95,"xT1":424.9,"yT1":0,"xT2":1058.1,"yT2":0,"toosoon":0,"cond_shown":"equaldotanddens","ratio_trial":750,"smaller_num":"12","larger_num":"16","correct_side":2,"subjID":"MariaIsabelKuanCruz23","gender":"1","age":"11","school":"6"},{"start_time":1551893102487,"click_time":1551893104464,"finger_time":1551893103304,"fix_duration":1281.1827194111165,"trial":45,"RT":817,"MT":1160,"sideResp":1,"stimulus":"img/500/randomdotsizeEA/R/14_Ratio_500_L_5_R_10.png","xmouse":[803,803,803,803,803,803,803,803,803,803,803,803,803,803,803,803,803,803,803,803,803,803,803,803,803,803,803,803,803,803,803,803,803,803,803,803,803,803,803,837,893,951,1001,1030,1050,1050,1050,1050,1050,1050,1050,1050,1051,1054,1060,1070,1072,1074,1074,1074,1074,1074,1074,1074,1074,1074,1074,1074,1074,1074,1074,1074,1074,1058,998,827,757,717,696,682,672,672,672,674,673,667,662,657,647,637,598,570,529,499,465,462,462,468,484],"ymouse":[615,615,615,615,615,615,615,615,615,615,615,615,615,615,615,615,615,615,615,615,615,615,615,615,615,615,615,615,615,615,615,615,615,615,615,615,615,615,615,581,512,420,327,247,182,181,181,181,181,181,181,179,176,169,149,119,112,109,109,109,109,109,109,109,109,109,109,109,109,109,109,109,109,132,197,317,344,348,346,335,318,302,276,250,209,163,137,114,99,92,93,101,112,121,120,117,112,100,82],"timestamp_mouse":[16,36,63,77,96,118,136,157,178,196,217,237,256,276,297,318,336,357,378,396,416,436,458,476,498,516,536,558,576,597,616,638,658,676,698,716,736,756,776,797,817,836,856,877,897,916,937,956,977,997,1016,1036,1056,1078,1096,1118,1136,1156,1176,1196,1217,1236,1256,1276,1296,1316,1336,1356,1376,1396,1416,1437,1456,1476,1496,1517,1536,1558,1577,1597,1616,1637,1656,1677,1697,1717,1736,1756,1777,1796,1816,1837,1857,1876,1897,1916,1936,1956,1977],"xSR":741.5,"ySR":573.95,"xT1":424.9,"yT1":0,"xT2":1058.1,"yT2":0,"toosoon":0,"cond_shown":"randomdotsizeEA","ratio_trial":500,"smaller_num":"5","larger_num":"10","correct_side":2,"subjID":"MariaIsabelKuanCruz23","gender":"1","age":"11","school":"6"},{"start_time":1551893108075,"click_time":1551893109343,"finger_time":1551893108963,"fix_duration":1248.949079526893,"trial":46,"RT":888,"MT":380,"sideResp":1,"stimulus":"img/900/equaldotsize/R/6_Ratio_900_L_9_R_10.png","xmouse":[784,784,784,784,784,784,784,784,784,784,784,784,784,784,784,784,784,784,784,784,784,784,784,784,784,784,784,784,784,784,784,784,784,784,784,784,784,784,784,784,784,782,770,755,741,720,690,678,665,655,634,621,602,574,547,499,453,452,452,454,454,454,454,454],"ymouse":[647,647,647,647,647,647,647,647,647,647,647,647,647,647,647,647,647,647,647,647,647,647,647,647,647,647,647,647,647,647,647,647,647,647,647,647,647,647,647,647,647,647,637,627,617,606,587,578,567,556,531,515,488,449,401,299,165,144,134,131,127,113,104,96],"timestamp_mouse":[8,39,48,68,88,108,129,148,168,188,209,229,250,269,289,308,328,348,369,388,408,430,449,470,488,508,529,548,569,588,608,629,648,670,688,708,728,750,768,788,808,828,848,868,888,909,929,948,969,989,1010,1028,1048,1069,1088,1108,1128,1148,1169,1189,1209,1229,1249,1268],"xSR":741.5,"ySR":573.95,"xT1":424.9,"yT1":0,"xT2":1058.1,"yT2":0,"toosoon":0,"cond_shown":"equaldotsize","ratio_trial":900,"smaller_num":"9","larger_num":"10","correct_side":2,"subjID":"MariaIsabelKuanCruz23","gender":"1","age":"11","school":"6"},{"start_time":1551893110342,"click_time":1551893111584,"finger_time":1551893111264,"fix_duration":277.8213402556243,"trial":47,"RT":922,"MT":320,"sideResp":1,"stimulus":"img/900/equaldotsize/R/7_Ratio_900_L_9_R_10.png","xmouse":[812,812,812,812,812,812,812,812,812,812,812,812,812,812,812,812,812,812,812,812,812,812,812,812,812,812,812,812,812,812,812,812,812,812,812,811,809,808,807,806,804,804,803,792,780,760,725,618,547,478,413,376,363,363,363,363,363,364,365,369,380,398,425],"ymouse":[657,657,657,657,657,657,657,657,657,657,657,657,657,657,657,657,657,657,657,657,657,657,657,657,657,657,657,657,657,657,657,657,657,657,657,656,654,652,652,651,649,648,647,631,613,577,521,387,307,226,153,110,70,56,49,45,42,41,41,41,42,49,61],"timestamp_mouse":[7,30,43,61,82,103,121,141,162,182,203,222,241,262,281,301,322,342,362,382,401,421,441,462,481,503,521,541,563,581,601,623,642,663,681,702,721,742,762,781,802,821,841,862,881,903,922,942,961,981,1001,1023,1042,1061,1081,1102,1122,1142,1161,1182,1201,1221,1241],"xSR":741.5,"ySR":573.95,"xT1":424.9,"yT1":0,"xT2":1058.1,"yT2":0,"toosoon":0,"cond_shown":"equaldotsize","ratio_trial":900,"smaller_num":"9","larger_num":"10","correct_side":2,"subjID":"MariaIsabelKuanCruz23","gender":"1","age":"11","school":"6"},{"start_time":1551893115611,"click_time":1551893117503,"finger_time":1551893116303,"fix_duration":707.6293733795693,"trial":48,"RT":692,"MT":1200,"sideResp":2,"stimulus":"img/900/randomdotsizeEA/R/14_Ratio_900_L_18_R_20.png","xmouse":[793,793,793,793,793,793,793,793,793,793,793,793,793,793,793,793,793,793,793,793,793,793,793,795,796,797,798,798,798,798,799,801,803,815,826,837,850,865,912,929,943,958,972,990,999,1007,1013,1016,1029,1036,1041,1045,1050,1055,1056,1056,1057,1057,1057,1057,1057,1057,1057,1057,1057,1057,1057,1057,1057,1057,1057,1057,1057,1057,1057,1057,1057,1057,1057,1057,1057,1057,1057,1057,1057,1057,1057,1057,1057,1057,1057,1058,1058,1058,1061],"ymouse":[633,633,633,633,633,633,633,633,633,633,633,633,633,633,633,633,633,633,633,633,633,633,633,630,629,628,627,627,627,626,625,622,618,595,571,542,515,487,401,363,328,295,265,222,203,185,172,159,128,112,99,87,79,71,70,70,69,69,69,69,69,69,69,69,69,69,69,69,69,69,69,69,69,69,69,69,69,69,69,69,69,69,69,69,69,69,69,69,69,69,69,68,68,68,71],"timestamp_mouse":[13,36,53,72,93,114,133,152,173,192,212,232,252,273,292,314,332,353,372,393,414,432,453,472,493,514,532,552,572,592,612,633,653,673,692,712,733,754,773,792,812,832,853,872,892,913,933,952,973,992,1012,1033,1052,1072,1092,1112,1132,1154,1174,1192,1212,1233,1252,1273,1292,1313,1333,1354,1372,1392,1412,1433,1452,1474,1492,1512,1532,1553,1572,1593,1612,1633,1652,1673,1692,1713,1733,1753,1773,1793,1812,1833,1853,1873,1892],"xSR":741.5,"ySR":573.95,"xT1":424.9,"yT1":0,"xT2":1058.1,"yT2":0,"toosoon":0,"cond_shown":"randomdotsizeEA","ratio_trial":900,"smaller_num":"18","larger_num":"20","correct_side":2,"subjID":"MariaIsabelKuanCruz23","gender":"1","age":"11","school":"6"},{"start_time":1551893119648,"click_time":1551893120903,"finger_time":1551893120423,"fix_duration":1082.594610552575,"trial":49,"RT":775,"MT":480,"sideResp":1,"stimulus":"img/500/equaldotsize/L/7_Ratio_500_L_10_R_5.png","xmouse":[833,833,833,833,833,833,833,833,833,833,833,833,833,833,833,833,833,833,833,833,833,833,833,833,833,833,833,833,833,833,833,833,833,831,818,811,782,766,750,731,714,678,658,643,634,626,611,594,583,573,564,534,523,519,515,515,515,513,511,504,494,479,475],"ymouse":[618,618,618,618,618,618,618,618,618,618,618,618,618,618,618,618,618,618,618,618,618,618,618,618,618,618,618,618,618,618,618,618,618,614,607,604,587,576,563,546,527,483,460,440,422,407,376,352,334,312,289,236,219,211,208,207,207,205,194,175,150,111,98],"timestamp_mouse":[15,38,55,76,96,115,136,155,176,196,215,235,255,276,297,317,336,355,376,395,417,435,455,476,495,515,536,556,575,595,615,636,655,676,695,716,735,756,775,796,816,836,855,877,896,915,935,956,975,996,1015,1036,1055,1075,1095,1116,1136,1155,1175,1195,1215,1235,1255],"xSR":741.5,"ySR":573.95,"xT1":424.9,"yT1":0,"xT2":1058.1,"yT2":0,"toosoon":0,"cond_shown":"equaldotsize","ratio_trial":500,"smaller_num":"5","larger_num":"10","correct_side":1,"subjID":"MariaIsabelKuanCruz23","gender":"1","age":"11","school":"6"},{"start_time":1551893123069,"click_time":1551893124004,"finger_time":1551893123744,"fix_duration":1284.155507000284,"trial":50,"RT":675,"MT":260,"sideResp":1,"stimulus":"img/250/equaldotsize/L/15_Ratio_250_L_12_R_3.png","xmouse":[770,770,770,770,770,770,770,770,770,770,770,770,770,770,770,770,770,770,770,770,770,770,770,770,770,770,770,770,770,770,770,770,759,741,696,647,623,607,593,575,551,500,484,478,476,476,476],"ymouse":[615,615,615,615,615,615,615,615,615,615,615,615,615,615,615,615,615,615,615,615,615,615,615,615,615,615,615,615,615,615,615,611,590,563,512,463,435,417,397,368,326,233,204,185,169,119,93],"timestamp_mouse":[16,35,54,74,94,115,135,154,175,194,214,234,255,276,296,315,334,355,375,394,415,434,454,475,495,515,534,554,575,594,615,634,654,675,695,714,734,755,774,795,814,834,856,874,894,914,935],"xSR":741.5,"ySR":573.95,"xT1":424.9,"yT1":0,"xT2":1058.1,"yT2":0,"toosoon":0,"cond_shown":"equaldotsize","ratio_trial":250,"smaller_num":"3","larger_num":"12","correct_side":1,"subjID":"MariaIsabelKuanCruz23","gender":"1","age":"11","school":"6"},{"start_time":1551893126181,"click_time":1551893127283,"finger_time":1551893126943,"fix_duration":1396.095613261515,"trial":51,"RT":762,"MT":340,"sideResp":2,"stimulus":"img/900/equaldotanddens/R/12_Ratio_900_L_18_R_20.png","xmouse":[815,815,815,815,815,815,815,815,815,815,815,815,815,815,815,815,815,815,815,815,815,815,815,815,815,815,815,815,815,815,815,814,813,812,812,812,811,808,805,799,789,787,787,792,821,916,953,986,1016,1042,1086,1095,1098,1100,1100,1100],"ymouse":[640,640,640,640,640,640,640,640,640,640,640,640,640,640,640,640,640,640,640,640,640,640,640,640,640,640,640,640,640,640,632,618,614,612,611,608,600,584,564,540,508,500,495,481,438,304,258,228,207,193,162,150,138,126,115,96],"timestamp_mouse":[8,23,49,62,82,104,122,143,162,182,203,224,242,262,282,302,323,343,362,384,402,422,442,463,483,502,522,542,563,584,602,622,642,664,682,702,722,742,762,783,802,823,842,863,882,902,922,942,963,982,1002,1022,1042,1062,1082,1102],"xSR":741.5,"ySR":573.95,"xT1":424.9,"yT1":0,"xT2":1058.1,"yT2":0,"toosoon":0,"cond_shown":"equaldotanddens","ratio_trial":900,"smaller_num":"18","larger_num":"20","correct_side":2,"subjID":"MariaIsabelKuanCruz23","gender":"1","age":"11","school":"6"},{"start_time":1551893128654,"click_time":1551893129803,"finger_time":1551893129342,"fix_duration":430.7549872414357,"trial":52,"RT":688,"MT":461,"sideResp":2,"stimulus":"img/250/equaldotanddens/R/6_Ratio_250_L_6_R_24.png","xmouse":[806,806,806,806,806,806,806,806,806,806,806,806,806,806,806,806,806,806,806,806,806,806,806,806,806,806,806,806,806,806,806,806,806,809,817,826,884,921,959,987,1009,1028,1033,1034,1034,1030,1026,1026,1026,1026,1026,1031,1036,1039,1042,1044,1057,1060],"ymouse":[609,609,609,609,609,609,609,609,609,609,609,609,609,609,609,609,609,609,609,609,609,609,609,609,609,609,609,609,609,609,609,609,604,589,572,556,477,432,387,348,315,270,249,231,220,211,200,189,177,157,135,90,76,69,65,61,44,40],"timestamp_mouse":[8,34,49,69,89,109,128,149,169,190,208,228,249,268,288,310,330,350,368,389,410,428,449,470,488,510,529,550,568,588,609,628,648,670,688,708,729,749,768,788,809,829,849,869,889,909,929,950,968,990,1008,1029,1048,1069,1089,1109,1129,1149],"xSR":741.5,"ySR":573.95,"xT1":424.9,"yT1":0,"xT2":1058.1,"yT2":0,"toosoon":0,"cond_shown":"equaldotanddens","ratio_trial":250,"smaller_num":"6","larger_num":"24","correct_side":2,"subjID":"MariaIsabelKuanCruz23","gender":"1","age":"11","school":"6"},{"start_time":1551893134103,"click_time":1551893135024,"finger_time":1551893134723,"fix_duration":1319.8140139805255,"trial":53,"RT":620,"MT":301,"sideResp":2,"stimulus":"img/250/equaldotanddens/R/4_Ratio_250_L_3_R_12.png","xmouse":[784,784,784,784,784,784,784,784,784,784,784,784,784,784,784,784,784,784,784,784,784,784,784,784,784,784,784,784,784,784,807,829,855,877,923,933,943,953,961,973,978,983,988,996,1028,1045,1065],"ymouse":[629,629,629,629,629,629,629,629,629,629,629,629,629,629,629,629,629,629,629,629,629,629,629,629,629,629,629,629,628,624,580,538,491,442,349,326,302,276,254,210,192,175,163,147,104,87,70],"timestamp_mouse":[1,20,39,59,80,101,121,140,160,180,200,219,240,261,280,300,320,340,360,379,399,421,440,459,481,501,520,539,560,580,599,620,639,660,680,700,720,740,759,780,799,820,840,861,880,901,921],"xSR":741.5,"ySR":573.95,"xT1":424.9,"yT1":0,"xT2":1058.1,"yT2":0,"toosoon":0,"cond_shown":"equaldotanddens","ratio_trial":250,"smaller_num":"3","larger_num":"12","correct_side":2,"subjID":"MariaIsabelKuanCruz23","gender":"1","age":"11","school":"6"},{"start_time":1551893140035,"click_time":1551893141463,"finger_time":1551893140782,"fix_duration":250,"trial":54,"RT":747,"MT":681,"sideResp":1,"stimulus":"img/750/randomdotsizeEA/L/6_Ratio_750_L_24_R_18.png","xmouse":[780,780,780,780,780,780,780,780,780,780,780,780,780,780,780,780,780,780,780,780,780,780,780,780,780,780,780,780,780,780,780,780,780,779,772,758,745,707,655,619,589,564,531,525,521,517,515,512,512,512,512,512,512,512,512,512,512,512,512,512,512,512,512,512,512,512,511,507,504,501,498,495],"ymouse":[629,629,629,629,629,629,629,629,629,629,629,629,629,629,629,629,629,629,629,629,629,629,629,629,629,629,629,629,629,629,629,629,629,628,628,626,619,564,461,407,368,343,314,297,279,262,249,222,208,203,198,193,182,180,180,180,180,180,180,180,180,180,180,180,178,170,159,138,124,115,106,97],"timestamp_mouse":[8,34,48,67,89,107,128,148,169,189,208,227,248,269,289,308,329,348,369,387,408,429,447,468,488,507,527,549,567,587,607,628,647,668,689,708,728,747,769,788,808,828,848,867,888,907,928,947,969,988,1009,1028,1047,1069,1088,1108,1128,1147,1167,1188,1208,1228,1249,1269,1288,1308,1328,1347,1369,1387,1407,1428],"xSR":741.5,"ySR":573.95,"xT1":424.9,"yT1":0,"xT2":1058.1,"yT2":0,"toosoon":0,"cond_shown":"randomdotsizeEA","ratio_trial":750,"smaller_num":"18","larger_num":"24","correct_side":1,"subjID":"MariaIsabelKuanCruz23","gender":"1","age":"11","school":"6"},{"start_time":1551893142785,"click_time":1551893144182,"finger_time":1551893143463,"fix_duration":400.06267690059684,"trial":55,"RT":678,"MT":719,"sideResp":1,"stimulus":"img/500/randomdotsizeEA/R/14_Ratio_500_L_5_R_10.png","xmouse":[832,832,832,832,832,832,832,832,832,832,832,832,832,832,832,832,832,832,832,832,832,832,832,832,832,832,832,832,832,832,834,840,857,874,874,874,874,874,874,874,873,853,815,672,604,561,531,508,442,396,379,370,368,368,373,380,386,393,400,401,402,403,403,405,405,405,407,414,429],"ymouse":[654,654,654,654,654,654,654,654,654,654,654,654,654,654,654,654,654,654,654,654,654,654,654,654,654,654,654,654,654,654,659,665,665,658,658,658,658,658,658,658,655,643,620,545,513,496,482,464,391,297,245,212,189,154,138,122,106,88,54,48,45,43,43,39,39,39,37,35,34],"timestamp_mouse":[37,57,78,98,118,137,158,179,199,218,238,259,278,298,318,337,359,378,397,418,437,458,477,497,518,538,557,579,598,617,637,659,678,698,717,737,757,779,799,818,837,858,878,897,918,938,958,978,997,1019,1038,1058,1078,1097,1118,1138,1158,1178,1198,1219,1238,1259,1278,1298,1317,1338,1357,1378,1397],"xSR":741.5,"ySR":573.95,"xT1":424.9,"yT1":0,"xT2":1058.1,"yT2":0,"toosoon":0,"cond_shown":"randomdotsizeEA","ratio_trial":500,"smaller_num":"5","larger_num":"10","correct_side":2,"subjID":"MariaIsabelKuanCruz23","gender":"1","age":"11","school":"6"},{"start_time":1551893145235,"click_time":1551893146323,"finger_time":1551893145982,"fix_duration":250,"trial":56,"RT":747,"MT":341,"sideResp":1,"stimulus":"img/750/equaldotanddens/R/2_Ratio_750_L_6_R_8.png","xmouse":[772,772,772,772,772,772,772,772,772,772,772,772,772,772,772,772,772,772,772,772,772,772,772,772,772,772,772,772,772,772,772,772,772,772,772,766,758,682,638,609,588,573,550,544,544,544,550,560,561,561,560,558,545,534,523],"ymouse":[635,635,635,635,635,635,635,635,635,635,635,635,635,635,635,635,635,635,635,635,635,635,635,635,635,635,635,635,635,635,635,635,635,635,635,626,616,538,499,469,442,418,331,274,225,189,160,118,109,105,102,99,80,68,58],"timestamp_mouse":[10,31,48,68,88,109,128,149,167,187,208,229,249,268,288,308,327,347,369,388,408,429,447,468,489,508,528,549,569,588,609,629,647,668,687,708,729,747,768,788,808,828,847,869,888,908,928,947,968,987,1008,1028,1047,1068,1088],"xSR":741.5,"ySR":573.95,"xT1":424.9,"yT1":0,"xT2":1058.1,"yT2":0,"toosoon":0,"cond_shown":"equaldotanddens","ratio_trial":750,"smaller_num":"6","larger_num":"8","correct_side":2,"subjID":"MariaIsabelKuanCruz23","gender":"1","age":"11","school":"6"},{"start_time":1551893147675,"click_time":1551893148382,"finger_time":1551893148243,"fix_duration":450.36095427463243,"trial":57,"RT":568,"MT":139,"sideResp":2,"stimulus":"img/500/equaldotanddens/R/9_Ratio_500_L_2_R_4.png","xmouse":[799,799,799,799,799,799,799,799,799,799,799,799,799,799,799,799,799,799,799,799,799,799,799,799,799,799,799,804,817,841,912,946,983,1019,1045,1066],"ymouse":[589,589,589,589,589,589,589,589,589,589,589,589,589,589,589,589,589,589,589,589,589,589,589,589,589,589,589,582,558,516,386,323,256,190,128,63],"timestamp_mouse":[14,39,47,68,89,108,128,148,169,189,209,228,247,268,288,308,329,347,368,387,409,428,448,467,487,508,528,548,568,588,608,627,648,668,688,707],"xSR":741.5,"ySR":573.95,"xT1":424.9,"yT1":0,"xT2":1058.1,"yT2":0,"toosoon":0,"cond_shown":"equaldotanddens","ratio_trial":500,"smaller_num":"2","larger_num":"4","correct_side":2,"subjID":"MariaIsabelKuanCruz23","gender":"1","age":"11","school":"6"},{"start_time":1551893150388,"click_time":1551893153783,"finger_time":1551893151662,"fix_duration":1423.8268216683048,"trial":58,"RT":1274,"MT":2121,"sideResp":1,"stimulus":"img/900/randomdotsizeEA/L/2_Ratio_900_L_20_R_18.png","xmouse":[765,765,765,765,765,765,765,765,765,765,765,765,765,765,765,765,765,765,765,765,765,765,765,765,765,765,765,765,765,765,765,765,765,765,765,765,765,765,765,765,765,765,765,765,765,765,765,765,765,765,765,765,765,765,765,765,765,765,765,765,776,787,799,811,818,821,821,821,822,823,823,821,819,806,755,733,715,699,669,647,612,601,594,593,592,590,588,585,579,576,570,566,560,553,543,539,535,531,528,524,522,520,518,517,513,510,509,508,507,507,507,507,507,507,507,507,507,507,507,507,507,507,507,507,507,507,507,507,507,507,507,507,507,507,507,507,507,507,507,507,507,507,507,507,507,507,507,507,507,507,507,507,507,507,507,507,507,507,507,507,507,507,507,507,507,507,507,507,507,507],"ymouse":[657,657,657,657,657,657,657,657,657,657,657,657,657,657,657,657,657,657,657,657,657,657,657,657,657,657,657,657,657,657,657,657,657,657,657,657,657,657,657,657,657,657,657,657,657,657,657,657,657,657,657,657,657,657,657,657,657,657,657,657,628,605,586,566,553,548,546,544,541,539,536,533,532,527,513,504,496,487,462,437,387,371,362,357,356,351,346,339,327,316,298,283,270,256,229,219,209,199,191,184,177,174,170,167,158,153,150,147,143,139,130,125,123,120,118,114,113,110,107,106,104,104,103,103,103,103,103,102,102,102,102,102,101,101,100,100,100,100,100,100,100,100,100,100,100,100,100,100,100,100,100,100,100,100,100,100,100,100,100,100,100,100,100,100,100,100,100,100,100,98],"timestamp_mouse":[15,37,55,74,96,116,135,156,175,194,214,236,255,275,295,314,335,355,376,394,414,436,454,475,495,514,536,554,575,595,616,635,655,676,695,715,736,756,776,796,815,835,854,876,895,914,936,956,976,996,1016,1034,1055,1076,1095,1115,1134,1156,1174,1194,1216,1235,1254,1274,1294,1315,1335,1354,1375,1395,1416,1434,1456,1475,1496,1515,1536,1554,1575,1595,1615,1634,1656,1675,1695,1715,1735,1754,1775,1794,1815,1835,1855,1876,1895,1915,1934,1954,1976,1995,2016,2035,2056,2075,2095,2114,2135,2155,2174,2194,2215,2235,2256,2275,2294,2315,2334,2354,2376,2396,2415,2435,2454,2475,2496,2516,2535,2556,2575,2596,2615,2635,2655,2675,2695,2714,2735,2755,2775,2796,2815,2835,2855,2874,2896,2915,2936,2955,2974,2996,3015,3035,3055,3075,3096,3115,3136,3155,3174,3196,3216,3235,3256,3275,3296,3315,3335,3355,3375,3395],"xSR":741.5,"ySR":573.95,"xT1":424.9,"yT1":0,"xT2":1058.1,"yT2":0,"toosoon":0,"cond_shown":"randomdotsizeEA","ratio_trial":900,"smaller_num":"18","larger_num":"20","correct_side":1,"subjID":"MariaIsabelKuanCruz23","gender":"1","age":"11","school":"6"},{"start_time":1551893159104,"click_time":1551893160243,"finger_time":1551893159923,"fix_duration":459.9350691834105,"trial":59,"RT":819,"MT":320,"sideResp":1,"stimulus":"img/750/randomdotsizeEA/L/6_Ratio_750_L_24_R_18.png","xmouse":[772,772,772,772,772,772,772,772,772,772,772,772,772,772,772,772,772,772,772,772,772,772,772,772,772,772,772,772,772,772,772,772,772,772,772,772,772,771,757,748,739,729,721,702,692,684,677,670,663,646,638,629,618,592,541,510,479],"ymouse":[647,647,647,647,647,647,647,647,647,647,647,647,647,647,647,647,647,647,647,647,647,647,647,647,647,647,647,647,647,647,647,647,647,647,647,647,634,627,597,585,572,556,541,496,479,465,452,441,427,393,377,364,343,296,206,146,88],"timestamp_mouse":[34,39,58,78,98,120,139,159,179,199,219,239,259,279,299,318,340,359,378,399,420,440,459,480,498,520,539,559,579,598,619,638,658,679,698,720,739,759,779,799,819,839,859,879,899,919,939,958,979,998,1019,1039,1059,1079,1099,1119,1139],"xSR":741.5,"ySR":573.95,"xT1":424.9,"yT1":0,"xT2":1058.1,"yT2":0,"toosoon":0,"cond_shown":"randomdotsizeEA","ratio_trial":750,"smaller_num":"18","larger_num":"24","correct_side":1,"subjID":"MariaIsabelKuanCruz23","gender":"1","age":"11","school":"6"},{"start_time":1551893162671,"click_time":1551893163563,"finger_time":1551893163303,"fix_duration":1386.3637493837168,"trial":60,"RT":632,"MT":260,"sideResp":2,"stimulus":"img/250/randomdotsizeEA/R/6_Ratio_250_L_6_R_24.png","xmouse":[788,788,788,788,788,788,788,788,788,788,788,788,788,788,788,788,788,788,788,788,788,788,788,788,788,788,788,788,788,789,795,804,813,826,840,879,891,904,927,951,1002,1025,1039,1053,1067],"ymouse":[594,594,594,594,594,594,594,594,594,594,594,594,594,594,594,594,594,594,594,594,594,594,594,594,594,594,594,594,594,587,577,565,554,539,524,477,454,424,376,314,210,179,155,129,96],"timestamp_mouse":[21,44,53,71,91,112,132,153,172,192,212,232,251,273,291,313,332,352,373,393,412,431,453,472,492,511,532,552,572,592,612,632,652,672,692,713,731,752,772,792,813,832,851,873,892],"xSR":741.5,"ySR":573.95,"xT1":424.9,"yT1":0,"xT2":1058.1,"yT2":0,"toosoon":0,"cond_shown":"randomdotsizeEA","ratio_trial":250,"smaller_num":"6","larger_num":"24","correct_side":2,"subjID":"MariaIsabelKuanCruz23","gender":"1","age":"11","school":"6"},{"start_time":1551893164807,"click_time":1551893166023,"finger_time":1551893165542,"fix_duration":423.5586971085207,"trial":61,"RT":735,"MT":481,"sideResp":1,"stimulus":"img/750/equaldotanddens/L/13_Ratio_750_L_8_R_6.png","xmouse":[775,775,775,775,775,775,775,775,775,775,775,775,775,775,775,775,775,775,775,775,775,775,775,775,775,775,775,775,775,775,775,775,775,774,771,766,756,720,687,630,617,609,606,604,603,602,598,592,590,579,573,563,553,532,525,520,514,505,503,498,498],"ymouse":[604,604,604,604,604,604,604,604,604,604,604,604,604,604,604,604,604,604,604,604,604,604,604,604,604,604,604,604,604,604,604,604,604,602,596,587,573,541,517,486,474,463,448,432,397,373,350,322,312,268,250,232,213,181,167,155,141,121,116,100,99],"timestamp_mouse":[16,42,56,76,97,116,136,155,176,196,217,235,256,275,296,316,335,357,376,395,415,436,457,477,496,516,535,556,576,596,616,635,657,675,696,716,735,756,776,797,816,836,856,876,896,916,935,956,975,997,1015,1036,1056,1076,1095,1116,1136,1155,1175,1196,1216],"xSR":741.5,"ySR":573.95,"xT1":424.9,"yT1":0,"xT2":1058.1,"yT2":0,"toosoon":0,"cond_shown":"equaldotanddens","ratio_trial":750,"smaller_num":"6","larger_num":"8","correct_side":1,"subjID":"MariaIsabelKuanCruz23","gender":"1","age":"11","school":"6"},{"start_time":1551893168167,"click_time":1551893169783,"finger_time":1551893168783,"fix_duration":1163.4298654042614,"trial":62,"RT":616,"MT":1000,"sideResp":1,"stimulus":"img/900/equaldotsize/L/10_Ratio_900_L_20_R_18.png","xmouse":[782,782,782,782,782,782,782,782,782,782,782,782,782,782,782,782,782,782,782,782,782,782,782,782,782,782,782,782,780,775,766,736,724,714,700,689,660,646,628,616,605,594,587,576,561,517,504,499,495,493,491,489,489,489,489,490,491,493,494,495,496,496,496,496,496,496,496,496,496,496,496,496,496,496,496,496,496,496,497,498,500],"ymouse":[592,592,592,592,592,592,592,592,592,592,592,592,592,592,592,592,592,592,592,592,592,592,592,592,592,592,592,592,590,583,573,548,536,522,502,478,411,380,349,329,315,298,286,270,251,205,190,181,174,167,159,151,149,147,145,141,138,132,128,125,121,115,112,109,108,107,107,107,107,107,107,107,107,107,107,106,106,105,105,103,97],"timestamp_mouse":[16,37,56,76,96,115,136,156,175,196,215,235,255,276,297,316,335,357,376,397,416,437,456,477,495,516,535,557,576,595,616,637,655,676,696,716,736,756,776,795,815,835,855,876,896,917,935,955,975,996,1016,1036,1056,1076,1096,1116,1136,1157,1175,1196,1216,1236,1255,1276,1296,1317,1337,1357,1375,1395,1417,1435,1456,1476,1496,1516,1537,1557,1575,1597,1616],"xSR":741.5,"ySR":573.95,"xT1":424.9,"yT1":0,"xT2":1058.1,"yT2":0,"toosoon":0,"cond_shown":"equaldotsize","ratio_trial":900,"smaller_num":"18","larger_num":"20","correct_side":1,"subjID":"MariaIsabelKuanCruz23","gender":"1","age":"11","school":"6"},{"start_time":1551893170934,"click_time":1551893172164,"finger_time":1551893171623,"fix_duration":250,"trial":63,"RT":689,"MT":541,"sideResp":2,"stimulus":"img/500/equaldotanddens/R/9_Ratio_500_L_2_R_4.png","xmouse":[755,755,755,755,755,755,755,755,755,755,755,755,755,755,755,755,755,755,755,755,755,755,755,755,755,755,755,755,755,755,755,755,766,780,800,822,844,892,913,938,957,974,1008,1018,1028,1033,1034,1034,1034,1034,1034,1034,1034,1035,1040,1043,1046,1046,1048,1052,1058,1072],"ymouse":[626,626,626,626,626,626,626,626,626,626,626,626,626,626,626,626,626,626,626,626,626,626,626,626,626,626,626,626,626,626,626,626,612,594,571,545,515,439,402,368,341,317,284,275,263,251,236,198,172,149,134,122,110,106,98,93,89,87,83,79,75,69],"timestamp_mouse":[9,33,50,69,88,109,129,148,170,189,210,228,250,269,290,308,330,348,369,389,409,429,448,469,490,510,528,550,568,590,609,628,648,669,689,710,729,749,768,789,809,829,849,868,888,910,929,949,968,988,1009,1029,1049,1068,1088,1109,1129,1149,1169,1189,1208,1230],"xSR":741.5,"ySR":573.95,"xT1":424.9,"yT1":0,"xT2":1058.1,"yT2":0,"toosoon":0,"cond_shown":"equaldotanddens","ratio_trial":500,"smaller_num":"2","larger_num":"4","correct_side":2,"subjID":"MariaIsabelKuanCruz23","gender":"1","age":"11","school":"6"},{"start_time":1551893174021,"click_time":1551893175204,"finger_time":1551893174743,"fix_duration":1097.244582364361,"trial":64,"RT":722,"MT":461,"sideResp":1,"stimulus":"img/750/equaldotanddens/R/3_Ratio_750_L_15_R_20.png","xmouse":[810,810,810,810,810,810,810,810,810,810,810,810,810,810,810,810,810,810,810,810,810,810,810,810,810,810,810,810,810,810,810,810,810,801,779,752,708,662,565,538,520,510,506,505,505,505,505,510,519,519,519,519,519,519,517,514,512,510,507,499],"ymouse":[654,654,654,654,654,654,654,654,654,654,654,654,654,654,654,654,654,654,654,654,654,654,654,654,654,654,654,654,654,654,654,654,654,647,634,613,574,525,379,331,297,274,254,219,203,188,171,156,141,138,135,134,134,133,127,124,120,116,110,98],"timestamp_mouse":[9,35,42,62,81,103,121,142,163,182,201,222,243,263,282,302,322,342,362,381,403,422,441,462,483,502,522,541,563,583,602,621,642,662,681,702,722,743,761,781,802,822,842,862,881,902,922,942,962,981,1002,1022,1042,1061,1081,1102,1122,1142,1161,1182],"xSR":741.5,"ySR":573.95,"xT1":424.9,"yT1":0,"xT2":1058.1,"yT2":0,"toosoon":0,"cond_shown":"equaldotanddens","ratio_trial":750,"smaller_num":"15","larger_num":"20","correct_side":2,"subjID":"MariaIsabelKuanCruz23","gender":"1","age":"11","school":"6"},{"start_time":1551893176744,"click_time":1551893177783,"finger_time":1551893177523,"fix_duration":559.1828099205728,"trial":65,"RT":779,"MT":260,"sideResp":1,"stimulus":"img/750/equaldotanddens/L/10_Ratio_750_L_4_R_3.png","xmouse":[777,777,777,777,777,777,777,777,776,776,776,776,776,776,776,776,776,776,776,776,776,776,776,776,776,776,776,776,776,776,776,776,776,776,777,778,779,779,779,773,767,747,661,609,554,518,481,454,445,438,436,435,435],"ymouse":[603,603,603,603,603,603,603,603,602,602,602,602,602,602,602,602,602,602,602,602,602,602,602,602,602,602,602,602,602,602,602,602,596,591,586,583,581,581,581,571,565,552,488,439,384,341,291,218,185,151,126,105,71],"timestamp_mouse":[1,19,38,59,78,98,118,138,158,179,199,218,240,258,279,300,318,338,358,379,399,419,439,460,479,499,519,540,560,578,598,618,639,660,679,700,719,740,758,779,798,819,838,858,879,900,918,938,960,978,999,1019,1039],"xSR":741.5,"ySR":573.95,"xT1":424.9,"yT1":0,"xT2":1058.1,"yT2":0,"toosoon":0,"cond_shown":"equaldotanddens","ratio_trial":750,"smaller_num":"3","larger_num":"4","correct_side":1,"subjID":"MariaIsabelKuanCruz23","gender":"1","age":"11","school":"6"},{"start_time":1551893179672,"click_time":1551893180503,"finger_time":1551893180343,"fix_duration":1189.1895859815456,"trial":66,"RT":671,"MT":160,"sideResp":1,"stimulus":"img/250/equaldotsize/L/7_Ratio_250_L_8_R_2.png","xmouse":[773,773,773,773,773,773,773,773,773,773,773,773,773,773,773,773,773,773,773,773,773,773,773,773,773,773,773,773,773,773,773,768,758,738,699,603,577,552,532,510,486,486],"ymouse":[657,657,657,657,657,657,657,657,657,657,657,657,657,657,657,657,657,657,657,657,657,657,657,657,657,657,657,657,657,657,651,643,632,617,595,531,495,438,375,296,126,60],"timestamp_mouse":[12,41,50,71,90,111,131,151,171,190,211,232,250,272,292,311,331,351,371,391,412,431,450,471,490,512,530,552,570,591,611,630,651,671,691,711,732,751,771,790,811,830],"xSR":741.5,"ySR":573.95,"xT1":424.9,"yT1":0,"xT2":1058.1,"yT2":0,"toosoon":0,"cond_shown":"equaldotsize","ratio_trial":250,"smaller_num":"2","larger_num":"8","correct_side":1,"subjID":"MariaIsabelKuanCruz23","gender":"1","age":"11","school":"6"},{"start_time":1551893186306,"click_time":1551893187702,"finger_time":1551893187022,"fix_duration":1362.276250664832,"trial":67,"RT":716,"MT":680,"sideResp":1,"stimulus":"img/900/equaldotanddens/L/10_Ratio_900_L_20_R_18.png","xmouse":[783,783,783,783,783,783,783,783,783,783,783,783,783,783,783,783,783,783,783,783,783,783,783,783,783,783,783,783,783,783,783,783,783,784,752,714,683,660,619,600,584,573,565,562,560,560,558,553,545,540,535,529,525,522,516,512,509,509,509,509,509,509,509,511,512,512,512,512,512,513],"ymouse":[634,634,634,634,634,634,634,634,634,634,634,634,634,634,634,634,634,634,634,634,634,634,634,634,634,634,634,634,634,634,634,634,634,633,580,516,453,402,317,289,266,246,227,214,204,199,193,184,169,161,151,142,137,132,119,110,104,103,103,103,103,103,103,103,103,103,103,103,103,97],"timestamp_mouse":[17,44,57,78,97,117,138,156,176,197,217,237,256,277,297,317,336,356,378,396,417,438,456,477,496,517,536,557,576,598,618,636,658,676,696,716,737,757,777,797,818,836,856,877,898,916,937,957,977,996,1018,1037,1057,1077,1096,1116,1138,1158,1177,1197,1217,1238,1257,1276,1298,1316,1337,1357,1377,1396],"xSR":741.5,"ySR":573.95,"xT1":424.9,"yT1":0,"xT2":1058.1,"yT2":0,"toosoon":0,"cond_shown":"equaldotanddens","ratio_trial":900,"smaller_num":"18","larger_num":"20","correct_side":1,"subjID":"MariaIsabelKuanCruz23","gender":"1","age":"11","school":"6"},{"start_time":1551893188845,"click_time":1551893189984,"finger_time":1551893189564,"fix_duration":459.32248002766704,"trial":68,"RT":719,"MT":420,"sideResp":1,"stimulus":"img/750/equaldotanddens/L/10_Ratio_750_L_4_R_3.png","xmouse":[801,801,801,801,801,801,801,801,801,801,801,801,801,801,801,801,801,801,801,801,801,801,801,801,801,801,801,801,801,801,801,801,801,797,795,792,787,771,761,746,725,703,684,642,621,598,573,519,509,501,491,480,462,456,454,450,447,443],"ymouse":[667,667,667,667,667,667,667,667,667,667,667,667,667,667,667,667,667,667,667,667,667,667,667,667,667,667,667,667,667,667,667,659,635,612,595,575,549,484,459,434,404,379,361,336,327,317,306,277,270,264,255,244,209,190,170,148,128,94],"timestamp_mouse":[1,19,39,58,80,100,118,139,158,179,200,219,240,259,279,299,318,339,359,379,399,420,439,458,479,499,518,539,560,580,599,619,639,659,680,698,719,739,759,778,799,819,838,858,879,899,920,939,959,978,999,1018,1039,1058,1079,1098,1120,1138],"xSR":741.5,"ySR":573.95,"xT1":424.9,"yT1":0,"xT2":1058.1,"yT2":0,"toosoon":0,"cond_shown":"equaldotanddens","ratio_trial":750,"smaller_num":"3","larger_num":"4","correct_side":1,"subjID":"MariaIsabelKuanCruz23","gender":"1","age":"11","school":"6"},{"start_time":1551893190856,"click_time":1551893192244,"finger_time":1551893191604,"fix_duration":250,"trial":69,"RT":748,"MT":640,"sideResp":2,"stimulus":"img/750/randomdotsizeEA/R/15_Ratio_750_L_9_R_12.png","xmouse":[787,787,787,787,787,787,787,787,787,787,787,787,787,787,787,787,787,787,787,787,787,787,787,787,787,787,787,787,787,787,788,788,788,789,790,794,819,834,852,869,885,916,929,937,944,948,951,953,955,961,971,985,1019,1039,1055,1069,1100,1106,1108,1108,1108,1106,1112,1117,1119,1119,1118,1118,1118,1118],"ymouse":[658,658,658,658,658,658,658,658,658,658,658,658,658,658,658,658,658,658,658,658,658,658,658,658,658,658,658,658,658,658,659,645,630,619,613,607,583,559,527,500,477,440,426,418,408,402,381,373,363,347,331,313,280,267,256,247,230,225,222,214,197,167,155,146,139,134,115,108,102,99],"timestamp_mouse":[8,28,47,68,88,108,128,148,169,187,209,229,249,267,288,308,328,347,368,389,408,428,447,467,488,509,528,548,567,588,608,628,648,667,687,709,728,748,767,787,808,828,848,868,888,909,928,947,968,989,1008,1027,1047,1068,1088,1108,1128,1148,1167,1187,1208,1228,1247,