[{"start_time":1551891754125,"click_time":1551891769316,"finger_time":1551891754137,"fix_duration":947.4525095432634,"trial":0,"RT":12,"MT":15179,"sideResp":2,"stimulus":[],"xmouse":[790,790,790,790,790,790,790,790,790,790,790,790,790,790,790,790,790,790,790,790,790,790,790,790,790,790,790,790,790,790,790,790,790,790,790,790,790,790,790,790,790,790,790,790,790,790,790,790,790,790,790,790,790,790,790,790,790,790,790,790,790,790,790,790,790,790,790,790,790,790,790,790,790,790,790,790,790,790,790,790,790,790,790,790,790,790,790,790,790,790,790,790,790,790,790,790,790,790,790,790,790,790,790,790,790,790,790,790,790,790,790,790,790,790,790,790,790,790,790,790,790,790,790,790,790,790,790,790,790,790,790,790,790,790,790,790,790,790,790,790,790,790,790,790,790,790,790,790,790,790,790,790,790,790,790,790,790,790,790,790,790,790,790,790,790,790,790,790,790,790,790,790,790,790,790,790,790,790,790,790,790,790,790,790,790,790,790,790,790,790,790,790,790,790,790,790,790,790,790,790,790,790,790,790,790,790,790,790,790,790,790,790,790,790,790,790,790,790,790,790,790,790,790,790,790,790,790,790,790,790,790,790,790,790,790,790,790,790,790,790,790,790,790,790,790,790,790,790,790,790,790,790,790,790,790,790,790,790,790,790,790,790,790,790,790,790,790,790,790,790,790,790,790,790,790,790,790,790,790,790,790,790,790,790,790,790,790,790,790,790,790,790,790,790,790,790,790,790,790,790,790,790,790,790,790,790,790,790,790,790,790,790,790,790,790,790,790,790,790,790,790,790,790,790,790,790,790,790,790,790,790,790,790,790,790,790,790,790,790,790,790,790,790,790,790,790,790,790,790,790,790,790,790,790,790,790,790,790,790,790,790,790,790,790,790,790,790,790,790,790,790,790,790,790,790,790,790,790,790,790,790,790,790,790,790,790,790,790,790,790,790,790,790,790,790,790,790,790,790,790,790,790,790,790,790,790,790,790,790,790,790,790,790,790,790,790,790,790,790,790,790,790,790,790,790,790,790,790,790,790,790,790,790,790,790,790,790,790,790,790,790,790,790,790,790,790,790,790,790,790,790,790,790,790,790,790,790,790,790,790,790,790,790,790,790,790,790,790,790,790,790,790,790,790,790,790,790,790,790,790,790,790,790,790,790,790,790,790,790,790,790,790,790,790,790,790,790,790,790,790,790,790,790,790,790,790,790,790,790,790,790,790,790,790,790,790,790,790,790,790,790,790,790,790,790,790,790,790,790,790,790,790,790,790,790,790,790,790,790,790,790,790,790,790,790,790,790,790,790,790,790,790,790,790,790,790,790,790,790,790,790,790,790,790,790,790,790,790,790,790,790,790,790,790,790,790,790,790,790,790,790,790,790,790,790,790,790,790,790,790,790,790,790,790,790,790,790,790,790,790,790,790,790,790,790,790,790,790,790,790,790,790,790,790,790,790,790,790,790,790,790,790,790,790,790,790,790,790,790,790,790,790,790,790,790,790,790,790,790,790,790,790,790,790,790,790,790,790,790,790,790,790,790,790,790,790,790,790,790,790,790,790,790,790,790,790,790,790,790,790,790,790,790,790,790,790,790,790,790,790,790,790,790,790,790,790,790,790,790,790,790,790,790,790,790,790,748,762,764,764,768,858,866,866,866,866,866,866,866,866,866,866,867,898,961,1018,1062,1162,1185,1193,1193,1172,1156,1150,1136,1106,973,933,881,821,773,744,743,743,746,748,749,757,762,767,776,785,805,835,871,912,980,995,1003,1008,1008,1008,1008,1008,1008,1008,1024,1040,1056,1068],"ymouse":[484,484,484,484,484,484,484,484,484,484,484,484,484,484,484,484,484,484,484,484,484,484,484,484,484,484,484,484,484,484,484,484,484,484,484,484,484,484,484,484,484,484,484,484,484,484,484,484,484,484,484,484,484,484,484,484,484,484,484,484,484,484,484,484,484,484,484,484,484,484,484,484,484,484,484,484,484,484,484,484,484,484,484,484,484,484,484,484,484,484,484,484,484,484,484,484,484,484,484,484,484,484,484,484,484,484,484,484,484,484,484,484,484,484,484,484,484,484,484,484,484,484,484,484,484,484,484,484,484,484,484,484,484,484,484,484,484,484,484,484,484,484,484,484,484,484,484,484,484,484,484,484,484,484,484,484,484,484,484,484,484,484,484,484,484,484,484,484,484,484,484,484,484,484,484,484,484,484,484,484,484,484,484,484,484,484,484,484,484,484,484,484,484,484,484,484,484,484,484,484,484,484,484,484,484,484,484,484,484,484,484,484,484,484,484,484,484,484,484,484,484,484,484,484,484,484,484,484,484,484,484,484,484,484,484,484,484,484,484,484,484,484,484,484,484,484,484,484,484,484,484,484,484,484,484,484,484,484,484,484,484,484,484,484,484,484,484,484,484,484,484,484,484,484,484,484,484,484,484,484,484,484,484,484,484,484,484,484,484,484,484,484,484,484,484,484,484,484,484,484,484,484,484,484,484,484,484,484,484,484,484,484,484,484,484,484,484,484,484,484,484,484,484,484,484,484,484,484,484,484,484,484,484,484,484,484,484,484,484,484,484,484,484,484,484,484,484,484,484,484,484,484,484,484,484,484,484,484,484,484,484,484,484,484,484,484,484,484,484,484,484,484,484,484,484,484,484,484,484,484,484,484,484,484,484,484,484,484,484,484,484,484,484,484,484,484,484,484,484,484,484,484,484,484,484,484,484,484,484,484,484,484,484,484,484,484,484,484,484,484,484,484,484,484,484,484,484,484,484,484,484,484,484,484,484,484,484,484,484,484,484,484,484,484,484,484,484,484,484,484,484,484,484,484,484,484,484,484,484,484,484,484,484,484,484,484,484,484,484,484,484,484,484,484,484,484,484,484,484,484,484,484,484,484,484,484,484,484,484,484,484,484,484,484,484,484,484,484,484,484,484,484,484,484,484,484,484,484,484,484,484,484,484,484,484,484,484,484,484,484,484,484,484,484,484,484,484,484,484,484,484,484,484,484,484,484,484,484,484,484,484,484,484,484,484,484,484,484,484,484,484,484,484,484,484,484,484,484,484,484,484,484,484,484,484,484,484,484,484,484,484,484,484,484,484,484,484,484,484,484,484,484,484,484,484,484,484,484,484,484,484,484,484,484,484,484,484,484,484,484,484,484,484,484,484,484,484,484,484,484,484,484,484,484,484,484,484,484,484,484,484,484,484,484,484,484,484,484,484,484,484,484,484,484,484,484,484,484,484,484,484,484,484,484,484,484,484,484,484,484,484,484,484,484,484,484,484,484,484,484,484,484,484,484,484,484,484,484,484,484,484,484,484,484,484,484,484,484,484,484,484,484,484,484,484,484,484,484,484,484,484,484,484,484,484,484,47,0,0,0,3,36,37,37,37,37,37,37,37,37,37,37,38,57,121,203,273,439,507,562,600,620,620,620,622,622,583,578,578,572,566,564,564,564,568,574,575,575,575,579,587,590,562,506,431,329,170,135,114,106,106,106,106,106,106,105,97,86,73,66],"timestamp_mouse":[12,31,52,71,90,111,131,150,172,191,211,232,251,270,291,311,330,352,372,390,410,431,450,470,491,511,532,551,571,590,610,630,651,671,690,711,731,750,771,790,811,831,851,872,890,911,930,952,970,990,1011,1030,1051,1071,1091,1110,1131,1152,1171,1191,1210,1231,1251,1271,1291,1311,1331,1351,1372,1390,1412,1432,1451,1472,1491,1511,1530,1551,1570,1591,1611,1632,1651,1671,1690,1711,1731,1751,1771,1791,1811,1831,1850,1870,1892,1911,1931,1951,1971,1991,2011,2030,2051,2072,2091,2112,2131,2152,2171,2190,2211,2230,2252,2272,2291,2311,2331,2352,2371,2392,2412,2431,2452,2472,2490,2510,2530,2552,2571,2591,2610,2630,2650,2671,2691,2712,2731,2752,2772,2791,2811,2831,2851,2871,2891,2911,2932,2952,2970,2991,3011,3031,3051,3071,3090,3111,3130,3151,3172,3191,3211,3231,3250,3271,3291,3311,3331,3351,3371,3391,3410,3432,3452,3471,3491,3511,3532,3551,3571,3590,3611,3630,3651,3671,3691,3711,3731,3750,3771,3792,3812,3831,3851,3870,3891,3911,3931,3950,3972,3991,4012,4032,4052,4070,4090,4110,4131,4151,4172,4191,4212,4230,4252,4272,4291,4311,4331,4351,4371,4391,4410,4431,4451,4472,4491,4512,4532,4551,4570,4590,4611,4632,4652,4671,4692,4710,4731,4751,4771,4791,4811,4832,4851,4871,4892,4911,4931,4950,4970,4991,5012,5032,5051,5070,5091,5112,5131,5151,5172,5191,5211,5231,5251,5271,5291,5311,5331,5350,5370,5391,5411,5431,5451,5471,5491,5510,5530,5551,5571,5592,5612,5630,5651,5670,5691,5711,5731,5751,5772,5791,5811,5831,5851,5870,5891,5911,5931,5951,5972,5990,6011,6032,6051,6071,6091,6111,6132,6150,6171,6192,6212,6232,6250,6270,6291,6310,6331,6351,6371,6391,6411,6431,6451,6472,6491,6511,6532,6551,6572,6591,6610,6631,6651,6672,6691,6711,6731,6751,6771,6791,6811,6831,6851,6872,6891,6911,6931,6952,6972,6990,7012,7031,7051,7072,7091,7111,7130,7151,7171,7191,7211,7231,7250,7270,7291,7311,7331,7351,7372,7391,7412,7431,7450,7471,7491,7511,7532,7551,7572,7591,7611,7630,7651,7672,7691,7711,7731,7752,7771,7790,7810,7830,7851,7872,7891,7912,7931,7950,7970,7992,8012,8031,8051,8070,8090,8111,8131,8151,8172,8191,8210,8231,8251,8271,8291,8311,8331,8350,8372,8391,8410,8432,8451,8472,8490,8512,8532,8551,8572,8591,8611,8631,8650,8672,8691,8711,8731,8751,8772,8791,8812,8831,8851,8871,8891,8910,8931,8951,8971,8991,9010,9030,9051,9072,9091,9111,9131,9151,9172,9191,9211,9231,9251,9272,9291,9311,9331,9351,9371,9391,9411,9431,9451,9472,9491,9511,9531,9551,9571,9591,9611,9631,9652,9672,9691,9711,9730,9751,9770,9791,9811,9831,9852,9870,9890,9911,9931,9951,9971,9991,10010,10031,10050,10071,10091,10112,10131,10151,10171,10191,10212,10231,10251,10271,10291,10310,10331,10351,10371,10390,10411,10430,10451,10472,10491,10511,10531,10550,10571,10591,10612,10631,10651,10670,10690,10711,10731,10751,10772,10790,10810,10830,10850,10872,10892,10911,10931,10952,10970,10990,11012,11032,11051,11072,11092,11111,11131,11150,11171,11191,11212,11231,11252,11272,11292,11311,11331,11351,11371,11391,11412,11431,11452,11471,11491,11511,11531,11551,11571,11590,11610,11631,11650,11671,11691,11710,11730,11751,11771,11791,11812,11831,11852,11871,11891,11911,11931,11951,11971,11991,12011,12030,12052,12072,12091,12111,12132,12152,12170,12191,12211,12232,12251,12272,12291,12311,12331,12351,12372,12392,12411,12430,12451,12471,12492,12512,12531,12551,12571,12590,12610,12630,12651,12671,12691,12710,12731,12751,12771,12792,12811,12831,12851,12870,12891,12911,12931,12951,12971,12991,13011,13031,13051,13070,13090,13111,13132,13151,13171,13191,13211,13231,13251,13271,13291,13312,13331,13352,13371,13392,13411,13430,13451,13470,13491,13512,13531,13551,13572,13592,13612,13631,13650,13671,13690,13711,13731,13751,13772,13790,13810,13831,13851,13872,13892,13911,13931,13951,13971,13990,14010,14032,14050,14070,14091,14111,14131,14151,14171,14191,14211,14232,14252,14271,14291,14310,14330,14350,14371,14391,14412,14432,14451,14470,14491,14511,14531,14551,14571,14591,14611,14631,14651,14670,14691,14711,14731,14751,14771,14790,14811,14830,14852,14871,14892,14912,14931,14951,14971,14990,15012,15030,15051,15071,15092,15112,15131,15151,15171,15190],"xSR":741.5,"ySR":449.15000000000003,"xT1":424.9,"yT1":0,"xT2":1058.1,"yT2":0,"toosoon":0,"cond_shown":"Incongruent","ratio_trial":100,"L_num":12,"L_den":30,"R_num":2,"R_den":4,"correct_side":2,"subjID":"MariaIsabelKuanCruz23","gender":"1","age":"11","school":"6","test":{"fix_dur":[250,1500],"timestim":1000,"targets_dim":[100,100],"targets_relative_coord":[0.3,0.7],"size_stim":[880,420],"start_dim":[100,100],"size_start":[300,300],"size_fix":60,"samplingrate":20,"img_types":["Congruent","Incongruent"],"ratios":[100,200,300],"rep_conds":19,"nTrials":120,"trials_to_rest":500,"Trials_order":[61,69,9,48,96,70,107,42,3,109,6,98,104,113,110,8,1,37,34,85,55,19,66,47,115,86,82,18,100,112,15,111,46,78,63,79,14,60,31,40,81,105,76,52,108,93,116,36,12,83,54,95,118,65,33,4,101,29,71,7,94,57,5,64,84,90,92,11,22,58,25,87,59,39,10,119,17,20,80,44,32,45,35,56,106,72,30,43,73,27,41,74,97,53,38,51,2,16,21,102,89,117,77,26,49,114,62,103,13,67,0,50,28,91,23,99,24,75,88,68],"cond_shown":["Incongruent","Incongruent","Incongruent","Congruent","Congruent","Congruent","Incongruent","Congruent","Incongruent","Incongruent","Congruent","Congruent","Congruent","Incongruent","Congruent","Congruent","Incongruent","Incongruent","Congruent","Incongruent","Incongruent","Incongruent","Congruent","Incongruent","Incongruent","Congruent","Congruent","Congruent","Congruent","Congruent","Incongruent","Incongruent","Congruent","Congruent","Incongruent","Incongruent","Congruent","Congruent","Incongruent","Congruent","Incongruent","Incongruent","Congruent","Congruent","Congruent","Incongruent","Congruent","Congruent","Congruent","Incongruent","Congruent","Incongruent","Congruent","Incongruent","Incongruent","Congruent","Incongruent","Incongruent","Incongruent","Incongruent","Congruent","Incongruent","Incongruent","Congruent","Congruent","Congruent","Congruent","Incongruent","Congruent","Congruent","Incongruent","Incongruent","Incongruent","Incongruent","Congruent","Incongruent","Incongruent","Congruent","Congruent","Congruent","Congruent","Incongruent","Incongruent","Congruent","Congruent","Congruent","Congruent","Incongruent","Incongruent","Incongruent","Incongruent","Congruent","Incongruent","Incongruent","Congruent","Incongruent","Congruent","Congruent","Incongruent","Congruent","Incongruent","Incongruent","Incongruent","Congruent","Incongruent","Congruent","Congruent","Incongruent","Incongruent","Incongruent","Congruent","Congruent","Congruent","Incongruent","Incongruent","Incongruent","Congruent","Incongruent","Congruent","Congruent"],"ratio_trial":[100,200,200,100,100,300,300,100,200,100,100,200,200,300,200,200,100,100,300,100,100,100,100,300,100,200,300,100,300,300,200,200,300,100,200,100,200,100,100,300,200,200,300,300,100,200,200,100,100,300,100,300,300,300,200,300,300,300,300,100,300,200,300,300,100,100,200,300,300,300,100,200,300,200,300,300,300,200,200,200,200,200,300,200,300,100,100,100,100,200,300,200,100,300,200,200,200,300,200,100,300,200,300,200,100,100,200,100,100,100,100,200,300,100,300,200,100,200,300,200],"left_num":[12,14,1,4,12,20,4,3,14,13,7,6,7,7,16,21,9,12,20,13,9,2,1,13,9,3,1,8,7,3,3,7,1,10,4,12,6,4,9,9,3,14,4,20,2,7,15,9,4,13,15,13,1,4,14,3,8,4,7,12,18,14,13,20,7,1,3,3,1,12,8,14,4,14,18,4,4,5,3,21,13,7,4,16,2,7,6,9,9,7,13,1,9,8,8,6,3,24,11,3,4,7,7,16,13,2,7,8,11,9,11,13,1,6,13,6,11,7,11,9],"right_num":[2,6,2,15,13,8,8,2,12,12,15,11,2,8,9,2,20,9,5,6,14,8,18,12,14,14,7,2,20,11,11,8,8,3,1,9,11,15,20,3,1,6,13,13,11,8,4,8,6,12,13,12,3,2,12,11,9,6,8,9,9,6,12,9,15,18,14,4,8,2,1,6,8,6,9,6,8,14,11,2,14,12,6,12,12,9,5,13,14,6,12,21,6,9,3,3,11,8,3,4,2,14,8,12,12,11,18,6,9,6,6,14,11,7,12,3,6,6,1,13],"left_den":[30,30,3,10,30,25,5,6,30,26,14,20,21,10,30,30,10,24,25,26,15,4,2,26,15,6,20,16,14,12,4,10,30,25,30,24,20,10,10,10,10,30,20,25,5,10,25,15,8,26,25,26,5,20,30,12,10,5,10,24,20,30,26,25,14,2,6,6,30,24,20,30,5,30,20,5,5,10,10,30,26,10,5,20,10,14,20,15,15,15,26,2,18,10,15,20,10,30,20,20,20,10,10,20,26,5,15,16,22,18,22,26,5,10,26,20,22,15,22,30],"right_den":[4,9,15,30,26,16,16,5,18,20,25,22,15,20,27,4,25,15,10,10,28,20,30,15,28,20,20,5,25,20,20,16,24,10,3,15,22,30,25,5,2,9,26,26,22,16,10,16,10,15,26,15,6,4,18,20,18,12,20,15,15,9,15,18,25,30,20,20,24,10,2,9,16,9,15,12,16,20,22,4,20,24,12,20,24,15,25,26,28,9,15,30,10,18,9,6,22,16,4,16,4,28,20,20,20,22,27,10,15,10,15,20,22,14,15,6,15,9,5,26],"correct_side":[2,2,1,2,2,1,1,1,2,2,2,2,1,1,1,1,1,2,1,2,1,1,2,2,1,2,2,1,2,2,1,1,2,1,2,2,2,2,1,1,2,2,2,1,2,1,1,1,2,2,1,2,2,2,2,2,1,1,1,2,1,2,2,1,2,2,2,1,2,1,2,2,1,2,1,1,1,2,2,1,2,1,1,1,2,2,1,1,1,2,2,2,2,1,1,2,2,1,2,2,2,1,1,1,2,2,2,2,2,2,1,2,2,1,2,2,1,2,1,2],"img_shown":["img2/100/Incongruent/R/I_Dist_100_LN_12_LD_30_RN_2_RD_4_1.png","img2/200/Incongruent/R/I_Dist_200_LN_14_LD_30_RN_6_RD_9_1.png","img2/200/Incongruent/L/I_Dist_200_LN_1_LD_3_RN_2_RD_15_0.png","img2/100/Congruent/R/C_Dist_100_LN_4_LD_10_RN_15_RD_30_1.png","img2/100/Congruent/R/C_Dist_100_LN_12_LD_30_RN_13_RD_26_1.png","img2/300/Congruent/L/C_Dist_300_LN_20_LD_25_RN_8_RD_16_0.png","img2/300/Incongruent/L/I_Dist_300_LN_4_LD_5_RN_8_RD_16_0.png","img2/100/Congruent/L/C_Dist_100_LN_3_LD_6_RN_2_RD_5_0.png","img2/200/Incongruent/R/I_Dist_200_LN_14_LD_30_RN_12_RD_18_1.png","img2/100/Incongruent/R/I_Dist_100_LN_13_LD_26_RN_12_RD_20_1.png","img2/100/Congruent/R/C_Dist_100_LN_7_LD_14_RN_15_RD_25_1.png","img2/200/Congruent/R/C_Dist_200_LN_6_LD_20_RN_11_RD_22_1.png","img2/200/Congruent/L/C_Dist_200_LN_7_LD_21_RN_2_RD_15_0.png","img2/300/Incongruent/L/I_Dist_300_LN_7_LD_10_RN_8_RD_20_0.png","img2/200/Congruent/L/C_Dist_200_LN_16_LD_30_RN_9_RD_27_0.png","img2/200/Congruent/L/C_Dist_200_LN_21_LD_30_RN_2_RD_4_0.png","img2/100/Incongruent/L/I_Dist_100_LN_9_LD_10_RN_20_RD_25_0.png","img2/100/Incongruent/R/I_Dist_100_LN_12_LD_24_RN_9_RD_15_1.png","img2/300/Congruent/L/C_Dist_300_LN_20_LD_25_RN_5_RD_10_0.png","img2/100/Incongruent/R/I_Dist_100_LN_13_LD_26_RN_6_RD_10_1.png","img2/100/Incongruent/L/I_Dist_100_LN_9_LD_15_RN_14_RD_28_0.png","img2/100/Incongruent/L/I_Dist_100_LN_2_LD_4_RN_8_RD_20_0.png","img2/100/Congruent/R/C_Dist_100_LN_1_LD_2_RN_18_RD_30_1.png","img2/300/Incongruent/R/I_Dist_300_LN_13_LD_26_RN_12_RD_15_1.png","img2/100/Incongruent/L/I_Dist_100_LN_9_LD_15_RN_14_RD_28_0.png","img2/200/Congruent/R/C_Dist_200_LN_3_LD_6_RN_14_RD_20_1.png","img2/300/Congruent/R/C_Dist_300_LN_1_LD_20_RN_7_RD_20_1.png","img2/100/Congruent/L/C_Dist_100_LN_8_LD_16_RN_2_RD_5_0.png","img2/300/Congruent/R/C_Dist_300_LN_7_LD_14_RN_20_RD_25_1.png","img2/300/Congruent/R/C_Dist_300_LN_3_LD_12_RN_11_RD_20_1.png","img2/200/Incongruent/L/I_Dist_200_LN_3_LD_4_RN_11_RD_20_0.png","img2/200/Incongruent/L/I_Dist_200_LN_7_LD_10_RN_8_RD_16_0.png","img2/300/Congruent/R/C_Dist_300_LN_1_LD_30_RN_8_RD_24_1.png","img2/100/Congruent/L/C_Dist_100_LN_10_LD_25_RN_3_RD_10_0.png","img2/200/Incongruent/R/I_Dist_200_LN_4_LD_30_RN_1_RD_3_1.png","img2/100/Incongruent/R/I_Dist_100_LN_12_LD_24_RN_9_RD_15_1.png","img2/200/Congruent/R/C_Dist_200_LN_6_LD_20_RN_11_RD_22_1.png","img2/100/Congruent/R/C_Dist_100_LN_4_LD_10_RN_15_RD_30_1.png","img2/100/Incongruent/L/I_Dist_100_LN_9_LD_10_RN_20_RD_25_0.png","img2/300/Congruent/L/C_Dist_300_LN_9_LD_10_RN_3_RD_5_0.png","img2/200/Incongruent/R/I_Dist_200_LN_3_LD_10_RN_1_RD_2_1.png","img2/200/Incongruent/R/I_Dist_200_LN_14_LD_30_RN_6_RD_9_1.png","img2/300/Congruent/R/C_Dist_300_LN_4_LD_20_RN_13_RD_26_1.png","img2/300/Congruent/L/C_Dist_300_LN_20_LD_25_RN_13_RD_26_0.png","img2/100/Congruent/R/C_Dist_100_LN_2_LD_5_RN_11_RD_22_1.png","img2/200/Incongruent/L/I_Dist_200_LN_7_LD_10_RN_8_RD_16_0.png","img2/200/Congruent/L/C_Dist_200_LN_15_LD_25_RN_4_RD_10_0.png","img2/100/Congruent/L/C_Dist_100_LN_9_LD_15_RN_8_RD_16_0.png","img2/100/Congruent/R/C_Dist_100_LN_4_LD_8_RN_6_RD_10_1.png","img2/300/Incongruent/R/I_Dist_300_LN_13_LD_26_RN_12_RD_15_1.png","img2/100/Congruent/L/C_Dist_100_LN_15_LD_25_RN_13_RD_26_0.png","img2/300/Incongruent/R/I_Dist_300_LN_13_LD_26_RN_12_RD_15_1.png","img2/300/Congruent/R/C_Dist_300_LN_1_LD_5_RN_3_RD_6_1.png","img2/300/Incongruent/R/I_Dist_300_LN_4_LD_20_RN_2_RD_4_1.png","img2/200/Incongruent/R/I_Dist_200_LN_14_LD_30_RN_12_RD_18_1.png","img2/300/Congruent/R/C_Dist_300_LN_3_LD_12_RN_11_RD_20_1.png","img2/300/Incongruent/L/I_Dist_300_LN_8_LD_10_RN_9_RD_18_0.png","img2/300/Incongruent/L/I_Dist_300_LN_4_LD_5_RN_6_RD_12_0.png","img2/300/Incongruent/L/I_Dist_300_LN_7_LD_10_RN_8_RD_20_0.png","img2/100/Incongruent/R/I_Dist_100_LN_12_LD_24_RN_9_RD_15_1.png","img2/300/Congruent/L/C_Dist_300_LN_18_LD_20_RN_9_RD_15_0.png","img2/200/Incongruent/R/I_Dist_200_LN_14_LD_30_RN_6_RD_9_1.png","img2/300/Incongruent/R/I_Dist_300_LN_13_LD_26_RN_12_RD_15_1.png","img2/300/Congruent/L/C_Dist_300_LN_20_LD_25_RN_9_RD_18_0.png","img2/100/Congruent/R/C_Dist_100_LN_7_LD_14_RN_15_RD_25_1.png","img2/100/Congruent/R/C_Dist_100_LN_1_LD_2_RN_18_RD_30_1.png","img2/200/Congruent/R/C_Dist_200_LN_3_LD_6_RN_14_RD_20_1.png","img2/300/Incongruent/L/I_Dist_300_LN_3_LD_6_RN_4_RD_20_0.png","img2/300/Congruent/R/C_Dist_300_LN_1_LD_30_RN_8_RD_24_1.png","img2/300/Congruent/L/C_Dist_300_LN_12_LD_24_RN_2_RD_10_0.png","img2/100/Incongruent/R/I_Dist_100_LN_8_LD_20_RN_1_RD_2_1.png","img2/200/Incongruent/R/I_Dist_200_LN_14_LD_30_RN_6_RD_9_1.png","img2/300/Incongruent/L/I_Dist_300_LN_4_LD_5_RN_8_RD_16_0.png","img2/200/Incongruent/R/I_Dist_200_LN_14_LD_30_RN_6_RD_9_1.png","img2/300/Congruent/L/C_Dist_300_LN_18_LD_20_RN_9_RD_15_0.png","img2/300/Incongruent/L/I_Dist_300_LN_4_LD_5_RN_6_RD_12_0.png","img2/300/Incongruent/L/I_Dist_300_LN_4_LD_5_RN_8_RD_16_0.png","img2/200/Congruent/R/C_Dist_200_LN_5_LD_10_RN_14_RD_20_1.png","img2/200/Congruent/R/C_Dist_200_LN_3_LD_10_RN_11_RD_22_1.png","img2/200/Congruent/L/C_Dist_200_LN_21_LD_30_RN_2_RD_4_0.png","img2/200/Congruent/R/C_Dist_200_LN_13_LD_26_RN_14_RD_20_1.png","img2/200/Incongruent/L/I_Dist_200_LN_7_LD_10_RN_12_RD_24_0.png","img2/300/Incongruent/L/I_Dist_300_LN_4_LD_5_RN_6_RD_12_0.png","img2/200/Congruent/L/C_Dist_200_LN_16_LD_20_RN_12_RD_20_0.png","img2/300/Congruent/R/C_Dist_300_LN_2_LD_10_RN_12_RD_24_1.png","img2/100/Congruent/R/C_Dist_100_LN_7_LD_14_RN_9_RD_15_1.png","img2/100/Congruent/L/C_Dist_100_LN_6_LD_20_RN_5_RD_25_0.png","img2/100/Incongruent/L/I_Dist_100_LN_9_LD_15_RN_13_RD_26_0.png","img2/100/Incongruent/L/I_Dist_100_LN_9_LD_15_RN_14_RD_28_0.png","img2/200/Incongruent/R/I_Dist_200_LN_7_LD_15_RN_6_RD_9_1.png","img2/300/Incongruent/R/I_Dist_300_LN_13_LD_26_RN_12_RD_15_1.png","img2/200/Congruent/R/C_Dist_200_LN_1_LD_2_RN_21_RD_30_1.png","img2/100/Incongruent/R/I_Dist_100_LN_9_LD_18_RN_6_RD_10_1.png","img2/300/Incongruent/L/I_Dist_300_LN_8_LD_10_RN_9_RD_18_0.png","img2/200/Congruent/L/C_Dist_200_LN_8_LD_15_RN_3_RD_9_0.png","img2/200/Incongruent/R/I_Dist_200_LN_6_LD_20_RN_3_RD_6_1.png","img2/200/Congruent/R/C_Dist_200_LN_3_LD_10_RN_11_RD_22_1.png","img2/300/Congruent/L/C_Dist_300_LN_24_LD_30_RN_8_RD_16_0.png","img2/200/Incongruent/R/I_Dist_200_LN_11_LD_20_RN_3_RD_4_1.png","img2/100/Congruent/R/C_Dist_100_LN_3_LD_20_RN_4_RD_16_1.png","img2/300/Incongruent/R/I_Dist_300_LN_4_LD_20_RN_2_RD_4_1.png","img2/200/Incongruent/L/I_Dist_200_LN_7_LD_10_RN_14_RD_28_0.png","img2/300/Incongruent/L/I_Dist_300_LN_7_LD_10_RN_8_RD_20_0.png","img2/200/Congruent/L/C_Dist_200_LN_16_LD_20_RN_12_RD_20_0.png","img2/100/Incongruent/R/I_Dist_100_LN_13_LD_26_RN_12_RD_20_1.png","img2/100/Congruent/R/C_Dist_100_LN_2_LD_5_RN_11_RD_22_1.png","img2/200/Congruent/R/C_Dist_200_LN_7_LD_15_RN_18_RD_27_1.png","img2/100/Incongruent/R/I_Dist_100_LN_8_LD_16_RN_6_RD_10_1.png","img2/100/Incongruent/R/I_Dist_100_LN_11_LD_22_RN_9_RD_15_1.png","img2/100/Incongruent/R/I_Dist_100_LN_9_LD_18_RN_6_RD_10_1.png","img2/100/Congruent/L/C_Dist_100_LN_11_LD_22_RN_6_RD_15_0.png","img2/200/Congruent/R/C_Dist_200_LN_13_LD_26_RN_14_RD_20_1.png","img2/300/Congruent/R/C_Dist_300_LN_1_LD_5_RN_11_RD_22_1.png","img2/100/Incongruent/L/I_Dist_100_LN_6_LD_10_RN_7_RD_14_0.png","img2/300/Incongruent/R/I_Dist_300_LN_13_LD_26_RN_12_RD_15_1.png","img2/200/Incongruent/R/I_Dist_200_LN_6_LD_20_RN_3_RD_6_1.png","img2/100/Congruent/L/C_Dist_100_LN_11_LD_22_RN_6_RD_15_0.png","img2/200/Incongruent/R/I_Dist_200_LN_7_LD_15_RN_6_RD_9_1.png","img2/300/Congruent/L/C_Dist_300_LN_11_LD_22_RN_1_RD_5_0.png","img2/200/Congruent/R/C_Dist_200_LN_9_LD_30_RN_13_RD_26_1.png"],"dist100_C":[["C_Dist_100_LN_10_LD_25_RN_3_RD_10_0.png","C_Dist_100_LN_11_LD_22_RN_4_RD_10_0.png","C_Dist_100_LN_11_LD_22_RN_6_RD_15_0.png","C_Dist_100_LN_15_LD_25_RN_13_RD_26_0.png","C_Dist_100_LN_3_LD_6_RN_2_RD_5_0.png","C_Dist_100_LN_6_LD_20_RN_5_RD_25_0.png","C_Dist_100_LN_8_LD_16_RN_2_RD_5_0.png","C_Dist_100_LN_9_LD_15_RN_8_RD_16_0.png"],["C_Dist_100_LN_1_LD_2_RN_18_RD_30_1.png","C_Dist_100_LN_1_LD_2_RN_3_RD_5_1.png","C_Dist_100_LN_12_LD_30_RN_13_RD_26_1.png","C_Dist_100_LN_2_LD_5_RN_11_RD_22_1.png","C_Dist_100_LN_2_LD_5_RN_6_RD_12_1.png","C_Dist_100_LN_3_LD_20_RN_4_RD_16_1.png","C_Dist_100_LN_4_LD_10_RN_15_RD_30_1.png","C_Dist_100_LN_4_LD_8_RN_6_RD_10_1.png","C_Dist_100_LN_6_LD_12_RN_15_RD_25_1.png","C_Dist_100_LN_7_LD_14_RN_15_RD_25_1.png","C_Dist_100_LN_7_LD_14_RN_9_RD_15_1.png"]],"dist100_I":[["I_Dist_100_LN_1_LD_2_RN_8_RD_20_0.png","I_Dist_100_LN_2_LD_4_RN_6_RD_15_0.png","I_Dist_100_LN_2_LD_4_RN_8_RD_20_0.png","I_Dist_100_LN_3_LD_5_RN_11_RD_22_0.png","I_Dist_100_LN_3_LD_5_RN_8_RD_16_0.png","I_Dist_100_LN_3_LD_6_RN_4_RD_10_0.png","I_Dist_100_LN_3_LD_9_RN_7_RD_30_0.png","I_Dist_100_LN_4_LD_8_RN_8_RD_20_0.png","I_Dist_100_LN_6_LD_10_RN_11_RD_22_0.png","I_Dist_100_LN_6_LD_10_RN_13_RD_26_0.png","I_Dist_100_LN_6_LD_10_RN_7_RD_14_0.png","I_Dist_100_LN_9_LD_10_RN_20_RD_25_0.png","I_Dist_100_LN_9_LD_15_RN_13_RD_26_0.png","I_Dist_100_LN_9_LD_15_RN_14_RD_28_0.png"],["I_Dist_100_LN_10_LD_25_RN_8_RD_16_1.png","I_Dist_100_LN_10_LD_25_RN_9_RD_18_1.png","I_Dist_100_LN_11_LD_22_RN_9_RD_15_1.png","I_Dist_100_LN_12_LD_24_RN_9_RD_15_1.png","I_Dist_100_LN_12_LD_30_RN_2_RD_4_1.png","I_Dist_100_LN_13_LD_26_RN_12_RD_20_1.png","I_Dist_100_LN_13_LD_26_RN_6_RD_10_1.png","I_Dist_100_LN_17_LD_30_RN_10_RD_15_1.png","I_Dist_100_LN_6_LD_12_RN_3_RD_5_1.png","I_Dist_100_LN_8_LD_16_RN_6_RD_10_1.png","I_Dist_100_LN_8_LD_20_RN_1_RD_2_1.png","I_Dist_100_LN_9_LD_18_RN_6_RD_10_1.png"]],"dist100_S":[["E_Dist_100_LN_2_LD_12_RN_2_RD_30_0.png","E_Dist_100_LN_6_LD_10_RN_6_RD_12_0.png"],["E_Dist_100_LN_6_LD_12_RN_6_RD_10_1.png"]],"dist200_C":[["C_Dist_200_LN_11_LD_22_RN_3_RD_10_0.png","C_Dist_200_LN_12_LD_15_RN_6_RD_10_0.png","C_Dist_200_LN_12_LD_20_RN_6_RD_15_0.png","C_Dist_200_LN_14_LD_28_RN_6_RD_20_0.png","C_Dist_200_LN_15_LD_25_RN_4_RD_10_0.png","C_Dist_200_LN_16_LD_20_RN_12_RD_20_0.png","C_Dist_200_LN_16_LD_30_RN_9_RD_27_0.png","C_Dist_200_LN_20_LD_25_RN_9_RD_15_0.png","C_Dist_200_LN_21_LD_30_RN_2_RD_4_0.png","C_Dist_200_LN_4_LD_10_RN_3_RD_15_0.png","C_Dist_200_LN_4_LD_8_RN_3_RD_10_0.png","C_Dist_200_LN_6_LD_15_RN_3_RD_15_0.png","C_Dist_200_LN_7_LD_21_RN_2_RD_15_0.png","C_Dist_200_LN_8_LD_15_RN_2_RD_6_0.png","C_Dist_200_LN_8_LD_15_RN_3_RD_9_0.png","C_Dist_200_LN_8_LD_15_RN_7_RD_21_0.png","C_Dist_200_LN_9_LD_20_RN_4_RD_16_0.png"],["C_Dist_200_LN_1_LD_2_RN_21_RD_30_1.png","C_Dist_200_LN_13_LD_26_RN_14_RD_20_1.png","C_Dist_200_LN_3_LD_10_RN_11_RD_22_1.png","C_Dist_200_LN_3_LD_10_RN_14_RD_28_1.png","C_Dist_200_LN_3_LD_10_RN_7_RD_14_1.png","C_Dist_200_LN_3_LD_12_RN_9_RD_20_1.png","C_Dist_200_LN_3_LD_6_RN_14_RD_20_1.png","C_Dist_200_LN_5_LD_10_RN_14_RD_20_1.png","C_Dist_200_LN_6_LD_12_RN_7_RD_10_1.png","C_Dist_200_LN_6_LD_20_RN_11_RD_22_1.png","C_Dist_200_LN_7_LD_15_RN_18_RD_27_1.png","C_Dist_200_LN_9_LD_30_RN_13_RD_26_1.png"]],"dist200_I":[["I_Dist_200_LN_1_LD_2_RN_3_RD_10_0.png","I_Dist_200_LN_1_LD_3_RN_2_RD_15_0.png","I_Dist_200_LN_3_LD_4_RN_11_RD_20_0.png","I_Dist_200_LN_4_LD_5_RN_6_RD_10_0.png","I_Dist_200_LN_4_LD_6_RN_14_RD_30_0.png","I_Dist_200_LN_7_LD_10_RN_12_RD_24_0.png","I_Dist_200_LN_7_LD_10_RN_14_RD_28_0.png","I_Dist_200_LN_7_LD_10_RN_8_RD_16_0.png"],["I_Dist_200_LN_11_LD_20_RN_3_RD_4_1.png","I_Dist_200_LN_14_LD_30_RN_12_RD_18_1.png","I_Dist_200_LN_14_LD_30_RN_6_RD_9_1.png","I_Dist_200_LN_3_LD_10_RN_1_RD_2_1.png","I_Dist_200_LN_4_LD_30_RN_1_RD_3_1.png","I_Dist_200_LN_6_LD_20_RN_3_RD_6_1.png","I_Dist_200_LN_7_LD_15_RN_4_RD_6_1.png","I_Dist_200_LN_7_LD_15_RN_6_RD_9_1.png","I_Dist_200_LN_9_LD_15_RN_8_RD_10_1.png"]],"dist200_S":[["E_Dist_200_LN_3_LD_6_RN_3_RD_10_0.png"],["E_Dist_200_LN_3_LD_10_RN_3_RD_6_1.png"]],"dist300_C":[["C_Dist_300_LN_11_LD_22_RN_1_RD_5_0.png","C_Dist_300_LN_11_LD_22_RN_2_RD_10_0.png","C_Dist_300_LN_11_LD_22_RN_4_RD_20_0.png","C_Dist_300_LN_12_LD_24_RN_2_RD_10_0.png","C_Dist_300_LN_18_LD_20_RN_9_RD_15_0.png","C_Dist_300_LN_20_LD_25_RN_13_RD_26_0.png","C_Dist_300_LN_20_LD_25_RN_14_RD_28_0.png","C_Dist_300_LN_20_LD_25_RN_5_RD_10_0.png","C_Dist_300_LN_20_LD_25_RN_8_RD_16_0.png","C_Dist_300_LN_20_LD_25_RN_9_RD_18_0.png","C_Dist_300_LN_24_LD_30_RN_2_RD_4_0.png","C_Dist_300_LN_24_LD_30_RN_8_RD_16_0.png","C_Dist_300_LN_3_LD_6_RN_2_RD_10_0.png","C_Dist_300_LN_4_LD_10_RN_1_RD_10_0.png","C_Dist_300_LN_4_LD_5_RN_2_RD_4_0.png","C_Dist_300_LN_8_LD_16_RN_1_RD_5_0.png","C_Dist_300_LN_9_LD_10_RN_3_RD_5_0.png"],["C_Dist_300_LN_1_LD_20_RN_7_RD_20_1.png","C_Dist_300_LN_1_LD_3_RN_19_RD_30_1.png","C_Dist_300_LN_1_LD_30_RN_8_RD_24_1.png","C_Dist_300_LN_1_LD_5_RN_11_RD_22_1.png","C_Dist_300_LN_1_LD_5_RN_3_RD_6_1.png","C_Dist_300_LN_1_LD_5_RN_6_RD_12_1.png","C_Dist_300_LN_2_LD_10_RN_12_RD_24_1.png","C_Dist_300_LN_2_LD_20_RN_10_RD_25_1.png","C_Dist_300_LN_3_LD_12_RN_11_RD_20_1.png","C_Dist_300_LN_3_LD_6_RN_4_RD_5_1.png","C_Dist_300_LN_4_LD_20_RN_13_RD_26_1.png","C_Dist_300_LN_5_LD_25_RN_6_RD_12_1.png","C_Dist_300_LN_5_LD_25_RN_7_RD_14_1.png","C_Dist_300_LN_7_LD_14_RN_20_RD_25_1.png","C_Dist_300_LN_8_LD_15_RN_10_RD_12_1.png"]],"dist300_I":[["I_Dist_300_LN_1_LD_2_RN_2_RD_10_0.png","I_Dist_300_LN_1_LD_2_RN_3_RD_15_0.png","I_Dist_300_LN_2_LD_4_RN_6_RD_30_0.png","I_Dist_300_LN_3_LD_6_RN_4_RD_20_0.png","I_Dist_300_LN_4_LD_5_RN_6_RD_12_0.png","I_Dist_300_LN_4_LD_5_RN_8_RD_16_0.png","I_Dist_300_LN_7_LD_10_RN_8_RD_20_0.png","I_Dist_300_LN_8_LD_10_RN_14_RD_28_0.png","I_Dist_300_LN_8_LD_10_RN_9_RD_18_0.png"],["I_Dist_300_LN_13_LD_26_RN_12_RD_15_1.png","I_Dist_300_LN_4_LD_20_RN_2_RD_4_1.png"]],"dist300_S":[["E_Dist_300_LN_9_LD_12_RN_9_RD_20_0.png"],["E_Dist_300_LN_18_LD_30_RN_18_RD_20_1.png","E_Dist_300_LN_3_LD_10_RN_3_RD_5_1.png","E_Dist_300_LN_9_LD_20_RN_9_RD_12_1.png"]],"dist500_C":[["C_Dist_500_LN_10_LD_13_RN_7_RD_26_0.png","C_Dist_500_LN_10_LD_15_RN_4_RD_24_0.png","C_Dist_500_LN_12_LD_16_RN_3_RD_12_0.png","C_Dist_500_LN_12_LD_18_RN_4_RD_24_0.png","C_Dist_500_LN_15_LD_18_RN_5_RD_15_0.png","C_Dist_500_LN_15_LD_20_RN_1_RD_4_0.png","C_Dist_500_LN_18_LD_27_RN_1_RD_6_0.png","C_Dist_500_LN_20_LD_24_RN_1_RD_3_0.png","C_Dist_500_LN_20_LD_24_RN_3_RD_9_0.png","C_Dist_500_LN_20_LD_24_RN_7_RD_21_0.png","C_Dist_500_LN_20_LD_28_RN_3_RD_14_0.png","C_Dist_500_LN_21_LD_28_RN_6_RD_24_0.png","C_Dist_500_LN_22_LD_28_RN_2_RD_7_0.png","C_Dist_500_LN_25_LD_30_RN_9_RD_27_0.png","C_Dist_500_LN_4_LD_6_RN_1_RD_6_0.png","C_Dist_500_LN_5_LD_6_RN_2_RD_6_0.png","C_Dist_500_LN_6_LD_9_RN_1_RD_6_0.png","C_Dist_500_LN_7_LD_10_RN_1_RD_5_0.png","C_Dist_500_LN_8_LD_12_RN_1_RD_6_0.png","C_Dist_500_LN_8_LD_12_RN_4_RD_24_0.png"],["C_Dist_500_LN_1_LD_4_RN_12_RD_16_1.png","C_Dist_500_LN_1_LD_4_RN_9_RD_12_1.png","C_Dist_500_LN_1_LD_9_RN_11_RD_18_1.png","C_Dist_500_LN_10_LD_24_RN_22_RD_24_1.png","C_Dist_500_LN_2_LD_12_RN_10_RD_15_1.png","C_Dist_500_LN_2_LD_12_RN_12_RD_18_1.png","C_Dist_500_LN_2_LD_12_RN_4_RD_6_1.png","C_Dist_500_LN_2_LD_24_RN_7_RD_12_1.png","C_Dist_500_LN_2_LD_5_RN_18_RD_20_1.png","C_Dist_500_LN_2_LD_5_RN_9_RD_10_1.png","C_Dist_500_LN_2_LD_8_RN_12_RD_16_1.png","C_Dist_500_LN_2_LD_8_RN_21_RD_28_1.png","C_Dist_500_LN_3_LD_10_RN_4_RD_5_1.png","C_Dist_500_LN_3_LD_12_RN_15_RD_20_1.png","C_Dist_500_LN_3_LD_30_RN_6_RD_10_1.png","C_Dist_500_LN_3_LD_8_RN_14_RD_16_1.png","C_Dist_500_LN_4_LD_16_RN_15_RD_20_1.png","C_Dist_500_LN_4_LD_24_RN_12_RD_18_1.png","C_Dist_500_LN_5_LD_14_RN_6_RD_7_1.png","C_Dist_500_LN_7_LD_21_RN_20_RD_24_1.png","C_Dist_500_LN_7_LD_28_RN_12_RD_16_1.png","C_Dist_500_LN_7_LD_28_RN_9_RD_12_1.png","C_Dist_500_LN_9_LD_27_RN_20_RD_24_1.png"]],"dist500_I":[["I_Dist_500_LN_2_LD_3_RN_4_RD_24_0.png","I_Dist_500_LN_5_LD_6_RN_6_RD_18_0.png","I_Dist_500_LN_7_LD_8_RN_9_RD_24_0.png"],["I_Dist_500_LN_7_LD_21_RN_5_RD_6_1.png"]],"dist500_S":[["E_Dist_500_LN_6_LD_8_RN_6_RD_24_0.png"],["E_Dist_500_LN_2_LD_12_RN_2_RD_3_1.png","E_Dist_500_LN_6_LD_24_RN_6_RD_8_1.png"]]}},{"start_time":1551891770649,"click_time":1551891788156,"finger_time":1551891784936,"fix_duration":250,"trial":1,"RT":14287,"MT":3220,"sideResp":2,"stimulus":[],"xmouse":[799,795,795,794,794,794,794,794,794,794,794,794,794,794,794,794,794,794,794,794,794,794,794,794,794,794,794,794,794,794,794,794,794,794,794,794,794,794,794,794,794,794,794,794,794,794,794,794,794,794,794,794,794,794,794,794,794,794,794,794,794,794,794,794,794,794,794,794,794,794,794,794,794,794,794,794,794,794,794,794,794,794,794,794,794,794,794,794,794,794,794,794,794,794,794,794,794,794,794,794,794,794,794,794,794,794,794,794,794,794,794,794,794,794,794,794,794,794,794,794,794,794,794,794,794,794,794,794,794,794,794,794,794,794,794,794,794,794,794,794,794,794,794,794,794,794,794,794,794,794,794,794,794,794,794,794,794,794,794,794,794,794,794,794,794,794,794,794,794,794,794,794,794,794,794,794,794,794,794,794,794,794,794,794,794,794,794,794,794,794,794,794,794,794,794,794,794,794,794,794,794,794,794,794,794,794,794,794,794,794,794,794,794,794,794,794,794,794,794,794,794,794,794,794,794,794,794,794,794,794,794,794,794,794,794,794,794,794,794,794,794,794,794,794,794,794,794,794,794,794,794,794,794,794,794,794,794,794,794,794,794,794,794,794,794,794,794,794,794,794,794,794,794,794,794,794,794,794,794,794,794,794,794,794,794,794,794,794,794,794,794,794,794,794,794,794,794,794,794,794,794,794,794,794,794,794,794,794,794,794,794,794,794,794,794,794,794,794,794,794,794,794,794,794,794,794,794,794,794,794,794,794,794,794,794,794,794,794,794,794,794,794,794,794,794,794,794,794,794,794,794,794,794,794,794,794,794,794,794,794,794,794,794,794,794,794,794,794,794,794,794,794,794,794,794,794,794,794,794,794,794,794,794,794,794,794,794,794,794,794,794,794,794,794,794,794,794,794,794,794,794,794,794,794,794,794,794,794,794,794,794,794,794,794,794,794,794,794,794,794,794,794,794,794,794,794,794,794,794,794,794,794,794,794,794,794,794,794,794,794,794,794,794,794,794,794,794,794,794,794,794,794,794,794,794,794,794,794,794,794,794,794,794,794,794,794,794,794,794,794,794,794,794,794,794,794,794,794,794,794,794,794,794,794,794,794,794,794,794,794,794,794,794,794,794,794,794,794,794,794,794,794,794,794,794,794,794,794,794,794,794,794,794,794,794,794,794,794,794,794,794,794,794,794,794,794,794,794,794,794,794,794,794,794,794,794,794,794,794,794,794,794,794,794,794,794,794,794,794,794,794,794,794,794,794,794,794,794,794,794,794,794,794,794,794,794,794,794,794,794,794,794,794,794,794,794,794,794,794,794,794,794,794,794,794,794,794,794,794,794,794,794,794,794,794,794,794,794,794,794,794,794,794,794,794,794,794,794,794,794,794,794,794,794,794,794,794,794,794,794,794,794,794,794,794,794,794,794,794,794,794,794,794,794,794,794,794,794,794,794,794,794,794,794,794,794,794,794,794,794,794,794,794,794,794,794,794,794,794,794,794,794,794,794,794,794,794,794,794,794,794,794,794,794,794,794,794,794,794,794,794,794,794,794,794,794,794,794,794,794,794,794,794,794,794,794,793,796,801,806,812,812,812,814,815,823,825,829,833,835,838,839,840,841,844,844,844,844,844,844,844,844,844,844,844,844,844,844,844,844,844,844,844,844,844,844,844,844,844,844,844,844,844,844,844,844,844,844,844,844,844,844,844,844,844,844,844,844,844,844,844,844,844,844,844,844,844,844,844,844,844,844,844,844,844,844,844,844,844,844,844,844,844,844,844,844,844,844,844,844,844,844,844,844,844,844,844,844,844,844,844,844,844,844,844,844,844,844,844,844,844,844,844,844,844,844,844,844,844,844,844,844,844,844,844,844,844,844,844,844,844,844,844,844,844,844,844,844,844,844,844,844,845,861,896,1005,1070,1143,1172,1198,1224,1267,1280,1283,1284,1279,1273,1263,1254,1235,1201,1191,1186,1185,1185,1182,1176,1171,1163,1161,1161,1161,1161,1161,1161,1155],"ymouse":[616,616,616,616,616,616,616,616,616,616,616,616,616,616,616,616,616,616,616,616,616,616,616,616,616,616,616,616,616,616,616,616,616,616,616,616,616,616,616,616,616,616,616,616,616,616,616,616,616,616,616,616,616,616,616,616,616,616,616,616,616,616,616,616,616,616,616,616,616,616,616,616,616,616,616,616,616,616,616,616,616,616,616,616,616,616,616,616,616,616,616,616,616,616,616,616,616,616,616,616,616,616,616,616,616,616,616,616,616,616,616,616,616,616,616,616,616,616,616,616,616,616,616,616,616,616,616,616,616,616,616,616,616,616,616,616,616,616,616,616,616,616,616,616,616,616,616,616,616,616,616,616,616,616,616,616,616,616,616,616,616,616,616,616,616,616,616,616,616,616,616,616,616,616,616,616,616,616,616,616,616,616,616,616,616,616,616,616,616,616,616,616,616,616,616,616,616,616,616,616,616,616,616,616,616,616,616,616,616,616,616,616,616,616,616,616,616,616,616,616,616,616,616,616,616,616,616,616,616,616,616,616,616,616,616,616,616,616,616,616,616,616,616,616,616,616,616,616,616,616,616,616,616,616,616,616,616,616,616,616,616,616,616,616,616,616,616,616,616,616,616,616,616,616,616,616,616,616,616,616,616,616,616,616,616,616,616,616,616,616,616,616,616,616,616,616,616,616,616,616,616,616,616,616,616,616,616,616,616,616,616,616,616,616,616,616,616,616,616,616,616,616,616,616,616,616,616,616,616,616,616,616,616,616,616,616,616,616,616,616,616,616,616,616,616,616,616,616,616,616,616,616,616,616,616,616,616,616,616,616,616,616,616,616,616,616,616,616,616,616,616,616,616,616,616,616,616,616,616,616,616,616,616,616,616,616,616,616,616,616,616,616,616,616,616,616,616,616,616,616,616,616,616,616,616,616,616,616,616,616,616,616,616,616,616,616,616,616,616,616,616,616,616,616,616,616,616,616,616,616,616,616,616,616,616,616,616,616,616,616,616,616,616,616,616,616,616,616,616,616,616,616,616,616,616,616,616,616,616,616,616,616,616,616,616,616,616,616,616,616,616,616,616,616,616,616,616,616,616,616,616,616,616,616,616,616,616,616,616,616,616,616,616,616,616,616,616,616,616,616,616,616,616,616,616,616,616,616,616,616,616,616,616,616,616,616,616,616,616,616,616,616,616,616,616,616,616,616,616,616,616,616,616,616,616,616,616,616,616,616,616,616,616,616,616,616,616,616,616,616,616,616,616,616,616,616,616,616,616,616,616,616,616,616,616,616,616,616,616,616,616,616,616,616,616,616,616,616,616,616,616,616,616,616,616,616,616,616,616,616,616,616,616,616,616,616,616,616,616,616,616,616,616,616,616,616,616,616,616,616,616,616,616,616,616,616,616,616,616,616,616,616,616,616,616,616,616,616,616,616,616,616,616,616,616,616,616,616,616,616,616,616,616,616,616,616,616,616,616,616,616,616,616,616,616,616,616,616,616,616,616,616,616,616,616,616,616,616,616,616,616,616,616,616,616,616,616,616,616,616,616,616,616,616,616,616,616,616,616,616,616,616,616,616,616,616,614,611,609,607,606,606,606,606,606,608,610,610,610,610,610,610,610,610,611,611,611,611,611,611,611,611,611,611,611,611,611,611,611,611,611,611,611,611,611,611,611,611,611,611,611,611,611,611,611,611,611,611,611,611,611,611,611,611,611,611,611,611,611,611,611,611,611,611,611,611,611,611,611,611,611,611,611,611,611,611,611,611,611,611,611,611,611,611,611,611,611,611,611,611,611,611,611,611,611,611,611,611,611,611,611,611,611,611,611,611,611,611,611,611,611,611,611,611,611,611,611,611,611,611,611,611,611,611,611,611,611,611,611,611,611,611,611,611,611,611,611,611,611,611,611,611,611,611,611,611,619,631,631,631,628,602,586,568,548,514,506,495,487,475,444,423,400,376,344,279,243,207,145,104,33,13,6,5,5,8],"timestamp_mouse":[14,42,47,67,86,107,127,148,168,188,206,226,247,268,286,306,328,348,367,387,406,427,447,467,486,507,527,547,568,587,607,627,647,668,687,706,728,747,766,788,806,828,846,868,886,907,928,947,967,987,1006,1026,1048,1067,1088,1107,1127,1146,1168,1186,1207,1228,1248,1267,1286,1308,1327,1346,1367,1386,1407,1427,1447,1468,1487,1507,1528,1547,1568,1588,1606,1626,1648,1667,1688,1708,1726,1748,1767,1786,1808,1828,1846,1867,1888,1907,1927,1948,1966,1988,2007,2026,2048,2068,2087,2107,2128,2146,2167,2188,2207,2228,2248,2268,2287,2308,2328,2347,2368,2388,2406,2428,2448,2466,2487,2506,2528,2546,2568,2587,2606,2627,2646,2668,2687,2706,2728,2746,2768,2788,2807,2826,2848,2867,2886,2907,2928,2947,2968,2986,3007,3027,3047,3067,3087,3107,3127,3146,3168,3186,3206,3227,3248,3266,3288,3308,3327,3347,3368,3386,3406,3427,3446,3468,3488,3507,3527,3546,3566,3587,3606,3627,3647,3666,3688,3706,3726,3747,3767,3787,3808,3826,3848,3868,3887,3907,3927,3948,3966,3988,4008,4028,4048,4068,4088,4106,4127,4148,4168,4187,4208,4228,4247,4268,4288,4306,4327,4348,4367,4386,4408,4428,4448,4468,4487,4508,4527,4548,4567,4588,4608,4628,4647,4668,4688,4706,4728,4747,4767,4787,4806,4828,4848,4867,4887,4907,4926,4946,4967,4987,5006,5026,5047,5067,5088,5107,5126,5148,5168,5186,5208,5228,5246,5268,5287,5307,5328,5347,5366,5388,5407,5427,5448,5468,5488,5508,5526,5548,5568,5587,5607,5628,5647,5667,5687,5707,5726,5748,5768,5786,5808,5827,5847,5866,5888,5908,5927,5948,5968,5987,6007,6028,6048,6068,6087,6107,6128,6148,6167,6186,6207,6228,6246,6268,6287,6306,6328,6346,6368,6387,6407,6427,6448,6467,6486,6506,6527,6546,6568,6587,6606,6628,6646,6667,6687,6706,6727,6746,6768,6786,6806,6828,6846,6868,6887,6908,6928,6948,6966,6988,7008,7027,7048,7066,7088,7108,7128,7147,7168,7188,7207,7228,7247,7268,7288,7307,7326,7348,7367,7387,7408,7428,7447,7466,7487,7508,7526,7546,7568,7588,7606,7628,7648,7668,7688,7708,7727,7748,7768,7787,7808,7828,7848,7866,7887,7907,7927,7952,7968,7986,8008,8028,8046,8067,8088,8107,8128,8147,8167,8188,8207,8227,8248,8268,8287,8307,8327,8348,8366,8388,8407,8427,8448,8466,8488,8506,8528,8546,8567,8587,8608,8628,8647,8666,8688,8706,8728,8748,8766,8788,8808,8826,8847,8868,8886,8907,8928,8947,8967,8986,9007,9028,9048,9068,9086,9107,9127,9146,9167,9186,9207,9228,9248,9266,9288,9306,9328,9348,9368,9388,9406,9426,9447,9466,9488,9508,9526,9547,9566,9586,9608,9627,9646,9668,9687,9708,9728,9747,9768,9787,9808,9827,9848,9867,9888,9908,9926,9947,9968,9988,10006,10028,10046,10068,10087,10107,10128,10148,10167,10188,10207,10227,10248,10267,10286,10307,10328,10347,10368,10387,10406,10427,10448,10466,10488,10508,10528,10547,10568,10588,10608,10627,10647,10667,10688,10706,10726,10747,10768,10788,10807,10827,10847,10868,10888,10906,10926,10948,10966,10987,11007,11026,11047,11067,11087,11106,11127,11147,11166,11188,11206,11228,11247,11266,11288,11307,11327,11346,11368,11386,11407,11428,11446,11466,11488,11508,11526,11548,11566,11588,11607,11627,11647,11666,11686,11707,11728,11747,11768,11787,11808,11827,11846,11867,11886,11908,11927,11946,11968,11986,12006,12027,12046,12068,12086,12107,12126,12147,12166,12188,12207,12228,12248,12267,12288,12307,12326,12348,12366,12388,12406,12427,12447,12468,12486,12507,12527,12546,12567,12588,12607,12626,12647,12668,12688,12707,12728,12748,12767,12788,12808,12826,12848,12868,12886,12907,12927,12946,12966,12987,13008,13027,13046,13068,13088,13108,13126,13148,13168,13187,13207,13228,13246,13266,13288,13306,13328,13348,13368,13386,13408,13428,13447,13467,13487,13507,13528,13548,13567,13587,13608,13627,13647,13668,13688,13708,13728,13748,13766,13788,13808,13826,13847,13868,13886,13908,13928,13947,13968,13988,14006,14027,14047,14067,14086,14108,14128,14148,14167,14188,14207,14227,14246,14268,14287,14307,14327,14346,14367,14387,14408,14426,14446,14466,14487,14507,14527,14548,14566,14588,14608,14626,14647,14668,14687,14706,14727,14747,14766,14788,14808,14828,14847,14868,14888,14908,14927,14947,14966,14987,15007,15027,15046,15067,15088,15108,15127,15147,15168,15186,15206,15226,15247,15267,15287,15307,15327,15348,15367,15387,15407,15426,15447,15467,15487,15507,15527,15548,15567,15587,15608,15627,15647,15666,15686,15708,15726,15747,15767,15787,15808,15827,15848,15868,15887,15907,15927,15947,15967,15986,16007,16027,16047,16068,16088,16107,16128,16147,16167,16186,16206,16226,16247,16267,16286,16306,16326,16347,16367,16387,16407,16427,16447,16466,16487,16507,16528,16547,16568,16586,16607,16627,16647,16667,16688,16708,16727,16746,16767,16787,16807,16826,16848,16867,16888,16907,16926,16946,16967,16986,17006,17027,17046,17066,17087,17107,17128,17147,17166,17187,17207,17227,17247,17267,17288,17306,17327,17346,17367,17388,17407,17427,17447,17466,17488,17506],"xSR":741.5,"ySR":573.95,"xT1":424.9,"yT1":0,"xT2":1058.1,"yT2":0,"toosoon":0,"cond_shown":"Incongruent","ratio_trial":200,"L_num":14,"L_den":30,"R_num":6,"R_den":9,"correct_side":2,"subjID":"MariaIsabelKuanCruz23","gender":"1","school":"6","age":"11"},{"start_time":1551891790328,"click_time":1551891793336,"finger_time":1551891791937,"fix_duration":250,"trial":2,"RT":1609,"MT":1399,"sideResp":1,"stimulus":[],"xmouse":[797,797,797,797,797,797,797,797,797,797,797,797,797,797,797,797,797,797,797,797,797,797,797,797,797,797,797,797,797,797,797,797,797,797,797,797,797,797,797,797,797,797,797,797,797,797,797,797,797,797,797,797,797,797,797,797,797,797,797,797,797,797,797,797,797,797,797,797,797,797,797,797,797,797,797,797,797,797,797,795,794,782,772,762,750,744,739,737,734,729,724,719,708,703,699,693,673,656,630,599,580,561,541,539,539,539,538,540,545,552,560,576,583,589,591,592,593,595,596,598,601,607,622,631,638,645,654,657,659,660,660,661,661,661,661,661,660,651,636,617,596,548,535,526,521,519,515,512,510,503,498],"ymouse":[583,583,583,583,583,583,583,583,583,583,583,583,583,583,583,583,583,583,583,583,583,583,583,583,583,583,583,583,583,583,583,583,583,583,583,583,583,583,583,583,583,583,583,583,583,583,583,583,583,583,583,583,583,583,583,583,583,583,583,583,583,583,583,583,583,583,583,583,583,583,583,583,583,583,583,583,583,583,583,580,570,519,495,476,452,437,414,397,379,363,345,331,307,289,275,260,227,206,182,159,145,135,124,124,124,124,124,133,142,154,165,183,190,196,197,198,200,201,203,205,208,213,226,232,238,242,245,246,247,247,247,247,247,247,247,247,247,243,231,215,198,167,159,154,151,149,139,131,121,105,92],"timestamp_mouse":[10,31,48,68,87,108,128,149,168,187,208,227,248,268,289,307,329,347,368,389,409,428,447,468,488,508,528,547,568,588,609,629,648,669,687,709,728,749,768,788,809,829,848,869,888,909,929,949,968,988,1007,1028,1049,1069,1089,1109,1128,1148,1169,1187,1208,1229,1248,1268,1288,1309,1328,1348,1369,1388,1407,1429,1448,1467,1488,1508,1527,1549,1568,1587,1609,1628,1648,1669,1689,1707,1728,1749,1768,1787,1807,1827,1848,1868,1887,1908,1928,1949,1968,1988,2008,2028,2048,2067,2088,2109,2128,2148,2168,2189,2209,2228,2249,2268,2287,2307,2327,2348,2368,2387,2408,2427,2448,2468,2489,2508,2528,2547,2568,2588,2608,2629,2649,2667,2688,2708,2728,2748,2767,2789,2809,2828,2849,2869,2888,2907,2927,2948,2968,2988,3007],"xSR":741.5,"ySR":573.95,"xT1":424.9,"yT1":0,"xT2":1058.1,"yT2":0,"toosoon":0,"cond_shown":"Incongruent","ratio_trial":200,"L_num":1,"L_den":3,"R_num":2,"R_den":15,"correct_side":1,"subjID":"MariaIsabelKuanCruz23","gender":"1","school":"6","age":"11"},{"start_time":1551891796167,"click_time":1551891801655,"finger_time":1551891798856,"fix_duration":1490.9319735171816,"trial":3,"RT":2689,"MT":2799,"sideResp":1,"stimulus":[],"xmouse":[816,816,816,816,816,816,816,816,816,816,816,816,816,816,816,816,816,816,816,816,816,816,816,816,816,816,816,816,816,816,816,816,816,816,816,816,816,816,816,816,816,816,816,816,816,816,816,816,816,816,816,816,816,816,816,816,816,816,816,816,816,816,816,816,816,816,816,816,816,816,816,816,816,816,816,816,816,816,816,816,816,816,816,816,816,816,816,816,816,816,816,816,816,816,816,816,816,816,816,816,816,816,816,816,816,816,816,816,816,816,816,816,816,816,816,816,816,816,816,816,816,816,816,816,816,816,816,816,816,816,816,816,816,817,855,873,886,895,905,912,912,913,914,916,935,950,965,979,990,1010,1023,1033,1038,1038,1039,1041,1044,1048,1050,1052,1052,1052,1052,1052,1052,1052,1052,1052,1052,1052,1052,1052,1052,1052,1053,1053,1053,1053,1053,1053,1053,1053,1053,1052,1052,1052,1052,1052,1052,1052,1052,1052,1052,1052,1052,1052,1052,1053,1053,1054,1054,1054,1054,1054,1053,1052,1052,1052,1052,1052,1052,1052,1052,1052,1052,1052,1052,1052,1052,1052,1051,1050,1048,1047,1046,1045,1044,1044,1044,1044,1044,1044,1044,1044,1044,1037,1021,1005,992,970,964,953,942,930,906,896,886,872,850,808,781,776,759,754,749,748,748,748,748,747,742,731,708,691,651,635,623,612,596,553,533,518,507,495,479],"ymouse":[588,588,588,588,588,588,588,588,588,588,588,588,588,588,588,588,588,588,588,588,588,588,588,588,588,588,588,588,588,588,588,588,588,588,588,588,588,588,588,588,588,588,588,588,588,588,588,588,588,588,588,588,588,588,588,588,588,588,588,588,588,588,588,588,588,588,588,588,588,588,588,588,588,588,588,588,588,588,588,588,588,588,588,588,588,588,588,588,588,588,588,588,588,588,588,588,588,588,588,588,588,588,588,588,588,588,588,588,588,588,588,588,588,588,588,588,588,588,588,588,588,588,588,588,588,588,588,588,588,588,588,588,588,589,580,577,574,568,561,554,553,552,550,542,506,478,451,429,409,375,357,342,319,305,274,260,250,242,240,237,237,237,237,237,237,237,237,237,237,237,237,237,237,237,242,247,251,254,256,259,261,263,263,263,263,263,263,263,263,263,263,263,263,263,263,263,263,263,262,259,259,259,259,260,268,271,272,272,272,272,272,272,272,272,272,272,272,272,272,272,272,274,276,277,279,280,280,280,280,280,280,280,280,280,280,280,280,280,277,269,264,255,248,240,231,229,229,229,229,225,218,216,210,209,207,207,207,207,207,207,207,211,212,212,198,189,179,169,157,134,125,118,112,101,79],"timestamp_mouse":[20,40,48,69,89,108,130,149,170,190,210,228,248,269,289,308,330,350,369,390,408,430,449,468,490,508,529,550,569,589,608,629,649,670,688,708,728,749,770,789,809,828,850,868,889,909,928,950,969,989,1009,1028,1049,1070,1090,1108,1130,1150,1168,1189,1208,1229,1250,1269,1288,1309,1329,1350,1369,1389,1410,1430,1449,1469,1489,1508,1530,1549,1568,1589,1609,1630,1648,1668,1689,1709,1730,1749,1768,1790,1808,1830,1850,1869,1889,1909,1928,1948,1970,1989,2009,2030,2049,2070,2090,2109,2130,2148,2168,2188,2209,2230,2248,2270,2289,2309,2330,2349,2369,2388,2410,2428,2449,2470,2489,2510,2529,2548,2568,2588,2609,2629,2649,2668,2689,2709,2729,2749,2768,2788,2809,2829,2850,2870,2889,2909,2929,2949,2970,2988,3009,3029,3049,3068,3089,3109,3128,3150,3170,3189,3208,3228,3249,3269,3289,3309,3330,3348,3368,3389,3410,3428,3449,3469,3489,3509,3529,3549,3569,3588,3609,3629,3650,3669,3689,3708,3729,3749,3768,3789,3809,3830,3849,3868,3889,3909,3930,3949,3970,3988,4010,4029,4049,4068,4088,4109,4129,4148,4169,4189,4209,4228,4250,4270,4289,4310,4330,4350,4368,4389,4409,4429,4450,4469,4488,4509,4528,4549,4570,4589,4610,4630,4649,4670,4689,4708,4729,4749,4770,4788,4809,4829,4848,4869,4889,4909,4929,4949,4970,4989,5008,5029,5048,5069,5089,5109,5128,5149,5169,5189,5209,5228,5250,5269,5289,5310,5329,5349,5368,5388,5410,5429,5449,5470,5488],"xSR":741.5,"ySR":573.95,"xT1":424.9,"yT1":0,"xT2":1058.1,"yT2":0,"toosoon":0,"cond_shown":"Congruent","ratio_trial":100,"L_num":4,"L_den":10,"R_num":15,"R_den":30,"correct_side":2,"subjID":"MariaIsabelKuanCruz23","gender":"1","school":"6","age":"11"},{"start_time":1551891804299,"click_time":1551891806518,"finger_time":1551891806015,"fix_duration":281.10781902361157,"trial":4,"RT":1716,"MT":503,"sideResp":1,"stimulus":[],"xmouse":[760,760,760,760,760,760,760,760,760,760,760,760,760,760,760,760,760,760,760,760,760,760,760,760,760,760,760,760,760,760,760,760,760,760,760,760,760,760,760,760,760,760,760,760,760,760,760,760,760,760,760,760,760,760,760,760,760,760,760,760,760,760,760,760,760,760,760,760,760,760,760,760,760,760,760,760,760,760,760,760,760,760,760,759,753,724,698,634,609,585,553,512,429,398,393,390,390,390,390,392,393,394,399,400,403,405,406,410,416,421,425],"ymouse":[603,603,603,603,603,603,603,603,603,603,603,603,603,603,603,603,603,603,603,603,603,603,603,603,603,603,603,603,603,603,603,603,603,603,603,603,603,603,603,603,603,603,603,603,603,603,603,603,603,603,603,603,603,603,603,603,603,603,603,603,603,603,603,603,603,603,603,603,603,603,603,603,603,603,603,603,603,603,603,603,603,603,603,602,600,589,575,529,495,448,375,306,200,166,158,144,136,106,94,89,86,85,79,78,75,72,71,70,69,68,68],"timestamp_mouse":[18,37,57,76,96,118,137,157,176,198,218,237,257,277,298,317,336,357,378,398,416,437,458,477,498,518,537,558,578,597,616,638,656,678,697,716,738,756,776,798,816,838,856,877,897,916,938,958,977,997,1018,1038,1056,1078,1097,1118,1138,1157,1177,1197,1217,1238,1257,1278,1298,1317,1337,1358,1377,1397,1418,1438,1456,1476,1497,1517,1538,1557,1577,1597,1617,1637,1657,1676,1698,1716,1737,1756,1776,1797,1817,1836,1857,1876,1898,1917,1936,1956,1977,2000,2018,2039,2059,2078,2100,2120,2139,2159,2180,2199,2219],"xSR":741.5,"ySR":573.95,"xT1":424.9,"yT1":0,"xT2":1058.1,"yT2":0,"toosoon":0,"cond_shown":"Congruent","ratio_trial":100,"L_num":12,"L_den":30,"R_num":13,"R_den":26,"correct_side":2,"subjID":"MariaIsabelKuanCruz23","gender":"1","school":"6","age":"11"},{"start_time":1551891808603,"click_time":1551891810058,"finger_time":1551891809558,"fix_duration":923.4037930645324,"trial":5,"RT":955,"MT":500,"sideResp":1,"stimulus":[],"xmouse":[765,765,765,765,765,765,765,765,765,765,765,765,765,765,765,765,765,765,765,765,765,765,765,765,765,765,765,765,765,765,765,765,765,765,765,765,765,765,765,765,765,765,765,764,761,759,754,733,721,707,693,670,653,649,641,634,625,607,604,604,602,599,592,590,589,587,584,572,561,551,538,529,512],"ymouse":[644,644,644,644,644,644,644,644,644,644,644,644,644,644,644,644,644,644,644,644,644,644,644,644,644,644,644,644,644,644,644,644,644,644,644,644,644,644,644,644,644,644,644,640,637,635,630,609,596,580,562,517,433,379,325,281,248,215,208,202,188,178,162,160,158,157,155,143,134,126,109,97,74],"timestamp_mouse":[15,40,55,76,96,115,135,155,176,194,215,236,254,275,295,316,336,355,374,395,414,436,455,474,494,515,535,555,576,595,614,635,655,675,696,714,735,756,775,796,815,835,856,875,895,915,935,955,974,994,1016,1035,1055,1075,1094,1115,1135,1154,1174,1196,1215,1236,1255,1275,1294,1315,1335,1354,1375,1395,1415,1435,1455],"xSR":741.5,"ySR":573.95,"xT1":424.9,"yT1":0,"xT2":1058.1,"yT2":0,"toosoon":0,"cond_shown":"Congruent","ratio_trial":300,"L_num":20,"L_den":25,"R_num":8,"R_den":16,"correct_side":1,"subjID":"MariaIsabelKuanCruz23","gender":"1","school":"6","age":"11"},{"start_time":1551891811217,"click_time":1551891814278,"finger_time":1551891812018,"fix_duration":258.7027463214294,"trial":6,"RT":801,"MT":2260,"sideResp":1,"stimulus":[],"xmouse":[759,759,759,759,759,759,759,759,759,759,759,759,759,759,759,759,759,759,759,759,759,759,759,759,759,759,759,759,759,759,759,759,759,759,759,759,759,756,751,742,730,725,717,714,711,708,702,688,680,669,664,659,655,655,654,652,650,641,635,624,615,607,594,589,586,584,583,582,582,582,588,600,669,745,855,979,1110,1362,1470,1549,1549,1549,1549,1549,1563,1538,1505,1444,1418,1396,1371,1364,1362,1362,1360,1358,1353,1335,1324,1316,1309,1300,1293,1291,1291,1291,1291,1289,1284,1278,1265,1249,1192,1155,1110,1049,979,854,818,789,748,708,620,591,572,562,553,544,544,544,545,546,546,546,544,543,542,535,528,515,509,502,497,495,494,493,492,489,488,487,485,484,483,482],"ymouse":[609,609,609,609,609,609,609,609,609,609,609,609,609,609,609,609,609,609,609,609,609,609,609,609,609,609,609,609,609,609,609,609,609,609,609,609,609,606,599,590,580,576,570,566,563,558,551,534,525,513,506,501,497,496,495,492,487,474,466,450,438,426,406,398,390,383,377,366,360,356,342,326,278,242,200,160,135,99,83,72,72,72,72,72,41,36,33,28,28,28,28,28,28,28,29,30,36,46,52,56,60,66,74,77,78,80,84,99,112,124,145,161,199,220,247,280,320,383,394,398,397,388,360,344,328,313,295,251,231,216,195,182,152,142,138,136,136,138,138,138,137,133,130,128,127,125,121,111,109,106,104,102,101,99],"timestamp_mouse":[12,22,40,62,81,102,121,142,162,180,200,221,240,261,282,300,321,340,360,381,400,421,440,462,481,501,522,542,561,582,602,622,641,661,682,702,721,741,761,782,801,821,841,861,881,900,920,940,961,981,1000,1021,1040,1062,1081,1101,1121,1140,1161,1181,1201,1222,1240,1261,1281,1302,1322,1340,1360,1381,1401,1421,1442,1460,1480,1501,1522,1541,1561,1582,1600,1620,1641,1661,1681,1701,1721,1741,1761,1782,1802,1822,1841,1861,1881,1902,1922,1941,1961,1982,2001,2021,2041,2062,2081,2101,2121,2141,2160,2181,2202,2221,2240,2261,2281,2301,2321,2341,2361,2381,2402,2422,2440,2461,2482,2502,2521,2540,2560,2581,2602,2621,2640,2661,2681,2701,2722,2741,2762,2781,2802,2822,2842,2861,2882,2901,2922,2941,2961,2980,3002,3021,3041,3061],"xSR":741.5,"ySR":573.95,"xT1":424.9,"yT1":0,"xT2":1058.1,"yT2":0,"toosoon":0,"cond_shown":"Incongruent","ratio_trial":300,"L_num":4,"L_den":5,"R_num":8,"R_den":16,"correct_side":1,"subjID":"MariaIsabelKuanCruz23","gender":"1","school":"6","age":"11"},{"start_time":1551891821518,"click_time":1551891823739,"finger_time":1551891823019,"fix_duration":478.59207382639346,"trial":7,"RT":1501,"MT":720,"sideResp":1,"stimulus":[],"xmouse":[810,810,810,810,810,810,810,810,810,810,810,810,810,810,810,810,810,810,810,810,810,810,810,810,810,810,810,808,808,805,805,804,803,802,802,802,802,802,802,802,802,802,802,802,802,802,802,802,802,802,802,802,802,802,802,802,801,800,799,799,799,799,798,798,798,798,797,797,797,796,796,795,793,791,788,781,772,749,731,714,698,684,662,651,642,634,628,619,617,615,612,610,606,603,600,597,586,582,578,575,571,568,560,559,558,556,554,543,537,532,528,520],"ymouse":[648,648,648,648,648,648,648,648,648,648,648,648,648,648,648,648,648,648,648,648,648,648,648,648,648,648,648,643,641,639,637,636,634,633,633,632,632,632,632,632,632,632,632,632,632,632,632,632,632,632,632,632,632,632,632,631,630,624,623,621,620,618,617,616,615,614,613,611,609,608,606,605,599,593,588,572,558,522,499,479,463,447,415,399,387,376,366,350,344,339,331,322,311,304,298,292,269,262,255,250,239,230,211,204,196,190,179,146,131,120,110,93],"timestamp_mouse":[8,20,40,60,80,101,120,140,160,181,199,220,241,260,280,301,319,339,360,380,401,421,439,459,480,501,520,541,560,580,599,619,640,660,680,699,720,741,761,781,799,820,841,860,880,900,919,939,960,980,1000,1020,1040,1060,1080,1101,1121,1140,1160,1181,1200,1221,1239,1261,1280,1300,1320,1340,1360,1381,1400,1420,1440,1461,1481,1501,1521,1541,1560,1580,1600,1621,1640,1660,1679,1699,1721,1740,1760,1780,1800,1820,1840,1859,1881,1900,1921,1940,1961,1981,2001,2020,2040,2061,2080,2099,2121,2141,2160,2180,2201,2221],"xSR":741.5,"ySR":573.95,"xT1":424.9,"yT1":0,"xT2":1058.1,"yT2":0,"toosoon":0,"cond_shown":"Congruent","ratio_trial":100,"L_num":3,"L_den":6,"R_num":2,"R_den":5,"correct_side":1,"subjID":"MariaIsabelKuanCruz23","gender":"1","school":"6","age":"11"},{"start_time":1551891825542,"click_time":1551891827219,"finger_time":1551891826918,"fix_duration":563.4908773963001,"trial":8,"RT":1376,"MT":301,"sideResp":2,"stimulus":[],"xmouse":[819,819,819,819,819,819,819,819,819,819,819,819,819,819,819,819,819,819,819,819,819,819,819,819,819,819,819,819,819,819,819,819,819,819,819,819,819,819,819,819,819,819,819,819,819,819,819,819,819,819,819,819,819,819,819,819,819,819,819,819,819,819,819,819,819,819,820,828,842,862,912,936,958,974,999,1025,1037,1049,1060,1066,1077,1079,1083,1087],"ymouse":[637,637,637,637,637,637,637,637,637,637,637,637,637,637,637,637,637,637,637,637,637,637,637,637,637,637,637,637,637,637,637,637,637,637,637,637,637,637,637,637,637,637,637,637,637,637,637,637,637,637,637,637,637,637,637,637,637,637,637,637,637,637,637,637,637,637,627,605,573,527,435,390,353,324,290,254,236,217,199,183,143,126,110,96],"timestamp_mouse":[15,37,56,76,97,115,136,155,176,196,217,235,256,276,297,316,335,355,375,397,416,436,457,475,495,516,535,557,575,597,615,635,656,675,695,715,736,757,776,795,815,836,855,876,896,917,936,956,976,996,1017,1036,1055,1077,1096,1117,1137,1157,1176,1196,1217,1235,1255,1277,1297,1315,1336,1356,1376,1396,1416,1436,1457,1477,1496,1517,1536,1556,1577,1596,1616,1637,1657,1677],"xSR":741.5,"ySR":573.95,"xT1":424.9,"yT1":0,"xT2":1058.1,"yT2":0,"toosoon":0,"cond_shown":"Incongruent","ratio_trial":200,"L_num":14,"L_den":30,"R_num":12,"R_den":18,"correct_side":2,"subjID":"MariaIsabelKuanCruz23","gender":"1","school":"6","age":"11"},{"start_time":1551891829057,"click_time":1551891831058,"finger_time":1551891830478,"fix_duration":698.0116860808091,"trial":9,"RT":1421,"MT":580,"sideResp":2,"stimulus":[],"xmouse":[788,788,788,788,788,788,788,788,788,788,788,788,788,788,788,788,788,788,788,788,788,788,788,788,788,788,788,788,788,788,788,788,788,788,788,788,788,788,788,788,788,788,788,788,788,788,788,788,788,788,788,788,788,788,788,788,788,788,788,788,788,788,788,788,788,788,788,788,788,788,794,802,818,832,847,881,898,908,919,922,929,932,940,949,972,981,990,1001,1013,1028,1050,1050,1050,1050,1051,1053,1054,1056,1058,1058,1062],"ymouse":[647,647,647,647,647,647,647,647,647,647,647,647,647,647,647,647,647,647,647,647,647,647,647,647,647,647,647,647,647,647,647,647,647,647,647,647,647,647,647,647,647,647,647,647,647,647,647,647,647,647,647,647,647,647,647,647,647,647,647,647,647,647,647,647,647,647,647,647,645,640,583,553,515,480,445,369,331,308,283,276,253,243,225,204,158,140,123,102,81,60,30,28,28,28,28,27,27,27,27,28,37],"timestamp_mouse":[8,20,48,61,82,100,120,142,162,182,202,221,241,261,282,301,321,341,362,381,401,422,442,461,481,500,522,541,561,582,600,620,642,662,680,701,722,741,762,781,801,821,841,862,880,901,922,942,962,981,1001,1021,1041,1062,1081,1102,1121,1141,1161,1181,1201,1222,1241,1262,1282,1301,1322,1341,1361,1382,1402,1421,1442,1461,1481,1500,1522,1541,1560,1581,1601,1621,1642,1661,1682,1701,1722,1741,1761,1781,1801,1821,1842,1861,1881,1901,1921,1941,1961,1982,2001],"xSR":741.5,"ySR":573.95,"xT1":424.9,"yT1":0,"xT2":1058.1,"yT2":0,"toosoon":0,"cond_shown":"Incongruent","ratio_trial":100,"L_num":13,"L_den":26,"R_num":12,"R_den":20,"correct_side":2,"subjID":"MariaIsabelKuanCruz23","gender":"1","school":"6","age":"11"},{"start_time":1551891832493,"click_time":1551891834938,"finger_time":1551891833758,"fix_duration":474.3113424441746,"trial":10,"RT":1265,"MT":1180,"sideResp":1,"stimulus":[],"xmouse":[790,790,790,790,790,790,790,790,790,790,790,790,790,790,790,790,790,790,790,790,790,790,790,790,790,790,790,790,790,790,790,790,790,790,790,790,790,790,790,790,790,790,790,790,790,790,790,790,790,790,790,790,790,790,790,790,788,785,778,774,771,770,769,763,756,749,740,723,701,696,691,688,684,681,678,675,673,660,654,649,644,639,633,619,611,604,598,588,576,572,568,565,560,548,545,541,536,528,509,506,505,505,505,505,505,505,504,504,503,502,501,500,500,498,497,496,496,496,495,495,495,494,493],"ymouse":[608,608,608,608,608,608,608,608,608,608,608,608,608,608,608,608,608,608,608,608,608,608,608,608,608,608,608,608,608,608,608,608,608,608,608,608,608,608,608,608,608,608,608,608,608,608,608,608,608,608,608,608,608,608,608,608,608,605,595,590,587,586,584,573,561,550,537,515,490,481,473,466,449,440,434,427,419,390,377,365,355,343,329,299,287,279,272,260,243,235,226,217,208,188,183,179,175,167,161,161,160,160,160,160,160,160,159,159,150,145,140,136,132,124,120,117,116,115,113,111,107,102,98],"timestamp_mouse":[10,32,46,65,84,106,126,145,165,186,206,224,246,264,286,306,326,344,366,386,405,426,446,466,486,506,526,546,566,585,606,625,645,666,684,706,725,746,766,785,806,825,845,865,886,905,926,945,965,985,1006,1024,1045,1066,1084,1106,1126,1145,1166,1185,1205,1225,1245,1265,1286,1305,1324,1344,1364,1385,1404,1424,1445,1465,1485,1505,1525,1545,1564,1584,1605,1624,1646,1664,1685,1705,1724,1746,1765,1785,1805,1826,1845,1865,1884,1905,1925,1945,1965,1984,2005,2025,2045,2065,2086,2104,2125,2145,2166,2185,2205,2226,2244,2264,2286,2305,2325,2344,2364,2385,2405,2426,2445],"xSR":741.5,"ySR":573.95,"xT1":424.9,"yT1":0,"xT2":1058.1,"yT2":0,"toosoon":0,"cond_shown":"Congruent","ratio_trial":100,"L_num":7,"L_den":14,"R_num":15,"R_den":25,"correct_side":2,"subjID":"MariaIsabelKuanCruz23","gender":"1","school":"6","age":"11"},{"start_time":1551891837544,"click_time":1551891838958,"finger_time":1551891838638,"fix_duration":1103.209842637264,"trial":11,"RT":1094,"MT":320,"sideResp":2,"stimulus":[],"xmouse":[785,785,785,785,785,785,785,785,785,785,785,785,785,785,785,785,785,785,785,785,785,785,785,785,785,785,785,785,785,785,785,785,785,785,785,785,785,785,785,785,785,785,785,785,785,785,786,791,796,803,805,807,810,819,841,875,889,907,927,950,984,995,1006,1017,1040,1048,1056,1063,1068,1072,1073],"ymouse":[648,648,648,648,648,648,648,648,648,648,648,648,648,648,648,648,648,648,648,648,648,648,648,648,648,648,648,648,648,648,648,648,648,648,648,648,648,648,648,648,648,648,648,648,648,648,648,647,643,636,634,630,622,604,555,479,446,406,357,313,260,248,235,221,184,164,146,130,115,100,88],"timestamp_mouse":[14,37,54,75,95,114,134,154,174,193,214,233,254,275,295,314,333,354,375,394,414,434,454,474,495,514,534,555,573,594,615,633,654,675,693,715,735,754,775,794,815,834,853,875,894,915,934,954,973,995,1014,1034,1055,1074,1094,1115,1135,1154,1175,1194,1214,1235,1254,1273,1295,1313,1333,1354,1374,1394,1414],"xSR":741.5,"ySR":573.95,"xT1":424.9,"yT1":0,"xT2":1058.1,"yT2":0,"toosoon":0,"cond_shown":"Congruent","ratio_trial":200,"L_num":6,"L_den":20,"R_num":11,"R_den":22,"correct_side":2,"subjID":"MariaIsabelKuanCruz23","gender":"1","school":"6","age":"11"},{"start_time":1551891853037,"click_time":1551891854859,"finger_time":1551891854498,"fix_duration":1078.159245090894,"trial":12,"RT":1461,"MT":361,"sideResp":1,"stimulus":[],"xmouse":[784,784,784,784,784,784,784,784,784,784,784,784,784,784,784,784,784,784,784,784,784,784,784,784,784,784,784,784,784,784,784,784,784,784,784,784,784,784,784,784,784,784,784,784,784,784,784,784,784,784,784,784,784,784,784,784,784,784,784,784,784,784,784,784,784,784,784,784,784,784,781,768,756,735,706,672,576,521,469,404,369,335,330,329,325,325,338,353,389,414,439,470],"ymouse":[646,646,646,646,646,646,646,646,646,646,646,646,646,646,646,646,646,646,646,646,646,646,646,646,646,646,646,646,646,646,646,646,646,646,646,646,646,646,646,646,646,646,646,646,646,646,646,646,646,646,646,646,646,646,646,646,646,646,646,646,646,646,646,646,646,646,646,646,646,642,636,605,581,554,520,479,371,316,257,178,126,46,21,8,0,0,0,0,0,0,0,4],"timestamp_mouse":[8,34,41,61,81,102,120,140,161,181,202,222,240,261,281,301,321,342,360,382,400,422,441,461,482,500,522,540,561,581,600,621,642,661,680,701,722,742,760,781,801,820,841,862,882,900,922,941,961,982,1001,1021,1041,1062,1081,1101,1122,1140,1160,1182,1202,1222,1241,1261,1281,1301,1321,1341,1361,1382,1402,1421,1441,1461,1482,1501,1521,1541,1560,1582,1601,1621,1641,1661,1681,1702,1721,1741,1761,1781,1801,1821],"xSR":741.5,"ySR":573.95,"xT1":424.9,"yT1":0,"xT2":1058.1,"yT2":0,"toosoon":0,"cond_shown":"Congruent","ratio_trial":200,"L_num":7,"L_den":21,"R_num":2,"R_den":15,"correct_side":1,"subjID":"MariaIsabelKuanCruz23","gender":"1","school":"6","age":"11"},{"start_time":1551891857461,"click_time":1551891858898,"finger_time":1551891858578,"fix_duration":1082.7214739170072,"trial":13,"RT":1117,"MT":320,"sideResp":1,"stimulus":[],"xmouse":[797,797,797,797,797,797,797,797,797,797,797,797,797,797,797,797,797,797,797,797,797,797,797,797,797,797,797,797,797,797,797,797,797,797,797,797,797,797,797,797,797,797,797,797,797,797,797,797,797,797,796,791,785,778,755,738,721,692,669,630,611,593,575,558,524,506,484,476,475,489,489,486],"ymouse":[599,599,599,599,599,599,599,599,599,599,599,599,599,599,599,599,599,599,599,599,599,599,599,599,599,599,599,599,599,599,599,599,599,599,599,599,599,599,599,599,599,599,599,599,599,599,599,599,599,599,600,598,596,594,575,562,545,500,469,422,402,383,362,342,303,285,254,228,200,125,103,82],"timestamp_mouse":[17,38,63,78,98,117,137,158,177,196,218,237,258,278,296,316,338,358,377,398,417,437,457,478,496,517,537,558,576,598,617,638,656,677,698,717,737,758,777,798,817,837,857,876,898,918,937,958,978,998,1017,1037,1057,1077,1097,1117,1138,1157,1177,1196,1217,1238,1257,1278,1297,1318,1337,1356,1377,1396,1417,1437],"xSR":741.5,"ySR":573.95,"xT1":424.9,"yT1":0,"xT2":1058.1,"yT2":0,"toosoon":0,"cond_shown":"Incongruent","ratio_trial":300,"L_num":7,"L_den":10,"R_num":8,"R_den":20,"correct_side":1,"subjID":"MariaIsabelKuanCruz23","gender":"1","school":"6","age":"11"},{"start_time":1551891861198,"click_time":1551891862578,"finger_time":1551891862238,"fix_duration":1299.8928779720939,"trial":14,"RT":1040,"MT":340,"sideResp":1,"stimulus":[],"xmouse":[804,804,804,804,804,804,804,804,804,804,804,804,804,804,804,804,804,804,804,804,804,804,804,804,804,804,804,804,804,804,804,804,804,804,804,804,804,804,804,804,804,804,804,804,804,804,804,804,804,802,796,792,785,771,762,756,751,747,740,737,734,724,714,683,664,636,607,578,523,480],"ymouse":[601,601,601,601,601,601,601,601,601,601,601,601,601,601,601,601,601,601,601,601,601,601,601,601,601,601,601,601,601,601,601,601,601,601,601,601,601,601,601,601,601,601,601,601,601,601,601,601,601,598,589,582,573,558,549,543,539,534,526,521,516,496,478,419,378,327,279,229,138,75],"timestamp_mouse":[8,20,42,60,81,99,119,139,160,180,200,221,241,260,280,300,320,340,359,379,401,420,439,460,479,499,520,539,561,579,601,620,641,661,680,701,721,741,759,780,800,820,840,860,880,900,920,941,971,980,1000,1021,1040,1060,1080,1100,1121,1141,1160,1181,1199,1220,1239,1260,1280,1300,1320,1341,1360,1380],"xSR":741.5,"ySR":573.95,"xT1":424.9,"yT1":0,"xT2":1058.1,"yT2":0,"toosoon":0,"cond_shown":"Congruent","ratio_trial":200,"L_num":16,"L_den":30,"R_num":9,"R_den":27,"correct_side":1,"subjID":"MariaIsabelKuanCruz23","gender":"1","school":"6","age":"11"},{"start_time":1551891866249,"click_time":1551891867560,"finger_time":1551891866961,"fix_duration":250,"trial":15,"RT":712,"MT":599,"sideResp":2,"stimulus":[],"xmouse":[832,832,832,832,832,832,832,832,832,832,832,832,832,832,832,832,832,832,832,832,832,832,832,832,832,832,832,832,832,832,832,832,832,817,793,614,583,521,493,475,450,442,438,438,438,438,446,455,461,468,481,494,513,542,575,680,745,827,873,916,977,998,1017,1037,1060,1099],"ymouse":[623,623,623,623,623,623,623,623,623,623,623,623,623,623,623,623,623,623,623,623,623,623,623,623,623,623,623,623,623,623,623,623,623,623,623,562,546,507,488,472,442,432,429,429,429,429,427,424,422,420,416,412,405,392,377,330,304,268,248,228,191,169,150,131,118,99],"timestamp_mouse":[9,29,60,71,92,111,131,153,172,193,211,231,251,271,292,312,332,352,371,391,411,432,452,471,491,511,532,553,572,593,612,631,653,671,692,712,732,751,771,792,811,831,851,871,891,911,932,951,972,992,1013,1031,1052,1071,1092,1111,1132,1152,1172,1192,1211,1231,1251,1271,1292,1311],"xSR":741.5,"ySR":573.95,"xT1":424.9,"yT1":0,"xT2":1058.1,"yT2":0,"toosoon":0,"cond_shown":"Congruent","ratio_trial":200,"L_num":21,"L_den":30,"R_num":2,"R_den":4,"correct_side":1,"subjID":"MariaIsabelKuanCruz23","gender":"1","school":"6","age":"11"},{"start_time":1551891869407,"click_time":1551891870280,"finger_time":1551891869760,"fix_duration":685.783880299508,"trial":16,"RT":353,"MT":520,"sideResp":1,"stimulus":[],"xmouse":[787,787,787,787,787,787,787,787,787,787,787,787,787,787,785,784,781,773,767,756,750,739,716,694,671,653,638,612,588,567,556,550,537,533,530,528,525,521,517,510,505,499,486,482],"ymouse":[601,601,601,601,600,599,599,599,599,599,599,599,599,597,591,587,579,557,548,532,521,508,475,449,426,411,396,359,319,284,262,246,227,219,214,208,199,180,170,151,138,128,100,79],"timestamp_mouse":[19,37,54,74,93,114,133,153,174,194,214,233,253,274,293,313,333,353,375,393,413,433,453,473,493,515,534,554,573,594,614,634,653,673,693,713,735,753,774,794,813,834,854,873],"xSR":741.5,"ySR":573.95,"xT1":424.9,"yT1":0,"xT2":1058.1,"yT2":0,"toosoon":0,"cond_shown":"Incongruent","ratio_trial":100,"L_num":9,"L_den":10,"R_num":20,"R_den":25,"correct_side":1,"subjID":"MariaIsabelKuanCruz23","gender":"1","school":"6","age":"11"},{"start_time":1551891872131,"click_time":1551891875060,"finger_time":1551891873540,"fix_duration":568.162696754784,"trial":17,"RT":1409,"MT":1520,"sideResp":2,"stimulus":[],"xmouse":[823,823,823,823,823,823,823,823,823,823,823,823,823,823,823,823,823,823,823,823,823,823,823,823,823,823,823,823,823,823,823,823,823,823,823,823,823,823,823,823,823,823,823,823,823,823,823,823,823,823,823,823,823,823,823,823,823,823,823,823,823,824,825,826,826,826,826,826,824,820,814,788,778,768,759,754,744,739,731,725,717,694,677,659,648,643,641,641,647,660,680,727,753,775,805,822,846,856,869,881,894,920,948,967,986,1003,1034,1046,1054,1058,1059,1059,1059,1059,1059,1059,1059,1059,1059,1059,1059,1059,1059,1059,1059,1059,1059,1059,1059,1059,1059,1059,1059,1059,1059,1059,1059,1059,1059,1059,1059,1059,1059,1059,1059,1059,1060],"ymouse":[624,624,624,624,624,624,624,624,624,624,624,624,624,624,624,624,624,624,624,624,624,624,624,624,624,624,624,624,624,624,624,624,624,624,624,624,624,624,624,624,624,624,624,624,624,624,624,624,624,624,624,624,624,624,624,624,624,624,624,624,624,624,622,621,620,618,612,606,592,575,553,479,457,441,427,420,406,400,393,387,379,350,330,304,290,280,276,275,273,271,265,251,245,237,226,218,206,202,196,191,184,172,156,147,139,130,117,111,104,101,100,100,100,100,100,100,100,100,100,100,100,100,100,100,100,100,100,100,100,100,100,100,100,100,100,100,100,100,100,100,100,100,100,100,100,100,95],"timestamp_mouse":[9,34,49,70,89,109,130,150,170,190,209,229,249,271,290,309,330,350,369,389,411,430,450,470,490,509,531,549,571,591,610,629,650,670,689,710,730,750,770,790,809,829,851,870,889,909,929,950,969,989,1009,1030,1049,1070,1090,1109,1129,1149,1170,1190,1209,1229,1251,1269,1289,1310,1329,1350,1369,1390,1409,1429,1450,1470,1489,1509,1529,1549,1569,1591,1609,1629,1650,1669,1690,1709,1729,1749,1769,1790,1809,1829,1850,1869,1889,1910,1929,1949,1970,1989,2009,2029,2049,2069,2090,2110,2130,2150,2169,2189,2210,2230,2249,2270,2289,2310,2331,2350,2369,2390,2409,2429,2451,2469,2489,2510,2529,2550,2571,2590,2609,2630,2650,2670,2690,2709,2729,2750,2769,2790,2810,2829,2849,2870,2890,2909,2929],"xSR":741.5,"ySR":573.95,"xT1":424.9,"yT1":0,"xT2":1058.1,"yT2":0,"toosoon":0,"cond_shown":"Incongruent","ratio_trial":100,"L_num":12,"L_den":24,"R_num":9,"R_den":15,"correct_side":2,"subjID":"MariaIsabelKuanCruz23","gender":"1","school":"6","age":"11"},{"start_time":1551891876793,"click_time":1551891877660,"finger_time":1551891877260,"fix_duration":531.5412836781295,"trial":18,"RT":467,"MT":400,"sideResp":1,"stimulus":[],"xmouse":[778,778,778,778,778,778,778,778,778,778,778,778,778,778,778,778,778,778,778,777,775,773,770,755,748,745,742,739,733,728,723,709,700,676,663,646,626,602,545,509,502,483,474,463],"ymouse":[588,588,588,588,588,588,588,588,588,588,588,588,588,588,588,588,588,588,588,586,584,580,575,559,553,549,543,537,521,513,505,487,477,451,435,412,386,348,249,188,173,126,101,64],"timestamp_mouse":[13,36,47,67,88,108,127,148,168,187,208,228,247,269,288,307,329,347,367,388,408,427,447,467,487,507,527,547,567,587,607,627,648,667,687,707,728,748,767,787,807,827,847,867],"xSR":741.5,"ySR":573.95,"xT1":424.9,"yT1":0,"xT2":1058.1,"yT2":0,"toosoon":0,"cond_shown":"Congruent","ratio_trial":300,"L_num":20,"L_den":25,"R_num":5,"R_den":10,"correct_side":1,"subjID":"MariaIsabelKuanCruz23","gender":"1","school":"6","age":"11"},{"start_time":1551891879273,"click_time":1551891880260,"finger_time":1551891879922,"fix_duration":511.07229488396564,"trial":19,"RT":649,"MT":338,"sideResp":1,"stimulus":[],"xmouse":[761,761,761,761,761,761,761,761,761,761,761,761,761,761,761,761,761,761,761,761,761,761,761,761,761,761,761,761,761,761,759,754,741,719,673,657,641,637,634,634,634,634,634,634,630,622,600,577,554,524],"ymouse":[662,662,662,662,662,662,662,662,662,662,662,662,662,662,662,662,662,662,662,662,662,662,662,662,662,662,662,662,662,658,650,636,612,572,514,494,471,461,455,453,452,450,443,426,378,348,271,200,141,58],"timestamp_mouse":[10,36,47,68,87,107,127,147,169,187,209,228,247,268,287,308,328,348,367,388,407,429,449,467,489,508,527,549,568,587,607,627,648,669,688,708,727,747,767,789,807,827,848,869,888,907,927,947,969,987],"xSR":741.5,"ySR":573.95,"xT1":424.9,"yT1":0,"xT2":1058.1,"yT2":0,"toosoon":0,"cond_shown":"Incongruent","ratio_trial":100,"L_num":13,"L_den":26,"R_num":6,"R_den":10,"correct_side":2,"subjID":"MariaIsabelKuanCruz23","gender":"1","school":"6","age":"11"},{"start_time":1551891881954,"click_time":1551891883120,"finger_time":1551891882601,"fix_duration":250,"trial":20,"RT":647,"MT":519,"sideResp":1,"stimulus":[],"xmouse":[780,780,780,780,780,780,780,780,780,780,780,780,780,780,780,780,780,780,780,780,780,779,782,785,788,792,793,794,796,797,797,797,784,761,726,652,624,598,579,566,547,538,536,535,534,532,532,531,530,529,528,528,528,528,526,518,507,495,484],"ymouse":[648,648,648,648,648,648,648,648,648,648,648,648,648,648,648,648,648,648,648,648,648,646,641,638,633,626,624,620,617,614,603,587,549,512,469,410,391,375,363,352,326,309,302,298,296,287,279,270,263,255,243,233,225,214,202,166,143,118,95],"timestamp_mouse":[13,37,46,66,88,106,127,147,167,187,207,226,246,266,288,307,327,347,366,386,406,426,446,467,487,506,526,546,566,588,606,626,647,668,686,706,727,748,767,788,806,827,847,867,887,906,926,947,968,987,1007,1027,1046,1066,1087,1106,1126,1146,1166],"xSR":741.5,"ySR":573.95,"xT1":424.9,"yT1":0,"xT2":1058.1,"yT2":0,"toosoon":0,"cond_shown":"Incongruent","ratio_trial":100,"L_num":9,"L_den":15,"R_num":14,"R_den":28,"correct_side":1,"subjID":"MariaIsabelKuanCruz23","gender":"1","school":"6","age":"11"},{"start_time":1551891885356,"click_time":1551891887681,"finger_time":1551891886060,"fix_duration":1474.188341920621,"trial":21,"RT":704,"MT":1621,"sideResp":1,"stimulus":[],"xmouse":[816,816,816,816,816,816,816,816,816,816,816,815,815,814,814,814,814,814,814,814,814,814,814,814,814,814,814,804,794,784,772,767,764,755,748,739,736,734,733,733,731,731,731,730,729,721,709,696,677,662,645,623,612,606,601,587,575,568,564,564,564,564,566,575,582,586,583,578,574,571,571,570,569,568,566,554,544,534,527,523,518,516,510,498,493,477,468,456,442,431,422,420,419,419,419,419,419,419,419,419,419,419,419,419,419,419,420,421,421,421,422,423,423,424,424,424,425],"ymouse":[610,610,610,610,610,610,610,610,610,610,610,612,612,613,613,613,613,613,613,613,613,613,613,613,613,613,613,610,604,597,591,589,586,579,574,566,563,561,560,560,557,557,557,557,556,548,537,527,518,512,505,496,490,487,484,481,481,481,481,481,481,481,477,459,432,371,349,333,316,293,256,252,251,249,247,233,222,215,209,206,204,201,195,184,179,166,156,144,127,108,87,83,82,81,79,78,77,76,75,74,71,70,68,68,67,66,65,65,64,64,64,63,63,63,63,63,62],"timestamp_mouse":[10,37,45,65,84,104,124,144,165,185,204,224,244,265,284,304,324,345,364,384,404,424,446,465,484,505,524,544,564,584,604,625,645,664,684,704,724,744,764,785,804,825,846,865,885,904,925,944,965,985,1004,1026,1044,1064,1085,1104,1124,1146,1165,1185,1204,1224,1245,1266,1284,1304,1324,1344,1364,1385,1405,1424,1444,1465,1485,1504,1524,1544,1565,1584,1604,1626,1644,1664,1685,1704,1724,1744,1765,1784,1804,1824,1844,1865,1884,1904,1924,1944,1965,1986,2005,2025,2044,2064,2085,2104,2124,2146,2165,2185,2205,2225,2244,2264,2285,2305,2325],"xSR":741.5,"ySR":573.95,"xT1":424.9,"yT1":0,"xT2":1058.1,"yT2":0,"toosoon":0,"cond_shown":"Incongruent","ratio_trial":100,"L_num":2,"L_den":4,"R_num":8,"R_den":20,"correct_side":1,"subjID":"MariaIsabelKuanCruz23","gender":"1","school":"6","age":"11"},{"start_time":1551891895831,"click_time":1551891897380,"finger_time":1551891896781,"fix_duration":768.4288467189648,"trial":22,"RT":950,"MT":599,"sideResp":2,"stimulus":[],"xmouse":[803,803,803,803,803,803,803,803,803,803,803,803,803,803,803,803,803,803,803,803,803,803,803,803,803,803,803,803,803,803,803,803,803,803,803,803,803,803,803,803,803,803,803,803,803,803,807,815,825,831,837,846,850,855,856,859,862,863,865,865,865,869,874,880,887,895,911,916,920,925,935,971,988,1006,1024,1040,1057,1060],"ymouse":[650,650,650,650,650,650,650,650,650,650,650,650,650,650,650,650,650,650,650,650,650,650,650,650,650,650,650,650,650,650,650,650,650,650,650,650,650,650,650,650,650,650,650,650,650,642,590,546,488,457,434,381,353,320,291,270,249,241,234,230,224,205,188,173,157,144,122,117,114,111,105,85,76,67,61,56,53,52],"timestamp_mouse":[10,31,49,69,91,110,129,150,169,189,210,230,249,269,289,311,329,349,370,390,409,429,449,470,489,511,529,550,569,590,610,631,650,669,690,711,730,749,771,790,811,829,849,869,890,909,929,950,969,990,1009,1029,1049,1069,1090,1110,1129,1150,1169,1190,1209,1229,1249,1269,1290,1309,1329,1350,1369,1389,1410,1429,1449,1470,1490,1511,1529,1549],"xSR":741.5,"ySR":573.95,"xT1":424.9,"yT1":0,"xT2":1058.1,"yT2":0,"toosoon":0,"cond_shown":"Congruent","ratio_trial":100,"L_num":1,"L_den":2,"R_num":18,"R_den":30,"correct_side":2,"subjID":"MariaIsabelKuanCruz23","gender":"1","school":"6","age":"11"},{"start_time":1551891900270,"click_time":1551891901800,"finger_time":1551891901360,"fix_duration":368.3640932756399,"trial":23,"RT":1090,"MT":440,"sideResp":2,"stimulus":[],"xmouse":[804,804,804,804,804,804,804,804,804,804,804,804,804,804,804,804,804,804,804,804,804,804,804,804,804,804,804,804,804,804,804,804,804,804,804,804,804,804,804,804,804,804,804,804,804,804,804,804,804,804,804,804,804,807,819,829,839,863,880,906,914,919,924,926,930,933,934,935,938,951,961,972,980,986,1015,1039,1062],"ymouse":[638,638,638,638,638,638,638,638,638,638,638,638,638,638,638,638,638,638,638,638,638,638,638,638,638,638,638,638,638,638,638,638,638,638,638,638,638,638,638,638,638,638,638,638,638,638,638,638,638,638,636,622,609,591,541,508,471,384,319,224,201,186,174,160,133,120,115,111,107,96,91,86,84,83,83,83,83],"timestamp_mouse":[12,40,51,70,90,110,130,151,170,190,210,230,252,271,291,311,331,351,371,392,410,431,450,470,492,511,531,550,570,590,610,630,650,672,690,710,732,750,771,791,810,832,850,872,892,910,930,950,970,991,1011,1031,1050,1070,1090,1111,1131,1150,1171,1190,1210,1230,1250,1271,1290,1311,1330,1350,1371,1391,1410,1430,1450,1471,1491,1510,1530],"xSR":741.5,"ySR":573.95,"xT1":424.9,"yT1":0,"xT2":1058.1,"yT2":0,"toosoon":0,"cond_shown":"Incongruent","ratio_trial":300,"L_num":13,"L_den":26,"R_num":12,"R_den":15,"correct_side":2,"subjID":"MariaIsabelKuanCruz23","gender":"1","school":"6","age":"11"},{"start_time":1551891904511,"click_time":1551891905840,"finger_time":1551891905421,"fix_duration":1448.2112453466973,"trial":24,"RT":910,"MT":419,"sideResp":1,"stimulus":[],"xmouse":[756,756,756,756,756,756,756,756,756,756,756,756,756,756,756,756,756,756,756,756,756,756,756,756,756,756,756,756,756,756,756,756,756,756,756,756,756,756,756,756,756,756,756,756,751,724,685,599,559,521,480,438,393,378,373,371,370,368,368,368,368,368,377,384,399,427,459],"ymouse":[651,651,651,651,651,651,651,651,651,651,651,651,651,651,651,651,651,651,651,651,651,651,651,651,651,651,651,651,651,651,651,651,651,651,651,651,651,651,651,651,651,651,651,651,645,619,584,511,477,442,402,363,310,282,271,264,258,255,255,255,254,248,217,190,153,101,57],"timestamp_mouse":[14,36,50,69,90,110,130,149,170,190,211,230,249,270,289,311,329,350,370,389,410,430,449,470,491,509,530,551,569,589,611,629,651,669,690,709,729,749,769,790,810,830,850,869,889,910,930,949,969,989,1009,1031,1049,1069,1089,1110,1129,1149,1170,1190,1210,1230,1249,1270,1289,1310,1329],"xSR":741.5,"ySR":573.95,"xT1":424.9,"yT1":0,"xT2":1058.1,"yT2":0,"toosoon":0,"cond_shown":"Incongruent","ratio_trial":100,"L_num":9,"L_den":15,"R_num":14,"R_den":28,"correct_side":1,"subjID":"MariaIsabelKuanCruz23","gender":"1","school":"6","age":"11"},{"start_time":1551891907771,"click_time":1551891910941,"finger_time":1551891909160,"fix_duration":509.31297925251096,"trial":25,"RT":1389,"MT":1781,"sideResp":1,"stimulus":[],"xmouse":[765,765,765,765,765,765,765,765,765,765,765,765,765,765,765,765,765,765,765,765,765,765,765,765,765,765,765,765,765,765,765,765,765,765,765,765,765,765,765,765,765,765,765,765,765,765,765,765,765,765,765,765,765,765,765,765,765,765,765,765,765,765,765,765,765,765,769,778,788,812,824,847,860,877,894,896,896,896,896,896,896,896,896,896,889,880,871,861,849,803,753,633,550,474,384,363,353,346,341,339,339,339,339,339,339,342,348,355,363,386,409,421,431,437,454,464,470,472,474,476,478,479,479,480,480,480,480,480,480,480,480,480,481,481,482,482,482,482,482,482,482,482,482,482,482,482,482,482,482,482,482,482,482,482,482,482,482,482,483],"ymouse":[628,628,628,628,628,628,628,628,628,628,628,628,628,628,628,628,628,628,628,628,628,628,628,628,628,628,628,628,628,628,628,628,628,628,628,628,628,628,628,628,628,628,628,628,628,628,628,628,628,628,628,628,628,628,628,628,628,628,628,628,628,628,628,628,628,618,604,591,576,536,514,477,456,432,403,397,395,393,392,388,387,386,385,385,381,377,374,373,375,395,404,416,426,434,434,434,430,423,410,377,364,342,332,322,307,301,293,284,276,254,236,225,215,208,189,181,176,174,171,165,161,161,160,159,156,154,151,147,144,136,132,126,122,119,113,112,111,111,111,111,111,111,111,110,109,108,107,105,104,102,102,101,101,101,101,101,100,100,99],"timestamp_mouse":[11,38,51,69,89,110,130,150,169,189,210,229,250,270,291,309,330,350,369,390,411,430,450,469,489,511,530,550,570,591,610,630,650,669,689,709,731,749,770,789,810,831,850,869,889,910,929,949,971,989,1010,1029,1050,1069,1089,1109,1130,1149,1169,1189,1209,1229,1250,1270,1290,1309,1330,1349,1370,1389,1409,1429,1450,1470,1489,1509,1529,1549,1571,1590,1609,1629,1651,1670,1689,1709,1730,1749,1770,1789,1810,1829,1850,1869,1890,1909,1929,1949,1969,1989,2009,2029,2049,2070,2089,2109,2130,2149,2170,2189,2210,2229,2249,2269,2289,2309,2330,2349,2370,2389,2410,2430,2449,2469,2489,2509,2529,2550,2570,2589,2611,2629,2650,2669,2689,2709,2730,2749,2770,2789,2810,2831,2850,2870,2889,2910,2929,2949,2969,2989,3011,3029,3049,3071,3090,3111,3130,3149,3170],"xSR":741.5,"ySR":573.95,"xT1":424.9,"yT1":0,"xT2":1058.1,"yT2":0,"toosoon":0,"cond_shown":"Congruent","ratio_trial":200,"L_num":3,"L_den":6,"R_num":14,"R_den":20,"correct_side":2,"subjID":"MariaIsabelKuanCruz23","gender":"1","school":"6","age":"11"},{"start_time":1551891925257,"click_time":1551891926743,"finger_time":1551891926323,"fix_duration":914.9055752874402,"trial":26,"RT":1066,"MT":420,"sideResp":2,"stimulus":[],"xmouse":[822,822,822,822,822,822,822,822,822,822,822,822,822,822,822,822,822,822,822,822,822,822,822,822,822,822,822,822,822,822,822,822,822,822,822,822,822,822,822,822,822,822,822,822,822,822,822,822,822,822,822,822,822,832,858,917,964,1006,1059,1087,1157,1191,1214,1229,1238,1243,1243,1240,1232,1220,1201,1190,1176,1164,1150],"ymouse":[621,621,621,621,621,621,621,621,621,621,621,621,621,621,621,621,621,621,621,621,621,621,621,621,621,621,621,621,621,621,621,621,621,621,621,621,621,621,621,621,621,621,621,621,621,621,621,621,621,621,621,621,599,564,534,461,414,381,342,322,272,253,235,217,198,155,133,117,103,91,85,84,84,85,89],"timestamp_mouse":[11,33,43,64,84,103,124,145,163,183,204,223,243,263,284,304,324,343,364,383,403,423,443,464,483,504,523,545,563,584,604,623,643,663,685,703,724,743,763,783,803,824,843,863,883,904,924,943,963,983,1003,1023,1044,1066,1086,1106,1126,1145,1166,1185,1206,1226,1246,1266,1285,1306,1326,1346,1366,1386,1405,1426,1446,1466,1486],"xSR":741.5,"ySR":573.95,"xT1":424.9,"yT1":0,"xT2":1058.1,"yT2":0,"toosoon":0,"cond_shown":"Congruent","ratio_trial":300,"L_num":1,"L_den":20,"R_num":7,"R_den":20,"correct_side":2,"subjID":"MariaIsabelKuanCruz23","gender":"1","school":"6","age":"11"},{"start_time":1551891930277,"click_time":1551891932184,"finger_time":1551891931724,"fix_duration":910.7991652719616,"trial":27,"RT":1447,"MT":460,"sideResp":1,"stimulus":[],"xmouse":[820,820,820,820,820,820,820,820,820,820,820,820,820,820,820,820,820,820,820,820,820,820,820,820,820,820,820,820,820,820,820,820,820,820,820,820,820,820,820,820,820,820,820,820,820,820,820,820,820,820,820,820,820,820,820,820,820,820,820,820,820,820,820,820,820,820,820,820,818,802,794,783,776,763,733,717,704,693,686,671,659,647,636,623,577,539,505,468,452,436,435,435,435,435,435,435],"ymouse":[632,632,632,632,632,632,632,632,632,632,632,632,632,632,632,632,632,632,632,632,632,632,632,632,632,632,632,632,632,632,632,632,632,632,632,632,632,632,632,632,632,632,632,632,632,632,632,632,632,632,632,632,632,632,632,632,632,632,632,632,632,632,632,632,632,632,632,632,632,617,600,577,540,501,429,393,364,337,322,298,288,283,278,271,245,221,195,161,143,118,116,115,114,112,101,97],"timestamp_mouse":[9,26,46,66,86,107,126,147,167,186,206,226,247,266,285,306,327,347,366,387,406,426,446,466,486,506,526,546,566,586,606,626,646,667,686,706,726,746,767,786,806,825,846,866,887,907,927,946,966,986,1006,1026,1045,1067,1086,1107,1126,1147,1167,1186,1207,1226,1247,1266,1285,1307,1326,1347,1366,1386,1406,1425,1447,1466,1486,1506,1526,1546,1566,1585,1606,1627,1646,1667,1686,1705,1725,1745,1765,1785,1805,1825,1847,1866,1885,1906],"xSR":741.5,"ySR":573.95,"xT1":424.9,"yT1":0,"xT2":1058.1,"yT2":0,"toosoon":0,"cond_shown":"Congruent","ratio_trial":100,"L_num":8,"L_den":16,"R_num":2,"R_den":5,"correct_side":1,"subjID":"MariaIsabelKuanCruz23","gender":"1","school":"6","age":"11"},{"start_time":1551891933174,"click_time":1551891934703,"finger_time":1551891934144,"fix_duration":250,"trial":28,"RT":970,"MT":559,"sideResp":2,"stimulus":[],"xmouse":[779,779,779,779,779,779,779,779,779,779,779,779,779,779,779,779,779,779,779,779,779,779,779,779,779,779,779,779,779,779,779,779,779,779,779,779,779,779,779,779,779,779,779,779,779,779,779,792,882,995,1108,1204,1292,1319,1350,1360,1364,1365,1364,1348,1340,1331,1323,1316,1294,1272,1249,1224,1197,1153,1140,1131,1129,1129,1128,1126,1121],"ymouse":[622,622,622,622,622,622,622,622,622,622,622,622,623,623,623,623,623,623,623,623,623,623,623,623,623,623,623,623,623,623,623,623,623,623,623,623,623,623,623,623,623,623,623,623,623,623,623,629,624,594,553,514,462,439,416,407,402,396,388,369,359,351,341,331,291,263,232,203,180,141,122,112,111,110,109,101,95],"timestamp_mouse":[10,35,50,69,90,109,128,149,170,190,208,228,250,269,289,310,328,349,369,389,410,430,449,469,489,509,529,549,570,590,609,629,650,669,689,710,730,750,769,789,809,830,849,870,890,909,930,949,970,989,1009,1028,1049,1069,1090,1109,1129,1149,1170,1189,1209,1229,1250,1269,1288,1309,1330,1348,1370,1388,1409,1428,1449,1469,1489,1509,1529],"xSR":741.5,"ySR":573.95,"xT1":424.9,"yT1":0,"xT2":1058.1,"yT2":0,"toosoon":0,"cond_shown":"Congruent","ratio_trial":300,"L_num":7,"L_den":14,"R_num":20,"R_den":25,"correct_side":2,"subjID":"MariaIsabelKuanCruz23","gender":"1","school":"6","age":"11"},{"start_time":1551891936718,"click_time":1551891938224,"finger_time":1551891937763,"fix_duration":794.6405557986149,"trial":29,"RT":1045,"MT":461,"sideResp":2,"stimulus":[],"xmouse":[821,821,821,821,821,821,821,821,821,821,821,821,821,821,821,821,821,821,821,821,821,821,821,821,821,821,821,821,821,821,821,821,821,821,821,821,821,821,821,821,821,821,821,821,821,821,821,821,821,821,821,821,824,827,828,831,834,843,847,854,861,877,888,904,924,956,980,1022,1038,1050,1062,1071,1089,1102,1117,1132],"ymouse":[593,593,593,593,593,593,593,593,593,593,593,593,593,593,593,593,593,593,593,593,593,593,593,593,593,593,593,593,593,593,593,593,593,593,593,593,593,593,593,593,593,593,593,593,593,593,593,593,593,593,594,585,537,518,503,488,479,458,449,438,430,408,392,371,346,309,280,236,221,210,198,188,164,145,122,93],"timestamp_mouse":[8,42,46,66,84,104,124,144,165,186,206,225,244,265,286,306,324,345,365,386,406,426,445,466,486,505,525,546,565,585,605,626,646,666,685,706,725,745,766,786,805,826,846,864,885,906,925,945,966,986,1005,1025,1045,1065,1085,1105,1126,1146,1164,1185,1206,1226,1245,1266,1285,1304,1325,1346,1365,1385,1406,1425,1445,1465,1485,1506],"xSR":741.5,"ySR":573.95,"xT1":424.9,"yT1":0,"xT2":1058.1,"yT2":0,"toosoon":0,"cond_shown":"Congruent","ratio_trial":300,"L_num":3,"L_den":12,"R_num":11,"R_den":20,"correct_side":2,"subjID":"MariaIsabelKuanCruz23","gender":"1","school":"6","age":"11"},{"start_time":1551891941191,"click_time":1551891942323,"finger_time":1551891941924,"fix_duration":386.07212494065436,"trial":30,"RT":733,"MT":399,"sideResp":1,"stimulus":[],"xmouse":[776,776,776,776,776,776,776,776,776,776,776,776,776,776,776,776,776,776,776,776,776,776,776,776,776,776,776,776,776,776,776,776,776,776,775,760,738,690,666,645,628,602,580,529,496,464,440,425,419,417,417,420,432,456,465,470,474],"ymouse":[655,655,655,655,655,655,655,655,655,655,655,655,655,655,655,655,655,655,655,655,655,655,655,655,655,655,655,655,655,655,655,655,655,655,654,644,634,617,614,613,611,605,599,563,488,385,298,244,195,186,182,174,153,120,109,101,94],"timestamp_mouse":[12,34,52,71,93,112,132,152,172,193,212,232,252,272,292,312,332,352,373,392,411,433,453,471,492,513,533,551,573,593,611,633,653,673,692,712,733,753,772,793,813,833,852,871,892,911,932,953,972,992,1012,1032,1051,1071,1092,1111,1131],"xSR":741.5,"ySR":573.95,"xT1":424.9,"yT1":0,"xT2":1058.1,"yT2":0,"toosoon":0,"cond_shown":"Incongruent","ratio_trial":200,"L_num":3,"L_den":4,"R_num":11,"R_den":20,"correct_side":1,"subjID":"MariaIsabelKuanCruz23","gender":"1","school":"6","age":"11"},{"start_time":1551891944819,"click_time":1551891946763,"finger_time":1551891946083,"fix_duration":1474.529786398899,"trial":31,"RT":1264,"MT":680,"sideResp":1,"stimulus":[],"xmouse":[802,802,802,802,802,802,802,802,802,802,802,802,802,802,802,802,802,802,802,802,802,802,802,802,802,802,802,802,802,802,802,802,802,802,802,802,802,802,802,802,802,802,802,802,802,802,802,802,802,802,802,802,802,802,802,802,802,802,802,799,796,788,767,756,740,724,709,681,667,655,643,627,610,603,594,587,574,549,536,525,505,499,469,460,451,445,441,439,439,439,439,439,441,443,445,448,453,456],"ymouse":[642,642,642,642,642,642,642,642,642,642,642,642,642,642,642,642,642,642,642,642,642,642,642,642,642,642,642,642,642,642,642,642,642,642,642,642,642,642,642,642,642,642,642,642,642,642,642,642,642,642,642,642,642,642,642,642,642,642,642,636,632,618,591,573,556,538,526,492,475,459,441,419,391,378,361,343,319,270,248,227,201,191,158,148,140,131,126,123,123,123,123,123,116,114,111,108,102,98],"timestamp_mouse":[11,41,43,64,84,103,124,145,164,185,205,225,245,265,284,304,325,343,364,384,404,424,444,464,484,504,525,544,564,585,604,624,645,664,684,704,725,744,764,784,803,824,844,864,884,904,925,944,964,984,1003,1024,1044,1065,1084,1103,1125,1143,1164,1184,1204,1224,1244,1264,1284,1303,1323,1343,1364,1384,1403,1425,1445,1464,1484,1504,1525,1544,1564,1585,1605,1624,1644,1664,1685,1703,1724,1744,1765,1784,1805,1824,1844,1864,1883,1903,1925,1943],"xSR":741.5,"ySR":573.95,"xT1":424.9,"yT1":0,"xT2":1058.1,"yT2":0,"toosoon":0,"cond_shown":"Incongruent","ratio_trial":200,"L_num":7,"L_den":10,"R_num":8,"R_den":16,"correct_side":1,"subjID":"MariaIsabelKuanCruz23","gender":"1","school":"6","age":"11"},{"start_time":1551891951695,"click_time":1551891952983,"finger_time":1551891952744,"fix_duration":250,"trial":32,"RT":1049,"MT":239,"sideResp":2,"stimulus":[],"xmouse":[832,832,832,832,832,832,832,832,832,832,832,832,832,832,832,832,832,832,832,832,832,832,832,832,832,832,832,832,832,832,832,832,832,832,832,832,832,832,832,832,832,832,832,832,832,832,832,832,832,832,832,832,851,865,889,925,978,996,1067,1089,1098,1103,1113,1116,1117],"ymouse":[590,590,590,590,590,590,590,590,590,590,590,590,590,590,590,590,590,590,590,590,590,590,590,590,590,590,590,590,590,590,590,590,590,590,590,590,590,590,590,590,590,590,590,590,590,590,590,590,590,590,590,591,574,552,514,462,385,360,254,215,187,162,120,100,78],"timestamp_mouse":[8,34,47,68,88,108,128,147,168,189,208,228,248,269,287,309,328,348,369,389,409,428,448,469,489,508,529,548,568,588,609,629,648,668,687,709,729,749,768,789,808,829,849,869,888,908,929,947,969,987,1007,1029,1049,1068,1088,1109,1129,1148,1168,1188,1208,1228,1248,1267,1288],"xSR":741.5,"ySR":573.95,"xT1":424.9,"yT1":0,"xT2":1058.1,"yT2":0,"toosoon":0,"cond_shown":"Congruent","ratio_trial":300,"L_num":1,"L_den":30,"R_num":8,"R_den":24,"correct_side":2,"subjID":"MariaIsabelKuanCruz23","gender":"1","school":"6","age":"11"},{"start_time":1551891963709,"click_time":1551891965403,"finger_time":1551891965162,"fix_duration":1203.63878626681,"trial":33,"RT":1453,"MT":241,"sideResp":1,"stimulus":[],"xmouse":[812,812,812,812,812,812,812,812,812,812,812,812,812,812,812,812,812,812,812,812,812,812,812,812,812,812,812,812,812,812,812,812,812,812,812,812,812,812,812,812,812,812,812,812,812,812,812,812,812,812,812,812,812,812,812,812,812,812,812,812,812,812,812,812,812,812,812,812,812,811,809,801,769,745,680,626,574,497,472,455,445,441,434,431,428],"ymouse":[647,647,647,647,647,647,647,647,647,647,647,647,647,647,647,647,647,647,647,647,647,647,647,647,647,647,647,647,647,647,647,647,647,647,647,647,647,647,647,647,647,647,647,647,647,647,647,647,647,647,647,647,650,651,651,651,651,651,651,651,651,651,651,651,651,651,651,651,651,645,640,620,557,524,458,411,361,277,243,212,187,167,127,110,90],"timestamp_mouse":[15,37,55,75,95,115,135,154,175,194,213,235,255,274,294,315,334,353,375,394,415,435,455,474,495,515,535,553,573,595,615,635,655,675,695,714,734,754,774,794,814,835,855,874,895,915,934,955,975,994,1015,1034,1053,1074,1094,1115,1134,1155,1174,1193,1215,1235,1255,1274,1294,1315,1334,1355,1375,1394,1414,1434,1453,1474,1494,1514,1534,1554,1573,1594,1614,1634,1653,1674,1694],"xSR":741.5,"ySR":573.95,"xT1":424.9,"yT1":0,"xT2":1058.1,"yT2":0,"toosoon":0,"cond_shown":"Congruent","ratio_trial":100,"L_num":10,"L_den":25,"R_num":3,"R_den":10,"correct_side":1,"subjID":"MariaIsabelKuanCruz23","gender":"1","school":"6","age":"11"},{"start_time":1551891968017,"click_time":1551891969703,"finger_time":1551891969323,"fix_duration":1212.9298965011203,"trial":34,"RT":1306,"MT":380,"sideResp":2,"stimulus":[],"xmouse":[828,828,828,828,828,828,828,828,828,828,828,828,828,828,828,828,828,828,828,828,828,828,828,828,828,828,828,828,827,827,827,826,826,826,826,826,826,826,826,826,826,826,826,826,826,826,826,826,826,826,826,826,826,826,826,826,826,826,826,826,826,826,826,830,834,840,850,872,887,892,907,918,934,941,950,959,970,999,1014,1035,1047,1061,1090,1103,1117],"ymouse":[636,636,636,636,636,636,636,636,636,636,636,636,636,636,636,636,636,636,636,636,636,636,636,636,636,636,636,636,632,631,628,627,626,626,626,626,626,626,626,626,626,626,626,626,626,626,626,626,626,626,626,626,626,626,626,626,626,626,625,623,620,615,602,591,576,558,534,484,448,437,405,386,351,334,318,303,286,245,228,204,189,173,134,117,98],"timestamp_mouse":[9,31,47,67,85,106,126,147,166,187,206,225,246,266,285,307,326,347,366,386,407,427,445,466,487,506,527,545,566,586,606,626,647,666,685,706,727,747,766,787,807,826,846,867,886,905,927,947,965,987,1006,1026,1046,1066,1087,1106,1125,1147,1167,1186,1207,1226,1245,1266,1287,1306,1326,1346,1365,1386,1407,1426,1446,1466,1487,1506,1526,1545,1566,1586,1606,1626,1646,1666,1686],"xSR":741.5,"ySR":573.95,"xT1":424.9,"yT1":0,"xT2":1058.1,"yT2":0,"toosoon":0,"cond_shown":"Incongruent","ratio_trial":200,"L_num":4,"L_den":30,"R_num":1,"R_den":3,"correct_side":2,"subjID":"MariaIsabelKuanCruz23","gender":"1","school":"6","age":"11"},{"start_time":1551891971136,"click_time":1551891972963,"finger_time":1551891972463,"fix_duration":551.0835100920425,"trial":35,"RT":1327,"MT":500,"sideResp":2,"stimulus":[],"xmouse":[746,746,746,746,746,746,746,746,746,746,746,746,746,746,746,746,746,746,746,746,746,746,746,746,746,746,746,746,746,746,746,746,746,746,746,746,746,746,746,746,746,746,746,746,746,746,746,746,746,746,746,746,746,746,746,746,746,746,746,746,747,748,750,753,757,767,801,828,863,905,956,1054,1096,1137,1163,1188,1216,1221,1222,1222,1222,1220,1217,1212,1208,1201,1183,1176,1169,1165,1162,1158],"ymouse":[617,617,617,617,617,617,617,617,617,617,617,617,617,617,617,617,617,617,617,617,617,617,617,617,617,617,617,617,617,617,617,617,617,617,617,617,617,617,617,617,617,617,617,617,617,617,617,617,617,617,617,617,617,617,617,617,617,617,617,617,617,617,616,612,606,595,553,514,462,402,341,239,197,148,116,87,56,53,53,53,53,49,45,43,43,43,51,52,54,55,56,56],"timestamp_mouse":[14,42,48,67,88,107,127,147,166,188,207,227,247,267,286,307,328,346,367,387,408,428,446,468,488,506,527,548,568,586,607,627,648,668,688,707,728,748,768,786,807,827,848,866,887,907,927,947,967,988,1007,1028,1048,1066,1087,1106,1127,1148,1167,1187,1207,1228,1247,1267,1288,1307,1327,1347,1367,1387,1407,1427,1448,1466,1487,1507,1527,1546,1567,1587,1608,1626,1648,1666,1688,1707,1727,1746,1767,1787,1808,1827],"xSR":741.5,"ySR":573.95,"xT1":424.9,"yT1":0,"xT2":1058.1,"yT2":0,"toosoon":0,"cond_shown":"Incongruent","ratio_trial":100,"L_num":12,"L_den":24,"R_num":9,"R_den":15,"correct_side":2,"subjID":"MariaIsabelKuanCruz23","gender":"1","school":"6","age":"11"},{"start_time":1551891975450,"click_time":1551891977123,"finger_time":1551891976424,"fix_duration":1407.7880466210695,"trial":36,"RT":974,"MT":699,"sideResp":2,"stimulus":[],"xmouse":[777,777,777,777,777,777,777,777,777,777,777,778,778,778,778,778,778,778,778,778,778,778,780,780,780,780,780,780,780,780,780,780,780,780,780,780,780,780,780,780,780,780,780,780,780,780,780,780,778,776,771,770,770,768,765,763,763,763,763,763,767,773,781,790,803,835,852,867,882,889,891,892,892,894,901,930,954,983,1021,1045,1095,1116,1131,1139],"ymouse":[593,593,593,593,593,593,593,593,593,593,593,593,593,593,593,593,593,593,593,593,593,593,593,593,593,593,593,593,593,593,593,593,593,593,593,592,591,590,590,590,590,590,590,589,587,583,579,574,563,550,513,500,491,481,474,469,468,468,464,462,454,448,441,434,427,414,407,402,396,390,388,387,386,382,373,334,302,263,217,188,135,118,103,91],"timestamp_mouse":[13,32,53,72,92,113,132,153,174,192,213,233,253,273,293,313,334,353,374,394,414,433,452,474,494,513,533,553,574,594,614,633,653,674,693,713,733,753,773,793,813,832,854,873,893,912,934,953,974,993,1012,1032,1054,1073,1093,1112,1132,1153,1173,1193,1214,1233,1253,1273,1292,1313,1333,1353,1374,1393,1414,1433,1453,1473,1494,1513,1533,1553,1573,1593,1613,1633,1653,1673],"xSR":741.5,"ySR":573.95,"xT1":424.9,"yT1":0,"xT2":1058.1,"yT2":0,"toosoon":0,"cond_shown":"Congruent","ratio_trial":200,"L_num":6,"L_den":20,"R_num":11,"R_den":22,"cor