[{"start_time":1551794775856,"click_time":1551794778202,"finger_time":1551794777861,"fix_duration":1011.4352611520447,"trial":0,"RT":2005,"MT":341,"sideResp":1,"stimulus":"img/750/equaldotanddens/L/9_Ratio_750_L_4_R_3.png","xmouse":[802,802,802,802,802,802,802,802,802,802,802,802,802,802,802,802,802,802,802,802,802,802,802,802,802,802,802,802,802,802,802,802,802,802,802,802,802,802,803,803,804,805,807,809,815,815,816,816,816,817,817,817,818,819,820,821,821,821,821,821,821,821,821,821,821,821,820,819,818,817,817,817,817,815,799,797,797,797,797,797,797,797,797,797,799,801,802,805,805,805,805,804,804,804,804,804,804,804,804,802,791,763,711,647,575,558,553,551,548,547,546,542,534,524,519,510,504,496],"ymouse":[534,534,534,533,533,533,532,532,532,532,532,532,532,532,532,532,532,532,532,532,532,532,532,532,532,532,532,532,532,532,532,532,532,532,532,532,532,532,532,531,530,530,529,527,523,522,522,522,522,521,520,520,520,519,518,518,518,518,518,518,518,518,518,518,518,517,516,516,515,513,513,513,512,512,505,504,503,503,503,503,503,503,503,502,500,499,497,493,491,489,485,484,484,484,484,484,484,484,484,482,467,435,387,336,255,214,193,180,161,157,155,152,146,136,131,121,112,99],"timestamp_mouse":[8,42,45,66,85,104,125,145,166,185,205,226,244,266,285,304,325,345,365,385,406,424,444,466,485,505,526,544,565,586,604,626,644,666,684,705,724,744,765,785,804,825,845,865,884,904,924,945,964,984,1005,1025,1045,1066,1084,1105,1124,1146,1165,1185,1205,1224,1245,1264,1286,1304,1326,1345,1364,1386,1404,1424,1445,1464,1484,1504,1525,1546,1565,1585,1605,1626,1644,1664,1685,1704,1725,1745,1765,1784,1804,1826,1846,1864,1886,1904,1926,1944,1965,1984,2005,2025,2046,2065,2084,2104,2124,2145,2166,2184,2204,2224,2246,2266,2284,2305,2324,2345],"xSR":741.5,"ySR":501.8,"xT1":424.9,"yT1":0,"xT2":1058.1,"yT2":0,"toosoon":0,"cond_shown":"equaldotanddens","ratio_trial":750,"smaller_num":"3","larger_num":"4","correct_side":1,"subjID":"mariajosecedeñopinzon34","gender":"1","age":"11","school":"6","test":{"fix_dur":[250,1500],"timestim":300,"targets_dim":[100,100],"targets_relative_coord":[0.3,0.7],"size_stim":[880,420],"start_dim":[100,100],"size_start":[300,300],"size_fix":60,"samplingrate":20,"img_types":["equaldotsize","equaldotanddens","randomdotsizeEA"],"ratios":[250,500,750,900],"rep_conds":9,"nTrials":120,"trials_to_rest":500,"Trials_order":[67,22,50,95,77,29,114,62,48,116,107,39,43,106,93,9,56,27,113,81,117,108,52,8,6,73,68,4,59,63,105,91,98,84,60,38,7,86,54,51,58,71,76,18,20,53,0,57,19,119,21,110,1,17,44,100,35,15,16,94,99,26,104,49,102,96,25,31,75,82,24,37,101,11,85,111,115,88,14,80,69,66,89,46,32,13,90,74,55,3,23,47,87,40,79,2,33,36,42,83,5,118,97,72,103,45,30,70,28,64,10,65,12,61,109,92,34,41,112,78],"cond_shown":["equaldotanddens","equaldotanddens","randomdotsizeEA","randomdotsizeEA","randomdotsizeEA","randomdotsizeEA","equaldotsize","randomdotsizeEA","equaldotsize","randomdotsizeEA","randomdotsizeEA","equaldotsize","equaldotanddens","equaldotanddens","equaldotsize","equaldotsize","randomdotsizeEA","equaldotsize","randomdotsizeEA","equaldotsize","equaldotsize","equaldotsize","equaldotanddens","randomdotsizeEA","equaldotsize","equaldotanddens","randomdotsizeEA","equaldotanddens","randomdotsizeEA","equaldotsize","equaldotsize","equaldotanddens","randomdotsizeEA","equaldotsize","equaldotsize","randomdotsizeEA","equaldotanddens","randomdotsizeEA","equaldotsize","equaldotsize","equaldotanddens","randomdotsizeEA","equaldotanddens","equaldotsize","randomdotsizeEA","randomdotsizeEA","equaldotsize","equaldotsize","equaldotanddens","randomdotsizeEA","equaldotsize","randomdotsizeEA","equaldotanddens","randomdotsizeEA","randomdotsizeEA","equaldotanddens","randomdotsizeEA","equaldotsize","equaldotanddens","equaldotanddens","equaldotsize","randomdotsizeEA","randomdotsizeEA","equaldotanddens","equaldotsize","equaldotsize","equaldotanddens","equaldotanddens","equaldotsize","equaldotanddens","equaldotsize","equaldotanddens","randomdotsizeEA","randomdotsizeEA","equaldotanddens","equaldotsize","equaldotanddens","equaldotanddens","randomdotsizeEA","randomdotsizeEA","equaldotsize","equaldotsize","randomdotsizeEA","equaldotanddens","randomdotsizeEA","equaldotanddens","equaldotsize","randomdotsizeEA","equaldotanddens","equaldotsize","randomdotsizeEA","randomdotsizeEA","equaldotsize","equaldotanddens","equaldotanddens","randomdotsizeEA","equaldotsize","equaldotsize","equaldotsize","randomdotsizeEA","randomdotsizeEA","equaldotanddens","equaldotanddens","equaldotsize","equaldotanddens","equaldotsize","equaldotsize","equaldotanddens","equaldotanddens","equaldotanddens","equaldotanddens","randomdotsizeEA","equaldotsize","equaldotanddens","equaldotanddens","randomdotsizeEA","equaldotanddens","randomdotsizeEA","equaldotanddens","equaldotsize"],"ratio_trial":[750,900,250,900,500,500,750,250,250,750,900,500,750,900,900,900,750,500,500,900,900,250,500,750,750,250,750,500,900,500,900,750,250,250,250,250,750,250,750,500,900,900,500,750,750,500,250,900,750,900,900,250,250,500,750,500,900,500,500,900,500,250,750,250,750,250,250,750,500,900,250,250,500,900,250,500,750,500,250,750,900,750,500,900,750,250,750,250,750,500,900,900,500,500,750,250,900,250,750,900,500,900,250,250,750,900,750,900,500,500,900,500,250,250,250,750,900,500,500,750],"smaller_num":["3","18","6","18","2","1","15","2","2","15","9","6","3","18","18","9","15","5","5","9","18","3","2","3","3","3","3","9","18","6","9","9","3","6","2","4","15","2","3","5","18","18","2","18","3","10","2","18","15","18","18","2","4","2","15","9","18","3","2","9","5","1","3","3","3","2","2","15","5","9","6","3","9","9","2","5","18","6","3","3","18","18","5","18","6","4","3","3","18","10","18","18","5","9","15","1","18","2","3","18","4","18","6","3","3","18","6","18","2","6","18","6","6","5","4","15","9","6","9","15"],"larger_num":["4","20","24","20","4","2","20","8","8","20","10","12","4","20","20","10","20","10","10","10","20","12","4","4","4","12","4","18","20","12","10","12","12","24","8","16","20","8","4","10","20","20","4","24","4","20","8","20","20","20","20","8","16","4","20","18","20","6","4","10","10","4","4","12","4","8","8","20","10","10","24","12","18","10","8","10","24","12","12","4","20","24","10","20","8","16","4","12","24","20","20","20","10","18","20","4","20","8","4","20","8","20","24","12","4","20","8","20","4","12","20","12","24","20","16","20","10","12","18","20"],"correct_side":[1,2,1,1,1,2,1,2,1,2,2,1,2,1,2,1,1,1,2,2,1,2,1,2,1,2,2,1,1,1,2,2,2,1,1,1,2,2,1,2,1,1,1,1,2,2,1,2,1,1,1,1,1,1,2,2,1,2,1,2,2,2,2,2,2,1,2,1,2,1,1,2,2,2,2,1,1,1,2,2,1,1,1,1,2,1,1,2,1,2,2,2,1,2,2,2,2,1,2,2,1,2,1,2,1,2,1,2,1,1,1,1,2,2,1,2,1,1,2,2],"img_shown":["img/750/equaldotanddens/L/9_Ratio_750_L_4_R_3.png","img/900/equaldotanddens/R/9_Ratio_900_L_18_R_20.png","img/250/randomdotsizeEA/L/5_Ratio_250_L_24_R_6.png","img/900/randomdotsizeEA/L/8_Ratio_900_L_20_R_18.png","img/500/randomdotsizeEA/L/5_Ratio_500_L_4_R_2.png","img/500/randomdotsizeEA/R/15_Ratio_500_L_1_R_2.png","img/750/equaldotsize/L/1_Ratio_750_L_20_R_15.png","img/250/randomdotsizeEA/R/13_Ratio_250_L_2_R_8.png","img/250/equaldotsize/L/3_Ratio_250_L_8_R_2.png","img/750/randomdotsizeEA/R/3_Ratio_750_L_15_R_20.png","img/900/randomdotsizeEA/R/7_Ratio_900_L_9_R_10.png","img/500/equaldotsize/L/13_Ratio_500_L_12_R_6.png","img/750/equaldotanddens/R/12_Ratio_750_L_3_R_4.png","img/900/equaldotanddens/L/4_Ratio_900_L_20_R_18.png","img/900/equaldotsize/R/13_Ratio_900_L_18_R_20.png","img/900/equaldotsize/L/1_Ratio_900_L_10_R_9.png","img/750/randomdotsizeEA/L/1_Ratio_750_L_20_R_15.png","img/500/equaldotsize/L/7_Ratio_500_L_10_R_5.png","img/500/randomdotsizeEA/R/14_Ratio_500_L_5_R_10.png","img/900/equaldotsize/R/15_Ratio_900_L_9_R_10.png","img/900/equaldotsize/L/2_Ratio_900_L_20_R_18.png","img/250/equaldotsize/R/9_Ratio_250_L_3_R_12.png","img/500/equaldotanddens/L/5_Ratio_500_L_4_R_2.png","img/750/randomdotsizeEA/R/7_Ratio_750_L_3_R_4.png","img/750/equaldotsize/L/8_Ratio_750_L_4_R_3.png","img/250/equaldotanddens/R/4_Ratio_250_L_3_R_12.png","img/750/randomdotsizeEA/R/7_Ratio_750_L_3_R_4.png","img/500/equaldotanddens/L/4_Ratio_500_L_18_R_9.png","img/900/randomdotsizeEA/L/2_Ratio_900_L_20_R_18.png","img/500/equaldotsize/L/11_Ratio_500_L_12_R_6.png","img/900/equaldotsize/R/6_Ratio_900_L_9_R_10.png","img/750/equaldotanddens/R/15_Ratio_750_L_9_R_12.png","img/250/randomdotsizeEA/R/9_Ratio_250_L_3_R_12.png","img/250/equaldotsize/L/5_Ratio_250_L_24_R_6.png","img/250/equaldotsize/L/7_Ratio_250_L_8_R_2.png","img/250/randomdotsizeEA/L/2_Ratio_250_L_16_R_4.png","img/750/equaldotanddens/R/5_Ratio_750_L_15_R_20.png","img/250/randomdotsizeEA/R/13_Ratio_250_L_2_R_8.png","img/750/equaldotsize/L/9_Ratio_750_L_4_R_3.png","img/500/equaldotsize/R/14_Ratio_500_L_5_R_10.png","img/900/equaldotanddens/L/10_Ratio_900_L_20_R_18.png","img/900/randomdotsizeEA/L/10_Ratio_900_L_20_R_18.png","img/500/equaldotanddens/L/5_Ratio_500_L_4_R_2.png","img/750/equaldotsize/L/6_Ratio_750_L_24_R_18.png","img/750/randomdotsizeEA/R/12_Ratio_750_L_3_R_4.png","img/500/randomdotsizeEA/R/3_Ratio_500_L_10_R_20.png","img/250/equaldotsize/L/7_Ratio_250_L_8_R_2.png","img/900/equaldotsize/R/13_Ratio_900_L_18_R_20.png","img/750/equaldotanddens/L/1_Ratio_750_L_20_R_15.png","img/900/randomdotsizeEA/L/2_Ratio_900_L_20_R_18.png","img/900/equaldotsize/L/10_Ratio_900_L_20_R_18.png","img/250/randomdotsizeEA/L/7_Ratio_250_L_8_R_2.png","img/250/equaldotanddens/L/2_Ratio_250_L_16_R_4.png","img/500/randomdotsizeEA/L/5_Ratio_500_L_4_R_2.png","img/750/randomdotsizeEA/R/3_Ratio_750_L_15_R_20.png","img/500/equaldotanddens/R/1_Ratio_500_L_9_R_18.png","img/900/randomdotsizeEA/L/10_Ratio_900_L_20_R_18.png","img/500/equaldotsize/R/2_Ratio_500_L_3_R_6.png","img/500/equaldotanddens/L/10_Ratio_500_L_4_R_2.png","img/900/equaldotanddens/R/7_Ratio_900_L_9_R_10.png","img/500/equaldotsize/R/14_Ratio_500_L_5_R_10.png","img/250/randomdotsizeEA/R/8_Ratio_250_L_1_R_4.png","img/750/randomdotsizeEA/R/7_Ratio_750_L_3_R_4.png","img/250/equaldotanddens/R/11_Ratio_250_L_3_R_12.png","img/750/equaldotsize/R/12_Ratio_750_L_3_R_4.png","img/250/equaldotsize/L/3_Ratio_250_L_8_R_2.png","img/250/equaldotanddens/R/13_Ratio_250_L_2_R_8.png","img/750/equaldotanddens/L/1_Ratio_750_L_20_R_15.png","img/500/equaldotsize/R/14_Ratio_500_L_5_R_10.png","img/900/equaldotanddens/L/1_Ratio_900_L_10_R_9.png","img/250/equaldotsize/L/5_Ratio_250_L_24_R_6.png","img/250/equaldotanddens/R/9_Ratio_250_L_3_R_12.png","img/500/randomdotsizeEA/R/1_Ratio_500_L_9_R_18.png","img/900/randomdotsizeEA/R/7_Ratio_900_L_9_R_10.png","img/250/equaldotanddens/R/13_Ratio_250_L_2_R_8.png","img/500/equaldotsize/L/7_Ratio_500_L_10_R_5.png","img/750/equaldotanddens/L/6_Ratio_750_L_24_R_18.png","img/500/equaldotanddens/L/13_Ratio_500_L_12_R_6.png","img/250/randomdotsizeEA/R/9_Ratio_250_L_3_R_12.png","img/750/randomdotsizeEA/R/12_Ratio_750_L_3_R_4.png","img/900/equaldotsize/L/8_Ratio_900_L_20_R_18.png","img/750/equaldotsize/L/6_Ratio_750_L_24_R_18.png","img/500/randomdotsizeEA/L/7_Ratio_500_L_10_R_5.png","img/900/equaldotanddens/L/4_Ratio_900_L_20_R_18.png","img/750/randomdotsizeEA/R/2_Ratio_750_L_6_R_8.png","img/250/equaldotanddens/L/2_Ratio_250_L_16_R_4.png","img/750/equaldotsize/L/9_Ratio_750_L_4_R_3.png","img/250/randomdotsizeEA/R/9_Ratio_250_L_3_R_12.png","img/750/equaldotanddens/L/6_Ratio_750_L_24_R_18.png","img/500/equaldotsize/R/3_Ratio_500_L_10_R_20.png","img/900/randomdotsizeEA/R/11_Ratio_900_L_18_R_20.png","img/900/randomdotsizeEA/R/9_Ratio_900_L_18_R_20.png","img/500/equaldotsize/L/7_Ratio_500_L_10_R_5.png","img/500/equaldotanddens/R/6_Ratio_500_L_9_R_18.png","img/750/equaldotanddens/R/4_Ratio_750_L_15_R_20.png","img/250/randomdotsizeEA/R/8_Ratio_250_L_1_R_4.png","img/900/equaldotsize/R/12_Ratio_900_L_18_R_20.png","img/250/equaldotsize/L/3_Ratio_250_L_8_R_2.png","img/750/equaldotsize/R/7_Ratio_750_L_3_R_4.png","img/900/randomdotsizeEA/R/11_Ratio_900_L_18_R_20.png","img/500/randomdotsizeEA/L/8_Ratio_500_L_8_R_4.png","img/900/equaldotanddens/R/12_Ratio_900_L_18_R_20.png","img/250/equaldotanddens/L/5_Ratio_250_L_24_R_6.png","img/250/equaldotsize/R/9_Ratio_250_L_3_R_12.png","img/750/equaldotanddens/L/10_Ratio_750_L_4_R_3.png","img/900/equaldotsize/R/9_Ratio_900_L_18_R_20.png","img/750/equaldotsize/L/13_Ratio_750_L_8_R_6.png","img/900/equaldotanddens/R/11_Ratio_900_L_18_R_20.png","img/500/equaldotanddens/L/10_Ratio_500_L_4_R_2.png","img/500/equaldotanddens/L/13_Ratio_500_L_12_R_6.png","img/900/equaldotanddens/L/2_Ratio_900_L_20_R_18.png","img/500/randomdotsizeEA/L/13_Ratio_500_L_12_R_6.png","img/250/equaldotsize/R/6_Ratio_250_L_6_R_24.png","img/250/equaldotanddens/R/12_Ratio_250_L_5_R_20.png","img/250/equaldotanddens/L/2_Ratio_250_L_16_R_4.png","img/750/randomdotsizeEA/R/5_Ratio_750_L_15_R_20.png","img/900/equaldotanddens/L/1_Ratio_900_L_10_R_9.png","img/500/randomdotsizeEA/L/13_Ratio_500_L_12_R_6.png","img/500/equaldotanddens/R/6_Ratio_500_L_9_R_18.png","img/750/equaldotsize/R/4_Ratio_750_L_15_R_20.png"],"Rat0":[["12_Ratio_0_L_9_R_0.png","13_Ratio_0_L_6_R_0.png","5_Ratio_0_L_2_R_0.png","6_Ratio_0_L_4_R_0.png","8_Ratio_0_L_6_R_0.png"],["1_Ratio_0_L_0_R_17.png","10_Ratio_0_L_0_R_22.png","11_Ratio_0_L_0_R_1.png","14_Ratio_0_L_0_R_24.png","15_Ratio_0_L_0_R_4.png","2_Ratio_0_L_0_R_5.png","3_Ratio_0_L_0_R_17.png","4_Ratio_0_L_0_R_7.png","7_Ratio_0_L_0_R_19.png","9_Ratio_0_L_0_R_15.png"]],"Rat250":[["1_Ratio_250_L_8_R_2.png","14_Ratio_250_L_12_R_3.png","15_Ratio_250_L_12_R_3.png","2_Ratio_250_L_16_R_4.png","3_Ratio_250_L_8_R_2.png","5_Ratio_250_L_24_R_6.png","7_Ratio_250_L_8_R_2.png"],["10_Ratio_250_L_4_R_16.png","11_Ratio_250_L_3_R_12.png","12_Ratio_250_L_5_R_20.png","13_Ratio_250_L_2_R_8.png","4_Ratio_250_L_3_R_12.png","6_Ratio_250_L_6_R_24.png","8_Ratio_250_L_1_R_4.png","9_Ratio_250_L_3_R_12.png"]],"Rat500":[["10_Ratio_500_L_4_R_2.png","11_Ratio_500_L_12_R_6.png","13_Ratio_500_L_12_R_6.png","4_Ratio_500_L_18_R_9.png","5_Ratio_500_L_4_R_2.png","7_Ratio_500_L_10_R_5.png","8_Ratio_500_L_8_R_4.png"],["1_Ratio_500_L_9_R_18.png","12_Ratio_500_L_1_R_2.png","14_Ratio_500_L_5_R_10.png","15_Ratio_500_L_1_R_2.png","2_Ratio_500_L_3_R_6.png","3_Ratio_500_L_10_R_20.png","6_Ratio_500_L_9_R_18.png","9_Ratio_500_L_2_R_4.png"]],"Rat750":[["1_Ratio_750_L_20_R_15.png","10_Ratio_750_L_4_R_3.png","13_Ratio_750_L_8_R_6.png","14_Ratio_750_L_8_R_6.png","6_Ratio_750_L_24_R_18.png","8_Ratio_750_L_4_R_3.png","9_Ratio_750_L_4_R_3.png"],["11_Ratio_750_L_12_R_16.png","12_Ratio_750_L_3_R_4.png","15_Ratio_750_L_9_R_12.png","2_Ratio_750_L_6_R_8.png","3_Ratio_750_L_15_R_20.png","4_Ratio_750_L_15_R_20.png","5_Ratio_750_L_15_R_20.png","7_Ratio_750_L_3_R_4.png"]],"Rat900":[["1_Ratio_900_L_10_R_9.png","10_Ratio_900_L_20_R_18.png","2_Ratio_900_L_20_R_18.png","4_Ratio_900_L_20_R_18.png","8_Ratio_900_L_20_R_18.png"],["11_Ratio_900_L_18_R_20.png","12_Ratio_900_L_18_R_20.png","13_Ratio_900_L_18_R_20.png","14_Ratio_900_L_18_R_20.png","15_Ratio_900_L_9_R_10.png","3_Ratio_900_L_9_R_10.png","5_Ratio_900_L_9_R_10.png","6_Ratio_900_L_9_R_10.png","7_Ratio_900_L_9_R_10.png","9_Ratio_900_L_18_R_20.png"]],"Rat1000":[["10_Ratio_1000_L_16_R_16.png","11_Ratio_1000_L_6_R_6.png","12_Ratio_1000_L_14_R_14.png","13_Ratio_1000_L_20_R_20.png","15_Ratio_1000_L_15_R_15.png","2_Ratio_1000_L_17_R_17.png","4_Ratio_1000_L_9_R_9.png","5_Ratio_1000_L_6_R_6.png","6_Ratio_1000_L_19_R_19.png","8_Ratio_1000_L_14_R_14.png","9_Ratio_1000_L_25_R_25.png"],["1_Ratio_1000_L_1_R_1.png","14_Ratio_1000_L_17_R_17.png","3_Ratio_1000_L_17_R_17.png","7_Ratio_1000_L_6_R_6.png"]]}},{"start_time":1551794782312,"click_time":1551794783542,"finger_time":1551794783280,"fix_duration":250,"trial":1,"RT":968,"MT":262,"sideResp":2,"stimulus":"img/900/equaldotanddens/R/9_Ratio_900_L_18_R_20.png","xmouse":[792,792,792,792,792,792,792,792,792,792,792,792,792,792,792,792,792,792,792,792,792,792,792,792,792,792,792,792,792,792,792,792,792,792,792,792,792,792,792,793,793,793,793,793,794,795,797,799,804,812,824,868,915,943,965,984,1022,1038,1054,1069,1080,1099],"ymouse":[505,505,505,505,505,505,505,505,505,505,505,505,505,505,505,505,505,505,505,505,505,505,505,505,505,505,505,505,505,505,505,505,505,505,505,505,505,505,505,502,500,490,487,485,483,481,477,471,462,449,428,367,314,280,253,233,184,161,140,118,101,77],"timestamp_mouse":[8,29,55,69,89,108,130,149,169,188,209,230,249,268,290,310,328,348,368,389,408,429,448,470,489,508,529,549,568,588,610,628,649,668,688,708,728,749,769,789,809,828,849,870,888,909,928,948,968,988,1010,1028,1049,1068,1088,1109,1129,1149,1168,1188,1209,1229],"xSR":741.5,"ySR":469.95,"xT1":424.9,"yT1":0,"xT2":1058.1,"yT2":0,"toosoon":0,"cond_shown":"equaldotanddens","ratio_trial":900,"smaller_num":"18","larger_num":"20","correct_side":2,"subjID":"mariajosecedeñopinzon34","gender":"1","age":"11","school":"6"},{"start_time":1551794785860,"click_time":1551794786761,"finger_time":1551794786620,"fix_duration":717.344072102035,"trial":2,"RT":760,"MT":141,"sideResp":2,"stimulus":"img/250/randomdotsizeEA/L/5_Ratio_250_L_24_R_6.png","xmouse":[788,788,788,788,788,788,788,788,788,788,788,788,788,788,788,788,788,788,788,788,788,788,788,788,788,788,788,788,788,788,788,788,788,788,790,791,794,801,815,854,885,917,951,985,1051,1085],"ymouse":[493,493,493,493,493,493,493,493,493,493,493,493,493,493,493,493,493,493,493,493,493,493,493,493,493,493,493,493,493,493,493,493,493,493,490,488,484,473,455,404,366,326,279,233,141,98],"timestamp_mouse":[13,24,40,61,81,100,120,141,160,181,200,221,240,261,280,302,321,340,361,381,400,421,440,460,480,502,521,540,560,581,600,621,640,662,680,701,720,741,760,780,800,822,840,861,880,901],"xSR":741.5,"ySR":469.95,"xT1":424.9,"yT1":0,"xT2":1058.1,"yT2":0,"toosoon":0,"cond_shown":"randomdotsizeEA","ratio_trial":250,"smaller_num":"6","larger_num":"24","correct_side":1,"subjID":"mariajosecedeñopinzon34","gender":"1","age":"11","school":"6"},{"start_time":1551794789676,"click_time":1551794791021,"finger_time":1551794790840,"fix_duration":1132.8044663740984,"trial":3,"RT":1164,"MT":181,"sideResp":1,"stimulus":"img/900/randomdotsizeEA/L/8_Ratio_900_L_20_R_18.png","xmouse":[780,780,780,780,780,780,780,780,780,780,780,780,780,780,780,780,780,780,780,780,780,780,780,780,780,780,780,780,780,780,780,780,780,780,780,780,780,780,780,780,780,780,780,780,780,780,780,780,780,780,780,780,780,780,780,779,778,774,762,755,745,727,700,618,549,525,513,513],"ymouse":[521,521,521,521,521,521,521,521,521,521,521,521,521,521,521,521,521,521,521,521,521,521,521,521,521,521,521,521,521,521,521,521,521,521,521,521,521,521,521,521,521,521,521,521,521,521,521,521,520,515,510,506,501,500,499,498,494,488,468,451,428,390,343,228,148,119,101,92],"timestamp_mouse":[10,32,45,64,85,104,124,144,166,184,204,225,245,264,285,304,324,345,364,384,404,426,445,465,485,504,524,544,565,585,604,625,644,664,684,705,724,744,766,786,804,826,844,866,884,904,926,944,965,986,1004,1024,1046,1065,1085,1104,1124,1144,1164,1185,1204,1224,1245,1264,1285,1304,1324,1345],"xSR":741.5,"ySR":469.95,"xT1":424.9,"yT1":0,"xT2":1058.1,"yT2":0,"toosoon":0,"cond_shown":"randomdotsizeEA","ratio_trial":900,"smaller_num":"18","larger_num":"20","correct_side":1,"subjID":"mariajosecedeñopinzon34","gender":"1","age":"11","school":"6"},{"start_time":1551794795261,"click_time":1551794796601,"finger_time":1551794796420,"fix_duration":997.9432346844985,"trial":4,"RT":1159,"MT":181,"sideResp":1,"stimulus":"img/500/randomdotsizeEA/L/5_Ratio_500_L_4_R_2.png","xmouse":[772,772,772,772,772,772,772,772,772,772,772,772,772,772,772,772,772,772,772,772,772,772,772,772,772,772,772,772,772,773,773,774,775,775,775,775,775,776,776,776,776,776,776,776,777,778,779,780,780,780,780,780,780,781,781,781,781,781,781,781,781,778,771,754,673,583,516,466],"ymouse":[498,498,498,498,498,498,498,498,498,498,498,498,498,498,498,498,498,498,498,498,498,498,498,498,498,498,498,498,498,498,498,497,497,497,497,497,496,490,487,482,482,481,481,480,477,475,472,472,472,472,471,471,471,471,471,470,470,470,469,466,462,455,445,423,329,218,138,79],"timestamp_mouse":[1,20,43,61,80,99,120,139,159,179,199,219,241,259,280,300,319,340,361,379,399,420,439,459,479,500,521,540,560,579,599,620,640,660,681,700,720,741,760,779,801,819,840,859,879,900,919,939,961,979,999,1019,1041,1060,1079,1100,1119,1141,1159,1179,1201,1220,1239,1259,1279,1299,1320,1340],"xSR":741.5,"ySR":469.95,"xT1":424.9,"yT1":0,"xT2":1058.1,"yT2":0,"toosoon":0,"cond_shown":"randomdotsizeEA","ratio_trial":500,"smaller_num":"2","larger_num":"4","correct_side":1,"subjID":"mariajosecedeñopinzon34","gender":"1","age":"11","school":"6"},{"start_time":1551794801233,"click_time":1551794802480,"finger_time":1551794802161,"fix_duration":250,"trial":5,"RT":928,"MT":319,"sideResp":2,"stimulus":"img/500/randomdotsizeEA/R/15_Ratio_500_L_1_R_2.png","xmouse":[800,800,800,800,800,800,800,800,800,800,800,800,800,800,800,800,800,800,800,800,800,800,800,800,800,800,800,800,800,800,800,800,800,800,800,800,800,800,800,800,800,800,800,800,801,806,819,834,860,896,983,1032,1079,1115,1138,1166,1172,1174,1174,1174,1165,1162,1158],"ymouse":[502,502,502,502,502,502,502,502,502,502,502,502,502,502,502,502,502,502,502,502,502,502,502,502,502,502,502,502,502,502,502,502,502,502,502,502,502,502,502,502,501,500,498,497,494,478,460,444,422,398,339,306,272,246,227,199,185,173,161,145,113,103,97],"timestamp_mouse":[9,36,48,67,88,107,127,149,167,188,207,227,249,267,288,309,327,348,367,387,407,428,447,469,487,508,528,547,568,588,607,627,648,667,687,707,728,749,767,788,807,827,848,868,887,907,928,947,967,988,1007,1028,1047,1068,1087,1107,1128,1148,1167,1188,1207,1228,1247],"xSR":741.5,"ySR":469.95,"xT1":424.9,"yT1":0,"xT2":1058.1,"yT2":0,"toosoon":0,"cond_shown":"randomdotsizeEA","ratio_trial":500,"smaller_num":"1","larger_num":"2","correct_side":2,"subjID":"mariajosecedeñopinzon34","gender":"1","age":"11","school":"6"},{"start_time":1551794804795,"click_time":1551794805920,"finger_time":1551794805681,"fix_duration":732.6604595817956,"trial":6,"RT":886,"MT":239,"sideResp":1,"stimulus":"img/750/equaldotsize/L/1_Ratio_750_L_20_R_15.png","xmouse":[795,795,795,795,795,795,795,795,795,795,795,795,795,795,795,795,795,795,795,795,795,795,795,795,795,795,795,795,795,795,795,795,795,795,795,795,795,795,795,795,795,795,795,789,779,762,735,655,596,563,540,526,517,517,517,518,519],"ymouse":[514,514,514,514,514,514,514,514,514,514,514,514,514,514,514,514,514,514,514,514,514,514,514,514,514,514,514,514,514,514,514,514,514,514,514,514,514,514,514,512,511,508,497,484,467,441,404,315,251,211,178,154,122,113,106,101,96],"timestamp_mouse":[10,25,46,66,85,105,126,145,165,185,206,226,247,265,285,307,326,345,366,385,406,425,445,466,486,506,526,545,566,585,606,625,645,666,686,706,725,747,765,785,806,825,847,865,886,905,925,945,966,985,1005,1026,1046,1066,1086,1106,1125],"xSR":741.5,"ySR":469.95,"xT1":424.9,"yT1":0,"xT2":1058.1,"yT2":0,"toosoon":0,"cond_shown":"equaldotsize","ratio_trial":750,"smaller_num":"15","larger_num":"20","correct_side":1,"subjID":"mariajosecedeñopinzon34","gender":"1","age":"11","school":"6"},{"start_time":1551794807623,"click_time":1551794808961,"finger_time":1551794808440,"fix_duration":361.33384639123955,"trial":7,"RT":817,"MT":521,"sideResp":2,"stimulus":"img/250/randomdotsizeEA/R/13_Ratio_250_L_2_R_8.png","xmouse":[786,786,786,786,786,786,786,786,786,786,786,786,786,786,786,786,786,786,786,786,786,786,786,786,786,786,786,786,786,786,786,786,786,786,787,796,801,809,818,829,859,876,893,909,923,950,964,971,980,986,992,992,992,992,992,995,1003,1010,1018,1023,1034,1040,1044,1049,1052,1057,1061],"ymouse":[501,501,501,501,501,501,501,501,501,501,501,501,501,501,501,501,501,501,501,501,501,501,501,501,501,501,501,501,501,501,501,501,501,501,501,494,490,486,480,472,446,430,410,390,369,313,277,253,231,211,191,190,190,190,190,186,181,174,163,154,131,121,113,106,101,93,89],"timestamp_mouse":[36,37,57,78,98,119,137,157,179,198,217,238,257,278,297,318,337,358,379,399,417,438,459,478,497,518,537,558,577,597,618,637,657,678,697,717,738,757,778,798,817,838,857,878,898,918,937,957,978,997,1018,1037,1059,1077,1098,1118,1138,1158,1179,1197,1217,1237,1257,1278,1297,1318,1337],"xSR":741.5,"ySR":469.95,"xT1":424.9,"yT1":0,"xT2":1058.1,"yT2":0,"toosoon":0,"cond_shown":"randomdotsizeEA","ratio_trial":250,"smaller_num":"2","larger_num":"8","correct_side":2,"subjID":"mariajosecedeñopinzon34","gender":"1","age":"11","school":"6"},{"start_time":1551794810812,"click_time":1551794812180,"finger_time":1551794811740,"fix_duration":250,"trial":8,"RT":928,"MT":440,"sideResp":1,"stimulus":"img/250/equaldotsize/L/3_Ratio_250_L_8_R_2.png","xmouse":[770,770,770,771,771,771,771,771,771,771,771,771,772,772,772,772,772,772,772,772,772,772,772,772,772,772,772,772,772,772,772,772,772,772,772,772,772,772,772,772,772,772,772,772,773,773,753,716,661,599,537,447,417,403,395,390,390,390,390,390,390,390,390,390,390,390,402,424,439],"ymouse":[496,496,496,496,496,496,497,497,497,497,497,497,497,497,497,497,497,497,497,497,497,497,497,497,497,497,497,497,497,497,497,497,497,497,497,497,497,497,497,497,497,497,497,497,494,489,436,391,338,285,234,160,135,118,104,85,70,59,50,43,38,38,38,38,38,38,38,42,46],"timestamp_mouse":[10,42,48,68,88,108,128,149,168,189,208,228,248,270,288,309,329,349,368,389,410,428,449,468,489,508,528,548,568,588,610,629,649,669,688,710,728,748,769,789,810,828,848,868,889,908,928,948,969,989,1009,1029,1049,1068,1088,1110,1129,1149,1168,1188,1210,1228,1249,1270,1290,1309,1328,1349,1368],"xSR":741.5,"ySR":469.95,"xT1":424.9,"yT1":0,"xT2":1058.1,"yT2":0,"toosoon":0,"cond_shown":"equaldotsize","ratio_trial":250,"smaller_num":"2","larger_num":"8","correct_side":1,"subjID":"mariajosecedeñopinzon34","gender":"1","age":"11","school":"6"},{"start_time":1551794813772,"click_time":1551794814760,"finger_time":1551794814562,"fix_duration":250,"trial":9,"RT":790,"MT":198,"sideResp":2,"stimulus":"img/750/randomdotsizeEA/R/3_Ratio_750_L_15_R_20.png","xmouse":[788,788,788,788,788,788,788,788,788,788,788,788,788,788,788,788,788,788,788,788,788,788,788,788,788,788,788,788,788,788,789,791,792,795,796,796,797,800,811,825,840,863,893,958,985,1011,1028,1040,1058,1075],"ymouse":[501,501,501,501,501,501,501,501,501,501,501,501,501,501,501,501,501,501,501,501,501,501,501,501,501,501,501,501,501,501,500,498,496,493,493,492,491,489,479,464,450,428,393,311,270,223,180,150,111,86],"timestamp_mouse":[10,31,50,69,88,110,128,148,168,188,208,229,248,268,288,309,329,348,368,389,408,430,449,470,488,508,528,549,568,589,608,628,649,668,688,708,729,748,768,790,808,828,848,868,889,909,930,948,968,988],"xSR":741.5,"ySR":469.95,"xT1":424.9,"yT1":0,"xT2":1058.1,"yT2":0,"toosoon":0,"cond_shown":"randomdotsizeEA","ratio_trial":750,"smaller_num":"15","larger_num":"20","correct_side":2,"subjID":"mariajosecedeñopinzon34","gender":"1","age":"11","school":"6"},{"start_time":1551794819972,"click_time":1551794821222,"finger_time":1551794820840,"fix_duration":809.7398613279182,"trial":10,"RT":868,"MT":382,"sideResp":2,"stimulus":"img/900/randomdotsizeEA/R/7_Ratio_900_L_9_R_10.png","xmouse":[791,791,791,791,791,791,791,791,791,791,791,791,791,791,791,791,791,791,791,791,791,791,791,791,791,791,791,791,791,791,791,791,791,791,791,791,791,791,793,793,794,797,800,819,830,842,850,856,866,876,887,901,918,959,979,996,1008,1017,1028,1037,1043,1052,1076],"ymouse":[497,497,497,497,497,497,497,497,497,497,497,497,497,497,497,497,497,497,497,497,497,497,497,497,497,497,497,497,497,497,497,497,497,497,497,497,497,497,496,494,490,486,478,449,432,413,400,389,368,352,335,312,286,226,197,174,157,144,129,119,112,101,80],"timestamp_mouse":[10,36,48,68,89,109,128,148,169,188,209,229,249,270,289,308,328,349,369,389,410,429,450,468,490,509,528,550,568,589,608,630,648,669,688,709,728,749,768,788,808,828,848,868,888,910,928,949,968,988,1009,1028,1049,1068,1090,1110,1130,1149,1168,1189,1210,1228,1249],"xSR":741.5,"ySR":469.95,"xT1":424.9,"yT1":0,"xT2":1058.1,"yT2":0,"toosoon":0,"cond_shown":"randomdotsizeEA","ratio_trial":900,"smaller_num":"9","larger_num":"10","correct_side":2,"subjID":"mariajosecedeñopinzon34","gender":"1","age":"11","school":"6"},{"start_time":1551794823590,"click_time":1551794824780,"finger_time":1551794824300,"fix_duration":907.2727752414411,"trial":11,"RT":710,"MT":480,"sideResp":1,"stimulus":"img/500/equaldotsize/L/13_Ratio_500_L_12_R_6.png","xmouse":[771,771,771,771,771,771,771,771,771,771,771,771,771,771,771,771,771,771,771,771,771,771,771,771,771,771,771,771,771,771,771,771,771,765,749,725,693,645,617,600,585,571,544,537,534,534,534,534,534,533,533,532,531,528,525,523,521,518,515,513],"ymouse":[529,529,529,529,529,529,529,529,529,529,529,529,529,529,529,529,529,529,529,529,529,529,529,529,529,529,529,529,529,529,529,529,523,510,491,471,446,405,372,349,328,304,259,240,226,219,212,210,209,206,204,201,191,180,169,161,152,132,114,97],"timestamp_mouse":[10,31,51,70,92,112,132,150,171,190,210,231,250,271,290,311,331,350,370,390,411,430,451,470,490,510,530,552,570,590,612,631,650,670,692,710,731,750,772,792,810,830,850,871,890,910,932,950,971,991,1010,1030,1050,1070,1090,1111,1130,1151,1170,1190],"xSR":741.5,"ySR":469.95,"xT1":424.9,"yT1":0,"xT2":1058.1,"yT2":0,"toosoon":0,"cond_shown":"equaldotsize","ratio_trial":500,"smaller_num":"6","larger_num":"12","correct_side":1,"subjID":"mariajosecedeñopinzon34","gender":"1","age":"11","school":"6"},{"start_time":1551794827267,"click_time":1551794828222,"finger_time":1551794827981,"fix_duration":1425.9132545512684,"trial":12,"RT":714,"MT":241,"sideResp":2,"stimulus":"img/750/equaldotanddens/R/12_Ratio_750_L_3_R_4.png","xmouse":[793,793,793,793,793,793,793,793,793,793,793,793,793,793,793,793,793,793,793,793,793,793,793,793,793,793,793,793,793,793,793,793,793,799,804,825,847,879,943,967,993,1009,1021,1044,1057,1063,1070,1079],"ymouse":[509,509,509,509,509,509,509,509,509,509,509,509,509,509,509,509,509,509,509,509,509,509,509,509,509,509,509,509,509,509,509,509,509,501,493,468,442,404,325,282,246,217,198,158,133,121,110,96],"timestamp_mouse":[13,38,54,75,94,113,134,153,173,194,213,234,254,273,294,313,334,354,373,395,413,434,455,473,495,514,533,554,575,593,614,634,653,673,694,714,734,753,774,794,814,834,854,873,894,913,933,955],"xSR":741.5,"ySR":469.95,"xT1":424.9,"yT1":0,"xT2":1058.1,"yT2":0,"toosoon":0,"cond_shown":"equaldotanddens","ratio_trial":750,"smaller_num":"3","larger_num":"4","correct_side":2,"subjID":"mariajosecedeñopinzon34","gender":"1","age":"11","school":"6"},{"start_time":1551794830538,"click_time":1551794831321,"finger_time":1551794831141,"fix_duration":915.2880835299251,"trial":13,"RT":603,"MT":180,"sideResp":1,"stimulus":"img/900/equaldotanddens/L/4_Ratio_900_L_20_R_18.png","xmouse":[775,775,775,775,775,775,775,775,775,775,775,775,775,775,775,775,775,775,775,775,775,775,775,775,775,775,775,778,780,783,784,769,743,693,632,507,471,448,437,429],"ymouse":[511,511,511,511,511,511,511,511,511,511,511,511,511,511,511,511,511,511,511,511,511,511,511,511,511,511,511,508,505,496,469,439,413,375,328,229,188,151,119,94],"timestamp_mouse":[9,37,42,64,84,102,123,142,162,183,204,223,243,263,283,302,323,342,363,382,404,422,443,463,484,503,523,543,564,583,603,623,642,662,683,702,722,742,763,783],"xSR":741.5,"ySR":469.95,"xT1":424.9,"yT1":0,"xT2":1058.1,"yT2":0,"toosoon":0,"cond_shown":"equaldotanddens","ratio_trial":900,"smaller_num":"18","larger_num":"20","correct_side":1,"subjID":"mariajosecedeñopinzon34","gender":"1","age":"11","school":"6"},{"start_time":1551794833423,"click_time":1551794834441,"finger_time":1551794834040,"fix_duration":959.6871971079337,"trial":14,"RT":617,"MT":401,"sideResp":2,"stimulus":"img/900/equaldotsize/R/13_Ratio_900_L_18_R_20.png","xmouse":[787,787,787,787,787,787,787,787,787,787,787,787,787,787,787,787,787,787,787,787,787,787,787,787,787,788,791,795,803,812,841,859,873,886,897,924,935,948,958,982,994,1003,1012,1020,1024,1029,1032,1036,1039,1051,1059],"ymouse":[510,510,510,510,510,510,510,510,510,510,510,510,510,510,510,510,510,510,510,510,510,510,510,510,510,511,508,502,492,477,438,414,391,369,345,293,274,253,233,196,180,168,156,145,138,127,123,121,119,108,99],"timestamp_mouse":[18,40,58,78,97,117,138,157,177,197,218,237,257,278,297,318,337,357,378,397,418,437,457,477,499,517,537,557,578,597,617,638,657,677,697,717,737,757,778,799,818,837,857,879,898,918,938,957,978,999,1018],"xSR":741.5,"ySR":469.95,"xT1":424.9,"yT1":0,"xT2":1058.1,"yT2":0,"toosoon":0,"cond_shown":"equaldotsize","ratio_trial":900,"smaller_num":"18","larger_num":"20","correct_side":2,"subjID":"mariajosecedeñopinzon34","gender":"1","age":"11","school":"6"},{"start_time":1551794837317,"click_time":1551794838581,"finger_time":1551794838182,"fix_duration":1334.9718797208407,"trial":15,"RT":865,"MT":399,"sideResp":1,"stimulus":"img/900/equaldotsize/L/1_Ratio_900_L_10_R_9.png","xmouse":[791,790,790,790,790,789,789,789,789,789,789,789,789,789,789,789,789,789,789,789,789,789,789,789,789,789,789,789,789,789,789,789,789,789,789,789,789,788,786,785,779,764,757,749,738,725,692,685,683,683,686,689,689,689,682,676,658,643,629,615,580,531,499,478],"ymouse":[530,530,530,530,530,530,530,530,530,530,530,530,530,530,530,530,530,530,530,530,530,530,530,530,530,530,530,530,530,530,530,530,530,528,527,524,521,519,514,511,502,485,474,461,441,419,358,330,306,282,242,220,206,199,190,183,172,166,163,159,145,124,110,99],"timestamp_mouse":[3,23,52,64,85,103,125,144,164,184,204,223,244,263,284,303,324,344,364,384,405,423,444,465,483,503,524,543,565,584,604,624,644,664,685,704,725,745,765,785,804,824,844,865,884,904,924,945,964,985,1006,1024,1044,1064,1084,1104,1125,1145,1164,1184,1206,1225,1244,1264],"xSR":741.5,"ySR":469.95,"xT1":424.9,"yT1":0,"xT2":1058.1,"yT2":0,"toosoon":0,"cond_shown":"equaldotsize","ratio_trial":900,"smaller_num":"9","larger_num":"10","correct_side":1,"subjID":"mariajosecedeñopinzon34","gender":"1","age":"11","school":"6"},{"start_time":1551794840255,"click_time":1551794841423,"finger_time":1551794841001,"fix_duration":531.0561247711347,"trial":16,"RT":746,"MT":422,"sideResp":2,"stimulus":"img/750/randomdotsizeEA/L/1_Ratio_750_L_20_R_15.png","xmouse":[802,802,802,802,802,802,802,802,802,802,802,802,802,802,802,802,802,802,802,802,802,802,802,802,802,802,802,802,802,802,802,802,802,802,802,805,807,812,819,838,849,861,875,891,927,937,944,952,958,974,984,994,1006,1016,1032,1040,1046,1052,1059],"ymouse":[516,517,517,518,518,518,518,518,518,518,518,518,518,518,518,518,518,518,518,518,518,518,518,518,518,518,518,518,518,518,515,513,512,507,503,492,482,469,455,420,400,380,355,326,243,217,198,181,166,141,130,118,104,91,72,62,56,53,50],"timestamp_mouse":[10,35,45,65,87,106,125,146,167,187,206,226,246,266,286,306,327,345,367,387,406,426,446,467,486,507,527,546,566,586,606,626,646,667,687,706,727,746,767,786,806,826,846,867,885,906,926,947,966,986,1006,1027,1046,1066,1086,1106,1126,1147,1167],"xSR":741.5,"ySR":469.95,"xT1":424.9,"yT1":0,"xT2":1058.1,"yT2":0,"toosoon":0,"cond_shown":"randomdotsizeEA","ratio_trial":750,"smaller_num":"15","larger_num":"20","correct_side":1,"subjID":"mariajosecedeñopinzon34","gender":"1","age":"11","school":"6"},{"start_time":1551794843013,"click_time":1551794844062,"finger_time":1551794843742,"fix_duration":250,"trial":17,"RT":729,"MT":320,"sideResp":1,"stimulus":"img/500/equaldotsize/L/7_Ratio_500_L_10_R_5.png","xmouse":[782,782,782,782,782,782,782,782,782,782,782,782,782,782,782,782,782,782,782,782,782,782,782,782,782,782,782,782,782,782,782,782,782,782,782,766,733,637,550,479,439,436,450,469,486,495,497,497,497,498,499,499,499],"ymouse":[548,548,548,548,548,548,548,548,548,548,548,548,548,548,548,548,548,548,548,548,548,548,548,548,548,548,548,548,548,548,548,548,548,548,546,519,477,377,297,225,180,146,138,133,131,127,124,117,113,109,106,103,99],"timestamp_mouse":[11,39,48,69,88,108,128,148,168,188,209,228,248,268,288,309,328,348,369,388,409,428,448,468,488,509,528,549,568,588,607,628,649,669,688,709,729,748,768,788,808,828,849,868,888,908,929,948,968,989,1008,1027,1049],"xSR":741.5,"ySR":469.95,"xT1":424.9,"yT1":0,"xT2":1058.1,"yT2":0,"toosoon":0,"cond_shown":"equaldotsize","ratio_trial":500,"smaller_num":"5","larger_num":"10","correct_side":1,"subjID":"mariajosecedeñopinzon34","gender":"1","age":"11","school":"6"},{"start_time":1551794847008,"click_time":1551794848442,"finger_time":1551794848081,"fix_duration":1425.3440579007308,"trial":18,"RT":1073,"MT":361,"sideResp":2,"stimulus":"img/500/randomdotsizeEA/R/14_Ratio_500_L_5_R_10.png","xmouse":[803,803,803,803,803,803,803,803,803,803,803,803,803,803,803,803,803,803,803,803,803,803,803,803,803,803,803,803,803,803,803,803,803,803,803,792,768,757,756,756,756,756,756,756,756,756,757,759,762,766,771,790,804,827,853,889,956,1003,1022,1032,1038,1039,1041,1043,1043,1044,1044,1044,1044,1047,1053,1067],"ymouse":[519,519,519,519,519,519,519,519,519,519,519,519,519,519,519,519,519,519,519,519,519,519,519,519,519,519,519,519,519,519,519,519,519,519,516,505,489,483,483,483,483,483,483,483,483,482,482,482,481,481,480,475,470,458,439,406,322,251,210,179,140,128,119,109,97,86,69,61,58,55,54,52],"timestamp_mouse":[14,37,53,72,94,113,133,153,173,192,213,234,252,273,293,313,333,354,372,393,413,433,453,473,494,513,534,553,573,593,614,633,654,673,693,714,733,753,773,793,813,834,854,874,892,913,934,952,973,994,1013,1034,1054,1073,1094,1113,1133,1153,1173,1193,1214,1233,1253,1274,1293,1314,1333,1354,1373,1394,1413,1434],"xSR":741.5,"ySR":469.95,"xT1":424.9,"yT1":0,"xT2":1058.1,"yT2":0,"toosoon":0,"cond_shown":"randomdotsizeEA","ratio_trial":500,"smaller_num":"5","larger_num":"10","correct_side":2,"subjID":"mariajosecedeñopinzon34","gender":"1","age":"11","school":"6"},{"start_time":1551794851110,"click_time":1551794852381,"finger_time":1551794851861,"fix_duration":1068.3510938398185,"trial":19,"RT":751,"MT":520,"sideResp":2,"stimulus":"img/900/equaldotsize/R/15_Ratio_900_L_9_R_10.png","xmouse":[794,794,794,794,794,794,794,793,793,793,793,793,793,793,793,793,793,793,793,793,793,793,793,793,793,793,793,793,793,793,793,793,793,793,798,804,827,845,862,877,887,908,917,925,928,929,929,929,929,929,929,933,939,949,961,988,1000,1011,1018,1024,1036,1047,1053,1060],"ymouse":[538,538,538,538,538,538,538,538,538,538,538,538,538,538,538,538,538,538,538,538,538,538,538,538,538,538,538,538,538,538,538,534,529,523,515,504,472,447,417,389,362,312,291,266,256,251,250,250,250,250,250,244,235,223,208,177,160,141,123,109,84,69,63,57],"timestamp_mouse":[11,31,52,72,91,110,131,151,171,192,211,232,252,271,292,311,331,351,371,392,411,431,452,472,491,510,531,551,570,592,612,632,651,671,691,711,730,751,772,792,812,831,851,871,891,912,931,951,970,992,1011,1031,1052,1079,1091,1112,1131,1152,1171,1191,1213,1231,1251,1271],"xSR":741.5,"ySR":469.95,"xT1":424.9,"yT1":0,"xT2":1058.1,"yT2":0,"toosoon":0,"cond_shown":"equaldotsize","ratio_trial":900,"smaller_num":"9","larger_num":"10","correct_side":2,"subjID":"mariajosecedeñopinzon34","gender":"1","age":"11","school":"6"},{"start_time":1551794858693,"click_time":1551794860263,"finger_time":1551794859422,"fix_duration":1190.971573873596,"trial":20,"RT":729,"MT":841,"sideResp":1,"stimulus":"img/900/equaldotsize/L/2_Ratio_900_L_20_R_18.png","xmouse":[785,785,785,785,785,785,785,785,785,785,785,785,785,785,785,785,785,785,785,785,785,785,785,785,785,785,786,791,798,803,807,809,812,817,823,828,835,857,871,885,897,905,906,906,906,905,901,889,883,877,871,865,865,865,865,865,863,858,841,807,749,598,504,401,364,348,337,337,337,337,337,337,337,337,337,337,337,406,442],"ymouse":[513,513,513,513,513,513,513,513,513,513,513,513,513,513,513,513,513,513,513,513,513,513,513,513,513,513,513,508,502,498,494,492,488,483,477,472,465,437,421,405,391,374,371,368,367,363,361,360,360,360,361,363,363,363,363,363,363,356,340,318,278,192,138,68,40,23,1,1,1,1,1,1,1,1,1,1,1,2,27],"timestamp_mouse":[8,38,48,68,88,109,128,149,168,187,209,229,248,268,288,307,328,348,368,389,408,428,448,469,488,507,528,549,569,589,609,629,649,669,687,708,729,748,767,788,809,829,848,867,888,908,927,948,968,988,1008,1030,1048,1068,1088,1108,1129,1149,1169,1188,1209,1230,1247,1268,1288,1308,1329,1348,1368,1388,1408,1428,1448,1469,1489,1509,1529,1548,1569],"xSR":741.5,"ySR":469.95,"xT1":424.9,"yT1":0,"xT2":1058.1,"yT2":0,"toosoon":0,"cond_shown":"equaldotsize","ratio_trial":900,"smaller_num":"18","larger_num":"20","correct_side":1,"subjID":"mariajosecedeñopinzon34","gender":"1","age":"11","school":"6"},{"start_time":1551794862775,"click_time":1551794863941,"finger_time":1551794863422,"fix_duration":1433.4785208433136,"trial":21,"RT":647,"MT":519,"sideResp":2,"stimulus":"img/250/equaldotsize/R/9_Ratio_250_L_3_R_12.png","xmouse":[794,794,794,794,794,794,794,794,794,794,794,794,794,794,794,794,794,794,794,794,794,794,794,794,794,794,794,794,794,795,800,815,851,872,893,914,934,948,974,995,1006,1017,1026,1034,1035,1036,1037,1037,1040,1046,1048,1048,1048,1045,1045,1045,1045,1048,1063],"ymouse":[520,520,520,520,520,520,520,520,520,520,520,520,520,520,520,520,520,520,520,520,520,520,520,520,520,520,520,520,520,520,517,505,478,455,427,390,344,307,255,224,209,196,185,172,170,168,168,167,164,160,157,153,146,128,118,107,93,82,60],"timestamp_mouse":[10,32,46,67,86,106,127,146,165,187,206,227,246,266,287,306,326,347,367,387,407,427,447,466,486,507,526,546,567,587,606,626,647,666,686,706,726,746,766,786,807,826,846,866,887,905,926,946,966,986,1006,1027,1047,1065,1086,1106,1126,1146,1166],"xSR":741.5,"ySR":469.95,"xT1":424.9,"yT1":0,"xT2":1058.1,"yT2":0,"toosoon":0,"cond_shown":"equaldotsize","ratio_trial":250,"smaller_num":"3","larger_num":"12","correct_side":2,"subjID":"mariajosecedeñopinzon34","gender":"1","age":"11","school":"6"},{"start_time":1551794866483,"click_time":1551794867422,"finger_time":1551794867181,"fix_duration":1361.368091893351,"trial":22,"RT":698,"MT":241,"sideResp":1,"stimulus":"img/500/equaldotanddens/L/5_Ratio_500_L_4_R_2.png","xmouse":[783,783,783,783,783,783,783,783,783,783,783,783,783,783,783,783,783,783,783,783,783,783,783,783,783,783,783,783,783,783,783,783,767,747,713,665,570,534,504,488,476,469,465,465,465,465,465],"ymouse":[528,528,528,528,528,528,528,528,528,528,528,528,528,528,528,528,528,528,528,528,528,528,528,528,528,528,528,528,528,528,527,525,507,490,461,419,316,266,215,186,162,147,130,123,115,104,92],"timestamp_mouse":[18,39,59,78,98,118,138,159,179,197,219,238,258,278,298,318,337,358,378,399,418,438,457,478,499,518,538,558,578,598,617,638,658,678,698,718,740,759,779,798,818,838,858,877,898,918,939],"xSR":741.5,"ySR":469.95,"xT1":424.9,"yT1":0,"xT2":1058.1,"yT2":0,"toosoon":0,"cond_shown":"equaldotanddens","ratio_trial":500,"smaller_num":"2","larger_num":"4","correct_side":1,"subjID":"mariajosecedeñopinzon34","gender":"1","age":"11","school":"6"},{"start_time":1551794869899,"click_time":1551794871562,"finger_time":1551794870781,"fix_duration":1257.227681383437,"trial":23,"RT":882,"MT":781,"sideResp":2,"stimulus":"img/750/randomdotsizeEA/R/7_Ratio_750_L_3_R_4.png","xmouse":[782,782,782,782,782,782,782,784,784,784,785,785,785,785,785,785,785,785,785,785,785,785,785,785,785,785,785,785,785,785,785,785,785,785,785,786,787,791,795,800,805,811,827,838,844,846,848,848,848,848,848,848,848,848,848,848,848,848,848,848,851,851,875,899,919,938,960,1005,1021,1034,1042,1048,1052,1052,1052,1052,1054,1056,1057,1058,1060,1062,1072,1085],"ymouse":[523,523,524,526,527,528,532,536,536,536,537,537,537,537,537,537,537,537,537,537,537,537,537,537,537,537,537,537,537,537,537,537,537,537,537,535,535,529,526,520,514,507,489,477,471,468,467,466,466,466,466,466,466,466,466,466,466,466,466,466,464,464,447,421,393,362,334,264,235,211,190,173,152,148,147,145,143,133,128,123,118,114,102,89],"timestamp_mouse":[10,24,42,63,82,102,123,142,163,182,202,222,241,261,282,302,321,341,361,382,402,422,442,463,483,502,522,542,562,583,602,622,643,662,683,702,722,742,763,782,802,822,843,862,882,902,923,942,962,983,1003,1022,1043,1062,1081,1101,1121,1142,1163,1182,1203,1223,1242,1262,1282,1303,1323,1342,1363,1382,1403,1422,1442,1462,1482,1502,1523,1543,1562,1582,1601,1623,1642,1663],"xSR":741.5,"ySR":469.95,"xT1":424.9,"yT1":0,"xT2":1058.1,"yT2":0,"toosoon":0,"cond_shown":"randomdotsizeEA","ratio_trial":750,"smaller_num":"3","larger_num":"4","correct_side":2,"subjID":"mariajosecedeñopinzon34","gender":"1","age":"11","school":"6"},{"start_time":1551794875659,"click_time":1551794876841,"finger_time":1551794876441,"fix_duration":456.39440516434524,"trial":24,"RT":782,"MT":400,"sideResp":1,"stimulus":"img/750/equaldotsize/L/8_Ratio_750_L_4_R_3.png","xmouse":[786,786,786,786,786,786,786,786,786,786,786,786,786,786,786,786,786,786,786,786,786,786,786,786,786,786,786,786,786,786,786,786,785,785,783,781,779,778,774,767,761,751,737,682,635,564,521,496,484,480,480,480,480,479,478,478,478,478,479,479],"ymouse":[502,502,502,502,502,502,502,502,502,502,502,502,502,502,502,502,502,502,502,502,502,502,502,502,502,502,502,502,502,502,502,502,503,503,498,490,485,480,474,460,450,435,415,349,297,222,185,167,157,143,138,131,125,119,112,110,109,106,105,98],"timestamp_mouse":[9,33,43,62,82,103,123,142,162,182,202,222,242,263,283,302,322,341,362,382,402,422,443,463,483,502,523,542,562,582,602,623,643,663,682,702,722,742,763,782,802,822,842,863,881,902,921,942,962,981,1002,1022,1041,1062,1081,1101,1122,1142,1162,1182],"xSR":741.5,"ySR":469.95,"xT1":424.9,"yT1":0,"xT2":1058.1,"yT2":0,"toosoon":0,"cond_shown":"equaldotsize","ratio_trial":750,"smaller_num":"3","larger_num":"4","correct_side":1,"subjID":"mariajosecedeñopinzon34","gender":"1","age":"11","school":"6"},{"start_time":1551794878461,"click_time":1551794879681,"finger_time":1551794879041,"fix_duration":478.18297594724146,"trial":25,"RT":580,"MT":640,"sideResp":2,"stimulus":"img/250/equaldotanddens/R/4_Ratio_250_L_3_R_12.png","xmouse":[795,795,795,795,795,795,795,795,795,795,795,795,795,795,795,795,795,795,795,795,795,795,795,795,795,795,795,796,800,832,858,884,907,928,953,962,965,969,975,976,978,981,986,992,1001,1009,1037,1112,1164,1185,1186,1186,1186,1186,1186,1186,1185,1179,1169,1165,1160,1158],"ymouse":[506,506,506,506,506,506,506,506,506,506,506,506,506,506,506,506,506,506,506,506,506,506,506,506,506,506,506,505,499,456,420,384,347,312,264,240,230,222,214,212,206,200,190,177,160,152,134,105,89,83,82,82,82,82,82,82,82,86,91,92,92,92],"timestamp_mouse":[1,31,40,61,80,100,120,140,161,180,200,220,240,260,280,299,319,340,360,380,399,421,441,460,480,500,520,540,559,580,600,620,640,660,680,700,720,740,761,780,800,819,839,861,880,900,920,941,960,979,1001,1021,1040,1060,1081,1101,1120,1139,1161,1180,1200,1220],"xSR":741.5,"ySR":469.95,"xT1":424.9,"yT1":0,"xT2":1058.1,"yT2":0,"toosoon":0,"cond_shown":"equaldotanddens","ratio_trial":250,"smaller_num":"3","larger_num":"12","correct_side":2,"subjID":"mariajosecedeñopinzon34","gender":"1","age":"11","school":"6"},{"start_time":1551794882365,"click_time":1551794883502,"finger_time":1551794883041,"fix_duration":723.6384283539782,"trial":26,"RT":676,"MT":461,"sideResp":1,"stimulus":"img/750/randomdotsizeEA/R/7_Ratio_750_L_3_R_4.png","xmouse":[801,801,801,801,801,801,801,801,801,801,801,800,800,800,800,800,800,800,800,800,800,800,800,800,800,800,800,800,800,800,800,800,797,795,791,786,778,765,722,698,686,676,666,653,650,649,646,638,634,627,624,621,615,576,537,494,438],"ymouse":[484,484,484,484,484,484,484,485,485,485,485,486,486,486,486,486,486,486,486,486,486,486,486,486,486,486,486,486,486,486,485,483,472,465,456,445,430,411,353,318,297,280,262,238,230,226,222,207,201,192,188,184,179,157,135,110,78],"timestamp_mouse":[16,40,56,77,96,116,137,157,176,196,216,237,257,276,296,317,336,356,377,397,416,436,456,476,497,517,536,556,575,596,616,637,657,676,697,715,735,756,776,796,816,836,856,876,896,916,936,958,975,996,1016,1036,1056,1076,1097,1116,1136],"xSR":741.5,"ySR":469.95,"xT1":424.9,"yT1":0,"xT2":1058.1,"yT2":0,"toosoon":0,"cond_shown":"randomdotsizeEA","ratio_trial":750,"smaller_num":"3","larger_num":"4","correct_side":2,"subjID":"mariajosecedeñopinzon34","gender":"1","age":"11","school":"6"},{"start_time":1551794887013,"click_time":1551794888541,"finger_time":1551794887702,"fix_duration":1431.0530783758438,"trial":27,"RT":689,"MT":839,"sideResp":1,"stimulus":"img/500/equaldotanddens/L/4_Ratio_500_L_18_R_9.png","xmouse":[777,777,777,777,777,777,777,777,777,777,777,777,777,777,777,777,777,777,777,777,777,777,777,777,777,777,777,777,777,777,777,777,771,763,739,712,657,632,622,617,611,595,583,568,555,547,546,546,546,546,541,510,497,489,484,480,479,475,472,468,466,466,466,466,458,436,403,403,404,406,408,412,413,415,416,422,430],"ymouse":[534,534,534,534,534,534,534,534,534,534,534,534,534,534,534,534,534,534,534,534,534,534,534,534,534,534,534,534,534,534,534,534,527,519,502,479,433,402,385,367,346,306,287,272,263,256,249,241,237,235,231,223,216,211,206,197,193,188,184,181,177,166,160,149,131,104,66,58,55,55,55,55,55,55,55,55,57],"timestamp_mouse":[9,40,49,69,88,108,129,148,169,189,209,229,249,268,288,308,328,348,369,388,408,429,448,468,488,508,529,549,568,588,608,629,647,668,689,708,728,749,768,793,808,828,848,869,888,909,929,949,969,989,1008,1029,1048,1068,1088,1109,1128,1148,1168,1188,1208,1227,1247,1268,1289,1308,1328,1348,1369,1388,1408,1428,1447,1468,1489,1509,1528],"xSR":741.5,"ySR":469.95,"xT1":424.9,"yT1":0,"xT2":1058.1,"yT2":0,"toosoon":0,"cond_shown":"equaldotanddens","ratio_trial":500,"smaller_num":"9","larger_num":"18","correct_side":1,"subjID":"mariajosecedeñopinzon34","gender":"1","age":"11","school":"6"},{"start_time":1551794890983,"click_time":1551794893441,"finger_time":1551794892961,"fix_duration":1440.9741421735985,"trial":28,"RT":1978,"MT":480,"sideResp":1,"stimulus":"img/900/randomdotsizeEA/L/2_Ratio_900_L_20_R_18.png","xmouse":[797,797,797,797,797,797,797,797,797,797,797,795,795,795,795,795,795,795,795,795,795,795,795,795,795,795,795,795,795,795,795,795,795,795,795,795,795,795,795,798,800,803,812,816,819,821,824,826,827,827,828,828,828,828,828,828,828,828,828,828,828,828,828,828,828,828,828,828,828,828,828,828,828,828,828,828,828,828,828,828,828,828,826,823,822,821,821,821,821,821,821,821,819,813,807,801,795,772,755,745,732,721,696,684,678,673,663,613,579,552,530,512,478,463,454,448,440,429,428,428,435,445,458],"ymouse":[545,545,545,545,545,545,545,545,545,544,542,538,535,534,533,533,533,533,533,533,533,533,533,533,533,533,533,533,533,533,533,533,533,533,533,533,533,533,533,528,526,519,507,502,499,497,494,493,491,491,490,490,490,490,490,490,490,490,490,490,490,490,490,490,490,490,490,490,490,490,490,490,490,490,490,490,490,490,490,490,490,490,489,489,488,488,488,488,488,488,488,488,488,488,488,487,484,474,461,448,434,416,382,369,361,354,343,305,293,285,276,265,239,226,207,185,159,120,109,108,105,103,97],"timestamp_mouse":[18,39,58,78,98,119,138,158,178,198,219,238,258,278,299,318,339,358,378,398,418,438,457,478,498,519,539,559,578,598,617,639,659,677,699,719,739,759,779,799,818,838,858,878,898,919,939,958,978,998,1019,1037,1058,1078,1098,1119,1139,1158,1178,1199,1218,1238,1258,1279,1299,1318,1338,1359,1379,1399,1418,1438,1458,1478,1498,1518,1539,1558,1578,1599,1619,1637,1658,1678,1698,1718,1738,1759,1778,1798,1818,1838,1858,1879,1898,1919,1939,1958,1978,1999,2018,2039,2059,2079,2098,2119,2137,2158,2178,2198,2218,2238,2258,2278,2298,2318,2339,2358,2378,2398,2418,2438,2458],"xSR":741.5,"ySR":469.95,"xT1":424.9,"yT1":0,"xT2":1058.1,"yT2":0,"toosoon":0,"cond_shown":"randomdotsizeEA","ratio_trial":900,"smaller_num":"18","larger_num":"20","correct_side":1,"subjID":"mariajosecedeñopinzon34","gender":"1","age":"11","school":"6"},{"start_time":1551794896428,"click_time":1551794898084,"finger_time":1551794897361,"fix_duration":1485.4915712367042,"trial":29,"RT":933,"MT":723,"sideResp":1,"stimulus":"img/500/equaldotsize/L/11_Ratio_500_L_12_R_6.png","xmouse":[784,784,784,784,784,784,784,784,784,784,784,784,784,784,784,784,784,784,784,784,784,784,784,784,784,784,784,784,784,784,784,784,784,784,784,784,784,784,784,784,784,784,784,776,758,742,732,721,713,707,696,689,682,674,656,642,634,625,617,610,598,592,588,585,584,582,582,575,556,539,539,539,539,539,539,539,539,539,539,539,539,495,498],"ymouse":[536,536,536,536,536,536,536,536,536,536,536,536,536,536,536,536,536,536,536,536,536,536,536,536,536,536,536,536,536,536,536,536,536,536,536,536,536,536,536,536,536,536,536,527,505,486,478,470,463,457,448,441,433,422,395,376,361,344,330,316,288,273,260,247,236,222,195,110,57,21,21,21,21,21,21,21,21,21,21,21,21,0,6],"timestamp_mouse":[13,42,53,74,94,113,133,154,173,193,214,234,252,274,294,313,334,354,373,394,414,432,453,472,492,512,532,552,572,592,612,632,654,674,693,713,733,752,773,793,814,833,854,873,894,914,933,952,973,993,1013,1033,1053,1073,1094,1113,1134,1153,1174,1192,1214,1233,1253,1273,1293,1313,1333,1353,1373,1394,1414,1434,1453,1476,1495,1516,1536,1555,1574,1595,1615,1634,1655],"xSR":741.5,"ySR":469.95,"xT1":424.9,"yT1":0,"xT2":1058.1,"yT2":0,"toosoon":0,"cond_shown":"equaldotsize","ratio_trial":500,"smaller_num":"6","larger_num":"12","correct_side":1,"subjID":"mariajosecedeñopinzon34","gender":"1","age":"11","school":"6"},{"start_time":1551794900349,"click_time":1551794902043,"finger_time":1551794901324,"fix_duration":805.7642890618765,"trial":30,"RT":975,"MT":719,"sideResp":2,"stimulus":"img/900/equaldotsize/R/6_Ratio_900_L_9_R_10.png","xmouse":[795,794,794,794,794,794,794,794,794,794,794,794,794,794,794,794,794,794,794,794,794,794,794,794,794,794,794,794,794,794,794,794,794,794,794,794,794,794,794,794,794,794,794,794,800,808,820,834,849,879,909,933,960,986,1021,1038,1054,1070,1082,1097,1101,1101,1101,1099,1094,1092,1090,1087,1087,1085,1085,1085,1085,1085,1085,1086,1087,1088,1092,1092,1092,1092,1092,1092,1091],"ymouse":[524,524,524,524,524,524,524,524,524,524,524,524,524,524,524,524,524,524,524,524,524,524,524,524,524,524,524,524,524,524,524,524,524,524,524,524,524,524,524,524,524,524,524,524,521,514,503,492,474,434,395,359,318,285,240,228,220,213,207,195,191,189,187,186,179,175,170,163,157,149,145,142,139,137,132,130,129,128,123,116,112,108,105,102,99],"timestamp_mouse":[15,34,59,75,93,114,135,154,174,195,214,233,254,275,293,314,334,353,375,393,413,434,455,475,495,513,533,554,574,594,614,634,655,675,694,714,733,754,775,794,814,835,854,874,893,914,934,955,975,994,1013,1033,1053,1074,1093,1114,1135,1154,1174,1194,1214,1235,1253,1273,1293,1313,1334,1354,1373,1393,1414,1434,1454,1475,1494,1514,1534,1553,1575,1594,1614,1635,1655,1674,1694],"xSR":741.5,"ySR":469.95,"xT1":424.9,"yT1":0,"xT2":1058.1,"yT2":0,"toosoon":0,"cond_shown":"equaldotsize","ratio_trial":900,"smaller_num":"9","larger_num":"10","correct_side":2,"subjID":"mariajosecedeñopinzon34","gender":"1","age":"11","school":"6"},{"start_time":1551794904508,"click_time":1551794905383,"finger_time":1551794905224,"fix_duration":364.5043891498391,"trial":31,"RT":716,"MT":159,"sideResp":2,"stimulus":"img/750/equaldotanddens/R/15_Ratio_750_L_9_R_12.png","xmouse":[774,774,774,774,774,775,775,775,775,775,775,775,775,775,775,775,775,775,775,775,775,775,775,775,775,775,775,775,775,775,775,778,782,788,802,854,909,958,1002,1039,1070,1122,1140,1148],"ymouse":[507,507,506,506,506,505,505,505,505,505,505,505,505,505,505,505,505,505,505,505,505,505,505,505,505,505,505,505,505,505,505,501,496,489,476,432,379,336,293,250,213,134,105,92],"timestamp_mouse":[15,34,55,75,94,115,134,155,175,195,216,234,256,275,296,316,335,356,375,396,414,435,455,475,494,515,534,555,576,595,616,634,656,675,695,716,734,754,776,796,815,835,855,875],"xSR":741.5,"ySR":469.95,"xT1":424.9,"yT1":0,"xT2":1058.1,"yT2":0,"toosoon":0,"cond_shown":"equaldotanddens","ratio_trial":750,"smaller_num":"9","larger_num":"12","correct_side":2,"subjID":"mariajosecedeñopinzon34","gender":"1","age":"11","school":"6"},{"start_time":1551794912248,"click_time":1551794913082,"finger_time":1551794912823,"fix_duration":563.552134928823,"trial":32,"RT":575,"MT":259,"sideResp":2,"stimulus":"img/250/randomdotsizeEA/R/9_Ratio_250_L_3_R_12.png","xmouse":[809,809,812,821,838,839,839,839,839,839,838,838,837,837,836,836,836,836,836,836,836,836,836,836,836,836,836,838,843,864,880,902,927,956,1017,1057,1082,1098,1113,1114,1114,1116],"ymouse":[528,528,528,527,527,527,527,527,527,528,529,529,529,529,529,529,530,530,530,530,530,530,530,530,530,530,528,526,519,498,484,466,447,423,368,317,279,247,186,155,122,86],"timestamp_mouse":[30,35,56,74,94,114,135,155,175,196,215,234,255,276,296,315,335,356,374,396,414,434,456,474,495,516,535,555,575,595,615,635,655,676,695,714,735,755,776,794,815,834],"xSR":741.5,"ySR":469.95,"xT1":424.9,"yT1":0,"xT2":1058.1,"yT2":0,"toosoon":0,"cond_shown":"randomdotsizeEA","ratio_trial":250,"smaller_num":"3","larger_num":"12","correct_side":2,"subjID":"mariajosecedeñopinzon34","gender":"1","age":"11","school":"6"},{"start_time":1551794915737,"click_time":1551794917003,"finger_time":1551794916443,"fix_duration":1432.2590660060807,"trial":33,"RT":706,"MT":560,"sideResp":1,"stimulus":"img/250/equaldotsize/L/5_Ratio_250_L_24_R_6.png","xmouse":[780,780,780,780,780,780,780,780,780,780,780,780,780,780,780,780,780,780,780,780,780,780,780,780,780,780,780,780,780,780,780,778,773,762,749,711,697,691,684,680,677,677,677,673,672,671,669,664,652,616,579,558,536,518,505,488,484,482,479,476,473,473,473,473],"ymouse":[514,515,516,517,518,519,520,520,520,520,520,520,520,520,520,520,520,520,520,520,520,520,520,520,520,520,520,520,520,520,520,519,511,495,477,422,385,333,292,265,237,232,227,220,214,207,205,204,200,186,171,162,154,146,140,130,126,124,121,117,110,107,103,98],"timestamp_mouse":[11,35,45,66,87,106,127,146,166,187,207,226,247,266,286,307,326,346,366,387,405,426,446,466,486,506,527,545,565,587,607,627,647,666,685,706,726,745,767,785,806,825,846,867,886,905,926,947,965,987,1005,1026,1046,1066,1085,1106,1127,1147,1166,1187,1206,1225,1247,1265],"xSR":741.5,"ySR":469.95,"xT1":424.9,"yT1":0,"xT2":1058.1,"yT2":0,"toosoon":0,"cond_shown":"equaldotsize","ratio_trial":250,"smaller_num":"6","larger_num":"24","correct_side":1,"subjID":"mariajosecedeñopinzon34","gender":"1","age":"11","school":"6"},{"start_time":1551794919758,"click_time":1551794921283,"finger_time":1551794920483,"fix_duration":1432.8811845073722,"trial":34,"RT":725,"MT":800,"sideResp":1,"stimulus":"img/250/equaldotsize/L/7_Ratio_250_L_8_R_2.png","xmouse":[793,793,793,793,793,793,793,793,793,793,793,793,793,793,793,793,793,793,793,793,793,793,793,793,793,793,793,793,793,793,793,793,791,787,771,755,735,714,683,603,577,555,538,528,517,515,514,513,513,513,513,512,511,508,502,498,495,494,494,494,494,493,490,488,487,486,486,485,485,485,485,485,485,485,484,483,481],"ymouse":[536,536,536,536,536,536,536,536,536,536,536,536,536,536,536,536,536,536,536,536,536,536,536,536,536,536,536,536,536,536,536,535,534,532,523,514,500,485,463,393,373,353,337,325,306,300,294,289,285,276,270,263,257,250,238,233,229,228,222,185,162,147,136,125,113,110,108,107,107,107,107,107,107,106,104,101,96],"timestamp_mouse":[10,33,46,66,86,104,125,146,166,185,205,224,246,266,285,305,326,345,364,385,405,425,444,465,484,504,524,546,565,585,604,625,645,666,684,705,725,746,766,785,804,825,845,865,885,905,924,945,965,985,1006,1024,1044,1065,1084,1105,1126,1146,1165,1185,1204,1224,1244,1265,1285,1304,1325,1346,1365,1385,1405,1425,1445,1466,1486,1506,1525],"xSR":741.5,"ySR":469.95,"xT1":424.9,"yT1":0,"xT2":1058.1,"yT2":0,"toosoon":0,"cond_shown":"equaldotsize","ratio_trial":250,"smaller_num":"2","larger_num":"8","correct_side":1,"subjID":"mariajosecedeñopinzon34","gender":"1","age":"11","school":"6"},{"start_time":1551794924174,"click_time":1551794925183,"finger_time":1551794924824,"fix_duration":250,"trial":35,"RT":650,"MT":359,"sideResp":1,"stimulus":"img/250/randomdotsizeEA/L/2_Ratio_250_L_16_R_4.png","xmouse":[776,771,771,766,766,766,766,766,766,766,766,766,766,766,766,766,766,766,766,766,766,766,766,766,766,766,766,764,760,757,754,753,749,744,737,726,712,693,648,636,625,620,618,619,620,620,615,603,557,538,523],"ymouse":[547,542,542,538,538,538,538,538,538,538,538,538,538,538,538,538,538,538,538,538,538,538,538,538,537,535,530,525,510,501,496,491,466,450,429,406,379,340,226,207,192,177,157,150,143,136,122,107,87,85,84],"timestamp_mouse":[8,38,50,70,89,108,130,148,169,189,208,230,249,270,289,309,330,349,369,389,410,429,449,469,489,509,529,548,570,589,608,628,650,669,690,708,729,748,768,789,810,829,850,868,888,910,929,949,969,990,1009],"xSR":741.5,"ySR":469.95,"xT1":424.9,"yT1":0,"xT2":1058.1,"yT2":0,"toosoon":0,"cond_shown":"randomdotsizeEA","ratio_trial":250,"smaller_num":"4","larger_num":"16","correct_side":1,"subjID":"mariajosecedeñopinzon34","gender":"1","age":"11","school":"6"},{"start_time":1551794929474,"click_time":1551794930724,"finger_time":1551794930123,"fix_duration":250,"trial":36,"RT":649,"MT":601,"sideResp":2,"stimulus":"img/750/equaldotanddens/R/5_Ratio_750_L_15_R_20.png","xmouse":[797,797,797,797,797,797,797,797,797,797,797,797,797,797,797,797,797,797,797,797,797,797,797,797,797,797,797,797,797,801,803,819,842,916,988,1010,1017,1018,1018,1018,1022,1030,1052,1062,1076,1082,1085,1090,1094,1099,1104,1107,1110,1115,1117,1118,1118,1119,1120,1121,1122,1122,1122],"ymouse":[520,521,521,521,521,521,521,521,521,521,521,521,521,521,521,521,521,521,521,521,521,521,521,521,521,521,521,521,521,517,514,504,494,463,440,431,428,427,421,413,399,379,328,301,260,235,212,176,162,149,137,129,125,120,118,116,115,113,109,107,104,101,97],"timestamp_mouse":[11,35,49,70,88,110,129,149,169,189,208,229,249,270,289,309,328,348,369,390,410,429,449,468,489,508,530,549,569,590,608,630,649,668,688,710,729,748,768,790,809,829,850,868,890,910,928,950,969,989,1008,1029,1049,1070,1089,1109,1129,1149,1169,1189,1208,1230,1250],"xSR":741.5,"ySR":469.95,"xT1":424.9,"yT1":0,"xT2":1058.1,"yT2":0,"toosoon":0,"cond_shown":"equaldotanddens","ratio_trial":750,"smaller_num":"15","larger_num":"20","correct_side":2,"subjID":"mariajosecedeñopinzon34","gender":"1","age":"11","school":"6"},{"start_time":1551794933473,"click_time":1551794934363,"finger_time":1551794934083,"fix_duration":809.1786033204107,"trial":37,"RT":610,"MT":280,"sideResp":2,"stimulus":"img/250/randomdotsizeEA/R/13_Ratio_250_L_2_R_8.png","xmouse":[790,790,790,790,790,790,790,790,790,790,790,790,790,790,789,788,788,787,786,786,786,786,786,786,786,786,787,789,790,793,798,806,820,873,935,972,1007,1038,1078,1091,1101,1110,1117,1123,1140],"ymouse":[513,513,513,513,513,513,513,513,513,513,513,513,512,512,509,507,504,503,499,498,496,495,494,489,486,484,482,477,475,471,463,453,438,398,358,337,314,291,245,219,194,173,155,130,98],"timestamp_mouse":[10,31,49,70,91,110,130,151,169,191,211,229,250,271,291,310,330,350,369,389,411,429,450,471,491,510,529,551,570,590,610,630,649,669,690,711,730,750,769,790,810,831,849,869,890],"xSR":741.5,"ySR":469.95,"xT1":424.9,"yT1":0,"xT2":1058.1,"yT2":0,"toosoon":0,"cond_shown":"randomdotsizeEA","ratio_trial":250,"smaller_num":"2","larger_num":"8","correct_side":2,"subjID":"mariajosecedeñopinzon34","gender":"1","age":"11","school":"6"},{"start_time":1551794937622,"click_time":1551794938762,"finger_time":1551794938363,"fix_duration":1498.838332493855,"trial":38,"RT":741,"MT":399,"sideResp":1,"stimulus":"img/750/equaldotsize/L/9_Ratio_750_L_4_R_3.png","xmouse":[788,788,788,788,789,789,789,789,789,789,789,789,789,789,789,789,789,789,789,789,789,789,789,789,789,789,789,789,789,789,789,789,789,789,788,774,755,737,713,692,651,644,638,629,620,602,587,576,566,555,532,528,527,527,527,527,516,502],"ymouse":[551,551,551,551,551,551,550,550,549,549,549,549,549,549,549,549,549,549,549,549,549,549,549,549,549,549,549,549,549,549,549,549,549,548,545,522,494,463,420,383,286,245,219,200,185,164,148,137,126,117,108,108,108,108,108,108,102,90],"timestamp_mouse":[9,34,41,61,80,101,121,141,161,182,202,221,240,262,282,302,321,341,361,380,401,421,441,460,481,502,521,541,561,580,602,620,642,661,681,702,721,741,761,781,802,820,841,860,881,902,921,941,962,980,1002,1021,1042,1061,1081,1101,1120,1140],"xSR":741.5,"ySR":469.95,"xT1":424.9,"yT1":0,"xT2":1058.1,"yT2":0,"toosoon":0,"cond_shown":"equaldotsize","ratio_trial":750,"smaller_num":"3","larger_num":"4","correct_side":1,"subjID":"mariajosecedeñopinzon34","gender":"1","age":"11","school":"6"},{"start_time":1551794940194,"click_time":1551794941043,"finger_time":1551794940844,"fix_duration":250,"trial":39,"RT":650,"MT":199,"sideResp":2,"stimulus":"img/500/equaldotsize/R/14_Ratio_500_L_5_R_10.png","xmouse":[792,792,792,792,792,792,792,792,792,792,792,792,792,792,792,792,792,792,792,792,792,792,792,792,792,792,792,792,793,796,799,808,843,865,890,922,968,1056,1104,1120,1125,1122,1114],"ymouse":[549,549,549,549,549,549,549,549,549,549,549,549,549,549,549,549,549,549,549,549,549,549,549,549,549,549,549,549,549,546,542,533,507,487,460,422,368,264,202,171,149,110,95],"timestamp_mouse":[8,29,50,68,89,110,129,149,170,189,210,228,249,268,289,309,328,350,370,389,409,428,450,470,490,509,529,549,568,589,610,629,650,670,690,709,728,748,770,789,809,830,849],"xSR":741.5,"ySR":469.95,"xT1":424.9,"yT1":0,"xT2":1058.1,"yT2":0,"toosoon":0,"cond_shown":"equaldotsize","ratio_trial":500,"smaller_num":"5","larger_num":"10","correct_side":2,"subjID":"mariajosecedeñopinzon34","gender":"1","age":"11","school":"6"},{"start_time":1551794942749,"click_time":1551794944184,"finger_time":1551794943742,"fix_duration":465.89196369019004,"trial":40,"RT":993,"MT":442,"sideResp":2,"stimulus":"img/900/equaldotanddens/L/10_Ratio_900_L_20_R_18.png","xmouse":[781,781,781,781,781,781,781,781,781,781,781,781,781,781,781,781,781,781,781,781,781,781,781,781,781,781,782,782,783,786,788,791,793,795,796,797,797,799,800,808,814,816,817,817,817,819,822,827,835,859,892,941,1003,1069,1178,1210,1230,1238,1239,1232,1227,1222,1219,1211,1202,1189,1173,1164,1161,1160,1159,1156],"ymouse":[553,554,554,554,554,554,554,554,554,554,554,554,554,554,554,554,554,554,554,554,554,554,554,554,554,554,554,554,554,552,550,547,545,543,543,542,540,537,534,518,510,508,507,506,505,503,498,491,479,445,404,348,282,219,130,102,83,73,67,57,55,53,52,52,52,52,52,52,52,52,52,52],"timestamp_mouse":[16,34,59,75,94,114,134,154,175,194,214,235,253,275,294,315,333,354,375,394,414,434,453,475,493,513,535,554,574,593,615,634,654,675,694,714,734,755,774,794,814,834,854,875,895,913,935,955,974,993,1014,1035,1053,1074,1094,1115,1134,1153,1173,1193,1214,1234,1254,1275,1294,1314,1333,1355,1373,1393,1415,1435],"xSR":741.5,"ySR":469.95,"xT1":424.9,"yT1":0,"xT2":1058.1,"yT2":0,"toosoon":0,"cond_shown":"equaldotanddens","ratio_trial":900,"smaller_num":"18","larger_num":"20","correct_side":1,"subjID":"mariajosecedeñopinzon34","gender":"1","age":"11","school":"6"},{"start_time":1551794951136,"click_time":1551794952862,"finger_time":1551794952142,"fix_duration":430.41859631317556,"trial":41,"RT":1006,"MT":720,"sideResp":1,"stimulus":"img/900/randomdotsizeEA/L/10_Ratio_900_L_20_R_18.png","xmouse":[783,783,783,783,783,783,783,783,783,783,783,783,783,783,783,783,783,783,783,783,783,783,783,783,783,783,783,783,783,783,783,783,783,783,783,783,783,783,783,783,783,783,783,783,783,783,783,783,780,776,758,747,736,717,694,639,614,598,584,573,569,567,564,559,555,551,551,551,551,551,546,542,538,532,525,520,513,508,507,507,506,504,500,495,492,488,488],"ymouse":[489,489,489,489,489,489,489,489,489,489,489,489,489,489,489,489,489,489,489,489,489,489,489,489,489,489,489,489,489,489,489,489,489,489,489,489,489,489,489,489,489,489,489,489,489,489,489,486,483,475,444,422,398,363,321,237,203,183,167,157,153,150,146,141,135,130,130,130,130,128,123,121,119,116,115,114,110,108,107,107,107,106,105,104,103,100,99],"timestamp_mouse":[8,36,47,68,87,108,127,148,167,186,206,227,247,266,287,307,327,346,367,388,408,426,446,468,486,508,527,548,568,588,607,628,648,666,688,707,726,746,766,787,806,827,847,867,887,907,928,948,966,987,1006,1026,1047,1067,1087,1107,1127,1146,1167,1188,1207,1228,1246,1267,1287,1307,1327,1346,1368,1387,1407,1428,1447,1467,1488,1507,1527,1548,1567,1586,1606,1628,1647,1668,1687,1707,1726],"xSR":741.5,"ySR":469.95,"xT1":424.9,"yT1":0,"xT2":1058.1,"yT2":0,"toosoon":0,"cond_shown":"randomdotsizeEA","ratio_trial":900,"smaller_num":"18","larger_num":"20","correct_side":1,"subjID":"mariajosecedeñopinzon34","gender":"1","age":"11","school":"6"},{"start_time":1551794955497,"click_time":1551794956443,"finger_time":1551794956123,"fix_duration":792.55333933151,"trial":42,"RT":626,"MT":320,"sideResp":1,"stimulus":"img/500/equaldotanddens/L/5_Ratio_500_L_4_R_2.png","xmouse":[810,810,810,810,810,809,809,807,807,807,807,807,807,807,807,807,807,807,807,807,807,807,807,807,807,807,807,803,790,770,748,713,646,610,587,569,554,552,552,552,552,552,552,552,552,552,552,523],"ymouse":[498,498,498,498,499,501,504,509,511,514,514,514,514,514,514,514,514,514,514,514,514,514,514,514,514,514,514,513,506,494,477,450,356,264,208,162,108,98,95,95,95,95,95,95,95,95,94,93],"timestamp_mouse":[8,26,46,66,85,107,126,147,167,185,205,226,247,265,287,305,327,345,365,386,406,425,447,465,485,506,526,546,566,586,607,626,645,666,687,706,727,746,766,786,806,827,846,866,885,907,926,946],"xSR":741.5,"ySR":469.95,"xT1":424.9,"yT1":0,"xT2":1058.1,"yT2":0,"toosoon":0,"cond_shown":"equaldotanddens","ratio_trial":500,"smaller_num":"2","larger_num":"4","correct_side":1,"subjID":"mariajosecedeñopinzon34","gender":"1","age":"11","school":"6"},{"start_time":1551794960357,"click_time":1551794961765,"finger_time":1551794961284,"fix_duration":250,"trial":43,"RT":927,"MT":481,"sideResp":1,"stimulus":"img/750/equaldotsize/L/6_Ratio_750_L_24_R_18.png","xmouse":[755,755,755,755,755,756,758,760,767,768,768,768,768,768,768,768,768,768,768,768,768,768,768,768,768,768,768,768,768,768,768,768,768,768,768,768,768,768,768,768,768,769,770,770,772,772,771,763,755,728,706,688,668,617,597,589,588,588,588,589,588,583,578,572,560,551,546,542,541,529,522],"ymouse":[521,521,521,521,521,521,521,521,521,521,521,521,521,521,521,521,521,521,521,521,521,521,521,521,521,521,521,521,521,521,521,521,521,521,521,521,521,521,521,521,521,520,520,516,495,478,457,433,405,343,305,281,258,225,217,212,211,211,211,208,204,196,186,175,155,143,134,130,125,103,92],"timestamp_mouse":[9,34,48,67,88,108,127,148,168,187,207,228,247,267,288,307,327,348,368,388,408,427,447,467,487,507,527,548,567,587,607,631,648,668,688,708,727,749,767,788,807,827,848,867,888,907,927,948,968,987,1007,1027,1048,1069,1087,1107,1129,1147,1167,1187,1208,1227,1247,1267,1287,1308,1328,1347,1369,1387,1408],"xSR":741.5,"ySR":469.95,"xT1":424.9,"yT1":0,"xT2":1058.1,"yT2":0,"toosoon":0,"cond_shown":"equaldotsize","ratio_trial":750,"smaller_num":"18","larger_num":"24","correct_side":1,"subjID":"mariajosecedeñopinzon34","gender":"1","age":"11","school":"6"},{"start_time":1551794963535,"click_time":1551794964705,"finger_time":1551794964224,"fix_duration":287.77638090701254,"trial":44,"RT":689,"MT":481,"sideResp":2,"stimulus":"img/750/randomdotsizeEA/R/12_Ratio_750_L_3_R_4.png","xmouse":[788,788,788,788,788,788,788,788,788,788,788,788,788,788,788,788,788,788,788,788,788,788,788,788,788,788,788,788,788,788,788,790,801,820,850,933,974,1018,1053,1072,1082,1082,1080,1077,1074,1074,1073,1073,1073,1073,1088,1097,1106,1114,1120,1129,1133,1137,1138],"ymouse":[498,498,498,498,498,498,498,498,498,498,498,498,498,498,498,498,498,498,498,498,498,498,498,498,498,498,498,498,498,498,498,497,489,473,451,376,336,294,263,244,226,224,224,224,224,224,223,220,216,211,185,173,163,151,142,121,112,101,94],"timestamp_mouse":[10,39,49,69,90,110,129,149,169,189,209,229,249,271,289,310,330,349,370,390,410,430,450,469,489,509,529,550,569,589,610,630,650,670,689,709,730,749,769,789,809,829,850,869,890,910,929,949,969,989,1009,1029,1050,1069,1090,1109,1130,1149,1170],"xSR":741.5,"ySR":469.95,"xT1":424.9,"yT1":0,"xT2":1058.1,"yT2":0,"toosoon":0,"cond_shown":"randomdotsizeEA","ratio_trial":750,"smaller_num":"3","larger_num":"4","correct_side":2,"subjID":"mariajosecedeñopinzon34","gender":"1","age":"11","school":"6"},{"start_time":1551794966299,"click_time":1551794967404,"finger_time":1551794967085,"fix_duration":533.2058601463553,"trial":45,"RT":786,"MT":319,"sideResp":1,"stimulus":"img/500/randomdotsizeEA/R/3_Ratio_500_L_10_R_20.png","xmouse":[808,808,808,808,807,806,806,806,806,806,806,806,806,806,806,806,806,806,806,806,806,806,806,806,805,804,801,796,795,795,795,796,806,810,813,814,814,814,814,814,813,795,776,761,745,729,718,696,684,669,650,626,546,504,459,429],"ymouse":[530,530,530,530,530,530,530,530,530,530,530,530,530,530,530,530,530,530,530,530,530,530,530,530,530,529,526,518,513,508,505,500,487,481,479,477,476,474,471,468,463,438,414,392,371,343,316,268,248,228,214,199,151,126,102,82],"timestamp_mouse":[8,25,45,65,86,106,125,145,165,186,205,225,245,266,285,305,326,345,365,386,406,425,445,466,485,506,526,546,566,585,605,625,646,665,685,705,726,745,765,786,806,826,845,866,885,905,925,946,965,985,1005,1025,1046,1065,1085,1105],"xSR":741.5,"ySR":469.95,"xT1":424.9,"yT1":0,"xT2":1058.1,"yT2":0,"toosoon":0,"cond_shown":"randomdotsizeEA","ratio_trial":500,"smaller_num":"10","larger_num":"20","correct_side":2,"subjID":"mariajosecedeñopinzon34","gender":"1","age":"11","school":"6"},{"start_time":1551794969345,"click_time":1551794970526,"finger_time":1551794970124,"fix_duration":539.4895454364497,"trial":46,"RT":779,"MT":402,"sideResp":1,"stimulus":"img/250/equaldotsize/L/7_Ratio_250_L_8_R_2.png","xmouse":[769,769,769,769,769,769,769,769,769,769,769,769,769,769,769,769,769,769,769,769,769,769,769,769,769,769,769,769,769,769,769,769,769,769,769,769,767,760,751,718,696,685,678,673,670,667,658,646,626,591,580,576,571,567,549,534,517,499,468],"ymouse":[555,555,555,555,555,555,555,555,555,555,555,555,555,555,555,555,555,555,555,555,555,555,555,555,555,555,555,555,555,555,555,555,555,555,543,524,502,474,444,373,336,316,300,284,275,264,249,234,218,196,190,186,182,178,165,154,140,127,99],"timestamp_mouse":[35,40,59,79,100,119,139,159,179,199,219,239,260,280,300,320,339,359,379,399,420,439,460,479,499,519,539,560,579,599,619,640,660,679,700,720,740,759,779,799,819,840,860,880,899,920,939,959,979,999,1020,1039,1060,1079,1099,1120,1139,1160,1181],"xSR":741.5,"ySR":469.95,"xT1":424.9,"yT1":0,"xT2":1058.1,"yT2":0,"toosoon":0,"cond_shown":"equaldotsize","ratio_trial":250,"smaller_num":"2","larger_num":"8","correct_side":1,"subjID":"mariajosecedeñopinzon34","gender":"1","age":"11","school":"6"},{"start_time":1551794972958,"click_time":1551794975665,"finger_time":1551794974664,"fix_duration":911.7882749217296,"trial":47,"RT":1706,"MT":1001,"sideResp":2,"stimulus":"img/900/equaldotsize/R/13_Ratio_900_L_18_R_20.png","xmouse":[804,804,804,804,804,804,804,804,804,804,804,804,804,804,804,804,804,804,804,804,804,804,804,804,804,804,804,804,804,804,804,804,804,804,804,804,804,804,804,804,804,804,804,804,804,804,804,804,804,804,804,804,804,804,804,804,804,804,804,804,804,804,804,804,804,804,804,804,804,806,807,807,808,809,810,811,812,813,813,816,818,819,820,820,832,843,855,861,863,860,860,859,857,853,841,836,832,831,827,822,814,814,813,812,804,795,788,783,778,775,775,776,791,860,929,1016,1103,1183,1287,1305,1306,1306,1306,1304,1302,1301,1298,1291,1279,1241,1233,1227,1222,1194,1176,1157],"ymouse":[535,535,535,535,535,535,535,535,535,535,535,535,535,535,535,535,535,535,535,535,535,535,535,535,535,535,535,535,535,535,535,535,535,535,535,535,535,535,535,535,535,535,535,535,535,535,535,535,535,535,535,535,535,535,535,535,535,535,535,535,535,535,535,535,535,534,534,534,534,532,531,531,530,529,528,526,525,523,522,518,516,513,510,508,500,497,496,495,493,486,482,477,471,462,442,436,432,431,430,429,425,424,423,421,415,411,407,404,401,399,399,397,393,384,373,360,348,327,282,255,238,224,216,211,203,199,194,182,167,130,121,115,113,105,99,93],"timestamp_mouse":[8,32,47,67,86,106,126,146,166,187,206,227,246,266,287,306,327,346,366,387,407,427,447,467,486,506,527,546,566,587,606,627,646,667,686,707,727,746,766,786,807,826,846,867,887,906,926,947,967,986,1006,1026,1047,1067,1087,1107,1126,1147,1166,1186,1206,1226,1246,1266,1287,1306,1326,1347,1366,1386,1407,1426,1446,1467,1487,1507,1526,1547,1566,1586,1607,1626,1646,1666,1687,1706,1726,1747,1766,1786,1807,1827,1846,1866,1887,1906,1927,1947,1967,1986,2006,2027,2046,2066,2086,2106,2126,2147,2166,2186,2207,2227,2246,2267,2286,2307,2326,2347,2367,2386,2405,2427,2446,2466,2487,2507,2527,2546,2566,2586,2606,2626,2646,2668,2686,2706],"xSR":741.5,"ySR":469.95,"xT1":424.9,"yT1":0,"xT2":1058.1,"yT2":0,"toosoon":0,"cond_shown":"equaldotsize","ratio_trial":900,"smaller_num":"18","larger_num":"20","correct_side":2,"subjID":"mariajosecedeñopinzon34","gender":"1","age":"11","school":"6"},{"start_time":1551794978239,"click_time":1551794979384,"finger_time":1551794978964,"fix_duration":1131.897930966354,"trial":48,"RT":725,"MT":420,"sideResp":1,"stimulus":"img/750/equaldotanddens/L/1_Ratio_750_L_20_R_15.png","xmouse":[785,785,785,785,781,767,767,767,767,768,770,771,771,771,771,771,771,771,771,771,771,771,771,771,771,771,771,771,771,771,771,771,771,771,771,767,756,743,732,716,668,639,613,589,576,567,567,567,567,567,567,567,567,567,567,567,567,499],"ymouse":[511,511,511,511,512,515,515,515,515,515,514,514,514,514,514,514,514,514,514,514,514,514,514,514,514,514,514,514,514,514,514,514,514,511,507,482,448,417,385,350,270,229,193,159,135,31,31,31,31,31,31,31,31,31,31,31,31,7],"timestamp_mouse":[10,35,45,66,85,105,125,146,166,186,205,225,245,266,285,306,325,345,365,385,405,425,446,465,485,505,525,545,565,585,605,625,645,665,686,705,725,745,766,786,805,825,846,865,885,905,925,946,966,986,1006,1025,1045,1065,1085,1105,1126,1145],"xSR":741.5,"ySR":469.95,"xT1":424.9,"yT1":0,"xT2":1058.1,"yT2":0,"toosoon":0,"cond_shown":"equaldotanddens","ratio_trial":750,"smaller_num":"15","larger_num":"20","correct_side":1,"subjID":"mariajosecedeñopinzon34","gender":"1","age":"11","school":"6"},{"start_time":1551794981790,"click_time":1551794983325,"finger_time":1551794982824,"fix_duration":904.9940859608282,"trial":49,"RT":1034,"MT":501,"sideResp":2,"stimulus":"img/900/randomdotsizeEA/L/2_Ratio_900_L_20_R_18.png","xmouse":[805,808,813,814,815,815,815,815,815,815,815,815,815,815,815,815,815,815,815,815,815,815,815,815,815,815,815,815,815,815,815,815,815,815,815,815,815,815,815,815,815,815,815,815,815,815,815,816,821,826,834,844,855,859,861,861,861,861,863,864,867,872,884,890,898,905,914,937,962,984,1004,1020,1035,1043,1054,1069,1141],"ymouse":[550,550,549,549,549,549,549,549,549,549,549,549,549,549,549,549,549,549,549,549,549,549,549,549,549,549,549,549,549,549,549,549,549,549,549,549,549,549,549,549,549,549,549,549,549,549,549,547,541,535,523,509,487,478,474,471,470,465,458,451,442,432,409,400,389,380,368,338,316,300,288,274,253,243,228,203,78],"timestamp_mouse":[14,34,55,74,94,114,135,154,175,194,215,234,255,275,295,314,335,354,374,395,414,434,455,474,495,514,535,554,574,595,614,634,654,674,694,714,734,754,774,795,814,833,854,874,894,915,934,954,975,994,1015,1034,1055,1076,1094,1114,1134,1154,1174,1194,1215,1234,1255,1274,1294,1314,1334,1355,1374,1395,1414,1435,1455,1474,1494,1514,1535],"xSR":741.5,"ySR":469.95,"xT1":424.9,"yT1":0,"xT2":1058.1,"yT2":0,"toosoon":0,"cond_shown":"randomdotsizeEA","ratio_trial":900,"smaller_num":"18","larger_num":"20","correct_side":1,"subjID":"mariajosecedeñopinzon34","gender":"1","age":"11","school":"6"},{"start_time":1551794986112,"click_time":1551794987144,"finger_time":1551794986884,"fix_duration":1406.4176683436924,"trial":50,"RT":772,"MT":260,"sideResp":1,"stimulus":"img/900/equaldotsize/L/10_Ratio_900_L_20_R_18.png","xmouse":[775,775,775,775,775,775,775,775,776,776,776,776,776,776,776,776,776,776,776,776,776,776,776,776,776,776,776,776,776,776,776,777,777,777,777,777,777,774,767,760,742,733,722,710,688,655,604,582,570,557,547,521],"ymouse":[527,528,528,528,528,528,528,528,529,529,529,529,529,529,529,529,529,529,529,529,529,529,529,529,529,529,529,529,529,529,529,528,525,520,514,498,487,471,453,438,404,383,321,285,243,203,142,122,107,96,89,80],"timestamp_mouse":[16,34,52,73,91,113,133,152,172,193,212,232,252,273,292,313,333,352,372,393,412,432,452,472,493,512,532,552,573,593,613,632,653,672,692,713,733,753,772,792,813,831,853,873,892,912,932,952,972,992,1013,1032],"xSR":741.5,"ySR":469.95,"xT1":424.9,"yT1":0,"xT2":1058.1,"yT2":0,"toosoon":0,"cond_shown":"equaldotsize","ratio_trial":900,"smaller_num":"18","larger_num":"20","correct_side":1,"subjID":"mariajosecedeñopinzon34","gender":"1","age":"11","school":"6"},{"start_time":1551794989619,"click_time":1551794990925,"finger_time":1551794990444,"fix_duration":1293.8750469955244,"trial":51,"RT":825,"MT":481,"sideResp":1,"stimulus":"img/250/randomdotsizeEA/L/7_Ratio_250_L_8_R_2.png","xmouse":[802,802,802,802,802,802,802,802,802,802,802,802,802,802,802,802,802,802,802,802,802,802,802,802,802,802,802,802,802,802,802,802,802,802,802,802,800,793,783,769,753,723,711,700,686,666,592,531,508,496,494,496,501,506,508,508,509,511,511,511,511,511,511,511,511,509],"ymouse":[535,535,535,535,535,535,535,535,535,535,535,535,535,535,535,535,535,535,535,535,535,535,535,535,535,535,535,535,535,535,535,535,535,535,535,535,534,525,514,500,482,442,420,396,372,338,243,177,157,145,137,136,133,130,125,119,111,109,108,108,108,108,107,105,102,96],"timestamp_mouse":[10,37,45,66,85,105,125,145,165,186,206,225,245,265,285,305,325,346,365,385,406,426,446,465,485,505,525,545,565,585,605,626,647,666,685,705,725,745,765,785,805,825,845,865,885,905,925,946,965,985,1006,1025,1045,1065,1085,1105,1125,1145,1165,1185,1205,1225,1245,1265,1285,1306],"xSR":741.5,"ySR":469.95,"xT1":424.9,"yT1":0,"xT2":1058.1,"yT2":0,"toosoon":0,"cond_shown":"randomdotsizeEA","ratio_trial":250,"smaller_num":"2","larger_num":"8","correct_side":1,"subjID":"mariajosecedeñopinzon34","gender":"1","age":"11","school":"6"},{"start_time":1551794992055,"click_time":1551794992984,"finger_time":1551794992704,"fix_duration":250,"trial":52,"RT":649,"MT":280,"sideResp":1,"stimulus":"img/250/equaldotanddens/L/2_Ratio_250_L_16_R_4.png","xmouse":[800,800,800,800,800,800,800,800,800,800,800,800,800,800,800,800,800,800,800,800,800,800,800,800,800,800,800,800,800,791,779,760,739,713,629,598,564,534,497,487,482,481,481,481,490,490,490],"ymouse":[554,554,554,554,554,554,554,554,554,554,554,554,554,554,554,554,554,554,554,554,554,554,554,554,554,554,555,555,555,546,535,517,498,470,372,330,283,244,195,179,163,157,152,148,125,114,99],"timestamp_mouse":[9,40,49,69,89,109,130,149,169,189,209,229,250,270,290,309,330,349,369,389,410,429,450,469,490,510,529,549,569,590,609,630,649,669,689,709,730,749,770,789,809,829,849,869,889,910,929],"xSR":741.5,"ySR":469.95,"xT1":424.9,"yT1":0,"xT2":1058.1,"yT2":0,"toosoon":0,"cond_shown":"equaldotanddens","ratio_trial":250,"smaller_num":"4","larger_num":"16","correct_side":1,"subjID":"mariajosecedeñopinzon34","gender":"1","age":"11","school":"6"},{"start_time":1551794994256,"click_time":1551794995344,"finger_time":1551794994964,"fix_duration":250,"trial":53,"RT":708,"MT":380,"sideResp":1,"stimulus":"img/500/randomdotsizeEA/L/5_Ratio_500_L_4_R_2.png","xmouse":[777,777,777,777,777,777,777,777,777,778,778,778,778,778,780,780,780,780,780,780,780,780,780,780,780,780,780,780,780,780,780,780,779,775,754,736,717,697,680,644,632,618,607,588,580,578,578,578,578,578,575,571,564,555,524],"ymouse":[519,520,520,520,520,520,520,520,521,522,523,523,523,523,524,524,524,524,524,524,524,524,524,524,524,524,524,524,524,524,524,524,523,521,504,490,471,445,422,359,330,298,271,224,199,184,169,157,143,121,112,106,99,94,83],"timestamp_mouse":[9,33,48,68,89,108,128,149,168,188,208,228,248,268,288,309,328,348,368,389,408,428,448,469,488,509,528,549,568,588,608,629,648,668,688,708,729,749,769,789,809,828,848,869,888,907,929,949,968,989,1008,1028,1048,1070,1088],"xSR":741.5,"ySR":469.95,"xT1":424.9,"yT1":0,"xT2":1058.1,"yT2":0,"toosoon":0,"cond_shown":"randomdotsizeEA","ratio_trial":500,"smaller_num":"2","larger_num":"4","correct_side":1,"subjID":"mariajosecedeñopinzon34","gender":"1","age":"11","school":"6"},{"start_time":1551794996817,"click_time":1551794997664,"finger_time":1551794997424,"fix_duration":250,"trial":54,"RT":607,"MT":240,"sideResp":2,"stimulus":"img/750/randomdotsizeEA/R/3_Ratio_750_L_15_R_20.png","xmouse":[815,815,815,814,814,814,814,814,814,813,813,813,813,813,812,812,812,812,812,812,812,812,812,812,812,812,812,815,820,829,844,880,899,916,931,959,986,1009,1030,1050,1056,1066,1067],"ymouse":[515,515,515,515,516,517,517,517,517,517,517,517,517,517,518,518,518,518,518,518,518,518,518,518,518,518,518,515,513,509,502,483,470,457,441,397,343,294,225,175,149,110,92],"timestamp_mouse":[7,42,48,68,88,108,127,147,168,188,207,227,248,267,287,307,327,348,367,388,408,427,447,467,487,507,527,547,567,588,607,627,647,667,687,708,727,747,768,788,808,827,847],"xSR":741.5,"ySR":469.95,"xT1":424.9,"yT1":0,"xT2":1058.1,"yT2":0,"toosoon":0,"cond_shown":"randomdotsizeEA","ratio_trial":750,"smaller_num":"15","larger_num":"20","correct_side":2,"subjID":"mariajosecedeñopinzon34","gender":"1","age":"11","school":"6"},{"start_time":1551794999216,"click_time":1551795000184,"finger_time":1551794999804,"fix_duration":250,"trial":55,"RT":588,"MT":380,"sideResp":2,"stimulus":"img/500/equaldotanddens/R/1_Ratio_500_L_9_R_18.png","xmouse":[784,784,784,784,784,784,784,784,784,784,784,784,784,784,784,784,784,784,784,784,784,784,784,784,784,786,791,809,825,849,874,944,1000,1038,1054,1055,1035,1025,1023,1023,1023,1027,1029,1033,1035,1037,1043,1050,1059],"ymouse":[547,547,547,547,547,547,547,547,547,547,547,547,547,547,547,547,547,547,547,547,547,547,547,547,547,541,535,511,494,467,439,350,271,202,164,116,87,79,77,77,77,72,70,67,65,64,64,64,66],"timestamp_mouse":[22,36,48,68,88,108,128,148,168,189,208,228,249,268,289,308,328,349,368,389,408,428,448,468,488,509,528,548,568,588,608,629,648,668,689,710,728,748,768,788,808,829,848,868,887,909,928,948,968],"xSR":741.5,"ySR":469.95,"xT1":424.9,"yT1":0,"xT2":1058.1,"yT2":0,"toosoon":0,"cond_shown":"equaldotanddens","ratio_trial":500,"smaller_num":"9","larger_num":"18","correct_side":2,"subjID":"mariajosecedeñopinzon34","gender":"1","age":"11","school":"6"},{"start_time":1551795002078,"click_time":1551795003144,"finger_time":1551795002744,"fix_duration":692.1067188830323,"trial":56,"RT":666,"MT":400,"sideResp":1,"stimulus":"img/900/randomdotsizeEA/L/10_Ratio_900_L_20_R_18.png","xmouse":[775,775,776,776,776,776,776,776,776,776,776,776,776,776,776,776,776,776,776,776,776,777,777,779,779,779,779,778,778,775,770,764,755,727,698,675,645,622,582,566,546,525,499,470,463,464,468,477,479,479,479,479,475,458],"ymouse":[521,523,525,525,525,525,525,525,525,526,526,526,526,526,526,526,526,526,526,526,526,527,527,526,524,522,521,518,517,516,514,511,506,489,468,452,428,405,347,327,305,284,264,233,222,217,213,197,185,174,163,151,133,90],"timestamp_mouse":[10,34,47,66,86,106,126,146,166,187,207,226,246,266,287,306,326,346,366,386,406,426,446,466,486,507,526,547,567,586,607,626,646,666,687,706,727,746,766,786,806,826,846,866,886,907,927,948,966,986,1006,1026,1047,1066],"xSR":741.5,"ySR":469.95,"xT1":424.9,"yT1":0,"xT2":1058.1,"yT2":0,"toosoon":0,"cond_shown":"randomdotsizeEA","ratio_trial":900,"smaller_num":"18","larger_num":"20","correct_side":1,"subjID":"mariajosecedeñopinzon34","gender":"1","age":"11","school":"6"},{"start_time":1551795005465,"click_time":1551795006505,"finger_time":1551795006125,"fix_duration":1259.9554695555646,"trial":57,"RT":660,"MT":380,"sideResp":2,"stimulus":"img/500/equaldotsize/R/2_Ratio_500_L_3_R_6.png","xmouse":[788,788,788,788,788,788,788,788,788,788,788,788,788,788,788,788,788,788,788,788,788,788,788,788,788,788,788,788,788,793,804,821,873,924,961,989,1013,1033,1047,1049,1049,1049,1049,1049,1050,1053,1056,1065,1067,1071,1074,1077],"ymouse":[554,554,554,554,554,554,554,554,554,554,554,554,554,554,554,554,554,554,554,554,554,554,554,554,554,554,554,554,554,550,541,526,474,409,355,305,253,207,147,135,131,131,131,131,130,127,124,114,111,106,103,98],"timestamp_mouse":[24,40,59,79,99,120,139,159,179,199,221,239,259,279,299,320,339,359,379,399,419,439,460,480,499,519,539,560,579,599,619,640,660,679,700,719,740,760,780,798,819,839,859,880,899,920,940,960,979,1000,1019,1039],"xSR":741.5,"ySR":469.95,"xT1":424.9,"yT1":0,"xT2":1058.1,"yT2":0,"toosoon":0,"cond_shown":"equaldotsize","ratio_trial":500,"smaller_num":"3","larger_num":"6","correct_side":2,"subjID":"mariajosecedeñopinzon34","gender":"1","age":"11","school":"6"},{"start_time":1551795008681,"click_time":1551795009505,"finger_time":1551795009225,"fix_duration":953.0339266789971,"trial":58,"RT":544,"MT":280,"sideResp":1,"stimulus":"img/500/equaldotanddens/L/10_Ratio_500_L_4_R_2.png","xmouse":[780,780,780,782,782,782,782,782,782,782,782,782,782,782,782,782,782,782,782,782,782,782,782,782,782,782,776,739,704,667,643,616,589,558,548,544,543,543,540,533,524,514],"ymouse":[557,557,557,553,553,553,553,553,552,550,549,549,549,549,549,549,549,549,549,549,548,547,547,545,542,537,530,501,477,447,424,390,356,295,255,227,192,167,129,116,101,88],"timestamp_mouse":[9,33,43,64,83,103,123,143,163,184,204,223,243,263,283,303,323,343,363,383,403,423,444,464,483,503,524,544,563,583,603,623,643,663,683,704,724,743,763,784,803,824],"xSR":741.5,"ySR":469.95,"xT1":424.9,"yT1":0,"xT2":1058.1,"yT2":0,"toosoon":0,"cond_shown":"equaldotanddens","ratio_trial":500,"smaller_num":"2","larger_num":"4","correct_side":1,"subjID":"mariajosecedeñopinzon34","gender":"1","age":"11","school":"6"},{"start_time":1551795014591,"click_time":1551795016004,"finger_time":1551795015544,"fix_duration":1304.5131833449518,"trial":59,"RT":953,"MT":460,"sideResp":1,"stimulus":"img/900/equaldotanddens/R/7_Ratio_900_L_9_R_10.png","xmouse":[809,809,809,809,808,807,807,807,807,807,807,807,807,807,807,807,807,807,807,807,807,807,807,807,807,807,807,807,807,807,807,807,807,807,807,807,807,809,812,815,817,817,817,817,816,813,799,767,751,737,725,713,690,679,666,653,617,571,537,510,488,466,464,462,461,461,461,461,461,463,464],"ymouse":[502,502,502,503,503,504,504,504,504,504,504,504,504,504,504,504,504,504,504,504,504,505,505,505,505,505,505,505,505,505,505,505,505,505,505,505,505,504,500,496,495,494,494,494,491,489,484,469,456,446,434,421,394,379,359,338,280,216,176,148,129,113,110,108,107,106,105,103,102,100,99],"timestamp_mouse":[14,33,53,74,94,115,133,154,173,192,214,234,254,274,294,314,333,353,373,393,413,433,453,473,493,514,534,553,574,593,613,634,657,673,693,713,733,753,773,794,813,833,854,873,894,913,933,953,974,993,1014,1033,1053,1073,1094,1114,1134,1153,1173,1194,1213,1235,1253,1274,1294,1313,1333,1353,1373,1393,1413],"xSR":741.5,"ySR":469.95,"xT1":424.9,"yT1":0,"xT2":1058.1,"yT2":0,"toosoon":0,"cond_shown":"equaldotanddens","ratio_trial":900,"smaller_num":"9","larger_num":"10","correct_side":2,"subjID":"mariajosecedeñopinzon34","gender":"1","age":"11","school":"6"},{"start_time":1551795018131,"click_time":1551795019225,"finger_time":1551795018805,"fix_duration":744.4152205542285,"trial":60,"RT":674,"MT":420,"sideResp":2,"stimulus":"img/500/equaldotsize/R/14_Ratio_500_L_5_R_10.png","xmouse":[775,776,776,776,776,776,776,776,776,776,776,776,776,776,776,776,776,776,776,776,776,776,776,776,776,776,776,776,777,784,798,813,833,857,940,988,1021,1037,1052,1064,1074,1089,1101,1115,1116,1116,1116,1116,1116,1116,1116,1117,1124,1132],"ymouse":[509,509,509,509,509,509,509,509,509,509,509,509,509,509,509,509,509,509,509,509,509,509,509,509,509,509,509,509,509,504,495,483,469,451,393,353,324,301,255,229,218,208,201,189,183,180,178,178,178,174,166,148,130,87],"timestamp_mouse":[33,53,74,94,113,134,153,174,194,214,233,253,273,294,313,333,354,373,393,413,433,453,473,494,514,534,554,573,593,613,634,653,674,694,714,733,753,773,795,813,833,854,873,894,913,933,953,974,993,1013,1034,1053,1073,1094],"xSR":741.5,"ySR":469.95,"xT1":424.9,"yT1":0,"xT2":1058.1,"yT2":0,"toosoon":0,"cond_shown":"equaldotsize","ratio_trial":500,"smaller_num":"5","larger_num":"10","correct_side":2,"subjID":"mariajosecedeñopinzon34","gender":"1","age":"11","school":"6"},{"start_time":1551795020488,"click_time":1551795022186,"finger_time":1551795021485,"fix_duration":442.5646510335066,"trial":61,"RT":997,"MT":701,"sideResp":2,"stimulus":"img/250/randomdotsizeEA/R/8_Ratio_250_L_1_R_4.png","xmouse":[759,759,759,759,759,759,760,761,762,763,765,766,771,771,771,771,771,771,771,771,771,771,771,771,771,771,771,771,771,771,771,771,771,771,771,771,771,771,771,771,771,771,771,771,771,772,773,801,820,845,866,886,927,969,999,1025,1041,1063,1067,1069,1070,1072,1072,1073,1074,1075,1076,1078,1081,1082,1085,1087,1087,1087,1087,1087,1087,1087,1087,1087,1087,1087,1080,1078,1076],"ymouse":[519,519,519,519,519,519,519,519,519,519,519,519,519,519,519,519,519,519,519,519,519,519,519,519,519,519,519,519,519,519,519,519,519,519,519,519,519,519,519,519,519,519,519,519,519,519,519,511,506,495,487,475,437,393,356,320,291,248,234,225,216,208,204,202,199,197,195,188,183,175,168,152,146,136,130,124,117,116,115,115,115,114,107,100,95],"timestamp_mouse":[16,36,56,77,97,117,137,157,176,197,218,236,256,277,296,316,338,358,377,396,417,437,456,477,496,516,538,557,577,596,617,638,657,676,697,716,737,757,776,796,816,836,858,877,896,917,936,958,976,997,1016,1036,1056,1077,1097,1117,1136,1156,1177,1196,1216,1238,1256,1277,1297,1317,1337,1357,1377,1396,1416,1438,1456,1476,1497,1518,1538,1556,1577,1596,1616,1636,1656,1676,1697],"xSR":741.5,"ySR":469.95,"xT1":424.9,"yT1":0,"xT2":1058.1,"yT2":0,"toosoon":0,"cond_shown":"randomdotsizeEA","ratio_trial":250,"smaller_num":"1","larger_num":"4","correct_side":2,"subjID":"mariajosecedeñopinzon34","gender":"1","age":"11","school":"6"},{"start_time":1551795024184,"click_time":1551795026345,"finger_time":1551795025065,"fix_duration":738.2730758645871,"trial":62,"RT":881,"MT":1280,"sideResp":2,"stimulus":"img/750/randomdotsizeEA/R/7_Ratio_750_L_3_R_4.png","xmouse":[797,797,797,797,797,797,797,797,797,797,797,797,797,797,797,797,797,797,797,797,797,797,797,797,797,797,797,797,797,797,797,797,797,797,797,797,797,797,797,797,797,789,783,763,756,754,753,753,753,753,753,753,753,753,753,753,754,754,758,758,758,758,758,758,758,758,758,758,758,758,758,761,765,773,776,779,783,788,790,791,792,794,803,810,822,840,858,890,976,1002,1018,1032,1045,1075,1094,1109,1121,1128,1129,1129,1129,1130,1131,1132,1132,1132,1125,1116,1103],"ymouse":[506,506,506,506,506,506,506,506,506,506,506,506,506,506,506,506,506,506,506,506,506,506,506,506,506,506,506,506,506,506,506,506,506,506,506,506,506,506,506,506,506,501,496,476,465,459,456,456,456,456,456,456,456,456,456,456,455,455,455,455,455,455,455,455,455,455,455,455,455,455,455,455,456,461,461,463,463,463,463,463,463,463,459,455,447,433,422,399,328,309,294,276,258,213,187,166,151,140,136,136,136,134,132,128,125,121,115,110,98],"timestamp_mouse":[8,20,55,61,81,102,121,141,160,180,200,220,242,260,281,300,320,340,360,380,400,420,440,460,481,501,521,540,561,581,601,622,642,660,681,701,720,740,760,780,801,820,841,860,881,901,920,941,960,981,1000,1020,1040,1061,1081,1102,1121,1142,1161,1181,1200,1221,1241,1260,1281,1300,1321,1341,1360,1380,1401,1421,1440,1461,1481,1501,1521,1541,1560,1580,1601,1621,1642,1660,1681,1700,1721,1740,1760,1782,1801,1821,1840,1861,1881,1900,1922,1941,1961,1980,2000,2020,2040,2061,2081,2102,2122,2142,2161],"xSR":741.5,"ySR":469.95,"xT1":424.9,"yT1":0,"xT2":1058.1,"yT2":0,"toosoon":0,"cond_shown":"randomdotsizeEA","ratio_trial":750,"smaller_num":"3","larger_num":"4","correct_side":2,"subjID":"mariajosecedeñopinzon34","gender":"1","age":"11","school":"6"},{"start_time":1551795028250,"click_time":1551795029526,"finger_time":1551795028985,"fix_duration":824.1807335179387,"trial":63,"RT":735,"MT":541,"sideResp":2,"stimulus":"img/250/equaldotanddens/R/11_Ratio_250_L_3_R_12.png","xmouse":[783,783,783,783,783,783,783,783,783,783,783,783,783,783,783,783,783,783,783,783,783,783,783,783,783,783,783,783,783,783,783,783,783,783,797,818,850,896,946,1062,1116,1152,1173,1190,1197,1198,1199,1199,1199,1199,1198,1197,1193,1188,1174,1168,1160,1148,1129,1100,1100,1100,1100,1100],"ymouse":[498,498,498,498,498,498,498,498,498,498,498,498,498,498,498,498,498,498,498,498,498,498,498,498,498,498,498,498,498,498,498,498,498,498,487,475,456,424,390,315,278,252,233,204,189,182,175,170,166,164,162,161,160,158,153,149,145,139,133,126,126,125,123,94],"timestamp_mouse":[14,39,55,75,95,115,135,155,175,194,215,235,254,274,296,315,334,355,374,396,414,434,454,474,494,514,534,554,574,596,615,634,656,675,694,715,735,755,774,795,814,835,855,875,895,916,934,954,975,994,1016,1034,1054,1076,1096,1114,1135,1155,1174,1194,1215,1234,1254,1275],"xSR":741.5,"ySR":469.95,"xT1":424.9,"yT1":0,"xT2":1058.1,"yT2":0,"toosoon":0,"cond_shown":"equaldotanddens","ratio_trial":250,"smaller_num":"3","larger_num":"12","correct_side":2,"subjID":"mariajosecedeñopinzon34","gender":"1","age":"11","school":"6"},{"start_time":1551795031196,"click_time":1551795032844,"finger_time":1551795032385,"fix_duration":250,"trial":64,"RT":1189,"MT":459,"sideResp":2,"stimulus":"img/750/equaldotsize/R/12_Ratio_750_L_3_R_4.png","xmouse":[783,783,783,783,783,783,783,783,783,783,783,783,783,783,783,783,783,783,783,783,783,783,783,783,783,783,783,783,783,783,783,783,783,783,783,783,783,783,783,783,783,783,783,783,783,783,783,783,783,781,780,778,778,778,778,780,781,808,828,851,873,895,938,958,974,978,978,968,968,970,975,981,985,987,989,993,997,1013,1028,1038,1047,1057,1064],"ymouse":[543,543,543,543,543,543,543,543,543,543,543,543,543,543,543,543,543,543,543,543,543,543,543,543,543,543,543,543,543,543,543,543,543,543,543,543,543,543,543,543,543,543,543,543,543,543,541,535,530,526,524,523,523,523,523,520,518,494,478,462,444,422,361,322,282,252,222,136,111,91,79,70,63,61,60,60,60,67,74,79,84,87,87],"timestamp_mouse":[10,32,48,68,88,108,128,149,168,188,208,228,248,268,289,310,329,348,368,389,409,430,449,469,489,509,528,548,569,588,610,629,650,668,689,709,729,750,768,788,809,830,849,869,889,909,928,948,968,989,1008,1028,1049,1068,1088,1109,1128,1149,1168,1189,1208,1230,1248,1269,1288,1308,1328,1349,1368,1388,1409,1429,1448,1469,1489,1508,1529,1549,1569,1589,1609,1629,1648],"xSR":741.5,"ySR":469.95,"xT1":424.9,"yT1":0,"xT2":1058.1,"yT2":0,"toosoon":0,"cond_shown":"equaldotsize","ratio_trial":750,"smaller_num":"3","larger_num":"4","correct_side":2,"subjID":"mariajosecedeñopinzon34","gender":"1","age":"11","school":"6"},{"start_time":1551795035118,"click_time":1551795036565,"finger_time":1551795035785,"fix_duration":1293.0066484940041,"trial":65,"RT":667,"MT":780,"sideResp":1,"stimulus":"img/250/equaldotsize/L/3_Ratio_250_L_8_R_2.png","xmouse":[818,818,818,818,818,818,818,818,818,818,818,818,818,818,818,818,818,818,818,818,818,818,818,818,818,818,818,818,818,816,804,774,755,737,724,712,686,678,672,666,661,644,639,631,624,616,604,597,588,580,572,565,546,519,481,427,387,385,390,400,420,420,410,397,388,387,387,387,387,387,387,424,449],"ymouse":[522,522,522,522,522,522,522,523,524,525,525,525,525,525,525,525,525,525,525,525,525,525,525,525,525,525,525,525,525,526,521,505,492,480,467,452,415,400,384,371,353,306,289,272,260,250,239,239,238,237,236,236,233,225,216,201,187,185,179,170,139,120,105,91,86,85,85,85,85,85,84,84,84],"timestamp_mouse":[8,38,46,66,87,106,127,146,167,187,206,226,246,267,287,306,326,346,366,386,408,426,448,466,486,507,527,548,566,586,608,627,647,667,686,706,727,747,766,786,807,826,847,868,886,907,926,946,967,987,1007,1026,1046,1067,1088,1107,1126,1146,1166,1186,1207,1227,1248,1267,1286,1307,1326,1347,1366,1386,1406,1427,1447],"xSR":741.5,"ySR":469.95,"xT1":424.9,"yT1":0,"xT2":1058.1,"yT2":0,"toosoon":0,"cond_shown":"equaldotsize","ratio_trial":250,"smaller_num":"2","larger_num":"8","correct_side":1,"subjID":"mariajosecedeñopinzon34","gender":"1","age":"11","school":"6"},{"start_time":1551795039226,"click_time":1551795040326,"finger_time":1551795039944,"fix_duration":1260.3137101849215,"trial":66,"RT":718,"MT":382,"sideResp":2,"stimulus":"img/250/equaldotanddens/R/13_Ratio_250_L_2_R_8.png","xmouse":[786,786,786,786,786,786,786,786,786,786,786,786,786,786,786,786,786,786,786,786,786,786,786,786,786,786,786,786,786,786,786,791,800,813,825,859,892,912,930,948,976,989,996,1001,1006,1007,1007,1007,1007,1009,1023,1033,1040,1050,1066],"ymouse":[521,521,521,521,521,521,521,521,521,521,522,522,522,522,522,522,522,522,522,522,522,522,522,522,522,522,522,522,522,522,523,520,510,497,481,429,357,