[{"start_time":1551793953834,"click_time":1551793959620,"finger_time":1551793958439,"fix_duration":1473.4218809588763,"trial":0,"RT":4605,"MT":1181,"sideResp":2,"stimulus":[],"xmouse":[771,771,771,771,771,771,771,771,771,771,771,771,771,771,771,771,771,771,771,771,771,771,771,771,771,771,771,771,771,771,771,771,771,771,771,771,771,771,771,771,771,771,771,771,771,771,771,771,771,771,771,771,771,771,771,771,771,771,771,771,771,771,771,771,771,771,771,771,771,771,771,771,771,771,771,771,771,771,771,771,771,771,771,771,771,771,771,771,771,771,771,771,771,771,771,771,771,771,771,771,771,771,771,771,771,771,771,771,771,771,771,771,771,771,771,771,771,771,771,771,771,771,771,771,771,771,771,771,771,771,771,771,771,771,771,771,771,771,771,771,771,771,771,771,771,771,771,771,771,771,771,771,771,771,771,771,771,771,772,778,782,786,789,790,791,792,793,794,794,794,794,794,794,794,794,794,794,794,794,794,795,795,795,795,795,795,796,796,796,797,797,797,797,797,797,797,797,797,797,798,798,798,798,798,798,798,798,798,798,798,798,798,798,799,799,799,802,804,808,814,816,816,817,817,817,818,820,822,825,835,842,855,875,896,935,957,962,975,984,1005,1014,1020,1027,1032,1039,1044,1049,1054,1059,1065,1065,1066,1066,1066,1067,1067,1067,1067,1067,1069,1071,1072,1073,1073,1072,1070,1066,1063,1061,1058,1057,1057,1057,1057,1057,1057,1057,1057,1057,1057,1057,1057,1057,1057,1057,1057,1057,1055,1058,1063],"ymouse":[556,556,556,556,556,556,556,556,556,556,556,556,556,556,556,556,556,556,556,556,556,556,556,556,556,556,556,556,556,556,556,556,556,556,556,556,556,556,556,556,556,556,556,556,556,556,556,556,556,556,556,556,556,556,556,556,556,556,556,556,556,556,556,556,556,556,556,556,556,556,556,556,556,556,556,556,556,556,556,556,556,556,556,556,556,556,556,556,556,556,556,556,556,556,556,556,556,556,556,556,556,556,556,556,556,556,556,556,556,556,556,556,556,556,556,556,556,556,556,556,556,556,556,556,556,556,556,556,556,556,556,556,556,556,556,556,556,556,556,556,556,556,556,556,556,556,556,556,556,556,556,556,556,556,556,556,556,556,553,548,546,544,542,542,540,540,539,538,538,538,538,538,538,538,538,538,538,538,538,538,537,536,536,536,536,536,535,535,535,533,533,533,533,533,533,533,532,531,531,529,528,528,528,528,528,528,528,528,528,528,528,528,528,528,528,528,526,525,524,522,521,520,520,520,520,520,519,519,517,513,508,501,491,479,456,444,441,432,424,409,401,395,387,381,370,360,352,342,331,307,296,286,278,271,265,265,265,265,265,259,254,249,241,230,202,184,165,138,122,88,73,56,40,24,3,3,3,3,3,3,3,3,3,3,3,3,3,2,6,11],"timestamp_mouse":[6,26,46,65,87,106,125,146,165,185,207,226,246,265,287,306,326,345,366,385,405,427,445,465,486,506,527,545,565,586,606,627,645,665,685,706,726,745,767,786,806,826,845,865,886,905,927,947,966,986,1006,1025,1046,1065,1086,1106,1125,1145,1165,1185,1205,1225,1245,1267,1285,1306,1325,1346,1366,1386,1406,1425,1445,1466,1486,1506,1525,1545,1566,1586,1605,1625,1647,1666,1686,1707,1726,1745,1766,1785,1805,1826,1847,1866,1887,1905,1927,1945,1965,1987,2007,2025,2047,2067,2085,2105,2127,2147,2167,2186,2205,2226,2246,2265,2285,2305,2327,2347,2365,2385,2405,2427,2447,2466,2485,2507,2527,2545,2565,2586,2605,2626,2647,2665,2685,2707,2726,2746,2766,2786,2806,2827,2847,2865,2886,2906,2926,2946,2967,2985,3007,3025,3047,3065,3085,3105,3127,3146,3165,3186,3205,3226,3245,3267,3286,3306,3325,3346,3365,3385,3407,3425,3445,3465,3487,3505,3526,3545,3565,3586,3605,3627,3646,3665,3685,3705,3726,3747,3765,3785,3807,3827,3845,3865,3886,3907,3925,3946,3965,3986,4006,4025,4045,4066,4085,4106,4126,4146,4166,4186,4205,4226,4246,4266,4285,4305,4325,4347,4366,4386,4405,4426,4445,4466,4486,4506,4525,4547,4566,4585,4605,4625,4646,4666,4686,4705,4725,4746,4766,4785,4806,4826,4846,4866,4885,4905,4925,4946,4966,4985,5005,5026,5046,5067,5086,5107,5125,5145,5166,5185,5206,5225,5246,5265,5285,5306,5325,5347,5366,5386,5406,5427,5446,5465,5485,5505,5526,5545,5566,5585,5606,5625,5646,5665,5685,5705,5725,5746,5766,5786],"xSR":741.5,"ySR":501.8,"xT1":424.9,"yT1":0,"xT2":1058.1,"yT2":0,"toosoon":0,"cond_shown":"Incongruent","ratio_trial":100,"L_num":3,"L_den":6,"R_num":4,"R_den":10,"correct_side":1,"subjID":"mariajosecedeñopinzon34","gender":"1","age":"11","school":"6","test":{"fix_dur":[250,1500],"timestim":1000,"targets_dim":[100,100],"targets_relative_coord":[0.3,0.7],"size_stim":[880,420],"start_dim":[100,100],"size_start":[300,300],"size_fix":60,"samplingrate":20,"img_types":["Congruent","Incongruent"],"ratios":[100,200,300],"rep_conds":19,"nTrials":120,"trials_to_rest":500,"Trials_order":[13,24,81,61,55,73,17,90,75,27,44,12,53,21,102,6,29,37,111,85,74,58,118,119,88,30,33,95,43,39,9,23,10,80,76,11,47,57,69,63,106,64,16,114,1,25,105,104,40,71,3,19,79,93,8,60,28,14,107,26,54,96,116,68,101,110,42,77,82,67,32,49,62,46,98,65,5,51,113,108,50,20,117,84,97,41,109,100,70,86,92,15,36,56,66,115,78,72,38,99,35,48,31,87,83,94,45,112,52,18,89,103,22,4,0,59,7,91,2,34],"cond_shown":["Incongruent","Congruent","Incongruent","Incongruent","Incongruent","Incongruent","Incongruent","Congruent","Incongruent","Incongruent","Congruent","Congruent","Incongruent","Incongruent","Congruent","Congruent","Incongruent","Incongruent","Incongruent","Incongruent","Congruent","Congruent","Congruent","Incongruent","Congruent","Congruent","Incongruent","Incongruent","Incongruent","Incongruent","Incongruent","Incongruent","Congruent","Congruent","Congruent","Incongruent","Incongruent","Incongruent","Incongruent","Incongruent","Congruent","Congruent","Congruent","Congruent","Incongruent","Incongruent","Incongruent","Congruent","Congruent","Incongruent","Incongruent","Incongruent","Incongruent","Incongruent","Congruent","Congruent","Congruent","Congruent","Incongruent","Congruent","Congruent","Congruent","Congruent","Congruent","Incongruent","Congruent","Congruent","Incongruent","Congruent","Incongruent","Congruent","Incongruent","Congruent","Congruent","Congruent","Incongruent","Incongruent","Incongruent","Incongruent","Congruent","Congruent","Congruent","Incongruent","Congruent","Incongruent","Incongruent","Incongruent","Congruent","Congruent","Congruent","Congruent","Incongruent","Congruent","Congruent","Congruent","Incongruent","Congruent","Congruent","Congruent","Incongruent","Incongruent","Congruent","Incongruent","Incongruent","Incongruent","Congruent","Incongruent","Congruent","Congruent","Congruent","Incongruent","Incongruent","Congruent","Congruent","Congruent","Incongruent","Incongruent","Incongruent","Congruent","Congruent"],"ratio_trial":[100,100,200,100,100,100,300,100,200,200,200,100,300,200,100,100,300,100,200,100,200,300,300,300,300,100,200,300,100,200,200,300,300,200,300,300,300,200,200,200,300,300,300,100,100,100,200,200,300,300,200,100,100,200,200,100,300,200,300,200,100,100,200,200,300,200,100,300,300,100,200,100,200,300,200,300,300,200,300,100,200,200,200,100,100,300,100,300,300,200,200,200,100,200,100,100,100,100,200,200,300,100,100,200,300,300,200,300,300,100,300,100,300,300,100,300,100,100,200,300],"left_num":[3,15,4,6,6,6,13,3,7,1,3,3,8,4,15,11,4,10,4,6,5,3,20,1,18,3,7,13,6,7,3,13,2,13,1,4,13,7,4,14,1,2,2,4,11,4,1,9,20,8,7,10,12,7,1,8,24,6,4,9,11,12,6,4,4,12,2,4,18,8,9,12,20,18,11,4,13,3,4,4,11,3,7,3,3,4,6,1,24,16,6,3,6,3,6,10,4,1,15,7,1,15,10,7,13,11,3,8,4,8,13,3,2,20,2,13,8,10,7,2],"right_num":[4,13,6,7,3,7,12,2,14,3,7,4,14,6,13,6,2,8,1,11,14,11,9,3,9,4,12,12,11,8,11,12,12,14,3,2,12,6,1,6,11,12,10,6,9,8,3,4,14,9,8,9,2,8,21,2,2,11,6,13,6,13,3,3,2,6,6,2,9,6,4,2,9,9,3,2,12,11,2,6,3,9,12,4,11,2,7,6,8,12,7,1,5,9,5,8,15,18,4,14,3,13,9,14,12,1,1,10,1,2,12,7,12,13,11,12,6,9,18,10],"left_den":[6,25,5,10,12,10,26,6,10,2,10,20,10,5,25,22,20,25,30,10,10,12,25,2,20,20,10,26,10,10,4,26,10,26,5,20,26,15,30,30,5,10,20,8,22,8,2,20,25,10,10,25,30,10,2,16,30,20,5,30,22,30,15,10,20,15,5,20,20,16,20,30,25,20,22,20,26,4,20,8,22,12,10,20,5,20,10,5,30,20,12,10,20,12,20,25,10,2,25,10,2,25,25,10,26,22,10,15,10,16,26,9,10,25,5,26,16,25,15,20],"right_den":[10,26,10,14,5,14,15,5,28,10,14,16,28,10,26,15,4,16,3,22,20,20,18,15,15,16,24,15,22,16,20,15,24,20,6,4,15,9,3,9,22,24,25,10,15,20,10,16,28,18,16,18,4,16,30,5,4,22,12,26,15,26,15,15,4,10,12,4,15,10,16,4,15,15,10,4,15,20,4,10,10,20,24,16,22,4,14,12,16,20,10,2,25,20,25,16,30,30,10,28,15,26,18,28,15,5,2,12,10,5,15,30,24,26,22,15,10,18,27,25],"correct_side":[1,1,1,1,2,1,2,1,1,1,2,2,1,1,1,1,2,2,2,1,2,2,1,1,1,2,1,2,1,1,1,2,2,2,2,2,2,2,2,2,2,2,2,2,2,1,1,1,1,1,1,2,2,1,2,1,1,2,1,2,1,2,1,1,2,1,2,2,1,2,1,2,1,1,1,2,2,1,2,2,1,2,1,2,1,2,1,2,1,1,2,2,1,2,1,2,2,2,1,1,1,1,2,1,2,1,2,2,1,1,2,1,2,1,2,2,2,2,2,2],"img_shown":["img2/100/Incongruent/L/I_Dist_100_LN_3_LD_6_RN_4_RD_10_0.png","img2/100/Congruent/L/C_Dist_100_LN_15_LD_25_RN_13_RD_26_0.png","img2/200/Incongruent/L/I_Dist_200_LN_4_LD_5_RN_6_RD_10_0.png","img2/100/Incongruent/L/I_Dist_100_LN_6_LD_10_RN_7_RD_14_0.png","img2/100/Incongruent/R/I_Dist_100_LN_6_LD_12_RN_3_RD_5_1.png","img2/100/Incongruent/L/I_Dist_100_LN_6_LD_10_RN_7_RD_14_0.png","img2/300/Incongruent/R/I_Dist_300_LN_13_LD_26_RN_12_RD_15_1.png","img2/100/Congruent/L/C_Dist_100_LN_3_LD_6_RN_2_RD_5_0.png","img2/200/Incongruent/L/I_Dist_200_LN_7_LD_10_RN_14_RD_28_0.png","img2/200/Incongruent/L/I_Dist_200_LN_1_LD_2_RN_3_RD_10_0.png","img2/200/Congruent/R/C_Dist_200_LN_3_LD_10_RN_7_RD_14_1.png","img2/100/Congruent/R/C_Dist_100_LN_3_LD_20_RN_4_RD_16_1.png","img2/300/Incongruent/L/I_Dist_300_LN_8_LD_10_RN_14_RD_28_0.png","img2/200/Incongruent/L/I_Dist_200_LN_4_LD_5_RN_6_RD_10_0.png","img2/100/Congruent/L/C_Dist_100_LN_15_LD_25_RN_13_RD_26_0.png","img2/100/Congruent/L/C_Dist_100_LN_11_LD_22_RN_6_RD_15_0.png","img2/300/Incongruent/R/I_Dist_300_LN_4_LD_20_RN_2_RD_4_1.png","img2/100/Incongruent/R/I_Dist_100_LN_10_LD_25_RN_8_RD_16_1.png","img2/200/Incongruent/R/I_Dist_200_LN_4_LD_30_RN_1_RD_3_1.png","img2/100/Incongruent/L/I_Dist_100_LN_6_LD_10_RN_11_RD_22_0.png","img2/200/Congruent/R/C_Dist_200_LN_5_LD_10_RN_14_RD_20_1.png","img2/300/Congruent/R/C_Dist_300_LN_3_LD_12_RN_11_RD_20_1.png","img2/300/Congruent/L/C_Dist_300_LN_20_LD_25_RN_9_RD_18_0.png","img2/300/Incongruent/L/I_Dist_300_LN_1_LD_2_RN_3_RD_15_0.png","img2/300/Congruent/L/C_Dist_300_LN_18_LD_20_RN_9_RD_15_0.png","img2/100/Congruent/R/C_Dist_100_LN_3_LD_20_RN_4_RD_16_1.png","img2/200/Incongruent/L/I_Dist_200_LN_7_LD_10_RN_12_RD_24_0.png","img2/300/Incongruent/R/I_Dist_300_LN_13_LD_26_RN_12_RD_15_1.png","img2/100/Incongruent/L/I_Dist_100_LN_6_LD_10_RN_11_RD_22_0.png","img2/200/Incongruent/L/I_Dist_200_LN_7_LD_10_RN_8_RD_16_0.png","img2/200/Incongruent/L/I_Dist_200_LN_3_LD_4_RN_11_RD_20_0.png","img2/300/Incongruent/R/I_Dist_300_LN_13_LD_26_RN_12_RD_15_1.png","img2/300/Congruent/R/C_Dist_300_LN_2_LD_10_RN_12_RD_24_1.png","img2/200/Congruent/R/C_Dist_200_LN_13_LD_26_RN_14_RD_20_1.png","img2/300/Congruent/R/C_Dist_300_LN_1_LD_5_RN_3_RD_6_1.png","img2/300/Incongruent/R/I_Dist_300_LN_4_LD_20_RN_2_RD_4_1.png","img2/300/Incongruent/R/I_Dist_300_LN_13_LD_26_RN_12_RD_15_1.png","img2/200/Incongruent/R/I_Dist_200_LN_7_LD_15_RN_6_RD_9_1.png","img2/200/Incongruent/R/I_Dist_200_LN_4_LD_30_RN_1_RD_3_1.png","img2/200/Incongruent/R/I_Dist_200_LN_14_LD_30_RN_6_RD_9_1.png","img2/300/Congruent/R/C_Dist_300_LN_1_LD_5_RN_11_RD_22_1.png","img2/300/Congruent/R/C_Dist_300_LN_2_LD_10_RN_12_RD_24_1.png","img2/300/Congruent/R/C_Dist_300_LN_2_LD_20_RN_10_RD_25_1.png","img2/100/Congruent/R/C_Dist_100_LN_4_LD_8_RN_6_RD_10_1.png","img2/100/Incongruent/R/I_Dist_100_LN_11_LD_22_RN_9_RD_15_1.png","img2/100/Incongruent/L/I_Dist_100_LN_4_LD_8_RN_8_RD_20_0.png","img2/200/Incongruent/L/I_Dist_200_LN_1_LD_2_RN_3_RD_10_0.png","img2/200/Congruent/L/C_Dist_200_LN_9_LD_20_RN_4_RD_16_0.png","img2/300/Congruent/L/C_Dist_300_LN_20_LD_25_RN_14_RD_28_0.png","img2/300/Incongruent/L/I_Dist_300_LN_8_LD_10_RN_9_RD_18_0.png","img2/200/Incongruent/L/I_Dist_200_LN_7_LD_10_RN_8_RD_16_0.png","img2/100/Incongruent/R/I_Dist_100_LN_10_LD_25_RN_9_RD_18_1.png","img2/100/Incongruent/R/I_Dist_100_LN_12_LD_30_RN_2_RD_4_1.png","img2/200/Incongruent/L/I_Dist_200_LN_7_LD_10_RN_8_RD_16_0.png","img2/200/Congruent/R/C_Dist_200_LN_1_LD_2_RN_21_RD_30_1.png","img2/100/Congruent/L/C_Dist_100_LN_8_LD_16_RN_2_RD_5_0.png","img2/300/Congruent/L/C_Dist_300_LN_24_LD_30_RN_2_RD_4_0.png","img2/200/Congruent/R/C_Dist_200_LN_6_LD_20_RN_11_RD_22_1.png","img2/300/Incongruent/L/I_Dist_300_LN_4_LD_5_RN_6_RD_12_0.png","img2/200/Congruent/R/C_Dist_200_LN_9_LD_30_RN_13_RD_26_1.png","img2/100/Congruent/L/C_Dist_100_LN_11_LD_22_RN_6_RD_15_0.png","img2/100/Congruent/R/C_Dist_100_LN_12_LD_30_RN_13_RD_26_1.png","img2/200/Congruent/L/C_Dist_200_LN_6_LD_15_RN_3_RD_15_0.png","img2/200/Congruent/L/C_Dist_200_LN_4_LD_10_RN_3_RD_15_0.png","img2/300/Incongruent/R/I_Dist_300_LN_4_LD_20_RN_2_RD_4_1.png","img2/200/Congruent/L/C_Dist_200_LN_12_LD_15_RN_6_RD_10_0.png","img2/100/Congruent/R/C_Dist_100_LN_2_LD_5_RN_6_RD_12_1.png","img2/300/Incongruent/R/I_Dist_300_LN_4_LD_20_RN_2_RD_4_1.png","img2/300/Congruent/L/C_Dist_300_LN_18_LD_20_RN_9_RD_15_0.png","img2/100/Incongruent/R/I_Dist_100_LN_8_LD_16_RN_6_RD_10_1.png","img2/200/Congruent/L/C_Dist_200_LN_9_LD_20_RN_4_RD_16_0.png","img2/100/Incongruent/R/I_Dist_100_LN_12_LD_30_RN_2_RD_4_1.png","img2/200/Congruent/L/C_Dist_200_LN_20_LD_25_RN_9_RD_15_0.png","img2/300/Congruent/L/C_Dist_300_LN_18_LD_20_RN_9_RD_15_0.png","img2/200/Congruent/L/C_Dist_200_LN_11_LD_22_RN_3_RD_10_0.png","img2/300/Incongruent/R/I_Dist_300_LN_4_LD_20_RN_2_RD_4_1.png","img2/300/Incongruent/R/I_Dist_300_LN_13_LD_26_RN_12_RD_15_1.png","img2/200/Incongruent/L/I_Dist_200_LN_3_LD_4_RN_11_RD_20_0.png","img2/300/Incongruent/R/I_Dist_300_LN_4_LD_20_RN_2_RD_4_1.png","img2/100/Congruent/R/C_Dist_100_LN_4_LD_8_RN_6_RD_10_1.png","img2/200/Congruent/L/C_Dist_200_LN_11_LD_22_RN_3_RD_10_0.png","img2/200/Congruent/R/C_Dist_200_LN_3_LD_12_RN_9_RD_20_1.png","img2/200/Incongruent/L/I_Dist_200_LN_7_LD_10_RN_12_RD_24_0.png","img2/100/Congruent/R/C_Dist_100_LN_3_LD_20_RN_4_RD_16_1.png","img2/100/Incongruent/L/I_Dist_100_LN_3_LD_5_RN_11_RD_22_0.png","img2/300/Incongruent/R/I_Dist_300_LN_4_LD_20_RN_2_RD_4_1.png","img2/100/Incongruent/L/I_Dist_100_LN_6_LD_10_RN_7_RD_14_0.png","img2/300/Congruent/R/C_Dist_300_LN_1_LD_5_RN_6_RD_12_1.png","img2/300/Congruent/L/C_Dist_300_LN_24_LD_30_RN_8_RD_16_0.png","img2/200/Congruent/L/C_Dist_200_LN_16_LD_20_RN_12_RD_20_0.png","img2/200/Congruent/R/C_Dist_200_LN_6_LD_12_RN_7_RD_10_1.png","img2/200/Incongruent/R/I_Dist_200_LN_3_LD_10_RN_1_RD_2_1.png","img2/100/Congruent/L/C_Dist_100_LN_6_LD_20_RN_5_RD_25_0.png","img2/200/Congruent/R/C_Dist_200_LN_3_LD_12_RN_9_RD_20_1.png","img2/100/Congruent/L/C_Dist_100_LN_6_LD_20_RN_5_RD_25_0.png","img2/100/Incongruent/R/I_Dist_100_LN_10_LD_25_RN_8_RD_16_1.png","img2/100/Congruent/R/C_Dist_100_LN_4_LD_10_RN_15_RD_30_1.png","img2/100/Congruent/R/C_Dist_100_LN_1_LD_2_RN_18_RD_30_1.png","img2/200/Congruent/L/C_Dist_200_LN_15_LD_25_RN_4_RD_10_0.png","img2/200/Incongruent/L/I_Dist_200_LN_7_LD_10_RN_14_RD_28_0.png","img2/300/Incongruent/L/I_Dist_300_LN_1_LD_2_RN_3_RD_15_0.png","img2/100/Congruent/L/C_Dist_100_LN_15_LD_25_RN_13_RD_26_0.png","img2/100/Incongruent/R/I_Dist_100_LN_10_LD_25_RN_9_RD_18_1.png","img2/200/Incongruent/L/I_Dist_200_LN_7_LD_10_RN_14_RD_28_0.png","img2/300/Incongruent/R/I_Dist_300_LN_13_LD_26_RN_12_RD_15_1.png","img2/300/Congruent/L/C_Dist_300_LN_11_LD_22_RN_1_RD_5_0.png","img2/200/Incongruent/R/I_Dist_200_LN_3_LD_10_RN_1_RD_2_1.png","img2/300/Congruent/R/C_Dist_300_LN_8_LD_15_RN_10_RD_12_1.png","img2/300/Congruent/L/C_Dist_300_LN_4_LD_10_RN_1_RD_10_0.png","img2/100/Congruent/L/C_Dist_100_LN_8_LD_16_RN_2_RD_5_0.png","img2/300/Incongruent/R/I_Dist_300_LN_13_LD_26_RN_12_RD_15_1.png","img2/100/Incongruent/L/I_Dist_100_LN_3_LD_9_RN_7_RD_30_0.png","img2/300/Congruent/R/C_Dist_300_LN_2_LD_10_RN_12_RD_24_1.png","img2/300/Congruent/L/C_Dist_300_LN_20_LD_25_RN_13_RD_26_0.png","img2/100/Congruent/R/C_Dist_100_LN_2_LD_5_RN_11_RD_22_1.png","img2/300/Incongruent/R/I_Dist_300_LN_13_LD_26_RN_12_RD_15_1.png","img2/100/Incongruent/R/I_Dist_100_LN_8_LD_16_RN_6_RD_10_1.png","img2/100/Incongruent/R/I_Dist_100_LN_10_LD_25_RN_9_RD_18_1.png","img2/200/Congruent/R/C_Dist_200_LN_7_LD_15_RN_18_RD_27_1.png","img2/300/Congruent/R/C_Dist_300_LN_2_LD_20_RN_10_RD_25_1.png"],"dist100_C":[["C_Dist_100_LN_10_LD_25_RN_3_RD_10_0.png","C_Dist_100_LN_11_LD_22_RN_4_RD_10_0.png","C_Dist_100_LN_11_LD_22_RN_6_RD_15_0.png","C_Dist_100_LN_15_LD_25_RN_13_RD_26_0.png","C_Dist_100_LN_3_LD_6_RN_2_RD_5_0.png","C_Dist_100_LN_6_LD_20_RN_5_RD_25_0.png","C_Dist_100_LN_8_LD_16_RN_2_RD_5_0.png","C_Dist_100_LN_9_LD_15_RN_8_RD_16_0.png"],["C_Dist_100_LN_1_LD_2_RN_18_RD_30_1.png","C_Dist_100_LN_1_LD_2_RN_3_RD_5_1.png","C_Dist_100_LN_12_LD_30_RN_13_RD_26_1.png","C_Dist_100_LN_2_LD_5_RN_11_RD_22_1.png","C_Dist_100_LN_2_LD_5_RN_6_RD_12_1.png","C_Dist_100_LN_3_LD_20_RN_4_RD_16_1.png","C_Dist_100_LN_4_LD_10_RN_15_RD_30_1.png","C_Dist_100_LN_4_LD_8_RN_6_RD_10_1.png","C_Dist_100_LN_6_LD_12_RN_15_RD_25_1.png","C_Dist_100_LN_7_LD_14_RN_15_RD_25_1.png","C_Dist_100_LN_7_LD_14_RN_9_RD_15_1.png"]],"dist100_I":[["I_Dist_100_LN_1_LD_2_RN_8_RD_20_0.png","I_Dist_100_LN_2_LD_4_RN_6_RD_15_0.png","I_Dist_100_LN_2_LD_4_RN_8_RD_20_0.png","I_Dist_100_LN_3_LD_5_RN_11_RD_22_0.png","I_Dist_100_LN_3_LD_5_RN_8_RD_16_0.png","I_Dist_100_LN_3_LD_6_RN_4_RD_10_0.png","I_Dist_100_LN_3_LD_9_RN_7_RD_30_0.png","I_Dist_100_LN_4_LD_8_RN_8_RD_20_0.png","I_Dist_100_LN_6_LD_10_RN_11_RD_22_0.png","I_Dist_100_LN_6_LD_10_RN_13_RD_26_0.png","I_Dist_100_LN_6_LD_10_RN_7_RD_14_0.png","I_Dist_100_LN_9_LD_10_RN_20_RD_25_0.png","I_Dist_100_LN_9_LD_15_RN_13_RD_26_0.png","I_Dist_100_LN_9_LD_15_RN_14_RD_28_0.png"],["I_Dist_100_LN_10_LD_25_RN_8_RD_16_1.png","I_Dist_100_LN_10_LD_25_RN_9_RD_18_1.png","I_Dist_100_LN_11_LD_22_RN_9_RD_15_1.png","I_Dist_100_LN_12_LD_24_RN_9_RD_15_1.png","I_Dist_100_LN_12_LD_30_RN_2_RD_4_1.png","I_Dist_100_LN_13_LD_26_RN_12_RD_20_1.png","I_Dist_100_LN_13_LD_26_RN_6_RD_10_1.png","I_Dist_100_LN_17_LD_30_RN_10_RD_15_1.png","I_Dist_100_LN_6_LD_12_RN_3_RD_5_1.png","I_Dist_100_LN_8_LD_16_RN_6_RD_10_1.png","I_Dist_100_LN_8_LD_20_RN_1_RD_2_1.png","I_Dist_100_LN_9_LD_18_RN_6_RD_10_1.png"]],"dist100_S":[["E_Dist_100_LN_2_LD_12_RN_2_RD_30_0.png","E_Dist_100_LN_6_LD_10_RN_6_RD_12_0.png"],["E_Dist_100_LN_6_LD_12_RN_6_RD_10_1.png"]],"dist200_C":[["C_Dist_200_LN_11_LD_22_RN_3_RD_10_0.png","C_Dist_200_LN_12_LD_15_RN_6_RD_10_0.png","C_Dist_200_LN_12_LD_20_RN_6_RD_15_0.png","C_Dist_200_LN_14_LD_28_RN_6_RD_20_0.png","C_Dist_200_LN_15_LD_25_RN_4_RD_10_0.png","C_Dist_200_LN_16_LD_20_RN_12_RD_20_0.png","C_Dist_200_LN_16_LD_30_RN_9_RD_27_0.png","C_Dist_200_LN_20_LD_25_RN_9_RD_15_0.png","C_Dist_200_LN_21_LD_30_RN_2_RD_4_0.png","C_Dist_200_LN_4_LD_10_RN_3_RD_15_0.png","C_Dist_200_LN_4_LD_8_RN_3_RD_10_0.png","C_Dist_200_LN_6_LD_15_RN_3_RD_15_0.png","C_Dist_200_LN_7_LD_21_RN_2_RD_15_0.png","C_Dist_200_LN_8_LD_15_RN_2_RD_6_0.png","C_Dist_200_LN_8_LD_15_RN_3_RD_9_0.png","C_Dist_200_LN_8_LD_15_RN_7_RD_21_0.png","C_Dist_200_LN_9_LD_20_RN_4_RD_16_0.png"],["C_Dist_200_LN_1_LD_2_RN_21_RD_30_1.png","C_Dist_200_LN_13_LD_26_RN_14_RD_20_1.png","C_Dist_200_LN_3_LD_10_RN_11_RD_22_1.png","C_Dist_200_LN_3_LD_10_RN_14_RD_28_1.png","C_Dist_200_LN_3_LD_10_RN_7_RD_14_1.png","C_Dist_200_LN_3_LD_12_RN_9_RD_20_1.png","C_Dist_200_LN_3_LD_6_RN_14_RD_20_1.png","C_Dist_200_LN_5_LD_10_RN_14_RD_20_1.png","C_Dist_200_LN_6_LD_12_RN_7_RD_10_1.png","C_Dist_200_LN_6_LD_20_RN_11_RD_22_1.png","C_Dist_200_LN_7_LD_15_RN_18_RD_27_1.png","C_Dist_200_LN_9_LD_30_RN_13_RD_26_1.png"]],"dist200_I":[["I_Dist_200_LN_1_LD_2_RN_3_RD_10_0.png","I_Dist_200_LN_1_LD_3_RN_2_RD_15_0.png","I_Dist_200_LN_3_LD_4_RN_11_RD_20_0.png","I_Dist_200_LN_4_LD_5_RN_6_RD_10_0.png","I_Dist_200_LN_4_LD_6_RN_14_RD_30_0.png","I_Dist_200_LN_7_LD_10_RN_12_RD_24_0.png","I_Dist_200_LN_7_LD_10_RN_14_RD_28_0.png","I_Dist_200_LN_7_LD_10_RN_8_RD_16_0.png"],["I_Dist_200_LN_11_LD_20_RN_3_RD_4_1.png","I_Dist_200_LN_14_LD_30_RN_12_RD_18_1.png","I_Dist_200_LN_14_LD_30_RN_6_RD_9_1.png","I_Dist_200_LN_3_LD_10_RN_1_RD_2_1.png","I_Dist_200_LN_4_LD_30_RN_1_RD_3_1.png","I_Dist_200_LN_6_LD_20_RN_3_RD_6_1.png","I_Dist_200_LN_7_LD_15_RN_4_RD_6_1.png","I_Dist_200_LN_7_LD_15_RN_6_RD_9_1.png","I_Dist_200_LN_9_LD_15_RN_8_RD_10_1.png"]],"dist200_S":[["E_Dist_200_LN_3_LD_6_RN_3_RD_10_0.png"],["E_Dist_200_LN_3_LD_10_RN_3_RD_6_1.png"]],"dist300_C":[["C_Dist_300_LN_11_LD_22_RN_1_RD_5_0.png","C_Dist_300_LN_11_LD_22_RN_2_RD_10_0.png","C_Dist_300_LN_11_LD_22_RN_4_RD_20_0.png","C_Dist_300_LN_12_LD_24_RN_2_RD_10_0.png","C_Dist_300_LN_18_LD_20_RN_9_RD_15_0.png","C_Dist_300_LN_20_LD_25_RN_13_RD_26_0.png","C_Dist_300_LN_20_LD_25_RN_14_RD_28_0.png","C_Dist_300_LN_20_LD_25_RN_5_RD_10_0.png","C_Dist_300_LN_20_LD_25_RN_8_RD_16_0.png","C_Dist_300_LN_20_LD_25_RN_9_RD_18_0.png","C_Dist_300_LN_24_LD_30_RN_2_RD_4_0.png","C_Dist_300_LN_24_LD_30_RN_8_RD_16_0.png","C_Dist_300_LN_3_LD_6_RN_2_RD_10_0.png","C_Dist_300_LN_4_LD_10_RN_1_RD_10_0.png","C_Dist_300_LN_4_LD_5_RN_2_RD_4_0.png","C_Dist_300_LN_8_LD_16_RN_1_RD_5_0.png","C_Dist_300_LN_9_LD_10_RN_3_RD_5_0.png"],["C_Dist_300_LN_1_LD_20_RN_7_RD_20_1.png","C_Dist_300_LN_1_LD_3_RN_19_RD_30_1.png","C_Dist_300_LN_1_LD_30_RN_8_RD_24_1.png","C_Dist_300_LN_1_LD_5_RN_11_RD_22_1.png","C_Dist_300_LN_1_LD_5_RN_3_RD_6_1.png","C_Dist_300_LN_1_LD_5_RN_6_RD_12_1.png","C_Dist_300_LN_2_LD_10_RN_12_RD_24_1.png","C_Dist_300_LN_2_LD_20_RN_10_RD_25_1.png","C_Dist_300_LN_3_LD_12_RN_11_RD_20_1.png","C_Dist_300_LN_3_LD_6_RN_4_RD_5_1.png","C_Dist_300_LN_4_LD_20_RN_13_RD_26_1.png","C_Dist_300_LN_5_LD_25_RN_6_RD_12_1.png","C_Dist_300_LN_5_LD_25_RN_7_RD_14_1.png","C_Dist_300_LN_7_LD_14_RN_20_RD_25_1.png","C_Dist_300_LN_8_LD_15_RN_10_RD_12_1.png"]],"dist300_I":[["I_Dist_300_LN_1_LD_2_RN_2_RD_10_0.png","I_Dist_300_LN_1_LD_2_RN_3_RD_15_0.png","I_Dist_300_LN_2_LD_4_RN_6_RD_30_0.png","I_Dist_300_LN_3_LD_6_RN_4_RD_20_0.png","I_Dist_300_LN_4_LD_5_RN_6_RD_12_0.png","I_Dist_300_LN_4_LD_5_RN_8_RD_16_0.png","I_Dist_300_LN_7_LD_10_RN_8_RD_20_0.png","I_Dist_300_LN_8_LD_10_RN_14_RD_28_0.png","I_Dist_300_LN_8_LD_10_RN_9_RD_18_0.png"],["I_Dist_300_LN_13_LD_26_RN_12_RD_15_1.png","I_Dist_300_LN_4_LD_20_RN_2_RD_4_1.png"]],"dist300_S":[["E_Dist_300_LN_9_LD_12_RN_9_RD_20_0.png"],["E_Dist_300_LN_18_LD_30_RN_18_RD_20_1.png","E_Dist_300_LN_3_LD_10_RN_3_RD_5_1.png","E_Dist_300_LN_9_LD_20_RN_9_RD_12_1.png"]],"dist500_C":[["C_Dist_500_LN_10_LD_13_RN_7_RD_26_0.png","C_Dist_500_LN_10_LD_15_RN_4_RD_24_0.png","C_Dist_500_LN_12_LD_16_RN_3_RD_12_0.png","C_Dist_500_LN_12_LD_18_RN_4_RD_24_0.png","C_Dist_500_LN_15_LD_18_RN_5_RD_15_0.png","C_Dist_500_LN_15_LD_20_RN_1_RD_4_0.png","C_Dist_500_LN_18_LD_27_RN_1_RD_6_0.png","C_Dist_500_LN_20_LD_24_RN_1_RD_3_0.png","C_Dist_500_LN_20_LD_24_RN_3_RD_9_0.png","C_Dist_500_LN_20_LD_24_RN_7_RD_21_0.png","C_Dist_500_LN_20_LD_28_RN_3_RD_14_0.png","C_Dist_500_LN_21_LD_28_RN_6_RD_24_0.png","C_Dist_500_LN_22_LD_28_RN_2_RD_7_0.png","C_Dist_500_LN_25_LD_30_RN_9_RD_27_0.png","C_Dist_500_LN_4_LD_6_RN_1_RD_6_0.png","C_Dist_500_LN_5_LD_6_RN_2_RD_6_0.png","C_Dist_500_LN_6_LD_9_RN_1_RD_6_0.png","C_Dist_500_LN_7_LD_10_RN_1_RD_5_0.png","C_Dist_500_LN_8_LD_12_RN_1_RD_6_0.png","C_Dist_500_LN_8_LD_12_RN_4_RD_24_0.png"],["C_Dist_500_LN_1_LD_4_RN_12_RD_16_1.png","C_Dist_500_LN_1_LD_4_RN_9_RD_12_1.png","C_Dist_500_LN_1_LD_9_RN_11_RD_18_1.png","C_Dist_500_LN_10_LD_24_RN_22_RD_24_1.png","C_Dist_500_LN_2_LD_12_RN_10_RD_15_1.png","C_Dist_500_LN_2_LD_12_RN_12_RD_18_1.png","C_Dist_500_LN_2_LD_12_RN_4_RD_6_1.png","C_Dist_500_LN_2_LD_24_RN_7_RD_12_1.png","C_Dist_500_LN_2_LD_5_RN_18_RD_20_1.png","C_Dist_500_LN_2_LD_5_RN_9_RD_10_1.png","C_Dist_500_LN_2_LD_8_RN_12_RD_16_1.png","C_Dist_500_LN_2_LD_8_RN_21_RD_28_1.png","C_Dist_500_LN_3_LD_10_RN_4_RD_5_1.png","C_Dist_500_LN_3_LD_12_RN_15_RD_20_1.png","C_Dist_500_LN_3_LD_30_RN_6_RD_10_1.png","C_Dist_500_LN_3_LD_8_RN_14_RD_16_1.png","C_Dist_500_LN_4_LD_16_RN_15_RD_20_1.png","C_Dist_500_LN_4_LD_24_RN_12_RD_18_1.png","C_Dist_500_LN_5_LD_14_RN_6_RD_7_1.png","C_Dist_500_LN_7_LD_21_RN_20_RD_24_1.png","C_Dist_500_LN_7_LD_28_RN_12_RD_16_1.png","C_Dist_500_LN_7_LD_28_RN_9_RD_12_1.png","C_Dist_500_LN_9_LD_27_RN_20_RD_24_1.png"]],"dist500_I":[["I_Dist_500_LN_2_LD_3_RN_4_RD_24_0.png","I_Dist_500_LN_5_LD_6_RN_6_RD_18_0.png","I_Dist_500_LN_7_LD_8_RN_9_RD_24_0.png"],["I_Dist_500_LN_7_LD_21_RN_5_RD_6_1.png"]],"dist500_S":[["E_Dist_500_LN_6_LD_8_RN_6_RD_24_0.png"],["E_Dist_500_LN_2_LD_12_RN_2_RD_3_1.png","E_Dist_500_LN_6_LD_24_RN_6_RD_8_1.png"]]}},{"start_time":1551793963979,"click_time":1551793966699,"finger_time":1551793965719,"fix_duration":958.0994472735664,"trial":1,"RT":1740,"MT":980,"sideResp":1,"stimulus":[],"xmouse":[797,797,797,797,797,797,797,797,797,797,797,797,797,797,797,797,797,797,797,797,797,797,797,797,797,797,797,797,797,797,797,797,797,797,797,797,797,797,797,797,797,797,797,797,797,797,797,797,797,797,797,797,798,798,798,798,798,798,798,798,798,798,798,798,798,798,798,798,798,798,798,798,798,798,798,798,798,798,798,798,798,798,799,799,799,799,795,773,756,728,713,705,697,697,700,705,710,715,715,715,715,715,715,715,713,711,711,709,707,703,694,684,662,651,638,624,608,580,570,563,550,542,536,532,532,532,532,532,532,532,532,532,532,532,532,530,519],"ymouse":[523,523,523,523,523,523,523,523,523,523,523,523,523,523,523,523,523,523,523,523,523,523,523,523,523,523,523,523,523,523,523,523,523,523,523,523,523,523,523,523,523,523,523,523,523,523,523,523,523,523,523,523,522,522,522,522,522,522,522,522,522,522,522,522,522,522,521,521,521,521,521,521,521,521,521,521,521,521,521,521,521,521,520,518,514,507,495,458,432,384,353,331,298,286,278,273,272,273,273,273,273,273,273,273,271,269,268,266,265,263,257,253,240,234,228,221,212,192,181,168,143,119,95,63,58,57,57,57,57,57,57,57,57,57,57,56,56],"timestamp_mouse":[3,22,41,60,81,101,120,141,161,182,202,220,242,261,280,301,322,341,360,380,400,421,441,460,481,502,520,540,562,581,600,620,641,661,682,701,721,741,762,782,801,820,841,861,882,900,921,942,961,980,1000,1020,1041,1061,1080,1101,1121,1141,1161,1180,1200,1222,1240,1262,1282,1301,1320,1341,1362,1381,1401,1422,1440,1461,1481,1502,1521,1542,1560,1580,1601,1622,1640,1660,1682,1701,1722,1740,1760,1780,1801,1821,1841,1861,1881,1901,1920,1940,1961,1981,2001,2021,2041,2060,2080,2100,2121,2140,2160,2180,2201,2221,2240,2260,2281,2301,2321,2340,2361,2381,2401,2421,2440,2460,2481,2501,2521,2541,2561,2581,2601,2620,2641,2662,2681,2701,2720],"xSR":741.5,"ySR":469.95,"xT1":424.9,"yT1":0,"xT2":1058.1,"yT2":0,"toosoon":0,"cond_shown":"Congruent","ratio_trial":100,"L_num":15,"L_den":25,"R_num":13,"R_den":26,"correct_side":1,"subjID":"mariajosecedeñopinzon34","gender":"1","school":"6","age":"11"},{"start_time":1551793970328,"click_time":1551793972340,"finger_time":1551793971940,"fix_duration":288.0915546692582,"trial":2,"RT":1612,"MT":400,"sideResp":1,"stimulus":[],"xmouse":[806,805,803,799,796,796,796,796,796,795,793,792,792,792,792,793,799,802,802,802,792,779,772,766,763,763,763,763,762,760,759,759,758,758,758,758,758,758,755,751,749,747,746,746,746,746,746,746,746,746,746,746,746,746,746,746,746,746,746,746,746,746,746,746,746,746,746,746,746,746,746,746,746,746,746,746,746,746,745,742,740,738,734,729,723,704,689,667,645,603,578,569,539,524,502,492,487,482,482,482,482],"ymouse":[526,525,522,521,519,519,519,519,519,519,519,519,519,519,519,519,520,521,521,522,524,532,536,538,538,538,538,537,536,532,532,530,530,530,530,529,529,527,522,514,511,508,507,507,507,507,507,507,507,507,507,507,507,507,507,507,507,507,507,507,507,507,507,507,507,507,507,507,507,507,507,507,507,507,507,507,507,507,505,500,496,493,486,477,466,431,406,376,345,290,248,232,190,170,140,126,117,109,106,100,99],"timestamp_mouse":[12,31,51,73,92,112,131,153,173,191,213,231,251,272,292,311,332,351,371,391,411,431,452,473,492,512,531,551,573,592,613,633,652,673,692,712,733,752,771,792,812,831,851,872,893,912,932,953,972,992,1012,1031,1053,1072,1092,1112,1132,1153,1172,1191,1213,1233,1252,1271,1292,1312,1331,1351,1372,1392,1413,1432,1451,1473,1492,1511,1532,1553,1573,1591,1612,1633,1652,1671,1691,1711,1732,1752,1771,1791,1812,1832,1851,1871,1891,1911,1933,1953,1971,1991,2011],"xSR":741.5,"ySR":469.95,"xT1":424.9,"yT1":0,"xT2":1058.1,"yT2":0,"toosoon":0,"cond_shown":"Incongruent","ratio_trial":200,"L_num":4,"L_den":5,"R_num":6,"R_den":10,"correct_side":1,"subjID":"mariajosecedeñopinzon34","gender":"1","school":"6","age":"11"},{"start_time":1551793975479,"click_time":1551793979119,"finger_time":1551793978680,"fix_duration":598.7609545378851,"trial":3,"RT":3201,"MT":439,"sideResp":2,"stimulus":[],"xmouse":[820,818,812,811,809,809,809,808,806,805,802,800,799,797,797,797,797,797,797,797,797,797,797,797,797,797,797,797,797,797,797,797,797,797,797,797,797,797,797,797,797,797,797,797,797,797,797,797,797,797,797,797,797,797,797,797,797,797,797,797,797,797,797,797,797,797,797,797,797,797,797,797,797,797,797,797,797,797,797,797,797,797,797,798,798,798,798,798,798,798,798,798,798,798,798,798,798,798,798,798,798,799,799,799,800,800,800,800,800,800,800,800,800,800,800,800,800,800,800,800,800,800,800,800,800,800,800,800,800,800,800,800,800,800,800,801,801,801,801,801,801,801,799,798,798,798,798,799,802,803,805,806,806,806,806,806,806,810,821,836,854,877,966,987,1019,1050,1062,1081,1089,1097,1103,1107,1112,1113,1113,1113,1109,1100,1098,1097,1098,1105,1137],"ymouse":[513,512,512,512,512,512,512,512,512,512,512,512,512,512,513,513,513,513,513,513,513,513,513,513,513,513,513,513,513,513,513,513,513,513,513,513,513,513,513,513,513,513,513,513,513,513,513,513,513,513,513,513,513,513,513,513,513,513,513,513,513,513,513,513,513,513,513,513,513,513,513,513,513,513,513,513,513,513,513,513,513,513,513,512,512,512,512,512,512,512,512,512,512,512,512,512,512,512,512,512,512,511,511,510,509,509,509,509,508,508,507,506,504,504,504,504,504,504,504,504,504,504,504,504,504,504,504,504,504,504,504,504,502,501,499,498,497,495,493,492,490,488,483,481,481,481,481,481,481,482,482,483,483,483,483,483,483,483,478,470,455,439,396,386,368,348,340,324,318,308,296,282,252,233,216,192,174,142,130,118,110,101,86],"timestamp_mouse":[0,20,40,62,80,102,122,140,160,181,200,221,240,260,280,300,321,341,362,382,400,421,442,461,480,501,521,540,561,581,600,621,640,661,680,701,720,741,761,780,801,821,841,860,882,901,920,941,961,980,1000,1020,1041,1060,1080,1100,1120,1141,1161,1181,1200,1222,1241,1260,1282,1302,1320,1342,1360,1381,1402,1421,1441,1462,1482,1502,1521,1540,1562,1581,1601,1622,1641,1661,1680,1701,1720,1740,1762,1780,1800,1822,1841,1860,1880,1902,1922,1941,1961,1981,2001,2020,2040,2061,2081,2100,2121,2141,2161,2180,2200,2220,2240,2262,2280,2301,2321,2341,2361,2381,2401,2421,2441,2461,2482,2500,2521,2541,2561,2581,2601,2620,2640,2661,2681,2700,2720,2741,2760,2781,2800,2821,2840,2860,2881,2900,2921,2941,2961,2981,3001,3022,3041,3061,3081,3101,3121,3141,3160,3181,3201,3221,3241,3261,3281,3300,3321,3340,3360,3381,3400,3421,3440,3460,3480,3501,3522,3541,3560,3580,3601,3622,3640],"xSR":741.5,"ySR":469.95,"xT1":424.9,"yT1":0,"xT2":1058.1,"yT2":0,"toosoon":0,"cond_shown":"Incongruent","ratio_trial":100,"L_num":6,"L_den":10,"R_num":7,"R_den":14,"correct_side":1,"subjID":"mariajosecedeñopinzon34","gender":"1","school":"6","age":"11"},{"start_time":1551793981720,"click_time":1551793984519,"finger_time":1551793984059,"fix_duration":1119.8338698726304,"trial":4,"RT":2339,"MT":460,"sideResp":2,"stimulus":[],"xmouse":[800,800,800,800,800,800,800,800,800,800,800,800,800,800,800,800,799,799,799,798,798,798,798,798,797,797,797,797,797,797,797,797,797,797,797,797,797,797,797,797,797,797,797,797,797,797,797,797,797,797,797,797,797,797,797,797,797,797,797,797,797,797,797,797,797,796,795,795,794,794,794,794,794,794,794,794,794,794,794,793,793,791,790,789,788,788,788,788,788,788,788,788,788,788,788,788,788,788,788,788,788,788,787,787,787,787,787,787,787,787,787,787,787,787,787,787,789,791,793,800,804,809,819,832,879,908,935,962,979,1010,1023,1032,1039,1043,1049,1049,1050,1051,1052,1064],"ymouse":[509,509,509,509,509,509,509,509,509,509,509,509,509,509,509,509,509,509,509,509,509,509,509,509,508,508,508,508,508,508,508,508,508,508,508,508,508,508,508,508,508,508,508,508,508,508,508,508,508,508,508,508,508,508,508,508,508,508,508,508,508,508,508,508,506,504,503,501,500,500,500,500,500,500,500,500,500,500,499,497,495,492,489,486,484,483,483,483,483,483,483,482,482,482,482,482,482,482,481,481,480,480,479,479,479,479,479,479,479,478,477,477,476,475,473,471,468,463,457,440,428,413,376,335,202,145,94,62,45,19,10,5,3,3,5,5,6,6,11,35],"timestamp_mouse":[21,39,59,79,100,120,140,159,181,200,220,240,259,281,299,320,339,359,381,400,419,440,461,479,500,519,540,559,580,600,620,639,660,680,700,720,739,760,781,799,819,841,860,879,900,919,939,960,981,1001,1019,1041,1059,1080,1101,1119,1139,1160,1181,1200,1220,1240,1260,1280,1300,1319,1339,1361,1379,1400,1421,1439,1460,1480,1500,1520,1539,1560,1581,1599,1620,1639,1661,1679,1700,1721,1740,1759,1779,1800,1819,1840,1859,1880,1899,1919,1939,1959,1981,2000,2020,2039,2060,2081,2099,2121,2139,2161,2180,2200,2219,2241,2261,2280,2300,2319,2339,2359,2380,2399,2421,2439,2459,2479,2500,2519,2540,2560,2579,2599,2621,2640,2660,2681,2700,2719,2740,2760,2779,2799],"xSR":741.5,"ySR":469.95,"xT1":424.9,"yT1":0,"xT2":1058.1,"yT2":0,"toosoon":0,"cond_shown":"Incongruent","ratio_trial":100,"L_num":6,"L_den":12,"R_num":3,"R_den":5,"correct_side":2,"subjID":"mariajosecedeñopinzon34","gender":"1","school":"6","age":"11"},{"start_time":1551793988383,"click_time":1551793991119,"finger_time":1551793990619,"fix_duration":1161.6758327618588,"trial":5,"RT":2236,"MT":500,"sideResp":2,"stimulus":[],"xmouse":[790,789,789,789,789,789,788,788,788,788,787,787,787,787,787,786,786,786,786,786,786,786,786,786,786,786,786,786,786,786,786,786,786,786,786,786,786,786,786,786,786,786,786,786,786,786,786,786,786,786,786,786,786,786,786,786,786,786,786,786,786,786,786,786,786,786,786,786,786,786,786,786,786,786,786,786,786,786,786,785,785,782,781,781,781,781,779,779,779,779,779,779,779,779,779,779,779,779,779,779,779,779,779,779,779,779,779,779,782,786,790,810,822,833,845,858,901,914,937,965,979,1005,1016,1023,1028,1031,1034,1036,1038,1041,1041,1042,1044,1045,1048,1051,1064],"ymouse":[501,500,500,499,499,499,499,499,499,499,499,499,499,499,499,498,498,498,498,498,498,498,498,498,498,498,498,498,498,498,498,498,498,498,498,498,498,498,498,498,498,498,498,498,498,498,498,498,498,498,498,498,498,498,498,498,498,498,498,498,498,498,498,498,498,498,498,498,498,498,498,498,498,498,498,498,498,498,498,498,497,491,489,488,487,486,483,483,482,482,482,482,482,482,482,482,482,482,482,482,482,482,482,482,482,482,482,482,481,478,474,457,446,434,418,401,345,331,304,269,248,205,185,168,156,145,132,128,123,118,116,114,112,110,106,102,87],"timestamp_mouse":[17,37,58,78,96,116,138,156,177,197,218,237,256,277,296,317,336,357,377,398,417,437,456,478,498,516,537,556,576,597,618,637,656,677,697,718,736,757,777,796,817,836,856,876,896,916,938,957,977,998,1016,1037,1056,1076,1098,1116,1138,1157,1177,1196,1216,1237,1256,1277,1296,1316,1336,1358,1377,1396,1416,1437,1458,1477,1496,1518,1536,1557,1578,1597,1617,1636,1657,1676,1696,1716,1737,1757,1776,1798,1818,1837,1858,1878,1896,1916,1937,1958,1977,1997,2017,2036,2056,2078,2096,2117,2136,2157,2176,2198,2217,2236,2256,2277,2297,2317,2337,2357,2376,2396,2417,2436,2456,2477,2497,2517,2536,2557,2576,2596,2616,2637,2656,2678,2697,2716,2736],"xSR":741.5,"ySR":469.95,"xT1":424.9,"yT1":0,"xT2":1058.1,"yT2":0,"toosoon":0,"cond_shown":"Incongruent","ratio_trial":100,"L_num":6,"L_den":10,"R_num":7,"R_den":14,"correct_side":1,"subjID":"mariajosecedeñopinzon34","gender":"1","school":"6","age":"11"},{"start_time":1551793993463,"click_time":1551793995700,"finger_time":1551793995419,"fix_duration":922.7667852256337,"trial":6,"RT":1956,"MT":281,"sideResp":2,"stimulus":[],"xmouse":[749,749,749,749,749,749,749,749,749,749,749,750,750,751,751,751,751,751,751,751,751,751,751,751,751,751,751,751,751,751,751,751,751,751,751,751,752,752,752,752,752,752,752,752,752,752,752,752,752,752,752,752,752,752,752,752,752,752,752,752,752,752,752,752,752,752,752,752,752,752,752,752,752,752,752,752,752,752,752,752,752,752,752,752,752,752,752,752,752,752,752,752,752,752,754,765,780,824,860,894,927,951,984,1007,1012,1028,1035,1041,1043,1047,1054,1065],"ymouse":[512,512,512,512,512,512,512,512,512,512,512,513,513,514,514,514,514,514,514,514,514,514,514,514,514,514,514,514,514,514,514,514,514,514,514,514,514,514,514,514,514,514,514,514,514,514,514,514,514,514,514,514,514,514,514,514,514,514,514,514,514,514,514,514,514,514,514,514,514,514,514,514,514,514,514,514,514,514,514,514,514,514,514,514,514,514,514,514,514,514,514,514,514,514,514,505,497,464,432,389,338,291,208,158,147,123,115,108,107,104,99,93],"timestamp_mouse":[16,37,57,77,96,118,138,156,176,198,218,236,256,276,298,318,336,356,377,398,417,436,458,476,498,517,537,556,576,596,617,638,657,677,697,718,736,757,776,797,818,836,858,878,897,917,938,956,977,998,1018,1037,1058,1076,1097,1118,1136,1157,1177,1196,1217,1238,1256,1277,1298,1316,1338,1356,1378,1398,1417,1436,1457,1476,1498,1517,1536,1557,1576,1597,1617,1637,1657,1678,1696,1718,1737,1758,1777,1797,1817,1837,1857,1876,1896,1918,1937,1956,1976,1998,2016,2037,2056,2078,2097,2117,2137,2156,2176,2196,2217,2237],"xSR":741.5,"ySR":469.95,"xT1":424.9,"yT1":0,"xT2":1058.1,"yT2":0,"toosoon":0,"cond_shown":"Incongruent","ratio_trial":300,"L_num":13,"L_den":26,"R_num":12,"R_den":15,"correct_side":2,"subjID":"mariajosecedeñopinzon34","gender":"1","school":"6","age":"11"},{"start_time":1551793998932,"click_time":1551794001119,"finger_time":1551794000700,"fix_duration":250,"trial":7,"RT":1768,"MT":419,"sideResp":2,"stimulus":[],"xmouse":[810,810,810,810,809,807,807,805,805,805,804,804,804,804,804,803,803,802,801,800,799,799,799,799,799,799,799,799,799,799,799,799,799,799,799,799,799,799,799,799,799,799,799,799,799,799,799,799,799,799,799,799,799,799,799,799,799,799,799,799,799,799,799,799,799,799,799,799,799,799,799,799,799,799,799,799,799,799,799,799,799,800,802,805,811,817,821,828,835,847,857,863,898,944,1045,1045,1045,1045,1045,1045,1045,1045,1045,1045,1045,1045,1045,1045,1045,1099],"ymouse":[561,560,560,560,559,557,555,553,552,550,549,548,547,546,544,544,543,542,540,537,536,534,534,534,534,534,534,534,534,534,534,534,534,534,534,534,534,534,534,534,534,534,534,534,534,534,534,534,534,534,534,534,534,534,534,534,534,534,534,534,534,534,534,534,534,534,534,534,534,534,534,534,534,534,534,534,534,533,533,532,532,529,525,520,506,496,488,477,464,441,416,404,323,241,37,37,37,37,37,37,37,37,37,37,37,37,37,37,37,14],"timestamp_mouse":[11,28,48,68,87,107,127,147,169,187,207,227,249,267,287,308,328,348,369,387,408,427,449,468,488,507,527,548,568,588,607,627,648,668,687,708,727,748,767,787,809,829,849,868,887,908,927,949,967,989,1008,1029,1047,1068,1088,1107,1128,1148,1169,1187,1208,1229,1247,1267,1288,1307,1329,1347,1369,1387,1407,1427,1449,1467,1488,1507,1527,1547,1568,1588,1607,1627,1648,1668,1688,1707,1728,1747,1768,1787,1808,1828,1849,1867,1887,1908,1928,1948,1967,1987,2007,2028,2048,2068,2088,2108,2128,2148,2168,2187],"xSR":741.5,"ySR":469.95,"xT1":424.9,"yT1":0,"xT2":1058.1,"yT2":0,"toosoon":0,"cond_shown":"Congruent","ratio_trial":100,"L_num":3,"L_den":6,"R_num":2,"R_den":5,"correct_side":1,"subjID":"mariajosecedeñopinzon34","gender":"1","school":"6","age":"11"},{"start_time":1551794003566,"click_time":1551794006419,"finger_time":1551794005499,"fix_duration":766.2602696092812,"trial":8,"RT":1933,"MT":920,"sideResp":2,"stimulus":[],"xmouse":[774,774,774,774,774,774,774,774,774,774,774,774,774,774,774,774,774,774,774,774,774,774,774,774,774,774,774,774,774,774,774,774,774,774,774,774,774,774,774,774,774,774,774,774,774,774,774,774,774,774,774,774,774,774,774,774,774,774,774,774,774,774,774,774,774,774,774,774,774,774,774,774,774,774,774,774,774,774,774,774,774,774,774,774,774,774,774,774,774,774,774,776,782,787,795,805,817,852,907,927,1000,1047,1163,1231,1291,1338,1361,1368,1368,1368,1368,1367,1344,1317,1290,1263,1240,1218,1216,1215,1215,1215,1215,1215,1215,1215,1213,1210,1207,1203,1198,1195,1184,1176,1170,1164,1161,1161,1161,1161,1161,1160,1158],"ymouse":[517,517,517,517,517,517,517,517,517,517,517,517,517,517,517,517,517,517,517,517,517,517,517,517,517,517,517,517,517,517,517,517,517,517,517,517,517,517,517,517,517,517,517,517,517,517,517,517,517,517,517,517,517,517,517,517,517,517,517,517,517,517,517,517,517,517,517,517,517,517,517,517,517,517,517,517,517,517,517,517,517,517,517,517,517,517,517,517,517,517,517,513,501,494,482,470,455,418,367,346,277,230,155,127,107,93,87,84,84,84,84,82,79,78,78,78,83,87,87,88,88,88,88,88,88,88,88,85,83,81,78,78,75,73,72,71,71,71,71,71,71,71,71],"timestamp_mouse":[14,33,55,75,93,114,134,154,173,195,213,234,254,273,294,314,333,353,374,394,414,433,455,473,493,514,535,553,573,595,614,635,655,673,694,714,735,753,774,795,815,833,853,874,894,914,935,954,973,995,1014,1033,1053,1074,1094,1113,1134,1155,1175,1195,1214,1235,1254,1273,1293,1314,1334,1353,1373,1394,1414,1433,1454,1475,1495,1514,1535,1554,1573,1594,1615,1633,1654,1674,1693,1714,1734,1753,1773,1794,1813,1833,1854,1873,1894,1914,1933,1953,1974,1994,2015,2034,2053,2073,2094,2114,2134,2154,2173,2193,2214,2233,2253,2274,2293,2314,2334,2353,2374,2394,2413,2434,2454,2473,2494,2515,2535,2554,2574,2594,2614,2634,2653,2673,2694,2714,2734,2753,2773,2793,2815,2833,2853],"xSR":741.5,"ySR":469.95,"xT1":424.9,"yT1":0,"xT2":1058.1,"yT2":0,"toosoon":0,"cond_shown":"Incongruent","ratio_trial":200,"L_num":7,"L_den":10,"R_num":14,"R_den":28,"correct_side":1,"subjID":"mariajosecedeñopinzon34","gender":"1","school":"6","age":"11"},{"start_time":1551794008400,"click_time":1551794010521,"finger_time":1551794010102,"fix_duration":578.266557866233,"trial":9,"RT":1702,"MT":419,"sideResp":1,"stimulus":[],"xmouse":[777,777,777,777,777,777,777,777,777,777,777,777,777,777,777,777,777,777,777,777,777,777,777,777,777,777,777,777,777,777,777,777,777,777,777,777,777,777,777,777,777,777,777,777,777,777,777,777,777,777,777,777,777,777,777,777,777,777,777,777,777,777,777,777,777,777,777,777,777,777,777,777,777,777,777,777,777,777,777,777,777,777,769,761,754,746,728,719,716,705,693,646,613,587,568,553,537,531,528,524,521,515,512,509,509,509,509],"ymouse":[537,537,537,537,537,537,537,537,537,537,537,537,537,537,537,537,537,537,537,537,537,537,537,537,537,537,537,537,537,537,537,537,537,537,537,537,537,537,537,537,537,537,537,537,537,537,537,537,537,537,537,537,537,537,537,537,537,537,537,537,537,537,537,537,537,537,537,537,537,537,537,537,537,537,537,537,537,537,537,537,537,530,513,496,480,465,435,418,411,385,364,303,271,251,235,224,215,211,207,199,192,178,172,162,149,130,84],"timestamp_mouse":[4,26,41,61,82,102,121,142,162,181,203,221,241,261,283,302,323,341,362,383,403,422,441,461,482,502,521,542,563,583,602,622,641,662,683,702,721,741,762,782,803,821,842,863,882,902,922,943,961,982,1001,1021,1042,1063,1081,1103,1122,1141,1162,1183,1201,1221,1242,1262,1281,1303,1321,1341,1363,1382,1401,1422,1442,1462,1481,1502,1522,1542,1563,1582,1603,1621,1641,1662,1682,1702,1721,1743,1762,1783,1802,1821,1841,1862,1881,1903,1921,1942,1962,1982,2002,2022,2041,2062,2081,2102,2121],"xSR":741.5,"ySR":469.95,"xT1":424.9,"yT1":0,"xT2":1058.1,"yT2":0,"toosoon":0,"cond_shown":"Incongruent","ratio_trial":200,"L_num":1,"L_den":2,"R_num":3,"R_den":10,"correct_side":1,"subjID":"mariajosecedeñopinzon34","gender":"1","school":"6","age":"11"},{"start_time":1551794016382,"click_time":1551794018342,"finger_time":1551794017861,"fix_duration":1459.967511724776,"trial":10,"RT":1479,"MT":481,"sideResp":1,"stimulus":[],"xmouse":[790,790,790,790,790,790,790,790,790,790,790,790,790,790,790,790,790,790,790,790,790,790,790,790,790,790,790,790,790,790,790,790,790,790,790,790,790,790,790,790,790,790,790,790,790,790,790,790,790,790,790,790,790,790,790,790,790,790,790,790,790,790,790,790,790,790,790,790,790,784,781,780,779,779,778,777,773,760,750,722,682,613,456,405,371,353,349,349,349,349,349,349,349,352,354,357,362,387,426],"ymouse":[490,490,490,490,490,490,490,490,490,490,490,490,490,490,490,490,490,490,490,490,490,490,490,490,490,490,490,490,490,490,490,490,490,490,490,490,490,490,490,490,490,490,490,490,490,490,490,490,490,490,490,490,490,490,490,490,490,490,490,490,490,490,490,490,490,490,490,490,485,477,474,473,472,472,468,465,455,429,413,383,342,286,180,147,128,118,115,115,114,112,98,89,77,72,70,68,66,59,53],"timestamp_mouse":[1,23,40,60,80,100,121,140,159,180,199,221,241,260,279,300,321,339,360,379,400,421,440,460,479,500,521,539,560,581,599,620,640,659,680,699,719,740,761,780,799,819,840,861,880,900,920,940,961,979,999,1019,1039,1061,1079,1101,1120,1139,1160,1179,1200,1220,1240,1259,1279,1301,1321,1339,1359,1379,1401,1419,1440,1459,1479,1500,1520,1539,1559,1579,1601,1620,1640,1659,1679,1699,1719,1739,1760,1780,1800,1820,1840,1859,1881,1900,1921,1940,1960],"xSR":741.5,"ySR":469.95,"xT1":424.9,"yT1":0,"xT2":1058.1,"yT2":0,"toosoon":0,"cond_shown":"Congruent","ratio_trial":200,"L_num":3,"L_den":10,"R_num":7,"R_den":14,"correct_side":2,"subjID":"mariajosecedeñopinzon34","gender":"1","school":"6","age":"11"},{"start_time":1551794020473,"click_time":1551794025383,"finger_time":1551794022422,"fix_duration":250,"trial":11,"RT":1949,"MT":2961,"sideResp":2,"stimulus":[],"xmouse":[801,801,801,801,801,801,801,801,801,801,801,801,801,801,801,801,801,801,801,801,801,801,801,801,801,801,801,801,801,802,802,802,802,802,802,802,802,802,802,802,802,802,802,802,802,802,802,802,802,802,802,802,802,802,802,802,802,802,802,802,802,802,802,802,802,802,802,802,802,802,802,802,802,802,802,802,802,802,802,802,802,802,802,802,802,802,802,800,799,798,796,794,789,788,785,784,782,778,775,774,774,774,774,774,773,773,772,771,771,771,771,771,770,770,769,769,768,768,768,768,768,768,768,768,768,768,768,768,768,768,768,768,768,768,768,768,768,768,768,768,768,768,768,768,768,768,768,768,768,768,768,768,768,768,768,768,767,762,760,758,758,758,758,758,758,758,758,758,758,758,758,758,758,757,757,757,757,757,757,757,757,757,757,757,757,757,757,757,757,757,757,757,757,757,757,757,757,757,757,758,758,759,759,760,760,761,761,763,763,764,765,765,766,769,773,780,782,791,796,799,801,804,811,816,824,840,855,888,908,929,949,968,990,994,999,1002,1007,1021,1031,1039,1050,1055,1057,1058,1058,1060],"ymouse":[525,525,525,525,525,525,525,525,525,525,525,525,525,525,525,525,525,525,525,525,525,525,525,525,525,525,525,525,525,525,525,525,525,525,525,525,525,525,525,525,525,525,525,525,525,525,525,525,525,525,525,524,523,523,523,523,523,523,522,522,522,522,522,521,520,520,519,519,519,519,519,519,519,519,519,518,518,518,518,518,518,518,518,518,516,515,515,512,510,509,504,501,491,486,481,475,470,459,453,452,450,450,450,450,449,448,447,445,444,444,444,444,443,443,441,439,438,438,438,438,438,438,438,438,438,438,438,438,438,438,438,438,438,438,438,438,438,438,438,438,438,438,438,438,438,438,438,438,438,438,438,438,438,438,438,438,437,431,428,428,428,428,428,428,428,428,428,428,428,428,428,428,428,427,426,425,425,423,423,423,423,423,422,421,420,420,420,420,420,420,420,420,420,420,420,420,420,420,420,418,418,417,417,415,414,412,411,406,403,401,400,400,399,399,399,398,397,392,390,388,387,386,385,382,379,372,365,344,326,300,270,233,170,144,114,98,86,73,73,74,78,81,84,86,87,88],"timestamp_mouse":[9,29,48,69,90,108,128,150,169,188,210,229,249,269,288,309,330,349,368,388,408,429,449,468,489,509,528,548,569,589,609,628,648,668,688,709,729,749,768,789,809,830,848,870,890,909,929,948,970,988,1008,1029,1049,1068,1089,1110,1129,1148,1169,1188,1210,1229,1249,1268,1290,1308,1329,1349,1368,1388,1408,1429,1449,1469,1488,1508,1528,1548,1569,1590,1608,1630,1649,1670,1688,1709,1728,1749,1768,1789,1809,1829,1848,1869,1889,1909,1928,1949,1969,1988,2008,2028,2048,2068,2089,2108,2128,2149,2169,2188,2209,2230,2248,2268,2288,2309,2330,2348,2368,2389,2409,2430,2449,2468,2490,2509,2530,2549,2569,2589,2609,2630,2648,2668,2689,2709,2729,2749,2768,2788,2810,2829,2849,2870,2889,2909,2930,2948,2969,2988,3009,3029,3048,3069,3088,3108,3129,3149,3168,3189,3209,3228,3249,3269,3289,3309,3330,3349,3368,3388,3410,3429,3448,3469,3488,3508,3528,3548,3569,3590,3608,3629,3648,3668,3689,3709,3729,3749,3770,3790,3808,3830,3849,3868,3888,3909,3930,3949,3968,3989,4008,4028,4048,4069,4088,4109,4128,4149,4169,4190,4208,4229,4248,4269,4289,4309,4328,4348,4368,4389,4409,4430,4448,4470,4489,4509,4529,4549,4568,4589,4609,4630,4649,4668,4688,4708,4729,4748,4768,4790,4808,4828,4848,4870,4888,4910],"xSR":741.5,"ySR":469.95,"xT1":424.9,"yT1":0,"xT2":1058.1,"yT2":0,"toosoon":0,"cond_shown":"Congruent","ratio_trial":100,"L_num":3,"L_den":20,"R_num":4,"R_den":16,"correct_side":2,"subjID":"mariajosecedeñopinzon34","gender":"1","school":"6","age":"11"},{"start_time":1551794031255,"click_time":1551794034041,"finger_time":1551794033261,"fix_duration":973.6744871403668,"trial":12,"RT":2006,"MT":780,"sideResp":1,"stimulus":[],"xmouse":[788,788,788,788,788,788,788,788,788,788,788,788,788,788,788,788,788,788,788,788,788,788,788,788,788,788,788,788,788,788,788,788,788,788,788,788,788,788,788,788,788,788,788,788,788,788,788,788,788,788,788,788,788,788,788,788,788,788,788,788,788,788,788,788,788,788,788,788,788,788,788,788,788,788,788,788,788,788,788,788,788,788,788,788,788,788,788,788,788,789,789,789,789,789,789,789,789,789,793,800,805,807,808,810,810,810,810,810,810,810,810,810,810,807,800,781,763,740,696,677,661,646,638,620,604,598,573,556,527,517,508,500,495,484,478,473,464,457,449,448],"ymouse":[530,530,530,530,530,530,528,527,525,525,525,525,525,525,525,525,525,525,525,525,525,525,525,525,525,525,525,525,525,525,525,525,525,525,525,525,525,525,525,525,525,525,525,525,525,525,525,525,525,525,525,525,525,525,525,525,525,525,525,525,525,525,525,525,525,525,525,525,525,525,525,525,525,525,525,525,525,525,525,525,525,525,525,525,525,525,525,525,525,522,521,520,519,514,512,508,506,503,481,471,465,463,461,458,458,458,458,456,454,453,453,453,453,446,437,420,409,397,376,366,357,348,343,329,315,309,288,273,243,231,218,207,199,182,173,162,148,135,110,93],"timestamp_mouse":[10,28,46,67,87,107,127,146,167,187,207,227,246,266,287,308,327,346,367,387,406,427,448,466,486,508,526,548,568,586,607,628,647,667,688,706,727,747,768,787,806,828,847,866,886,907,928,948,966,987,1007,1027,1047,1067,1088,1106,1127,1147,1166,1187,1207,1227,1248,1267,1287,1306,1328,1346,1366,1387,1407,1427,1446,1467,1488,1508,1527,1546,1568,1586,1606,1627,1647,1666,1687,1706,1728,1747,1767,1788,1807,1826,1847,1866,1886,1907,1927,1947,1967,1986,2006,2027,2047,2066,2086,2106,2127,2147,2166,2186,2207,2227,2247,2266,2286,2306,2327,2347,2366,2386,2408,2426,2447,2466,2487,2507,2527,2547,2567,2586,2607,2627,2647,2666,2687,2707,2728,2747,2766,2786],"xSR":741.5,"ySR":469.95,"xT1":424.9,"yT1":0,"xT2":1058.1,"yT2":0,"toosoon":0,"cond_shown":"Incongruent","ratio_trial":300,"L_num":8,"L_den":10,"R_num":14,"R_den":28,"correct_side":1,"subjID":"mariajosecedeñopinzon34","gender":"1","school":"6","age":"11"},{"start_time":1551794038006,"click_time":1551794040421,"finger_time":1551794040082,"fix_duration":1164.4600640754334,"trial":13,"RT":2076,"MT":339,"sideResp":1,"stimulus":[],"xmouse":[788,788,788,788,788,788,788,788,788,788,788,788,788,788,788,788,788,788,788,788,788,788,788,788,788,788,788,788,788,788,788,788,788,788,788,788,788,788,788,788,788,788,788,788,788,788,788,788,788,788,788,788,788,788,788,788,788,788,788,788,788,788,788,788,788,788,788,788,788,788,788,788,788,788,788,788,788,788,788,789,789,789,789,789,789,789,789,789,789,789,789,789,789,789,789,789,789,789,788,786,776,767,758,745,731,702,684,657,635,607,579,532,514,494,475,454,449,445,442,441,440],"ymouse":[506,506,506,506,506,506,506,506,506,506,506,506,506,506,506,506,506,506,506,506,506,506,506,506,506,506,506,506,506,506,506,506,506,506,506,506,506,506,506,506,506,506,506,506,506,506,506,506,506,506,506,506,506,506,506,506,506,506,506,506,506,506,506,506,506,506,506,506,506,506,506,506,506,506,506,506,506,506,506,505,505,505,504,504,504,504,504,504,504,503,503,503,502,502,500,499,498,496,494,491,482,478,472,465,457,437,424,402,382,343,307,247,223,201,179,147,136,124,111,102,88],"timestamp_mouse":[20,37,55,75,97,116,136,156,176,196,216,235,257,276,297,316,337,357,377,396,415,436,457,476,495,517,536,556,575,597,615,636,656,675,697,716,735,756,776,795,817,836,856,877,895,916,937,955,976,995,1016,1036,1057,1076,1096,1115,1135,1157,1176,1196,1215,1237,1256,1276,1296,1316,1335,1355,1375,1397,1416,1436,1455,1476,1497,1515,1536,1557,1575,1597,1615,1637,1656,1675,1695,1716,1735,1755,1775,1796,1816,1836,1856,1875,1897,1916,1936,1955,1977,1997,2016,2035,2055,2076,2096,2115,2136,2155,2176,2196,2215,2235,2256,2276,2295,2315,2335,2356,2377,2396,2415],"xSR":741.5,"ySR":469.95,"xT1":424.9,"yT1":0,"xT2":1058.1,"yT2":0,"toosoon":0,"cond_shown":"Incongruent","ratio_trial":200,"L_num":4,"L_den":5,"R_num":6,"R_den":10,"correct_side":1,"subjID":"mariajosecedeñopinzon34","gender":"1","school":"6","age":"11"},{"start_time":1551794043892,"click_time":1551794045721,"finger_time":1551794045342,"fix_duration":250,"trial":14,"RT":1450,"MT":379,"sideResp":2,"stimulus":[],"xmouse":[763,763,763,763,763,763,763,763,763,763,763,763,763,763,763,763,763,763,763,763,763,763,763,763,763,763,763,763,763,763,763,763,763,763,763,763,763,763,763,763,763,763,763,763,763,763,763,763,763,763,763,763,763,763,763,763,763,763,763,763,763,763,763,763,763,763,763,763,763,763,770,809,848,893,945,973,1015,1028,1038,1043,1052,1070,1079,1088,1095,1099,1099,1099,1099,1099,1099,1099],"ymouse":[505,505,505,505,505,505,505,505,505,505,505,505,505,505,505,505,505,505,505,505,505,505,505,505,505,505,505,505,505,505,505,505,505,505,505,505,505,505,505,505,505,505,505,505,505,505,505,505,505,505,505,505,505,505,505,505,505,505,505,505,505,505,505,505,505,505,505,505,505,505,504,495,488,479,464,456,443,436,429,422,408,374,352,326,278,246,193,170,148,128,112,82],"timestamp_mouse":[11,30,50,71,90,109,129,149,170,190,210,230,250,271,289,310,329,351,371,389,409,430,449,469,489,511,530,550,571,589,611,629,649,670,689,711,729,749,770,789,809,830,849,871,889,910,931,950,971,990,1009,1031,1050,1071,1091,1109,1129,1150,1169,1191,1209,1230,1250,1271,1290,1310,1330,1351,1369,1389,1411,1429,1450,1470,1489,1510,1530,1549,1570,1589,1609,1629,1649,1670,1689,1710,1730,1749,1771,1790,1810,1829],"xSR":741.5,"ySR":469.95,"xT1":424.9,"yT1":0,"xT2":1058.1,"yT2":0,"toosoon":0,"cond_shown":"Congruent","ratio_trial":100,"L_num":15,"L_den":25,"R_num":13,"R_den":26,"correct_side":1,"subjID":"mariajosecedeñopinzon34","gender":"1","school":"6","age":"11"},{"start_time":1551794048407,"click_time":1551794054122,"finger_time":1551794052421,"fix_duration":1144.8633935387438,"trial":15,"RT":4014,"MT":1701,"sideResp":2,"stimulus":[],"xmouse":[779,779,779,779,779,779,779,779,779,779,779,779,779,779,779,779,779,779,779,779,779,778,774,774,774,774,774,774,774,774,774,774,774,774,774,774,774,774,774,774,774,774,774,774,774,774,774,774,774,774,774,774,774,774,774,774,774,774,774,774,774,774,774,774,774,774,774,774,774,774,774,774,774,774,774,774,774,774,774,774,774,774,774,774,774,774,774,774,774,774,774,774,774,774,774,774,774,774,774,774,774,774,774,774,774,774,774,774,774,774,774,774,774,774,774,774,774,774,774,774,774,774,774,774,774,774,774,774,774,774,774,774,774,774,774,774,774,774,774,774,774,774,774,774,774,774,774,774,774,774,774,774,774,774,774,774,774,774,774,774,774,774,774,774,774,776,776,776,776,776,776,776,776,776,776,776,776,776,776,776,776,776,776,776,776,776,776,776,776,776,776,776,776,776,778,781,785,790,795,800,830,856,882,906,916,891,799,600,478,388,376,412,501,616,743,941,968,970,963,940,830,782,755,743,742,750,779,791,828,850,866,876,876,862,830,678,596,512,500,499,646,833,1053,1274,1474,1474,1474,1474,1474,1474,1474,1474,1474,1474,1474,1474,1569,1552,1529,1518,1495,1483,1472,1467,1462,1450,1440,1424,1395,1371,1319,1288,1263,1241,1218,1195,1193,1193,1193,1193,1188,1185,1182,1180,1176,1145],"ymouse":[510,510,510,510,510,510,510,510,510,510,510,510,510,510,510,510,510,510,510,510,510,510,510,510,510,510,510,510,510,510,510,510,510,510,510,510,510,510,510,510,510,510,510,510,510,510,510,510,510,510,510,510,510,510,510,510,510,510,510,510,510,510,510,510,510,510,510,510,510,510,510,510,510,510,510,510,510,510,510,510,510,510,510,510,510,510,510,510,510,510,510,510,510,510,510,510,510,510,510,510,510,510,510,510,510,510,510,510,510,510,510,510,510,510,510,510,510,510,510,510,510,510,510,510,510,510,510,510,510,510,510,510,510,510,510,510,510,510,510,510,510,510,510,510,510,510,510,510,510,510,510,510,510,510,510,510,510,510,510,510,510,510,510,508,502,491,487,486,485,485,485,485,485,485,485,485,485,485,485,485,485,485,485,485,485,485,485,485,485,485,485,485,485,484,482,481,479,476,474,473,464,458,455,455,456,466,477,490,492,494,489,478,455,443,443,471,480,482,486,487,487,484,478,472,471,466,464,464,464,464,464,464,464,464,464,464,453,440,439,438,417,381,336,304,274,274,274,274,274,274,274,274,274,274,274,274,201,192,183,178,166,159,151,140,127,103,93,86,82,82,82,82,82,83,87,91,91,91,91,91,91,91,91,91,90,81],"timestamp_mouse":[18,36,54,76,96,114,135,155,175,196,214,235,256,275,295,315,334,356,375,395,414,435,455,474,494,515,535,554,576,595,614,636,654,676,695,715,736,754,774,795,814,835,854,875,894,915,936,956,976,995,1014,1034,1055,1074,1095,1116,1135,1154,1175,1196,1214,1235,1255,1276,1294,1316,1334,1354,1374,1395,1416,1435,1456,1476,1494,1514,1535,1555,1575,1594,1615,1636,1655,1675,1696,1714,1735,1754,1776,1796,1815,1836,1854,1875,1896,1915,1935,1956,1975,1994,2015,2036,2055,2076,2094,2114,2135,2155,2174,2194,2214,2236,2255,2274,2296,2316,2334,2354,2375,2395,2414,2435,2456,2476,2495,2515,2535,2556,2574,2594,2616,2634,2654,2675,2695,2714,2735,2756,2776,2794,2814,2836,2854,2876,2894,2914,2935,2955,2974,2995,3014,3035,3056,3074,3094,3115,3136,3155,3175,3196,3214,3236,3256,3274,3294,3314,3335,3354,3374,3396,3415,3434,3455,3475,3495,3515,3536,3554,3574,3596,3615,3634,3656,3676,3694,3715,3736,3754,3774,3796,3815,3835,3856,3874,3895,3914,3934,3954,3976,3995,4014,4034,4054,4075,4094,4114,4135,4154,4175,4195,4214,4234,4255,4275,4294,4314,4335,4354,4375,4395,4415,4434,4456,4475,4494,4514,4535,4555,4575,4595,4614,4634,4654,4675,4696,4714,4734,4754,4775,4795,4814,4834,4854,4874,4895,4914,4935,4954,4976,4994,5014,5034,5055,5074,5095,5114,5135,5155,5175,5195,5215,5234,5255,5275,5294,5314,5336,5355,5375,5395,5414,5434,5455,5475,5494,5514,5536,5554,5575,5595,5615,5634,5656,5675,5694,5715],"xSR":741.5,"ySR":469.95,"xT1":424.9,"yT1":0,"xT2":1058.1,"yT2":0,"toosoon":0,"cond_shown":"Congruent","ratio_trial":100,"L_num":11,"L_den":22,"R_num":6,"R_den":15,"correct_side":1,"subjID":"mariajosecedeñopinzon34","gender":"1","school":"6","age":"11"},{"start_time":1551794057185,"click_time":1551794061361,"finger_time":1551794060903,"fix_duration":861.1157734402364,"trial":16,"RT":3718,"MT":458,"sideResp":2,"stimulus":[],"xmouse":[781,781,781,782,782,783,784,785,785,785,785,785,785,785,785,785,785,785,785,785,785,785,785,785,785,785,785,785,785,785,785,785,785,785,785,785,785,785,785,785,785,785,785,785,785,785,785,785,785,785,785,785,785,785,785,785,785,785,785,785,785,785,785,785,785,785,785,785,785,785,785,785,785,785,785,785,785,785,785,785,785,785,785,785,785,785,785,785,785,785,785,785,785,785,785,785,785,785,785,785,785,785,785,785,785,785,785,785,785,785,785,785,785,785,785,785,785,785,785,785,785,785,785,785,785,785,785,785,785,785,785,785,785,785,785,785,785,785,785,785,785,785,785,785,785,785,785,785,785,785,785,785,785,785,785,785,785,785,785,785,785,785,785,785,787,788,791,794,794,794,794,794,794,794,794,794,794,794,794,794,794,794,798,802,810,816,837,853,890,914,933,945,945,945,947,951,960,962,966,973,979,994,1005,1017,1027,1036,1052,1054,1059],"ymouse":[499,499,499,499,498,498,498,498,498,498,498,498,498,498,498,498,498,498,498,498,498,498,498,498,498,498,498,498,498,498,498,498,498,498,498,498,498,498,498,498,498,498,498,498,498,498,498,498,498,498,498,498,498,498,498,498,498,498,498,498,498,498,498,498,498,498,498,498,498,498,498,498,498,498,498,498,498,498,498,498,498,498,498,498,498,498,498,498,498,498,498,498,498,498,498,498,498,498,498,498,498,498,498,498,498,498,498,498,498,498,498,498,498,498,498,498,498,498,498,498,498,498,498,498,498,498,498,498,498,498,498,498,498,498,498,498,498,498,498,498,498,498,498,498,498,498,498,498,498,498,498,498,498,498,498,498,498,498,498,498,498,498,498,498,497,496,495,493,493,493,493,493,493,493,493,493,493,493,493,493,493,493,489,484,477,469,445,423,378,345,317,281,268,253,237,221,193,185,176,160,148,127,114,101,87,73,36,26,1],"timestamp_mouse":[16,37,58,77,96,118,137,157,176,197,217,238,257,277,297,317,336,356,378,397,418,436,456,477,497,516,537,556,576,598,617,637,657,677,698,716,736,756,777,796,816,836,857,877,898,917,936,956,977,996,1017,1037,1058,1077,1097,1116,1136,1156,1178,1198,1216,1236,1256,1278,1296,1317,1336,1356,1377,1396,1418,1436,1456,1476,1496,1517,1537,1556,1577,1598,1617,1637,1658,1677,1696,1717,1737,1756,1776,1798,1818,1836,1858,1876,1896,1918,1937,1957,1977,1997,2017,2037,2056,2076,2098,2116,2136,2156,2177,2197,2216,2236,2256,2277,2297,2318,2336,2356,2377,2398,2416,2436,2456,2477,2496,2516,2537,2556,2576,2598,2617,2637,2657,2678,2696,2716,2736,2757,2776,2797,2816,2836,2856,2878,2896,2916,2936,2957,2977,2996,3018,3037,3057,3076,3096,3118,3136,3156,3176,3197,3216,3236,3256,3277,3296,3317,3336,3358,3377,3396,3418,3437,3456,3477,3497,3518,3536,3557,3576,3597,3618,3636,3656,3677,3697,3718,3736,3756,3776,3797,3817,3837,3856,3876,3897,3918,3936,3957,3977,3997,4016,4036,4056,4077,4096,4116,4136,4158,4176],"xSR":741.5,"ySR":469.95,"xT1":424.9,"yT1":0,"xT2":1058.1,"yT2":0,"toosoon":0,"cond_shown":"Incongruent","ratio_trial":300,"L_num":4,"L_den":20,"R_num":2,"R_den":4,"correct_side":2,"subjID":"mariajosecedeñopinzon34","gender":"1","school":"6","age":"11"},{"start_time":1551794065694,"click_time":1551794068222,"finger_time":1551794067321,"fix_duration":910.9037147446821,"trial":17,"RT":1627,"MT":901,"sideResp":1,"stimulus":[],"xmouse":[803,803,803,803,803,803,803,803,803,803,803,803,803,803,803,803,804,804,804,804,804,804,804,804,804,804,804,804,805,805,805,806,806,806,806,806,806,806,806,806,806,806,806,806,806,806,806,806,806,806,806,806,806,806,806,806,806,806,806,806,806,806,806,806,806,807,807,807,807,807,807,807,807,807,807,807,807,807,807,807,804,799,795,795,794,793,792,792,791,790,789,786,786,786,786,786,786,781,772,763,751,738,710,687,672,661,646,642,638,636,634,634,634,639,639,636,611,597,585,577,575,571,568,562,546,536,518],"ymouse":[520,520,520,520,519,518,517,516,515,514,512,512,512,512,511,511,511,511,510,510,509,509,509,509,509,509,508,508,506,506,506,505,505,504,504,503,503,503,503,503,503,503,503,503,503,503,503,503,503,503,503,503,503,503,503,503,503,503,503,503,503,503,503,502,501,501,501,501,501,501,501,501,501,501,500,500,497,495,490,484,473,454,441,438,431,428,423,419,414,406,397,380,373,370,366,364,360,353,344,335,325,317,300,287,276,268,258,253,250,246,241,206,180,137,114,99,85,84,82,80,80,78,77,75,71,68,62],"timestamp_mouse":[8,27,49,69,87,107,128,148,168,187,208,229,248,267,288,307,328,348,367,387,409,428,447,469,487,507,527,548,567,587,608,628,648,668,687,708,728,752,768,788,809,827,849,868,889,908,928,948,967,989,1009,1027,1049,1068,1087,1109,1128,1148,1167,1188,1208,1228,1247,1268,1289,1307,1329,1347,1368,1389,1407,1427,1449,1467,1488,1507,1527,1547,1567,1588,1609,1627,1649,1668,1687,1708,1728,1747,1768,1787,1808,1827,1848,1867,1888,1908,1927,1948,1968,1988,2009,2028,2049,2068,2089,2108,2128,2148,2168,2188,2209,2228,2248,2268,2289,2309,2328,2348,2368,2388,2409,2428,2449,2468,2488,2508,2528],"xSR":741.5,"ySR":469.95,"xT1":424.9,"yT1":0,"xT2":1058.1,"yT2":0,"toosoon":0,"cond_shown":"Incongruent","ratio_trial":100,"L_num":10,"L_den":25,"R_num":8,"R_den":16,"correct_side":2,"subjID":"mariajosecedeñopinzon34","gender":"1","school":"6","age":"11"},{"start_time":1551794072853,"click_time":1551794074922,"finger_time":1551794074242,"fix_duration":731.0973745731832,"trial":18,"RT":1389,"MT":680,"sideResp":2,"stimulus":[],"xmouse":[784,784,784,784,784,784,784,784,784,784,784,784,784,784,784,784,784,784,784,784,784,784,784,784,784,784,784,784,784,784,784,784,784,784,784,784,784,784,784,784,784,784,784,784,784,784,784,784,784,784,784,784,784,784,784,784,784,784,784,784,784,784,784,784,784,784,783,783,795,804,811,820,829,845,850,857,861,863,869,874,878,882,884,885,889,897,910,935,978,990,996,998,999,1004,1008,1017,1023,1026,1031,1032,1036,1043,1049,1064],"ymouse":[530,530,530,530,530,530,530,530,530,530,530,530,530,530,530,530,530,530,530,530,530,530,530,530,530,530,530,530,530,530,530,530,530,530,530,530,530,530,530,530,530,530,530,530,530,530,530,530,530,530,530,530,530,530,530,530,530,530,530,530,530,530,530,530,530,530,528,523,484,463,440,417,391,343,322,302,276,261,230,219,212,206,204,204,197,187,173,156,128,122,118,116,115,113,111,110,108,107,103,102,99,96,92,81],"timestamp_mouse":[9,29,50,69,89,110,129,149,170,190,210,230,250,269,289,309,330,349,369,391,409,429,450,469,491,510,529,550,569,589,610,629,650,669,690,710,730,750,769,790,809,830,849,869,890,909,929,949,969,990,1009,1029,1049,1069,1089,1109,1129,1150,1169,1190,1209,1229,1249,1269,1289,1309,1329,1349,1369,1389,1410,1430,1450,1469,1489,1510,1529,1550,1569,1589,1610,1629,1650,1669,1689,1709,1729,1749,1769,1788,1809,1829,1850,1868,1889,1909,1929,1949,1969,1989,2009,2029,2050,2069],"xSR":741.5,"ySR":469.95,"xT1":424.9,"yT1":0,"xT2":1058.1,"yT2":0,"toosoon":0,"cond_shown":"Incongruent","ratio_trial":200,"L_num":4,"L_den":30,"R_num":1,"R_den":3,"correct_side":2,"subjID":"mariajosecedeñopinzon34","gender":"1","school":"6","age":"11"},{"start_time":1551794079231,"click_time":1551794081762,"finger_time":1551794080802,"fix_duration":509.92604018246743,"trial":19,"RT":1571,"MT":960,"sideResp":1,"stimulus":[],"xmouse":[788,787,787,787,787,787,787,787,787,787,787,787,787,787,787,787,787,787,787,787,787,787,787,787,787,787,787,787,787,787,787,787,787,787,787,787,787,787,786,785,785,785,785,785,785,785,785,785,785,785,785,785,785,785,785,785,785,785,785,785,785,785,785,785,784,783,781,780,779,779,778,777,776,775,769,765,759,748,742,730,725,721,717,712,705,701,695,691,684,671,669,664,663,660,658,658,658,657,657,655,651,644,636,627,614,609,603,595,585,566,556,553,551,550,545,543,538,532,526,520,518,516,515,513,505,501,497],"ymouse":[508,508,508,508,508,508,508,508,508,508,508,508,508,508,508,508,508,508,508,508,508,508,508,508,508,508,508,508,508,508,508,508,508,508,508,508,508,508,508,507,507,506,506,506,506,506,506,506,506,506,506,506,506,506,506,506,506,506,506,506,506,506,506,506,506,505,503,502,501,501,500,499,498,497,491,487,482,474,469,461,457,452,449,444,437,434,428,425,418,407,405,401,399,396,392,392,392,391,390,383,376,359,344,330,311,301,291,268,246,211,196,192,189,186,178,175,168,159,152,142,139,137,134,129,112,105,96],"timestamp_mouse":[10,31,51,71,91,112,131,151,172,191,212,231,251,271,291,311,331,352,371,391,412,431,452,471,491,512,531,551,571,591,612,632,651,672,691,711,732,752,772,791,811,831,851,872,891,911,932,951,971,992,1011,1031,1051,1072,1091,1111,1132,1151,1171,1191,1211,1231,1251,1273,1291,1312,1331,1352,1372,1391,1411,1431,1451,1471,1491,1511,1531,1551,1571,1591,1611,1632,1651,1671,1691,1712,1731,1752,1772,1791,1811,1832,1851,1872,1890,1912,1931,1951,1971,1991,2011,2031,2050,2071,2091,2112,2131,2151,2172,2191,2211,2232,2251,2271,2291,2311,2331,2351,2371,2391,2411,2431,2451,2472,2491,2512,2531],"xSR":741.5,"ySR":469.95,"xT1":424.9,"yT1":0,"xT2":1058.1,"yT2":0,"toosoon":0,"cond_shown":"Incongruent","ratio_trial":100,"L_num":6,"L_den":10,"R_num":11,"R_den":22,"correct_side":1,"subjID":"mariajosecedeñopinzon34","gender":"1","school":"6","age":"11"},{"start_time":1551794087597,"click_time":1551794091842,"finger_time":1551794090102,"fix_duration":494.7970209410556,"trial":20,"RT":2505,"MT":1740,"sideResp":1,"stimulus":[],"xmouse":[770,770,770,770,770,770,770,770,770,770,770,770,770,770,770,770,770,770,770,770,770,770,770,770,770,770,770,770,770,770,770,770,770,770,770,770,770,770,770,770,770,770,770,770,770,770,770,770,770,770,770,770,770,770,770,770,770,770,770,770,770,770,770,770,770,770,770,770,770,770,770,770,770,770,770,770,770,770,770,770,770,770,770,770,770,770,770,770,770,770,770,770,770,770,770,770,770,770,770,770,770,770,770,770,770,770,770,770,770,770,770,768,766,765,763,761,757,756,755,754,752,749,747,745,742,738,731,729,729,729,729,728,728,728,728,728,726,720,711,706,703,701,700,700,700,700,698,698,698,698,698,698,698,698,698,696,693,692,691,691,691,691,691,691,690,689,688,688,688,688,688,688,688,688,688,688,688,688,688,688,686,684,675,670,666,659,644,637,629,619,612,600,597,595,593,588,571,560,553,544,543,541,541,541,541,541,541,541,541,541,541,529,514],"ymouse":[501,501,501,501,501,501,501,501,501,501,501,501,501,501,501,501,501,501,501,501,501,501,501,501,501,501,501,501,501,501,501,501,501,501,501,501,501,501,501,501,501,501,501,501,501,501,501,501,501,501,501,501,501,501,501,501,501,501,501,501,501,501,501,501,501,501,501,501,501,501,501,501,501,501,501,501,501,501,501,501,501,501,501,501,501,501,501,501,501,501,501,501,501,501,501,501,501,501,501,501,501,501,501,501,501,501,501,501,501,501,501,500,499,498,497,495,492,492,490,490,489,486,484,482,480,473,467,466,466,466,466,466,466,466,466,466,463,459,454,452,451,450,450,450,449,449,448,448,448,448,448,448,448,448,448,447,445,445,445,445,445,445,445,445,444,444,444,444,444,444,444,444,444,444,444,444,444,444,444,444,442,439,431,427,422,417,399,390,376,356,339,298,277,254,230,203,152,129,109,89,84,79,78,78,77,77,76,75,74,73,71,62,55],"timestamp_mouse":[5,25,46,65,85,106,125,145,165,185,205,225,246,265,285,305,325,345,365,386,406,425,445,466,486,506,525,546,565,586,605,625,646,665,685,706,725,745,765,785,805,825,845,867,885,906,925,945,966,986,1005,1025,1046,1066,1085,1106,1125,1145,1166,1186,1205,1225,1245,1266,1286,1305,1325,1345,1366,1386,1405,1426,1446,1466,1486,1506,1525,1545,1566,1585,1606,1625,1645,1666,1685,1706,1725,1745,1766,1785,1806,1826,1845,1865,1885,1906,1926,1945,1966,1986,2006,2025,2046,2066,2085,2105,2125,2145,2165,2185,2205,2225,2245,2265,2285,2306,2325,2345,2366,2385,2405,2425,2445,2465,2485,2505,2525,2545,2565,2586,2605,2625,2645,2665,2685,2706,2725,2746,2765,2785,2806,2825,2846,2865,2885,2905,2925,2946,2966,2986,3006,3025,3045,3065,3085,3106,3125,3145,3165,3186,3206,3225,3246,3265,3285,3306,3325,3345,3366,3385,3405,3425,3446,3465,3485,3506,3525,3546,3566,3585,3605,3625,3645,3666,3685,3706,3724,3745,3765,3786,3805,3825,3845,3866,3886,3906,3925,3945,3966,3986,4006,4025,4045,4066,4087,4105,4125,4146,4165,4185,4205,4225,4245],"xSR":741.5,"ySR":469.95,"xT1":424.9,"yT1":0,"xT2":1058.1,"yT2":0,"toosoon":0,"cond_shown":"Congruent","ratio_trial":200,"L_num":5,"L_den":10,"R_num":14,"R_den":20,"correct_side":2,"subjID":"mariajosecedeñopinzon34","gender":"1","school":"6","age":"11"},{"start_time":1551794098854,"click_time":1551794101042,"finger_time":1551794100623,"fix_duration":250,"trial":21,"RT":1769,"MT":419,"sideResp":1,"stimulus":[],"xmouse":[786,786,786,786,786,786,786,786,786,786,786,786,786,786,786,786,786,786,786,786,786,786,786,786,786,786,786,786,786,786,786,786,786,786,786,786,786,786,786,786,786,786,786,786,786,786,786,786,786,786,786,786,786,786,786,786,786,786,786,786,785,785,785,785,785,785,785,785,784,783,783,783,783,783,783,783,783,783,783,783,783,783,783,783,781,772,757,742,705,688,667,648,628,587,547,532,523,519,517,516,514,512,511,511,511,522,529,529,526,522],"ymouse":[532,532,532,532,532,532,532,532,532,532,532,532,532,532,532,532,532,532,532,532,532,532,532,532,532,532,532,532,532,532,532,532,532,532,532,532,532,532,532,532,532,532,532,532,532,532,532,532,532,532,532,532,532,532,532,532,532,532,532,532,532,532,532,532,532,532,532,531,529,529,529,529,529,529,529,529,529,529,529,529,529,529,527,526,523,515,506,499,482,470,452,430,408,356,309,290,278,271,266,261,255,253,250,243,237,207,158,109,51,29],"timestamp_mouse":[9,28,48,68,88,108,128,149,169,188,208,228,248,269,288,308,328,348,368,388,409,428,449,469,488,508,528,548,568,588,608,629,648,668,688,709,728,748,768,788,808,829,849,868,888,908,929,948,968,988,1008,1028,1049,1068,1088,1108,1129,1149,1168,1188,1208,1229,1248,1268,1289,1308,1328,1348,1368,1388,1409,1429,1448,1468,1488,1508,1528,1548,1568,1588,1608,1628,1648,1667,1688,1708,1729,1748,1769,1787,1809,1828,1848,1868,1889,1908,1928,1948,1968,1987,2008,2028,2049,2068,2088,2108,2128,2148,2168,2188],"xSR":741.5,"ySR":469.95,"xT1":424.9,"yT1":0,"xT2":1058.1,"yT2":0,"toosoon":0,"cond_shown":"Congruent","ratio_trial":300,"L_num":3,"L_den":12,"R_num":11,"R_den":20,"correct_side":2,"subjID":"mariajosecedeñopinzon34","gender":"1","school":"6","age":"11"},{"start_time":1551794105212,"click_time":1551794107282,"finger_time":1551794106522,"fix_duration":690.9539593777902,"trial":22,"RT":1310,"MT":760,"sideResp":2,"stimulus":[],"xmouse":[748,748,748,748,748,748,748,748,748,748,748,748,749,749,749,749,749,749,749,749,749,749,749,749,749,749,749,749,749,749,749,749,749,749,749,749,749,749,749,749,749,749,749,749,749,749,749,749,749,749,749,749,749,749,749,749,749,749,749,749,749,749,749,749,749,741,739,732,727,725,724,724,724,724,724,724,724,724,724,726,755,783,814,842,870,913,936,950,960,968,976,978,979,979,979,979,982,988,1002,1011,1031,1044,1058,1074],"ymouse":[526,527,527,527,527,527,527,527,527,527,527,527,527,527,527,527,527,527,527,527,527,527,527,527,527,527,527,527,527,527,527,527,527,527,527,527,527,527,527,527,527,527,527,527,527,527,527,527,527,527,527,527,527,527,527,527,527,527,527,527,527,527,527,526,523,499,492,470,459,453,452,452,452,452,452,452,452,452,452,445,404,371,336,304,271,219,180,155,131,110,80,71,66,64,64,63,62,60,55,52,44,40,36,34],"timestamp_mouse":[15,31,51,71,90,110,130,150,170,190,210,230,251,270,290,310,330,351,370,391,410,431,451,471,490,510,530,551,570,591,610,631,651,669,691,710,730,751,770,791,810,830,851,871,891,911,930,950,970,991,1010,1030,1050,1070,1091,1110,1130,1151,1170,1190,1210,1230,1251,1270,1290,1310,1331,1349,1370,1390,1410,1430,1450,1470,1490,1510,1530,1551,1571,1590,1610,1630,1651,1671,1691,1710,1730,1750,1771,1790,1810,1830,1850,1870,1890,1910,1931,1950,1970,1990,2010,2030,2050,2070],"xSR":741.5,"ySR":469.95,"xT1":424.9,"yT1":0,"xT2":1058.1,"yT2":0,"toosoon":0,"cond_shown":"Congruent","ratio_trial":300,"L_num":20,"L_den":25,"R_num":9,"R_den":18,"correct_side":1,"subjID":"mariajosecedeñopinzon34","gender":"1","school":"6","age":"11"},{"start_time":1551794109034,"click_time":1551794111182,"finger_time":1551794110322,"fix_duration":512.3560770951619,"trial":23,"RT":1288,"MT":860,"sideResp":1,"stimulus":[],"xmouse":[790,790,789,788,788,787,787,786,786,786,786,786,786,786,786,786,786,786,786,786,786,786,786,786,786,786,786,786,786,786,786,786,786,786,786,786,786,786,786,786,786,786,786,786,786,786,786,786,786,786,786,786,786,786,786,786,786,786,786,786,786,786,786,780,763,742,733,714,701,685,679,673,668,660,633,611,558,496,432,348,330,321,318,317,328,336,345,350,353,353,353,353,353,353,354,366,382,399,411,419,420,420,420,420,420,421,423,429],"ymouse":[535,535,533,532,532,531,531,529,529,529,529,529,529,529,529,529,529,529,529,529,529,529,529,529,529,529,529,529,529,529,529,529,529,529,529,529,529,529,529,529,529,529,529,529,529,529,529,529,529,529,529,529,529,529,529,529,529,529,529,529,529,528,524,508,468,434,422,394,374,340,321,302,285,274,260,254,246,238,226,197,184,172,158,140,94,77,63,53,47,44,44,44,44,44,44,51,63,73,78,82,82,82,82,82,82,82,81,75],"timestamp_mouse":[9,28,48,68,88,109,128,148,168,188,208,228,248,268,288,308,329,349,368,388,408,428,449,468,488,508,528,548,568,588,608,629,648,668,689,708,728,749,768,788,808,828,849,868,888,908,928,948,968,988,1008,1029,1049,1069,1088,1107,1128,1149,1169,1189,1208,1229,1248,1269,1287,1308,1328,1348,1369,1388,1408,1428,1448,1468,1488,1508,1527,1549,1568,1588,1607,1628,1648,1668,1688,1708,1728,1749,1768,1788,1808,1828,1848,1868,1888,1908,1928,1948,1969,1988,2008,2029,2048,2069,2088,2108,2128,2148],"xSR":741.5,"ySR":469.95,"xT1":424.9,"yT1":0,"xT2":1058.1,"yT2":0,"toosoon":0,"cond_shown":"Incongruent","ratio_trial":300,"L_num":1,"L_den":2,"R_num":3,"R_den":15,"correct_side":1,"subjID":"mariajosecedeñopinzon34","gender":"1","school":"6","age":"11"},{"start_time":1551794117071,"click_time":1551794119082,"finger_time":1551794118622,"fix_duration":908.5902309930698,"trial":24,"RT":1551,"MT":460,"sideResp":2,"stimulus":[],"xmouse":[772,772,772,772,772,772,772,772,772,772,772,772,772,772,772,772,772,772,772,772,772,772,772,772,772,772,772,772,772,772,772,772,772,772,772,772,772,772,772,772,772,772,772,772,772,772,772,772,772,772,772,772,772,772,772,772,772,772,772,772,772,772,772,772,772,772,772,772,772,772,775,777,782,783,787,791,796,814,825,832,839,844,857,860,870,878,890,907,943,957,972,984,1001,1005,1007,1010,1016,1040,1061,1081,1101],"ymouse":[513,513,513,513,513,513,513,513,513,513,513,513,513,513,513,513,513,513,513,513,513,513,513,513,513,513,513,513,513,513,513,513,513,513,513,513,513,513,513,513,513,513,513,513,513,513,513,513,513,513,513,513,513,513,513,513,513,513,513,513,513,513,513,513,513,513,513,510,505,500,494,490,486,485,482,477,471,453,443,434,422,409,369,361,333,312,291,267,220,201,180,164,141,136,134,133,131,122,113,105,95],"timestamp_mouse":[12,34,51,71,92,111,131,152,171,192,211,232,251,271,292,311,331,351,371,391,412,431,452,471,491,512,532,552,571,591,611,632,652,671,691,711,731,751,771,792,811,831,851,871,892,912,932,951,971,990,1011,1031,1051,1071,1091,1111,1132,1151,1171,1191,1211,1231,1251,1272,1292,1312,1331,1351,1371,1391,1411,1432,1451,1471,1491,1512,1531,1551,1571,1592,1611,1632,1651,1671,1691,1711,1731,1751,1770,1791,1811,1832,1850,1871,1891,1912,1931,1951,1971,1991,2011],"xSR":741.5,"ySR":469.95,"xT1":424.9,"yT1":0,"xT2":1058.1,"yT2":0,"toosoon":0,"cond_shown":"Congruent","ratio_trial":300,"L_num":18,"L_den":20,"R_num":9,"R_den":15,"correct_side":1,"subjID":"mariajosecedeñopinzon34","gender":"1","school":"6","age":"11"},{"start_time":1551794126917,"click_time":1551794129024,"finger_time":1551794128545,"fix_duration":573.7147681501639,"trial":25,"RT":1628,"MT":479,"sideResp":1,"stimulus":[],"xmouse":[775,775,775,775,775,775,775,775,775,775,775,775,775,775,775,775,775,775,775,775,775,775,775,775,775,775,775,775,775,775,775,775,775,775,775,775,775,775,775,775,775,775,775,775,775,775,775,775,775,775,775,775,775,775,775,775,775,775,775,775,775,775,775,775,775,775,775,775,775,775,775,775,775,775,775,775,775,775,775,773,754,734,709,697,691,687,686,684,683,680,669,659,648,635,627,612,604,596,586,576,541,520,490,471,453,435],"ymouse":[513,513,513,513,513,513,513,513,513,513,513,513,513,513,513,513,513,513,513,513,513,513,513,513,513,513,513,513,513,513,513,513,513,513,513,513,513,513,513,513,513,513,513,513,513,513,513,513,513,513,513,513,513,513,513,513,513,513,513,513,513,513,513,513,513,513,513,513,513,513,513,513,513,513,513,513,513,513,513,514,501,492,482,477,473,470,468,466,462,457,437,423,410,392,377,352,338,322,304,285,237,210,170,143,118,85],"timestamp_mouse":[6,26,46,65,85,105,125,145,166,185,205,226,245,265,286,306,325,345,365,386,405,425,446,465,486,505,525,546,565,585,605,625,646,665,685,705,728,746,767,787,807,828,848,867,887,907,927,948,966,988,1007,1026,1048,1067,1087,1108,1128,1147,1167,1188,1206,1228,1247,1267,1287,1307,1327,1347,1367,1386,1407,1428,1447,1466,1487,1507,1527,1548,1566,1586,1606,1628,1646,1666,1687,1707,1726,1748,1767,1787,1806,1828,1847,1866,1887,1906,1927,1947,1966,1987,2006,2027,2047,2067,2087,2107],"xSR":741.5,"ySR":469.95,"xT1":424.9,"yT1":0,"xT2":1058.1,"yT2":0,"toosoon":0,"cond_shown":"Congruent","ratio_trial":100,"L_num":3,"L_den":20,"R_num":4,"R_den":16,"correct_side":2,"subjID":"mariajosecedeñopinzon34","gender":"1","school":"6","age":"11"},{"start_time":1551794131639,"click_time":1551794134704,"finger_time":1551794134143,"fix_duration":1213.4239011596896,"trial":26,"RT":2504,"MT":561,"sideResp":1,"stimulus":[],"xmouse":[801,801,801,801,801,799,799,799,799,799,799,799,799,799,799,798,797,797,797,796,796,796,796,796,796,796,796,796,796,796,796,796,796,796,796,796,796,796,796,796,796,796,796,796,796,796,796,796,796,796,796,796,796,796,796,796,796,796,796,796,796,796,796,796,796,796,796,796,796,796,796,796,796,796,796,796,796,796,796,796,796,796,796,796,796,796,796,796,796,796,796,796,796,796,796,796,796,796,796,796,796,796,796,796,796,796,796,796,796,796,796,796,796,796,796,796,796,796,796,796,796,796,796,794,779,757,724,695,685,678,678,678,678,678,678,677,672,668,659,639,630,613,597,582,551,537,535,530,528,526,525,524,524,524],"ymouse":[503,503,503,503,504,509,509,509,509,509,509,509,509,509,511,512,515,516,518,519,519,519,519,519,519,519,519,519,519,519,520,520,521,521,521,521,521,521,521,521,521,521,521,521,521,521,521,521,521,521,521,521,521,521,521,521,521,521,521,521,521,521,521,521,521,521,521,521,521,521,521,521,521,521,521,521,521,521,521,521,521,521,521,521,521,521,521,521,521,521,521,521,521,521,521,521,521,521,521,521,521,521,521,521,521,521,521,521,521,521,521,521,521,521,521,521,521,521,521,521,521,521,519,515,488,444,384,331,314,296,292,287,281,275,251,245,227,216,203,181,172,166,157,151,137,128,126,120,117,111,108,106,103,98],"timestamp_mouse":[4,24,45,65,84,106,126,144,166,185,205,224,245,265,285,306,325,345,366,385,404,424,446,465,485,505,525,544,564,585,606,625,646,665,685,705,724,746,764,785,805,825,844,864,884,905,925,945,965,985,1005,1026,1045,1065,1085,1105,1126,1144,1164,1186,1206,1225,1245,1266,1284,1306,1326,1344,1366,1385,1404,1425,1446,1465,1484,1505,1526,1545,1566,1585,1604,1624,1645,1665,1684,1704,1724,1746,1766,1785,1805,1824,1846,1865,1885,1906,1925,1945,1964,1985,2005,2026,2044,2065,2085,2104,2126,2145,2165,2184,2206,2225,2245,2265,2285,2304,2325,2345,2366,2384,2406,2426,2444,2465,2484,2504,2525,2544,2565,2584,2606,2625,2645,2665,2685,2705,2725,2746,2765,2784,2805,2825,2845,2865,2884,2906,2925,2944,2965,2984,3004,3025,3045,3065],"xSR":741.5,"ySR":469.95,"xT1":424.9,"yT1":0,"xT2":1058.1,"yT2":0,"toosoon":0,"cond_shown":"Incongruent","ratio_trial":200,"L_num":7,"L_den":10,"R_num":12,"R_den":24,"correct_side":1,"subjID":"mariajosecedeñopinzon34","gender":"1","school":"6","age":"11"},{"start_time":1551794138999,"click_time":1551794141323,"finger_time":1551794140684,"fix_duration":1414.2988396086807,"trial":27,"RT":1685,"MT":639,"sideResp":2,"stimulus":[],"xmouse":[783,783,783,783,783,783,783,783,783,783,783,783,783,783,783,783,783,783,783,783,783,783,783,783,783,783,783,783,783,783,783,783,783,783,783,783,783,783,783,783,783,783,783,783,783,783,783,783,783,783,783,783,783,783,783,783,783,783,783,783,783,783,783,783,783,783,783,783,783,783,783,783,783,783,783,783,783,783,783,783,783,794,805,815,827,839,859,869,876,880,882,884,885,885,886,887,888,889,891,896,900,920,930,940,947,954,967,969,974,978,985,1005,1017,1031,1043,1055,1074],"ymouse":[536,536,536,536,536,536,536,536,536,534,534,534,534,534,534,534,534,534,534,534,534,534,534,534,534,534,534,534,534,534,534,534,534,534,534,534,534,534,534,534,534,534,534,534,534,534,534,534,534,534,534,534,534,534,534,534,534,534,534,534,534,534,534,534,534,534,534,534,534,534,534,534,534,534,534,534,534,534,534,534,532,509,492,476,460,444,421,411,405,402,400,398,398,397,396,394,389,384,379,366,354,319,302,286,272,260,230,226,210,200,189,168,156,143,131,118,95],"timestamp_mouse":[4,25,46,65,84,104,125,145,164,184,206,225,245,264,284,305,325,346,365,386,404,425,444,465,485,504,525,545,566,585,606,625,645,665,685,704,725,744,765,785,806,825,844,865,884,904,926,945,964,986,1006,1026,1045,1064,1085,1106,1125,1144,1166,1186,1205,1225,1244,1265,1286,1305,1325,1344,1365,1385,1404,1424,1445,1465,1484,1506,1525,1546,1564,1584,1604,1625,1644,1665,1685,1704,1725,1745,1765,1786,1805,1825,1844,1865,1885,1905,1924,1946,1965,1986,2005,2024,2044,2066,2085,2105,2125,2144,2166,2186,2205,2225,2244,2266,2285,2305,2324],"xSR":741.5,"ySR":469.95,"xT1":424.9,"yT1":0,"xT2":1058.1,"yT2":0,"toosoon":0,"cond_shown":"Incongruent","ratio_trial":300,"L_num":13,"L_den":26,"R_num":12,"R_den":15,"correct_side":2,"subjID":"mariajosecedeñopinzon34","gender":"1","school":"6","age":"11"},{"start_time":1551794144653,"click_time":1551794146343,"finger_time":1551794146124,"fix_duration":828.4089624610933,"trial":28,"RT":1471,"MT":219,"sideResp":1,"stimulus":[],"xmouse":[767,767,767,767,767,767,767,767,767,767,767,767,767,767,767,767,767,767,767,767,767,767,767,767,767,767,767,767,767,767,767,767,767,767,767,767,767,767,767,767,767,767,767,767,767,767,767,767,767,767,767,767,767,767,767,767,767,767,767,767,767,767,767,767,767,767,767,767,767,767,767,766,763,754,748,740,730,722,706,693,673,643,604,534,509],"ymouse":[537,537,537,537,537,537,537,537,537,537,537,537,537,537,537,537,537,537,537,537,537,537,537,537,537,537,537,537,537,537,537,537,537,537,537,537,537,537,537,537,537,537,537,537,537,537,537,537,537,537,537,537,537,537,537,537,537,537,537,537,537,537,537,537,537,537,537,537,536,528,519,505,490,459,438,415,379,353,299,273,237,200,161,100,78],"timestamp_mouse":[11,31,51,71,91,111,130,151,171,190,210,232,252,271,292,311,331,351,370,392,411,432,451,470,491,512,530,552,571,590,612,631,651,671,690,711,732,750,770,791,811,831,851,871,891,911,931,950,971,991,1011,1030,1051,1071,1091,1110,1132,1152,1170,1192,1212,1230,1250,1272,1291,1310,1331,1351,1371,1391,1411,1431,1451,1471,1491,1511,1531,1551,1570,1590,1612,1631,1651,1670,1690],"xSR":741.5,"ySR":469.95,"xT1":424.9,"yT1":0,"xT2":1058.1,"yT2":0,"toosoon":0,"cond_shown":"Incongruent","ratio_trial":100,"L_num":6,"L_den":10,"R_num":11,"R_den":22,"correct_side":1,"subjID":"mariajosecedeñopinzon34","gender":"1","school":"6","age":"11"},{"start_time":1551794151894,"click_time":1551794153905,"finger_time":1551794153424,"fix_duration":1390.729946134578,"trial":29,"RT":1530,"MT":481,"sideResp":1,"stimulus":[],"xmouse":[772,772,772,772,772,772,772,772,772,772,772,772,772,772,772,772,772,772,772,772,772,772,772,772,772,772,772,772,772,772,772,772,772,772,772,772,772,772,772,772,772,772,772,772,772,772,772,772,772,772,772,772,772,772,772,772,772,772,772,772,772,772,772,772,772,772,772,772,772,772,772,772,772,767,758,745,713,698,682,669,655,639,630,626,622,619,615,612,608,605,601,589,582,571,565,556,544,540,535,529,524],"ymouse":[520,520,520,520,520,520,520,520,520,520,520,520,520,520,520,520,520,520,520,520,520,520,520,520,520,520,520,520,520,520,520,520,520,520,520,520,520,520,520,520,520,520,520,520,520,520,520,520,520,520,520,520,520,520,520,520,520,520,520,520,520,520,520,520,520,520,520,520,520,520,520,519,518,510,497,478,436,417,396,377,357,322,301,289,279,271,261,254,245,238,230,211,203,190,183,174,155,141,127,110,97],"timestamp_mouse":[9,30,49,69,90,110,130,151,169,190,209,229,249,270,290,309,330,350,370,391,410,429,450,470,490,510,530,550,569,589,609,631,650,670,690,710,730,751,769,789,811,830,850,871,891,909,930,950,970,991,1009,1029,1049,1070,1091,1111,1130,1149,1170,1190,1210,1229,1251,1271,1289,1310,1330,1350,1371,1389,1411,1430,1451,1470,1489,1510,1530,1550,1570,1590,1609,1629,1650,1669,1690,1710,1730,1749,1769,1789,1811,1830,1851,1869,1889,1910,1930,1949,1970,1990,2011],"xSR":741.5,"ySR":469.95,"xT1":424.9,"yT1":0,"xT2":1058.1,"yT2":0,"toosoon":0,"cond_shown":"Incongruent","ratio_trial":200,"L_num":7,"L_den":10,"R_num":8,"R_den":16,"correct_side":1,"subjID":"mariajosecedeñopinzon34","gender":"1","school":"6","age":"11"},{"start_time":1551794158388,"click_time":1551794160164,"finger_time":1551794159604,"fix_duration":1244.1792556329897,"trial":30,"RT":1216,"MT":560,"sideResp":1,"stimulus":[],"xmouse":[789,789,789,789,789,789,789,789,789,789,789,789,789,789,789,789,789,789,789,789,789,789,789,789,789,789,789,789,789,789,789,789,789,789,789,789,789,789,789,789,789,789,789,789,789,789,789,789,789,781,777,767,767,767,767,767,767,766,765,755,747,728,714,697,675,653,630,621,617,615,612,608,605,600,596,590,576,559,544,531,518,499,494,490,489,488,488,488,485],"ymouse":[517,517,517,517,517,517,517,517,517,517,517,517,517,517,517,517,517,517,517,517,517,517,517,517,517,517,517,517,517,517,517,517,517,517,517,517,517,517,517,517,517,517,517,517,517,517,517,514,510,502,498,493,493,493,493,493,493,492,487,473,459,424,400,373,341,308,277,262,253,246,240,226,217,206,197,190,176,163,152,142,133,119,114,111,110,109,109,105,92],"timestamp_mouse":[15,36,57,75,97,117,136,156,175,196,217,235,255,276,297,315,336,356,376,395,417,436,457,477,496,517,537,557,576,597,617,635,657,676,696,717,736,756,776,797,816,836,855,877,897,917,936,957,976,997,1016,1036,1055,1075,1097,1116,1135,1156,1176,1196,1216,1236,1256,1276,1296,1317,1335,1356,1376,1397,1416,1436,1456,1476,1496,1517,1535,1557,1576,1596,1616,1636,1656,1677,1696,1716,1735,1757,1776],"xSR":741.5,"ySR":469.95,"xT1":424.9,"yT1":0,"xT2":1058.1,"yT2":0,"toosoon":0,"cond_shown":"Incongruent","ratio_trial":200,"L_num":3,"L_den":4,"R_num":11,"R_den":20,"correct_side":1,"subjID":"mariajosecedeñopinzon34","gender":"1","school":"6","age":"11"},{"start_time":1551794165530,"click_time":1551794167323,"finger_time":1551794166765,"fix_duration":1466.8764644327168,"trial":31,"RT":1235,"MT":558,"sideResp":2,"stimulus":[],"xmouse":[804,804,804,804,804,804,804,804,804,804,804,804,804,804,804,804,804,804,804,804,804,804,804,804,804,804,804,804,804,804,804,804,804,804,804,804,804,804,804,804,804,804,804,804,804,804,804,804,804,804,804,804,804,804,804,804,804,807,813,829,838,842,844,845,846,850,855,861,869,890,900,916,923,929,937,942,946,947,948,953,964,977,988,998,1016,1026,1039,1050,1062,1083],"ymouse":[520,520,520,520,520,520,520,520,520,520,520,520,520,520,520,520,520,520,520,520,520,520,520,520,520,520,520,520,520,520,520,520,520,520,520,520,520,520,520,520,520,520,520,520,520,520,520,520,520,520,520,520,520,520,520,520,520,518,516,511,509,507,506,505,491,480,467,454,439,404,382,349,336,327,306,292,278,271,264,248,229,218,208,198,175,160,146,133,119,96],"timestamp_mouse":[14,34,54,73,95,114,135,153,173,194,215,234,255,275,293,315,334,353,374,394,413,435,455,474,495,514,534,554,573,594,615,633,653,674,694,714,734,754,774,794,814,835,854,874,894,915,933,955,974,994,1015,1033,1054,1074,1094,1114,1134,1154,1174,1194,1215,1235,1254,1274,1294,1313,1335,1354,1375,1393,1415,1434,1454,1474,1494,1513,1533,1554,1575,1593,1614,1634,1653,1673,1694,1714,1734,1754,1774,1793],"xSR":741.5,"ySR":469.95,"xT1":424.9,"yT1":0,"xT2":1058.1,"yT2":0,"toosoon":0,"cond_shown":"Incongruent","ratio_trial":300,"L_num":13,"L_den":26,"R_num":12,"R_den":15,"correct_side":2,"subjID":"mariajosecedeñopinzon34","gender":"1","school":"6","age":"11"},{"start_time":1551794172154,"click_time":1551794174124,"finger_time":1551794173604,"fix_duration":1349.6517746342204,"trial":32,"RT":1450,"MT":520,"sideResp":1,"stimulus":[],"xmouse":[796,796,796,796,796,796,795,794,794,794,794,794,794,794,794,794,794,794,794,794,794,794,794,794,794,794,794,794,794,794,794,794,794,794,794,794,794,794,794,794,794,794,794,794,794,794,794,794,794,794,794,794,794,794,794,794,794,794,794,794,794,794,794,794,794,794,794,794,792,789,775,765,754,728,717,708,700,695,682,676,661,650,637,599,578,557,540,528,512,509,507,506,506,505,504,504,504,504,505],"ymouse":[506,506,506,506,506,506,507,508,508,508,508,508,508,508,508,508,508,508,508,508,508,508,508,508,508,508,508,508,508,508,508,508,508,508,508,508,508,508,508,508,508,508,508,508,508,508,508,508,508,508,508,508,508,508,508,508,508,508,508,508,508,508,508,508,508,508,508,508,508,504,485,470,453,409,383,359,336,318,288,274,247,230,213,176,162,150,143,136,127,126,124,123,123,120,114,113,110,105,99],"timestamp_mouse":[9,29,49,70,89,111,131,151,169,191,209,229,251,270,289,310,330,350,370,389,410,430,450,469,490,510,530,550,570,591,610,630,649,670,690,709,729,751,770,790,811,830,850,870,891,911,930,950,970,991,1010,1030,1050,1069,1089,1110,1130,1149,1170,1190,1209,1231,1250,1270,1290,1310,1330,1351,1369,1391,1410,1431,1450,1470,1490,1510,1530,1550,1569,1590,1609,1630,1650,1670,1689,1711,1730,1750,1769,1790,1811,1830,1850,1869,1889,1909,1930,1951,1970],"xSR":741.5,"ySR":469.95,"xT1":424.9,"yT1":0,"xT2":1058.1,"yT2":0,"toosoon":0,"cond_shown":"Congruent","ratio_trial":300,"L_num":2,"L_den":10,"R_num":12,"R_den":24,"correct_side":2,"subjID":"mariajosecedeñopinzon34","gender":"1","school":"6","age":"11"},{"start_time":1551794176200,"click_time":1551794177944,"finger_time":1551794177624,"fix_duration":576.5604067681893,"trial":33,"RT":1424,"MT":320,"sideResp":2,"stimulus":[],"xmouse":[800,800,800,800,800,800,800,800,800,800,800,800,800,800,800,800,800,800,800,800,800,800,800,800,800,800,800,800,800,800,800,800,800,800,800,800,800,800,800,800,800,800,800,800,800,800,800,800,800,800,800,800,800,800,800,800,800,800,800,800,800,800,800,800,800,800,800,802,805,808,814,826,834,848,870,905,993,1052,1076,1088,1090,1088,1085,1080,1078,1075,1074,1074],"ymouse":[524,523,523,523,523,523,523,523,523,523,523,523,523,523,523,523,523,523,523,523,523,523,523,523,523,523,523,523,523,523,523,523,523,523,523,523,523,523,523,523,523,523,523,523,523,523,523,523,523,523,523,523,523,523,523,523,523,523,523,523,523,523,523,523,523,522,517,511,499,493,484,463,450,430,400,355,255,203,182,170,165,154,150,142,135,129,115,94],"timestamp_mouse":[5,23,44,63,84,103,125,144,164,184,205,223,243,265,284,304,325,345,364,385,404,424,445,465,484,504,524,544,563,583,604,624,644,665,683,705,724,744,765,785,805,824,844,863,884,905,925,944,964,984,1004,1025,1044,1064,1084,1103,1123,1144,1165,1184,1203,1223,1244,1263,1285,1305,1324,1345,1364,1384,1404,1424,1443,1465,1484,1504,1523,1544,1564,1583,1603,1624,1644,1665,1683,1704,1723,1744],"xSR":741.5,"ySR":469.95,"xT1":424.9,"yT1":0,"xT2":1058.1,"yT2":0,"toosoon":0,"cond_shown":"Congruent","ratio_trial":200,"L_num":13,"L_den":26,"R_num":14,"R_den":20,"correct_side":2,"subjID":"mariajosecedeñopinzon34","gender":"1","school":"6","age":"11"},{"start_time":1551794181914,"click_time":1551794189044,"finger_time":1551794183144,"fix_duration":250,"trial":34,"RT":1230,"MT":5900,"sideResp":1,"stimulus":[],"xmouse":[775,775,775,775,775,775,775,775,775,775,775,775,775,775,775,775,775,775,775,775,775,775,775,775,775,775,775,775,775,775,775,775,775,775,775,775,775,775,775,775,775,775,775,775,775,775,775,775,775,775,775,775,775,775,775,775,775,775,775,774,757,739,730,719,711,684,669,654,644,635,614,610,602,596,590,576,574,571,570,568,567,565,565,565,565,565,565,565,564,564,564,564,564,564,564,564,563,563,563,563,563,563,563,563,563,563,563,563,563,563,563,563,562,562,561,561,561,561,561,560,560,560,560,560,560,560,560,560,560,560,560,560,559,558,558,558,557,557,557,556,556,556,556,556,555,555,555,555,555,555,555,555,555,555,555,555,555,555,555,555,555,555,555,555,555,555,555,555,555,555,555,555,555,555,555,556,559,561,565,570,587,604,624,652,671,698,708,716,724,730,741,745,747,748,748,750,753,756,760,764,766,766,766,766,766,766,766,766,766,766,766,766,766,766,766,766,766,766,766,766,766,766,766,766,766,766,766,766,766,766,766,766,766,766,766,766,766,766,766,766,766,766,766,766,766,766,766,766,766,766,766,766,766,766,767,767,767,767,767,767,767,767,767,767,768,768,769,769,769,769,769,769,769,769,769,769,769,769,769,769,769,769,769,769,769,769,769,769,769,769,769,769,769,769,769,769,769,769,769,769,769,769,769,769,769,769,769,769,769,769,769,769,769,769,770,771,773,774,774,774,774,774,774,774,774,774,774,774,774,774,774,774,774,774,774,774,770,765,749,724,644,592,573,563,563,568,573,579,583,585,585,584,580,576,569,542,518],"ymouse":[525,525,525,525,525,525,525,525,525,525,525,525,525,525,525,525,525,525,525,525,525,525,525,525,525,525,525,525,525,525,525,525,525,525,525,525,525,525,525,525,525,525,525,525,525,525,525,525,525,525,525,525,525,525,525,525,525,525,525,522,508,488,476,462,450,415,398,385,376,368,350,346,337,330,323,309,307,305,303,303,302,300,300,300,300,300,300,300,299,299,299,299,299,299,299,299,299,299,299,299,299,299,299,299,299,299,299,299,299,299,299,299,299,299,299,299,299,299,299,300,300,300,300,300,300,300,300,300,300,300,300,300,300,300,300,301,302,302,302,303,303,304,304,305,306,306,306,306,307,307,309,310,311,311,312,312,312,313,313,313,314,314,314,315,315,315,317,317,318,318,319,319,320,320,322,326,330,332,334,337,345,351,359,373,385,407,415,423,429,434,445,450,453,453,453,456,460,464,467,470,471,471,471,471,471,471,471,471,471,471,471,471,471,471,471,471,471,471,471,471,471,471,471,471,471,471,471,471,471,471,471,471,471,471,471,471,471,471,471,471,471,471,471,471,471,471,471,471,471,471,471,471,471,471,472,473,474,474,475,475,475,475,475,475,476,477,477,477,477,477,477,478,478,478,478,478,478,478,479,479,480,481,481,481,481,482,482,482,482,482,482,482,483,483,483,483,483,483,484,484,484,485,485,485,485,485,485,485,485,485,485,485,485,485,484,481,480,479,479,479,479,479,479,478,478,478,478,478,478,478,478,478,478,478,478,478,475,471,461,447,402,353,312,267,228,169,146,127,112,103,94,92,90,90,90,90,90],"timestamp_mouse":[13,29,50,69,90,110,129,150,170,190,210,231,249,270,290,309,331,350,369,389,410,430,449,471,490,509,530,551,571,589,610,631,651,669,691,709,729,751,769,791,810,830,850,869,889,911,931,950,969,989,1010,1031,1049,1069,1091,1110,1130,1149,1170,1189,1209,1230,1250,1270,1289,1309,1329,1351,1370,1391,1409,1429,1450,1470,1489,1509,1529,1550,1570,1589,1609,1630,1649,1670,1690,1709,1730,1749,1769,1790,1810,1829,1849,1871,1891,1910,1929,1950,1971,1991,2010,2031,2050,2070,2090,2110,2129,2150,2170,2190,2209,2230,2250,2270,2291,2309,2330,2351,2370,2391,2410,2430,2451,2470,2490,2509,2530,2551,2571,2590,2609,2630,2650,2670,2690,2709,2729,2750,2770,2791,2809,2831,2851,2870,2889,2910,2930,2951,2969,2990,3009,3031,3050,3070,3090,3110,3131,3150,3170,3191,3209,3230,3250,3270,3290,3309,3329,3351,3371,3391,3409,3430,3450,3470,3489,3509,3529,3550,3570,3591,3609,3630,3650,3671,3689,3709,3729,3750,3770,3790,3809,3830,3850,3870,3890,3910,3930,3950,3970,3990,4010,4030,4050,4069,4089,4110,4130,4149,4171,4190,4209,4231,4251,4269,4290,4310,4330,4350,4369,4391,4409,4431,4451,4470,4489,4510,4531,4549,4569,4591,4610,4629,4650,4671,4689,4710,4730,4749,4771,4789,4810,4830,4849,4871,4891,4909,4930,4950,4970,4991,5009,5029,5051,5070,5090,5110,5129,5151,5171,5189,5209,5230,5250,5271,5290,5310,5329,5350,5371,5390,5409,5430,5450,5471,5490,5511,5530,5549,5569,5590,5610,5631,5650,5670,5690,5710,5732,5750,5772,5790,5810,5831,5850,5871,5892,5910,5930,5951,5970,5991,6010,6031,6050,6071,6092,6111,6132,6151,6170,6191,6211,6230,6251,6272,6290,6310,6331,6352,6371,6391,6410,6431,6452,6471,6491,6511,6530,6552,6570,6590,6611,6630,6650,6671,6690,6710,6730,6750,6770,6792,6811,6830,6850,6870,6890,6910,6930,6950,6971,6991,7010,7030,7050,7070,7091,7111,7130],"xSR":741.5,"ySR":469.95,"xT1":424.9,"yT1":0,"xT2":1058.1,"yT2":0,"toosoon":0,"cond_shown":"Congruent","ratio_trial":300,"L_num":1,"L_den":5,"R_num":3,"R_den":6,"correct_side":2,"subjID":"mariajosecedeñopinzon34","gender":"1","school":"6","age":"11"},{"start_time":1551794191450,"click_time":1551794195505,"finger_time":1551794194564,"fix_duration":584.9928431919084,"trial":35,"RT":3114,"MT":941,"sideResp":2,"stimulus":[],"xmouse":[798,798,798,798,798,798,798,798,798,798,798,797,797,796,796,796,796,796,796,796,796,796,796,796,796,796,796,796,796,796,796,796,796,796,796,796,796,796,796,796,796,796,796,796,796,796,796,796,796,796,796,796,796,796,796,796,796,796,796,796,796,796,796,796,796,796,796,796,796,796,796,796,796,796,796,796,796,796,796,796,796,796,796,796,796,796,796,796,796,796,796,796,796,796,796,796,796,796,796,796,796,796,796,796,796,796,796,796,796,796,796,796,796,796,796,796,797,797,797,797,797,797,797,795,795,795,795,795,794,793,793,792,792,792,791,791,790,788,788,788,787,786,786,786,786,786,786,785,784,782,781,779,778,773,769,762,759,757,756,756,756,755,755,754,754,754,754,754,754,754,754,754,754,754,754,758,762,768,785,793,798,803,815,850,857,883,901,926,984,1003,1021,1034,1043,1053,1054,1054,1054,1054,1054,1054,1054,1055,1063],"ymouse":[506,506,506,506,506,506,506,506,506,506,506,506,506,505,505,505,505,505,505,505,505,505,505,505,505,505,505,505,505,505,504,504,504,504,504,504,504,504,504,504,504,504,504,504,504,504,504,504,504,504,504,504,504,504,504,504,504,504,504,504,504,504,504,504,504,504,504,504,504,504,504,504,504,504,504,504,504,504,504,5