[{"start_time":1551900208334,"click_time":1551900212519,"finger_time":1551900212077,"fix_duration":733.5416440334142,"trial":0,"RT":3743,"MT":442,"sideResp":2,"stimulus":"img/750/randomdotsizeEA/L/10_Ratio_750_L_4_R_3.png","xmouse":[779,779,779,779,779,779,779,779,779,779,779,779,779,779,779,779,779,779,779,779,779,779,779,779,779,779,779,779,779,779,779,779,779,779,779,780,780,780,780,780,780,780,780,780,780,780,780,780,780,780,780,780,780,780,780,780,780,780,780,780,780,780,780,780,780,780,780,780,780,780,779,779,779,779,779,778,778,778,778,778,778,778,778,778,778,778,777,776,776,776,776,776,776,776,776,776,776,776,775,775,775,774,774,774,774,774,774,773,772,772,772,772,772,772,772,772,772,772,772,772,772,772,772,772,772,772,772,772,772,772,772,772,772,772,772,772,772,771,771,771,771,771,771,771,771,771,771,771,771,771,771,771,771,771,771,771,771,772,772,772,773,773,773,773,773,774,775,775,775,775,775,775,775,775,775,775,775,775,775,776,778,778,778,778,779,782,789,812,827,854,864,883,901,906,916,928,941,961,965,973,975,987,1007,1017,1021,1025,1030,1045,1057,1073],"ymouse":[446,446,446,446,446,446,446,446,446,446,446,446,446,446,446,446,446,446,446,446,446,446,446,446,446,446,446,446,446,446,446,446,446,446,446,446,446,446,446,446,446,446,446,446,446,446,446,446,446,446,446,446,446,446,446,446,446,446,446,446,446,446,446,446,446,446,446,446,445,445,445,445,445,445,445,444,444,444,444,444,444,444,444,444,444,444,443,442,442,442,442,442,442,442,442,442,442,442,441,441,441,440,440,440,440,440,440,440,440,439,439,439,439,439,439,439,439,439,439,439,439,439,439,439,439,439,439,439,439,439,439,439,439,439,439,439,439,439,439,439,439,439,438,438,438,438,438,438,438,438,436,436,436,436,436,436,436,436,435,435,435,435,435,435,434,433,433,433,433,432,431,431,431,431,431,431,431,431,431,429,427,426,426,426,424,420,412,390,378,358,352,336,308,286,266,247,229,202,194,182,178,161,139,133,129,127,124,113,105,96],"timestamp_mouse":[9,24,46,64,84,104,124,143,163,184,203,223,244,263,283,304,325,344,364,383,403,423,443,464,484,504,524,544,563,583,604,623,643,663,683,703,723,744,763,783,803,823,844,864,884,903,923,944,963,984,1004,1023,1045,1065,1083,1103,1123,1144,1163,1183,1203,1224,1243,1264,1283,1303,1323,1344,1364,1385,1403,1423,1445,1464,1483,1504,1524,1543,1564,1583,1603,1623,1644,1663,1683,1704,1724,1743,1764,1784,1803,1824,1845,1863,1884,1903,1923,1944,1963,1984,2003,2023,2043,2063,2084,2105,2124,2143,2164,2184,2203,2223,2244,2264,2285,2304,2323,2343,2365,2383,2403,2424,2443,2463,2483,2503,2524,2543,2563,2583,2604,2624,2643,2663,2684,2703,2724,2743,2763,2784,2803,2824,2843,2863,2883,2904,2923,2943,2963,2985,3004,3023,3043,3063,3084,3103,3124,3143,3164,3184,3204,3223,3244,3263,3283,3303,3323,3343,3364,3384,3403,3423,3444,3463,3484,3503,3524,3544,3563,3584,3604,3624,3644,3663,3684,3703,3723,3743,3763,3784,3803,3824,3843,3864,3883,3904,3925,3944,3965,3983,4003,4025,4044,4063,4083,4104,4123,4143,4163,4184],"xSR":741.5,"ySR":397.65000000000003,"xT1":424.9,"yT1":0,"xT2":1058.1,"yT2":0,"toosoon":0,"cond_shown":"randomdotsizeEA","ratio_trial":750,"smaller_num":"3","larger_num":"4","correct_side":1,"subjID":"mariajosepolanco4","gender":"1","age":"10","school":"6","test":{"fix_dur":[250,1500],"timestim":300,"targets_dim":[100,100],"targets_relative_coord":[0.3,0.7],"size_stim":[880,420],"start_dim":[100,100],"size_start":[300,300],"size_fix":60,"samplingrate":20,"img_types":["equaldotsize","equaldotanddens","randomdotsizeEA"],"ratios":[250,500,750,900],"rep_conds":9,"nTrials":120,"trials_to_rest":500,"Trials_order":[8,68,89,28,3,116,22,84,33,104,113,100,14,52,49,93,18,27,63,17,37,45,34,9,75,23,102,81,60,5,98,26,111,118,64,48,6,38,40,107,29,41,43,90,50,44,16,65,15,62,108,7,76,53,39,57,115,96,24,70,78,61,56,19,54,2,109,20,10,11,42,12,91,55,105,101,94,87,74,103,117,36,119,112,82,114,67,73,31,21,13,47,25,72,51,110,35,71,69,59,83,32,106,1,0,79,30,88,86,97,4,99,85,95,58,92,77,80,46,66],"cond_shown":["randomdotsizeEA","randomdotsizeEA","randomdotsizeEA","equaldotanddens","equaldotsize","randomdotsizeEA","equaldotanddens","equaldotsize","equaldotsize","randomdotsizeEA","randomdotsizeEA","equaldotanddens","randomdotsizeEA","equaldotanddens","equaldotanddens","equaldotsize","equaldotsize","equaldotsize","equaldotsize","randomdotsizeEA","equaldotanddens","equaldotsize","equaldotanddens","equaldotsize","equaldotsize","randomdotsizeEA","equaldotsize","equaldotsize","equaldotsize","randomdotsizeEA","randomdotsizeEA","randomdotsizeEA","equaldotsize","equaldotanddens","equaldotanddens","equaldotsize","equaldotsize","randomdotsizeEA","equaldotanddens","randomdotsizeEA","randomdotsizeEA","randomdotsizeEA","equaldotanddens","equaldotsize","randomdotsizeEA","randomdotsizeEA","equaldotanddens","randomdotsizeEA","equaldotsize","randomdotsizeEA","equaldotsize","equaldotanddens","equaldotanddens","randomdotsizeEA","equaldotsize","equaldotsize","equaldotanddens","equaldotsize","equaldotsize","equaldotanddens","equaldotsize","equaldotanddens","randomdotsizeEA","equaldotanddens","equaldotsize","randomdotsizeEA","equaldotanddens","randomdotsizeEA","equaldotanddens","randomdotsizeEA","equaldotsize","equaldotsize","equaldotanddens","equaldotanddens","equaldotsize","randomdotsizeEA","equaldotanddens","equaldotsize","randomdotsizeEA","equaldotanddens","equaldotsize","equaldotsize","randomdotsizeEA","equaldotanddens","equaldotanddens","equaldotsize","equaldotanddens","equaldotanddens","equaldotanddens","equaldotsize","equaldotanddens","randomdotsizeEA","equaldotanddens","equaldotsize","equaldotsize","randomdotsizeEA","randomdotsizeEA","randomdotsizeEA","equaldotsize","randomdotsizeEA","randomdotsizeEA","randomdotsizeEA","equaldotanddens","equaldotanddens","equaldotsize","equaldotanddens","equaldotsize","equaldotanddens","randomdotsizeEA","equaldotanddens","equaldotanddens","equaldotsize","equaldotanddens","randomdotsizeEA","equaldotanddens","randomdotsizeEA","randomdotsizeEA","randomdotsizeEA","equaldotanddens","equaldotsize"],"ratio_trial":[750,750,500,500,500,750,900,250,900,750,500,500,250,500,250,900,750,500,500,500,250,900,900,900,500,900,750,900,250,500,250,250,500,900,500,250,750,250,500,900,500,500,750,750,250,750,500,500,500,250,250,750,500,500,500,900,750,250,250,900,750,250,750,750,750,250,250,750,900,900,750,250,750,750,900,500,900,500,250,750,900,250,900,500,900,750,750,250,750,900,250,900,250,250,500,250,900,900,900,900,900,750,900,250,250,750,750,500,250,250,500,500,250,900,900,750,500,750,900,750],"smaller_num":["3","15","6","2","4","6","18","3","18","9","2","2","3","2","2","9","3","6","2","10","2","18","9","18","9","18","6","18","3","6","2","4","5","18","2","4","6","6","5","18","9","1","18","15","4","3","5","10","5","6","2","3","6","2","5","9","3","2","6","18","15","3","3","9","15","6","6","3","18","9","3","2","3","15","9","4","18","9","1","3","18","2","9","9","18","6","3","6","15","18","2","18","3","3","6","6","18","18","18","18","18","18","9","2","3","6","15","5","6","4","2","1","3","18","18","15","3","3","18","15"],"larger_num":["4","20","12","4","8","8","20","12","20","12","4","4","12","4","8","10","4","12","4","20","8","20","10","20","18","20","8","20","12","12","8","16","10","20","4","16","8","24","10","20","18","2","24","20","16","4","10","20","10","24","8","4","12","4","10","10","4","8","24","20","20","12","4","12","20","24","24","4","20","10","4","8","4","20","10","8","20","18","4","4","20","8","10","18","20","8","4","24","20","20","8","20","12","12","12","24","20","20","20","20","20","24","10","8","12","8","20","10","24","16","4","2","12","20","20","20","6","4","20","20"],"correct_side":[1,1,1,2,1,1,1,2,1,2,1,2,1,1,1,2,1,1,1,2,1,2,2,1,1,2,1,1,1,1,2,1,1,1,1,2,1,2,2,1,2,2,1,2,2,1,1,2,2,2,1,2,1,1,1,1,2,1,1,2,1,2,2,2,1,1,2,1,1,2,1,1,1,2,2,1,2,1,2,1,1,1,2,2,1,2,1,2,2,2,1,1,1,2,1,1,1,2,1,1,2,1,2,1,2,2,2,2,1,1,1,2,1,1,1,2,2,1,1,1],"img_shown":["img/750/randomdotsizeEA/L/10_Ratio_750_L_4_R_3.png","img/750/randomdotsizeEA/L/1_Ratio_750_L_20_R_15.png","img/500/randomdotsizeEA/L/13_Ratio_500_L_12_R_6.png","img/500/equaldotanddens/R/9_Ratio_500_L_2_R_4.png","img/500/equaldotsize/L/8_Ratio_500_L_8_R_4.png","img/750/randomdotsizeEA/L/14_Ratio_750_L_8_R_6.png","img/900/equaldotanddens/L/8_Ratio_900_L_20_R_18.png","img/250/equaldotsize/R/9_Ratio_250_L_3_R_12.png","img/900/equaldotsize/L/2_Ratio_900_L_20_R_18.png","img/750/randomdotsizeEA/R/15_Ratio_750_L_9_R_12.png","img/500/randomdotsizeEA/L/5_Ratio_500_L_4_R_2.png","img/500/equaldotanddens/R/9_Ratio_500_L_2_R_4.png","img/250/randomdotsizeEA/L/15_Ratio_250_L_12_R_3.png","img/500/equaldotanddens/L/5_Ratio_500_L_4_R_2.png","img/250/equaldotanddens/L/1_Ratio_250_L_8_R_2.png","img/900/equaldotsize/R/3_Ratio_900_L_9_R_10.png","img/750/equaldotsize/L/10_Ratio_750_L_4_R_3.png","img/500/equaldotsize/L/13_Ratio_500_L_12_R_6.png","img/500/equaldotsize/L/5_Ratio_500_L_4_R_2.png","img/500/randomdotsizeEA/R/3_Ratio_500_L_10_R_20.png","img/250/equaldotanddens/L/7_Ratio_250_L_8_R_2.png","img/900/equaldotsize/R/11_Ratio_900_L_18_R_20.png","img/900/equaldotanddens/R/3_Ratio_900_L_9_R_10.png","img/900/equaldotsize/L/4_Ratio_900_L_20_R_18.png","img/500/equaldotsize/L/4_Ratio_500_L_18_R_9.png","img/900/randomdotsizeEA/R/11_Ratio_900_L_18_R_20.png","img/750/equaldotsize/L/13_Ratio_750_L_8_R_6.png","img/900/equaldotsize/L/10_Ratio_900_L_20_R_18.png","img/250/equaldotsize/L/15_Ratio_250_L_12_R_3.png","img/500/randomdotsizeEA/L/11_Ratio_500_L_12_R_6.png","img/250/randomdotsizeEA/R/13_Ratio_250_L_2_R_8.png","img/250/randomdotsizeEA/L/2_Ratio_250_L_16_R_4.png","img/500/equaldotsize/L/7_Ratio_500_L_10_R_5.png","img/900/equaldotanddens/L/8_Ratio_900_L_20_R_18.png","img/500/equaldotanddens/L/5_Ratio_500_L_4_R_2.png","img/250/equaldotsize/R/10_Ratio_250_L_4_R_16.png","img/750/equaldotsize/L/14_Ratio_750_L_8_R_6.png","img/250/randomdotsizeEA/R/6_Ratio_250_L_6_R_24.png","img/500/equaldotanddens/R/14_Ratio_500_L_5_R_10.png","img/900/randomdotsizeEA/L/8_Ratio_900_L_20_R_18.png","img/500/randomdotsizeEA/R/1_Ratio_500_L_9_R_18.png","img/500/randomdotsizeEA/R/12_Ratio_500_L_1_R_2.png","img/750/equaldotanddens/L/6_Ratio_750_L_24_R_18.png","img/750/equaldotsize/R/4_Ratio_750_L_15_R_20.png","img/250/randomdotsizeEA/R/10_Ratio_250_L_4_R_16.png","img/750/randomdotsizeEA/L/10_Ratio_750_L_4_R_3.png","img/500/equaldotanddens/L/7_Ratio_500_L_10_R_5.png","img/500/randomdotsizeEA/R/3_Ratio_500_L_10_R_20.png","img/500/equaldotsize/R/14_Ratio_500_L_5_R_10.png","img/250/randomdotsizeEA/R/6_Ratio_250_L_6_R_24.png","img/250/equaldotsize/L/1_Ratio_250_L_8_R_2.png","img/750/equaldotanddens/R/7_Ratio_750_L_3_R_4.png","img/500/equaldotanddens/L/11_Ratio_500_L_12_R_6.png","img/500/randomdotsizeEA/L/5_Ratio_500_L_4_R_2.png","img/500/equaldotsize/L/7_Ratio_500_L_10_R_5.png","img/900/equaldotsize/L/1_Ratio_900_L_10_R_9.png","img/750/equaldotanddens/R/12_Ratio_750_L_3_R_4.png","img/250/equaldotsize/L/1_Ratio_250_L_8_R_2.png","img/250/equaldotsize/L/5_Ratio_250_L_24_R_6.png","img/900/equaldotanddens/R/13_Ratio_900_L_18_R_20.png","img/750/equaldotsize/L/1_Ratio_750_L_20_R_15.png","img/250/equaldotanddens/R/11_Ratio_250_L_3_R_12.png","img/750/randomdotsizeEA/R/12_Ratio_750_L_3_R_4.png","img/750/equaldotanddens/R/15_Ratio_750_L_9_R_12.png","img/750/equaldotsize/L/1_Ratio_750_L_20_R_15.png","img/250/randomdotsizeEA/L/5_Ratio_250_L_24_R_6.png","img/250/equaldotanddens/R/6_Ratio_250_L_6_R_24.png","img/750/randomdotsizeEA/L/8_Ratio_750_L_4_R_3.png","img/900/equaldotanddens/L/4_Ratio_900_L_20_R_18.png","img/900/randomdotsizeEA/R/6_Ratio_900_L_9_R_10.png","img/750/equaldotsize/L/10_Ratio_750_L_4_R_3.png","img/250/equaldotsize/L/7_Ratio_250_L_8_R_2.png","img/750/equaldotanddens/L/8_Ratio_750_L_4_R_3.png","img/750/equaldotanddens/R/4_Ratio_750_L_15_R_20.png","img/900/equaldotsize/R/3_Ratio_900_L_9_R_10.png","img/500/randomdotsizeEA/L/8_Ratio_500_L_8_R_4.png","img/900/equaldotanddens/R/13_Ratio_900_L_18_R_20.png","img/500/equaldotsize/L/4_Ratio_500_L_18_R_9.png","img/250/randomdotsizeEA/R/8_Ratio_250_L_1_R_4.png","img/750/equaldotanddens/L/8_Ratio_750_L_4_R_3.png","img/900/equaldotsize/L/8_Ratio_900_L_20_R_18.png","img/250/equaldotsize/L/1_Ratio_250_L_8_R_2.png","img/900/randomdotsizeEA/R/3_Ratio_900_L_9_R_10.png","img/500/equaldotanddens/R/1_Ratio_500_L_9_R_18.png","img/900/equaldotanddens/L/4_Ratio_900_L_20_R_18.png","img/750/equaldotsize/R/2_Ratio_750_L_6_R_8.png","img/750/equaldotanddens/L/10_Ratio_750_L_4_R_3.png","img/250/equaldotanddens/R/6_Ratio_250_L_6_R_24.png","img/750/equaldotanddens/R/3_Ratio_750_L_15_R_20.png","img/900/equaldotsize/R/9_Ratio_900_L_18_R_20.png","img/250/equaldotanddens/L/3_Ratio_250_L_8_R_2.png","img/900/randomdotsizeEA/L/10_Ratio_900_L_20_R_18.png","img/250/equaldotanddens/L/15_Ratio_250_L_12_R_3.png","img/250/equaldotsize/R/4_Ratio_250_L_3_R_12.png","img/500/equaldotsize/L/13_Ratio_500_L_12_R_6.png","img/250/randomdotsizeEA/L/5_Ratio_250_L_24_R_6.png","img/900/randomdotsizeEA/L/4_Ratio_900_L_20_R_18.png","img/900/randomdotsizeEA/R/12_Ratio_900_L_18_R_20.png","img/900/equaldotsize/L/2_Ratio_900_L_20_R_18.png","img/900/randomdotsizeEA/L/4_Ratio_900_L_20_R_18.png","img/900/randomdotsizeEA/R/14_Ratio_900_L_18_R_20.png","img/750/randomdotsizeEA/L/6_Ratio_750_L_24_R_18.png","img/900/equaldotanddens/R/5_Ratio_900_L_9_R_10.png","img/250/equaldotanddens/L/3_Ratio_250_L_8_R_2.png","img/250/equaldotsize/R/11_Ratio_250_L_3_R_12.png","img/750/equaldotanddens/R/2_Ratio_750_L_6_R_8.png","img/750/equaldotsize/R/3_Ratio_750_L_15_R_20.png","img/500/equaldotanddens/R/14_Ratio_500_L_5_R_10.png","img/250/randomdotsizeEA/L/5_Ratio_250_L_24_R_6.png","img/250/equaldotanddens/L/2_Ratio_250_L_16_R_4.png","img/500/equaldotanddens/L/10_Ratio_500_L_4_R_2.png","img/500/equaldotsize/R/12_Ratio_500_L_1_R_2.png","img/250/equaldotanddens/L/15_Ratio_250_L_12_R_3.png","img/900/randomdotsizeEA/L/2_Ratio_900_L_20_R_18.png","img/900/equaldotanddens/L/2_Ratio_900_L_20_R_18.png","img/750/randomdotsizeEA/R/3_Ratio_750_L_15_R_20.png","img/500/randomdotsizeEA/R/2_Ratio_500_L_3_R_6.png","img/750/randomdotsizeEA/L/8_Ratio_750_L_4_R_3.png","img/900/equaldotanddens/L/2_Ratio_900_L_20_R_18.png","img/750/equaldotsize/L/1_Ratio_750_L_20_R_15.png"],"Rat0":[["12_Ratio_0_L_9_R_0.png","13_Ratio_0_L_6_R_0.png","5_Ratio_0_L_2_R_0.png","6_Ratio_0_L_4_R_0.png","8_Ratio_0_L_6_R_0.png"],["1_Ratio_0_L_0_R_17.png","10_Ratio_0_L_0_R_22.png","11_Ratio_0_L_0_R_1.png","14_Ratio_0_L_0_R_24.png","15_Ratio_0_L_0_R_4.png","2_Ratio_0_L_0_R_5.png","3_Ratio_0_L_0_R_17.png","4_Ratio_0_L_0_R_7.png","7_Ratio_0_L_0_R_19.png","9_Ratio_0_L_0_R_15.png"]],"Rat250":[["1_Ratio_250_L_8_R_2.png","14_Ratio_250_L_12_R_3.png","15_Ratio_250_L_12_R_3.png","2_Ratio_250_L_16_R_4.png","3_Ratio_250_L_8_R_2.png","5_Ratio_250_L_24_R_6.png","7_Ratio_250_L_8_R_2.png"],["10_Ratio_250_L_4_R_16.png","11_Ratio_250_L_3_R_12.png","12_Ratio_250_L_5_R_20.png","13_Ratio_250_L_2_R_8.png","4_Ratio_250_L_3_R_12.png","6_Ratio_250_L_6_R_24.png","8_Ratio_250_L_1_R_4.png","9_Ratio_250_L_3_R_12.png"]],"Rat500":[["10_Ratio_500_L_4_R_2.png","11_Ratio_500_L_12_R_6.png","13_Ratio_500_L_12_R_6.png","4_Ratio_500_L_18_R_9.png","5_Ratio_500_L_4_R_2.png","7_Ratio_500_L_10_R_5.png","8_Ratio_500_L_8_R_4.png"],["1_Ratio_500_L_9_R_18.png","12_Ratio_500_L_1_R_2.png","14_Ratio_500_L_5_R_10.png","15_Ratio_500_L_1_R_2.png","2_Ratio_500_L_3_R_6.png","3_Ratio_500_L_10_R_20.png","6_Ratio_500_L_9_R_18.png","9_Ratio_500_L_2_R_4.png"]],"Rat750":[["1_Ratio_750_L_20_R_15.png","10_Ratio_750_L_4_R_3.png","13_Ratio_750_L_8_R_6.png","14_Ratio_750_L_8_R_6.png","6_Ratio_750_L_24_R_18.png","8_Ratio_750_L_4_R_3.png","9_Ratio_750_L_4_R_3.png"],["11_Ratio_750_L_12_R_16.png","12_Ratio_750_L_3_R_4.png","15_Ratio_750_L_9_R_12.png","2_Ratio_750_L_6_R_8.png","3_Ratio_750_L_15_R_20.png","4_Ratio_750_L_15_R_20.png","5_Ratio_750_L_15_R_20.png","7_Ratio_750_L_3_R_4.png"]],"Rat900":[["1_Ratio_900_L_10_R_9.png","10_Ratio_900_L_20_R_18.png","2_Ratio_900_L_20_R_18.png","4_Ratio_900_L_20_R_18.png","8_Ratio_900_L_20_R_18.png"],["11_Ratio_900_L_18_R_20.png","12_Ratio_900_L_18_R_20.png","13_Ratio_900_L_18_R_20.png","14_Ratio_900_L_18_R_20.png","15_Ratio_900_L_9_R_10.png","3_Ratio_900_L_9_R_10.png","5_Ratio_900_L_9_R_10.png","6_Ratio_900_L_9_R_10.png","7_Ratio_900_L_9_R_10.png","9_Ratio_900_L_18_R_20.png"]],"Rat1000":[["10_Ratio_1000_L_16_R_16.png","11_Ratio_1000_L_6_R_6.png","12_Ratio_1000_L_14_R_14.png","13_Ratio_1000_L_20_R_20.png","15_Ratio_1000_L_15_R_15.png","2_Ratio_1000_L_17_R_17.png","4_Ratio_1000_L_9_R_9.png","5_Ratio_1000_L_6_R_6.png","6_Ratio_1000_L_19_R_19.png","8_Ratio_1000_L_14_R_14.png","9_Ratio_1000_L_25_R_25.png"],["1_Ratio_1000_L_1_R_1.png","14_Ratio_1000_L_17_R_17.png","3_Ratio_1000_L_17_R_17.png","7_Ratio_1000_L_6_R_6.png"]]}},{"start_time":1551900213869,"click_time":1551900218119,"finger_time":1551900217117,"fix_duration":250,"trial":1,"RT":3248,"MT":1002,"sideResp":1,"stimulus":"img/750/randomdotsizeEA/L/1_Ratio_750_L_20_R_15.png","xmouse":[821,821,821,821,821,821,821,821,821,821,821,821,821,821,821,821,821,821,821,821,821,821,821,821,821,821,821,821,821,821,821,821,821,821,821,821,821,821,821,821,821,821,821,821,821,821,821,821,821,821,821,821,821,821,821,821,821,821,821,821,821,821,821,821,821,821,821,821,821,821,821,821,821,821,821,821,821,821,821,821,821,821,821,821,821,820,820,820,820,820,820,820,820,820,820,820,820,820,820,820,820,820,820,820,820,820,820,820,820,820,820,820,820,820,820,820,820,820,820,820,820,820,820,820,820,820,820,820,820,820,820,820,820,820,820,820,820,820,820,820,820,820,820,820,820,820,820,820,820,820,820,820,820,820,820,820,820,820,819,818,815,809,803,794,787,781,776,776,776,776,775,771,768,762,756,747,730,721,712,704,696,680,676,673,669,658,653,650,646,642,628,610,601,594,588,578,574,571,569,567,566,563,561,558,554,550,544,543,542,539,536,525,522],"ymouse":[424,424,424,424,424,424,424,424,424,424,424,424,424,424,424,424,424,424,424,424,424,424,424,424,424,424,424,424,424,424,424,424,424,424,424,424,424,424,424,424,424,424,424,424,424,424,424,424,424,424,424,424,424,424,424,424,424,424,424,424,424,424,424,424,424,424,424,424,424,424,424,424,424,424,424,424,424,424,424,424,424,424,424,424,424,424,424,424,424,424,424,424,424,424,424,424,424,424,424,423,423,422,422,422,422,422,422,422,422,422,422,422,422,421,421,421,421,421,421,421,421,421,421,421,421,421,421,421,421,421,421,421,421,421,421,421,421,421,421,421,421,421,421,421,421,421,421,421,421,421,421,421,421,420,420,418,418,416,415,413,409,403,396,390,384,379,374,374,374,373,372,366,361,353,340,323,294,280,267,255,243,219,212,205,198,187,183,180,175,172,163,154,150,146,142,135,133,130,128,127,126,122,119,116,112,109,104,102,100,95,92,82,79],"timestamp_mouse":[9,39,48,68,89,109,128,148,168,190,208,228,248,268,289,308,329,348,369,389,410,429,448,468,488,508,528,548,568,588,608,628,650,669,688,708,729,749,768,788,808,829,848,868,888,909,928,948,969,989,1009,1028,1048,1068,1088,1108,1128,1148,1169,1188,1208,1228,1248,1268,1288,1308,1328,1348,1368,1390,1408,1428,1448,1468,1488,1509,1529,1549,1568,1588,1609,1628,1649,1669,1688,1708,1728,1749,1769,1788,1809,1829,1848,1868,1889,1909,1928,1948,1969,1989,2009,2029,2049,2068,2088,2110,2129,2148,2169,2188,2209,2229,2248,2268,2288,2309,2329,2350,2368,2389,2408,2428,2449,2469,2488,2508,2528,2548,2569,2588,2608,2628,2648,2669,2689,2708,2728,2748,2768,2788,2808,2830,2849,2869,2889,2909,2929,2948,2968,2988,3009,3028,3048,3069,3088,3108,3128,3149,3170,3188,3208,3229,3248,3268,3290,3309,3328,3348,3368,3388,3410,3429,3448,3468,3490,3509,3528,3548,3569,3589,3608,3628,3648,3669,3690,3710,3728,3749,3768,3788,3810,3828,3848,3868,3889,3910,3928,3949,3968,3989,4008,4028,4048,4068,4088,4108,4129,4148,4168,4188,4210,4228,4250],"xSR":741.5,"ySR":397.65000000000003,"xT1":424.9,"yT1":0,"xT2":1058.1,"yT2":0,"toosoon":0,"cond_shown":"randomdotsizeEA","ratio_trial":750,"smaller_num":"15","larger_num":"20","correct_side":1,"subjID":"mariajosepolanco4","gender":"1","age":"10","school":"6"},{"start_time":1551900220420,"click_time":1551900221977,"finger_time":1551900221598,"fix_duration":1221.0990295605093,"trial":2,"RT":1178,"MT":379,"sideResp":1,"stimulus":"img/500/randomdotsizeEA/L/13_Ratio_500_L_12_R_6.png","xmouse":[790,790,790,790,790,790,790,790,790,790,790,790,790,790,790,790,790,790,790,790,790,790,790,790,790,790,790,790,790,790,790,790,790,790,790,790,790,790,790,790,790,790,790,790,790,790,790,790,790,790,790,790,790,790,787,784,777,765,745,742,737,726,701,665,650,639,630,624,614,607,599,584,574,557,548,536,522,509],"ymouse":[455,455,455,455,455,455,455,455,455,455,455,455,455,455,455,455,455,455,455,455,455,455,455,455,455,455,455,455,455,455,455,455,455,455,455,455,455,455,455,455,455,455,455,455,455,455,455,455,455,455,455,455,455,453,446,441,429,413,397,395,389,375,353,319,304,293,282,273,253,239,224,199,182,153,138,122,107,96],"timestamp_mouse":[21,37,59,77,99,117,137,157,177,197,217,237,258,278,297,318,338,358,377,397,417,437,457,477,497,518,539,558,577,597,617,637,657,678,697,717,737,757,778,797,817,837,857,877,898,917,938,957,977,997,1017,1038,1057,1078,1097,1117,1138,1157,1178,1198,1217,1237,1257,1277,1299,1318,1338,1357,1377,1397,1418,1437,1457,1478,1498,1517,1537,1557],"xSR":741.5,"ySR":397.65000000000003,"xT1":424.9,"yT1":0,"xT2":1058.1,"yT2":0,"toosoon":0,"cond_shown":"randomdotsizeEA","ratio_trial":500,"smaller_num":"6","larger_num":"12","correct_side":1,"subjID":"mariajosepolanco4","gender":"1","age":"10","school":"6"},{"start_time":1551900223754,"click_time":1551900225299,"finger_time":1551900224937,"fix_duration":755.8283092017615,"trial":3,"RT":1183,"MT":362,"sideResp":2,"stimulus":"img/500/equaldotanddens/R/9_Ratio_500_L_2_R_4.png","xmouse":[772,772,772,772,772,772,772,772,772,772,772,772,773,775,775,776,776,777,777,777,777,777,777,777,777,777,777,777,777,777,777,777,777,777,777,777,777,777,777,777,777,777,777,777,777,777,777,777,777,777,777,777,777,777,777,778,782,792,811,819,824,829,837,862,887,904,922,935,961,976,990,1008,1050,1074,1085,1094,1100,1109],"ymouse":[452,452,452,452,452,452,452,452,452,452,452,452,452,448,448,446,445,444,443,443,443,443,443,443,443,443,443,443,443,443,443,443,443,443,443,443,443,443,443,443,443,443,443,443,443,443,443,443,443,443,443,443,443,443,443,442,437,430,403,388,374,360,344,321,305,291,278,266,244,234,224,212,180,157,143,131,121,99],"timestamp_mouse":[9,23,43,64,84,103,125,144,163,183,205,223,243,263,283,303,324,344,364,383,403,424,444,464,483,503,523,543,563,583,605,623,643,663,683,703,724,744,764,784,803,823,844,863,883,903,924,943,963,983,1003,1024,1043,1063,1084,1104,1125,1144,1164,1183,1205,1223,1244,1263,1283,1303,1323,1343,1364,1383,1405,1423,1445,1464,1483,1503,1523,1545],"xSR":741.5,"ySR":397.65000000000003,"xT1":424.9,"yT1":0,"xT2":1058.1,"yT2":0,"toosoon":0,"cond_shown":"equaldotanddens","ratio_trial":500,"smaller_num":"2","larger_num":"4","correct_side":2,"subjID":"mariajosepolanco4","gender":"1","age":"10","school":"6"},{"start_time":1551900226249,"click_time":1551900227518,"finger_time":1551900227077,"fix_duration":250,"trial":4,"RT":828,"MT":441,"sideResp":1,"stimulus":"img/500/equaldotsize/L/8_Ratio_500_L_8_R_4.png","xmouse":[777,777,777,777,777,777,777,777,777,777,777,777,777,777,777,777,777,777,777,777,777,777,777,777,777,777,777,777,777,777,777,777,777,777,774,772,767,763,756,754,753,749,743,726,716,705,694,685,653,640,627,616,609,602,598,594,586,578,549,538,530,522,514,500],"ymouse":[439,439,439,439,439,439,439,439,439,439,439,439,439,439,439,439,439,439,439,439,439,439,439,439,439,439,439,439,439,439,439,439,439,439,436,433,426,418,407,404,401,391,378,347,332,316,303,293,264,253,241,230,220,206,198,193,184,176,151,141,130,118,106,86],"timestamp_mouse":[8,29,48,68,88,108,128,149,169,189,208,229,249,269,289,309,328,348,368,388,409,428,448,469,488,509,528,550,569,588,609,628,648,669,689,708,728,749,770,789,809,828,849,869,889,908,929,950,968,989,1008,1028,1048,1068,1088,1109,1128,1149,1168,1189,1209,1229,1249,1269],"xSR":741.5,"ySR":397.65000000000003,"xT1":424.9,"yT1":0,"xT2":1058.1,"yT2":0,"toosoon":0,"cond_shown":"equaldotsize","ratio_trial":500,"smaller_num":"4","larger_num":"8","correct_side":1,"subjID":"mariajosepolanco4","gender":"1","age":"10","school":"6"},{"start_time":1551900229264,"click_time":1551900231057,"finger_time":1551900230478,"fix_duration":1065.3745235850406,"trial":5,"RT":1214,"MT":579,"sideResp":1,"stimulus":"img/750/randomdotsizeEA/L/14_Ratio_750_L_8_R_6.png","xmouse":[826,826,826,826,826,826,826,826,826,826,826,826,826,826,826,826,826,826,826,826,826,826,826,826,826,826,826,826,826,824,824,824,824,824,824,824,824,824,824,824,824,824,824,823,821,809,805,805,805,805,805,805,805,802,801,798,791,776,768,759,749,742,735,734,729,723,720,711,705,698,689,677,663,631,603,583,565,552,540,536,534,533,533,532,531,530,527,523,511,508],"ymouse":[467,467,467,467,467,467,467,467,467,467,467,467,467,467,467,467,467,467,467,467,467,467,467,467,467,467,467,467,467,466,466,466,464,463,463,462,462,462,462,462,462,462,462,462,462,462,462,462,462,462,462,462,462,459,458,452,444,426,414,399,379,352,318,316,304,291,285,272,265,258,249,241,233,218,206,197,191,181,165,157,154,152,150,145,141,136,130,121,100,92],"timestamp_mouse":[13,38,54,73,94,114,133,153,174,194,214,233,253,273,293,313,333,353,373,394,413,434,453,474,495,513,533,554,573,593,613,633,655,674,693,713,733,755,773,794,813,833,853,873,893,914,934,954,973,993,1013,1033,1053,1074,1094,1113,1133,1153,1174,1193,1214,1233,1254,1273,1293,1314,1334,1354,1373,1394,1413,1434,1454,1474,1494,1514,1535,1553,1574,1594,1614,1634,1653,1675,1693,1714,1733,1754,1773,1793],"xSR":741.5,"ySR":397.65000000000003,"xT1":424.9,"yT1":0,"xT2":1058.1,"yT2":0,"toosoon":0,"cond_shown":"randomdotsizeEA","ratio_trial":750,"smaller_num":"6","larger_num":"8","correct_side":1,"subjID":"mariajosepolanco4","gender":"1","age":"10","school":"6"},{"start_time":1551900234176,"click_time":1551900235699,"finger_time":1551900235138,"fix_duration":616.8272309072341,"trial":6,"RT":962,"MT":561,"sideResp":1,"stimulus":"img/900/equaldotanddens/L/8_Ratio_900_L_20_R_18.png","xmouse":[767,767,767,767,767,767,767,767,767,767,767,767,767,767,767,767,767,767,767,767,767,767,767,767,767,767,767,767,767,767,767,767,767,767,767,767,767,767,767,767,767,767,767,767,767,767,767,767,751,738,725,716,710,704,700,696,693,687,673,668,664,661,657,647,639,631,619,608,573,561,553,548,545,534,531,519,501],"ymouse":[409,409,409,409,409,409,409,409,409,409,409,409,409,409,409,409,409,409,409,409,409,409,409,409,409,409,409,409,409,409,409,409,409,409,409,409,409,409,409,409,409,409,409,409,409,409,406,400,368,351,334,319,307,289,280,275,268,258,233,224,219,215,210,198,191,184,175,167,148,141,136,132,129,116,112,102,91],"timestamp_mouse":[8,23,43,63,82,102,123,144,163,182,203,223,244,262,282,302,323,342,363,382,404,423,442,462,483,503,523,544,563,582,603,622,643,663,682,703,723,743,763,783,802,822,842,863,883,902,922,943,962,983,1002,1022,1042,1062,1082,1102,1123,1144,1163,1183,1202,1222,1242,1263,1282,1304,1323,1344,1362,1382,1403,1423,1443,1464,1484,1503,1523],"xSR":741.5,"ySR":397.65000000000003,"xT1":424.9,"yT1":0,"xT2":1058.1,"yT2":0,"toosoon":0,"cond_shown":"equaldotanddens","ratio_trial":900,"smaller_num":"18","larger_num":"20","correct_side":1,"subjID":"mariajosepolanco4","gender":"1","age":"10","school":"6"},{"start_time":1551900238002,"click_time":1551900239859,"finger_time":1551900239258,"fix_duration":1421.6953456551018,"trial":7,"RT":1256,"MT":601,"sideResp":2,"stimulus":"img/250/equaldotsize/R/9_Ratio_250_L_3_R_12.png","xmouse":[765,765,765,765,765,765,765,765,765,765,765,765,765,765,765,765,765,765,765,765,765,765,765,765,765,765,765,765,765,765,766,766,766,766,766,766,766,766,766,766,766,766,766,766,766,766,766,766,766,766,766,767,768,772,775,778,780,783,786,789,794,801,821,840,849,870,892,904,916,926,937,954,960,963,966,968,973,977,984,990,996,1011,1019,1031,1038,1043,1050,1064,1071,1078,1084,1090,1103],"ymouse":[454,454,454,454,454,454,454,454,454,454,454,454,454,454,454,454,454,454,454,454,454,454,454,454,453,453,453,453,453,453,452,452,452,452,452,452,452,452,452,452,452,452,452,452,452,452,452,452,452,452,452,450,449,445,441,436,429,426,422,418,410,402,371,349,340,323,304,293,281,267,256,242,236,233,229,227,221,216,210,205,199,187,180,169,163,158,152,142,135,126,117,109,90],"timestamp_mouse":[18,46,56,76,97,117,136,156,176,197,217,236,256,276,296,316,336,356,376,396,416,437,457,476,496,516,537,557,577,597,616,637,657,676,696,717,737,757,776,796,816,837,858,877,897,917,937,957,977,996,1017,1038,1057,1076,1096,1117,1137,1156,1176,1198,1217,1236,1256,1276,1296,1316,1337,1356,1376,1396,1416,1437,1456,1477,1498,1518,1537,1556,1577,1596,1617,1638,1656,1676,1696,1716,1737,1756,1776,1796,1817,1836,1857],"xSR":741.5,"ySR":397.65000000000003,"xT1":424.9,"yT1":0,"xT2":1058.1,"yT2":0,"toosoon":0,"cond_shown":"equaldotsize","ratio_trial":250,"smaller_num":"3","larger_num":"12","correct_side":2,"subjID":"mariajosepolanco4","gender":"1","age":"10","school":"6"},{"start_time":1551900242431,"click_time":1551900243659,"finger_time":1551900243379,"fix_duration":250,"trial":8,"RT":948,"MT":280,"sideResp":1,"stimulus":"img/900/equaldotsize/L/2_Ratio_900_L_20_R_18.png","xmouse":[797,797,797,797,797,797,797,797,797,797,797,797,797,797,797,797,797,797,797,797,797,797,797,797,797,797,797,797,797,797,797,797,797,797,797,797,797,797,799,799,800,801,801,799,797,794,772,752,733,718,710,708,708,708,706,701,675,641,601,554,501,476],"ymouse":[482,482,482,482,482,482,482,482,482,482,482,482,482,482,482,482,482,482,482,482,482,482,482,482,482,482,482,482,482,482,482,482,482,482,482,482,482,482,479,477,476,468,462,456,449,443,410,386,362,339,326,312,307,301,292,279,241,205,171,133,102,91],"timestamp_mouse":[8,27,53,67,89,108,127,147,167,188,209,228,249,268,288,307,328,347,367,387,407,428,448,468,488,507,528,547,567,588,607,628,647,667,688,708,728,748,769,788,808,828,849,868,889,909,929,948,969,988,1008,1028,1047,1067,1088,1107,1127,1147,1169,1189,1207,1228],"xSR":741.5,"ySR":397.65000000000003,"xT1":424.9,"yT1":0,"xT2":1058.1,"yT2":0,"toosoon":0,"cond_shown":"equaldotsize","ratio_trial":900,"smaller_num":"18","larger_num":"20","correct_side":1,"subjID":"mariajosepolanco4","gender":"1","age":"10","school":"6"},{"start_time":1551900245628,"click_time":1551900247379,"finger_time":1551900246878,"fix_duration":1128.0134524409375,"trial":9,"RT":1250,"MT":501,"sideResp":2,"stimulus":"img/750/randomdotsizeEA/R/15_Ratio_750_L_9_R_12.png","xmouse":[758,758,758,758,758,758,758,758,758,758,758,758,758,758,758,758,758,758,758,758,758,758,758,758,758,758,758,758,758,758,758,758,758,758,758,758,758,758,758,758,758,758,758,758,758,758,758,758,758,758,758,758,758,758,758,758,758,760,764,770,780,796,801,807,815,823,857,885,913,937,972,993,1011,1014,1015,1016,1024,1032,1041,1054,1059,1070,1073,1076,1079,1082,1086,1092],"ymouse":[438,438,438,438,438,438,438,438,438,438,438,438,438,438,438,438,438,438,438,438,438,438,438,438,438,438,438,438,438,438,438,438,438,438,438,438,438,438,438,438,438,438,438,438,438,438,438,438,438,438,438,438,438,438,438,438,438,437,434,428,418,400,389,380,368,355,324,304,284,266,240,227,212,210,209,207,199,191,180,163,155,140,135,131,126,121,114,98],"timestamp_mouse":[10,31,58,71,91,110,131,151,171,191,211,230,251,271,291,310,331,350,371,390,410,430,450,471,490,510,530,550,570,591,610,630,650,670,691,710,730,752,771,791,811,831,850,871,891,911,930,950,971,991,1010,1031,1051,1071,1090,1110,1130,1150,1171,1191,1212,1231,1250,1270,1290,1310,1330,1350,1371,1390,1410,1431,1451,1470,1491,1512,1531,1552,1572,1590,1611,1631,1651,1671,1691,1711,1731,1751],"xSR":741.5,"ySR":397.65000000000003,"xT1":424.9,"yT1":0,"xT2":1058.1,"yT2":0,"toosoon":0,"cond_shown":"randomdotsizeEA","ratio_trial":750,"smaller_num":"9","larger_num":"12","correct_side":2,"subjID":"mariajosepolanco4","gender":"1","age":"10","school":"6"},{"start_time":1551900249305,"click_time":1551900250878,"finger_time":1551900250520,"fix_duration":1025.8228940282652,"trial":10,"RT":1215,"MT":358,"sideResp":1,"stimulus":"img/500/randomdotsizeEA/L/5_Ratio_500_L_4_R_2.png","xmouse":[750,750,750,750,750,750,750,750,750,750,750,750,750,750,750,750,750,750,750,750,750,750,750,750,750,750,750,750,750,750,750,750,750,750,750,750,750,750,750,750,750,750,750,750,750,750,750,750,750,750,750,750,750,750,750,750,751,753,765,768,768,766,764,763,762,759,757,753,740,730,716,693,653,626,608,589,571,554,518],"ymouse":[451,451,451,451,451,451,451,451,451,451,451,451,451,451,451,451,451,451,451,451,451,451,451,451,451,451,451,451,451,451,451,451,451,451,451,451,451,451,451,451,451,451,451,451,451,451,451,451,451,451,451,451,451,451,451,451,450,447,424,407,388,366,349,314,300,287,275,261,222,199,179,153,122,102,91,84,76,69,54],"timestamp_mouse":[15,40,53,73,93,114,134,153,173,194,213,233,254,274,294,313,333,353,374,394,413,433,453,473,493,513,534,553,575,594,613,634,654,673,694,714,733,753,774,795,814,833,853,874,893,913,933,953,973,994,1014,1034,1053,1073,1093,1114,1134,1154,1174,1193,1215,1234,1255,1274,1295,1314,1333,1353,1373,1393,1413,1433,1455,1473,1494,1513,1535,1555,1573],"xSR":741.5,"ySR":397.65000000000003,"xT1":424.9,"yT1":0,"xT2":1058.1,"yT2":0,"toosoon":0,"cond_shown":"randomdotsizeEA","ratio_trial":500,"smaller_num":"2","larger_num":"4","correct_side":1,"subjID":"mariajosepolanco4","gender":"1","age":"10","school":"6"},{"start_time":1551900252604,"click_time":1551900254079,"finger_time":1551900253698,"fix_duration":704.9988078087346,"trial":11,"RT":1094,"MT":381,"sideResp":2,"stimulus":"img/500/equaldotanddens/R/9_Ratio_500_L_2_R_4.png","xmouse":[785,785,785,785,785,785,786,786,786,786,786,786,786,786,786,786,786,786,786,786,786,786,786,786,786,786,786,786,786,786,786,786,786,786,786,786,786,786,786,786,786,786,786,786,786,786,786,786,786,786,787,790,796,814,820,830,837,846,871,883,899,916,929,954,965,977,994,1001,1034,1046,1056,1064,1070,1084],"ymouse":[443,443,443,443,443,443,444,444,444,444,444,444,444,444,444,444,444,444,444,444,444,444,444,444,444,444,444,444,444,444,444,444,444,444,444,444,444,444,444,444,444,444,444,444,444,444,444,444,444,444,443,438,431,398,381,366,356,345,321,310,297,283,272,250,239,228,209,201,162,145,129,116,106,81],"timestamp_mouse":[15,34,56,74,95,116,134,154,175,194,216,235,256,275,294,314,335,354,376,395,415,434,454,476,496,514,534,555,576,595,614,635,655,674,694,715,734,754,776,794,815,834,854,876,896,915,934,954,975,995,1014,1036,1055,1074,1094,1115,1135,1155,1174,1195,1215,1234,1255,1274,1295,1316,1335,1354,1374,1396,1414,1434,1454,1475],"xSR":741.5,"ySR":397.65000000000003,"xT1":424.9,"yT1":0,"xT2":1058.1,"yT2":0,"toosoon":0,"cond_shown":"equaldotanddens","ratio_trial":500,"smaller_num":"2","larger_num":"4","correct_side":2,"subjID":"mariajosepolanco4","gender":"1","age":"10","school":"6"},{"start_time":1551900256185,"click_time":1551900257739,"finger_time":1551900257059,"fix_duration":1385.7207712033728,"trial":12,"RT":874,"MT":680,"sideResp":1,"stimulus":"img/250/randomdotsizeEA/L/15_Ratio_250_L_12_R_3.png","xmouse":[777,777,777,777,777,777,777,777,777,777,777,777,777,777,777,777,777,777,777,777,777,777,777,777,777,777,777,777,777,777,777,777,777,777,777,777,777,777,777,778,781,790,799,807,807,806,805,805,803,795,780,747,698,646,601,601,601,601,601,601,601,601,601,601,601,601,601,601,601,601,601,601,601,601,601,601,601,468],"ymouse":[463,463,463,463,463,463,463,463,463,463,463,463,463,463,463,463,463,463,463,463,463,463,463,463,463,463,463,463,463,463,463,463,463,463,463,463,463,463,463,462,457,441,414,374,349,326,318,316,305,257,212,152,88,38,2,2,2,2,2,2,2,2,2,2,2,2,2,2,2,2,2,2,2,2,2,2,2,6],"timestamp_mouse":[14,46,54,73,93,114,134,153,173,194,214,233,253,274,294,314,333,353,373,394,413,433,453,473,494,513,533,553,574,594,614,633,653,673,694,714,733,754,775,794,813,834,854,874,894,913,933,953,974,994,1013,1033,1054,1073,1094,1114,1133,1154,1173,1194,1213,1233,1254,1273,1294,1313,1334,1353,1374,1394,1413,1434,1454,1474,1495,1514,1535,1554],"xSR":741.5,"ySR":397.65000000000003,"xT1":424.9,"yT1":0,"xT2":1058.1,"yT2":0,"toosoon":0,"cond_shown":"randomdotsizeEA","ratio_trial":250,"smaller_num":"3","larger_num":"12","correct_side":1,"subjID":"mariajosepolanco4","gender":"1","age":"10","school":"6"},{"start_time":1551900259638,"click_time":1551900260939,"finger_time":1551900260438,"fix_duration":719.5329546585291,"trial":13,"RT":800,"MT":501,"sideResp":1,"stimulus":"img/500/equaldotanddens/L/5_Ratio_500_L_4_R_2.png","xmouse":[783,783,783,783,783,783,783,783,783,783,783,783,783,783,783,783,783,783,783,783,783,783,783,783,783,783,783,783,783,783,783,783,783,783,783,783,783,783,784,786,789,793,797,792,778,764,752,741,720,707,689,664,630,606,603,602,602,602,600,600,595,586,564,537,529,523],"ymouse":[433,434,434,434,434,435,435,435,435,435,435,435,435,435,435,435,435,435,435,435,435,435,435,435,435,435,435,435,435,435,435,435,435,435,435,434,433,431,420,410,397,379,335,291,259,237,223,209,179,163,143,124,102,89,87,87,87,87,87,87,86,84,83,83,82,81],"timestamp_mouse":[3,20,42,62,87,101,120,142,161,181,200,220,241,261,281,300,320,341,361,381,400,421,441,461,481,500,520,540,561,581,601,621,641,660,680,700,720,740,761,781,800,820,843,861,881,901,920,940,960,980,1000,1020,1042,1060,1081,1102,1121,1141,1160,1180,1200,1221,1240,1260,1281,1301],"xSR":741.5,"ySR":397.65000000000003,"xT1":424.9,"yT1":0,"xT2":1058.1,"yT2":0,"toosoon":0,"cond_shown":"equaldotanddens","ratio_trial":500,"smaller_num":"2","larger_num":"4","correct_side":1,"subjID":"mariajosepolanco4","gender":"1","age":"10","school":"6"},{"start_time":1551900263057,"click_time":1551900264219,"finger_time":1551900263680,"fix_duration":1217.4561648561914,"trial":14,"RT":623,"MT":539,"sideResp":1,"stimulus":"img/250/equaldotanddens/L/1_Ratio_250_L_8_R_2.png","xmouse":[785,785,785,785,785,785,785,785,785,785,785,785,785,785,785,785,785,785,785,785,785,785,785,785,785,785,785,785,785,785,785,783,773,767,756,745,733,717,709,694,689,670,645,633,622,612,601,592,578,570,553,542,529,527,525,525,525,525,522],"ymouse":[434,434,434,434,434,434,434,434,434,434,434,434,434,434,434,434,434,434,434,434,434,434,434,434,434,434,434,433,429,423,411,389,352,327,301,274,247,208,191,162,152,127,100,91,83,76,71,67,65,63,61,60,59,59,59,59,59,59,59],"timestamp_mouse":[9,21,46,62,82,102,121,142,162,181,201,222,242,261,281,301,322,342,361,382,403,423,441,462,481,501,522,542,562,583,601,623,641,662,681,702,722,741,761,782,803,821,841,862,881,903,921,942,961,982,1002,1023,1041,1061,1081,1101,1121,1141,1161],"xSR":741.5,"ySR":397.65000000000003,"xT1":424.9,"yT1":0,"xT2":1058.1,"yT2":0,"toosoon":0,"cond_shown":"equaldotanddens","ratio_trial":250,"smaller_num":"2","larger_num":"8","correct_side":1,"subjID":"mariajosepolanco4","gender":"1","age":"10","school":"6"},{"start_time":1551900265390,"click_time":1551900266539,"finger_time":1551900266099,"fix_duration":250,"trial":15,"RT":709,"MT":440,"sideResp":1,"stimulus":"img/900/equaldotsize/R/3_Ratio_900_L_9_R_10.png","xmouse":[827,827,827,827,827,827,827,827,827,827,827,827,827,827,827,827,827,827,827,827,827,827,826,826,826,826,826,826,826,826,826,826,824,822,819,806,793,778,760,738,710,697,686,682,679,671,665,656,644,632,606,594,578,562,554,535,528,524],"ymouse":[423,423,423,423,423,423,423,423,423,423,423,423,423,423,423,423,423,423,423,423,423,423,423,422,421,419,417,416,415,414,412,410,406,404,399,381,363,343,319,286,235,217,196,188,182,166,158,149,140,132,119,113,107,98,95,88,85,83],"timestamp_mouse":[9,28,48,68,88,109,129,149,169,189,208,229,249,268,289,308,329,349,368,388,409,429,450,468,489,509,528,548,569,588,609,628,649,668,688,709,729,748,770,788,810,828,849,869,890,909,928,948,968,989,1009,1028,1048,1069,1088,1109,1128,1149],"xSR":741.5,"ySR":397.65000000000003,"xT1":424.9,"yT1":0,"xT2":1058.1,"yT2":0,"toosoon":0,"cond_shown":"equaldotsize","ratio_trial":900,"smaller_num":"9","larger_num":"10","correct_side":2,"subjID":"mariajosepolanco4","gender":"1","age":"10","school":"6"},{"start_time":1551900268009,"click_time":1551900269498,"finger_time":1551900269019,"fix_duration":250,"trial":16,"RT":1010,"MT":479,"sideResp":1,"stimulus":"img/750/equaldotsize/L/10_Ratio_750_L_4_R_3.png","xmouse":[821,821,821,821,821,821,821,821,821,821,821,821,821,821,821,821,821,821,821,821,821,821,821,821,821,821,821,821,821,821,821,821,821,821,821,821,821,821,821,821,821,821,821,821,821,821,821,818,812,805,787,775,769,761,742,729,720,714,707,701,678,668,660,654,640,630,618,603,587,570,559,556,546,533,522],"ymouse":[430,430,430,430,430,430,430,430,430,430,430,430,430,430,430,430,430,430,430,430,430,430,430,430,430,430,430,430,430,430,430,430,430,430,430,430,430,430,430,430,430,430,430,430,429,426,423,416,409,401,380,361,345,326,287,269,256,247,236,227,199,192,185,181,166,155,141,128,112,95,85,82,76,67,58],"timestamp_mouse":[9,43,51,71,89,111,130,149,169,190,211,230,250,269,289,310,329,350,369,390,409,429,451,470,490,509,530,549,569,590,610,629,649,669,691,711,729,749,769,790,810,830,850,870,890,911,929,949,969,991,1010,1029,1050,1070,1091,1110,1129,1150,1170,1190,1210,1231,1249,1269,1291,1309,1330,1350,1370,1391,1410,1429,1449,1469,1489],"xSR":741.5,"ySR":397.65000000000003,"xT1":424.9,"yT1":0,"xT2":1058.1,"yT2":0,"toosoon":0,"cond_shown":"equaldotsize","ratio_trial":750,"smaller_num":"3","larger_num":"4","correct_side":1,"subjID":"mariajosepolanco4","gender":"1","age":"10","school":"6"},{"start_time":1551900270727,"click_time":1551900272000,"finger_time":1551900271539,"fix_duration":286.25325731871885,"trial":17,"RT":812,"MT":461,"sideResp":1,"stimulus":"img/500/equaldotsize/L/13_Ratio_500_L_12_R_6.png","xmouse":[783,783,783,783,783,783,783,783,783,783,783,783,783,783,783,783,783,783,783,783,783,783,783,783,783,783,783,783,783,783,783,783,782,782,782,781,780,780,778,775,773,770,766,764,743,731,713,692,673,638,621,605,587,561,532,516,503,502,502,502,501,501,501,501],"ymouse":[435,435,435,435,435,435,435,435,435,435,435,435,435,435,435,435,435,435,435,435,435,435,435,435,435,435,435,435,435,435,435,435,434,434,429,428,423,420,415,402,397,389,380,376,347,334,314,296,282,262,252,243,233,218,197,184,172,163,154,142,118,106,102,94],"timestamp_mouse":[11,37,52,72,92,111,132,151,171,192,212,232,251,272,292,312,331,351,372,392,412,431,452,471,491,513,532,551,571,591,611,632,651,671,692,713,732,751,771,791,812,833,852,871,891,912,931,952,972,992,1012,1032,1053,1073,1092,1113,1132,1153,1172,1191,1211,1232,1251,1272],"xSR":741.5,"ySR":397.65000000000003,"xT1":424.9,"yT1":0,"xT2":1058.1,"yT2":0,"toosoon":0,"cond_shown":"equaldotsize","ratio_trial":500,"smaller_num":"6","larger_num":"12","correct_side":1,"subjID":"mariajosepolanco4","gender":"1","age":"10","school":"6"},{"start_time":1551900274554,"click_time":1551900275759,"finger_time":1551900275400,"fix_duration":1173.3975976517568,"trial":18,"RT":846,"MT":359,"sideResp":1,"stimulus":"img/500/equaldotsize/L/5_Ratio_500_L_4_R_2.png","xmouse":[769,769,769,769,769,769,769,769,769,769,769,769,769,769,769,769,769,769,769,769,769,769,769,769,769,769,769,769,769,769,769,769,769,769,769,768,766,762,760,756,754,750,745,719,693,667,637,612,594,561,552,549,548,548,559,573,581,583,583,566,521],"ymouse":[435,435,435,435,435,435,435,435,435,435,435,435,435,435,435,435,435,435,435,435,435,435,435,435,435,435,435,435,435,435,435,435,434,434,433,432,431,428,423,414,410,404,396,373,360,349,340,334,328,313,310,307,302,293,258,234,207,179,151,97,38],"timestamp_mouse":[12,24,44,65,85,104,125,145,164,184,205,225,244,264,284,305,324,344,365,385,404,424,444,465,485,504,525,544,565,585,605,624,645,665,685,705,724,745,764,784,804,825,846,865,885,905,925,945,964,984,1004,1024,1045,1064,1084,1105,1125,1145,1165,1184,1205],"xSR":741.5,"ySR":397.65000000000003,"xT1":424.9,"yT1":0,"xT2":1058.1,"yT2":0,"toosoon":0,"cond_shown":"equaldotsize","ratio_trial":500,"smaller_num":"2","larger_num":"4","correct_side":1,"subjID":"mariajosepolanco4","gender":"1","age":"10","school":"6"},{"start_time":1551900278607,"click_time":1551900280019,"finger_time":1551900279499,"fix_duration":1467.4433490125757,"trial":19,"RT":892,"MT":520,"sideResp":2,"stimulus":"img/500/randomdotsizeEA/R/3_Ratio_500_L_10_R_20.png","xmouse":[766,766,766,766,766,766,766,766,766,766,766,766,766,766,766,766,766,766,766,766,766,766,766,766,766,766,766,766,766,766,766,766,766,766,766,766,765,765,765,765,765,765,766,767,767,767,791,818,858,909,960,1036,1065,1090,1116,1126,1153,1158,1160,1160,1161,1163,1163,1163,1163,1163,1161,1159,1156,1153,1149],"ymouse":[445,445,445,445,445,445,445,445,445,445,445,445,445,445,445,445,445,445,445,445,445,445,445,445,445,445,445,445,445,445,445,445,445,445,445,445,445,444,444,444,440,428,417,407,395,382,351,340,322,300,279,237,221,206,185,172,145,141,140,138,137,132,130,127,124,121,114,109,105,100,96],"timestamp_mouse":[12,33,58,71,92,112,132,151,171,191,211,231,251,271,291,312,332,352,371,391,411,431,452,472,492,511,531,551,571,591,612,631,651,671,693,712,733,752,772,793,812,832,853,872,892,911,932,951,971,993,1012,1032,1052,1071,1091,1111,1131,1151,1171,1192,1212,1232,1251,1271,1291,1311,1332,1351,1372,1392,1412],"xSR":741.5,"ySR":397.65000000000003,"xT1":424.9,"yT1":0,"xT2":1058.1,"yT2":0,"toosoon":0,"cond_shown":"randomdotsizeEA","ratio_trial":500,"smaller_num":"10","larger_num":"20","correct_side":2,"subjID":"mariajosepolanco4","gender":"1","age":"10","school":"6"},{"start_time":1551900285197,"click_time":1551900286078,"finger_time":1551900285960,"fix_duration":717.1119846377645,"trial":20,"RT":763,"MT":118,"sideResp":1,"stimulus":"img/250/equaldotanddens/L/7_Ratio_250_L_8_R_2.png","xmouse":[817,817,817,817,817,817,817,817,817,817,817,817,817,817,817,817,817,817,817,817,817,817,817,817,817,816,815,815,815,815,815,815,815,812,807,794,777,756,688,633,578,531,494,451,445],"ymouse":[441,441,441,441,441,441,441,441,441,441,440,440,440,440,440,440,440,440,440,440,440,440,440,440,440,436,433,428,426,426,426,426,426,424,421,417,410,400,342,289,236,189,151,103,86],"timestamp_mouse":[10,21,42,62,83,102,122,141,162,182,201,221,241,262,282,302,322,342,361,382,401,421,442,463,481,502,521,542,562,582,601,621,641,661,682,702,721,741,762,782,803,822,842,861,881],"xSR":741.5,"ySR":397.65000000000003,"xT1":424.9,"yT1":0,"xT2":1058.1,"yT2":0,"toosoon":0,"cond_shown":"equaldotanddens","ratio_trial":250,"smaller_num":"2","larger_num":"8","correct_side":1,"subjID":"mariajosepolanco4","gender":"1","age":"10","school":"6"},{"start_time":1551900287330,"click_time":1551900288539,"finger_time":1551900288200,"fix_duration":250,"trial":21,"RT":870,"MT":339,"sideResp":1,"stimulus":"img/900/equaldotsize/R/11_Ratio_900_L_18_R_20.png","xmouse":[756,756,756,756,756,756,756,756,756,756,756,756,756,756,756,756,756,756,756,756,756,756,756,756,756,756,756,756,756,756,756,756,756,756,756,756,757,757,757,756,755,751,746,735,719,706,683,670,659,646,631,614,607,599,591,581,543,529,516,506,500],"ymouse":[463,463,463,463,463,463,463,463,463,463,463,463,463,463,463,463,463,463,463,463,463,463,463,463,463,463,463,463,463,463,463,463,463,463,463,463,463,463,462,460,459,449,431,393,336,270,220,205,195,185,178,166,162,158,153,148,132,125,118,109,98],"timestamp_mouse":[9,28,53,68,88,108,129,148,168,188,209,229,248,269,289,309,330,348,368,388,408,428,449,470,489,508,528,549,570,588,608,630,648,669,688,708,728,748,768,788,808,830,849,870,888,909,928,949,968,988,1009,1029,1049,1069,1089,1108,1128,1148,1169,1190,1209],"xSR":741.5,"ySR":397.65000000000003,"xT1":424.9,"yT1":0,"xT2":1058.1,"yT2":0,"toosoon":0,"cond_shown":"equaldotsize","ratio_trial":900,"smaller_num":"18","larger_num":"20","correct_side":2,"subjID":"mariajosepolanco4","gender":"1","age":"10","school":"6"},{"start_time":1551900291683,"click_time":1551900292660,"finger_time":1551900292459,"fix_duration":403.6587527350399,"trial":22,"RT":776,"MT":201,"sideResp":2,"stimulus":"img/900/equaldotanddens/R/3_Ratio_900_L_9_R_10.png","xmouse":[792,792,792,792,792,792,792,792,792,792,792,792,792,792,792,792,792,793,793,793,793,793,793,793,793,793,793,793,793,793,793,793,793,794,799,802,816,829,863,894,935,975,1006,1035,1050,1060,1073,1085,1098],"ymouse":[471,471,471,471,471,471,471,471,471,471,471,471,471,471,471,471,471,470,469,468,468,466,466,466,466,466,466,466,466,466,466,466,466,465,459,456,445,433,397,360,316,275,244,206,178,157,136,115,84],"timestamp_mouse":[16,43,56,75,96,115,136,156,176,196,216,236,257,276,297,316,336,356,376,396,416,436,456,476,496,516,537,556,576,596,617,636,656,677,696,717,736,757,776,796,817,838,856,877,896,916,936,957,977],"xSR":741.5,"ySR":397.65000000000003,"xT1":424.9,"yT1":0,"xT2":1058.1,"yT2":0,"toosoon":0,"cond_shown":"equaldotanddens","ratio_trial":900,"smaller_num":"9","larger_num":"10","correct_side":2,"subjID":"mariajosepolanco4","gender":"1","age":"10","school":"6"},{"start_time":1551900294515,"click_time":1551900295300,"finger_time":1551900295179,"fix_duration":1214.9259803374418,"trial":23,"RT":664,"MT":121,"sideResp":1,"stimulus":"img/900/equaldotsize/L/4_Ratio_900_L_20_R_18.png","xmouse":[749,749,749,749,749,749,749,749,749,749,749,749,750,750,750,752,753,753,753,753,753,753,753,754,755,755,756,756,756,756,756,755,753,737,722,694,655,575,543,517],"ymouse":[465,465,465,465,465,465,465,465,465,465,465,465,465,465,465,464,463,463,463,463,463,463,463,462,462,460,459,455,451,446,437,423,407,352,323,277,225,133,100,70],"timestamp_mouse":[8,34,45,65,84,104,125,145,164,185,204,224,244,265,284,304,324,345,364,384,404,424,444,464,485,504,524,545,565,584,604,625,646,664,684,704,725,746,764,784],"xSR":741.5,"ySR":397.65000000000003,"xT1":424.9,"yT1":0,"xT2":1058.1,"yT2":0,"toosoon":0,"cond_shown":"equaldotsize","ratio_trial":900,"smaller_num":"18","larger_num":"20","correct_side":1,"subjID":"mariajosepolanco4","gender":"1","age":"10","school":"6"},{"start_time":1551900296923,"click_time":1551900297921,"finger_time":1551900297580,"fix_duration":741.9240398837309,"trial":24,"RT":657,"MT":341,"sideResp":1,"stimulus":"img/500/equaldotsize/L/4_Ratio_500_L_18_R_9.png","xmouse":[776,776,776,776,776,776,776,776,777,777,777,777,777,777,777,777,777,777,777,777,777,777,777,777,777,777,777,777,777,776,773,768,759,750,733,707,676,636,629,628,628,627,618,608,596,585,571,543,531,523],"ymouse":[430,430,430,430,430,430,430,430,430,430,430,430,430,430,430,430,430,430,430,430,430,430,430,430,430,430,429,428,425,421,416,407,385,360,321,259,184,80,62,60,60,58,55,52,49,48,46,46,46,46],"timestamp_mouse":[16,37,56,76,97,116,136,156,177,196,217,236,256,276,296,316,337,356,377,396,416,437,456,476,496,517,537,556,576,597,616,636,657,677,696,717,736,757,777,796,817,836,856,876,897,916,936,956,976,997],"xSR":741.5,"ySR":397.65000000000003,"xT1":424.9,"yT1":0,"xT2":1058.1,"yT2":0,"toosoon":0,"cond_shown":"equaldotsize","ratio_trial":500,"smaller_num":"9","larger_num":"18","correct_side":1,"subjID":"mariajosepolanco4","gender":"1","age":"10","school":"6"},{"start_time":1551900299688,"click_time":1551900301039,"finger_time":1551900300320,"fix_duration":1067.4912984786079,"trial":25,"RT":632,"MT":719,"sideResp":2,"stimulus":"img/900/randomdotsizeEA/R/11_Ratio_900_L_18_R_20.png","xmouse":[808,808,808,808,808,808,808,808,808,808,808,808,808,808,808,808,808,808,808,807,806,802,800,799,789,785,780,776,772,768,753,735,724,717,713,713,713,713,713,713,713,715,720,727,739,746,755,770,791,840,871,891,916,942,991,1009,1022,1036,1050,1064,1098,1105,1107,1107,1107,1107,1107,1107],"ymouse":[447,447,447,447,447,447,447,447,447,447,447,447,447,447,447,447,447,447,447,445,444,441,439,437,429,426,422,419,417,414,408,398,393,390,388,388,388,388,388,388,388,388,388,388,388,388,388,388,388,383,376,367,352,331,278,256,240,225,207,188,124,107,102,102,102,102,101,99],"timestamp_mouse":[11,31,51,72,92,111,131,151,171,191,211,231,251,272,291,311,331,351,371,391,411,432,451,473,491,511,532,552,571,592,611,632,651,673,692,712,731,751,772,792,811,831,851,871,892,911,931,952,971,992,1011,1031,1053,1071,1091,1111,1132,1151,1171,1192,1211,1232,1251,1271,1292,1311,1331,1351],"xSR":741.5,"ySR":397.65000000000003,"xT1":424.9,"yT1":0,"xT2":1058.1,"yT2":0,"toosoon":0,"cond_shown":"randomdotsizeEA","ratio_trial":900,"smaller_num":"18","larger_num":"20","correct_side":2,"subjID":"mariajosepolanco4","gender":"1","age":"10","school":"6"},{"start_time":1551900302246,"click_time":1551900303581,"finger_time":1551900303119,"fix_duration":485.51069555574554,"trial":26,"RT":873,"MT":462,"sideResp":2,"stimulus":"img/750/equaldotsize/L/13_Ratio_750_L_8_R_6.png","xmouse":[798,798,798,798,798,798,798,798,798,798,798,798,798,798,798,798,798,798,798,798,798,798,798,798,798,798,798,798,798,798,798,798,798,798,798,798,798,798,798,798,801,820,838,854,868,881,894,920,934,947,958,976,985,989,992,995,997,1002,1005,1011,1018,1038,1057,1069,1081,1092,1112],"ymouse":[459,459,459,459,459,459,459,459,459,459,459,459,459,459,459,459,459,459,459,459,459,459,459,459,459,459,459,459,459,459,459,459,459,459,459,459,459,459,459,457,456,443,428,414,398,382,366,329,310,293,275,251,233,222,213,204,196,186,180,173,168,153,139,129,115,103,76],"timestamp_mouse":[13,41,53,74,94,113,133,153,173,193,213,233,253,274,293,313,333,353,373,393,414,433,453,473,493,513,534,553,573,593,613,633,654,673,693,713,733,754,773,793,813,834,853,873,893,914,933,954,973,994,1014,1035,1053,1073,1093,1113,1134,1154,1174,1193,1213,1235,1253,1273,1293,1314,1335],"xSR":741.5,"ySR":397.65000000000003,"xT1":424.9,"yT1":0,"xT2":1058.1,"yT2":0,"toosoon":0,"cond_shown":"equaldotsize","ratio_trial":750,"smaller_num":"6","larger_num":"8","correct_side":1,"subjID":"mariajosepolanco4","gender":"1","age":"10","school":"6"},{"start_time":1551900305328,"click_time":1551900307379,"finger_time":1551900306919,"fix_duration":427.09559301674494,"trial":27,"RT":1591,"MT":460,"sideResp":2,"stimulus":"img/900/equaldotsize/L/10_Ratio_900_L_20_R_18.png","xmouse":[753,753,753,753,753,753,753,753,753,753,753,753,753,753,753,753,753,753,753,753,753,753,753,753,753,753,753,753,753,753,753,753,753,753,753,753,753,753,753,753,753,753,753,753,753,753,753,753,753,753,753,753,753,753,753,753,755,755,756,756,757,757,757,757,757,757,757,757,757,757,757,757,757,759,763,774,799,813,835,843,854,863,872,891,898,904,914,924,935,973,985,993,997,1011,1031,1049,1059,1066,1069,1074,1078,1082,1087],"ymouse":[494,494,494,494,494,494,494,494,494,494,494,494,494,494,493,493,493,493,493,493,493,493,493,493,493,493,493,493,493,493,493,493,493,493,493,493,493,493,493,493,493,493,493,493,493,493,493,493,493,493,493,493,493,493,493,493,493,493,493,493,492,492,492,492,492,492,492,492,492,492,492,492,492,492,489,484,473,465,451,445,438,428,414,384,370,354,332,276,228,167,152,143,138,131,123,116,111,108,107,105,104,101,98],"timestamp_mouse":[11,41,51,72,91,111,131,151,171,191,211,231,251,272,291,312,331,351,371,391,411,431,451,471,491,511,531,551,572,591,611,631,651,672,692,711,731,751,772,792,811,831,851,872,891,911,932,951,971,991,1011,1033,1051,1071,1091,1112,1132,1164,1171,1191,1211,1231,1251,1272,1291,1311,1331,1351,1371,1391,1411,1431,1451,1471,1491,1511,1531,1551,1571,1591,1611,1632,1652,1671,1693,1711,1732,1752,1771,1791,1811,1832,1852,1872,1892,1913,1931,1952,1971,1992,2011,2032,2051],"xSR":741.5,"ySR":397.65000000000003,"xT1":424.9,"yT1":0,"xT2":1058.1,"yT2":0,"toosoon":0,"cond_shown":"equaldotsize","ratio_trial":900,"smaller_num":"18","larger_num":"20","correct_side":1,"subjID":"mariajosepolanco4","gender":"1","age":"10","school":"6"},{"start_time":1551900309502,"click_time":1551900310919,"finger_time":1551900310440,"fix_duration":1262.0186451956347,"trial":28,"RT":938,"MT":479,"sideResp":1,"stimulus":"img/250/equaldotsize/L/15_Ratio_250_L_12_R_3.png","xmouse":[805,805,805,805,805,805,805,806,807,808,809,810,810,810,811,812,812,812,812,812,812,812,812,812,812,812,812,812,812,812,812,812,812,812,812,812,812,812,812,812,812,812,812,813,809,801,781,764,743,717,697,678,660,649,633,623,620,618,616,609,605,600,593,587,574,564,555,548,540,533,524],"ymouse":[416,416,416,416,416,416,416,415,415,414,413,412,412,412,412,412,412,412,412,412,412,412,412,412,412,412,412,412,412,412,412,412,412,412,412,412,412,412,412,412,412,412,412,411,405,398,381,367,350,322,300,280,262,250,230,222,218,212,206,192,184,176,167,156,135,121,113,107,101,96,88],"timestamp_mouse":[22,37,57,80,97,118,138,158,177,197,218,238,257,277,297,317,337,357,378,397,417,437,457,478,497,518,537,557,577,598,617,637,657,677,697,719,737,757,778,797,817,837,857,877,898,917,938,958,977,999,1017,1037,1058,1077,1098,1117,1137,1158,1177,1198,1217,1237,1258,1278,1298,1317,1337,1357,1378,1397,1417],"xSR":741.5,"ySR":397.65000000000003,"xT1":424.9,"yT1":0,"xT2":1058.1,"yT2":0,"toosoon":0,"cond_shown":"equaldotsize","ratio_trial":250,"smaller_num":"3","larger_num":"12","correct_side":1,"subjID":"mariajosepolanco4","gender":"1","age":"10","school":"6"},{"start_time":1551900312671,"click_time":1551900314559,"finger_time":1551900313200,"fix_duration":250,"trial":29,"RT":529,"MT":1359,"sideResp":1,"stimulus":"img/500/randomdotsizeEA/L/11_Ratio_500_L_12_R_6.png","xmouse":[825,825,825,825,825,825,825,826,826,827,828,830,834,836,837,838,841,841,841,841,841,841,841,841,841,841,842,843,843,843,843,843,843,843,843,843,843,843,843,843,843,843,843,843,843,843,842,837,832,816,800,786,774,773,773,773,773,773,773,773,773,773,773,773,772,770,767,742,726,710,693,681,652,636,622,609,600,582,576,571,565,560,549,542,537,529,521,515,512,510,509,507,501,499,497],"ymouse":[466,466,466,466,465,465,465,465,465,465,465,465,463,462,462,461,459,459,459,459,459,459,459,459,459,459,459,458,458,458,458,458,458,458,458,458,458,458,458,458,458,458,458,458,458,458,457,453,448,439,432,427,422,421,421,421,421,421,421,421,421,421,421,421,421,420,418,397,386,375,364,357,340,332,323,314,304,280,267,254,240,227,201,188,177,164,150,139,134,131,126,122,109,103,94],"timestamp_mouse":[9,37,48,68,89,108,128,148,168,188,209,228,248,268,288,308,330,349,369,388,408,428,448,468,488,508,529,548,568,588,608,629,648,668,688,708,728,748,768,788,808,828,848,868,888,908,929,949,968,989,1009,1030,1048,1068,1088,1109,1128,1149,1168,1188,1209,1228,1248,1268,1290,1308,1329,1348,1369,1388,1408,1428,1449,1468,1489,1509,1530,1548,1569,1588,1608,1628,1648,1668,1689,1708,1728,1748,1769,1789,1808,1828,1848,1868,1888],"xSR":741.5,"ySR":397.65000000000003,"xT1":424.9,"yT1":0,"xT2":1058.1,"yT2":0,"toosoon":0,"cond_shown":"randomdotsizeEA","ratio_trial":500,"smaller_num":"6","larger_num":"12","correct_side":1,"subjID":"mariajosepolanco4","gender":"1","age":"10","school":"6"},{"start_time":1551900316141,"click_time":1551900317359,"finger_time":1551900317060,"fix_duration":801.4414298954157,"trial":30,"RT":919,"MT":299,"sideResp":2,"stimulus":"img/250/randomdotsizeEA/R/13_Ratio_250_L_2_R_8.png","xmouse":[785,785,785,785,785,785,785,785,785,785,785,785,785,785,785,785,785,785,785,785,785,785,785,785,785,785,785,785,785,785,785,785,785,785,785,785,785,785,784,783,783,781,781,781,786,804,821,835,857,873,906,934,962,1022,1049,1067,1076,1083,1092,1094,1096],"ymouse":[428,428,428,428,428,428,428,428,428,428,428,428,428,428,428,428,428,428,428,428,428,428,428,428,428,428,428,428,428,428,428,428,428,428,428,428,428,428,428,428,428,428,428,417,405,395,386,379,363,350,326,307,285,231,208,187,172,156,123,108,90],"timestamp_mouse":[18,38,58,78,100,118,138,158,178,199,218,239,259,279,298,318,339,358,378,398,419,438,458,479,498,518,538,558,578,598,618,638,658,678,698,718,738,758,778,800,818,838,859,878,899,919,939,958,978,998,1018,1038,1059,1078,1099,1118,1138,1158,1178,1199,1218],"xSR":741.5,"ySR":397.65000000000003,"xT1":424.9,"yT1":0,"xT2":1058.1,"yT2":0,"toosoon":0,"cond_shown":"randomdotsizeEA","ratio_trial":250,"smaller_num":"2","larger_num":"8","correct_side":2,"subjID":"mariajosepolanco4","gender":"1","age":"10","school":"6"},{"start_time":1551900318371,"click_time":1551900319680,"finger_time":1551900319119,"fix_duration":250,"trial":31,"RT":748,"MT":561,"sideResp":1,"stimulus":"img/250/randomdotsizeEA/L/2_Ratio_250_L_16_R_4.png","xmouse":[772,772,772,772,772,772,772,772,772,772,772,772,772,772,772,772,772,772,772,772,772,772,772,772,772,772,772,772,772,772,772,772,772,773,775,778,778,778,776,775,774,772,767,746,728,709,691,657,633,621,612,603,585,576,565,554,539,525,520,519,518,517,516,514,513,512],"ymouse":[439,439,439,439,439,439,439,439,439,439,439,439,439,439,439,439,439,439,439,439,439,439,439,439,439,439,439,439,439,439,439,439,439,438,429,413,398,394,392,392,391,388,381,358,346,336,327,305,288,276,261,247,211,193,176,157,139,117,112,111,108,106,104,101,100,99],"timestamp_mouse":[11,32,48,68,88,108,128,148,168,188,208,228,248,269,288,308,328,348,369,388,408,428,448,469,488,509,528,548,568,588,608,628,648,668,688,708,728,748,768,788,809,829,848,869,889,909,928,950,968,989,1009,1029,1049,1068,1088,1109,1128,1149,1168,1189,1208,1229,1249,1268,1288,1309],"xSR":741.5,"ySR":397.65000000000003,"xT1":424.9,"yT1":0,"xT2":1058.1,"yT2":0,"toosoon":0,"cond_shown":"randomdotsizeEA","ratio_trial":250,"smaller_num":"4","larger_num":"16","correct_side":1,"subjID":"mariajosepolanco4","gender":"1","age":"10","school":"6"},{"start_time":1551900321962,"click_time":1551900323000,"finger_time":1551900322759,"fix_duration":962.5463176270371,"trial":32,"RT":797,"MT":241,"sideResp":1,"stimulus":"img/500/equaldotsize/L/7_Ratio_500_L_10_R_5.png","xmouse":[806,806,806,806,806,806,806,806,806,806,806,806,806,806,806,806,806,806,806,806,806,806,806,806,806,806,806,806,806,806,806,806,806,806,805,805,803,800,792,784,769,747,722,659,630,611,598,580,557,544,532,520],"ymouse":[477,477,477,477,477,476,476,476,476,476,476,476,476,476,476,476,476,476,476,476,476,476,476,476,476,476,476,476,474,470,468,465,461,453,448,444,439,430,405,378,341,294,254,191,168,152,139,122,105,98,91,84],"timestamp_mouse":[17,41,57,77,97,118,137,159,177,197,217,237,257,277,297,317,337,357,377,398,418,437,457,477,497,517,537,558,577,597,618,638,657,676,698,717,737,757,777,797,817,837,857,877,897,917,937,957,978,997,1017,1038],"xSR":741.5,"ySR":397.65000000000003,"xT1":424.9,"yT1":0,"xT2":1058.1,"yT2":0,"toosoon":0,"cond_shown":"equaldotsize","ratio_trial":500,"smaller_num":"5","larger_num":"10","correct_side":1,"subjID":"mariajosepolanco4","gender":"1","age":"10","school":"6"},{"start_time":1551900324943,"click_time":1551900326501,"finger_time":1551900325779,"fix_duration":322.8161196541779,"trial":33,"RT":836,"MT":722,"sideResp":1,"stimulus":"img/900/equaldotanddens/L/8_Ratio_900_L_20_R_18.png","xmouse":[769,768,766,766,766,766,766,766,766,766,766,766,766,766,766,765,765,766,767,767,767,767,767,767,767,767,767,767,767,767,767,767,767,767,767,767,767,767,767,762,751,740,738,737,737,737,736,732,725,709,698,682,669,655,635,626,611,603,593,572,563,563,563,563,563,563,563,563,563,563,563,563,340,354,385,408,423,440],"ymouse":[432,432,432,432,432,432,432,432,432,432,432,432,432,432,432,431,427,425,424,424,424,424,424,424,424,424,424,424,424,424,424,424,424,424,424,424,424,422,417,404,404,406,407,407,407,407,407,399,385,336,300,264,239,216,169,146,111,92,70,22,2,2,2,2,2,2,2,2,2,2,2,2,1,16,43,60,71,77],"timestamp_mouse":[16,36,56,76,96,116,136,156,177,196,216,237,257,276,297,317,338,357,376,397,416,436,456,477,496,516,537,556,577,596,616,637,656,676,696,716,737,757,776,796,817,836,857,876,896,916,937,956,977,997,1017,1038,1057,1077,1096,1116,1137,1156,1176,1197,1217,1236,1257,1276,1296,1316,1336,1356,1376,1396,1416,1436,1456,1476,1497,1516,1536,1558],"xSR":741.5,"ySR":397.65000000000003,"xT1":424.9,"yT1":0,"xT2":1058.1,"yT2":0,"toosoon":0,"cond_shown":"equaldotanddens","ratio_trial":900,"smaller_num":"18","larger_num":"20","correct_side":1,"subjID":"mariajosepolanco4","gender":"1","age":"10","school":"6"},{"start_time":1551900328287,"click_time":1551900329740,"finger_time":1551900329240,"fix_duration":666.7300853367141,"trial":34,"RT":953,"MT":500,"sideResp":1,"stimulus":"img/500/equaldotanddens/L/5_Ratio_500_L_4_R_2.png","xmouse":[833,833,833,833,833,833,833,833,833,833,833,833,833,833,833,833,833,833,833,833,833,833,833,833,833,833,833,833,833,833,833,833,833,833,833,833,833,833,833,833,833,832,829,815,805,791,779,753,747,740,733,725,713,709,707,704,698,683,669,658,648,633,604,590,576,564,556,549,542,538,533,528,521],"ymouse":[465,465,465,465,465,465,465,465,465,465,465,465,465,465,465,465,465,465,465,465,465,465,465,465,465,465,465,465,465,465,465,465,465,465,465,465,465,465,465,465,464,463,460,446,436,423,407,353,322,286,261,243,218,209,202,192,177,153,139,131,123,116,99,92,86,81,77,74,72,70,69,68,66],"timestamp_mouse":[12,33,52,73,93,113,133,153,172,192,212,233,253,273,292,312,332,352,372,392,412,432,453,472,492,512,532,553,572,592,613,632,653,673,693,712,732,753,772,792,813,832,853,873,892,913,932,953,972,992,1013,1033,1053,1072,1093,1113,1132,1154,1172,1192,1212,1233,1253,1272,1292,1313,1332,1354,1372,1392,1413,1433,1453],"xSR":741.5,"ySR":397.65000000000003,"xT1":424.9,"yT1":0,"xT2":1058.1,"yT2":0,"toosoon":0,"cond_shown":"equaldotanddens","ratio_trial":500,"smaller_num":"2","larger_num":"4","correct_side":1,"subjID":"mariajosepolanco4","gender":"1","age":"10","school":"6"},{"start_time":1551900331808,"click_time":1551900333139,"finger_time":1551900332619,"fix_duration":1148.3535504747226,"trial":35,"RT":811,"MT":520,"sideResp":2,"stimulus":"img/250/equaldotsize/R/10_Ratio_250_L_4_R_16.png","xmouse":[788,788,788,788,788,788,788,788,788,788,788,788,788,788,788,788,788,788,788,788,788,788,788,788,788,788,788,788,788,788,788,788,788,788,790,797,800,810,815,823,838,851,884,903,931,958,981,1005,1012,1023,1030,1040,1066,1082,1098,1107,1114,1116,1116,1117,1119,1121,1124,1128,1129,1130,1130],"ymouse":[437,437,437,437,437,437,437,437,437,437,437,437,437,437,437,437,437,437,437,437,437,437,437,437,437,437,437,437,437,437,437,437,437,436,435,431,429,422,416,409,392,380,355,334,297,263,236,216,210,201,195,187,169,157,145,138,131,129,129,128,127,125,122,114,108,103,97],"timestamp_mouse":[11,34,51,71,92,111,132,151,171,191,211,231,251,272,292,313,331,352,371,391,411,431,452,471,491,511,531,551,572,591,612,631,652,671,691,712,732,751,771,792,811,831,851,871,892,912,932,952,971,992,1011,1032,1051,1071,1092,1112,1131,1151,1171,1191,1212,1231,1251,1272,1292,1312,1331],"xSR":741.5,"ySR":397.65000000000003,"xT1":424.9,"yT1":0,"xT2":1058.1,"yT2":0,"toosoon":0,"cond_shown":"equaldotsize","ratio_trial":250,"smaller_num":"4","larger_num":"16","correct_side":2,"subjID":"mariajosepolanco4","gender":"1","age":"10","school":"6"},{"start_time":1551900334727,"click_time":1551900336639,"finger_time":1551900335459,"fix_duration":706.4076289967265,"trial":36,"RT":732,"MT":1180,"sideResp":1,"stimulus":"img/750/equaldotsize/L/14_Ratio_750_L_8_R_6.png","xmouse":[792,792,792,792,792,792,792,792,792,792,792,792,792,792,792,792,792,792,792,792,792,792,792,792,792,792,793,793,794,795,795,796,796,796,797,797,787,776,766,750,738,728,727,727,726,723,712,704,701,697,692,663,636,628,615,613,608,602,595,585,575,559,557,556,555,553,543,537,534,534,534,534,534,534,534,534,534,534,534,534,534,534,534,534,534,534,534,534,533,533,531,529,527,527,525,524],"ymouse":[442,442,442,442,442,442,442,442,442,442,442,442,442,442,442,442,442,442,442,442,442,442,442,443,443,443,443,442,442,441,441,439,438,433,426,415,367,334,310,286,270,257,256,254,253,247,233,226,222,219,216,195,175,169,155,152,142,131,119,102,87,66,63,62,62,61,60,60,60,60,60,60,60,60,60,60,60,60,60,60,60,60,60,60,60,60,60,60,60,60,60,60,60,60,59,58],"timestamp_mouse":[13,40,52,72,92,112,132,152,173,192,212,232,252,272,293,313,332,352,372,392,412,432,453,472,492,513,532,553,572,592,612,632,652,672,692,713,732,752,772,793,812,833,852,872,893,913,933,952,972,993,1013,1033,1052,1072,1092,1113,1133,1153,1172,1193,1212,1233,1253,1272,1292,1312,1332,1352,1373,1392,1412,1432,1454,1473,1493,1512,1532,1552,1572,1593,1612,1633,1652,1672,1692,1712,1733,1753,1773,1793,1812,1833,1852,1873,1892,1912],"xSR":741.5,"ySR":397.65000000000003,"xT1":424.9,"yT1":0,"xT2":1058.1,"yT2":0,"toosoon":0,"cond_shown":"equaldotsize","ratio_trial":750,"smaller_num":"6","larger_num":"8","correct_side":1,"subjID":"mariajosepolanco4","gender":"1","age":"10","school":"6"},{"start_time":1551900340250,"click_time":1551900341359,"finger_time":1551900341019,"fix_duration":1469.8130351021034,"trial":37,"RT":769,"MT":340,"sideResp":2,"stimulus":"img/250/randomdotsizeEA/R/6_Ratio_250_L_6_R_24.png","xmouse":[788,788,788,788,788,788,788,788,788,788,788,789,789,789,789,789,789,789,789,789,789,789,789,789,789,789,789,789,789,789,789,789,789,789,791,795,809,817,828,844,862,903,925,947,967,1000,1029,1038,1048,1063,1078,1093,1103,1106,1108,1108],"ymouse":[441,441,441,441,441,441,441,441,441,441,441,441,441,441,441,441,441,441,441,441,441,441,441,441,441,441,441,441,441,441,441,441,440,439,435,430,415,405,390,373,353,311,287,263,246,223,197,187,174,158,146,134,117,107,101,98],"timestamp_mouse":[9,39,51,69,89,110,129,149,169,190,209,230,249,270,289,309,329,349,369,389,409,429,449,469,490,509,530,549,569,589,609,630,649,669,690,709,729,750,769,791,809,829,849,870,890,910,929,950,969,990,1010,1029,1049,1070,1090,1109],"xSR":741.5,"ySR":397.65000000000003,"xT1":424.9,"yT1":0,"xT2":1058.1,"yT2":0,"toosoon":0,"cond_shown":"randomdotsizeEA","ratio_trial":250,"smaller_num":"6","larger_num":"24","correct_side":2,"subjID":"mariajosepolanco4","gender":"1","age":"10","school":"6"},{"start_time":1551900343392,"click_time":1551900344380,"finger_time":1551900344059,"fix_duration":1311.1249862136565,"trial":38,"RT":667,"MT":321,"sideResp":2,"stimulus":"img/500/equaldotanddens/R/14_Ratio_500_L_5_R_10.png","xmouse":[819,819,820,820,820,820,820,820,820,820,820,820,820,820,820,820,820,820,820,820,820,820,820,820,820,820,820,820,820,820,821,827,839,856,890,906,926,938,952,973,985,1001,1014,1025,1040,1050,1057,1065,1069,1073],"ymouse":[452,451,450,450,450,450,450,450,450,450,450,450,450,450,450,450,450,450,450,450,450,450,450,450,450,450,450,450,450,450,450,444,435,422,386,366,336,315,291,258,240,220,202,185,157,136,124,113,105,95],"timestamp_mouse":[11,34,47,67,87,107,127,148,167,187,207,227,247,268,287,308,328,347,367,387,408,427,447,468,488,508,527,547,567,587,608,627,647,667,688,707,727,747,768,787,807,827,848,867,888,907,927,947,967,988],"xSR":741.5,"ySR":397.65000000000003,"xT1":424.9,"yT1":0,"xT2":1058.1,"yT2":0,"toosoon":0,"cond_shown":"equaldotanddens","ratio_trial":500,"smaller_num":"5","larger_num":"10","correct_side":2,"subjID":"mariajosepolanco4","gender":"1","age":"10","school":"6"},{"start_time":1551900345927,"click_time":1551900348139,"finger_time":1551900346699,"fix_duration":666.111468829202,"trial":39,"RT":772,"MT":1440,"sideResp":1,"stimulus":"img/900/randomdotsizeEA/L/8_Ratio_900_L_20_R_18.png","xmouse":[772,772,772,772,772,772,772,772,772,772,772,772,772,772,772,772,772,772,772,772,772,772,772,772,772,772,772,772,772,772,772,772,772,772,772,770,768,759,734,729,723,716,708,707,706,706,706,706,706,706,706,706,712,715,717,720,724,729,746,756,763,770,781,820,852,891,937,978,1012,1013,1014,1015,1015,1015,1015,1015,1015,1005,992,974,954,935,914,871,842,813,781,741,690,667,646,632,623,617,615,612,610,605,598,593,589,585,581,571,562,556,552,547,538,532,520],"ymouse":[450,450,450,450,450,450,450,450,450,450,450,450,450,450,450,450,450,450,450,450,450,450,450,450,450,450,450,450,450,450,450,450,450,450,449,448,447,439,387,371,356,346,335,333,333,333,333,333,333,333,333,333,333,333,333,333,333,333,333,333,332,331,330,323,317,306,293,281,269,268,268,268,268,268,268,268,268,268,270,273,275,278,282,287,287,287,287,283,273,270,265,261,258,256,255,253,251,246,229,219,208,194,178,141,125,116,111,107,102,99,92],"timestamp_mouse":[12,32,53,73,93,112,132,153,172,193,212,232,252,273,292,312,333,352,372,392,412,432,453,472,492,512,532,552,572,593,612,632,652,672,692,713,733,753,772,792,812,833,853,872,893,913,933,952,973,992,1012,1033,1053,1072,1093,1113,1132,1152,1172,1193,1212,1232,1253,1272,1292,1312,1333,1353,1372,1392,1412,1432,1452,1472,1492,1513,1532,1554,1572,1592,1612,1632,1652,1673,1692,1714,1733,1752,1772,1792,1812,1833,1852,1872,1892,1912,1932,1954,1973,1993,2012,2032,2052,2072,2092,2113,2132,2153,2172,2192,2212],"xSR":741.5,"ySR":397.65000000000003,"xT1":424.9,"yT1":0,"xT2":1058.1,"yT2":0,"toosoon":0,"cond_shown":"randomdotsizeEA","ratio_trial":900,"smaller_num":"18","larger_num":"20","correct_side":1,"subjID":"mariajosepolanco4","gender":"1","age":"10","school":"6"},{"start_time":1551900350398,"click_time":1551900351760,"finger_time":1551900351300,"fix_duration":1137.8766459237384,"trial":40,"RT":902,"MT":460,"sideResp":2,"stimulus":"img/500/randomdotsizeEA/R/1_Ratio_500_L_9_R_18.png","xmouse":[767,767,767,767,767,767,767,767,767,767,767,764,764,764,764,764,764,764,764,764,764,764,764,764,764,764,764,764,764,764,764,764,764,764,764,764,764,764,764,764,768,775,782,797,812,851,875,916,963,1021,1121,1153,1181,1199,1220,1255,1265,1270,1272,1272,1272,1272,1272,1236,1229,1192,1179,1166,1152],"ymouse":[426,426,426,426,426,426,426,426,426,426,426,425,425,425,425,425,425,425,425,425,425,425,425,425,425,425,425,425,425,425,425,425,425,425,425,425,425,425,425,425,424,423,419,412,405,384,369,342,308,264,170,130,93,76,59,29,20,10,2,0,0,0,0,2,5,23,31,40,50],"timestamp_mouse":[8,21,41,61,81,101,121,141,161,181,202,221,242,261,281,301,321,341,361,381,401,421,441,461,481,501,521,541,561,581,602,622,641,661,681,701,721,741,761,781,801,821,841,862,882,902,921,941,962,981,1001,1021,1041,1061,1082,1101,1121,1142,1161,1181,1201,1221,1241,1262,1282,1301,1321,1342,1362],"xSR":741.5,"ySR":397.65000000000003,"xT1":424.9,"yT1":0,"xT2":1058.1,"yT2":0,"toosoon":0,"cond_shown":"randomdotsizeEA","ratio_trial":500,"smaller_num":"9","larger_num":"18","correct_side":2,"subjID":"mariajosepolanco4","gender":"1","age":"10","school":"6"},{"start_time":1551900352752,"click_time":1551900354440,"finger_time":1551900353739,"fix_duration":250,"trial":41,"RT":987,"MT":701,"sideResp":2,"stimulus":"img/500/randomdotsizeEA/R/12_Ratio_500_L_1_R_2.png","xmouse":[816,816,816,816,816,816,816,816,816,816,816,816,816,816,816,816,816,816,816,816,816,816,816,816,816,816,816,816,816,816,816,816,816,816,816,816,816,816,816,816,816,816,816,816,816,816,817,817,815,810,807,807,807,807,807,807,807,807,807,807,813,823,850,876,900,930,966,1005,1112,1161,1195,1215,1242,1254,1264,1268,1268,1268,1260,1253,1239,1224,1205,1172,1151],"ymouse":[423,423,423,423,423,423,423,423,423,423,423,423,423,423,423,423,423,423,423,423,423,423,423,423,423,423,423,423,423,423,423,423,423,423,423,423,423,423,423,423,423,423,423,423,423,423,422,419,400,394,391,391,391,391,391,391,391,391,391,391,391,390,387,377,367,351,328,300,223,187,162,139,98,79,57,44,35,27,18,18,18,20,23,33,39],"timestamp_mouse":[7,36,48,69,88,108,128,148,168,187,208,227,247,267,288,307,327,348,368,388,408,427,447,467,487,508,528,548,567,587,607,627,647,667,688,707,727,748,768,788,808,827,848,867,887,907,927,947,967,987,1008,1027,1048,1067,1087,1107,1128,1149,1167,1188,1208,1227,1249,1267,1288,1308,1328,1347,1368,1388,1409,1427,1449,1467,1489,1508,1528,1547,1567,1588,1607,1627,1648,1668,1688],"xSR":741.5,"ySR":397.65000000000003,"xT1":424.9,"yT1":0,"xT2":1058.1,"yT2":0,"toosoon":0,"cond_shown":"randomdotsizeEA","ratio_trial":500,"smaller_num":"1","larger_num":"2","correct_side":2,"subjID":"mariajosepolanco4","gender":"1","age":"10","school":"6"},{"start_time":1551900357252,"click_time":1551900358900,"finger_time":1551900358679,"fix_duration":530.269158639089,"trial":42,"RT":1427,"MT":221,"sideResp":1,"stimulus":"img/750/equaldotanddens/L/6_Ratio_750_L_24_R_18.png","xmouse":[807,807,807,807,807,807,807,807,807,807,807,807,807,807,807,807,807,807,807,807,807,807,807,807,807,807,807,807,807,807,807,807,807,807,807,807,807,807,807,807,807,807,807,807,807,807,807,807,807,807,807,807,807,807,807,807,807,807,807,807,807,805,803,794,790,787,786,785,780,776,768,755,737,675,655,642,620,610,549,534,517,500,488],"ymouse":[469,469,469,469,469,469,469,469,469,469,469,469,469,469,469,469,469,469,469,469,469,469,469,469,469,469,469,469,469,469,469,469,469,469,469,469,469,469,469,469,469,469,469,469,469,469,469,469,469,469,469,469,469,469,469,469,469,469,469,468,464,460,453,440,434,429,428,426,420,415,405,390,377,339,320,302,267,253,169,147,124,107,93],"timestamp_mouse":[9,40,49,68,87,108,127,148,168,188,208,227,247,268,288,308,328,347,367,388,407,427,447,468,487,508,527,548,568,587,607,627,648,668,687,708,727,749,768,788,808,827,848,868,887,907,929,948,969,987,1007,1028,1048,1068,1088,1108,1127,1148,1167,1188,1208,1229,1247,1267,1287,1308,1327,1348,1368,1388,1408,1427,1447,1468,1489,1508,1529,1547,1567,1587,1608,1629,1648],"xSR":741.5,"ySR":397.65000000000003,"xT1":424.9,"yT1":0,"xT2":1058.1,"yT2":0,"toosoon":0,"cond_shown":"equaldotanddens","ratio_trial":750,"smaller_num":"18","larger_num":"24","correct_side":1,"subjID":"mariajosepolanco4","gender":"1","age":"10","school":"6"},{"start_time":1551900361313,"click_time":1551900363720,"finger_time":1551900363360,"fix_duration":1471.5526695482547,"trial":43,"RT":2047,"MT":360,"sideResp":1,"stimulus":"img/750/equaldotsize/R/4_Ratio_750_L_15_R_20.png","xmouse":[775,775,775,775,775,775,775,775,775,775,775,775,775,775,775,775,775,775,775,775,775,775,775,775,775,775,775,775,775,775,775,775,775,775,775,775,775,775,775,775,775,775,775,775,775,775,775,775,775,775,775,775,775,775,775,775,775,775,775,775,775,775,775,775,775,775,775,775,775,775,775,775,775,775,775,775,775,775,775,775,775,775,775,775,775,775,775,775,775,775,775,775,775,775,775,775,775,775,775,775,775,773,762,753,748,747,744,736,721,705,686,642,621,601,585,571,546,534,521,509,497],"ymouse":[429,429,429,429,429,429,429,429,429,429,429,429,429,429,429,429,429,429,429,429,429,429,429,429,429,429,429,429,429,429,429,429,429,429,429,429,429,429,429,429,429,429,429,429,429,429,429,429,429,429,429,429,429,429,429,429,429,429,429,429,429,429,429,429,429,429,429,429,429,429,429,429,429,429,429,429,429,429,429,429,429,429,429,429,429,429,429,429,429,429,429,429,429,429,429,427,426,424,422,418,410,398,361,336,323,318,316,312,305,296,285,260,248,236,223,207,167,145,122,100,80],"timestamp_mouse":[9,27,47,67,86,107,126,146,166,187,206,226,246,266,286,307,327,346,366,386,406,426,446,467,487,507,526,547,568,587,606,626,648,667,687,707,726,747,768,786,806,826,846,866,887,907,926,947,967,986,1006,1026,1046,1066,1087,1107,1126,1146,1166,1186,1206,1226,1246,1266,1287,1307,1326,1347,1366,1386,1407,1426,1446,1467,1487,1508,1526,1546,1566,1586,1607,1627,1647,1667,1686,1706,1726,1748,1767,1787,1807,1826,1847,1867,1886,1907,1927,1946,1968,1987,2007,2027,2047,2067,2088,2107,2127,2147,2168,2186,2206,2226,2247,2267,2287,2308,2327,2347,2368,2388,2407],"xSR":741.5,"ySR":397.65000000000003,"xT1":424.9,"yT1":0,"xT2":1058.1,"yT2":0,"toosoon":0,"cond_shown":"equaldotsize","ratio_trial":750,"smaller_num":"15","larger_num":"20","correct_side":2,"subjID":"mariajosepolanco4","gender":"1","age":"10","school":"6"},{"start_time":1551900365595,"click_time":1551900366759,"finger_time":1551900366339,"fix_duration":974.5441724322878,"trial":44,"RT":744,"MT":420,"sideResp":2,"stimulus":"img/250/randomdotsizeEA/R/10_Ratio_250_L_4_R_16.png","xmouse":[823,823,823,823,823,823,823,823,823,823,823,823,823,823,823,823,823,823,823,823,823,823,823,823,823,823,823,823,823,823,823,823,823,826,829,833,841,867,879,891,905,915,932,939,948,956,965,979,985,993,999,1003,1016,1021,1027,1032,1038,1054,1065],"ymouse":[474,474,474,474,474,474,474,474,474,474,474,474,474,474,474,474,474,474,474,474,474,474,474,474,474,474,474,474,474,474,474,474,474,471,468,465,458,425,411,397,380,367,342,328,315,299,285,252,235,218,204,191,162,149,138,127,117,97,84],"timestamp_mouse":[9,24,45,65,85,105,124,144,164,185,204,224,244,266,285,305,324,344,365,385,405,424,445,465,485,504,524,545,565,585,605,624,645,664,685,704,724,744,765,784,805,824,845,864,885,904,926,945,965,984,1006,1024,1044,1065,1084,1104,1125,1145,1164],"xSR":741.5,"ySR":397.65000000000003,"xT1":424.9,"yT1":0,"xT2":1058.1,"yT2":0,"toosoon":0,"cond_shown":"randomdotsizeEA","ratio_trial":250,"smaller_num":"4","larger_num":"16","correct_side":2,"subjID":"mariajosepolanco4","gender":"1","age":"10","school":"6"},{"start_time":1551900368681,"click_time":1551900370000,"finger_time":1551900369540,"fix_duration":1020.4766304468915,"trial":45,"RT":859,"MT":460,"sideResp":2,"stimulus":"img/750/randomdotsizeEA/L/10_Ratio_750_L_4_R_3.png","xmouse":[789,789,789,789,789,789,789,789,789,789,789,789,789,789,789,789,789,789,789,789,789,789,789,789,789,789,789,789,789,789,789,789,789,789,789,789,790,795,801,814,826,839,858,866,874,882,889,900,908,912,915,916,921,927,935,947,959,971,996,1014,1025,1034,1046,1051,1057,1059],"ymouse":[437,437,437,437,437,437,437,437,437,437,437,437,437,437,437,437,437,437,437,437,437,437,437,437,437,437,437,437,437,437,437,437,437,437,437,437,435,432,429,419,409,399,379,368,356,346,334,310,291,279,268,262,246,232,215,194,176,160,128,110,102,95,87,83,80,79],"timestamp_mouse":[19,39,60,79,99,118,138,158,179,199,219,238,259,280,298,318,338,358,379,399,419,439,459,479,498,519,538,559,579,599,619,638,659,679,699,720,738,758,779,799,819,839,859,878,898,920,939,958,978,998,1018,1038,1059,1079,1098,1120,1140,1159,1179,1198,1218,1239,1258,1278,1298,1319],"xSR":741.5,"ySR":397.65000000000003,"xT1":424.9,"yT1":0,"xT2":1058.1,"yT2":0,"toosoon":0,"cond_shown":"randomdotsizeEA","ratio_trial":750,"smaller_num":"3","larger_num":"4","correct_side":1,"subjID":"mariajosepolanco4","gender":"1","age":"10","school":"6"},{"start_time":1551900370991,"click_time":1551900372441,"finger_time":1551900372059,"fix_duration":250,"trial":46,"RT":1068,"MT":382,"sideResp":1,"stimulus":"img/500/equaldotanddens/L/7_Ratio_500_L_10_R_5.png","xmouse":[794,794,794,794,794,794,794,794,794,794,794,794,794,794,794,794,794,794,794,794,794,794,794,794,794,794,794,794,794,794,794,794,794,794,794,794,794,794,794,794,794,794,794,794,794,794,794,794,794,793,791,784,752,715,691,671,652,640,631,629,628,626,624,615,608,601,595,587,561,546,528,514,498],"ymouse":[454,454,454,454,454,454,454,454,454,454,454,454,454,454,454,454,454,454,454,454,454,454,454,454,454,454,454,454,454,454,454,454,454,454,454,454,454,454,454,454,454,454,454,454,454,454,454,454,454,449,445,432,403,380,363,349,339,332,325,324,321,318,313,291,275,261,244,224,173,149,129,111,93],"timestamp_mouse":[9,37,49,69,89,108,128,149,168,188,209,228,249,269,290,309,328,348,368,388,409,430,449,468,488,509,529,548,568,588,609,629,649,668,689,709,729,748,768,790,808,828,849,869,889,910,928,948,969,989,1010,1029,1049,1068,1088,1109,1129,1149,1169,1189,1209,1228,1249,1268,1288,1308,1330,1348,1368,1389,1410,1429,1450],"xSR":741.5,"ySR":397.65000000000003,"xT1":424.9,"yT1":0,"xT2":1058.1,"yT2":0,"toosoon":0,"cond_shown":"equaldotanddens","ratio_trial":500,"smaller_num":"5","larger_num":"10","correct_side":1,"subjID":"mariajosepolanco4","gender":"1","age":"10","school":"6"},{"start_time":1551900374857,"click_time":1551900376359,"finger_time":1551900375640,"fix_duration":1395.6424663904743,"trial":47,"RT":783,"MT":719,"sideResp":2,"stimulus":"img/500/randomdotsizeEA/R/3_Ratio_500_L_10_R_20.png","xmouse":[777,778,778,779,779,779,779,779,779,779,779,779,779,779,779,779,779,779,779,779,779,779,779,779,779,779,779,779,779,779,779,779,779,779,780,784,793,806,820,845,882,895,906,919,930,938,943,948,960,968,990,1004,1019,1033,1048,1085,1104,1118,1132,1148,1167,1174,1177,1179,1179,1179,1179,1179,1179,1179,1174,1170,1166,1163,1160,1157],"ymouse":[428,431,431,434,435,435,435,435,435,435,435,435,435,435,435,435,435,435,435,435,435,435,435,435,435,435,435,435,435,435,435,435,435,435,435,434,428,415,400,370,327,308,295,282,274,262,257,253,244,239,220,208,198,187,177,153,140,129,118,104,89,83,80,79,79,78,78,78,77,77,77,76,75,75,75,75],"timestamp_mouse":[17,35,43,63,83,102,123,143,163,183,204,222,242,263,283,302,323,343,363,382,402,422,442,462,482,502,522,543,563,582,604,622,643,662,683,703,723,743,762,782,803,823,843,863,884,903,923,943,962,983,1003,1023,1042,1063,1082,1102,1122,1143,1164,1182,1202,1223,1242,1264,1282,1303,1322,1342,1363,1382,1402,1422,1443,1462,1482,1502],"xSR":741.5,"ySR":397.65000000000003,"xT1":424.9,"yT1":0,"xT2":1058.1,"yT2":0,"toosoon":0,"cond_shown":"randomdotsizeEA","ratio_trial":500,"smaller_num":"10","larger_num":"20","correct_side":2,"subjID":"mariajosepolanco4","gender":"1","age":"10","school":"6"},{"start_time":1551900377948,"click_time":1551900378899,"finger_time":1551900378680,"fix_duration":607.0015292513476,"trial":48,"RT":732,"MT":219,"sideResp":2,"stimulus":"img/500/equaldotsize/R/14_Ratio_500_L_5_R_10.png","xmouse":[805,805,806,806,806,807,807,807,807,807,807,807,808,808,808,808,808,808,808,808,808,808,808,808,808,808,808,808,808,808,808,808,809,812,817,839,851,863,879,908,942,1016,1050,1065,1077,1089,1094,1100],"ymouse":[452,451,451,451,451,450,450,450,450,450,450,450,449,449,449,449,449,449,449,449,449,449,449,449,449,449,449,449,449,449,449,449,449,447,444,421,402,381,358,323,285,217,178,156,136,112,102,89],"timestamp_mouse":[19,32,57,71,92,113,131,151,172,192,211,231,251,271,292,312,332,351,371,391,411,431,451,471,493,511,531,551,572,592,611,632,652,672,691,711,732,752,772,791,811,831,852,871,892,912,932,951],"xSR":741.5,"ySR":397.65000000000003,"xT1":424.9,"yT1":0,"xT2":1058.1,"yT2":0,"toosoon":0,"cond_shown":"equaldotsize","ratio_trial":500,"smaller_num":"5","larger_num":"10","correct_side":2,"subjID":"mariajosepolanco4","gender":"1","age":"10","school":"6"},{"start_time":1551900382363,"click_time":1551900383379,"finger_time":1551900383040,"fix_duration":1083.5231344800545,"trial":49,"RT":677,"MT":339,"sideResp":2,"stimulus":"img/250/randomdotsizeEA/R/6_Ratio_250_L_6_R_24.png","xmouse":[762,762,762,762,762,762,762,762,762,762,762,762,762,762,762,762,762,762,762,762,762,762,762,762,762,762,762,764,767,775,798,817,837,853,867,911,929,939,943,945,950,955,959,966,976,1000,1016,1032,1043,1057,1074],"ymouse":[448,448,448,448,448,448,448,448,448,448,448,448,448,448,448,448,448,448,448,448,448,448,448,448,448,448,448,448,448,448,431,416,399,383,367,314,293,281,274,269,257,248,237,225,209,168,142,119,103,89,75],"timestamp_mouse":[19,38,56,76,96,117,138,156,177,196,218,237,256,277,297,317,336,358,377,398,417,437,457,477,497,516,537,557,576,597,616,637,658,677,697,716,738,756,776,797,816,837,857,878,896,917,937,957,977,996,1016],"xSR":741.5,"ySR":397.65000000000003,"xT1":424.9,"yT1":0,"xT2":1058.1,"yT2":0,"toosoon":0,"cond_shown":"randomdotsizeEA","ratio_trial":250,"smaller_num":"6","larger_num":"24","correct_side":2,"subjID":"mariajosepolanco4","gender":"1","age":"10","school":"6"},{"start_time":1551900384324,"click_time":1551900385841,"finger_time":1551900385259,"fix_duration":282.6461526494677,"trial":50,"RT":935,"MT":582,"sideResp":1,"stimulus":"img/250/equaldotsize/L/1_Ratio_250_L_8_R_2.png","xmouse":[822,822,822,822,822,822,822,822,822,822,822,822,822,822,822,822,822,822,822,822,822,822,822,822,822,822,822,822,822,822,822,822,822,822,822,822,822,822,822,820,820,818,815,812,810,807,800,773,758,742,740,734,718,701,680,658,638,619,589,576,560,549,531,527,525,524,522,515,511,507,506,506,501,494,484,476],"ymouse":[451,451,451,451,451,451,451,451,451,451,451,451,451,451,451,451,451,451,451,451,451,451,451,451,451,451,451,451,451,451,451,451,451,451,451,451,451,451,448,446,445,442,437,430,416,398,380,345,334,323,321,316,305,294,284,273,262,248,221,211,196,185,164,157,153,148,144,133,128,125,124,124,120,115,106,99],"timestamp_mouse":[16,40,56,76,96,115,136,156,177,195,215,236,255,275,295,316,336,355,375,396,416,436,456,475,496,516,536,555,575,595,616,635,655,677,696,717,736,756,776,796,815,835,855,876,895,916,935,956,975,996,1016,1037,1056,1075,1095,1116,1136,1155,1175,1195,1217,1236,1256,1275,1297,1317,1335,1355,1376,1395,1416,1436,1456,1476,1495,1517],"xSR":741.5,"ySR":397.65000000000003,"xT1":424.9,"yT1":0,"xT2":1058.1,"yT2":0,"toosoon":0,"cond_shown":"equaldotsize","ratio_trial":250,"smaller_num":"2","larger_num":"8","correct_side":1,"subjID":"mariajosepolanco4","gender":"1","age":"10","school":"6"},{"start_time":1551900387396,"click_time":1551900388399,"finger_time":1551900388320,"fix_duration":795.40033224732,"trial":51,"RT":924,"MT":79,"sideResp":2,"stimulus":"img/750/equaldotanddens/R/7_Ratio_750_L_3_R_4.png","xmouse":[782,779,778,778,778,778,778,778,778,777,777,775,774,773,771,770,769,769,769,769,769,769,769,769,769,769,769,769,769,769,769,769,769,769,769,769,769,769,769,769,769,769,769,776,785,834,879,913,955,1039,1062],"ymouse":[471,471,471,471,471,471,471,471,471,471,471,471,471,471,471,471,471,471,471,471,471,471,471,471,471,471,471,471,471,471,471,471,471,471,471,471,471,471,471,471,471,471,471,470,465,425,357,310,241,86,58],"timestamp_mouse":[10,25,44,65,83,104,123,143,164,185,204,223,244,264,284,303,323,343,363,384,403,423,443,463,483,503,523,543,563,585,603,623,644,663,683,703,724,745,763,784,803,824,844,864,883,904,924,943,965,985,1003],"xSR":741.5,"ySR":397.65000000000003,"xT1":424.9,"yT1":0,"xT2":1058.1,"yT2":0,"toosoon":0,"cond_shown":"equaldotanddens","ratio_trial":750,"smaller_num":"3","larger_num":"4","correct_side":2,"subjID":"mariajosepolanco4","gender":"1","age":"10","school":"6"},{"start_time":1551900392404,"click_time":1551900394040,"finger_time":1551900393299,"fix_duration":564.4500550794348,"trial":52,"RT":895,"MT":741,"sideResp":1,"stimulus":"img/500/equaldotanddens/L/11_Ratio_500_L_12_R_6.png","xmouse":[810,810,810,810,810,810,810,810,810,810,810,810,810,810,810,810,810,810,810,810,810,810,810,810,810,810,810,810,810,810,810,810,810,810,810,810,810,810,810,810,807,803,792,780,741,721,702,686,675,657,651,646,633,619,587,577,567,562,558,555,555,554,553,553,552,552,551,549,547,540,538,538,538,538,538,538,538,538,538,537,534,523],"ymouse":[466,466,466,466,466,466,466,466,466,466,466,466,466,466,466,466,466,466,466,466,466,466,466,466,466,466,466,466,466,466,466,466,466,466,466,466,466,466,466,466,458,447,428,415,388,376,365,354,338,291,264,237,195,168,127,112,101,95,92,90,89,88,86,86,85,84,83,81,80,77,77,77,77,77,77,77,77,77,77,77,76,75],"timestamp_mouse":[16,40,55,77,96,116,136,156,176,196,216,236,256,276,296,315,335,356,375,395,416,436,457,476,495,515,536,556,577,595,615,635,656,675,696,715,736,756,776,796,815,837,856,876,895,916,935,956,976,996,1016,1037,1055,1076,1095,1115,1136,1156,1175,1197,1217,1236,1256,1276,1295,1315,1335,1356,1375,1396,1415,1436,1457,1476,1495,1515,1536,1556,1576,1595,1615,1636],"xSR":741.5,"ySR":397.65000000000003,"xT1":424.9,"yT1":0,"xT2":1058.1,"yT2":0,"toosoon":0,"cond_shown":"equaldotanddens","ratio_trial":500,"smaller_num":"6","larger_num":"12","correct_side":1,"subjID":"mariajosepolanco4","gender":"1","age":"10","school":"6"},{"start_time":1551900398011,"click_time":1551900400399,"finger_time":1551900399800,"fix_duration":1189.8450794337325,"trial":53,"RT":1789,"MT":599,"sideResp":1,"stimulus":"img/500/randomdotsizeEA/L/5_Ratio_500_L_4_R_2.png","xmouse":[772,772,772,772,772,772,772,772,772,772,772,772,772,772,772,772,772,772,772,772,772,772,772,772,772,772,772,772,772,772,772,772,772,772,772,772,772,772,772,772,772,772,772,772,772,772,772,772,772,772,772,772,772,772,772,772,772,772,772,772,772,772,772,772,772,772,772,772,772,772,772,772,772,772,772,772,772,772,772,772,772,772,772,772,772,771,767,763,762,762,752,735,719,709,701,691,685,678,667,656,629,622,614,606,586,576,568,561,556,553,545,543,541,540,538,533,532,530,526,524],"ymouse":[440,440,440,440,440,440,440,440,440,440,440,440,440,440,440,440,440,440,440,440,440,440,440,440,440,440,440,440,440,440,440,440,440,440,440,440,440,440,440,440,440,440,440,440,440,440,440,440,440,440,440,440,440,440,440,440,440,440,440,440,440,440,440,440,440,440,440,440,440,440,440,440,440,440,440,440,440,440,439,433,432,432,432,432,432,430,424,416,405,389,336,315,296,280,268,253,245,235,221,208,182,178,171,164,143,131,119,111,104,101,93,90,86,84,82,78,78,76,75,73],"timestamp_mouse":[12,34,50,69,90,109,128,149,169,188,208,228,249,269,289,308,328,348,368,389,408,429,449,469,488,509,528,548,569,590,609,630,648,668,688,708,728,749,769,790,808,828,849,869,889,909,928,950,968,988,1009,1029,1049,1068,1090,1109,1128,1149,1168,1189,1208,1229,1249,1269,1288,1308,1329,1349,1368,1388,1409,1429,1449,1468,1489,1509,1529,1549,1569,1590,1609,1630,1649,1669,1688,1708,1728,1748,1768,1789,1808,1828,1848,1869,1889,1909,1928,1949,1969,1990,2008,2029,2048,2069,2090,2108,2128,2148,2168,2189,2208,2229,2248,2270,2289,2308,2328,2348,2368,2388],"xSR":741.5,"ySR":397.65000000000003,"xT1":424.9,"yT1":0,"xT2":1058.1,"yT2":0,"toosoon":0,"cond_shown":"randomdotsizeEA","ratio_trial":500,"smaller_num":"2","larger_num":"4","correct_side":1,"subjID":"mariajosepolanco4","gender":"1","age":"10","school":"6"},{"start_time":1551900403166,"click_time":1551900404220,"finger_time":1551900404119,"fix_duration":1126.6540902234465,"trial":54,"RT":953,"MT":101,"sideResp":1,"stimulus":"img/500/equaldotsize/L/7_Ratio_500_L_10_R_5.png","xmouse":[785,785,785,785,785,785,785,785,785,785,785,785,785,785,785,785,785,785,785,785,785,785,785,785,785,785,785,785,785,785,785,785,785,785,785,785,785,785,785,785,785,785,785,785,786,785,780,715,645,578,498,467,444],"ymouse":[458,458,458,458,458,458,458,458,458,458,458,458,458,458,458,458,458,458,458,458,458,458,458,458,458,458,458,458,458,458,458,458,458,458,458,458,458,458,458,458,458,458,458,458,457,453,450,389,326,256,153,105,55],"timestamp_mouse":[14,33,53,75,95,114,134,154,174,193,213,234,255,275,293,313,334,353,373,394,413,434,454,473,494,513,533,553,573,593,613,634,654,673,693,713,734,754,774,794,815,835,854,874,893,914,934,953,975,995,1015,1035,1054],"xSR":741.5,"ySR":397.65000000000003,"xT1":424.9,"yT1":0,"xT2":1058.1,"yT2":0,"toosoon":0,"cond_shown":"equaldotsize","ratio_trial":500,"smaller_num":"5","larger_num":"10","correct_side":1,"subjID":"mariajosepolanco4","gender":"1","age":"10","school":"6"},{"start_time":1551900407854,"click_time":1551900409380,"finger_time":1551900408821,"fix_duration":953.5970471059236,"trial":55,"RT":967,"MT":559,"sideResp":1,"stimulus":"img/900/equaldotsize/L/1_Ratio_900_L_10_R_9.png","xmouse":[786,786,786,786,786,786,786,786,786,786,786,786,786,786,786,786,786,786,786,786,786,786,786,786,786,786,786,786,786,786,786,786,786,786,786,786,786,786,786,786,786,786,786,786,786,786,782,765,680,605,519,422,345,283,202,202,202,202,202,202,202,202,202,202,202,202,202,202,202,347,363,373,383,389,404,417,425],"ymouse":[447,447,447,447,447,447,447,447,447,447,447,447,447,447,447,447,447,447,447,447,447,447,447,447,447,447,447,447,447,447,447,447,447,447,447,447,447,447,447,447,447,447,447,447,447,447,444,432,377,334,277,214,159,104,13,13,13,13,13,13,13,13,13,13,13,13,13,13,13,3,9,12,15,20,48,60,67],"timestamp_mouse":[8,25,45,65,86,106,125,146,165,186,206,226,246,265,285,307,325,346,365,385,405,426,446,465,485,507,526,545,565,586,605,626,645,667,685,706,725,746,765,787,806,826,845,866,887,906,925,946,967,985,1006,1025,1047,1066,1085,1105,1125,1145,1167,1187,1206,1227,1246,1267,1287,1307,1326,1345,1365,1385,1405,1425,1445,1467,1486,1506,1526],"xSR":741.5,"ySR":397.65000000000003,"xT1":424.9,"yT1":0,"xT2":1058.1,"yT2":0,"toosoon":0,"cond_shown":"equaldotsize","ratio_trial":900,"smaller_num":"9","larger_num":"10","correct_side":1,"subjID":"mariajosepolanco4","gender":"1","age":"10","school":"6"},{"start_time":1551900411712,"click_time":1551900412841,"finger_time":1551900412459,"fix_duration":1271.083685751282,"trial":56,"RT":747,"MT":382,"sideResp":2,"stimulus":"img/750/equaldotanddens/R/12_Ratio_750_L_3_R_4.png","xmouse":[807,807,807,807,807,807,807,807,807,807,807,807,807,807,807,807,807,807,807,807,807,807,807,807,807,807,807,807,807,807,807,807,807,807,807,807,815,873,969,1090,1140,1165,1181,1184,1186,1188,1193,1194,1194,1194,1194,1194,1192,1189,1183,1175,1157],"ymouse":[440,440,440,440,440,440,440,440,440,440,440,440,440,440,440,440,440,440,440,440,440,440,440,440,440,440,440,440,440,440,440,440,440,440,440,440,436,403,347,270,236,210,181,170,157,140,98,75,57,45,44,44,44,44,44,44,44],"timestamp_mouse":[9,28,48,68,87,109,127,147,168,188,208,227,247,268,287,307,327,347,368,387,408,428,448,468,487,507,528,548,567,587,608,628,648,669,688,708,727,747,768,789,809,828,849,868,889,909,928,947,968,988,1008,1028,1048,1068,1088,1108,1129],"xSR":741.5,"ySR":397.65000000000003,"xT1":424.9,"yT1":0,"xT2":1058.1,"yT2":0,"toosoon":0,"cond_shown":"equaldotanddens","ratio_trial":750,"smaller_num":"3","larger_num":"4","correct_side":2,"subjID":"mariajosepolanco4","gender":"1","age":"10","school":"6"},{"start_time":1551900416251,"click_time":1551900417180,"finger_time":1551900416941,"fix_duration":1149.8025997561456,"trial":57,"RT":690,"MT":239,"sideResp":1,"stimulus":"img/250/equaldotsize/L/1_Ratio_250_L_8_R_2.png","xmouse":[767,767,767,767,767,767,767,767,767,767,767,767,767,767,767,767,767,767,767,767,767,767,767,767,767,767,767,767,767,767,767,767,765,761,733,710,682,649,609,558,489,470,464,462,460,457,454],"ymouse":[469,469,469,469,469,469,469,469,469,469,469,469,469,469,469,469,469,469,469,469,469,469,469,469,469,469,469,469,469,469,469,469,468,468,450,417,374,320,272,218,159,140,131,124,116,100,92],"timestamp_mouse":[13,35,49,69,89,109,129,149,169,190,209,229,249,269,290,309,328,349,369,390,410,429,450,469,489,510,529,549,570,590,609,629,649,669,690,708,729,749,769,789,809,829,849,869,888,908,929],"xSR":741.5,"ySR":397.65000000000003,"xT1":424.9,"yT1":0,"xT2":1058.1,"yT2":0,"toosoon":0,"cond_shown":"equaldotsize","ratio_trial":250,"smaller_num":"2","larger_num":"8","correct_side":1,"subjID":"mariajosepolanco4","gender":"1","age":"10","school":"6"},{"start_time":1551900420361,"click_time":1551900421461,"finger_time":1551900421260,"fix_duration":880.400893479931,"trial":58,"RT":899,"MT":201,"sideResp":1,"stimulus":"img/250/equaldotsize/L/5_Ratio_250_L_24_R_6.png","xmouse":[778,778,778,778,778,778,778,778,778,778,778,778,778,778,778,778,778,778,778,778,778,778,778,778,778,778,778,778,778,778,778,778,778,778,778,778,779,777,773,765,761,756,753,751,735,722,704,679,647,623,620,620,611,593,507],"ymouse":[465,465,465,465,465,465,465,465,465,465,465,465,465,465,465,465,465,465,465,465,465,465,465,465,465,465,465,465,465,465,465,465,465,465,465,464,459,454,448,441,439,435,432,429,406,390,369,345,321,232,146,111,81,58,30],"timestamp_mouse":[19,40,60,79,99,119,139,159,179,199,218,240,259,279,299,319,340,359,379,399,419,439,459,479,498,520,539,559,579,599,619,640,659,679,699,719,739,760,779,799,819,839,858,880,899,919,939,960,978,999,1019,1040,1058,1079,1099],"xSR":741.5,"ySR":397.65000000000003,"xT1":424.9,"yT1":0,"xT2":1058.1,"yT2":0,"toosoon":0,"cond_shown":"equaldotsize","ratio_trial":250,"smaller_num":"6","larger_num":"24","correct_side":1,"subjID":"mariajosepolanco4","gender":"1","age":"10","school":"6"},{"start_time":1551900427923,"click_time":1551900429440,"finger_time":1551900428940,"fix_duration":1000.0944941178136,"trial":59,"RT":1017,"MT":500,"sideResp":2,"stimulus":"img/900/equaldotanddens/R/13_Ratio_900_L_18_R_20.png","xmouse":[770,770,770,770,770,770,770,770,770,770,770,770,770,770,770,770,770,770,770,770,770,770,770,770,770,770,770,770,770,770,770,770,770,770,770,770,765,762,761,761,761,761,761,761,762,763,769,791,803,822,838,854,867,883,889,896,902,910,928,943,948,966,995,1011,1027,1040,1050,1060,1061,1064,1068,1072,1082,1090,1099,1107],"ymouse":[430,430,430,430,430,430,430,430,430,430,430,430,430,430,430,430,430,430,430,430,430,430,430,430,430,430,430,430,430,430,430,430,430,430,430,430,430,430,430,430,430,430,430,430,430,429,428,420,413,401,390,379,368,351,341,325,308,289,252,229,222,202,178,167,159,150,145,139,138,135,131,127,118,112,105,97],"timestamp_mouse":[17,39,57,77,97,117,137,157,177,197,217,237,257,277,297,317,337,357,378,397,416,437,457,477,497,517,537,558,577,597,617,637,657,677,697,717,736,757,777,798,818,837,857,877,897,918,937,957,977,997,1017,1037,1057,1077,1098,1117,1136,1157,1177,1197,1217,1237,1257,1277,1297,1318,1338,1357,1378,1398,1418,1437,1457,1477,1497,1517],"xSR":741.5,"ySR":397.65000000000003,"xT1":424.9,"yT1":0,"xT2":1058.1,"yT2":0,"toosoon":0,"cond_shown":"equaldotanddens","ratio_trial":900,"smaller_num":"18","larger_num":"20","correct_side":2,"subjID":"mariajosepolanco4","gender":"1","age":"10"