[{"start_time":1551899632721,"click_time":1551899636726,"finger_time":1551899634766,"fix_duration":1052.6790622132753,"trial":0,"RT":2045,"MT":1960,"sideResp":1,"stimulus":[],"xmouse":[800,800,800,800,800,800,800,800,800,800,800,800,800,800,800,800,800,800,800,800,800,800,800,800,800,800,800,800,800,800,800,800,800,800,800,800,800,800,800,800,800,800,800,800,800,800,800,800,800,800,800,800,800,800,800,800,800,800,800,800,800,800,800,800,800,800,800,800,800,800,800,800,800,800,800,800,800,800,800,800,800,800,800,800,800,800,800,800,800,800,798,798,794,791,789,788,786,784,781,775,771,768,751,739,729,721,715,710,690,679,669,666,664,664,665,673,682,698,704,712,718,724,736,741,745,747,749,750,763,768,774,775,776,776,777,778,778,778,778,778,778,778,778,778,778,778,778,778,778,778,778,778,778,778,778,778,778,778,778,778,778,778,778,778,778,778,778,778,778,778,778,778,778,778,778,778,778,778,778,778,778,778,778,778,773,766,746,687,605,582,573,570,566,566,563,561,561,560,552,538,518],"ymouse":[417,417,417,417,417,417,417,417,417,417,417,417,417,417,417,417,417,417,417,417,417,417,417,417,417,417,417,417,417,417,417,417,417,417,417,417,417,417,417,417,417,417,417,417,417,417,417,417,417,417,417,417,417,417,417,417,417,417,417,417,417,417,417,417,417,417,417,417,417,417,417,417,417,417,417,417,417,417,417,417,417,417,417,417,417,417,417,417,417,417,416,415,411,408,406,404,401,399,389,378,372,367,349,337,329,320,314,309,296,290,282,278,276,274,274,274,274,284,293,304,314,322,341,350,357,361,365,368,384,389,394,396,397,397,398,399,399,399,399,399,399,399,399,399,399,399,399,399,399,399,399,399,399,399,399,399,399,399,399,399,399,399,399,399,399,399,399,399,399,399,399,399,399,399,399,399,399,399,399,399,399,399,399,399,386,378,346,269,159,119,99,84,66,60,56,52,52,51,51,51,51],"timestamp_mouse":[9,24,49,65,86,104,124,144,165,185,204,224,244,264,284,304,325,345,366,385,404,425,445,465,485,504,525,545,565,584,605,625,645,665,685,704,725,744,764,785,804,824,844,865,885,904,924,945,964,986,1005,1025,1045,1065,1084,1104,1124,1144,1165,1185,1204,1225,1245,1265,1285,1305,1325,1345,1364,1384,1404,1424,1444,1465,1485,1505,1525,1545,1565,1584,1604,1625,1645,1664,1684,1705,1724,1745,1765,1785,1804,1825,1845,1864,1884,1905,1924,1944,1966,1984,2005,2025,2045,2064,2085,2106,2126,2145,2164,2184,2204,2224,2244,2265,2285,2305,2324,2345,2365,2384,2405,2424,2445,2464,2484,2504,2525,2545,2565,2584,2605,2625,2645,2664,2684,2705,2725,2745,2766,2784,2804,2824,2845,2864,2884,2904,2925,2944,2965,2984,3004,3024,3045,3064,3085,3106,3125,3145,3164,3184,3204,3224,3244,3264,3285,3304,3324,3345,3366,3385,3404,3424,3444,3465,3484,3504,3524,3544,3565,3586,3604,3624,3644,3665,3685,3704,3726,3745,3766,3785,3804,3825,3846,3864,3884,3904,3925,3944,3965,3984,4004],"xSR":741.5,"ySR":361.5,"xT1":424.9,"yT1":0,"xT2":1058.1,"yT2":0,"toosoon":0,"cond_shown":"Incongruent","ratio_trial":200,"L_num":7,"L_den":10,"R_num":12,"R_den":24,"correct_side":1,"subjID":"mariajosepolanco4","gender":"1","age":"10","school":"6","test":{"fix_dur":[250,1500],"timestim":1000,"targets_dim":[100,100],"targets_relative_coord":[0.3,0.7],"size_stim":[880,420],"start_dim":[100,100],"size_start":[300,300],"size_fix":60,"samplingrate":20,"img_types":["Congruent","Incongruent"],"ratios":[100,200,300],"rep_conds":19,"nTrials":120,"trials_to_rest":500,"Trials_order":[69,75,57,101,81,87,79,8,11,104,88,111,39,86,102,77,54,62,23,119,12,70,47,113,31,64,112,100,53,60,43,89,40,91,83,32,71,37,49,1,80,110,42,51,84,28,2,29,10,26,56,48,107,25,58,20,98,66,45,16,99,30,82,68,117,103,44,46,114,90,55,41,7,105,22,74,14,6,85,95,76,59,116,21,5,78,108,34,0,33,4,63,118,35,3,97,73,115,67,9,19,36,92,52,24,65,27,17,93,96,94,38,15,13,106,109,50,18,72,61],"cond_shown":["Incongruent","Incongruent","Incongruent","Incongruent","Incongruent","Incongruent","Incongruent","Congruent","Incongruent","Congruent","Congruent","Incongruent","Incongruent","Congruent","Congruent","Incongruent","Congruent","Congruent","Incongruent","Incongruent","Congruent","Congruent","Incongruent","Incongruent","Incongruent","Congruent","Congruent","Congruent","Incongruent","Congruent","Incongruent","Incongruent","Congruent","Incongruent","Incongruent","Congruent","Incongruent","Incongruent","Incongruent","Incongruent","Congruent","Congruent","Congruent","Incongruent","Congruent","Congruent","Congruent","Incongruent","Congruent","Congruent","Congruent","Congruent","Incongruent","Incongruent","Congruent","Congruent","Congruent","Congruent","Incongruent","Congruent","Incongruent","Congruent","Congruent","Congruent","Incongruent","Incongruent","Congruent","Congruent","Congruent","Congruent","Incongruent","Incongruent","Incongruent","Incongruent","Congruent","Congruent","Congruent","Congruent","Incongruent","Incongruent","Congruent","Incongruent","Congruent","Incongruent","Incongruent","Congruent","Congruent","Congruent","Congruent","Incongruent","Congruent","Incongruent","Congruent","Incongruent","Incongruent","Incongruent","Incongruent","Incongruent","Incongruent","Incongruent","Incongruent","Congruent","Congruent","Congruent","Congruent","Incongruent","Incongruent","Incongruent","Incongruent","Congruent","Congruent","Congruent","Incongruent","Incongruent","Congruent","Incongruent","Congruent","Congruent","Congruent","Incongruent"],"ratio_trial":[200,200,200,300,200,200,100,200,300,200,300,200,200,200,100,300,100,200,300,300,100,300,300,300,100,300,300,300,300,100,100,300,300,100,300,200,300,100,100,100,200,200,100,200,100,300,200,300,300,200,200,100,300,100,300,200,200,100,200,300,200,100,300,200,200,100,200,300,100,100,100,300,100,200,300,200,200,100,100,300,300,300,200,200,300,100,100,300,100,200,300,200,300,300,200,100,100,100,100,200,100,100,200,300,100,300,200,300,200,100,300,200,200,100,300,100,200,100,100,100],"left_num":[7,4,3,3,1,3,13,14,2,20,4,7,6,13,7,4,6,1,3,4,4,1,13,13,10,8,3,11,4,3,2,13,3,6,13,7,13,17,3,9,12,3,1,6,1,2,15,8,4,11,4,9,4,9,3,7,3,10,6,1,14,2,4,1,11,12,9,1,8,4,2,4,6,14,11,9,15,6,12,1,2,8,3,4,1,6,4,11,6,11,1,14,11,4,1,9,3,3,6,4,12,9,15,20,8,4,7,3,4,2,9,12,3,2,18,6,3,11,4,13],"right_num":[12,14,11,4,2,11,6,6,6,9,1,12,3,14,15,8,5,21,4,2,15,8,12,12,8,1,2,1,2,2,8,12,11,11,12,18,12,10,8,6,6,9,18,3,3,10,4,9,1,3,3,8,2,14,2,2,14,3,3,19,6,11,2,21,3,2,4,19,2,15,6,6,3,6,1,13,4,15,9,3,10,14,14,14,3,5,6,1,15,3,3,6,4,2,2,20,4,11,7,6,2,8,4,14,2,2,4,4,6,11,3,6,11,6,9,3,14,6,15,6],"left_den":[10,6,4,6,3,4,26,28,4,25,10,10,20,26,14,5,20,2,6,20,10,30,26,26,25,16,6,22,20,6,4,26,12,10,26,15,26,30,5,18,15,12,2,20,2,20,25,10,10,22,8,15,20,15,6,21,10,25,20,3,30,5,5,2,20,30,20,3,16,10,4,5,12,30,22,30,25,12,24,2,20,10,10,6,2,20,8,22,12,20,5,30,22,20,3,10,6,5,10,5,30,15,25,25,16,20,15,6,5,5,10,15,4,4,20,12,6,22,10,26],"right_den":[24,30,20,20,15,20,10,20,30,15,10,24,6,20,25,16,25,30,20,4,30,24,15,15,16,5,10,5,4,5,20,15,20,22,15,27,15,15,16,10,10,20,30,6,5,25,10,18,10,10,10,16,4,28,10,15,28,10,6,30,9,22,4,30,4,4,16,30,5,30,15,12,5,9,5,26,10,25,15,15,25,28,28,30,15,25,10,5,25,4,6,9,20,4,15,25,10,22,14,10,4,16,10,28,5,4,6,20,10,22,5,10,20,15,15,5,20,15,30,10],"correct_side":[1,1,1,1,1,1,2,1,1,1,1,1,2,2,2,1,1,2,1,2,2,2,2,2,2,1,1,1,2,1,1,2,2,1,2,2,2,2,1,2,1,2,2,2,2,2,1,1,1,1,1,1,2,1,1,1,2,1,2,2,2,2,1,2,2,2,1,2,1,2,1,1,2,2,1,2,1,2,2,1,2,1,2,1,1,1,2,1,2,2,2,2,1,2,1,1,1,1,1,1,2,1,1,1,1,2,2,1,1,2,1,1,1,1,1,2,2,1,2,2],"img_shown":["img2/200/Incongruent/L/I_Dist_200_LN_7_LD_10_RN_12_RD_24_0.png","img2/200/Incongruent/L/I_Dist_200_LN_4_LD_6_RN_14_RD_30_0.png","img2/200/Incongruent/L/I_Dist_200_LN_3_LD_4_RN_11_RD_20_0.png","img2/300/Incongruent/L/I_Dist_300_LN_3_LD_6_RN_4_RD_20_0.png","img2/200/Incongruent/L/I_Dist_200_LN_1_LD_3_RN_2_RD_15_0.png","img2/200/Incongruent/L/I_Dist_200_LN_3_LD_4_RN_11_RD_20_0.png","img2/100/Incongruent/R/I_Dist_100_LN_13_LD_26_RN_6_RD_10_1.png","img2/200/Congruent/L/C_Dist_200_LN_14_LD_28_RN_6_RD_20_0.png","img2/300/Incongruent/L/I_Dist_300_LN_2_LD_4_RN_6_RD_30_0.png","img2/200/Congruent/L/C_Dist_200_LN_20_LD_25_RN_9_RD_15_0.png","img2/300/Congruent/L/C_Dist_300_LN_4_LD_10_RN_1_RD_10_0.png","img2/200/Incongruent/L/I_Dist_200_LN_7_LD_10_RN_12_RD_24_0.png","img2/200/Incongruent/R/I_Dist_200_LN_6_LD_20_RN_3_RD_6_1.png","img2/200/Congruent/R/C_Dist_200_LN_13_LD_26_RN_14_RD_20_1.png","img2/100/Congruent/R/C_Dist_100_LN_7_LD_14_RN_15_RD_25_1.png","img2/300/Incongruent/L/I_Dist_300_LN_4_LD_5_RN_8_RD_16_0.png","img2/100/Congruent/L/C_Dist_100_LN_6_LD_20_RN_5_RD_25_0.png","img2/200/Congruent/R/C_Dist_200_LN_1_LD_2_RN_21_RD_30_1.png","img2/300/Incongruent/L/I_Dist_300_LN_3_LD_6_RN_4_RD_20_0.png","img2/300/Incongruent/R/I_Dist_300_LN_4_LD_20_RN_2_RD_4_1.png","img2/100/Congruent/R/C_Dist_100_LN_4_LD_10_RN_15_RD_30_1.png","img2/300/Congruent/R/C_Dist_300_LN_1_LD_30_RN_8_RD_24_1.png","img2/300/Incongruent/R/I_Dist_300_LN_13_LD_26_RN_12_RD_15_1.png","img2/300/Incongruent/R/I_Dist_300_LN_13_LD_26_RN_12_RD_15_1.png","img2/100/Incongruent/R/I_Dist_100_LN_10_LD_25_RN_8_RD_16_1.png","img2/300/Congruent/L/C_Dist_300_LN_8_LD_16_RN_1_RD_5_0.png","img2/300/Congruent/L/C_Dist_300_LN_3_LD_6_RN_2_RD_10_0.png","img2/300/Congruent/L/C_Dist_300_LN_11_LD_22_RN_1_RD_5_0.png","img2/300/Incongruent/R/I_Dist_300_LN_4_LD_20_RN_2_RD_4_1.png","img2/100/Congruent/L/C_Dist_100_LN_3_LD_6_RN_2_RD_5_0.png","img2/100/Incongruent/L/I_Dist_100_LN_2_LD_4_RN_8_RD_20_0.png","img2/300/Incongruent/R/I_Dist_300_LN_13_LD_26_RN_12_RD_15_1.png","img2/300/Congruent/R/C_Dist_300_LN_3_LD_12_RN_11_RD_20_1.png","img2/100/Incongruent/L/I_Dist_100_LN_6_LD_10_RN_11_RD_22_0.png","img2/300/Incongruent/R/I_Dist_300_LN_13_LD_26_RN_12_RD_15_1.png","img2/200/Congruent/R/C_Dist_200_LN_7_LD_15_RN_18_RD_27_1.png","img2/300/Incongruent/R/I_Dist_300_LN_13_LD_26_RN_12_RD_15_1.png","img2/100/Incongruent/R/I_Dist_100_LN_17_LD_30_RN_10_RD_15_1.png","img2/100/Incongruent/L/I_Dist_100_LN_3_LD_5_RN_8_RD_16_0.png","img2/100/Incongruent/R/I_Dist_100_LN_9_LD_18_RN_6_RD_10_1.png","img2/200/Congruent/L/C_Dist_200_LN_12_LD_15_RN_6_RD_10_0.png","img2/200/Congruent/R/C_Dist_200_LN_3_LD_12_RN_9_RD_20_1.png","img2/100/Congruent/R/C_Dist_100_LN_1_LD_2_RN_18_RD_30_1.png","img2/200/Incongruent/R/I_Dist_200_LN_6_LD_20_RN_3_RD_6_1.png","img2/100/Congruent/R/C_Dist_100_LN_1_LD_2_RN_3_RD_5_1.png","img2/300/Congruent/R/C_Dist_300_LN_2_LD_20_RN_10_RD_25_1.png","img2/200/Congruent/L/C_Dist_200_LN_15_LD_25_RN_4_RD_10_0.png","img2/300/Incongruent/L/I_Dist_300_LN_8_LD_10_RN_9_RD_18_0.png","img2/300/Congruent/L/C_Dist_300_LN_4_LD_10_RN_1_RD_10_0.png","img2/200/Congruent/L/C_Dist_200_LN_11_LD_22_RN_3_RD_10_0.png","img2/200/Congruent/L/C_Dist_200_LN_4_LD_8_RN_3_RD_10_0.png","img2/100/Congruent/L/C_Dist_100_LN_9_LD_15_RN_8_RD_16_0.png","img2/300/Incongruent/R/I_Dist_300_LN_4_LD_20_RN_2_RD_4_1.png","img2/100/Incongruent/L/I_Dist_100_LN_9_LD_15_RN_14_RD_28_0.png","img2/300/Congruent/L/C_Dist_300_LN_3_LD_6_RN_2_RD_10_0.png","img2/200/Congruent/L/C_Dist_200_LN_7_LD_21_RN_2_RD_15_0.png","img2/200/Congruent/R/C_Dist_200_LN_3_LD_10_RN_14_RD_28_1.png","img2/100/Congruent/L/C_Dist_100_LN_10_LD_25_RN_3_RD_10_0.png","img2/200/Incongruent/R/I_Dist_200_LN_6_LD_20_RN_3_RD_6_1.png","img2/300/Congruent/R/C_Dist_300_LN_1_LD_3_RN_19_RD_30_1.png","img2/200/Incongruent/R/I_Dist_200_LN_14_LD_30_RN_6_RD_9_1.png","img2/100/Congruent/R/C_Dist_100_LN_2_LD_5_RN_11_RD_22_1.png","img2/300/Congruent/L/C_Dist_300_LN_4_LD_5_RN_2_RD_4_0.png","img2/200/Congruent/R/C_Dist_200_LN_1_LD_2_RN_21_RD_30_1.png","img2/200/Incongruent/R/I_Dist_200_LN_11_LD_20_RN_3_RD_4_1.png","img2/100/Incongruent/R/I_Dist_100_LN_12_LD_30_RN_2_RD_4_1.png","img2/200/Congruent/L/C_Dist_200_LN_9_LD_20_RN_4_RD_16_0.png","img2/300/Congruent/R/C_Dist_300_LN_1_LD_3_RN_19_RD_30_1.png","img2/100/Congruent/L/C_Dist_100_LN_8_LD_16_RN_2_RD_5_0.png","img2/100/Congruent/R/C_Dist_100_LN_4_LD_10_RN_15_RD_30_1.png","img2/100/Incongruent/L/I_Dist_100_LN_2_LD_4_RN_6_RD_15_0.png","img2/300/Incongruent/L/I_Dist_300_LN_4_LD_5_RN_6_RD_12_0.png","img2/100/Incongruent/R/I_Dist_100_LN_6_LD_12_RN_3_RD_5_1.png","img2/200/Incongruent/R/I_Dist_200_LN_14_LD_30_RN_6_RD_9_1.png","img2/300/Congruent/L/C_Dist_300_LN_11_LD_22_RN_1_RD_5_0.png","img2/200/Congruent/R/C_Dist_200_LN_9_LD_30_RN_13_RD_26_1.png","img2/200/Congruent/L/C_Dist_200_LN_15_LD_25_RN_4_RD_10_0.png","img2/100/Congruent/R/C_Dist_100_LN_6_LD_12_RN_15_RD_25_1.png","img2/100/Incongruent/R/I_Dist_100_LN_12_LD_24_RN_9_RD_15_1.png","img2/300/Incongruent/L/I_Dist_300_LN_1_LD_2_RN_3_RD_15_0.png","img2/300/Congruent/R/C_Dist_300_LN_2_LD_20_RN_10_RD_25_1.png","img2/300/Incongruent/L/I_Dist_300_LN_8_LD_10_RN_14_RD_28_0.png","img2/200/Congruent/R/C_Dist_200_LN_3_LD_10_RN_14_RD_28_1.png","img2/200/Incongruent/L/I_Dist_200_LN_4_LD_6_RN_14_RD_30_0.png","img2/300/Incongruent/L/I_Dist_300_LN_1_LD_2_RN_3_RD_15_0.png","img2/100/Congruent/L/C_Dist_100_LN_6_LD_20_RN_5_RD_25_0.png","img2/100/Congruent/R/C_Dist_100_LN_4_LD_8_RN_6_RD_10_1.png","img2/300/Congruent/L/C_Dist_300_LN_11_LD_22_RN_1_RD_5_0.png","img2/100/Congruent/R/C_Dist_100_LN_6_LD_12_RN_15_RD_25_1.png","img2/200/Incongruent/R/I_Dist_200_LN_11_LD_20_RN_3_RD_4_1.png","img2/300/Congruent/R/C_Dist_300_LN_1_LD_5_RN_3_RD_6_1.png","img2/200/Incongruent/R/I_Dist_200_LN_14_LD_30_RN_6_RD_9_1.png","img2/300/Congruent/L/C_Dist_300_LN_11_LD_22_RN_4_RD_20_0.png","img2/300/Incongruent/R/I_Dist_300_LN_4_LD_20_RN_2_RD_4_1.png","img2/200/Incongruent/L/I_Dist_200_LN_1_LD_3_RN_2_RD_15_0.png","img2/100/Incongruent/L/I_Dist_100_LN_9_LD_10_RN_20_RD_25_0.png","img2/100/Incongruent/L/I_Dist_100_LN_3_LD_6_RN_4_RD_10_0.png","img2/100/Incongruent/L/I_Dist_100_LN_3_LD_5_RN_11_RD_22_0.png","img2/100/Incongruent/L/I_Dist_100_LN_6_LD_10_RN_7_RD_14_0.png","img2/200/Incongruent/L/I_Dist_200_LN_4_LD_5_RN_6_RD_10_0.png","img2/100/Incongruent/R/I_Dist_100_LN_12_LD_30_RN_2_RD_4_1.png","img2/100/Congruent/L/C_Dist_100_LN_9_LD_15_RN_8_RD_16_0.png","img2/200/Congruent/L/C_Dist_200_LN_15_LD_25_RN_4_RD_10_0.png","img2/300/Congruent/L/C_Dist_300_LN_20_LD_25_RN_14_RD_28_0.png","img2/100/Congruent/L/C_Dist_100_LN_8_LD_16_RN_2_RD_5_0.png","img2/300/Incongruent/R/I_Dist_300_LN_4_LD_20_RN_2_RD_4_1.png","img2/200/Incongruent/R/I_Dist_200_LN_7_LD_15_RN_4_RD_6_1.png","img2/300/Incongruent/L/I_Dist_300_LN_3_LD_6_RN_4_RD_20_0.png","img2/200/Incongruent/L/I_Dist_200_LN_4_LD_5_RN_6_RD_10_0.png","img2/100/Congruent/R/C_Dist_100_LN_2_LD_5_RN_11_RD_22_1.png","img2/300/Congruent/L/C_Dist_300_LN_9_LD_10_RN_3_RD_5_0.png","img2/200/Congruent/L/C_Dist_200_LN_12_LD_15_RN_6_RD_10_0.png","img2/200/Incongruent/L/I_Dist_200_LN_3_LD_4_RN_11_RD_20_0.png","img2/100/Incongruent/L/I_Dist_100_LN_2_LD_4_RN_6_RD_15_0.png","img2/300/Congruent/L/C_Dist_300_LN_18_LD_20_RN_9_RD_15_0.png","img2/100/Incongruent/R/I_Dist_100_LN_6_LD_12_RN_3_RD_5_1.png","img2/200/Congruent/R/C_Dist_200_LN_3_LD_6_RN_14_RD_20_1.png","img2/100/Congruent/L/C_Dist_100_LN_11_LD_22_RN_6_RD_15_0.png","img2/100/Congruent/R/C_Dist_100_LN_4_LD_10_RN_15_RD_30_1.png","img2/100/Incongruent/R/I_Dist_100_LN_13_LD_26_RN_6_RD_10_1.png"],"dist100_C":[["C_Dist_100_LN_10_LD_25_RN_3_RD_10_0.png","C_Dist_100_LN_11_LD_22_RN_4_RD_10_0.png","C_Dist_100_LN_11_LD_22_RN_6_RD_15_0.png","C_Dist_100_LN_15_LD_25_RN_13_RD_26_0.png","C_Dist_100_LN_3_LD_6_RN_2_RD_5_0.png","C_Dist_100_LN_6_LD_20_RN_5_RD_25_0.png","C_Dist_100_LN_8_LD_16_RN_2_RD_5_0.png","C_Dist_100_LN_9_LD_15_RN_8_RD_16_0.png"],["C_Dist_100_LN_1_LD_2_RN_18_RD_30_1.png","C_Dist_100_LN_1_LD_2_RN_3_RD_5_1.png","C_Dist_100_LN_12_LD_30_RN_13_RD_26_1.png","C_Dist_100_LN_2_LD_5_RN_11_RD_22_1.png","C_Dist_100_LN_2_LD_5_RN_6_RD_12_1.png","C_Dist_100_LN_3_LD_20_RN_4_RD_16_1.png","C_Dist_100_LN_4_LD_10_RN_15_RD_30_1.png","C_Dist_100_LN_4_LD_8_RN_6_RD_10_1.png","C_Dist_100_LN_6_LD_12_RN_15_RD_25_1.png","C_Dist_100_LN_7_LD_14_RN_15_RD_25_1.png","C_Dist_100_LN_7_LD_14_RN_9_RD_15_1.png"]],"dist100_I":[["I_Dist_100_LN_1_LD_2_RN_8_RD_20_0.png","I_Dist_100_LN_2_LD_4_RN_6_RD_15_0.png","I_Dist_100_LN_2_LD_4_RN_8_RD_20_0.png","I_Dist_100_LN_3_LD_5_RN_11_RD_22_0.png","I_Dist_100_LN_3_LD_5_RN_8_RD_16_0.png","I_Dist_100_LN_3_LD_6_RN_4_RD_10_0.png","I_Dist_100_LN_3_LD_9_RN_7_RD_30_0.png","I_Dist_100_LN_4_LD_8_RN_8_RD_20_0.png","I_Dist_100_LN_6_LD_10_RN_11_RD_22_0.png","I_Dist_100_LN_6_LD_10_RN_13_RD_26_0.png","I_Dist_100_LN_6_LD_10_RN_7_RD_14_0.png","I_Dist_100_LN_9_LD_10_RN_20_RD_25_0.png","I_Dist_100_LN_9_LD_15_RN_13_RD_26_0.png","I_Dist_100_LN_9_LD_15_RN_14_RD_28_0.png"],["I_Dist_100_LN_10_LD_25_RN_8_RD_16_1.png","I_Dist_100_LN_10_LD_25_RN_9_RD_18_1.png","I_Dist_100_LN_11_LD_22_RN_9_RD_15_1.png","I_Dist_100_LN_12_LD_24_RN_9_RD_15_1.png","I_Dist_100_LN_12_LD_30_RN_2_RD_4_1.png","I_Dist_100_LN_13_LD_26_RN_12_RD_20_1.png","I_Dist_100_LN_13_LD_26_RN_6_RD_10_1.png","I_Dist_100_LN_17_LD_30_RN_10_RD_15_1.png","I_Dist_100_LN_6_LD_12_RN_3_RD_5_1.png","I_Dist_100_LN_8_LD_16_RN_6_RD_10_1.png","I_Dist_100_LN_8_LD_20_RN_1_RD_2_1.png","I_Dist_100_LN_9_LD_18_RN_6_RD_10_1.png"]],"dist100_S":[["E_Dist_100_LN_2_LD_12_RN_2_RD_30_0.png","E_Dist_100_LN_6_LD_10_RN_6_RD_12_0.png"],["E_Dist_100_LN_6_LD_12_RN_6_RD_10_1.png"]],"dist200_C":[["C_Dist_200_LN_11_LD_22_RN_3_RD_10_0.png","C_Dist_200_LN_12_LD_15_RN_6_RD_10_0.png","C_Dist_200_LN_12_LD_20_RN_6_RD_15_0.png","C_Dist_200_LN_14_LD_28_RN_6_RD_20_0.png","C_Dist_200_LN_15_LD_25_RN_4_RD_10_0.png","C_Dist_200_LN_16_LD_20_RN_12_RD_20_0.png","C_Dist_200_LN_16_LD_30_RN_9_RD_27_0.png","C_Dist_200_LN_20_LD_25_RN_9_RD_15_0.png","C_Dist_200_LN_21_LD_30_RN_2_RD_4_0.png","C_Dist_200_LN_4_LD_10_RN_3_RD_15_0.png","C_Dist_200_LN_4_LD_8_RN_3_RD_10_0.png","C_Dist_200_LN_6_LD_15_RN_3_RD_15_0.png","C_Dist_200_LN_7_LD_21_RN_2_RD_15_0.png","C_Dist_200_LN_8_LD_15_RN_2_RD_6_0.png","C_Dist_200_LN_8_LD_15_RN_3_RD_9_0.png","C_Dist_200_LN_8_LD_15_RN_7_RD_21_0.png","C_Dist_200_LN_9_LD_20_RN_4_RD_16_0.png"],["C_Dist_200_LN_1_LD_2_RN_21_RD_30_1.png","C_Dist_200_LN_13_LD_26_RN_14_RD_20_1.png","C_Dist_200_LN_3_LD_10_RN_11_RD_22_1.png","C_Dist_200_LN_3_LD_10_RN_14_RD_28_1.png","C_Dist_200_LN_3_LD_10_RN_7_RD_14_1.png","C_Dist_200_LN_3_LD_12_RN_9_RD_20_1.png","C_Dist_200_LN_3_LD_6_RN_14_RD_20_1.png","C_Dist_200_LN_5_LD_10_RN_14_RD_20_1.png","C_Dist_200_LN_6_LD_12_RN_7_RD_10_1.png","C_Dist_200_LN_6_LD_20_RN_11_RD_22_1.png","C_Dist_200_LN_7_LD_15_RN_18_RD_27_1.png","C_Dist_200_LN_9_LD_30_RN_13_RD_26_1.png"]],"dist200_I":[["I_Dist_200_LN_1_LD_2_RN_3_RD_10_0.png","I_Dist_200_LN_1_LD_3_RN_2_RD_15_0.png","I_Dist_200_LN_3_LD_4_RN_11_RD_20_0.png","I_Dist_200_LN_4_LD_5_RN_6_RD_10_0.png","I_Dist_200_LN_4_LD_6_RN_14_RD_30_0.png","I_Dist_200_LN_7_LD_10_RN_12_RD_24_0.png","I_Dist_200_LN_7_LD_10_RN_14_RD_28_0.png","I_Dist_200_LN_7_LD_10_RN_8_RD_16_0.png"],["I_Dist_200_LN_11_LD_20_RN_3_RD_4_1.png","I_Dist_200_LN_14_LD_30_RN_12_RD_18_1.png","I_Dist_200_LN_14_LD_30_RN_6_RD_9_1.png","I_Dist_200_LN_3_LD_10_RN_1_RD_2_1.png","I_Dist_200_LN_4_LD_30_RN_1_RD_3_1.png","I_Dist_200_LN_6_LD_20_RN_3_RD_6_1.png","I_Dist_200_LN_7_LD_15_RN_4_RD_6_1.png","I_Dist_200_LN_7_LD_15_RN_6_RD_9_1.png","I_Dist_200_LN_9_LD_15_RN_8_RD_10_1.png"]],"dist200_S":[["E_Dist_200_LN_3_LD_6_RN_3_RD_10_0.png"],["E_Dist_200_LN_3_LD_10_RN_3_RD_6_1.png"]],"dist300_C":[["C_Dist_300_LN_11_LD_22_RN_1_RD_5_0.png","C_Dist_300_LN_11_LD_22_RN_2_RD_10_0.png","C_Dist_300_LN_11_LD_22_RN_4_RD_20_0.png","C_Dist_300_LN_12_LD_24_RN_2_RD_10_0.png","C_Dist_300_LN_18_LD_20_RN_9_RD_15_0.png","C_Dist_300_LN_20_LD_25_RN_13_RD_26_0.png","C_Dist_300_LN_20_LD_25_RN_14_RD_28_0.png","C_Dist_300_LN_20_LD_25_RN_5_RD_10_0.png","C_Dist_300_LN_20_LD_25_RN_8_RD_16_0.png","C_Dist_300_LN_20_LD_25_RN_9_RD_18_0.png","C_Dist_300_LN_24_LD_30_RN_2_RD_4_0.png","C_Dist_300_LN_24_LD_30_RN_8_RD_16_0.png","C_Dist_300_LN_3_LD_6_RN_2_RD_10_0.png","C_Dist_300_LN_4_LD_10_RN_1_RD_10_0.png","C_Dist_300_LN_4_LD_5_RN_2_RD_4_0.png","C_Dist_300_LN_8_LD_16_RN_1_RD_5_0.png","C_Dist_300_LN_9_LD_10_RN_3_RD_5_0.png"],["C_Dist_300_LN_1_LD_20_RN_7_RD_20_1.png","C_Dist_300_LN_1_LD_3_RN_19_RD_30_1.png","C_Dist_300_LN_1_LD_30_RN_8_RD_24_1.png","C_Dist_300_LN_1_LD_5_RN_11_RD_22_1.png","C_Dist_300_LN_1_LD_5_RN_3_RD_6_1.png","C_Dist_300_LN_1_LD_5_RN_6_RD_12_1.png","C_Dist_300_LN_2_LD_10_RN_12_RD_24_1.png","C_Dist_300_LN_2_LD_20_RN_10_RD_25_1.png","C_Dist_300_LN_3_LD_12_RN_11_RD_20_1.png","C_Dist_300_LN_3_LD_6_RN_4_RD_5_1.png","C_Dist_300_LN_4_LD_20_RN_13_RD_26_1.png","C_Dist_300_LN_5_LD_25_RN_6_RD_12_1.png","C_Dist_300_LN_5_LD_25_RN_7_RD_14_1.png","C_Dist_300_LN_7_LD_14_RN_20_RD_25_1.png","C_Dist_300_LN_8_LD_15_RN_10_RD_12_1.png"]],"dist300_I":[["I_Dist_300_LN_1_LD_2_RN_2_RD_10_0.png","I_Dist_300_LN_1_LD_2_RN_3_RD_15_0.png","I_Dist_300_LN_2_LD_4_RN_6_RD_30_0.png","I_Dist_300_LN_3_LD_6_RN_4_RD_20_0.png","I_Dist_300_LN_4_LD_5_RN_6_RD_12_0.png","I_Dist_300_LN_4_LD_5_RN_8_RD_16_0.png","I_Dist_300_LN_7_LD_10_RN_8_RD_20_0.png","I_Dist_300_LN_8_LD_10_RN_14_RD_28_0.png","I_Dist_300_LN_8_LD_10_RN_9_RD_18_0.png"],["I_Dist_300_LN_13_LD_26_RN_12_RD_15_1.png","I_Dist_300_LN_4_LD_20_RN_2_RD_4_1.png"]],"dist300_S":[["E_Dist_300_LN_9_LD_12_RN_9_RD_20_0.png"],["E_Dist_300_LN_18_LD_30_RN_18_RD_20_1.png","E_Dist_300_LN_3_LD_10_RN_3_RD_5_1.png","E_Dist_300_LN_9_LD_20_RN_9_RD_12_1.png"]],"dist500_C":[["C_Dist_500_LN_10_LD_13_RN_7_RD_26_0.png","C_Dist_500_LN_10_LD_15_RN_4_RD_24_0.png","C_Dist_500_LN_12_LD_16_RN_3_RD_12_0.png","C_Dist_500_LN_12_LD_18_RN_4_RD_24_0.png","C_Dist_500_LN_15_LD_18_RN_5_RD_15_0.png","C_Dist_500_LN_15_LD_20_RN_1_RD_4_0.png","C_Dist_500_LN_18_LD_27_RN_1_RD_6_0.png","C_Dist_500_LN_20_LD_24_RN_1_RD_3_0.png","C_Dist_500_LN_20_LD_24_RN_3_RD_9_0.png","C_Dist_500_LN_20_LD_24_RN_7_RD_21_0.png","C_Dist_500_LN_20_LD_28_RN_3_RD_14_0.png","C_Dist_500_LN_21_LD_28_RN_6_RD_24_0.png","C_Dist_500_LN_22_LD_28_RN_2_RD_7_0.png","C_Dist_500_LN_25_LD_30_RN_9_RD_27_0.png","C_Dist_500_LN_4_LD_6_RN_1_RD_6_0.png","C_Dist_500_LN_5_LD_6_RN_2_RD_6_0.png","C_Dist_500_LN_6_LD_9_RN_1_RD_6_0.png","C_Dist_500_LN_7_LD_10_RN_1_RD_5_0.png","C_Dist_500_LN_8_LD_12_RN_1_RD_6_0.png","C_Dist_500_LN_8_LD_12_RN_4_RD_24_0.png"],["C_Dist_500_LN_1_LD_4_RN_12_RD_16_1.png","C_Dist_500_LN_1_LD_4_RN_9_RD_12_1.png","C_Dist_500_LN_1_LD_9_RN_11_RD_18_1.png","C_Dist_500_LN_10_LD_24_RN_22_RD_24_1.png","C_Dist_500_LN_2_LD_12_RN_10_RD_15_1.png","C_Dist_500_LN_2_LD_12_RN_12_RD_18_1.png","C_Dist_500_LN_2_LD_12_RN_4_RD_6_1.png","C_Dist_500_LN_2_LD_24_RN_7_RD_12_1.png","C_Dist_500_LN_2_LD_5_RN_18_RD_20_1.png","C_Dist_500_LN_2_LD_5_RN_9_RD_10_1.png","C_Dist_500_LN_2_LD_8_RN_12_RD_16_1.png","C_Dist_500_LN_2_LD_8_RN_21_RD_28_1.png","C_Dist_500_LN_3_LD_10_RN_4_RD_5_1.png","C_Dist_500_LN_3_LD_12_RN_15_RD_20_1.png","C_Dist_500_LN_3_LD_30_RN_6_RD_10_1.png","C_Dist_500_LN_3_LD_8_RN_14_RD_16_1.png","C_Dist_500_LN_4_LD_16_RN_15_RD_20_1.png","C_Dist_500_LN_4_LD_24_RN_12_RD_18_1.png","C_Dist_500_LN_5_LD_14_RN_6_RD_7_1.png","C_Dist_500_LN_7_LD_21_RN_20_RD_24_1.png","C_Dist_500_LN_7_LD_28_RN_12_RD_16_1.png","C_Dist_500_LN_7_LD_28_RN_9_RD_12_1.png","C_Dist_500_LN_9_LD_27_RN_20_RD_24_1.png"]],"dist500_I":[["I_Dist_500_LN_2_LD_3_RN_4_RD_24_0.png","I_Dist_500_LN_5_LD_6_RN_6_RD_18_0.png","I_Dist_500_LN_7_LD_8_RN_9_RD_24_0.png"],["I_Dist_500_LN_7_LD_21_RN_5_RD_6_1.png"]],"dist500_S":[["E_Dist_500_LN_6_LD_8_RN_6_RD_24_0.png"],["E_Dist_500_LN_2_LD_12_RN_2_RD_3_1.png","E_Dist_500_LN_6_LD_24_RN_6_RD_8_1.png"]]}},{"start_time":1551899638376,"click_time":1551899640367,"finger_time":1551899639325,"fix_duration":508.1650317959593,"trial":1,"RT":949,"MT":1042,"sideResp":1,"stimulus":[],"xmouse":[803,803,803,803,803,803,803,803,803,803,803,803,803,803,803,803,803,803,803,803,803,803,803,803,804,805,806,806,806,806,806,806,806,806,806,806,806,806,806,807,807,808,809,816,821,832,838,847,855,861,862,862,862,862,862,862,860,858,855,851,847,843,839,833,827,820,815,813,810,807,804,802,801,800,799,798,797,797,796,796,794,793,793,793,792,790,788,785,782,779,757,734,673,640,593,545,534,530,526,522],"ymouse":[418,418,418,418,418,418,418,418,418,418,418,418,418,418,418,418,418,418,418,418,418,418,418,418,418,417,416,416,416,416,416,416,416,416,416,416,416,415,415,414,413,412,411,405,399,385,378,369,360,353,349,349,349,349,349,349,349,349,350,351,352,353,354,356,359,363,366,368,369,372,376,379,379,381,382,384,385,386,387,388,389,390,390,390,391,392,392,392,392,392,384,366,313,273,212,114,78,53,35,22],"timestamp_mouse":[9,29,51,71,89,110,130,149,169,189,209,230,250,269,289,310,330,349,370,389,410,430,450,470,489,509,529,550,570,590,610,630,651,670,690,710,729,749,770,791,809,831,850,869,889,910,929,949,969,989,1010,1029,1050,1070,1090,1110,1129,1150,1171,1191,1209,1230,1250,1270,1290,1310,1330,1349,1369,1389,1409,1429,1449,1469,1490,1509,1530,1549,1569,1589,1610,1630,1650,1669,1691,1709,1729,1749,1770,1790,1809,1829,1849,1869,1890,1909,1930,1949,1970,1990],"xSR":741.5,"ySR":361.5,"xT1":424.9,"yT1":0,"xT2":1058.1,"yT2":0,"toosoon":0,"cond_shown":"Incongruent","ratio_trial":200,"L_num":4,"L_den":6,"R_num":14,"R_den":30,"correct_side":1,"subjID":"mariajosepolanco4","gender":"1","school":"6","age":"10"},{"start_time":1551899644469,"click_time":1551899646686,"finger_time":1551899646206,"fix_duration":883.9646194659687,"trial":2,"RT":1737,"MT":480,"sideResp":1,"stimulus":[],"xmouse":[815,815,815,815,815,815,815,815,815,815,815,815,815,815,815,815,815,815,815,815,815,815,815,815,815,815,815,815,815,815,815,815,815,815,815,815,815,815,815,815,815,815,815,815,815,815,815,815,815,815,815,815,815,815,815,815,815,815,815,815,815,815,815,815,815,815,815,815,815,815,815,815,815,815,815,815,815,815,815,815,815,813,810,805,801,797,789,786,783,778,769,729,691,666,649,634,614,610,607,606,606,600,594,584,572,559,533,526,520,517,515],"ymouse":[426,426,426,426,426,426,426,426,426,426,426,426,426,426,426,426,426,426,426,426,426,426,426,426,426,426,426,426,426,426,425,425,424,424,424,424,424,424,424,424,424,424,424,424,424,424,424,424,424,424,424,424,424,424,424,424,424,424,424,424,424,424,424,424,424,424,424,424,424,424,424,424,424,424,424,424,424,424,424,424,423,417,411,401,391,382,360,352,342,329,315,263,226,203,187,174,161,158,157,156,156,155,154,151,147,141,121,114,106,101,98],"timestamp_mouse":[17,36,57,76,96,116,138,156,176,197,217,237,257,277,297,317,337,357,377,397,417,438,456,477,497,517,537,557,576,597,617,636,657,677,696,716,736,757,777,796,816,837,857,876,897,917,936,957,977,996,1017,1036,1057,1076,1097,1116,1136,1156,1176,1197,1217,1237,1256,1277,1297,1316,1336,1356,1376,1397,1417,1436,1457,1477,1496,1517,1536,1557,1576,1598,1617,1636,1657,1676,1697,1717,1737,1756,1777,1796,1816,1836,1856,1877,1896,1917,1937,1956,1977,1997,2016,2036,2057,2077,2098,2117,2136,2157,2177,2196,2216],"xSR":741.5,"ySR":361.5,"xT1":424.9,"yT1":0,"xT2":1058.1,"yT2":0,"toosoon":0,"cond_shown":"Incongruent","ratio_trial":200,"L_num":3,"L_den":4,"R_num":11,"R_den":20,"correct_side":1,"subjID":"mariajosepolanco4","gender":"1","school":"6","age":"10"},{"start_time":1551899649881,"click_time":1551899651945,"finger_time":1551899651025,"fix_duration":1354.1525878153464,"trial":3,"RT":1144,"MT":920,"sideResp":1,"stimulus":[],"xmouse":[793,793,793,793,793,793,793,793,793,793,793,793,793,793,793,793,793,793,793,793,793,793,793,793,793,793,793,793,793,793,793,793,793,793,793,793,793,793,793,793,793,793,797,797,797,797,797,797,798,797,796,793,788,786,783,777,752,724,686,645,616,603,603,603,609,612,613,613,614,614,615,617,623,628,632,633,636,644,650,658,664,677,679,684,688,690,698,702,704,708,710,713,713,713,713,713,712,701,672,632,596,574,540,520],"ymouse":[417,417,417,417,417,417,417,417,417,417,417,417,417,417,417,417,417,417,417,417,417,417,417,417,417,417,417,417,417,416,413,412,410,409,407,406,404,404,404,404,404,403,403,403,403,403,403,403,402,401,401,399,396,395,393,391,382,374,363,352,343,340,340,340,340,340,340,340,340,340,340,340,340,341,342,342,343,346,348,350,351,353,353,354,354,355,355,355,354,350,345,337,321,307,296,281,249,227,187,153,133,121,105,98],"timestamp_mouse":[9,24,44,64,84,104,125,144,164,184,206,224,244,264,284,304,324,345,364,385,404,424,445,465,485,505,525,545,565,584,605,624,645,664,684,704,724,745,764,784,804,824,845,864,885,905,924,944,966,984,1004,1024,1046,1064,1086,1105,1125,1144,1164,1184,1204,1224,1245,1264,1285,1305,1325,1345,1365,1384,1404,1424,1445,1464,1485,1505,1524,1544,1564,1585,1604,1625,1645,1664,1684,1705,1725,1744,1765,1784,1804,1825,1845,1864,1885,1905,1925,1945,1966,1985,2004,2025,2044,2064],"xSR":741.5,"ySR":361.5,"xT1":424.9,"yT1":0,"xT2":1058.1,"yT2":0,"toosoon":0,"cond_shown":"Incongruent","ratio_trial":300,"L_num":3,"L_den":6,"R_num":4,"R_den":20,"correct_side":1,"subjID":"mariajosepolanco4","gender":"1","school":"6","age":"10"},{"start_time":1551899656138,"click_time":1551899658326,"finger_time":1551899658045,"fix_duration":250,"trial":4,"RT":1907,"MT":281,"sideResp":2,"stimulus":[],"xmouse":[775,775,775,775,775,775,775,775,775,775,775,775,775,775,775,775,775,775,775,775,775,776,776,776,776,776,776,776,776,776,776,776,776,776,776,776,776,776,776,776,776,776,776,776,776,776,776,776,776,776,776,776,776,776,776,776,776,776,776,776,776,776,776,776,776,776,776,776,776,776,776,776,776,776,776,776,776,776,776,776,776,776,776,776,776,776,776,776,776,776,776,777,778,781,794,800,805,807,816,839,856,881,900,916,943,961,977,1016,1047,1075],"ymouse":[386,386,386,386,386,386,386,386,386,386,386,386,386,386,386,386,386,386,386,386,386,386,386,386,386,386,386,386,386,386,386,386,386,386,386,386,386,386,386,386,386,386,386,386,386,386,386,386,386,386,386,386,386,386,386,386,386,386,386,386,386,386,386,386,386,386,386,386,386,386,386,386,386,386,386,386,386,386,386,386,386,386,386,386,386,386,386,386,386,386,386,386,385,382,366,359,352,349,338,316,301,284,272,262,241,227,209,167,132,99],"timestamp_mouse":[9,32,47,68,88,107,128,147,168,188,207,227,248,269,288,307,328,347,367,387,407,427,448,468,488,508,527,547,567,589,608,629,648,667,688,708,727,748,768,789,808,828,849,868,888,908,927,947,967,987,1007,1027,1048,1069,1087,1107,1129,1149,1168,1187,1208,1228,1247,1267,1287,1307,1327,1347,1367,1387,1407,1427,1447,1467,1489,1508,1527,1548,1568,1588,1607,1627,1647,1667,1689,1707,1727,1748,1769,1788,1807,1827,1848,1867,1887,1907,1928,1948,1967,1987,2007,2028,2048,2067,2087,2107,2129,2148,2167,2188],"xSR":741.5,"ySR":361.5,"xT1":424.9,"yT1":0,"xT2":1058.1,"yT2":0,"toosoon":0,"cond_shown":"Incongruent","ratio_trial":200,"L_num":1,"L_den":3,"R_num":2,"R_den":15,"correct_side":1,"subjID":"mariajosepolanco4","gender":"1","school":"6","age":"10"},{"start_time":1551899660483,"click_time":1551899662686,"finger_time":1551899662265,"fix_duration":496.7353919359685,"trial":5,"RT":1782,"MT":421,"sideResp":1,"stimulus":[],"xmouse":[756,756,756,756,756,756,756,756,757,758,758,758,758,758,758,758,758,758,758,758,758,758,758,758,758,758,758,758,758,758,758,758,758,758,758,758,758,758,758,758,758,758,758,758,758,758,758,758,758,758,758,758,758,758,758,758,758,758,758,758,758,758,758,758,758,758,758,758,758,758,758,758,758,758,758,758,758,758,758,758,758,758,758,758,758,758,758,758,758,758,758,757,748,744,735,725,711,687,672,660,645,625,584,572,561,551,541,530,505,500,498],"ymouse":[367,367,367,367,367,367,367,367,367,369,369,369,370,370,370,370,370,370,370,370,370,370,370,370,370,370,370,370,370,370,370,370,370,370,370,370,370,370,370,370,370,370,370,370,370,370,370,370,370,370,370,370,370,371,371,372,372,372,372,372,372,372,372,372,372,372,372,372,372,372,372,372,372,372,372,372,372,372,372,372,372,372,372,372,372,372,372,372,364,357,348,335,314,305,294,283,271,251,239,230,218,204,174,163,153,146,137,128,109,103,99],"timestamp_mouse":[11,22,42,62,82,102,123,143,162,182,204,223,242,262,282,302,323,343,363,383,403,422,442,463,483,504,523,542,562,582,603,624,643,663,682,703,723,743,762,782,802,824,843,862,882,902,923,942,962,983,1002,1024,1042,1062,1082,1102,1122,1142,1162,1183,1203,1222,1243,1263,1282,1302,1323,1343,1362,1383,1402,1423,1443,1462,1482,1503,1523,1542,1562,1583,1603,1623,1643,1663,1682,1703,1722,1742,1762,1782,1802,1823,1843,1862,1882,1903,1923,1944,1962,1982,2002,2022,2043,2062,2082,2103,2122,2143,2162,2182,2203],"xSR":741.5,"ySR":361.5,"xT1":424.9,"yT1":0,"xT2":1058.1,"yT2":0,"toosoon":0,"cond_shown":"Incongruent","ratio_trial":200,"L_num":3,"L_den":4,"R_num":11,"R_den":20,"correct_side":1,"subjID":"mariajosepolanco4","gender":"1","school":"6","age":"10"},{"start_time":1551899664957,"click_time":1551899667085,"finger_time":1551899666365,"fix_duration":310.87972989416625,"trial":6,"RT":1408,"MT":720,"sideResp":2,"stimulus":[],"xmouse":[751,751,751,751,751,751,752,752,752,752,752,752,752,752,752,752,752,752,752,752,752,752,752,752,752,752,752,752,752,752,752,752,752,752,752,752,752,752,752,752,752,752,752,752,752,752,752,752,752,752,752,752,752,752,752,752,752,752,752,752,752,752,752,752,752,752,752,753,753,759,768,782,799,826,858,867,879,889,897,912,916,920,923,926,931,934,939,942,944,950,956,966,970,974,979,983,986,991,995,1001,1005,1009,1016,1026,1044,1054,1064],"ymouse":[394,393,393,393,393,393,393,393,393,393,393,393,393,393,393,393,393,393,393,393,393,393,393,393,393,393,393,393,393,393,393,393,393,393,393,393,393,393,393,393,393,393,393,393,393,393,393,393,393,393,393,393,393,393,393,393,393,393,393,393,393,393,393,393,393,393,393,391,387,365,346,321,297,260,220,205,190,177,165,147,144,142,140,138,137,135,133,130,129,125,121,115,112,108,102,99,95,91,87,82,78,75,68,61,46,38,31],"timestamp_mouse":[12,29,48,69,89,109,129,149,169,188,208,229,248,268,288,308,329,349,368,388,408,429,449,469,488,508,528,548,568,590,608,628,648,670,689,709,729,748,769,788,809,829,849,868,888,909,929,948,968,989,1008,1029,1048,1068,1089,1109,1128,1148,1169,1189,1208,1228,1248,1269,1289,1308,1328,1348,1369,1388,1408,1429,1450,1468,1489,1508,1528,1549,1568,1589,1609,1629,1649,1669,1689,1708,1730,1749,1768,1788,1809,1828,1849,1868,1888,1908,1928,1949,1968,1988,2009,2028,2049,2068,2088,2108,2128],"xSR":741.5,"ySR":361.5,"xT1":424.9,"yT1":0,"xT2":1058.1,"yT2":0,"toosoon":0,"cond_shown":"Incongruent","ratio_trial":100,"L_num":13,"L_den":26,"R_num":6,"R_den":10,"correct_side":2,"subjID":"mariajosepolanco4","gender":"1","school":"6","age":"10"},{"start_time":1551899670107,"click_time":1551899673005,"finger_time":1551899672085,"fix_duration":620.6771192240127,"trial":7,"RT":1978,"MT":920,"sideResp":2,"stimulus":[],"xmouse":[771,771,771,771,771,771,771,771,771,771,771,771,771,771,771,771,771,771,771,771,771,771,771,771,771,771,771,771,771,771,771,771,771,771,771,771,771,771,771,771,771,771,771,771,771,771,771,771,771,771,771,771,771,771,771,771,771,771,771,771,771,771,771,771,771,771,771,771,771,771,771,771,771,771,771,771,771,771,771,771,771,771,771,771,771,771,771,771,771,771,771,771,771,771,771,771,771,772,772,773,773,773,773,773,773,773,773,773,773,773,773,773,773,773,773,773,773,773,773,773,773,774,782,795,810,820,837,844,852,861,878,890,910,920,931,943,957,978,988,1002,1024,1041,1066,1075,1083],"ymouse":[378,378,378,378,378,378,378,378,378,378,378,378,378,378,378,378,378,378,378,378,378,378,378,378,378,378,378,378,378,378,378,378,378,378,378,378,378,378,378,378,378,378,378,378,378,378,378,378,378,378,378,378,378,378,378,378,378,378,378,378,378,378,378,378,378,378,378,378,378,378,378,378,378,378,378,378,378,378,378,378,378,378,378,378,378,378,378,378,378,378,378,378,378,378,376,372,370,364,361,359,357,355,355,355,355,355,355,355,355,355,355,355,355,355,355,355,355,355,355,355,355,354,354,350,346,341,331,325,319,312,301,293,280,271,261,252,244,227,216,197,165,145,116,104,93],"timestamp_mouse":[18,39,67,79,99,118,138,159,179,198,218,240,258,278,298,319,339,358,378,399,419,438,459,479,500,519,538,558,579,599,619,639,658,678,699,719,738,758,779,798,818,838,858,879,898,919,938,959,979,998,1018,1038,1059,1079,1098,1118,1138,1158,1179,1198,1218,1239,1259,1279,1298,1318,1339,1358,1378,1398,1418,1439,1460,1478,1498,1518,1540,1559,1578,1598,1618,1639,1659,1678,1699,1720,1739,1759,1779,1799,1818,1838,1858,1878,1899,1919,1938,1958,1978,1999,2019,2040,2058,2079,2100,2119,2139,2158,2179,2198,2219,2239,2258,2279,2299,2319,2340,2359,2378,2398,2418,2438,2458,2478,2498,2518,2539,2558,2579,2599,2619,2640,2658,2678,2698,2719,2738,2758,2779,2798,2818,2839,2858,2878,2898],"xSR":741.5,"ySR":361.5,"xT1":424.9,"yT1":0,"xT2":1058.1,"yT2":0,"toosoon":0,"cond_shown":"Congruent","ratio_trial":200,"L_num":14,"L_den":28,"R_num":6,"R_den":20,"correct_side":1,"subjID":"mariajosepolanco4","gender":"1","school":"6","age":"10"},{"start_time":1551899676662,"click_time":1551899678426,"finger_time":1551899678066,"fix_duration":1435.5788225422305,"trial":8,"RT":1404,"MT":360,"sideResp":1,"stimulus":[],"xmouse":[772,773,773,773,773,773,773,773,773,773,773,773,773,773,773,773,773,773,773,773,773,773,773,773,773,773,773,773,773,773,773,773,773,773,773,773,773,773,773,773,773,773,773,773,773,773,773,773,773,773,773,773,773,773,773,773,773,773,773,773,773,773,773,773,773,773,773,773,773,767,757,727,684,641,604,573,567,563,561,559,555,554,553,552,551,543,537,530,521],"ymouse":[389,389,389,389,389,389,389,389,389,389,389,389,389,389,389,389,389,389,389,389,389,389,389,389,389,389,389,389,389,389,389,389,389,389,389,389,389,389,389,389,389,389,389,389,389,389,389,389,389,389,389,389,389,389,389,389,389,389,389,389,389,389,389,389,389,389,389,388,386,375,357,313,267,232,201,167,156,148,143,139,129,126,124,121,117,104,97,89,81],"timestamp_mouse":[10,23,51,64,83,103,124,143,163,183,203,223,243,264,283,303,324,344,364,384,405,425,443,463,483,503,525,543,564,584,605,623,643,663,685,704,723,744,764,783,804,824,844,865,883,903,925,945,964,983,1003,1023,1044,1064,1083,1103,1124,1144,1164,1183,1203,1223,1244,1263,1283,1303,1324,1344,1363,1385,1404,1425,1443,1464,1484,1503,1523,1543,1564,1584,1604,1623,1643,1664,1684,1704,1723,1743,1764],"xSR":741.5,"ySR":361.5,"xT1":424.9,"yT1":0,"xT2":1058.1,"yT2":0,"toosoon":0,"cond_shown":"Incongruent","ratio_trial":300,"L_num":2,"L_den":4,"R_num":6,"R_den":30,"correct_side":1,"subjID":"mariajosepolanco4","gender":"1","school":"6","age":"10"},{"start_time":1551899681518,"click_time":1551899684285,"finger_time":1551899683405,"fix_duration":250,"trial":9,"RT":1887,"MT":880,"sideResp":2,"stimulus":[],"xmouse":[775,775,775,775,775,775,775,775,775,775,775,775,775,775,775,775,775,775,775,775,775,775,775,775,775,775,775,775,775,775,775,775,775,775,775,775,775,775,775,775,775,775,775,775,775,775,775,775,775,775,775,775,775,775,775,775,775,775,775,775,775,775,775,775,775,775,775,775,775,775,775,775,775,775,775,775,775,775,775,775,775,775,775,775,775,775,775,775,775,775,775,775,775,775,775,777,785,790,794,796,797,797,798,800,802,804,806,808,814,822,834,849,862,883,892,899,904,905,905,905,905,906,906,911,913,918,922,930,960,980,996,1013,1029,1059,1072,1086,1092,1097,1100],"ymouse":[365,365,365,365,365,365,365,365,365,365,365,365,365,365,365,365,365,365,365,365,365,365,365,365,365,365,365,365,365,365,365,365,365,365,365,365,365,365,365,365,365,365,365,365,365,365,365,365,365,365,365,365,365,365,365,365,365,365,365,365,365,365,365,365,365,365,365,365,365,365,365,365,365,365,365,365,365,365,365,365,365,365,365,365,365,365,365,365,365,365,365,365,364,363,361,358,356,355,352,351,351,350,350,348,347,346,344,343,338,333,325,318,309,298,293,290,287,286,286,286,286,286,285,281,280,277,274,270,249,235,220,205,193,166,153,134,122,109,92],"timestamp_mouse":[9,39,48,67,87,108,127,148,168,188,207,227,247,268,289,308,327,347,368,388,408,428,448,468,488,508,527,548,568,588,607,627,647,667,687,708,728,748,768,788,808,827,847,868,887,907,928,949,968,987,1007,1027,1048,1068,1089,1108,1127,1148,1168,1188,1209,1228,1248,1269,1288,1308,1327,1347,1368,1387,1408,1427,1447,1468,1488,1508,1528,1547,1568,1587,1607,1628,1648,1669,1687,1707,1728,1749,1768,1787,1807,1827,1847,1867,1887,1907,1927,1948,1968,1987,2007,2027,2048,2067,2088,2107,2128,2147,2167,2187,2208,2228,2248,2267,2288,2307,2327,2347,2367,2387,2407,2427,2448,2467,2488,2507,2528,2548,2568,2587,2608,2628,2648,2667,2688,2707,2727,2747,2767],"xSR":741.5,"ySR":361.5,"xT1":424.9,"yT1":0,"xT2":1058.1,"yT2":0,"toosoon":0,"cond_shown":"Congruent","ratio_trial":200,"L_num":20,"L_den":25,"R_num":9,"R_den":15,"correct_side":1,"subjID":"mariajosepolanco4","gender":"1","school":"6","age":"10"},{"start_time":1551899688368,"click_time":1551899690986,"finger_time":1551899689825,"fix_duration":1181.6243224787977,"trial":10,"RT":1457,"MT":1161,"sideResp":2,"stimulus":[],"xmouse":[746,746,746,746,746,746,746,746,746,746,746,746,746,746,746,746,746,746,746,746,746,746,746,746,746,746,746,746,746,746,746,746,746,746,746,746,746,746,746,746,746,746,746,746,746,746,746,746,746,746,746,746,746,746,746,746,746,746,746,746,746,746,746,746,746,746,746,746,746,746,746,742,736,722,702,687,665,655,646,638,631,627,626,625,625,625,625,625,625,625,627,632,633,635,640,647,672,686,693,699,709,722,727,733,737,741,759,775,797,814,840,881,896,916,940,987,1140,1205,1242,1245,1245,1245,1245,1245,1241,1239,1239,1239,1239,1239,1151],"ymouse":[387,387,387,387,387,387,387,387,387,387,387,387,387,387,387,387,387,387,387,387,387,387,387,387,387,387,387,387,387,387,387,387,387,387,387,387,387,387,387,387,387,387,387,387,387,387,387,387,387,387,387,387,387,387,387,387,387,387,387,387,387,387,387,387,387,387,387,387,387,386,385,374,365,347,327,309,277,263,250,240,230,223,220,219,218,217,217,217,216,216,216,216,216,218,223,229,245,253,259,263,269,274,275,277,278,278,280,280,280,280,272,256,248,233,218,195,144,116,85,73,62,44,32,19,7,1,1,1,1,1,14],"timestamp_mouse":[20,37,64,78,97,117,137,157,177,198,217,237,257,277,297,317,338,358,377,397,417,437,458,478,497,518,538,558,578,598,617,639,658,677,698,718,738,757,778,797,817,837,857,877,897,918,937,957,977,997,1017,1038,1058,1077,1098,1118,1137,1158,1177,1197,1218,1237,1258,1277,1297,1318,1338,1359,1377,1397,1418,1437,1457,1477,1498,1517,1537,1558,1577,1597,1617,1637,1657,1677,1698,1719,1738,1757,1777,1798,1818,1837,1857,1877,1898,1917,1937,1957,1977,1998,2017,2037,2057,2077,2098,2119,2137,2158,2178,2198,2218,2237,2258,2277,2297,2317,2337,2358,2377,2398,2417,2437,2457,2477,2497,2517,2537,2557,2577,2598,2617],"xSR":741.5,"ySR":361.5,"xT1":424.9,"yT1":0,"xT2":1058.1,"yT2":0,"toosoon":0,"cond_shown":"Congruent","ratio_trial":300,"L_num":4,"L_den":10,"R_num":1,"R_den":10,"correct_side":1,"subjID":"mariajosepolanco4","gender":"1","school":"6","age":"10"},{"start_time":1551899696880,"click_time":1551899698885,"finger_time":1551899698665,"fix_duration":913.4689884640551,"trial":11,"RT":1785,"MT":220,"sideResp":1,"stimulus":[],"xmouse":[772,772,772,772,772,772,772,772,772,772,772,772,772,772,772,772,772,772,772,772,772,772,772,772,772,772,772,772,772,772,772,772,772,772,772,772,772,772,772,772,772,772,772,772,772,772,772,772,772,772,772,772,772,772,772,772,772,772,772,772,772,772,772,772,772,772,772,773,773,773,773,773,773,773,773,773,774,774,775,775,776,777,778,778,778,778,778,772,761,738,717,693,681,672,657,636,588,569,554,534,492],"ymouse":[417,417,417,417,417,417,417,417,417,417,417,417,417,417,417,417,417,417,417,417,417,417,417,417,417,417,417,417,417,417,417,417,417,417,417,417,417,417,417,417,417,417,417,417,417,417,417,417,417,417,417,417,417,417,417,417,417,417,417,417,417,417,417,417,417,417,417,417,417,417,415,415,415,415,415,415,415,414,413,412,409,408,403,402,402,402,401,392,376,349,326,279,244,225,205,183,143,128,116,101,81],"timestamp_mouse":[8,28,45,65,86,105,125,145,165,186,206,229,245,265,286,306,326,346,366,386,407,426,446,466,486,506,526,546,565,585,606,627,645,665,686,706,725,745,765,786,806,827,845,866,885,906,927,946,965,986,1005,1027,1047,1066,1085,1105,1126,1146,1166,1185,1205,1226,1245,1265,1285,1306,1326,1345,1367,1385,1405,1425,1446,1467,1486,1505,1526,1546,1566,1585,1606,1626,1646,1667,1686,1705,1725,1745,1765,1785,1805,1825,1846,1865,1886,1905,1926,1945,1966,1985,2005],"xSR":741.5,"ySR":361.5,"xT1":424.9,"yT1":0,"xT2":1058.1,"yT2":0,"toosoon":0,"cond_shown":"Incongruent","ratio_trial":200,"L_num":7,"L_den":10,"R_num":12,"R_den":24,"correct_side":1,"subjID":"mariajosepolanco4","gender":"1","school":"6","age":"10"},{"start_time":1551899700658,"click_time":1551899702845,"finger_time":1551899702365,"fix_duration":250,"trial":12,"RT":1707,"MT":480,"sideResp":2,"stimulus":[],"xmouse":[763,763,763,763,763,763,763,763,763,763,763,763,763,763,763,763,763,763,763,763,763,763,763,763,763,763,763,763,763,763,763,763,763,763,763,763,763,763,762,762,762,762,762,762,762,762,762,762,762,762,762,762,762,762,762,762,762,762,762,762,762,762,762,762,762,762,762,762,762,762,762,762,762,762,762,762,762,762,762,762,762,763,767,781,795,807,819,836,885,964,1000,1084,1113,1136,1147,1161,1173,1182,1192,1193,1191,1186,1180,1161,1153,1147,1143,1140,1138,1138],"ymouse":[373,373,373,373,373,373,373,373,373,373,373,373,373,373,373,373,373,373,373,373,373,373,373,373,373,373,373,373,373,373,373,373,373,373,373,373,373,373,373,373,373,373,373,373,373,373,373,373,373,373,373,373,373,373,373,373,373,373,373,373,373,373,373,373,373,373,373,373,373,373,373,373,373,373,373,373,373,373,373,373,373,373,371,366,362,357,352,348,333,310,297,266,253,235,225,214,204,195,175,163,156,147,141,126,118,113,109,106,100,99],"timestamp_mouse":[9,28,47,69,87,107,129,147,167,187,208,228,247,267,288,308,328,347,368,388,408,427,448,467,489,508,527,547,568,589,607,627,648,669,687,707,728,748,768,787,807,828,848,869,888,908,928,947,969,988,1008,1028,1049,1068,1088,1108,1128,1149,1168,1188,1208,1228,1247,1268,1287,1307,1328,1348,1369,1388,1407,1428,1447,1469,1488,1507,1527,1548,1567,1587,1608,1628,1648,1667,1687,1707,1727,1748,1767,1787,1808,1829,1848,1867,1887,1908,1928,1947,1968,1988,2007,2027,2047,2067,2087,2107,2127,2147,2168,2187],"xSR":741.5,"ySR":361.5,"xT1":424.9,"yT1":0,"xT2":1058.1,"yT2":0,"toosoon":0,"cond_shown":"Incongruent","ratio_trial":200,"L_num":6,"L_den":20,"R_num":3,"R_den":6,"correct_side":2,"subjID":"mariajosepolanco4","gender":"1","school":"6","age":"10"},{"start_time":1551899705729,"click_time":1551899707306,"finger_time":1551899706166,"fix_duration":441.75513539016777,"trial":13,"RT":437,"MT":1140,"sideResp":2,"stimulus":[],"xmouse":[765,765,765,765,765,765,765,765,765,765,765,765,765,765,765,765,765,765,765,765,765,766,766,766,766,766,766,766,766,766,766,766,766,766,766,766,766,766,766,766,766,766,766,766,766,766,766,766,766,766,766,766,766,766,766,767,769,774,780,795,837,857,869,873,880,891,897,902,906,912,929,942,957,974,1002,1039,1054,1071,1092],"ymouse":[362,362,362,362,362,362,362,362,362,362,362,362,362,362,362,362,362,362,362,362,362,361,361,361,361,361,361,361,361,361,361,361,361,361,361,361,361,361,361,361,361,361,361,361,361,361,361,361,361,361,361,361,361,361,361,359,357,356,353,347,335,332,328,326,321,309,303,296,291,281,250,231,213,196,172,139,120,101,83],"timestamp_mouse":[16,36,59,76,97,118,137,157,176,196,217,238,257,276,296,317,337,356,377,397,417,437,456,476,497,516,536,556,577,597,617,637,658,677,697,716,737,756,777,798,818,836,856,876,898,917,937,957,978,996,1016,1037,1056,1076,1097,1116,1136,1156,1176,1197,1216,1238,1257,1277,1296,1316,1336,1358,1377,1398,1418,1436,1457,1477,1496,1516,1536,1556,1577],"xSR":741.5,"ySR":361.5,"xT1":424.9,"yT1":0,"xT2":1058.1,"yT2":0,"toosoon":0,"cond_shown":"Congruent","ratio_trial":200,"L_num":13,"L_den":26,"R_num":14,"R_den":20,"correct_side":2,"subjID":"mariajosepolanco4","gender":"1","school":"6","age":"10"},{"start_time":1551899714645,"click_time":1551899718565,"finger_time":1551899716026,"fix_duration":317.2447837587977,"trial":14,"RT":1381,"MT":2539,"sideResp":2,"stimulus":[],"xmouse":[754,754,754,754,754,754,754,754,754,754,754,754,754,754,754,754,754,754,754,754,754,754,754,754,754,754,754,754,754,754,754,754,754,754,754,754,754,754,754,754,754,754,754,754,754,754,754,754,754,754,754,754,754,754,754,754,754,754,754,754,754,754,754,754,754,754,752,749,744,736,686,675,654,636,623,614,610,609,609,608,606,604,604,604,604,604,604,606,607,610,612,616,618,619,620,625,632,634,636,639,642,651,655,659,662,667,678,689,702,718,737,774,792,808,835,853,886,904,916,925,929,937,939,940,940,940,941,941,941,941,941,941,941,941,941,939,933,929,922,916,909,888,873,855,841,816,765,726,683,638,612,581,577,572,568,567,567,566,566,565,564,562,562,561,561,561,561,561,561,560,569,640,663,686,700,714,743,757,776,797,810,818,823,832,843,867,936,977,993,1008,1018,1031,1037,1043,1051,1057,1069],"ymouse":[421,421,421,421,421,421,421,421,421,421,421,421,421,421,421,421,421,421,421,421,421,421,421,421,421,422,422,422,422,422,422,422,422,422,422,422,422,422,422,422,422,422,422,422,422,422,422,422,422,422,422,422,422,422,422,422,422,422,422,422,422,422,422,422,422,422,413,399,383,362,287,275,248,231,216,203,189,187,184,181,179,176,176,176,176,176,176,177,179,183,189,197,200,203,206,209,212,213,214,216,217,220,221,223,224,226,228,230,231,234,236,236,236,234,231,227,217,213,207,203,200,196,195,195,195,195,194,194,194,194,194,194,194,194,194,194,194,194,194,193,193,191,189,186,183,174,152,133,114,98,88,80,80,79,78,78,78,78,78,78,77,77,77,76,76,76,76,76,76,76,82,102,109,115,117,118,114,104,89,76,70,68,67,65,64,63,78,89,95,99,100,102,102,102,98,95,87],"timestamp_mouse":[9,20,41,65,81,101,121,141,161,181,200,221,241,260,280,300,320,340,361,381,400,420,440,461,480,500,520,540,561,581,601,621,640,660,681,700,720,740,760,781,801,820,840,861,881,901,920,940,960,980,1002,1021,1040,1060,1080,1101,1121,1141,1160,1180,1201,1221,1240,1261,1281,1301,1320,1340,1361,1381,1406,1420,1440,1461,1482,1500,1521,1540,1560,1580,1600,1620,1640,1660,1680,1700,1721,1740,1760,1780,1800,1820,1840,1860,1880,1900,1920,1940,1960,1980,2000,2020,2040,2060,2082,2101,2121,2141,2160,2180,2201,2220,2241,2261,2281,2300,2320,2340,2362,2381,2400,2420,2440,2460,2481,2500,2520,2540,2560,2580,2600,2620,2641,2661,2680,2700,2720,2740,2760,2780,2801,2821,2840,2860,2880,2901,2921,2941,2960,2980,3001,3021,3040,3060,3080,3100,3120,3141,3160,3180,3200,3220,3242,3260,3280,3300,3320,3340,3360,3380,3400,3420,3441,3460,3481,3501,3520,3540,3560,3581,3600,3620,3640,3660,3682,3701,3720,3740,3760,3780,3801,3820,3840,3860,3880,3901,3920],"xSR":741.5,"ySR":361.5,"xT1":424.9,"yT1":0,"xT2":1058.1,"yT2":0,"toosoon":0,"cond_shown":"Congruent","ratio_trial":100,"L_num":7,"L_den":14,"R_num":15,"R_den":25,"correct_side":2,"subjID":"mariajosepolanco4","gender":"1","school":"6","age":"10"},{"start_time":1551899721382,"click_time":1551899723146,"finger_time":1551899722826,"fix_duration":274.7703012522567,"trial":15,"RT":1444,"MT":320,"sideResp":1,"stimulus":[],"xmouse":[784,784,784,784,784,784,784,784,784,784,784,784,784,784,784,784,784,784,784,784,784,784,784,784,784,784,784,784,784,784,784,784,784,784,784,784,784,784,784,784,784,784,784,784,784,784,784,784,784,784,784,784,784,784,784,784,784,784,784,784,784,784,784,784,784,784,784,784,784,783,778,769,758,743,713,697,683,672,661,649,645,640,622,602,550,538,532,526,518],"ymouse":[401,401,401,401,401,401,401,401,401,401,401,401,401,401,401,401,401,401,401,401,401,401,401,401,401,401,401,401,401,401,401,401,401,401,401,401,401,401,401,401,401,401,401,401,401,401,401,401,401,401,401,401,401,401,401,401,401,401,401,401,401,401,401,401,401,401,401,401,401,399,390,377,360,336,235,175,145,124,109,97,94,90,79,68,47,46,46,46,46],"timestamp_mouse":[9,23,44,65,84,103,125,144,164,184,203,224,243,263,284,304,324,344,363,383,404,423,443,463,483,504,523,543,563,584,605,623,644,663,684,704,723,743,763,783,803,823,844,864,884,905,924,944,964,983,1003,1023,1044,1063,1083,1104,1123,1144,1164,1184,1203,1223,1244,1264,1284,1304,1324,1343,1364,1383,1403,1423,1444,1464,1484,1503,1523,1543,1564,1584,1603,1623,1643,1664,1685,1703,1723,1744,1764],"xSR":741.5,"ySR":361.5,"xT1":424.9,"yT1":0,"xT2":1058.1,"yT2":0,"toosoon":0,"cond_shown":"Incongruent","ratio_trial":300,"L_num":4,"L_den":5,"R_num":8,"R_den":16,"correct_side":1,"subjID":"mariajosepolanco4","gender":"1","school":"6","age":"10"},{"start_time":1551899727051,"click_time":1551899730786,"finger_time":1551899730386,"fix_duration":1063.2502863312839,"trial":16,"RT":3335,"MT":400,"sideResp":1,"stimulus":[],"xmouse":[793,793,793,793,793,793,793,793,793,793,793,793,793,793,793,793,793,793,793,793,793,793,793,793,793,793,793,793,793,793,793,793,793,793,793,793,793,793,793,793,793,793,793,793,793,793,793,793,793,793,793,793,793,793,793,793,793,793,793,793,793,793,793,793,793,793,793,793,793,793,793,793,793,793,793,793,793,793,793,793,793,793,793,793,793,793,793,793,793,793,793,793,793,793,793,793,793,793,793,793,793,793,793,793,793,793,793,793,793,793,793,793,793,793,793,793,793,793,793,793,793,793,793,793,793,793,793,793,793,793,793,793,793,793,793,793,793,793,793,793,793,793,793,793,793,793,793,793,794,794,794,794,794,794,794,794,794,793,791,789,786,781,780,777,772,762,706,667,628,595,571,555,531,522,510,500,488,488,488,488,488,486,484,483,483,483,482],"ymouse":[418,418,418,418,418,418,418,418,418,418,418,418,418,418,418,418,418,418,418,418,418,418,418,418,418,418,418,418,418,418,418,418,418,418,418,418,418,418,418,418,418,418,418,418,418,418,418,418,418,418,418,418,418,418,418,418,418,418,418,418,418,418,418,418,418,418,418,418,418,418,418,418,418,418,418,418,418,418,418,418,418,418,418,418,418,418,418,418,418,418,418,418,418,418,418,418,418,418,418,418,418,418,418,418,418,418,418,418,418,418,418,418,418,418,418,418,418,418,418,418,418,418,418,418,418,418,418,418,418,418,418,418,418,418,418,418,418,418,418,418,418,418,418,418,418,418,418,418,418,418,417,415,412,411,410,409,408,405,401,397,393,386,384,380,374,366,324,296,274,252,237,225,199,182,164,150,134,132,132,131,128,118,112,107,102,100,92],"timestamp_mouse":[16,43,55,74,95,115,135,155,174,194,214,234,255,275,294,314,335,354,375,395,414,436,455,474,495,515,535,554,576,594,615,634,655,675,694,714,734,756,774,795,815,834,854,875,894,915,936,955,975,994,1014,1034,1055,1075,1094,1114,1134,1154,1174,1194,1214,1235,1255,1274,1296,1315,1334,1355,1375,1394,1415,1436,1455,1475,1494,1514,1535,1555,1574,1594,1615,1635,1655,1675,1695,1715,1735,1755,1775,1795,1815,1834,1854,1875,1894,1914,1934,1955,1976,1994,2014,2034,2054,2075,2094,2114,2134,2154,2175,2195,2214,2234,2256,2274,2294,2314,2334,2354,2375,2395,2414,2434,2456,2475,2494,2514,2534,2554,2575,2595,2615,2634,2655,2674,2694,2714,2734,2754,2775,2794,2814,2835,2855,2876,2894,2914,2934,2954,2974,2994,3015,3034,3054,3075,3094,3114,3134,3156,3174,3194,3215,3235,3255,3274,3294,3314,3335,3356,3374,3394,3414,3435,3454,3474,3494,3514,3535,3554,3574,3594,3614,3635,3654,3674,3694,3715,3735],"xSR":741.5,"ySR":361.5,"xT1":424.9,"yT1":0,"xT2":1058.1,"yT2":0,"toosoon":0,"cond_shown":"Congruent","ratio_trial":100,"L_num":6,"L_den":20,"R_num":5,"R_den":25,"correct_side":1,"subjID":"mariajosepolanco4","gender":"1","school":"6","age":"10"},{"start_time":1551899732797,"click_time":1551899735125,"finger_time":1551899734805,"fix_duration":690.5405735605761,"trial":17,"RT":2008,"MT":320,"sideResp":2,"stimulus":[],"xmouse":[797,797,797,797,797,797,797,797,797,797,797,797,797,797,797,797,797,797,797,797,797,797,797,797,797,797,797,797,797,797,797,797,798,798,798,798,798,798,798,798,798,798,798,798,798,798,798,798,798,798,798,798,798,798,798,798,798,798,798,798,798,798,798,798,798,798,798,798,798,798,798,798,798,798,798,798,798,798,798,798,798,798,798,798,798,798,800,801,802,802,804,804,804,804,804,806,810,818,829,835,858,877,905,943,1003,1020,1034,1047,1061,1066,1071,1074,1078,1081,1082,1085,1086],"ymouse":[406,406,406,406,406,406,406,406,406,406,406,406,406,406,406,406,406,406,406,406,406,406,406,406,406,406,406,406,406,406,406,406,406,406,406,406,406,406,406,406,406,406,406,406,406,406,406,406,406,406,405,405,405,405,405,405,405,404,404,404,403,403,403,403,403,403,403,403,403,403,403,403,403,403,403,403,403,403,403,403,403,403,403,403,403,403,400,398,397,396,394,394,394,394,394,393,392,388,378,369,337,318,293,262,205,185,169,153,136,129,125,124,123,119,115,102,99],"timestamp_mouse":[9,35,49,70,89,108,129,148,168,189,214,228,248,268,288,308,329,348,369,389,409,428,448,469,490,508,528,548,568,589,608,628,648,669,688,709,730,749,768,788,808,829,848,869,889,908,929,950,969,989,1008,1029,1049,1068,1088,1109,1129,1149,1168,1188,1209,1228,1248,1268,1288,1308,1328,1348,1369,1389,1409,1429,1449,1469,1489,1509,1528,1548,1568,1588,1608,1628,1648,1669,1690,1708,1728,1748,1769,1788,1809,1828,1849,1868,1888,1908,1929,1949,1969,1988,2008,2028,2048,2068,2090,2108,2129,2149,2168,2188,2208,2228,2248,2269,2290,2308,2328],"xSR":741.5,"ySR":361.5,"xT1":424.9,"yT1":0,"xT2":1058.1,"yT2":0,"toosoon":0,"cond_shown":"Congruent","ratio_trial":200,"L_num":1,"L_den":2,"R_num":21,"R_den":30,"correct_side":2,"subjID":"mariajosepolanco4","gender":"1","school":"6","age":"10"},{"start_time":1551899739056,"click_time":1551899741246,"finger_time":1551899740926,"fix_duration":409.6293536101827,"trial":18,"RT":1870,"MT":320,"sideResp":1,"stimulus":[],"xmouse":[772,772,772,772,772,772,772,772,772,772,772,772,772,772,772,772,772,772,772,772,772,772,772,772,772,772,772,772,772,772,772,772,772,772,772,772,772,772,772,772,772,772,772,772,772,772,772,772,772,772,772,772,772,772,772,772,772,772,772,772,772,772,772,772,772,772,772,772,772,772,772,772,772,772,772,772,772,772,772,772,772,772,772,772,772,772,772,772,772,770,768,761,751,671,611,542,479,398,379,369,366,364,364,364,365,371,381,394,424,429],"ymouse":[410,410,410,410,410,410,410,410,410,410,410,410,410,410,410,410,410,410,410,410,410,410,410,410,410,410,410,410,410,410,410,410,410,410,410,410,410,410,410,410,410,410,410,410,410,410,410,410,410,410,410,410,410,410,410,410,410,410,410,410,410,410,410,410,410,410,410,410,410,410,410,410,410,410,410,410,410,410,410,410,410,410,410,410,410,410,410,410,410,406,401,391,377,297,253,203,158,86,69,57,48,43,37,26,24,22,21,20,20,20],"timestamp_mouse":[11,31,49,69,90,110,129,149,169,189,210,230,249,269,290,310,329,349,369,389,410,429,449,470,490,510,529,549,569,589,609,630,649,669,691,710,730,750,769,789,810,830,849,869,889,910,930,950,969,989,1009,1030,1050,1069,1089,1109,1129,1149,1170,1190,1209,1230,1250,1270,1290,1309,1331,1350,1370,1389,1409,1430,1450,1469,1490,1509,1530,1550,1569,1589,1610,1629,1649,1669,1689,1710,1730,1749,1769,1789,1810,1829,1849,1870,1889,1909,1930,1951,1969,1989,2010,2030,2049,2069,2089,2109,2129,2149,2170,2190],"xSR":741.5,"ySR":361.5,"xT1":424.9,"yT1":0,"xT2":1058.1,"yT2":0,"toosoon":0,"cond_shown":"Incongruent","ratio_trial":300,"L_num":3,"L_den":6,"R_num":4,"R_den":20,"correct_side":1,"subjID":"mariajosepolanco4","gender":"1","school":"6","age":"10"},{"start_time":1551899743459,"click_time":1551899745086,"finger_time":1551899744607,"fix_duration":692.7151286777962,"trial":19,"RT":1148,"MT":479,"sideResp":2,"stimulus":[],"xmouse":[784,784,784,784,784,784,784,784,784,784,784,784,784,784,784,784,784,784,784,784,784,784,784,784,784,784,784,784,784,784,784,784,784,784,784,784,784,784,784,784,784,784,784,784,784,784,784,784,784,784,784,784,786,791,797,802,809,828,841,867,884,895,902,913,923,938,952,962,978,986,990,1005,1014,1032,1036,1041,1044,1047,1053,1056,1058,1059],"ymouse":[421,421,421,421,421,421,421,421,421,421,421,421,421,421,421,421,421,421,421,421,421,421,421,421,421,421,421,421,421,421,421,421,421,421,421,421,421,421,421,421,421,421,421,421,421,421,421,421,421,421,420,417,412,400,392,382,370,341,329,309,296,286,279,265,254,241,225,214,192,177,170,146,132,108,98,90,81,76,67,64,62,61],"timestamp_mouse":[11,36,46,67,86,107,126,147,167,187,207,226,246,266,287,308,326,346,367,386,406,426,447,467,486,507,527,547,567,587,606,626,647,666,687,707,727,747,766,786,806,827,846,867,886,907,927,947,966,986,1006,1027,1046,1067,1086,1107,1127,1148,1166,1188,1206,1227,1246,1267,1286,1307,1326,1348,1367,1387,1406,1426,1447,1467,1487,1506,1526,1547,1566,1587,1606,1627],"xSR":741.5,"ySR":361.5,"xT1":424.9,"yT1":0,"xT2":1058.1,"yT2":0,"toosoon":0,"cond_shown":"Incongruent","ratio_trial":300,"L_num":4,"L_den":20,"R_num":2,"R_den":4,"correct_side":2,"subjID":"mariajosepolanco4","gender":"1","school":"6","age":"10"},{"start_time":1551899747897,"click_time":1551899751467,"finger_time":1551899751187,"fix_duration":1470.0718735411635,"trial":20,"RT":3290,"MT":280,"sideResp":2,"stimulus":[],"xmouse":[813,813,813,813,813,813,813,813,813,813,813,813,813,813,813,813,813,813,813,813,813,813,813,813,813,813,813,813,813,813,813,813,813,813,813,813,813,813,813,813,813,813,813,813,813,812,812,812,812,812,812,812,812,812,812,812,812,812,812,812,812,812,812,812,812,812,812,812,812,812,812,812,812,812,812,812,812,812,812,812,812,812,812,812,812,812,812,812,812,812,812,812,812,812,812,812,812,812,812,812,812,812,812,812,812,812,812,812,812,812,812,812,812,812,812,812,812,812,812,812,812,812,812,812,812,812,812,812,812,812,812,812,812,812,812,812,812,812,812,812,812,812,812,812,812,812,812,812,812,812,812,812,812,812,812,812,811,812,816,821,827,832,838,841,845,849,867,875,883,895,906,920,952,981,1011,1033,1055,1072,1077],"ymouse":[402,402,402,402,402,402,402,402,402,402,402,402,402,402,402,402,402,402,402,402,402,402,402,402,402,402,402,402,402,402,402,402,402,402,402,402,402,402,402,402,402,402,402,402,402,402,402,402,402,402,402,402,402,402,402,402,402,402,402,402,402,402,402,402,402,402,402,402,402,402,402,402,402,402,402,402,402,402,402,402,402,402,402,402,402,402,402,402,402,402,402,402,402,402,402,402,402,402,402,402,402,402,402,402,402,402,402,402,402,402,402,402,402,402,402,402,402,402,402,402,402,402,402,402,402,402,402,402,402,402,402,402,402,402,402,402,402,402,402,402,402,402,402,402,402,402,402,402,402,402,402,402,402,402,402,402,402,399,396,389,382,375,366,362,355,349,323,311,299,285,271,255,214,190,165,146,126,106,98],"timestamp_mouse":[8,30,48,69,89,108,128,148,169,189,210,228,249,269,289,309,329,349,368,389,408,429,448,468,490,510,531,550,570,590,610,630,651,670,690,710,730,750,771,790,810,830,850,871,890,910,930,950,971,990,1010,1030,1050,1070,1090,1110,1130,1150,1171,1190,1210,1230,1252,1271,1290,1310,1330,1351,1370,1391,1410,1430,1451,1470,1490,1510,1530,1550,1570,1590,1610,1630,1650,1670,1690,1710,1730,1750,1770,1791,1810,1830,1850,1870,1890,1910,1930,1950,1971,1990,2010,2030,2050,2071,2092,2110,2130,2150,2170,2190,2211,2230,2250,2271,2290,2310,2331,2350,2370,2391,2410,2430,2451,2470,2490,2511,2531,2550,2571,2590,2610,2630,2650,2670,2690,2710,2731,2751,2772,2792,2810,2831,2850,2871,2890,2910,2930,2950,2970,2991,3010,3031,3050,3072,3091,3111,3130,3150,3170,3190,3210,3231,3250,3271,3290,3310,3332,3350,3370,3390,3410,3430,3450,3471,3490,3511,3530,3550,3570],"xSR":741.5,"ySR":361.5,"xT1":424.9,"yT1":0,"xT2":1058.1,"yT2":0,"toosoon":0,"cond_shown":"Congruent","ratio_trial":100,"L_num":4,"L_den":10,"R_num":15,"R_den":30,"correct_side":2,"subjID":"mariajosepolanco4","gender":"1","school":"6","age":"10"},{"start_time":1551899753162,"click_time":1551899754787,"finger_time":1551899754527,"fix_duration":753.7418691167479,"trial":21,"RT":1365,"MT":260,"sideResp":2,"stimulus":[],"xmouse":[809,809,809,809,809,809,809,809,809,809,809,809,809,809,809,809,809,809,809,809,809,809,809,809,809,809,809,809,809,809,809,809,809,809,809,809,809,809,809,809,809,809,809,809,809,809,809,809,809,809,809,809,809,809,809,809,809,809,809,809,809,809,809,809,809,809,817,826,849,898,951,989,1024,1051,1073,1081,1085,1092,1093,1100,1101,1105],"ymouse":[398,398,398,398,398,398,398,398,398,398,398,398,398,398,398,398,398,398,398,398,398,398,398,398,398,398,398,398,398,398,398,398,398,398,398,398,398,398,398,398,398,398,398,398,398,398,398,398,398,398,398,398,398,398,398,398,398,398,398,398,398,398,398,398,398,398,393,387,370,312,240,197,158,137,117,112,110,108,106,102,101,98],"timestamp_mouse":[9,37,46,65,86,105,125,145,165,185,205,225,245,265,285,305,325,345,365,385,405,425,445,465,485,505,525,545,565,586,605,626,645,665,685,705,725,745,765,787,805,825,845,867,885,905,926,945,965,986,1005,1026,1045,1065,1085,1105,1126,1145,1165,1186,1206,1226,1246,1265,1285,1305,1326,1345,1365,1384,1405,1425,1445,1465,1486,1510,1525,1545,1565,1585,1605,1625],"xSR":741.5,"ySR":361.5,"xT1":424.9,"yT1":0,"xT2":1058.1,"yT2":0,"toosoon":0,"cond_shown":"Congruent","ratio_trial":300,"L_num":1,"L_den":30,"R_num":8,"R_den":24,"correct_side":2,"subjID":"mariajosepolanco4","gender":"1","school":"6","age":"10"},{"start_time":1551899756623,"click_time":1551899758207,"finger_time":1551899757927,"fix_duration":594.3716386445816,"trial":22,"RT":1304,"MT":280,"sideResp":2,"stimulus":[],"xmouse":[788,788,788,788,788,788,788,788,788,788,788,788,788,788,788,788,788,788,788,788,788,788,788,788,788,788,788,788,788,788,788,788,788,788,788,788,788,788,788,788,788,788,788,788,788,788,788,788,788,788,788,788,788,788,788,788,788,788,788,788,788,788,788,805,815,834,863,885,899,914,930,949,992,1010,1028,1045,1072,1079,1086,1092],"ymouse":[378,378,378,378,378,378,378,378,378,378,378,378,378,378,378,378,378,378,378,378,378,378,378,378,378,378,378,378,378,378,378,378,378,378,378,378,378,378,378,378,378,378,378,378,378,378,378,378,378,378,378,378,378,378,378,378,378,378,378,378,378,378,378,371,365,352,317,292,277,263,253,241,212,197,180,161,124,113,103,93],"timestamp_mouse":[9,25,44,71,84,104,124,144,164,184,204,224,245,264,284,304,324,344,365,385,404,424,444,464,485,504,524,544,564,584,604,624,644,664,684,704,724,744,764,784,804,824,845,865,884,905,924,944,965,984,1004,1025,1044,1064,1084,1104,1124,1144,1164,1184,1204,1224,1244,1264,1284,1304,1325,1344,1364,1385,1404,1425,1444,1464,1484,1504,1525,1544,1564,1584],"xSR":741.5,"ySR":361.5,"xT1":424.9,"yT1":0,"xT2":1058.1,"yT2":0,"toosoon":0,"cond_shown":"Incongruent","ratio_trial":300,"L_num":13,"L_den":26,"R_num":12,"R_den":15,"correct_side":2,"subjID":"mariajosepolanco4","gender":"1","school":"6","age":"10"},{"start_time":1551899760683,"click_time":1551899762368,"finger_time":1551899762067,"fix_duration":1233.6645512936648,"trial":23,"RT":1384,"MT":301,"sideResp":2,"stimulus":[],"xmouse":[810,810,810,810,810,810,810,810,810,810,810,810,810,810,810,810,810,810,810,810,810,810,810,810,810,810,810,810,810,810,810,810,810,810,810,810,810,810,810,810,810,810,810,810,810,810,810,810,810,810,810,810,810,810,810,810,810,810,810,810,810,810,810,810,810,810,811,816,832,869,885,897,921,939,978,993,1002,1010,1018,1030,1042,1048,1053,1056,1061],"ymouse":[405,405,405,405,405,405,405,405,405,405,405,405,405,405,405,405,405,405,405,405,405,405,405,405,405,405,405,405,405,405,405,405,405,405,405,405,405,405,405,405,405,405,405,405,405,405,405,405,405,405,405,405,405,405,405,405,405,405,405,405,405,405,405,405,405,405,405,400,390,356,336,319,290,271,234,223,211,192,182,157,130,116,105,96,86],"timestamp_mouse":[8,24,44,64,84,104,124,144,164,184,204,224,244,264,284,304,324,345,364,385,404,424,444,465,485,504,524,544,565,585,604,624,644,664,684,704,724,744,764,785,804,824,844,864,884,904,924,945,964,984,1004,1024,1044,1064,1084,1104,1124,1144,1164,1184,1205,1224,1244,1264,1284,1304,1324,1344,1364,1384,1405,1424,1444,1465,1484,1505,1525,1544,1564,1584,1604,1624,1644,1664,1684],"xSR":741.5,"ySR":361.5,"xT1":424.9,"yT1":0,"xT2":1058.1,"yT2":0,"toosoon":0,"cond_shown":"Incongruent","ratio_trial":300,"L_num":13,"L_den":26,"R_num":12,"R_den":15,"correct_side":2,"subjID":"mariajosepolanco4","gender":"1","school":"6","age":"10"},{"start_time":1551899763686,"click_time":1551899765987,"finger_time":1551899765647,"fix_duration":456.5523821381817,"trial":24,"RT":1961,"MT":340,"sideResp":2,"stimulus":[],"xmouse":[810,810,810,810,810,810,810,810,810,810,810,810,810,810,810,810,810,810,810,810,810,810,810,810,810,810,810,810,810,810,810,810,810,810,810,810,810,810,810,810,810,810,810,810,810,810,810,810,810,810,810,809,809,809,809,809,809,809,809,809,808,808,807,807,807,807,807,807,807,807,807,807,807,807,807,807,807,807,807,807,807,807,807,807,807,807,807,807,807,807,807,807,807,807,807,810,820,837,857,932,1008,1063,1107,1140,1171,1183,1191,1203,1210,1214,1214,1214,1214,1214,1191,1120],"ymouse":[409,409,409,409,409,409,409,409,409,409,409,409,409,409,409,409,409,409,409,409,409,409,409,409,409,409,409,409,409,409,409,409,409,409,409,409,409,409,409,409,409,409,409,409,409,409,409,409,409,409,409,409,409,409,409,409,409,409,409,409,409,409,409,409,409,409,409,409,409,409,409,409,409,409,409,409,409,409,409,409,409,409,409,409,409,409,409,409,409,409,409,409,409,409,409,404,394,380,361,279,218,181,149,124,91,75,65,52,41,26,25,25,25,25,25,25],"timestamp_mouse":[9,21,42,62,81,101,121,141,161,181,201,222,241,261,282,301,321,341,361,382,402,422,441,461,481,501,521,542,562,581,601,622,642,661,682,701,721,741,761,781,801,823,842,862,881,901,921,941,961,981,1001,1021,1041,1061,1081,1101,1121,1141,1161,1181,1201,1221,1242,1261,1281,1301,1321,1341,1361,1381,1401,1421,1441,1461,1481,1501,1522,1541,1561,1582,1602,1621,1642,1661,1681,1701,1721,1741,1761,1781,1801,1821,1841,1861,1881,1901,1921,1941,1961,1981,2001,2021,2041,2061,2081,2101,2121,2141,2161,2182,2201,2221,2241,2261,2281,2301],"xSR":741.5,"ySR":361.5,"xT1":424.9,"yT1":0,"xT2":1058.1,"yT2":0,"toosoon":0,"cond_shown":"Incongruent","ratio_trial":100,"L_num":10,"L_den":25,"R_num":8,"R_den":16,"correct_side":2,"subjID":"mariajosepolanco4","gender":"1","school":"6","age":"10"},{"start_time":1551899768630,"click_time":1551899770887,"finger_time":1551899770387,"fix_duration":1340.6659632557887,"trial":25,"RT":1757,"MT":500,"sideResp":1,"stimulus":[],"xmouse":[815,815,815,815,815,815,815,815,815,815,815,815,815,815,815,815,815,815,815,815,815,815,815,815,815,815,815,815,815,815,815,815,815,815,815,815,815,815,815,815,815,815,815,815,815,815,815,815,815,815,815,815,815,815,815,815,815,815,815,815,815,815,815,815,815,815,815,815,815,815,815,815,815,815,815,815,815,815,815,815,815,814,812,811,811,809,806,789,773,750,715,702,691,688,686,681,672,644,629,614,602,595,590,589,587,585,581,572,566,557,543,529,513],"ymouse":[401,401,401,401,401,401,401,401,401,401,401,401,401,401,401,401,401,401,401,401,401,401,401,401,401,401,401,401,401,401,401,401,401,401,401,401,401,401,401,401,401,401,401,401,401,401,401,401,401,401,401,401,401,401,401,401,401,401,401,401,401,401,401,401,401,401,401,401,401,401,401,401,401,401,401,401,401,401,401,401,401,401,397,394,390,387,380,351,328,295,253,238,224,220,214,206,194,162,146,130,117,110,103,101,100,96,92,86,83,81,80,78,76],"timestamp_mouse":[17,37,57,77,97,117,137,157,177,198,217,237,257,278,297,317,337,357,377,397,417,438,458,477,498,517,538,557,577,597,617,637,657,677,697,717,738,757,777,797,817,837,857,878,897,917,938,958,978,998,1017,1038,1057,1077,1097,1119,1138,1158,1177,1197,1217,1237,1257,1277,1297,1318,1337,1359,1378,1397,1417,1437,1457,1477,1497,1517,1537,1558,1577,1597,1617,1637,1657,1677,1698,1717,1737,1757,1778,1797,1817,1837,1857,1877,1898,1918,1937,1957,1978,1998,2017,2038,2057,2077,2097,2118,2138,2157,2178,2197,2217,2237,2257],"xSR":741.5,"ySR":361.5,"xT1":424.9,"yT1":0,"xT2":1058.1,"yT2":0,"toosoon":0,"cond_shown":"Congruent","ratio_trial":300,"L_num":8,"L_den":16,"R_num":1,"R_den":5,"correct_side":1,"subjID":"mariajosepolanco4","gender":"1","school":"6","age":"10"},{"start_time":1551899772801,"click_time":1551899774767,"finger_time":1551899774487,"fix_duration":512.5370610242503,"trial":26,"RT":1686,"MT":280,"sideResp":1,"stimulus":[],"xmouse":[782,782,782,782,782,782,782,782,782,782,782,782,782,782,782,782,782,782,782,782,782,782,782,782,782,782,782,782,782,782,782,782,782,782,782,782,782,782,782,782,782,782,782,782,782,782,782,782,782,782,782,782,782,782,782,782,782,782,782,782,782,782,782,782,782,782,782,782,782,782,782,782,782,782,782,782,782,782,782,782,782,782,782,780,772,769,764,756,745,720,696,684,672,657,623,603,572,535,498],"ymouse":[400,400,400,400,400,400,400,400,400,400,400,400,400,400,400,400,400,400,400,400,400,400,400,400,400,400,400,400,400,400,400,400,400,400,400,400,400,400,400,400,400,400,400,400,400,400,400,400,400,400,400,400,400,400,400,400,400,400,400,400,400,400,400,400,400,400,400,400,400,400,400,400,400,400,400,400,400,400,400,400,400,399,393,385,357,340,321,298,274,236,208,196,186,173,145,125,99,68,46],"timestamp_mouse":[9,27,46,66,87,106,126,146,166,186,206,226,246,266,286,306,326,346,366,386,407,426,447,466,486,506,526,546,566,586,607,626,647,667,687,706,726,747,766,786,806,827,847,866,886,907,926,946,966,986,1007,1027,1047,1067,1086,1106,1126,1146,1166,1186,1206,1226,1247,1266,1286,1306,1326,1346,1366,1386,1406,1426,1447,1466,1486,1506,1528,1547,1567,1586,1606,1626,1646,1666,1686,1708,1726,1746,1766,1786,1806,1826,1846,1866,1887,1906,1926,1946,1966],"xSR":741.5,"ySR":361.5,"xT1":424.9,"yT1":0,"xT2":1058.1,"yT2":0,"toosoon":0,"cond_shown":"Congruent","ratio_trial":300,"L_num":3,"L_den":6,"R_num":2,"R_den":10,"correct_side":1,"subjID":"mariajosepolanco4","gender":"1","school":"6","age":"10"},{"start_time":1551899776539,"click_time":1551899778648,"finger_time":1551899778307,"fix_duration":710.1723774219122,"trial":27,"RT":1768,"MT":341,"sideResp":1,"stimulus":[],"xmouse":[798,798,798,798,798,798,798,798,798,798,798,798,798,798,798,798,798,798,798,798,798,798,798,798,798,798,798,798,798,798,798,798,798,798,798,798,798,798,798,798,798,798,798,798,798,798,798,798,798,798,798,798,798,798,798,798,798,798,798,798,798,798,798,798,798,798,798,798,798,798,798,798,798,798,798,797,797,797,797,796,796,796,795,792,790,788,785,777,752,730,705,667,645,627,624,623,622,618,608,600,584,574,564,546,534,515],"ymouse":[410,410,410,410,410,410,410,410,410,410,410,410,410,410,410,410,410,410,410,410,410,410,410,410,410,410,410,410,410,410,410,410,410,410,410,410,410,410,410,410,410,410,410,410,410,410,410,410,410,410,410,410,410,410,410,410,410,410,410,410,410,410,410,410,410,410,410,410,410,410,410,410,410,410,408,407,407,407,406,405,405,404,403,397,394,388,383,370,333,307,277,230,204,181,176,174,169,162,145,135,119,109,99,80,68,54],"timestamp_mouse":[8,28,49,68,89,108,128,148,169,188,209,229,249,269,288,308,328,348,368,388,408,429,448,468,488,508,528,548,569,588,608,628,649,669,688,708,728,748,769,788,809,828,850,869,888,908,928,948,968,988,1008,1028,1049,1070,1088,1108,1128,1148,1168,1189,1208,1228,1249,1269,1289,1308,1328,1348,1369,1388,1408,1428,1448,1468,1488,1508,1528,1548,1569,1588,1609,1628,1648,1669,1688,1709,1728,1748,1768,1789,1808,1828,1849,1868,1888,1909,1928,1948,1968,1989,2008,2028,2049,2068,2088,2108],"xSR":741.5,"ySR":361.5,"xT1":424.9,"yT1":0,"xT2":1058.1,"yT2":0,"toosoon":0,"cond_shown":"Congruent","ratio_trial":300,"L_num":11,"L_den":22,"R_num":1,"R_den":5,"correct_side":1,"subjID":"mariajosepolanco4","gender":"1","school":"6","age":"10"},{"start_time":1551899780276,"click_time":1551899781527,"finger_time":1551899781267,"fix_duration":268.28277356499063,"trial":28,"RT":991,"MT":260,"sideResp":2,"stimulus":[],"xmouse":[795,795,795,795,795,795,795,795,795,795,795,795,795,795,795,795,795,795,795,795,795,795,795,795,795,795,795,795,795,795,795,795,795,795,795,795,795,795,795,795,795,795,795,797,800,803,811,820,833,843,851,873,896,914,935,951,980,989,1000,1012,1026,1050,1065],"ymouse":[410,410,410,410,410,410,410,410,410,410,410,410,410,410,410,410,410,410,410,410,410,410,410,410,410,410,410,410,410,410,410,410,410,410,410,410,410,410,410,410,410,410,410,409,406,402,390,381,371,364,356,333,305,282,257,236,201,189,173,156,136,103,84],"timestamp_mouse":[18,39,51,71,91,111,131,152,171,191,211,231,251,271,291,311,331,351,371,391,411,431,451,471,492,511,532,552,571,591,611,631,651,671,691,711,732,751,771,792,811,832,851,871,891,911,932,951,971,991,1011,1031,1051,1071,1092,1111,1131,1151,1172,1191,1211,1231,1251],"xSR":741.5,"ySR":361.5,"xT1":424.9,"yT1":0,"xT2":1058.1,"yT2":0,"toosoon":0,"cond_shown":"Incongruent","ratio_trial":300,"L_num":4,"L_den":20,"R_num":2,"R_den":4,"correct_side":2,"subjID":"mariajosepolanco4","gender":"1","school":"6","age":"10"},{"start_time":1551899783251,"click_time":1551899787509,"finger_time":1551899787207,"fix_duration":562.854982650331,"trial":29,"RT":3956,"MT":302,"sideResp":2,"stimulus":[],"xmouse":[788,788,787,787,787,787,787,787,787,787,787,787,787,787,787,787,787,787,787,787,787,787,787,787,787,787,787,787,787,787,787,787,787,787,787,787,787,787,787,787,787,787,787,787,787,787,787,787,787,787,787,787,787,787,787,787,787,787,787,787,787,787,787,787,787,787,787,787,787,787,787,787,787,787,787,787,787,787,787,787,787,787,787,787,787,787,787,787,787,787,787,787,787,787,787,787,787,787,787,787,787,787,787,787,787,787,787,787,787,787,787,787,787,787,787,787,787,787,787,787,787,787,787,787,787,787,787,787,787,787,787,787,787,787,787,787,787,787,787,787,787,787,787,787,787,787,787,787,787,787,788,789,791,794,794,794,795,795,795,795,795,795,795,795,795,795,795,795,795,795,795,795,795,795,795,795,795,795,795,795,795,795,795,795,795,795,795,795,795,795,795,795,797,806,813,819,829,838,861,873,897,918,938,989,1011,1028,1043,1056,1084,1101,1115,1116,1118],"ymouse":[393,393,394,394,394,394,394,394,394,394,394,394,394,394,394,394,394,394,394,394,394,394,394,394,394,394,394,394,394,394,394,394,394,394,394,394,394,394,394,394,394,394,394,394,394,394,394,394,394,394,394,394,394,394,394,394,394,394,394,394,394,394,394,394,394,394,394,394,394,394,394,394,394,394,394,394,394,394,394,394,394,394,394,394,394,394,394,394,394,394,394,394,394,394,394,394,394,394,394,394,394,394,394,394,394,394,394,394,394,394,394,394,394,394,394,394,394,394,394,394,394,394,394,394,394,394,394,394,394,394,394,394,394,394,394,394,394,394,394,394,394,394,394,394,394,394,394,394,394,395,395,395,395,393,392,392,392,392,392,392,392,392,392,392,392,392,392,392,392,392,392,392,392,392,392,392,392,392,392,392,392,392,392,392,392,392,392,392,392,392,392,391,390,382,377,372,365,359,346,339,324,310,297,262,248,237,225,212,169,140,109,102,90],"timestamp_mouse":[16,46,56,76,96,117,136,156,176,196,217,236,256,276,297,316,336,356,376,396,416,436,456,477,496,516,536,556,576,596,616,636,656,676,696,716,736,756,777,796,816,836,856,876,896,918,936,956,976,996,1016,1037,1056,1076,1096,1117,1137,1156,1177,1197,1216,1236,1257,1276,1296,1316,1336,1356,1376,1396,1416,1436,1456,1476,1496,1516,1536,1556,1577,1596,1616,1636,1656,1676,1697,1717,1737,1757,1776,1796,1816,1837,1856,1877,1896,1916,1937,1957,1977,1997,2016,2036,2056,2076,2097,2116,2136,2156,2177,2197,2216,2237,2256,2276,2296,2316,2337,2356,2377,2396,2416,2437,2456,2476,2496,2516,2536,2557,2577,2596,2616,2636,2657,2677,2698,2717,2737,2756,2776,2797,2816,2836,2856,2876,2897,2916,2936,2956,2976,2996,3016,3036,3056,3076,3096,3116,3136,3156,3176,3196,3216,3236,3256,3277,3296,3316,3336,3356,3376,3396,3416,3437,3456,3476,3496,3516,3536,3556,3577,3596,3616,3636,3657,3677,3696,3716,3736,3757,3777,3796,3816,3836,3856,3876,3896,3916,3936,3956,3976,3998,4016,4038,4056,4076,4096,4116,4136,4158,4176,4197,4216,4237,4257],"xSR":741.5,"ySR":361.5,"xT1":424.9,"yT1":0,"xT2":1058.1,"yT2":0,"toosoon":0,"cond_shown":"Congruent","ratio_trial":100,"L_num":3,"L_den":6,"R_num":2,"R_den":5,"correct_side":1,"subjID":"mariajosepolanco4","gender":"1","school":"6","age":"10"},{"start_time":1551899791035,"click_time":1551899793088,"finger_time":1551899792787,"fix_duration":1484.7435396907251,"trial":30,"RT":1752,"MT":301,"sideResp":1,"stimulus":[],"xmouse":[780,780,780,780,780,780,780,780,780,780,780,780,780,780,780,780,780,780,780,780,780,780,780,780,780,780,780,780,780,780,780,780,780,780,780,780,780,780,780,780,780,780,780,780,780,780,780,780,780,780,780,780,780,780,780,780,780,780,780,780,780,780,780,780,780,780,780,780,780,780,780,780,780,780,780,780,780,780,780,780,780,780,780,780,778,769,758,745,729,696,678,668,661,655,645,639,634,624,614,574,558,541,518],"ymouse":[407,407,407,407,407,407,407,407,407,407,407,407,407,407,407,407,407,407,407,407,407,407,407,407,407,407,407,407,407,407,407,407,407,407,407,407,407,407,407,407,407,407,407,407,407,407,407,407,407,407,407,407,407,407,407,407,407,407,407,407,407,407,407,407,407,407,407,407,407,407,407,407,407,407,407,407,407,407,407,407,407,407,407,407,405,390,373,354,333,282,250,229,215,202,181,170,163,153,143,111,97,84,71],"timestamp_mouse":[12,33,52,72,92,112,132,152,172,192,213,234,253,272,292,312,332,352,372,392,412,432,452,472,492,512,533,552,572,592,612,632,652,672,692,712,732,752,772,793,812,832,852,872,892,912,932,952,972,992,1012,1034,1053,1072,1092,1112,1132,1152,1172,1192,1212,1232,1253,1272,1292,1312,1332,1352,1372,1393,1412,1433,1453,1472,1492,1512,1533,1553,1572,1593,1612,1632,1652,1672,1692,1712,1732,1752,1772,1792,1812,1832,1853,1872,1893,1912,1932,1952,1972,1993,2012,2032,2053],"xSR":741.5,"ySR":361.5,"xT1":424.9,"yT1":0,"xT2":1058.1,"yT2":0,"toosoon":0,"cond_shown":"Incongruent","ratio_trial":100,"L_num":2,"L_den":4,"R_num":8,"R_den":20,"correct_side":1,"subjID":"mariajosepolanco4","gender":"1","school":"6","age":"10"},{"start_time":1551899795325,"click_time":1551899796587,"finger_time":1551899796327,"fix_duration":1137.3462747627473,"trial":31,"RT":1002,"MT":260,"sideResp":2,"stimulus":[],"xmouse":[768,768,768,768,768,768,768,768,768,768,768,768,768,768,768,768,768,768,768,768,768,768,768,768,768,768,768,768,768,768,768,768,768,768,768,768,768,768,768,768,768,769,772,773,780,786,799,804,810,820,831,851,862,872,898,920,974,1005,1030,1056,1075,1111,1137,1151],"ymouse":[411,411,411,411,411,411,411,411,411,411,411,411,411,411,411,411,411,411,411,411,411,411,411,411,411,411,411,411,411,411,411,411,411,411,411,411,411,411,411,411,411,411,410,408,399,394,383,378,373,366,358,344,334,324,302,287,247,224,202,180,161,129,108,94],"timestamp_mouse":[11,34,43,62,83,102,122,143,162,182,203,222,242,262,282,302,322,342,362,382,402,423,442,462,482,502,522,543,562,582,602,622,642,662,683,702,722,742,762,782,803,822,842,862,882,902,922,942,962,982,1002,1022,1042,1063,1082,1102,1122,1142,1162,1182,1202,1221,1242,1262],"xSR":741.5,"ySR":361.5,"xT1":424.9,"yT1":0,"xT2":1058.1,"yT2":0,"toosoon":0,"cond_shown":"Incongruent","ratio_trial":300,"L_num":13,"L_den":26,"R_num":12,"R_den":15,"correct_side":2,"subjID":"mariajosepolanco4","gender":"1","school":"6","age":"10"},{"start_time":1551899799304,"click_time":1551899800867,"finger_time":1551899800487,"fix_duration":1295.8279044948379,"trial":32,"RT":1183,"MT":380,"sideResp":2,"stimulus":[],"xmouse":[783,783,783,783,783,783,783,783,783,783,783,783,783,783,783,783,783,783,783,783,783,783,783,783,783,783,783,783,783,783,783,783,783,783,783,783,783,783,783,783,783,783,783,783,783,783,783,783,783,783,783,783,784,788,791,798,806,821,834,846,859,869,895,906,922,941,960,989,997,1003,1008,1012,1018,1034,1041,1046,1049,1055,1060],"ymouse":[425,425,425,425,425,425,425,425,425,425,425,425,425,425,425,425,425,425,425,425,425,425,425,425,425,425,425,425,425,425,425,425,425,425,425,425,425,425,425,425,425,425,425,425,425,425,425,425,425,425,425,424,423,420,417,413,406,391,378,362,346,332,299,283,263,240,216,184,172,161,153,147,136,117,106,98,94,85,80],"timestamp_mouse":[11,23,46,64,83,103,123,143,164,183,203,223,243,263,283,303,323,343,363,383,404,423,443,463,484,503,523,545,563,583,603,623,643,664,683,703,723,743,763,783,803,823,843,863,883,903,923,944,963,983,1003,1024,1043,1064,1083,1103,1123,1143,1163,1183,1203,1223,1244,1264,1283,1303,1323,1343,1364,1384,1403,1424,1443,1464,1483,1503,1523,1543,1563],"xSR":741.5,"ySR":361.5,"xT1":424.9,"yT1":0,"xT2":1058.1,"yT2":0,"toosoon":0,"cond_shown":"Congruent","ratio_trial":300,"L_num":3,"L_den":12,"R_num":11,"R_den":20,"correct_side":2,"subjID":"mariajosepolanco4","gender":"1","school":"6","age":"10"},{"start_time":1551899802639,"click_time":1551899805587,"finger_time":1551899804528,"fix_duration":250,"trial":33,"RT":1889,"MT":1059,"sideResp":1,"stimulus":[],"xmouse":[804,804,804,804,804,804,804,804,804,804,804,804,804,804,804,804,804,804,804,804,804,804,804,804,804,804,804,804,804,804,804,804,804,804,804,804,804,804,804,804,804,804,804,804,804,804,804,804,804,804,804,804,804,804,804,804,804,804,804,804,804,804,804,804,804,804,804,804,804,804,804,804,804,804,804,804,804,804,804,804,804,804,804,804,804,804,804,804,804,804,804,805,809,823,838,858,904,917,925,930,936,944,948,954,961,965,983,990,996,1002,1004,1004,1004,1004,1004,1004,1004,1004,1004,1004,1004,1004,1003,999,993,985,966,955,943,930,915,869,830,777,696,657,605,591,585,582,581,581,578,574,573,572,545,524],"ymouse":[397,397,397,397,397,397,397,397,397,397,397,397,397,397,397,397,397,397,397,397,397,397,397,397,397,397,397,397,397,397,397,397,397,397,397,397,397,397,397,397,397,397,397,397,397,397,397,397,397,397,397,397,397,397,397,397,397,397,397,397,397,397,397,397,397,397,397,397,397,397,397,397,397,397,397,397,397,397,397,397,397,397,397,397,397,397,397,397,397,397,397,395,390,369,349,320,254,233,218,208,199,184,179,171,164,158,138,132,126,121,120,120,119,119,119,119,119,119,119,119,119,119,119,119,121,123,130,132,133,134,135,135,132,123,99,88,73,69,67,67,67,67,67,67,67,67,67,65],"timestamp_mouse":[9,28,48,69,88,108,128,148,168,188,208,228,248,270,288,308,328,348,369,389,408,428,448,470,488,508,528,548,569,588,608,628,648,668,688,708,728,748,768,788,808,828,848,868,888,908,928,948,968,989,1009,1030,1048,1068,1088,1109,1129,1148,1168,1188,1208,1228,1249,1269,1288,1309,1328,1350,1368,1388,1410,1429,1448,1468,1488,1508,1529,1548,1568,1588,1608,1628,1648,1668,1688,1708,1729,1748,1768,1789,1810,1828,1848,1868,1888,1908,1928,1948,1968,1988,2009,2028,2048,2068,2088,2108,2128,2148,2168,2188,2208,2228,2248,2268,2289,2309,2328,2348,2368,2388,2408,2428,2449,2468,2488,2509,2528,2548,2568,2588,2608,2628,2648,2668,2689,2709,2728,2748,2768,2789,2809,2828,2848,2869,2888,2908,2928,2948],"xSR":741.5,"ySR":361.5,"xT1":424.9,"yT1":0,"xT2":1058.1,"yT2":0,"toosoon":0,"cond_shown":"Incongruent","ratio_trial":100,"L_num":6,"L_den":10,"R_num":11,"R_den":22,"correct_side":1,"subjID":"mariajosepolanco4","gender":"1","school":"6","age":"10"},{"start_time":1551899807654,"click_time":1551899808908,"finger_time":1551899808610,"fix_duration":1226.005575548266,"trial":34,"RT":956,"MT":298,"sideResp":2,"stimulus":[],"xmouse":[819,819,819,819,819,819,819,819,819,819,819,819,819,819,819,819,819,819,819,819,819,819,819,819,819,819,819,819,819,819,819,819,819,819,819,819,819,819,819,819,819,819,819,819,818,820,827,844,861,877,897,973,993,1001,1006,1011,1014,1019,1027,1035,1053,1057,1060],"ymouse":[424,424,424,424,424,424,424,424,424,424,424,424,424,424,424,424,424,424,424,424,424,424,424,424,424,424,424,424,424,424,424,424,424,424,424,424,424,424,424,424,424,424,424,424,423,419,413,405,393,380,361,266,229,206,187,161,151,138,125,109,67,58,50],"timestamp_mouse":[13,42,53,73,94,113,133,153,173,193,213,233,254,273,293,313,333,354,374,396,414,433,453,473,493,513,533,553,573,594,613,633,653,674,693,714,734,755,774,795,815,834,854,874,894,914,935,956,975,995,1014,1035,1054,1075,1095,1115,1134,1154,1174,1195,1215,1235,1254],"xSR":741.5,"ySR":361.5,"xT1":424.9,"yT1":0,"xT2":1058.1,"yT2":0,"toosoon":0,"cond_shown":"Incongruent","ratio_trial":300,"L_num":13,"L_den":26,"R_num":12,"R_den":15,"correct_side":2,"subjID":"mariajosepolanco4","gender":"1","school":"6","age":"10"},{"start_time":1551899810628,"click_time":1551899812588,"finger_time":1551899812189,"fix_duration":618.8164945949161,"trial":35,"RT":1561,"MT":399,"sideResp":2,"stimulus":[],"xmouse":[809,809,809,809,809,809,809,809,809,809,809,809,809,809,809,809,809,809,809,809,809,809,809,809,809,809,809,809,809,809,809,809,809,809,809,809,809,809,809,809,809,809,809,809,809,809,809,809,809,809,809,809,809,809,809,809,809,809,809,809,809,809,809,809,809,809,809,809,809,809,809,809,809,809,809,810,812,822,860,881,898,910,923,949,965,979,990,999,1012,1017,1023,1032,1040,1047,1049,1051,1052,1058,1076],"ymouse":[424,424,424,424,424,424,424,424,424,424,424,424,424,424,424,424,424,424,424,424,424,424,424,424,424,424,424,424,424,424,424,424,424,424,424,424,424,424,424,424,424,424,424,424,424,424,424,424,424,424,424,424,424,424,424,424,424,424,424,424,424,424,424,424,424,424,424,424,424,424,424,424,424,424,424,422,417,398,337,302,279,262,239,194,171,150,136,122,104,97,91,80,71,63,61,60,60,59,57],"timestamp_mouse":[9,21,51,61,80,101,120,140,161,180,202,222,241,260,280,301,320,341,361,381,400,420,440,461,481,500,520,540,561,581,600,620,640,661,681,700,720,742,761,781,800,821,842,862,880,900,921,940,960,982,1000,1021,1041,1061,1080,1100,1120,1141,1160,1182,1201,1221,1241,1260,1280,1300,1320,1340,1360,1381,1401,1421,1441,1461,1481,1500,1520,1541,1561,1580,1601,1621,1642,1660,1681,1701,1721,1741,1760,1780,1800,1821,1841,1861,1880,1900,1920,1940,1960],"xSR":741.5,"ySR":361.5,"xT1":424.9,"yT1":0,"xT2":1058.1,"yT2":0,"toosoon":0,"cond_shown":"Congruent","ratio_trial":200,"L_num":7,"L_den":15,"R_num":18,"R_den":27,"correct_side":2,"subjID":"mariajosepolanco4","gender":"1","school":"6","age":"10"},{"start_time":1551899813801,"click_time":1551899815989,"finger_time":1551899815629,"fix_duration":250,"trial":36,"RT":1828,"MT":360,"sideResp":2,"stimulus":[],"xmouse":[764,764,764,764,764,764,764,764,764,764,764,764,764,764,764,764,764,764,764,764,764,764,764,764,764,764,764,764,764,764,764,764,764,764,764,764,764,764,764,764,764,764,764,764,764,764,764,764,764,764,764,764,764,764,764,764,764,764,764,764,764,764,764,764,764,764,764,764,764,764,764,764,764,764,764,764,764,764,764,764,764,764,764,764,764,765,768,774,781,800,816,847,871,900,940,951,958,963,964,975,987,994,998,1002,1005,1014,1020,1029,1040,1065],"ymouse":[426,426,426,426,426,426,426,426,426,426,426,426,426,426,426,426,426,426,426,426,426,426,426,426,426,426,426,426,426,426,426,426,426,426,426,426,426,426,426,426,426,426,426,426,426,426,426,426,426,426,426,426,426,426,426,426,426,426,426,426,426,426,426,426,426,426,426,426,426,426,426,426,426,426,426,426,426,426,426,426,426,426,426,426,426,423,420,414,406,383,366,329,300,265,219,205,198,194,193,182,169,162,156,151,146,137,129,119,106,87],"timestamp_mouse":[11,32,47,68,87,108,127,147,167,188,207,228,248,268,289,308,327,347,367,389,409,429,448,467,488,507,528,548,569,588,607,627,649,668,688,707,727,748,769,789,807,828,849,867,887,907,927,948,968,989,1008,1027,1047,1067,1087,1107,1129,1147,1167,1187,1207,1229,1247,1267,1287,1308,1328,1347,1367,1389,1408,1427,1448,1467,1488,1507,1528,1547,1567,1588,1608,1628,1648,1667,1688,1707,1728,1747,1768,1788,1808,1828,1847,1868,1888,1908,1928,1948,1968,1987,2007,2027,2048,2067,2087,2108,2128,2147,2168,2187],"xSR":741.5,"ySR":361.5,"xT1":424.9,"yT1":0,"xT2":1058.1,"yT2":0,"toosoon":0,"cond_shown":"Incongruent","ratio_trial":300,"L_num":13,"L_den":26,"R_num":12,"R_den":15,"correct_side":2,"subjID":"mariajosepolanco4","gender":"1","school":"6","age":"10"},{"start_time":1551899817649,"click_time":1551899819109,"finger_time":1551899818709,"fix_duration":419.29582926846433,"trial":37,"RT":1060,"MT":400,"sideResp":2,"stimulus":[],"xmouse":[768,768,768,768,768,768,768,768,768,768,768,768,768,768,768,768,768,768,768,768,768,768,768,768,768,768,768,768,768,768,768,768,768,768,768,768,768,768,768,768,768,768,768,768,768,768,768,770,773,776,782,792,807,853,877,900,916,928,965,981,993,1003,1016,1019,1022,1024,1028,1040,1053,1054,1055,1055,1056,1067],"ymouse":[418,418,418,418,418,418,418,418,418,418,418,418,418,418,418,418,418,418,418,418,418,418,418,418,418,418,418,418,418,418,418,418,418,418,418,418,418,418,418,418,418,418,418,418,418,418,418,417,413,409,404,396,384,344,323,303,284,269,229,209,190,174,153,144,137,133,123,102,84,80,79,78,77,69],"timestamp_mouse":[8,20,39,59,80,100,120,140,159,179,199,220,240,260,280,299,320,340,360,379,399,420,440,460,479,499,520,539,559,579,599,620,639,659,679,699,720,740,759,780,800,820,839,859,879,899,920,940,960,979,999,1020,1040,1060,1080,1099,1120,1139,1160,1179,1199,1219,1240,1259,1280,1299,1320,1339,1359,1379,1400,1420,1440,1460],"xSR":741.5,"ySR":361.5,"xT1":424.9,"yT1":0,"xT2":1058.1,"yT2":0,"toosoon":0,"cond_shown":"Incongruent","ratio_trial":100,"L_num":17,"L_den":30,"R_num":10,"R_den":15,"correct_side":2,"subjID":"mariajosepolanco4","gender":"1","school":"6","age":"10"},{"start_time":1551899821103,"click_time":1551899823269,"finger_time":1551899822708,"fix_duration":1073.2528385203134,"trial":38,"RT":1605,"MT":561,"sideResp":1,"stimulus":[],"xmouse":[811,811,811,811,811,811,811,811,811,811,811,811,811,811,811,811,811,811,811,811,811,811,811,811,811,811,811,811,811,811,811,811,811,811,811,811,811,811,811,811,811,811,811,811,811,811,811,811,811,811,811,811,811,811,811,811,811,811,811,811,811,811,811,811,811,811,811,811,811,811,811,811,811,811,811,810,808,805,797,787,760,753,750,750,750,750,750,750,750,750,750,750,748,746,737,712,698,681,663,641,588,569,554,547,543,536,533,525,515],"ymouse":[394,394,394,394,394,394,394,394,394,394,394,394,394,394,394,394,394,394,394,394,394,394,394,394,394,394,394,394,394,394,394,394,394,394,394,394,394,394,394,394,394,394,394,394,394,394,394,394,394,394,394,394,394,394,394,394,394,394,394,394,394,394,394,394,394,394,394,394,394,394,394,394,394,394,394,393,390,385,376,366,349,344,342,342,342,342,342,342,342,342,342,342,340,337,326,294,274,254,229,200,134,112,91,80,75,63,59,50,42],"timestamp_mouse":[9,35,46,65,86,106,125,146,166,185,206,225,246,265,285,305,327,345,365,386,406,425,445,465,486,506,525,545,565,586,606,626,645,666,686,705,725,746,765,786,806,825,846,865,887,906,925,946,966,987,1005,1025,1047,1065,1085,1107,1126,1145,1166,1185,1207,1226,1246,1265,1287,1307,1325,1345,1365,1386,1405,1425,1445,1465,1486,1506,1525,1546,1566,1585,1605,1625,1645,1666,1687,1705,1725,1745,1765,1786,1806,1827,1845,1866,1887,1906,1925,1946,1967,1985,2005,2026,2046,2066,2086,2106,2127,2146,2166],"xSR":741.5,"ySR":361.5,"xT1":424.9,"yT1":0,"xT2":1058.1,"yT2":0,"toosoon":0,"cond_shown":"Incongruent","ratio_trial":100,"L_num":3,"L_den":5,"R_num":8,"R_den":16,"correct_side":1,"subjID":"mariajosepolanco4","gender":"1","school":"6","age":"10"},{"start_time":1551899825081,"click_time":1551899826208,"finger_time":1551899825868,"fix_duration":890.9607068634713,"trial":39,"RT":787,"MT":340,"sideResp":2,"stimulus":[],"xmouse":[768,768,768,768,768,768,768,768,768,768,768,768,768,768,768,768,768,768,768,768,768,768,768,768,768,768,768,768,768,769,769,769,769,769,769,769,769,780,796,811,825,844,858,872,886,902,927,942,959,977,993,1032,1048,1062,1075,1087,1107],"ymouse":[380,380,380,380,380,380,380,380,380,380,380,380,380,380,380,380,380,380,380,380,380,380,380,380,380,380,380,380,380,381,381,381,381,381,381,381,381,375,363,351,337,316,307,296,286,274,256,245,232,221,210,181,168,156,141,126,99],"timestamp_mouse":[9,29,48,67,87,109,128,148,167,187,207,229,249,268,287,307,328,348,368,388,408,427,447,467,487,507,527,547,568,588,607,628,648,668,688,708,728,748,768,787,807,828,848,867,887,907,928,947,967,987,1007,1028,1048,1068,1088,1108,1127],"xSR":741.5,"ySR":361.5,"xT1":424.9,"yT1":0,"xT2":1058.1,"yT2":0,"toosoon":0,"cond_shown":"Incongruent","ratio_trial":100,"L_num":9,"L_den":18,"R_num":6,"R_den":10,"correct_side":2,"subjID":"mariajosepolanco4","gender":"1","school":"6","age":"10"},{"start_time":1551899827985,"click_time":1551899829350,"finger_time":1551899829029,"fix_duration":554.3130834698461,"trial":40,"RT":1044,"MT":321,"sideResp":1,"stimulus":[],"xmouse":[765,765,765,765,765,765,765,765,765,765,765,765,765,765,765,765,765,765,765,765,765,765,765,765,765,765,765,765,765,765,765,765,765,765,765,765,765,765,765,765,765,765,765,765,765,765,765,765,765,765,765,761,723,690,666,649,630,615,610,604,599,592,589,587,585,582,559,541,522],"ymouse":[401,401,401,401,401,401,401,401,401,401,401,401,401,401,401,401,401,401,401,401,401,401,401,401,401,401,401,401,401,401,401,401,401,401,401,401,401,401,401,401,401,401,401,401,401,401,401,401,401,399,396,381,321,276,236,203,155,119,107,96,84,70,67,65,63,62,51,46,41],"timestamp_mouse":[8,23,47,63,83,104,124,144,163,183,203,223,243,263,283,303,325,343,363,383,404,424,445,463,483,503,523,543,563,584,604,624,643,663,683,704,724,744,765,784,803,823,843,864,883,903,924,944,964,983,1004,1025,1044,1063,1083,1104,1124,1145,1163,1184,1204,1224,1243,1263,1284,1303,1324,1343,1365],"xSR":741.5,"ySR":361.5,"xT1":424.9,"yT1":0,"xT2":1058.1,"yT2":0,"toosoon":0,"cond_shown":"Congruent","ratio_trial":200,"L_num":12,"L_den":15,"R_num":6,"R_den":10,"correct_side":1,"subjID":"mariajosepolanco4","gender":"1","school":"6","age":"10"},{"start_time":1551899831932,"click_time":1551899834368,"finger_time":1551899833948,"fix_duration":1182.687174040134,"trial":41,"RT":2016,"MT":420,"sideResp":1,"stimulus":[],"xmouse":[824,824,824,824,824,824,824,824,824,824,824,824,824,824,824,824,824,824,824,824,824,824,824,824,824,824,824,824,824,824,824,824,824,824,824,824,824,824,824,824,824,824,824,824,824,824,824,824,824,824,824,824,824,824,824,824,824,824,824,824,824,824,824,824,824,824,824,824,824,824,824,824,824,824,824,824,824,824,824,824,824,824,824,824,824,824,824,824,824,824,824,824,824,824,824,824,822,815,798,753,737,730,730,730,730,728,723,715,706,681,668,655,641,627,603,585,573,561,550,531,525,522],"ymouse":[427,427,427,427,427,427,427,427,427,427,427,427,427,427,427,427,427,427,427,427,427,427,427,427,427,427,427,427,427,427,427,427,427,427,427,427,427,427,427,427,427,427,427,427,427,427,427,427,427,427,427,427,427,427,427,427,427,427,427,427,427,427,427,427,427,427,427,427,427,427,427,427,427,427,427,427,427,427,427,427,427,427,427,427,427,427,427,427,427,427,427,427,427,427,427,427,426,420,408,385,378,375,375,375,375,373,363,348,332,299,282,265,249,234,206,182,164,144,128,103,97,93],"timestamp_mouse":[21,36,57,76,96,117,137,156,177,198,216,236,256,276,297,317,336,356,378,396,417,436,456,477,496,517,537,557,577,597,616,636,657,677,696,716,737,757,777,796,817,837,856,876,898,917,937,956,976,998,1016,1037,1058,1076,1096,1116,1137,1157,1176,1196,1217,1237,1256,1276,1297,1317,1337,1356,1377,1397,1418,1436,1456,1478,1496,1516,1536,1556,1577,1597,1616,1636,1657,1677,1696,1716,1736,1757,1776,1796,1817,1837,1856,1876,1896,1916,1936,1957,1976,1996,2016,2036,2057,2076,2096,2116,2136,2157,2176,2198,2217,2236,2256,2276,2296,2318,2336,2357,2377,2396,2416,2436],"xSR":741.5,"ySR":361.5,"xT1":424.9,"yT1":0,"xT2":1058.1,"yT2":0,"toosoon":0,"cond_shown":"Congruent","ratio_trial":200,"L_num":3,"L_den":12,"R_num":9,"R_den":20,"correct_side":2,"subjID":"mariajosepolanco4","gender":"1","school":"6","age":"10"},{"start_time":1551899835786,"click_time":1551899839531,"finger_time":1551899839109,"fix_duration":256.8747526385742,"trial":42,"RT":3323,"MT":422,"sideResp":1,"stimulus":[],"xmouse":[778,778,778,778,778,778,778,778,778,778,778,778,778,778,778,778,778,778,778,778,778,778,778,778,778,778,778,778,778,778,778,778,778,778,778,778,778,778,778,779,780,781,781,781,781,781,781,781,781,781,781,781,781,781,781,781,781,781,781,781,781,781,781,781,781,781,781,781,781,781,781,781,781,781,781,781,781,781,781,781,781,781,781,781,781,781,781,781,781,781,781,781,781,781,781,781,781,781,781,781,781,781,781,781,781,781,781,781,781,781,781,781,781,781,781,781,781,781,781,781,781,781,781,781,781,781,781,781,781,781,781,781,781,781,781,781,781,781,781,781,781,781,781,781,781,781,781,781,781,781,781,781,781,781,781,781,781,781,781,781,781,781,781,781,780,776,767,726,699,673,646,632,622,605,595,587,577,570,562,558,556,553,552,548,545,540,533,521],"ymouse":[374,374,374,374,374,374,374,374,374,374,374,374,374,374,374,374,374,374,374,374,374,374,374,374,374,374,374,374,374,374,374,374,374,374,374,374,374,374,374,374,374,374,373,373,373,373,373,373,373,373,373,373,373,373,373,373,373,373,373,373,373,373,373,373,373,373,373,373,373,373,373,373,373,373,373,373,373,373,373,373,373,373,373,373,373,373,373,373,373,373,373,373,373,373,373,373,373,373,373,373,373,373,373,373,373,373,373,373,373,373,373,373,373,373,373,373,373,373,373,373,373,373,373,373,373,373,373,373,373,373,373,373,373,373,373,373,373,373,373,373,373,373,373,373,373,373,373,373,373,373,373,373,373,373,373,373,373,373,373,373,373,373,373,373,370,362,352,312,287,262,222,200,180,149,134,119,104,90,76,71,68,66,65,63,63,62,62,60],"timestamp_mouse":[9,22,43,63,83,103,122,143,162,182,202,222,243,262,282,302,322,343,362,382,403,423,442,462,482,503,522,542,564,583,603,623,642,663,683,703,722,742,762,782,802,822,844,862,882,902,922,943,962,982,1002,1023,1044,1062,1083,1102,1122,1143,1163,1182,1203,1223,1242,1262,1283,1303,1323,1342,1363,1383,1402,1422,1443,1464,1483,1502,1522,1542,1564,1584,1603,1624,1642,1662,1682,1703,1722,1742,1763,1782,1802,1822,1843,1864,1882,1903,1922,1942,1963,1984,2002,2022,2043,2063,2082,2102,2123,2143,2162,2182,2202,2223,2243,2263,2283,2302,2322,2342,2363,2382,2402,2423,2442,2463,2483,2503,2523,2544,2562,2582,2602,2622,2642,2663,2683,2702,2722,2743,2762,2783,2803,2823,2843,2863,2882,2903,2922,2944,2963,2982,3002,3022,3043,3062,3083,3102,3122,3144,3163,318