[{"start_time":1551900605311,"click_time":1551900606703,"finger_time":1551900606122,"fix_duration":1163.053808075547,"trial":0,"RT":811,"MT":581,"sideResp":1,"stimulus":"img/250/equaldotsize/L/3_Ratio_250_L_8_R_2.png","xmouse":[784,784,784,784,784,784,784,784,784,784,784,784,784,784,784,784,784,784,784,784,784,784,784,784,784,784,784,784,784,784,784,784,784,782,782,779,771,768,765,762,749,725,717,705,686,664,628,610,594,583,575,562,561,560,560,560,554,552,551,547,542,534,534,532,530,530,527,526,525,523],"ymouse":[558,558,558,558,558,558,558,558,558,558,558,558,558,558,558,558,558,558,558,558,558,558,558,557,557,557,557,557,557,557,557,557,557,556,555,551,534,524,513,498,468,424,399,374,337,300,232,208,188,172,156,132,127,125,125,125,125,124,123,121,118,113,112,110,108,107,102,98,94,88],"timestamp_mouse":[14,40,53,72,91,112,131,151,171,191,211,231,253,272,293,312,332,352,372,392,412,432,452,472,492,512,532,553,572,592,612,632,652,672,692,713,732,752,772,791,811,832,851,871,892,911,931,951,972,991,1012,1032,1052,1071,1091,1111,1132,1152,1172,1192,1211,1232,1252,1272,1292,1313,1333,1352,1372,1392],"xSR":741.5,"ySR":501.8,"xT1":424.9,"yT1":0,"xT2":1058.1,"yT2":0,"toosoon":0,"cond_shown":"equaldotsize","ratio_trial":250,"smaller_num":"2","larger_num":"8","correct_side":1,"subjID":"juanitalopez21","gender":"1","age":"11","school":"6","test":{"fix_dur":[250,1500],"timestim":300,"targets_dim":[100,100],"targets_relative_coord":[0.3,0.7],"size_stim":[880,420],"start_dim":[100,100],"size_start":[300,300],"size_fix":60,"samplingrate":20,"img_types":["equaldotsize","equaldotanddens","randomdotsizeEA"],"ratios":[250,500,750,900],"rep_conds":9,"nTrials":120,"trials_to_rest":500,"Trials_order":[0,106,5,65,64,91,53,101,55,2,38,60,79,62,33,42,100,30,72,98,73,48,6,85,88,66,31,20,57,81,19,67,43,69,50,56,61,46,36,32,113,74,115,4,54,80,39,118,25,90,1,41,23,103,105,111,104,13,47,59,108,110,86,63,12,58,49,75,87,29,116,27,40,44,35,89,17,9,95,16,99,34,3,76,119,14,15,117,97,52,22,94,37,102,8,112,83,68,10,21,70,77,28,78,7,45,18,26,51,109,114,82,11,84,96,24,107,71,93,92],"cond_shown":["equaldotsize","equaldotanddens","randomdotsizeEA","randomdotsizeEA","equaldotanddens","equaldotanddens","randomdotsizeEA","randomdotsizeEA","equaldotanddens","randomdotsizeEA","randomdotsizeEA","equaldotsize","equaldotanddens","randomdotsizeEA","equaldotsize","equaldotsize","equaldotanddens","equaldotsize","equaldotsize","randomdotsizeEA","equaldotanddens","equaldotsize","equaldotsize","equaldotanddens","equaldotanddens","equaldotsize","equaldotanddens","randomdotsizeEA","equaldotsize","equaldotsize","equaldotanddens","equaldotanddens","equaldotanddens","equaldotsize","randomdotsizeEA","randomdotsizeEA","equaldotanddens","equaldotanddens","equaldotsize","randomdotsizeEA","randomdotsizeEA","randomdotsizeEA","equaldotanddens","equaldotanddens","equaldotsize","randomdotsizeEA","equaldotsize","equaldotanddens","equaldotanddens","equaldotsize","equaldotanddens","randomdotsizeEA","randomdotsizeEA","equaldotanddens","equaldotsize","equaldotsize","randomdotsizeEA","equaldotanddens","randomdotsizeEA","randomdotsizeEA","equaldotsize","randomdotsizeEA","randomdotsizeEA","equaldotsize","equaldotsize","equaldotanddens","equaldotanddens","equaldotsize","equaldotsize","randomdotsizeEA","randomdotsizeEA","equaldotsize","equaldotanddens","randomdotsizeEA","randomdotsizeEA","randomdotsizeEA","randomdotsizeEA","equaldotsize","randomdotsizeEA","equaldotanddens","equaldotsize","equaldotanddens","equaldotsize","equaldotanddens","randomdotsizeEA","randomdotsizeEA","equaldotsize","equaldotsize","equaldotanddens","equaldotanddens","equaldotanddens","equaldotanddens","equaldotanddens","equaldotsize","randomdotsizeEA","equaldotanddens","randomdotsizeEA","randomdotsizeEA","equaldotanddens","equaldotsize","equaldotanddens","randomdotsizeEA","equaldotanddens","equaldotsize","equaldotanddens","equaldotsize","equaldotsize","randomdotsizeEA","equaldotsize","equaldotanddens","equaldotsize","equaldotanddens","randomdotsizeEA","equaldotsize","equaldotsize","equaldotsize","randomdotsizeEA","randomdotsizeEA","equaldotsize","randomdotsizeEA"],"ratio_trial":[250,900,500,500,500,750,500,500,750,250,250,250,750,250,900,750,500,750,250,250,250,250,750,250,500,750,750,750,900,900,750,750,750,900,250,750,250,900,250,750,500,250,750,500,750,750,500,900,250,750,250,500,900,750,900,500,750,250,900,900,250,250,250,500,250,900,250,500,500,500,750,500,500,750,900,500,500,900,900,500,500,900,500,500,900,250,500,900,250,500,900,900,250,750,750,500,900,750,900,900,900,500,500,750,750,900,750,250,500,250,750,900,900,250,250,250,900,900,900,750],"smaller_num":["2","18","5","6","5","15","10","5","9","2","6","2","15","6","18","18","10","9","2","2","3","4","3","3","5","18","12","3","18","9","3","9","3","18","6","3","2","9","3","3","2","2","6","9","6","3","1","18","2","6","3","9","9","6","9","1","3","3","9","18","4","4","5","10","1","18","4","5","1","5","6","5","5","3","9","9","2","18","9","2","2","18","4","9","18","3","1","18","2","9","18","9","4","6","3","3","9","18","18","9","18","5","3","18","6","18","3","2","9","3","12","9","18","5","1","2","18","9","9","3"],"larger_num":["8","20","10","12","10","20","20","10","12","8","24","8","20","24","20","24","20","12","8","8","12","16","4","12","10","24","16","4","20","10","4","12","4","20","24","4","8","10","12","4","4","8","8","18","8","4","2","20","8","8","12","18","10","8","10","2","4","12","10","20","16","16","20","20","4","20","16","10","2","10","8","10","10","4","10","18","4","20","10","4","4","20","8","18","20","12","2","20","8","18","20","10","16","8","4","6","10","24","20","10","20","10","6","24","8","20","4","8","18","12","16","10","20","20","4","8","20","10","10","4"],"correct_side":[1,1,2,1,1,2,2,2,2,1,2,1,2,2,1,1,2,2,2,1,2,1,1,2,2,1,2,1,1,1,1,2,1,2,1,1,1,2,1,1,1,1,1,2,2,2,2,2,1,2,2,1,2,1,2,2,1,1,2,1,1,1,2,2,2,1,2,2,2,2,1,2,1,1,2,2,2,1,2,1,1,1,1,1,2,2,2,1,1,2,2,2,2,2,2,2,1,1,1,1,1,1,2,1,1,1,1,2,1,1,2,1,1,2,2,1,2,2,1,1],"img_shown":["img/250/equaldotsize/L/3_Ratio_250_L_8_R_2.png","img/900/equaldotanddens/L/4_Ratio_900_L_20_R_18.png","img/500/randomdotsizeEA/R/14_Ratio_500_L_5_R_10.png","img/500/randomdotsizeEA/L/11_Ratio_500_L_12_R_6.png","img/500/equaldotanddens/L/7_Ratio_500_L_10_R_5.png","img/750/equaldotanddens/R/3_Ratio_750_L_15_R_20.png","img/500/randomdotsizeEA/R/3_Ratio_500_L_10_R_20.png","img/500/randomdotsizeEA/R/14_Ratio_500_L_5_R_10.png","img/750/equaldotanddens/R/15_Ratio_750_L_9_R_12.png","img/250/randomdotsizeEA/L/3_Ratio_250_L_8_R_2.png","img/250/randomdotsizeEA/R/6_Ratio_250_L_6_R_24.png","img/250/equaldotsize/L/1_Ratio_250_L_8_R_2.png","img/750/equaldotanddens/R/5_Ratio_750_L_15_R_20.png","img/250/randomdotsizeEA/R/6_Ratio_250_L_6_R_24.png","img/900/equaldotsize/L/2_Ratio_900_L_20_R_18.png","img/750/equaldotsize/L/6_Ratio_750_L_24_R_18.png","img/500/equaldotanddens/R/3_Ratio_500_L_10_R_20.png","img/750/equaldotsize/R/15_Ratio_750_L_9_R_12.png","img/250/equaldotsize/R/13_Ratio_250_L_2_R_8.png","img/250/randomdotsizeEA/L/3_Ratio_250_L_8_R_2.png","img/250/equaldotanddens/R/11_Ratio_250_L_3_R_12.png","img/250/equaldotsize/L/2_Ratio_250_L_16_R_4.png","img/750/equaldotsize/L/9_Ratio_750_L_4_R_3.png","img/250/equaldotanddens/R/9_Ratio_250_L_3_R_12.png","img/500/equaldotanddens/R/14_Ratio_500_L_5_R_10.png","img/750/equaldotsize/L/6_Ratio_750_L_24_R_18.png","img/750/equaldotanddens/R/11_Ratio_750_L_12_R_16.png","img/750/randomdotsizeEA/L/10_Ratio_750_L_4_R_3.png","img/900/equaldotsize/L/4_Ratio_900_L_20_R_18.png","img/900/equaldotsize/L/1_Ratio_900_L_10_R_9.png","img/750/equaldotanddens/L/9_Ratio_750_L_4_R_3.png","img/750/equaldotanddens/R/15_Ratio_750_L_9_R_12.png","img/750/equaldotanddens/L/10_Ratio_750_L_4_R_3.png","img/900/equaldotsize/R/9_Ratio_900_L_18_R_20.png","img/250/randomdotsizeEA/L/5_Ratio_250_L_24_R_6.png","img/750/randomdotsizeEA/L/10_Ratio_750_L_4_R_3.png","img/250/equaldotanddens/L/3_Ratio_250_L_8_R_2.png","img/900/equaldotanddens/R/3_Ratio_900_L_9_R_10.png","img/250/equaldotsize/L/15_Ratio_250_L_12_R_3.png","img/750/randomdotsizeEA/L/8_Ratio_750_L_4_R_3.png","img/500/randomdotsizeEA/L/5_Ratio_500_L_4_R_2.png","img/250/randomdotsizeEA/L/3_Ratio_250_L_8_R_2.png","img/750/equaldotanddens/L/14_Ratio_750_L_8_R_6.png","img/500/equaldotanddens/R/1_Ratio_500_L_9_R_18.png","img/750/equaldotsize/R/2_Ratio_750_L_6_R_8.png","img/750/randomdotsizeEA/R/7_Ratio_750_L_3_R_4.png","img/500/equaldotsize/R/12_Ratio_500_L_1_R_2.png","img/900/equaldotanddens/R/11_Ratio_900_L_18_R_20.png","img/250/equaldotanddens/L/3_Ratio_250_L_8_R_2.png","img/750/equaldotsize/R/2_Ratio_750_L_6_R_8.png","img/250/equaldotanddens/R/11_Ratio_250_L_3_R_12.png","img/500/randomdotsizeEA/L/4_Ratio_500_L_18_R_9.png","img/900/randomdotsizeEA/R/7_Ratio_900_L_9_R_10.png","img/750/equaldotanddens/L/14_Ratio_750_L_8_R_6.png","img/900/equaldotsize/R/5_Ratio_900_L_9_R_10.png","img/500/equaldotsize/R/15_Ratio_500_L_1_R_2.png","img/750/randomdotsizeEA/L/8_Ratio_750_L_4_R_3.png","img/250/equaldotanddens/L/15_Ratio_250_L_12_R_3.png","img/900/randomdotsizeEA/R/7_Ratio_900_L_9_R_10.png","img/900/randomdotsizeEA/L/4_Ratio_900_L_20_R_18.png","img/250/equaldotsize/L/2_Ratio_250_L_16_R_4.png","img/250/randomdotsizeEA/L/2_Ratio_250_L_16_R_4.png","img/250/randomdotsizeEA/R/12_Ratio_250_L_5_R_20.png","img/500/equaldotsize/R/3_Ratio_500_L_10_R_20.png","img/250/equaldotsize/R/8_Ratio_250_L_1_R_4.png","img/900/equaldotanddens/L/4_Ratio_900_L_20_R_18.png","img/250/equaldotanddens/R/10_Ratio_250_L_4_R_16.png","img/500/equaldotsize/R/14_Ratio_500_L_5_R_10.png","img/500/equaldotsize/R/12_Ratio_500_L_1_R_2.png","img/500/randomdotsizeEA/R/14_Ratio_500_L_5_R_10.png","img/750/randomdotsizeEA/L/14_Ratio_750_L_8_R_6.png","img/500/equaldotsize/R/14_Ratio_500_L_5_R_10.png","img/500/equaldotanddens/L/7_Ratio_500_L_10_R_5.png","img/750/randomdotsizeEA/L/8_Ratio_750_L_4_R_3.png","img/900/randomdotsizeEA/R/3_Ratio_900_L_9_R_10.png","img/500/randomdotsizeEA/R/6_Ratio_500_L_9_R_18.png","img/500/randomdotsizeEA/R/9_Ratio_500_L_2_R_4.png","img/900/equaldotsize/L/4_Ratio_900_L_20_R_18.png","img/900/randomdotsizeEA/R/6_Ratio_900_L_9_R_10.png","img/500/equaldotanddens/L/5_Ratio_500_L_4_R_2.png","img/500/equaldotsize/L/5_Ratio_500_L_4_R_2.png","img/900/equaldotanddens/L/4_Ratio_900_L_20_R_18.png","img/500/equaldotsize/L/8_Ratio_500_L_8_R_4.png","img/500/equaldotanddens/L/4_Ratio_500_L_18_R_9.png","img/900/randomdotsizeEA/R/13_Ratio_900_L_18_R_20.png","img/250/randomdotsizeEA/R/4_Ratio_250_L_3_R_12.png","img/500/equaldotsize/R/12_Ratio_500_L_1_R_2.png","img/900/equaldotsize/L/8_Ratio_900_L_20_R_18.png","img/250/equaldotanddens/L/7_Ratio_250_L_8_R_2.png","img/500/equaldotanddens/R/6_Ratio_500_L_9_R_18.png","img/900/equaldotanddens/R/14_Ratio_900_L_18_R_20.png","img/900/equaldotanddens/R/6_Ratio_900_L_9_R_10.png","img/250/equaldotanddens/R/10_Ratio_250_L_4_R_16.png","img/750/equaldotsize/R/2_Ratio_750_L_6_R_8.png","img/750/randomdotsizeEA/R/7_Ratio_750_L_3_R_4.png","img/500/equaldotanddens/R/2_Ratio_500_L_3_R_6.png","img/900/randomdotsizeEA/L/1_Ratio_900_L_10_R_9.png","img/750/randomdotsizeEA/L/6_Ratio_750_L_24_R_18.png","img/900/equaldotanddens/L/8_Ratio_900_L_20_R_18.png","img/900/equaldotsize/L/1_Ratio_900_L_10_R_9.png","img/900/equaldotanddens/L/10_Ratio_900_L_20_R_18.png","img/500/randomdotsizeEA/L/7_Ratio_500_L_10_R_5.png","img/500/equaldotanddens/R/2_Ratio_500_L_3_R_6.png","img/750/equaldotsize/L/6_Ratio_750_L_24_R_18.png","img/750/equaldotanddens/L/14_Ratio_750_L_8_R_6.png","img/900/equaldotsize/L/10_Ratio_900_L_20_R_18.png","img/750/equaldotsize/L/8_Ratio_750_L_4_R_3.png","img/250/randomdotsizeEA/R/13_Ratio_250_L_2_R_8.png","img/500/equaldotsize/L/4_Ratio_500_L_18_R_9.png","img/250/equaldotanddens/L/14_Ratio_250_L_12_R_3.png","img/750/equaldotsize/R/11_Ratio_750_L_12_R_16.png","img/900/equaldotanddens/L/1_Ratio_900_L_10_R_9.png","img/900/randomdotsizeEA/L/2_Ratio_900_L_20_R_18.png","img/250/equaldotsize/R/12_Ratio_250_L_5_R_20.png","img/250/equaldotsize/R/8_Ratio_250_L_1_R_4.png","img/250/equaldotsize/L/3_Ratio_250_L_8_R_2.png","img/900/randomdotsizeEA/R/13_Ratio_900_L_18_R_20.png","img/900/randomdotsizeEA/R/6_Ratio_900_L_9_R_10.png","img/900/equaldotsize/L/1_Ratio_900_L_10_R_9.png","img/750/randomdotsizeEA/L/8_Ratio_750_L_4_R_3.png"],"Rat0":[["12_Ratio_0_L_9_R_0.png","13_Ratio_0_L_6_R_0.png","5_Ratio_0_L_2_R_0.png","6_Ratio_0_L_4_R_0.png","8_Ratio_0_L_6_R_0.png"],["1_Ratio_0_L_0_R_17.png","10_Ratio_0_L_0_R_22.png","11_Ratio_0_L_0_R_1.png","14_Ratio_0_L_0_R_24.png","15_Ratio_0_L_0_R_4.png","2_Ratio_0_L_0_R_5.png","3_Ratio_0_L_0_R_17.png","4_Ratio_0_L_0_R_7.png","7_Ratio_0_L_0_R_19.png","9_Ratio_0_L_0_R_15.png"]],"Rat250":[["1_Ratio_250_L_8_R_2.png","14_Ratio_250_L_12_R_3.png","15_Ratio_250_L_12_R_3.png","2_Ratio_250_L_16_R_4.png","3_Ratio_250_L_8_R_2.png","5_Ratio_250_L_24_R_6.png","7_Ratio_250_L_8_R_2.png"],["10_Ratio_250_L_4_R_16.png","11_Ratio_250_L_3_R_12.png","12_Ratio_250_L_5_R_20.png","13_Ratio_250_L_2_R_8.png","4_Ratio_250_L_3_R_12.png","6_Ratio_250_L_6_R_24.png","8_Ratio_250_L_1_R_4.png","9_Ratio_250_L_3_R_12.png"]],"Rat500":[["10_Ratio_500_L_4_R_2.png","11_Ratio_500_L_12_R_6.png","13_Ratio_500_L_12_R_6.png","4_Ratio_500_L_18_R_9.png","5_Ratio_500_L_4_R_2.png","7_Ratio_500_L_10_R_5.png","8_Ratio_500_L_8_R_4.png"],["1_Ratio_500_L_9_R_18.png","12_Ratio_500_L_1_R_2.png","14_Ratio_500_L_5_R_10.png","15_Ratio_500_L_1_R_2.png","2_Ratio_500_L_3_R_6.png","3_Ratio_500_L_10_R_20.png","6_Ratio_500_L_9_R_18.png","9_Ratio_500_L_2_R_4.png"]],"Rat750":[["1_Ratio_750_L_20_R_15.png","10_Ratio_750_L_4_R_3.png","13_Ratio_750_L_8_R_6.png","14_Ratio_750_L_8_R_6.png","6_Ratio_750_L_24_R_18.png","8_Ratio_750_L_4_R_3.png","9_Ratio_750_L_4_R_3.png"],["11_Ratio_750_L_12_R_16.png","12_Ratio_750_L_3_R_4.png","15_Ratio_750_L_9_R_12.png","2_Ratio_750_L_6_R_8.png","3_Ratio_750_L_15_R_20.png","4_Ratio_750_L_15_R_20.png","5_Ratio_750_L_15_R_20.png","7_Ratio_750_L_3_R_4.png"]],"Rat900":[["1_Ratio_900_L_10_R_9.png","10_Ratio_900_L_20_R_18.png","2_Ratio_900_L_20_R_18.png","4_Ratio_900_L_20_R_18.png","8_Ratio_900_L_20_R_18.png"],["11_Ratio_900_L_18_R_20.png","12_Ratio_900_L_18_R_20.png","13_Ratio_900_L_18_R_20.png","14_Ratio_900_L_18_R_20.png","15_Ratio_900_L_9_R_10.png","3_Ratio_900_L_9_R_10.png","5_Ratio_900_L_9_R_10.png","6_Ratio_900_L_9_R_10.png","7_Ratio_900_L_9_R_10.png","9_Ratio_900_L_18_R_20.png"]],"Rat1000":[["10_Ratio_1000_L_16_R_16.png","11_Ratio_1000_L_6_R_6.png","12_Ratio_1000_L_14_R_14.png","13_Ratio_1000_L_20_R_20.png","15_Ratio_1000_L_15_R_15.png","2_Ratio_1000_L_17_R_17.png","4_Ratio_1000_L_9_R_9.png","5_Ratio_1000_L_6_R_6.png","6_Ratio_1000_L_19_R_19.png","8_Ratio_1000_L_14_R_14.png","9_Ratio_1000_L_25_R_25.png"],["1_Ratio_1000_L_1_R_1.png","14_Ratio_1000_L_17_R_17.png","3_Ratio_1000_L_17_R_17.png","7_Ratio_1000_L_6_R_6.png"]]}},{"start_time":1551900608415,"click_time":1551900609984,"finger_time":1551900609664,"fix_duration":510.333767830774,"trial":1,"RT":1249,"MT":320,"sideResp":1,"stimulus":"img/900/equaldotanddens/L/4_Ratio_900_L_20_R_18.png","xmouse":[758,758,758,758,758,758,758,758,758,758,758,758,758,758,758,758,758,758,758,758,758,758,758,758,758,758,758,758,758,758,758,758,758,758,758,758,758,758,758,758,758,758,758,758,758,758,758,758,758,758,758,758,758,758,758,758,758,758,758,758,757,754,741,728,711,697,687,664,648,638,626,619,601,584,575,567,557,529,514],"ymouse":[505,505,505,505,505,505,505,505,505,505,505,505,505,505,505,505,505,505,505,505,505,505,505,505,505,505,505,505,505,505,505,505,505,505,505,505,505,505,505,505,505,505,505,505,505,505,505,505,505,505,505,505,505,505,505,505,505,505,502,500,497,490,462,438,405,381,356,309,276,249,224,202,163,136,124,113,103,82,71],"timestamp_mouse":[7,28,48,67,87,109,129,148,168,188,208,228,248,268,288,308,328,348,368,388,407,427,447,467,488,507,527,547,567,587,607,627,647,667,687,707,727,748,767,787,808,827,847,867,888,908,927,948,967,989,1008,1028,1048,1068,1088,1109,1128,1149,1168,1189,1209,1228,1249,1268,1288,1308,1329,1348,1368,1388,1408,1428,1448,1468,1489,1508,1528,1548,1569],"xSR":741.5,"ySR":469.95,"xT1":424.9,"yT1":0,"xT2":1058.1,"yT2":0,"toosoon":0,"cond_shown":"equaldotanddens","ratio_trial":900,"smaller_num":"18","larger_num":"20","correct_side":1,"subjID":"juanitalopez21","gender":"1","age":"11","school":"6"},{"start_time":1551900611315,"click_time":1551900612804,"finger_time":1551900612244,"fix_duration":250,"trial":2,"RT":929,"MT":560,"sideResp":1,"stimulus":"img/500/randomdotsizeEA/R/14_Ratio_500_L_5_R_10.png","xmouse":[764,764,764,764,764,764,764,764,764,764,764,764,764,764,764,764,764,764,764,764,764,764,764,764,764,764,764,764,764,764,764,764,764,764,764,764,764,763,762,762,760,756,754,753,751,746,740,720,711,697,680,663,634,620,603,586,568,541,531,524,517,516,516,515,515,515,515,516,516,516,515,512,509,506,500],"ymouse":[501,501,501,501,501,501,501,501,501,501,501,501,501,501,501,501,501,501,501,501,501,501,501,501,501,501,501,501,501,501,501,501,501,501,501,501,501,500,499,497,496,490,487,486,483,478,471,453,445,432,417,401,367,348,329,308,285,243,225,208,192,184,171,165,159,153,147,136,131,125,118,113,105,100,92],"timestamp_mouse":[11,28,49,68,88,108,128,148,168,188,208,228,248,268,288,308,329,348,369,388,408,428,448,469,488,508,528,548,568,588,608,627,647,667,687,708,727,747,767,787,807,827,847,868,888,907,929,947,967,987,1009,1028,1048,1068,1088,1109,1128,1147,1169,1188,1208,1228,1248,1268,1288,1308,1329,1347,1368,1388,1408,1428,1448,1468,1489],"xSR":741.5,"ySR":469.95,"xT1":424.9,"yT1":0,"xT2":1058.1,"yT2":0,"toosoon":0,"cond_shown":"randomdotsizeEA","ratio_trial":500,"smaller_num":"5","larger_num":"10","correct_side":2,"subjID":"juanitalopez21","gender":"1","age":"11","school":"6"},{"start_time":1551900616314,"click_time":1551900618443,"finger_time":1551900617842,"fix_duration":250,"trial":3,"RT":1528,"MT":601,"sideResp":1,"stimulus":"img/500/randomdotsizeEA/L/11_Ratio_500_L_12_R_6.png","xmouse":[760,760,760,760,760,760,760,760,760,760,760,760,760,760,760,760,760,760,760,760,760,760,760,760,760,760,760,760,760,760,760,760,760,760,760,760,760,760,760,760,760,760,760,760,760,760,760,760,760,760,760,760,760,760,760,760,760,760,760,760,760,760,760,760,760,760,760,760,760,760,760,760,760,760,760,751,736,719,675,663,653,647,639,635,631,624,613,602,579,569,557,550,543,536,536,536,536,535,535,535,535,535,534,532,530,525,518],"ymouse":[505,505,505,505,505,505,505,505,505,505,505,505,505,505,505,505,505,505,505,505,505,505,505,505,505,505,505,505,505,505,505,505,505,505,505,505,505,505,505,505,505,505,505,505,505,505,505,505,505,505,505,505,505,505,505,505,505,505,505,505,505,505,505,505,505,505,505,505,505,505,505,505,505,505,505,491,475,455,387,364,347,331,299,281,261,236,216,198,154,131,110,92,77,62,62,62,62,62,62,62,62,62,62,62,62,61,58],"timestamp_mouse":[9,30,49,69,89,108,129,149,169,189,209,229,249,270,290,309,329,350,369,389,409,430,449,469,489,509,529,549,568,588,608,630,650,669,689,709,729,749,769,790,809,830,850,869,889,908,928,948,968,988,1008,1029,1050,1070,1090,1109,1130,1149,1170,1189,1210,1228,1250,1269,1290,1309,1329,1349,1369,1389,1409,1429,1450,1470,1489,1508,1528,1548,1568,1588,1608,1628,1650,1669,1688,1708,1729,1750,1769,1789,1809,1829,1850,1869,1889,1909,1929,1950,1969,1989,2009,2029,2050,2069,2090,2109,2129],"xSR":741.5,"ySR":469.95,"xT1":424.9,"yT1":0,"xT2":1058.1,"yT2":0,"toosoon":0,"cond_shown":"randomdotsizeEA","ratio_trial":500,"smaller_num":"6","larger_num":"12","correct_side":1,"subjID":"juanitalopez21","gender":"1","age":"11","school":"6"},{"start_time":1551900620091,"click_time":1551900621462,"finger_time":1551900620943,"fix_duration":686.3677008373153,"trial":4,"RT":852,"MT":519,"sideResp":1,"stimulus":"img/500/equaldotanddens/L/7_Ratio_500_L_10_R_5.png","xmouse":[778,778,778,778,778,778,778,778,778,778,778,778,778,778,778,778,778,778,778,778,778,778,778,778,778,778,778,778,778,778,778,778,778,778,778,778,778,778,778,778,774,766,757,741,675,642,615,596,586,581,581,581,581,581,578,576,573,570,569,566,562,557,552,545,526,525,524,522,519],"ymouse":[492,492,492,492,492,492,492,492,492,492,492,492,492,492,492,492,492,492,492,492,492,492,492,492,492,492,492,492,492,492,492,492,492,492,492,492,492,492,492,491,485,477,464,448,370,324,276,240,208,172,162,155,151,146,135,130,126,123,122,122,124,125,125,125,115,112,109,104,98],"timestamp_mouse":[12,32,53,74,92,113,132,151,172,192,212,232,253,272,293,312,332,353,373,392,412,432,453,472,492,512,532,552,572,592,612,632,653,672,692,712,732,753,772,792,812,832,852,872,892,912,932,953,972,992,1012,1032,1053,1072,1092,1112,1132,1151,1171,1191,1211,1231,1252,1271,1291,1311,1331,1351,1371],"xSR":741.5,"ySR":469.95,"xT1":424.9,"yT1":0,"xT2":1058.1,"yT2":0,"toosoon":0,"cond_shown":"equaldotanddens","ratio_trial":500,"smaller_num":"5","larger_num":"10","correct_side":1,"subjID":"juanitalopez21","gender":"1","age":"11","school":"6"},{"start_time":1551900622914,"click_time":1551900624123,"finger_time":1551900623623,"fix_duration":250,"trial":5,"RT":709,"MT":500,"sideResp":2,"stimulus":"img/750/equaldotanddens/R/3_Ratio_750_L_15_R_20.png","xmouse":[798,798,798,798,798,798,798,798,798,798,798,798,798,798,798,798,798,798,798,798,798,798,798,798,798,798,798,798,798,798,798,799,800,818,834,853,871,893,912,949,965,986,993,1012,1032,1042,1050,1057,1063,1075,1082,1091,1094,1100,1102,1102,1102,1102,1102,1102,1102],"ymouse":[517,517,517,517,517,517,517,517,517,517,517,517,517,517,517,517,517,517,517,517,517,517,517,517,517,517,517,517,517,517,517,515,514,496,485,467,450,433,417,379,360,330,321,293,257,243,227,211,197,174,164,149,144,131,120,116,111,106,101,100,99],"timestamp_mouse":[9,40,49,70,89,110,129,150,170,189,209,229,248,268,288,308,328,348,368,388,408,428,448,468,488,508,528,548,568,588,609,629,649,669,689,709,730,749,769,790,809,829,849,869,889,910,929,949,969,989,1010,1029,1049,1069,1089,1109,1129,1149,1169,1188,1209],"xSR":741.5,"ySR":469.95,"xT1":424.9,"yT1":0,"xT2":1058.1,"yT2":0,"toosoon":0,"cond_shown":"equaldotanddens","ratio_trial":750,"smaller_num":"15","larger_num":"20","correct_side":2,"subjID":"juanitalopez21","gender":"1","age":"11","school":"6"},{"start_time":1551900626033,"click_time":1551900627524,"finger_time":1551900626964,"fix_duration":848.1418314075697,"trial":6,"RT":931,"MT":560,"sideResp":2,"stimulus":"img/500/randomdotsizeEA/R/3_Ratio_500_L_10_R_20.png","xmouse":[795,795,795,795,795,795,795,795,795,795,795,795,795,795,795,795,795,795,795,795,795,795,795,795,795,795,795,795,795,795,795,795,795,795,795,795,795,795,795,795,795,795,796,807,812,835,853,905,931,960,979,992,1001,1013,1014,1016,1018,1019,1019,1019,1021,1021,1025,1029,1041,1051,1062,1072,1088,1093,1098,1101,1104,1109,1110],"ymouse":[525,525,525,525,525,525,525,525,525,525,525,525,525,525,525,525,525,525,525,525,525,525,525,525,525,525,525,525,525,525,525,525,525,525,525,525,525,525,525,525,525,525,525,513,508,484,464,400,368,338,316,297,279,236,230,217,213,207,205,205,202,201,194,187,174,164,153,143,129,123,118,114,110,101,98],"timestamp_mouse":[14,40,50,70,89,111,130,150,171,190,210,230,250,270,289,309,329,350,370,390,410,430,451,471,490,511,529,549,570,590,610,630,650,670,690,710,730,749,770,789,809,829,850,870,890,909,931,951,969,991,1010,1031,1051,1070,1091,1110,1130,1151,1170,1190,1210,1230,1252,1270,1290,1310,1331,1351,1370,1390,1410,1430,1451,1470,1491],"xSR":741.5,"ySR":469.95,"xT1":424.9,"yT1":0,"xT2":1058.1,"yT2":0,"toosoon":0,"cond_shown":"randomdotsizeEA","ratio_trial":500,"smaller_num":"10","larger_num":"20","correct_side":2,"subjID":"juanitalopez21","gender":"1","age":"11","school":"6"},{"start_time":1551900628915,"click_time":1551900630443,"finger_time":1551900629803,"fix_duration":250,"trial":7,"RT":888,"MT":640,"sideResp":2,"stimulus":"img/500/randomdotsizeEA/R/14_Ratio_500_L_5_R_10.png","xmouse":[800,800,800,800,800,800,800,800,800,800,800,800,800,800,800,800,800,800,800,800,800,800,800,800,800,800,800,800,800,800,800,800,800,800,800,800,800,800,800,800,800,798,790,781,768,765,763,761,760,760,760,760,760,760,762,773,794,824,868,1006,1078,1140,1195,1230,1258,1262,1263,1263,1263,1263,1263,1263,1263,1263,1263,1263,1133],"ymouse":[525,525,525,525,525,525,525,525,525,525,525,525,525,525,525,525,525,525,525,525,525,525,525,525,525,525,525,525,525,525,525,525,525,525,525,525,525,525,525,522,517,510,496,481,461,453,449,447,445,445,445,445,445,445,444,439,432,417,392,290,231,175,126,81,26,8,2,2,2,2,2,2,2,2,2,2,18],"timestamp_mouse":[12,32,47,68,88,108,129,149,168,188,208,228,248,269,288,308,329,348,368,388,408,429,448,468,488,508,528,548,569,588,607,627,648,668,688,708,728,749,769,788,808,828,849,869,888,908,929,949,969,989,1009,1028,1048,1068,1088,1108,1128,1148,1168,1188,1208,1228,1247,1267,1287,1308,1327,1348,1367,1388,1407,1427,1447,1467,1488,1507,1528],"xSR":741.5,"ySR":469.95,"xT1":424.9,"yT1":0,"xT2":1058.1,"yT2":0,"toosoon":0,"cond_shown":"randomdotsizeEA","ratio_trial":500,"smaller_num":"5","larger_num":"10","correct_side":2,"subjID":"juanitalopez21","gender":"1","age":"11","school":"6"},{"start_time":1551900631954,"click_time":1551900633483,"finger_time":1551900633043,"fix_duration":250,"trial":8,"RT":1089,"MT":440,"sideResp":2,"stimulus":"img/750/equaldotanddens/R/15_Ratio_750_L_9_R_12.png","xmouse":[777,777,777,777,777,777,777,777,777,777,777,777,777,777,777,777,777,777,777,777,777,777,777,777,777,777,777,777,777,777,777,777,777,777,777,777,777,777,777,777,777,777,777,777,777,777,777,777,777,777,779,783,802,817,836,890,917,981,1003,1023,1039,1053,1074,1082,1088,1093,1095,1096,1097,1097,1097,1097,1097,1099,1099,1099,1100],"ymouse":[527,527,527,527,527,527,527,527,527,527,527,527,527,527,527,527,527,527,527,527,527,527,527,527,527,527,527,527,527,527,527,527,527,527,527,527,527,527,527,527,527,527,527,527,527,527,527,527,527,527,524,521,502,484,462,410,379,307,280,250,228,207,168,154,144,130,126,122,121,120,120,119,119,115,111,104,98],"timestamp_mouse":[10,34,49,69,90,109,130,149,170,189,209,229,249,269,290,309,329,349,369,390,409,429,449,469,490,510,528,549,568,588,608,628,648,668,688,708,728,748,768,789,808,828,850,869,888,908,930,949,969,989,1009,1029,1049,1069,1089,1109,1129,1149,1168,1189,1209,1229,1250,1270,1290,1309,1329,1349,1369,1389,1409,1429,1449,1469,1489,1509,1529],"xSR":741.5,"ySR":469.95,"xT1":424.9,"yT1":0,"xT2":1058.1,"yT2":0,"toosoon":0,"cond_shown":"equaldotanddens","ratio_trial":750,"smaller_num":"9","larger_num":"12","correct_side":2,"subjID":"juanitalopez21","gender":"1","age":"11","school":"6"},{"start_time":1551900635001,"click_time":1551900636263,"finger_time":1551900635743,"fix_duration":457.22192224127224,"trial":9,"RT":742,"MT":520,"sideResp":1,"stimulus":"img/250/randomdotsizeEA/L/3_Ratio_250_L_8_R_2.png","xmouse":[807,807,807,807,807,807,807,807,807,807,807,807,807,807,807,807,807,807,807,807,807,807,807,807,807,807,807,807,807,807,807,807,807,805,799,789,758,741,723,705,690,658,647,638,631,625,620,617,616,613,609,605,601,595,589,582,579,575,570,564,551,542,536,521],"ymouse":[521,521,521,521,521,521,521,521,521,521,521,521,521,521,521,521,521,521,521,521,521,521,521,521,521,521,521,521,521,521,521,521,521,520,514,507,480,464,446,421,397,340,315,291,270,249,220,209,198,189,178,172,166,157,152,143,140,136,131,127,115,107,104,92],"timestamp_mouse":[10,23,48,62,83,102,122,142,162,182,203,223,242,263,282,302,323,342,362,382,403,423,442,462,482,502,522,542,562,582,603,622,641,661,682,701,721,742,761,781,802,821,841,861,881,903,922,942,963,982,1003,1021,1042,1062,1082,1103,1121,1142,1163,1182,1203,1222,1242,1262],"xSR":741.5,"ySR":469.95,"xT1":424.9,"yT1":0,"xT2":1058.1,"yT2":0,"toosoon":0,"cond_shown":"randomdotsizeEA","ratio_trial":250,"smaller_num":"2","larger_num":"8","correct_side":1,"subjID":"juanitalopez21","gender":"1","age":"11","school":"6"},{"start_time":1551900638507,"click_time":1551900639463,"finger_time":1551900639283,"fix_duration":1164.7202166045076,"trial":10,"RT":776,"MT":180,"sideResp":2,"stimulus":"img/250/randomdotsizeEA/R/6_Ratio_250_L_6_R_24.png","xmouse":[753,754,756,757,758,759,760,760,760,761,761,761,761,761,761,761,761,761,761,761,761,761,761,761,761,761,761,761,761,761,761,761,761,762,763,772,784,799,818,840,905,938,961,985,1015,1052,1062,1070],"ymouse":[515,515,515,515,516,516,516,516,516,516,516,516,516,516,516,516,516,516,516,516,516,516,516,516,516,516,516,516,516,516,516,516,516,516,516,508,496,481,462,442,366,324,284,244,201,130,108,90],"timestamp_mouse":[17,37,57,76,97,115,135,155,175,195,215,235,255,275,295,316,335,355,375,395,416,436,455,476,496,516,537,556,576,597,616,636,656,676,696,716,735,755,776,796,816,836,855,875,895,915,937,956],"xSR":741.5,"ySR":469.95,"xT1":424.9,"yT1":0,"xT2":1058.1,"yT2":0,"toosoon":0,"cond_shown":"randomdotsizeEA","ratio_trial":250,"smaller_num":"6","larger_num":"24","correct_side":2,"subjID":"juanitalopez21","gender":"1","age":"11","school":"6"},{"start_time":1551900663561,"click_time":1551900665143,"finger_time":1551900664283,"fix_duration":1415.867413454028,"trial":11,"RT":722,"MT":860,"sideResp":1,"stimulus":"img/250/equaldotsize/L/1_Ratio_250_L_8_R_2.png","xmouse":[774,774,774,774,774,774,774,774,774,774,774,774,774,774,774,774,774,774,774,774,774,774,774,774,774,774,774,774,774,774,775,777,783,787,788,788,770,758,748,739,729,691,670,649,628,609,592,591,590,588,588,585,583,580,577,575,569,565,561,560,563,559,552,547,544,544,543,540,537,534,526,506,502,497,493,493,493,493,493,493],"ymouse":[545,545,545,545,545,545,545,545,545,545,545,545,545,545,545,545,545,545,545,545,545,545,545,545,545,545,545,545,545,545,543,537,524,510,494,476,443,428,420,412,404,381,369,354,338,321,304,301,297,294,292,286,282,277,271,263,240,219,195,174,151,124,111,102,99,98,99,103,108,112,116,119,119,119,118,115,108,105,100,97],"timestamp_mouse":[10,33,42,62,82,103,123,142,162,183,203,221,241,261,281,302,321,342,361,382,401,421,441,463,481,501,522,543,563,582,602,623,642,662,682,702,722,742,762,782,802,823,842,862,882,902,922,943,962,982,1002,1022,1041,1061,1081,1102,1122,1141,1161,1181,1201,1222,1241,1261,1281,1302,1322,1343,1363,1382,1402,1421,1442,1462,1482,1502,1522,1543,1562,1582],"xSR":741.5,"ySR":469.95,"xT1":424.9,"yT1":0,"xT2":1058.1,"yT2":0,"toosoon":0,"cond_shown":"equaldotsize","ratio_trial":250,"smaller_num":"2","larger_num":"8","correct_side":1,"subjID":"juanitalopez21","gender":"1","age":"11","school":"6"},{"start_time":1551900667666,"click_time":1551900669063,"finger_time":1551900668382,"fix_duration":821.3411685858006,"trial":12,"RT":716,"MT":681,"sideResp":2,"stimulus":"img/750/equaldotanddens/R/5_Ratio_750_L_15_R_20.png","xmouse":[780,780,780,780,780,780,780,780,780,780,780,780,780,780,780,780,780,780,780,780,780,780,780,780,780,780,780,780,780,780,780,780,780,786,800,843,870,895,919,941,957,978,987,992,998,1004,1008,1017,1023,1030,1036,1037,1040,1040,1040,1041,1041,1042,1043,1044,1045,1049,1054,1058,1062,1069,1073,1075,1078,1079],"ymouse":[502,502,502,502,502,502,502,502,502,502,502,502,502,502,502,502,502,502,502,502,502,502,502,502,502,502,502,502,502,502,502,502,502,498,489,469,453,439,424,410,396,377,370,363,354,339,327,309,289,268,224,210,190,185,170,157,152,147,144,141,138,134,131,129,125,117,114,110,106,98],"timestamp_mouse":[17,38,58,77,97,118,138,157,177,197,217,237,257,277,298,317,338,357,377,397,417,437,457,477,497,517,538,557,577,597,617,637,658,677,698,716,737,756,776,796,817,836,856,877,896,917,938,957,977,997,1017,1036,1057,1078,1097,1117,1137,1157,1178,1197,1217,1237,1258,1277,1297,1318,1337,1357,1377,1397],"xSR":741.5,"ySR":469.95,"xT1":424.9,"yT1":0,"xT2":1058.1,"yT2":0,"toosoon":0,"cond_shown":"equaldotanddens","ratio_trial":750,"smaller_num":"15","larger_num":"20","correct_side":2,"subjID":"juanitalopez21","gender":"1","age":"11","school":"6"},{"start_time":1551900671283,"click_time":1551900672624,"finger_time":1551900672103,"fix_duration":1098.6045200577007,"trial":13,"RT":820,"MT":521,"sideResp":2,"stimulus":"img/250/randomdotsizeEA/R/6_Ratio_250_L_6_R_24.png","xmouse":[799,799,799,799,799,799,799,799,799,799,799,799,799,799,799,799,799,799,799,799,799,799,799,799,799,799,799,799,799,799,799,799,799,799,801,803,819,829,834,837,841,848,860,871,884,896,923,941,962,984,1003,1029,1035,1037,1039,1039,1043,1046,1047,1049,1049,1052,1053,1057,1061,1067,1072,1076],"ymouse":[516,516,516,516,516,516,516,516,516,516,516,516,516,516,516,516,516,516,516,516,516,516,516,516,516,516,516,516,516,516,516,516,516,516,513,513,505,502,498,494,489,479,465,449,428,408,364,333,294,258,227,180,169,162,157,154,151,149,147,145,141,136,134,129,125,112,105,99],"timestamp_mouse":[18,44,45,59,80,100,120,140,160,181,201,221,241,261,281,301,320,340,361,380,401,420,441,460,480,501,520,540,559,579,599,619,640,659,679,701,720,741,760,780,800,820,840,860,881,900,920,941,960,980,1001,1020,1040,1060,1081,1101,1120,1140,1160,1180,1200,1220,1240,1260,1281,1301,1319,1341],"xSR":741.5,"ySR":469.95,"xT1":424.9,"yT1":0,"xT2":1058.1,"yT2":0,"toosoon":0,"cond_shown":"randomdotsizeEA","ratio_trial":250,"smaller_num":"6","larger_num":"24","correct_side":2,"subjID":"juanitalopez21","gender":"1","age":"11","school":"6"},{"start_time":1551900674812,"click_time":1551900675943,"finger_time":1551900675802,"fix_duration":1267.837989514717,"trial":14,"RT":990,"MT":141,"sideResp":1,"stimulus":"img/900/equaldotsize/L/2_Ratio_900_L_20_R_18.png","xmouse":[793,793,793,793,793,793,793,793,793,793,793,793,793,793,793,793,793,793,793,793,793,793,793,793,793,793,793,793,793,793,793,793,793,793,793,793,793,793,793,793,793,793,793,793,790,785,779,772,763,732,705,673,630,597,551,535,513],"ymouse":[520,520,520,520,520,520,520,520,520,520,520,520,520,520,520,520,520,520,520,520,520,520,520,520,520,520,520,520,520,520,520,520,520,520,520,520,520,520,520,520,520,520,520,520,519,513,504,493,479,429,379,328,244,202,142,118,94],"timestamp_mouse":[11,32,51,70,90,110,131,151,171,192,212,231,251,271,291,311,331,351,371,391,412,431,452,471,491,512,531,552,571,591,611,631,651,671,691,711,732,751,772,791,811,831,852,871,891,911,931,950,972,990,1011,1030,1050,1070,1091,1111,1131],"xSR":741.5,"ySR":469.95,"xT1":424.9,"yT1":0,"xT2":1058.1,"yT2":0,"toosoon":0,"cond_shown":"equaldotsize","ratio_trial":900,"smaller_num":"18","larger_num":"20","correct_side":1,"subjID":"juanitalopez21","gender":"1","age":"11","school":"6"},{"start_time":1551900677394,"click_time":1551900678562,"finger_time":1551900678184,"fix_duration":250,"trial":15,"RT":790,"MT":378,"sideResp":1,"stimulus":"img/750/equaldotsize/L/6_Ratio_750_L_24_R_18.png","xmouse":[786,786,786,786,786,786,786,786,786,786,786,786,786,786,786,786,786,786,786,786,786,786,786,786,786,786,786,786,786,786,786,786,786,784,782,779,777,773,764,752,723,708,686,661,636,618,599,592,586,577,568,552,544,530,524,507,498,491,483],"ymouse":[504,504,504,504,504,504,504,504,504,504,504,504,504,504,504,504,504,504,504,504,504,504,504,504,504,504,504,504,504,504,504,504,504,502,501,498,494,486,473,455,416,393,359,324,294,270,242,229,218,206,196,181,173,157,150,127,117,107,99],"timestamp_mouse":[9,28,48,68,88,109,129,148,169,189,208,228,248,268,288,309,328,348,368,388,409,428,448,468,488,508,529,549,569,589,609,629,649,669,689,709,729,749,769,790,809,830,849,869,889,909,929,948,969,989,1009,1028,1048,1068,1088,1109,1128,1148,1168],"xSR":741.5,"ySR":469.95,"xT1":424.9,"yT1":0,"xT2":1058.1,"yT2":0,"toosoon":0,"cond_shown":"equaldotsize","ratio_trial":750,"smaller_num":"18","larger_num":"24","correct_side":1,"subjID":"juanitalopez21","gender":"1","age":"11","school":"6"},{"start_time":1551900680158,"click_time":1551900681123,"finger_time":1551900680782,"fix_duration":753.4397113833367,"trial":16,"RT":624,"MT":341,"sideResp":2,"stimulus":"img/500/equaldotanddens/R/3_Ratio_500_L_10_R_20.png","xmouse":[797,797,797,797,797,797,797,797,797,797,797,797,797,797,797,797,797,797,797,797,797,797,797,797,797,797,797,798,804,813,824,843,885,924,952,980,1007,1043,1051,1055,1055,1055,1055,1055,1055,1055,1055,1057,1060],"ymouse":[499,499,499,499,499,499,499,499,499,499,499,499,499,499,499,499,499,499,499,499,499,499,499,499,499,499,499,498,492,482,470,448,366,290,237,185,144,91,80,73,70,67,65,63,63,63,63,63,63],"timestamp_mouse":[4,24,44,64,84,104,124,145,164,184,204,225,245,264,285,304,324,344,364,384,404,424,444,464,484,505,524,544,564,584,604,624,646,664,684,704,724,746,764,786,805,825,846,865,885,905,925,946,965],"xSR":741.5,"ySR":469.95,"xT1":424.9,"yT1":0,"xT2":1058.1,"yT2":0,"toosoon":0,"cond_shown":"equaldotanddens","ratio_trial":500,"smaller_num":"10","larger_num":"20","correct_side":2,"subjID":"juanitalopez21","gender":"1","age":"11","school":"6"},{"start_time":1551900682928,"click_time":1551900684342,"finger_time":1551900683842,"fix_duration":803.0106563636436,"trial":17,"RT":914,"MT":500,"sideResp":2,"stimulus":"img/750/equaldotsize/R/15_Ratio_750_L_9_R_12.png","xmouse":[819,819,819,819,819,819,819,819,819,819,819,819,819,819,819,819,819,819,819,819,819,819,819,819,819,819,819,819,819,819,819,819,819,819,819,819,819,819,819,819,819,819,819,820,839,856,874,904,949,1035,1078,1107,1131,1160,1177,1178,1178,1178,1178,1172,1168,1161,1153,1144,1140,1133,1130,1129,1129,1130,1130],"ymouse":[511,511,511,511,511,511,511,511,511,511,511,511,511,511,511,511,511,511,511,511,511,511,511,511,511,511,511,511,511,511,511,511,511,511,511,511,511,511,511,511,511,511,509,506,474,454,431,400,353,271,243,221,206,188,173,171,170,169,169,163,160,158,153,147,144,132,124,117,113,102,99],"timestamp_mouse":[14,46,54,74,95,114,134,154,174,195,215,235,255,274,295,314,334,355,374,394,414,434,454,475,495,514,534,554,574,594,615,635,654,675,694,714,734,754,774,794,815,834,854,874,894,914,934,954,974,995,1014,1035,1054,1076,1096,1114,1135,1155,1175,1194,1216,1235,1254,1274,1294,1314,1335,1354,1374,1395,1414],"xSR":741.5,"ySR":469.95,"xT1":424.9,"yT1":0,"xT2":1058.1,"yT2":0,"toosoon":0,"cond_shown":"equaldotsize","ratio_trial":750,"smaller_num":"9","larger_num":"12","correct_side":2,"subjID":"juanitalopez21","gender":"1","age":"11","school":"6"},{"start_time":1551900698624,"click_time":1551900699763,"finger_time":1551900699443,"fix_duration":618.5215786692936,"trial":18,"RT":819,"MT":320,"sideResp":2,"stimulus":"img/250/equaldotsize/R/13_Ratio_250_L_2_R_8.png","xmouse":[775,775,775,775,775,775,775,775,775,775,775,775,775,775,775,775,775,775,775,775,775,775,775,775,775,775,775,775,775,775,775,775,775,775,775,775,775,775,779,785,812,845,880,892,905,921,938,961,968,977,987,994,1021,1029,1041,1062,1082,1119],"ymouse":[522,522,522,522,522,522,522,522,522,522,522,522,522,522,522,522,522,522,522,522,522,522,522,522,522,522,522,522,522,522,522,522,522,522,522,522,522,522,521,515,492,462,432,421,410,393,374,344,329,317,302,287,246,228,208,173,145,84],"timestamp_mouse":[1,20,48,58,78,98,119,139,159,179,199,220,240,260,279,299,319,339,360,379,398,418,439,458,478,498,519,539,558,578,598,618,638,658,678,699,718,738,758,778,798,819,838,858,878,898,918,938,958,978,999,1018,1038,1059,1078,1098,1118,1138],"xSR":741.5,"ySR":469.95,"xT1":424.9,"yT1":0,"xT2":1058.1,"yT2":0,"toosoon":0,"cond_shown":"equaldotsize","ratio_trial":250,"smaller_num":"2","larger_num":"8","correct_side":2,"subjID":"juanitalopez21","gender":"1","age":"11","school":"6"},{"start_time":1551900701815,"click_time":1551900702763,"finger_time":1551900702462,"fix_duration":250,"trial":19,"RT":647,"MT":301,"sideResp":1,"stimulus":"img/250/randomdotsizeEA/L/3_Ratio_250_L_8_R_2.png","xmouse":[820,820,820,820,820,820,820,820,820,820,820,820,820,820,820,820,820,820,820,820,820,820,820,820,820,820,820,820,819,815,809,795,762,737,706,672,643,604,598,594,590,586,573,561,542,522,500,480],"ymouse":[534,534,534,534,534,534,534,534,534,534,534,534,534,534,534,534,534,534,534,534,534,534,534,534,534,534,534,534,532,528,520,500,447,409,360,313,263,202,189,179,168,163,150,142,131,118,105,94],"timestamp_mouse":[12,32,49,68,88,108,128,148,168,188,208,228,248,268,287,307,327,348,368,387,407,428,447,467,487,507,527,547,567,587,607,628,647,667,687,708,727,748,767,787,807,827,847,867,887,908,928,947],"xSR":741.5,"ySR":469.95,"xT1":424.9,"yT1":0,"xT2":1058.1,"yT2":0,"toosoon":0,"cond_shown":"randomdotsizeEA","ratio_trial":250,"smaller_num":"2","larger_num":"8","correct_side":1,"subjID":"juanitalopez21","gender":"1","age":"11","school":"6"},{"start_time":1551900704323,"click_time":1551900705084,"finger_time":1551900704863,"fix_duration":459.5321852058022,"trial":20,"RT":540,"MT":221,"sideResp":2,"stimulus":"img/250/equaldotanddens/R/11_Ratio_250_L_3_R_12.png","xmouse":[785,785,785,785,785,785,785,785,785,785,785,785,785,785,785,785,785,785,785,785,785,785,787,791,801,814,833,880,903,930,956,972,997,1014,1028,1043,1058,1080],"ymouse":[539,539,539,539,539,539,539,539,539,539,539,539,539,539,539,539,539,539,539,539,539,539,538,529,512,492,465,392,354,313,280,255,211,176,149,124,103,65],"timestamp_mouse":[21,43,59,79,100,120,140,159,179,199,219,239,259,279,299,319,339,360,379,399,419,440,459,479,499,519,540,560,579,599,619,641,659,679,700,720,741,760],"xSR":741.5,"ySR":469.95,"xT1":424.9,"yT1":0,"xT2":1058.1,"yT2":0,"toosoon":0,"cond_shown":"equaldotanddens","ratio_trial":250,"smaller_num":"3","larger_num":"12","correct_side":2,"subjID":"juanitalopez21","gender":"1","age":"11","school":"6"},{"start_time":1551900706986,"click_time":1551900708002,"finger_time":1551900707602,"fix_duration":862.9583300978461,"trial":21,"RT":616,"MT":400,"sideResp":1,"stimulus":"img/250/equaldotsize/L/2_Ratio_250_L_16_R_4.png","xmouse":[801,801,801,801,801,801,801,801,801,801,801,801,801,801,801,801,801,801,801,801,801,801,801,801,801,800,799,796,787,758,739,715,695,677,635,623,615,611,607,599,596,592,590,586,578,574,568,561,551,525,514],"ymouse":[540,540,540,540,540,540,540,540,540,540,540,540,540,540,540,540,540,540,540,540,540,540,540,540,540,540,540,540,533,509,491,469,446,419,358,339,324,313,302,282,274,266,258,247,224,212,197,180,159,109,88],"timestamp_mouse":[16,40,56,77,97,118,137,157,178,197,217,237,258,277,298,317,337,357,378,397,417,437,456,477,497,516,536,556,576,596,616,637,656,676,697,717,736,757,776,796,817,836,857,877,896,916,936,956,976,996,1016],"xSR":741.5,"ySR":469.95,"xT1":424.9,"yT1":0,"xT2":1058.1,"yT2":0,"toosoon":0,"cond_shown":"equaldotsize","ratio_trial":250,"smaller_num":"4","larger_num":"16","correct_side":1,"subjID":"juanitalopez21","gender":"1","age":"11","school":"6"},{"start_time":1551900709356,"click_time":1551900710702,"finger_time":1551900710163,"fix_duration":330.49551767956444,"trial":22,"RT":807,"MT":539,"sideResp":1,"stimulus":"img/750/equaldotsize/L/9_Ratio_750_L_4_R_3.png","xmouse":[765,765,765,765,765,765,765,765,765,765,765,765,765,765,765,765,765,765,765,765,765,765,765,765,765,765,765,765,765,765,765,765,765,765,765,765,765,762,755,746,728,699,685,674,664,657,650,649,646,643,631,617,608,601,595,591,585,583,581,575,571,566,556,546,539,530,523,505],"ymouse":[515,515,515,515,515,515,515,515,515,515,515,515,515,515,515,515,515,515,515,515,515,515,515,515,515,515,515,515,515,515,515,515,515,515,515,515,512,505,489,470,432,390,371,356,344,335,324,321,317,312,297,271,254,242,232,225,215,210,206,198,190,182,158,142,129,116,106,86],"timestamp_mouse":[10,27,47,66,86,106,126,146,166,186,207,227,246,267,287,306,326,347,366,386,406,426,446,466,487,506,526,546,566,586,606,626,646,666,686,707,727,747,767,788,807,826,846,867,887,907,926,947,967,987,1007,1026,1046,1068,1088,1106,1126,1146,1166,1186,1206,1226,1246,1266,1286,1306,1326,1346],"xSR":741.5,"ySR":469.95,"xT1":424.9,"yT1":0,"xT2":1058.1,"yT2":0,"toosoon":0,"cond_shown":"equaldotsize","ratio_trial":750,"smaller_num":"3","larger_num":"4","correct_side":1,"subjID":"juanitalopez21","gender":"1","age":"11","school":"6"},{"start_time":1551900713847,"click_time":1551900714922,"finger_time":1551900714764,"fix_duration":861.0120406129352,"trial":23,"RT":917,"MT":158,"sideResp":2,"stimulus":"img/250/equaldotanddens/R/9_Ratio_250_L_3_R_12.png","xmouse":[805,805,805,805,805,805,805,805,805,805,805,805,805,805,805,805,805,805,805,805,805,805,805,805,805,805,805,805,805,805,805,805,805,805,805,805,805,805,805,805,805,805,805,812,830,851,894,918,952,993,1036,1068,1100,1111],"ymouse":[565,565,565,565,565,565,565,565,565,565,565,565,565,565,565,565,565,565,565,565,565,565,565,565,565,565,565,565,565,565,565,565,565,565,565,565,565,565,565,565,565,565,564,549,518,488,422,382,335,280,227,180,123,98],"timestamp_mouse":[15,35,55,75,95,116,136,156,176,196,217,237,257,276,295,315,336,355,375,395,415,435,455,476,495,516,535,555,576,595,615,636,655,675,696,716,736,756,777,796,816,836,857,876,896,917,937,955,976,995,1015,1035,1055,1075],"xSR":741.5,"ySR":469.95,"xT1":424.9,"yT1":0,"xT2":1058.1,"yT2":0,"toosoon":0,"cond_shown":"equaldotanddens","ratio_trial":250,"smaller_num":"3","larger_num":"12","correct_side":2,"subjID":"juanitalopez21","gender":"1","age":"11","school":"6"},{"start_time":1551900716822,"click_time":1551900717803,"finger_time":1551900717382,"fix_duration":957.2547079444721,"trial":24,"RT":560,"MT":421,"sideResp":2,"stimulus":"img/500/equaldotanddens/R/14_Ratio_500_L_5_R_10.png","xmouse":[793,793,793,793,793,793,793,793,793,793,793,793,793,793,793,793,793,793,793,793,793,793,793,793,799,808,823,841,862,905,930,954,973,986,996,997,998,999,1000,1004,1012,1021,1032,1050,1068,1077,1083,1091,1098,1105],"ymouse":[533,533,533,533,533,533,533,533,533,533,533,533,533,533,533,533,533,533,533,533,533,533,533,533,527,514,496,471,441,364,319,277,245,228,207,205,204,203,203,199,191,184,174,154,137,128,120,113,105,93],"timestamp_mouse":[10,21,44,60,80,100,121,141,160,180,202,221,241,262,281,301,321,341,362,381,401,421,441,461,481,501,521,542,560,582,601,620,640,660,680,700,720,740,761,780,801,820,841,860,880,900,920,940,961,981],"xSR":741.5,"ySR":469.95,"xT1":424.9,"yT1":0,"xT2":1058.1,"yT2":0,"toosoon":0,"cond_shown":"equaldotanddens","ratio_trial":500,"smaller_num":"5","larger_num":"10","correct_side":2,"subjID":"juanitalopez21","gender":"1","age":"11","school":"6"},{"start_time":1551900719034,"click_time":1551900719923,"finger_time":1551900719802,"fix_duration":250,"trial":25,"RT":768,"MT":121,"sideResp":1,"stimulus":"img/750/equaldotsize/L/6_Ratio_750_L_24_R_18.png","xmouse":[794,794,794,794,794,794,794,794,794,794,794,794,794,794,794,794,794,794,794,794,794,794,794,794,794,794,794,794,794,794,792,792,791,790,785,780,770,755,706,665,618,565,536,477,446],"ymouse":[511,511,511,511,511,511,511,511,511,511,511,511,511,511,511,511,511,511,511,511,511,511,511,511,511,511,511,511,511,511,511,510,509,508,504,500,492,482,444,414,368,294,237,133,91],"timestamp_mouse":[12,32,49,69,89,109,129,149,168,188,208,229,249,268,289,308,328,349,368,388,408,428,448,468,489,508,528,548,569,588,608,628,648,668,689,708,728,748,768,789,808,828,849,869,889],"xSR":741.5,"ySR":469.95,"xT1":424.9,"yT1":0,"xT2":1058.1,"yT2":0,"toosoon":0,"cond_shown":"equaldotsize","ratio_trial":750,"smaller_num":"18","larger_num":"24","correct_side":1,"subjID":"juanitalopez21","gender":"1","age":"11","school":"6"},{"start_time":1551900721339,"click_time":1551900722404,"finger_time":1551900721862,"fix_duration":355.4046239324454,"trial":26,"RT":523,"MT":542,"sideResp":2,"stimulus":"img/750/equaldotanddens/R/11_Ratio_750_L_12_R_16.png","xmouse":[803,803,803,803,803,803,803,803,803,803,803,803,803,803,803,803,803,803,803,803,803,803,803,803,803,811,825,842,859,901,919,935,951,962,982,985,987,990,995,1004,1011,1018,1026,1037,1054,1062,1064,1067,1071,1073,1076,1077,1078,1080],"ymouse":[488,488,488,488,488,488,488,488,488,488,488,488,488,488,488,488,488,488,488,488,488,488,488,488,488,477,459,440,417,348,319,295,274,259,235,230,223,218,209,195,189,182,175,165,147,136,131,127,117,112,108,104,101,97],"timestamp_mouse":[9,34,43,64,83,104,123,143,164,183,203,224,243,263,283,303,323,343,363,384,404,424,443,464,484,503,523,543,564,583,603,623,644,663,683,704,723,744,765,783,804,823,843,865,883,905,923,944,964,983,1004,1024,1044,1065],"xSR":741.5,"ySR":469.95,"xT1":424.9,"yT1":0,"xT2":1058.1,"yT2":0,"toosoon":0,"cond_shown":"equaldotanddens","ratio_trial":750,"smaller_num":"12","larger_num":"16","correct_side":2,"subjID":"juanitalopez21","gender":"1","age":"11","school":"6"},{"start_time":1551900724314,"click_time":1551900725523,"finger_time":1551900725122,"fix_duration":930.7588120477483,"trial":27,"RT":808,"MT":401,"sideResp":2,"stimulus":"img/750/randomdotsizeEA/L/10_Ratio_750_L_4_R_3.png","xmouse":[807,807,807,807,807,807,807,807,807,807,807,807,807,807,807,807,807,807,807,807,807,807,807,807,807,807,807,807,807,806,806,806,805,805,805,805,805,808,815,830,885,921,962,998,1024,1064,1074,1079,1080,1080,1080,1080,1080,1080,1080,1080,1080,1082,1084,1087,1095],"ymouse":[523,523,523,523,523,523,523,522,522,522,522,522,522,522,522,522,522,522,522,522,522,522,522,522,522,522,522,522,522,521,521,520,519,518,518,517,515,508,497,480,431,398,347,298,261,198,173,148,136,128,124,124,124,124,124,124,122,118,116,111,99],"timestamp_mouse":[12,36,48,69,89,109,130,149,168,188,208,229,248,268,289,308,328,348,368,388,409,429,448,468,488,509,528,548,568,588,608,628,648,669,688,708,728,749,769,789,808,828,848,869,889,909,929,948,969,989,1008,1029,1049,1069,1089,1109,1129,1150,1170,1189,1209],"xSR":741.5,"ySR":469.95,"xT1":424.9,"yT1":0,"xT2":1058.1,"yT2":0,"toosoon":0,"cond_shown":"randomdotsizeEA","ratio_trial":750,"smaller_num":"3","larger_num":"4","correct_side":1,"subjID":"juanitalopez21","gender":"1","age":"11","school":"6"},{"start_time":1551900728212,"click_time":1551900729943,"finger_time":1551900729182,"fix_duration":1268.9935827598215,"trial":28,"RT":970,"MT":761,"sideResp":1,"stimulus":"img/900/equaldotsize/L/4_Ratio_900_L_20_R_18.png","xmouse":[816,816,816,816,816,816,816,816,816,816,816,816,816,816,816,816,816,816,816,816,816,816,816,816,816,816,816,816,816,816,816,816,816,816,816,816,816,816,816,816,816,816,816,815,811,800,785,773,754,743,727,717,708,704,701,698,689,687,678,668,630,609,589,575,568,567,567,567,567,567,567,567,567,567,567,567,566,565,564,560,557,554,552,549,544,527,516],"ymouse":[515,515,515,515,515,515,515,515,515,515,515,515,515,515,515,515,515,515,515,515,515,515,515,515,515,515,515,515,515,515,515,515,515,515,515,515,515,515,515,515,515,515,515,515,512,502,490,476,454,439,414,404,395,389,385,380,360,356,334,310,235,201,170,153,142,139,139,139,139,139,139,139,139,139,139,139,139,139,139,137,135,130,126,121,114,99,94],"timestamp_mouse":[10,44,50,70,90,110,130,150,170,190,211,230,250,270,291,311,330,350,370,391,411,430,450,471,491,511,531,551,571,591,611,631,650,670,690,710,731,750,770,790,810,830,850,870,890,910,931,950,970,990,1011,1031,1050,1070,1090,1111,1130,1150,1171,1190,1211,1230,1250,1270,1290,1311,1332,1351,1372,1391,1411,1431,1451,1470,1490,1511,1530,1550,1570,1590,1611,1630,1651,1671,1690,1711,1731],"xSR":741.5,"ySR":469.95,"xT1":424.9,"yT1":0,"xT2":1058.1,"yT2":0,"toosoon":0,"cond_shown":"equaldotsize","ratio_trial":900,"smaller_num":"18","larger_num":"20","correct_side":1,"subjID":"juanitalopez21","gender":"1","age":"11","school":"6"},{"start_time":1551900731737,"click_time":1551900732643,"finger_time":1551900732482,"fix_duration":693.7721708158964,"trial":29,"RT":745,"MT":161,"sideResp":1,"stimulus":"img/900/equaldotsize/L/1_Ratio_900_L_10_R_9.png","xmouse":[812,812,812,811,809,808,808,808,808,808,808,808,808,808,808,808,808,808,808,808,808,808,808,808,808,808,808,808,808,808,808,808,808,808,803,789,784,771,753,729,657,616,585,559,525,511],"ymouse":[503,503,503,502,501,500,500,500,500,500,500,500,500,500,500,500,500,500,500,500,500,500,500,500,500,500,500,500,500,500,500,500,500,500,497,484,478,463,442,407,303,222,175,143,109,97],"timestamp_mouse":[9,34,46,65,85,107,126,147,166,187,206,227,246,265,285,305,326,345,365,385,405,426,445,465,485,506,525,545,565,586,605,625,646,665,685,709,725,745,765,785,805,825,845,866,887,905],"xSR":741.5,"ySR":469.95,"xT1":424.9,"yT1":0,"xT2":1058.1,"yT2":0,"toosoon":0,"cond_shown":"equaldotsize","ratio_trial":900,"smaller_num":"9","larger_num":"10","correct_side":1,"subjID":"juanitalopez21","gender":"1","age":"11","school":"6"},{"start_time":1551900734280,"click_time":1551900735542,"finger_time":1551900735162,"fix_duration":676.9584176278828,"trial":30,"RT":882,"MT":380,"sideResp":1,"stimulus":"img/750/equaldotanddens/L/9_Ratio_750_L_4_R_3.png","xmouse":[793,793,793,793,793,793,793,793,793,793,793,793,793,793,793,793,793,793,793,793,793,793,793,793,793,793,793,793,793,793,793,793,793,793,793,793,793,793,793,793,793,793,796,803,805,808,808,808,808,808,805,794,770,717,677,634,594,561,511,492,476,464,455,449],"ymouse":[488,488,488,488,488,488,488,488,488,488,488,488,488,488,488,488,488,488,488,488,488,488,488,488,488,488,488,488,488,488,488,488,488,488,488,488,488,488,488,488,488,487,485,473,466,460,456,452,448,446,442,433,414,379,356,328,296,258,175,145,126,113,102,95],"timestamp_mouse":[10,22,50,62,82,103,122,142,163,184,203,224,242,263,283,303,322,342,362,383,402,423,443,462,482,502,522,542,563,582,602,622,643,663,682,702,722,742,762,782,802,822,843,862,882,902,922,942,963,982,1003,1024,1043,1062,1083,1103,1123,1144,1163,1184,1204,1223,1243,1262],"xSR":741.5,"ySR":469.95,"xT1":424.9,"yT1":0,"xT2":1058.1,"yT2":0,"toosoon":0,"cond_shown":"equaldotanddens","ratio_trial":750,"smaller_num":"3","larger_num":"4","correct_side":1,"subjID":"juanitalopez21","gender":"1","age":"11","school":"6"},{"start_time":1551900739237,"click_time":1551900740482,"finger_time":1551900739982,"fix_duration":1471.0698716797322,"trial":31,"RT":745,"MT":500,"sideResp":2,"stimulus":"img/750/equaldotanddens/R/15_Ratio_750_L_9_R_12.png","xmouse":[811,811,811,811,811,811,811,811,811,811,811,811,811,811,811,811,811,811,811,811,811,811,811,811,811,811,811,811,811,811,811,811,811,811,811,825,840,857,874,888,922,941,952,960,965,973,975,978,983,987,993,1012,1016,1021,1026,1029,1036,1040,1045,1052,1059,1073,1079],"ymouse":[508,508,508,508,508,508,508,508,508,508,508,508,508,508,508,508,508,508,508,508,508,508,508,508,508,508,508,508,508,508,508,508,508,508,507,494,479,461,444,425,379,351,332,318,310,293,285,274,260,246,229,193,184,176,169,162,153,147,140,132,124,101,94],"timestamp_mouse":[12,35,45,66,86,105,125,146,165,185,205,225,246,265,285,305,325,345,365,385,406,425,445,466,485,505,525,545,566,585,605,625,645,665,685,706,724,744,765,784,806,825,845,865,885,906,926,945,965,984,1005,1024,1045,1065,1085,1105,1125,1146,1166,1185,1206,1225,1245],"xSR":741.5,"ySR":469.95,"xT1":424.9,"yT1":0,"xT2":1058.1,"yT2":0,"toosoon":0,"cond_shown":"equaldotanddens","ratio_trial":750,"smaller_num":"9","larger_num":"12","correct_side":2,"subjID":"juanitalopez21","gender":"1","age":"11","school":"6"},{"start_time":1551900742836,"click_time":1551900743922,"finger_time":1551900743663,"fix_duration":373.44247973881306,"trial":32,"RT":827,"MT":259,"sideResp":1,"stimulus":"img/750/equaldotanddens/L/10_Ratio_750_L_4_R_3.png","xmouse":[804,804,804,804,804,804,804,804,804,804,804,804,804,804,804,804,804,804,804,804,804,804,804,804,804,804,804,804,804,804,804,804,804,804,804,804,804,804,804,803,797,764,745,716,680,645,595,574,555,544,534,525,522,518,514],"ymouse":[510,510,510,510,510,510,510,510,510,510,510,510,510,510,510,510,510,510,510,510,510,510,510,510,510,510,510,510,510,510,510,510,510,510,510,510,510,510,510,507,498,458,433,394,345,293,201,170,150,137,124,116,111,106,99],"timestamp_mouse":[13,34,47,67,87,106,126,146,166,186,206,226,246,266,287,307,326,346,366,386,406,426,446,466,486,507,526,546,567,586,606,626,647,666,686,707,726,746,767,786,806,827,847,866,887,907,926,946,967,987,1007,1025,1047,1067,1086],"xSR":741.5,"ySR":469.95,"xT1":424.9,"yT1":0,"xT2":1058.1,"yT2":0,"toosoon":0,"cond_shown":"equaldotanddens","ratio_trial":750,"smaller_num":"3","larger_num":"4","correct_side":1,"subjID":"juanitalopez21","gender":"1","age":"11","school":"6"},{"start_time":1551900745673,"click_time":1551900746922,"finger_time":1551900746382,"fix_duration":650.0862238567279,"trial":33,"RT":709,"MT":540,"sideResp":2,"stimulus":"img/900/equaldotsize/R/9_Ratio_900_L_18_R_20.png","xmouse":[760,760,760,760,760,760,760,760,760,760,760,760,760,760,760,760,760,760,760,760,760,760,760,760,760,760,760,760,760,760,760,760,763,766,784,796,812,826,851,903,930,953,969,977,981,983,984,984,984,984,985,986,987,990,997,999,1004,1008,1013,1028,1037,1052,1068],"ymouse":[508,508,508,508,508,508,508,508,508,508,508,508,508,508,508,508,508,508,508,508,508,508,508,508,508,508,508,508,508,508,508,508,503,499,471,451,422,397,352,257,207,163,120,103,91,87,85,84,84,84,83,82,82,80,78,77,77,77,75,73,72,71,71],"timestamp_mouse":[10,38,48,69,89,109,129,149,169,189,209,229,249,269,289,309,329,349,368,389,408,428,448,469,489,510,529,549,569,589,609,629,649,669,688,709,729,749,770,789,809,828,849,868,889,909,929,949,969,989,1010,1029,1049,1070,1089,1109,1129,1150,1169,1188,1209,1229,1249],"xSR":741.5,"ySR":469.95,"xT1":424.9,"yT1":0,"xT2":1058.1,"yT2":0,"toosoon":0,"cond_shown":"equaldotsize","ratio_trial":900,"smaller_num":"18","larger_num":"20","correct_side":2,"subjID":"juanitalopez21","gender":"1","age":"11","school":"6"},{"start_time":1551900752128,"click_time":1551900753362,"finger_time":1551900752782,"fix_duration":1464.8674730789446,"trial":34,"RT":654,"MT":580,"sideResp":1,"stimulus":"img/250/randomdotsizeEA/L/5_Ratio_250_L_24_R_6.png","xmouse":[797,797,796,796,796,796,796,796,796,796,796,796,796,796,796,796,796,796,796,796,796,796,796,796,796,796,796,796,796,796,795,795,794,792,791,790,789,775,768,759,747,730,692,678,664,653,639,627,601,594,591,591,591,591,591,590,589,580,572,559,541,520],"ymouse":[485,487,489,489,489,489,489,489,489,489,489,489,489,489,489,489,489,489,489,489,489,489,489,489,489,489,489,489,489,489,487,484,465,460,449,442,433,388,366,344,322,300,250,231,209,192,174,157,135,128,128,128,128,128,128,128,127,118,110,99,85,68],"timestamp_mouse":[15,34,54,75,95,114,134,154,174,194,214,235,254,274,294,314,334,354,374,394,414,435,454,475,494,514,534,554,574,594,614,635,654,674,694,715,735,755,774,795,814,834,854,876,894,913,934,954,974,994,1013,1034,1055,1074,1094,1114,1134,1154,1175,1194,1214,1234],"xSR":741.5,"ySR":469.95,"xT1":424.9,"yT1":0,"xT2":1058.1,"yT2":0,"toosoon":0,"cond_shown":"randomdotsizeEA","ratio_trial":250,"smaller_num":"6","larger_num":"24","correct_side":1,"subjID":"juanitalopez21","gender":"1","age":"11","school":"6"},{"start_time":1551900758851,"click_time":1551900760203,"finger_time":1551900759642,"fix_duration":1027.124983062672,"trial":35,"RT":791,"MT":561,"sideResp":2,"stimulus":"img/750/randomdotsizeEA/L/10_Ratio_750_L_4_R_3.png","xmouse":[782,782,782,782,782,782,782,782,782,782,782,782,782,782,782,782,782,782,782,782,782,782,782,782,782,782,782,782,782,782,782,782,782,782,782,784,784,795,808,825,847,876,943,954,958,959,959,958,958,959,962,968,993,1001,1008,1016,1022,1027,1028,1028,1029,1032,1035,1039,1043,1048,1052,1060],"ymouse":[522,522,522,522,522,522,522,522,522,522,522,522,522,522,522,522,522,522,522,522,522,522,522,522,522,522,522,522,522,522,522,522,522,522,520,518,515,493,475,449,409,368,278,257,242,234,229,226,224,220,212,202,175,164,152,142,135,128,127,126,124,121,115,110,102,94,87,74],"timestamp_mouse":[12,31,51,71,91,111,132,151,171,191,211,231,252,271,291,311,332,352,371,391,411,432,452,471,490,511,531,551,571,591,612,631,651,670,691,712,731,751,772,791,812,831,851,871,892,911,931,950,971,991,1012,1032,1051,1071,1091,1111,1132,1151,1172,1191,1211,1233,1250,1272,1291,1310,1330,1351],"xSR":741.5,"ySR":469.95,"xT1":424.9,"yT1":0,"xT2":1058.1,"yT2":0,"toosoon":0,"cond_shown":"randomdotsizeEA","ratio_trial":750,"smaller_num":"3","larger_num":"4","correct_side":1,"subjID":"juanitalopez21","gender":"1","age":"11","school":"6"},{"start_time":1551900762508,"click_time":1551900763602,"finger_time":1551900763241,"fix_duration":1483.5120423666087,"trial":36,"RT":733,"MT":361,"sideResp":1,"stimulus":"img/250/equaldotanddens/L/3_Ratio_250_L_8_R_2.png","xmouse":[784,786,787,788,788,788,788,788,788,788,788,788,788,788,788,788,788,788,788,788,788,788,788,788,788,788,788,788,788,788,788,788,788,787,776,768,737,712,633,501,439,409,396,391,388,385,385,385,385,398,405,411,418,424,433],"ymouse":[503,505,506,507,507,507,507,507,507,507,507,507,507,507,507,507,507,507,507,507,507,507,507,507,507,507,507,507,507,507,507,507,506,503,488,476,449,430,373,274,223,198,184,178,166,154,149,131,116,88,76,67,63,62,62],"timestamp_mouse":[22,35,54,74,94,118,134,154,174,194,215,234,254,274,294,314,335,354,374,394,414,434,455,474,495,514,534,554,574,594,614,634,655,673,694,714,733,754,774,795,814,834,853,873,894,915,934,954,974,994,1014,1034,1054,1074,1094],"xSR":741.5,"ySR":469.95,"xT1":424.9,"yT1":0,"xT2":1058.1,"yT2":0,"toosoon":0,"cond_shown":"equaldotanddens","ratio_trial":250,"smaller_num":"2","larger_num":"8","correct_side":1,"subjID":"juanitalopez21","gender":"1","age":"11","school":"6"},{"start_time":1551900772228,"click_time":1551900773462,"finger_time":1551900772962,"fix_duration":644.9091260714288,"trial":37,"RT":734,"MT":500,"sideResp":2,"stimulus":"img/900/equaldotanddens/R/3_Ratio_900_L_9_R_10.png","xmouse":[799,799,799,799,799,799,799,799,799,799,799,799,799,799,799,799,799,799,799,799,799,799,799,799,799,799,799,799,799,799,799,799,799,798,805,816,838,908,964,1077,1135,1187,1224,1249,1249,1249,1249,1249,1249,1249,1239,1234,1226,1217,1200,1193,1185,1181,1180,1171,1162,1157],"ymouse":[534,534,534,534,534,534,534,534,534,534,534,534,534,534,534,534,534,534,534,534,534,534,534,534,534,534,534,534,534,534,534,533,531,526,504,484,454,377,319,204,146,91,44,5,5,5,5,5,5,5,0,4,9,17,32,38,45,47,47,45,43,43],"timestamp_mouse":[13,34,55,75,94,114,134,154,174,194,214,234,254,274,295,314,334,355,374,394,414,434,454,475,495,514,534,554,574,594,614,634,654,674,694,714,734,754,775,794,815,834,855,874,895,915,934,955,975,995,1015,1034,1055,1074,1095,1113,1135,1154,1174,1195,1214,1234],"xSR":741.5,"ySR":469.95,"xT1":424.9,"yT1":0,"xT2":1058.1,"yT2":0,"toosoon":0,"cond_shown":"equaldotanddens","ratio_trial":900,"smaller_num":"9","larger_num":"10","correct_side":2,"subjID":"juanitalopez21","gender":"1","age":"11","school":"6"},{"start_time":1551900779800,"click_time":1551900780983,"finger_time":1551900780422,"fix_duration":317.4785336496897,"trial":38,"RT":622,"MT":561,"sideResp":1,"stimulus":"img/250/equaldotsize/L/15_Ratio_250_L_12_R_3.png","xmouse":[787,787,787,787,787,787,787,787,787,787,787,787,787,787,787,787,787,787,787,787,787,787,787,787,787,787,787,784,782,778,775,772,761,754,745,734,725,718,705,699,693,682,658,641,611,590,571,541,527,514,505,497,493,492,492,493,494,496,496,497],"ymouse":[531,531,531,531,531,531,531,531,531,531,531,531,531,531,531,531,531,531,531,531,531,531,531,531,531,531,530,520,508,492,473,449,392,363,332,294,273,251,213,197,184,173,154,146,139,136,132,129,129,127,127,124,123,121,118,116,114,107,103,97],"timestamp_mouse":[10,22,43,62,82,102,122,142,162,182,202,223,243,263,281,301,322,342,362,382,402,422,442,462,482,502,522,542,563,582,603,622,642,662,682,702,722,742,762,783,802,822,843,861,882,903,922,943,962,982,1002,1022,1042,1062,1082,1102,1123,1143,1162,1183],"xSR":741.5,"ySR":469.95,"xT1":424.9,"yT1":0,"xT2":1058.1,"yT2":0,"toosoon":0,"cond_shown":"equaldotsize","ratio_trial":250,"smaller_num":"3","larger_num":"12","correct_side":1,"subjID":"juanitalopez21","gender":"1","age":"11","school":"6"},{"start_time":1551900782912,"click_time":1551900783902,"finger_time":1551900783543,"fix_duration":808.5332785936057,"trial":39,"RT":631,"MT":359,"sideResp":1,"stimulus":"img/750/randomdotsizeEA/L/8_Ratio_750_L_4_R_3.png","xmouse":[781,781,781,781,781,781,781,781,781,781,781,781,781,781,781,781,781,781,781,781,781,781,781,781,781,781,781,781,777,771,760,720,685,648,610,585,559,526,526,526,526,526,526,526,526,526,526,526,526,479],"ymouse":[532,532,532,532,532,532,532,532,532,532,532,532,532,532,532,532,532,532,532,532,532,532,532,532,532,532,532,529,520,507,488,422,370,309,252,195,136,1,1,1,1,1,1,1,1,1,1,1,1,19],"timestamp_mouse":[14,37,50,70,90,111,130,150,170,191,210,230,250,270,290,310,330,350,371,390,410,430,451,471,490,510,530,551,571,589,609,631,650,670,690,711,730,750,770,790,810,831,851,870,891,910,931,951,970,990],"xSR":741.5,"ySR":469.95,"xT1":424.9,"yT1":0,"xT2":1058.1,"yT2":0,"toosoon":0,"cond_shown":"randomdotsizeEA","ratio_trial":750,"smaller_num":"3","larger_num":"4","correct_side":1,"subjID":"juanitalopez21","gender":"1","age":"11","school":"6"},{"start_time":1551900787075,"click_time":1551900788162,"finger_time":1551900787802,"fix_duration":471.4326958644056,"trial":40,"RT":727,"MT":360,"sideResp":1,"stimulus":"img/500/randomdotsizeEA/L/5_Ratio_500_L_4_R_2.png","xmouse":[824,824,824,824,824,824,824,824,824,824,824,824,824,824,824,824,824,824,824,824,824,824,824,824,824,824,824,824,824,824,824,824,824,824,825,828,832,835,835,856,859,859,856,843,768,719,677,639,620,576,545,522,503,486,435],"ymouse":[537,537,537,537,537,537,537,537,537,537,537,537,537,537,537,537,537,537,537,537,537,537,537,537,537,537,537,537,537,537,537,537,536,532,504,482,460,445,435,380,360,355,354,349,321,297,273,244,227,188,165,150,135,116,55],"timestamp_mouse":[10,39,48,66,87,107,127,147,168,188,207,227,247,267,287,307,327,347,368,387,408,428,447,467,487,508,527,547,567,588,607,627,647,667,687,707,727,747,767,787,808,827,848,867,887,907,928,947,968,987,1008,1027,1048,1066,1087],"xSR":741.5,"ySR":469.95,"xT1":424.9,"yT1":0,"xT2":1058.1,"yT2":0,"toosoon":0,"cond_shown":"randomdotsizeEA","ratio_trial":500,"smaller_num":"2","larger_num":"4","correct_side":1,"subjID":"juanitalopez21","gender":"1","age":"11","school":"6"},{"start_time":1551900791130,"click_time":1551900792182,"finger_time":1551900791742,"fix_duration":526.3027687456987,"trial":41,"RT":612,"MT":440,"sideResp":1,"stimulus":"img/250/randomdotsizeEA/L/3_Ratio_250_L_8_R_2.png","xmouse":[791,791,791,791,791,791,791,791,791,791,791,791,791,791,791,791,791,791,791,791,791,791,791,791,791,791,791,784,777,766,749,731,668,646,627,606,591,573,572,569,568,566,566,566,566,566,565,560,555,546,539,530,513],"ymouse":[528,528,528,528,528,528,528,528,528,528,528,528,528,528,528,528,528,528,528,528,528,528,528,528,528,528,526,514,501,483,462,438,366,343,321,297,276,231,217,206,203,200,200,199,198,194,189,169,155,139,123,110,83],"timestamp_mouse":[13,32,53,72,92,112,132,153,172,192,213,231,252,271,292,312,333,352,373,392,412,432,452,473,492,512,532,552,572,592,612,633,652,672,692,712,733,753,772,792,812,834,852,872,893,912,933,952,972,992,1012,1032,1052],"xSR":741.5,"ySR":469.95,"xT1":424.9,"yT1":0,"xT2":1058.1,"yT2":0,"toosoon":0,"cond_shown":"randomdotsizeEA","ratio_trial":250,"smaller_num":"2","larger_num":"8","correct_side":1,"subjID":"juanitalopez21","gender":"1","age":"11","school":"6"},{"start_time":1551900794273,"click_time":1551900795722,"finger_time":1551900795123,"fix_duration":871.028354159929,"trial":42,"RT":850,"MT":599,"sideResp":1,"stimulus":"img/750/equaldotanddens/L/14_Ratio_750_L_8_R_6.png","xmouse":[771,771,771,771,771,771,771,771,771,771,771,771,771,771,771,771,771,771,771,771,771,771,771,771,771,771,771,771,771,771,771,771,771,771,771,771,771,771,771,771,771,767,756,743,714,649,603,566,529,504,442,417,403,389,377,365,365,365,366,371,390,395,397,399,400,402,404,406,408,410,417,422,429],"ymouse":[477,477,477,477,477,477,477,477,477,477,477,477,477,477,477,477,477,477,477,477,477,477,477,477,477,477,477,477,477,477,477,477,477,477,477,477,477,477,477,477,476,473,467,457,434,373,334,295,265,242,197,174,158,141,127,107,106,106,105,104,102,102,102,101,100,99,98,97,96,93,87,85,83],"timestamp_mouse":[9,28,50,69,89,109,129,149,169,190,209,230,249,269,289,309,329,349,370,390,409,429,449,469,489,510,530,549,569,589,610,629,649,669,689,709,729,750,769,790,810,829,850,869,889,910,930,949,969,989,1009,1030,1050,1069,1089,1109,1129,1149,1169,1189,1209,1229,1249,1270,1289,1309,1329,1350,1370,1389,1409,1429,1449],"xSR":741.5,"ySR":469.95,"xT1":424.9,"yT1":0,"xT2":1058.1,"yT2":0,"toosoon":0,"cond_shown":"equaldotanddens","ratio_trial":750,"smaller_num":"6","larger_num":"8","correct_side":1,"subjID":"juanitalopez21","gender":"1","age":"11","school":"6"},{"start_time":1551900797221,"click_time":1551900798343,"finger_time":1551900797822,"fix_duration":638.3510168075281,"trial":43,"RT":601,"MT":521,"sideResp":2,"stimulus":"img/500/equaldotanddens/R/1_Ratio_500_L_9_R_18.png","xmouse":[776,776,776,776,776,776,776,776,776,776,776,776,776,776,776,776,776,776,776,776,776,776,776,776,776,776,777,780,800,818,841,863,885,930,949,977,986,1010,1039,1050,1059,1068,1076,1091,1095,1099,1102,1106,1108,1108,1108,1108,1108,1110,1110,1110,1110],"ymouse":[525,525,525,525,525,525,525,525,525,525,525,525,525,525,525,525,525,525,525,525,525,525,525,525,525,525,524,519,496,475,456,438,421,383,364,336,326,297,263,248,235,221,209,184,172,163,157,149,141,138,134,132,128,120,114,109,99],"timestamp_mouse":[4,21,40,61,81,101,122,141,161,180,202,221,241,261,281,301,322,341,361,380,400,420,440,460,480,500,521,542,561,581,601,622,641,660,682,702,721,740,760,780,800,821,840,861,881,900,920,940,961,981,1000,1020,1040,1061,1080,1101,1122],"xSR":741.5,"ySR":469.95,"xT1":424.9,"yT1":0,"xT2":1058.1,"yT2":0,"toosoon":0,"cond_shown":"equaldotanddens","ratio_trial":500,"smaller_num":"9","larger_num":"18","correct_side":2,"subjID":"juanitalopez21","gender":"1","age":"11","school":"6"},{"start_time":1551900809189,"click_time":1551900810421,"finger_time":1551900809742,"fix_duration":745.6577767698169,"trial":44,"RT":553,"MT":679,"sideResp":2,"stimulus":"img/750/equaldotsize/R/2_Ratio_750_L_6_R_8.png","xmouse":[778,778,778,778,778,778,778,778,778,778,778,778,778,778,778,778,778,778,778,778,778,778,778,778,778,780,795,821,856,912,1025,1084,1157,1199,1226,1246,1260,1262,1262,1262,1262,1262,1262,1262,1253,1250,1221,1204,1190,1179,1173,1169,1167,1167,1167,1167,1167,1166,1165,1164,1161,1149],"ymouse":[502,502,502,502,502,502,502,502,502,502,502,502,502,502,502,502,502,502,502,502,502,502,502,502,502,500,486,466,436,390,291,237,159,111,70,40,9,1,1,1,1,1,1,1,1,4,26,36,44,49,51,51,50,48,48,47,47,47,47,47,46,46],"timestamp_mouse":[13,34,53,73,93,113,134,153,173,193,213,233,254,273,293,313,333,353,373,393,413,434,453,473,494,513,534,553,573,594,613,634,652,672,693,713,732,752,772,792,812,832,852,872,892,912,933,952,972,992,1013,1032,1052,1073,1093,1114,1133,1152,1172,1193,1213,1232],"xSR":741.5,"ySR":469.95,"xT1":424.9,"yT1":0,"xT2":1058.1,"yT2":0,"toosoon":0,"cond_shown":"equaldotsize","ratio_trial":750,"smaller_num":"6","larger_num":"8","correct_side":2,"subjID":"juanitalopez21","gender":"1","age":"11","school":"6"},{"start_time":1551900812370,"click_time":1551900813782,"finger_time":1551900812942,"fix_duration":906.3784245044736,"trial":45,"RT":572,"MT":840,"sideResp":2,"stimulus":"img/750/randomdotsizeEA/R/7_Ratio_750_L_3_R_4.png","xmouse":[764,764,764,764,764,764,764,764,764,764,764,764,764,764,764,764,764,764,764,764,764,764,764,764,764,764,761,750,741,731,720,703,642,620,602,602,602,602,602,602,602,602,602,602,602,602,602,526,535,548,560,584,618,641,670,715,764,880,939,994,1042,1086,1111,1112,1112,1112,1112,1112,1113,1113,1113],"ymouse":[525,525,525,525,525,525,525,525,525,525,525,525,525,525,525,525,525,525,525,525,525,525,525,525,525,525,517,488,460,415,362,302,123,60,2,2,2,2,2,2,2,2,2,2,2,2,2,5,20,32,44,54,60,62,62,63,64,77,88,98,108,121,127,127,127,127,127,119,114,107,98],"timestamp_mouse":[11,44,52,72,93,112,132,153,172,193,212,233,252,272,292,313,332,352,372,393,412,432,452,472,492,513,532,552,572,593,613,632,652,673,693,711,732,751,773,792,811,831,851,871,892,911,931,951,971,991,1011,1031,1052,1072,1092,1112,1131,1151,1171,1191,1211,1231,1251,1271,1291,1311,1332,1353,1371,1392,1412],"xSR":741.5,"ySR":469.95,"xT1":424.9,"yT1":0,"xT2":1058.1,"yT2":0,"toosoon":0,"cond_shown":"randomdotsizeEA","ratio_trial":750,"smaller_num":"3","larger_num":"4","correct_side":2,"subjID":"juanitalopez21","gender":"1","age":"11","school":"6"},{"start_time":1551900815265,"click_time":1551900816423,"finger_time":1551900816182,"fix_duration":642.8082941168378,"trial":46,"RT":917,"MT":241,"sideResp":2,"stimulus":"img/500/equaldotsize/R/12_Ratio_500_L_1_R_2.png","xmouse":[805,805,805,805,805,805,805,805,805,805,805,805,805,805,805,805,805,805,805,805,805,805,805,805,805,805,805,805,805,805,805,805,805,805,805,805,805,805,805,805,805,805,805,812,821,842,864,926,956,974,995,1013,1038,1049,1061,1074,1080,1091],"ymouse":[500,500,500,500,500,500,500,500,500,500,500,500,500,500,500,500,500,500,500,500,500,500,500,500,500,500,500,500,500,500,500,500,500,500,500,500,500,500,500,500,500,500,499,494,485,461,440,370,335,306,275,241,193,170,151,125,110,90],"timestamp_mouse":[24,43,57,76,96,118,137,157,177,197,218,237,257,277,297,317,337,357,378,398,417,437,457,478,497,517,537,556,576,596,616,636,656,677,696,717,737,757,776,796,816,836,857,876,897,916,937,957,976,997,1017,1038,1058,1076,1098,1117,1138,1157],"xSR":741.5,"ySR":469.95,"xT1":424.9,"yT1":0,"xT2":1058.1,"yT2":0,"toosoon":0,"cond_shown":"equaldotsize","ratio_trial":500,"smaller_num":"1","larger_num":"2","correct_side":2,"subjID":"juanitalopez21","gender":"1","age":"11","school":"6"},{"start_time":1551900817940,"click_time":1551900820141,"finger_time":1551900819222,"fix_duration":717.0650754565937,"trial":47,"RT":1282,"MT":919,"sideResp":2,"stimulus":"img/900/equaldotanddens/R/11_Ratio_900_L_18_R_20.png","xmouse":[792,792,792,792,792,792,792,792,792,792,792,792,792,792,792,792,792,792,792,792,792,792,792,792,792,792,792,792,792,792,792,792,792,792,792,792,792,792,792,792,792,792,792,792,792,792,792,792,792,792,792,792,792,792,792,792,792,792,792,792,796,808,816,829,845,889,927,978,1032,1091,1231,1276,1306,1317,1321,1321,1321,1321,1321,1321,1321,1321,1321,1294,1284,1264,1257,1253,1250,1245,1236,1231,1226,1223,1219,1210,1206,1205,1204,1204,1200,1198,1195,1194,1190,1182,1178,1173,1166,1159,1148],"ymouse":[508,508,508,508,508,508,508,508,508,508,508,508,508,508,508,508,508,508,508,508,508,508,508,508,508,508,508,508,508,508,508,508,508,508,508,508,508,508,508,508,508,508,508,508,508,508,508,508,508,508,508,508,508,508,508,508,508,508,508,508,505,495,486,472,455,420,393,351,304,251,110,65,32,15,1,1,1,1,1,1,1,1,1,1,6,20,24,28,31,33,35,37,40,42,43,47,48,48,49,50,50,51,51,51,51,51,51,51,51,51,53],"timestamp_mouse":[9,22,42,61,82,102,121,141,161,181,201,221,242,263,282,301,322,342,363,383,402,422,441,462,481,502,521,542,562,582,602,622,642,661,681,702,721,742,761,781,801,821,841,861,881,901,921,942,961,981,1002,1021,1041,1062,1081,1101,1121,1143,1161,1182,1203,1222,1242,1262,1282,1302,1322,1342,1362,1382,1402,1422,1442,1463,1483,1502,1523,1542,1562,1582,1603,1623,1642,1663,1681,1701,1721,1741,1761,1781,1801,1821,1841,1861,1881,1901,1922,1941,1961,1982,2001,2021,2041,2061,2081,2101,2121,2141,2161,2181,2201],"xSR":741.5,"ySR":469.95,"xT1":424.9,"yT1":0,"xT2":1058.1,"yT2":0,"toosoon":0,"cond_shown":"equaldotanddens","ratio_trial":900,"smaller_num":"18","larger_num":"20","correct_side":2,"subjID":"juanitalopez21","gender":"1","age":"11","school":"6"},{"start_time":1551900821676,"click_time":1551900823042,"finger_time":1551900822321,"fix_duration":471.36323688639806,"trial":48,"RT":645,"MT":721,"sideResp":1,"stimulus":"img/250/equaldotanddens/L/3_Ratio_250_L_8_R_2.png","xmouse":[788,788,788,788,788,788,788,788,788,788,788,788,788,788,788,788,788,788,788,788,788,788,788,788,788,788,788,788,785,784,779,774,767,742,729,719,707,697,687,681,675,670,656,641,632,626,618,612,592,582,576,570,565,556,551,545,543,540,535,533,532,532,532,531,529,529,528,525,511],"ymouse":[511,511,511,511,511,511,511,511,511,511,511,511,511,511,511,511,511,511,511,511,511,511,511,511,511,511,511,511,507,499,488,474,454,398,373,352,329,306,269,251,233,214,192,163,150,140,132,125,119,116,114,111,107,98,90,83,77,73,64,62,60,60,60,60,60,60,60,60,58],"timestamp_mouse":[12,33,45,65,86,106,126,145,166,185,206,226,246,266,286,306,326,346,366,387,407,426,446,466,486,506,526,546,566,586,605,626,645,665,686,705,725,746,765,785,805,825,845,865,886,906,925,945,965,985,1005,1026,1046,1065,1086,1106,1127,1146,1166,1186,1207,1226,1247,1266,1286,1306,1327,1347,1366],"xSR":741.5,"ySR":469.95,"xT1":424.9,"yT1":0,"xT2":1058.1,"yT2":0,"toosoon":0,"cond_shown":"equaldotanddens","ratio_trial":250,"smaller_num":"2","larger_num":"8","correct_side":1,"subjID":"juanitalopez21","gender":"1","age":"11","school":"6"},{"start_time":1551900825157,"click_time":1551900826242,"finger_time":1551900825882,"fix_duration":554.6673159560282,"trial":49,"RT":725,"MT":360,"sideResp":2,"stimulus":"img/750/equaldotsize/R/2_Ratio_750_L_6_R_8.png","xmouse":[786,786,786,786,786,786,786,786,786,786,786,786,786,786,786,786,786,786,786,786,786,786,786,786,786,786,786,786,786,786,786,788,789,791,795,825,843,862,881,900,931,946,965,983,998,1038,1055,1077,1089,1097,1112,1116,1121,1125,1130],"ymouse":[536,536,536,536,536,536,536,536,536,536,536,536,536,536,536,536,536,536,536,536,536,536,536,536,536,536,536,536,536,536,536,534,532,526,519,481,464,444,425,404,366,348,325,302,278,226,206,176,158,143,120,112,106,100,94],"timestamp_mouse":[12,31,45,65,84,104,124,144,165,184,205,224,246,265,285,306,326,345,365,385,405,425,445,465,486,505,526,545,575,585,605,625,646,665,684,705,725,744,764,785,804,824,844,865,885,904,924,945,964,986,1004,1024,1044,1064,1084],"xSR":741.5,"ySR":469.95,"xT1":424.9,"yT1":0,"xT2":1058.1,"yT2":0,"toosoon":0,"cond_shown":"equaldotsize","ratio_trial":750,"smaller_num":"6","larger_num":"8","correct_side":2,"subjID":"juanitalopez21","gender":"1","age":"11","school":"6"},{"start_time":1551900827415,"click_time":1551900828343,"finger_time":1551900828061,"fix_duration":250,"trial":50,"RT":646,"MT":282,"sideResp":2,"stimulus":"img/250/equaldotanddens/R/11_Ratio_250_L_3_R_12.png","xmouse":[783,783,783,783,783,783,783,783,783,783,783,783,783,783,783,783,783,783,783,783,783,783,783,783,783,783,783,783,789,796,807,818,856,867,877,893,915,964,986,1005,1023,1052,1082,1092,1101,1110,1123],"ymouse":[519,519,519,519,519,519,519,519,519,519,519,519,519,519,519,519,519,519,519,519,519,519,519,519,519,519,519,519,513,506,493,475,427,411,395,372,343,280,245,224,207,181,152,141,130,119,99],"timestamp_mouse":[14,26,47,67,87,106,126,147,167,187,208,227,246,266,287,306,326,347,366,386,407,426,446,466,486,506,526,546,566,586,606,626,646,666,687,706,726,747,766,787,807,826,846,867,886,906,927],"xSR":741.5,"ySR":469.95,"xT1":424.9,"yT1":0,"xT2":1058.1,"yT2":0,"toosoon":0,"cond_shown":"equaldotanddens","ratio_trial":250,"smaller_num":"3","larger_num":"12","correct_side":2,"subjID":"juanitalopez21","gender":"1","age":"11","school":"6"},{"start_time":1551900829914,"click_time":1551900830881,"finger_time":1551900830562,"fix_duration":250,"trial":51,"RT":648,"MT":319,"sideResp":1,"stimulus":"img/500/randomdotsizeEA/L/4_Ratio_500_L_18_R_9.png","xmouse":[779,779,779,779,779,779,779,779,779,779,779,779,779,779,779,779,779,779,779,779,779,779,779,779,779,779,779,779,777,771,761,748,716,698,680,667,658,628,615,602,591,579,558,550,544,539,534,525,521],"ymouse":[522,522,522,522,522,522,522,522,522,522,522,522,522,522,522,522,522,522,522,522,522,522,522,522,522,522,522,522,519,512,500,484,434,398,355,314,276,184,150,123,99,77,40,26,15,8,3,2,2],"timestamp_mouse":[14,28,48,68,89,108,128,148,169,188,207,227,247,267,287,307,328,347,367,387,408,427,447,467,487,509,528,549,568,588,609,628,648,668,689,708,729,748,769,788,808,827,847,868,887,908,928,947,967],"xSR":741.5,"ySR":469.95,"xT1":424.9,"yT1":0,"xT2":1058.1,"yT2":0,"toosoon":0,"cond_shown":"randomdotsizeEA","ratio_trial":500,"smaller_num":"9","larger_num":"18","correct_side":1,"subjID":"juanitalopez21","gender":"1","age":"11","school":"6"},{"start_time":1551900832671,"click_time":1551900835263,"finger_time":1551900834361,"fix_duration":707.2353043223786,"trial":52,"RT":1690,"MT":902,"sideResp":2,"stimulus":"img/900/randomdotsizeEA/R/7_Ratio_900_L_9_R_10.png","xmouse":[782,782,782,782,782,782,782,782,782,782,782,782,782,782,782,782,782,782,782,782,782,782,782,782,782,782,782,782,782,782,782,782,782,782,782,782,782,782,782,782,782,782,782,782,782,782,782,782,782,782,782,782,782,782,782,782,782,782,782,782,782,782,782,782,782,782,782,782,782,782,782,782,782,782,782,782,782,782,782,787,789,792,794,794,796,798,802,803,803,805,806,807,808,809,810,812,812,812,813,814,824,833,844,856,870,935,974,1029,1088,1215,1215,1215,1215,1215,1215,1215,1215,1215,1215,1215,1215,1215,1215,1228,1218,1187,1179,1169,1160,1133],"ymouse":[517,517,517,517,517,517,517,517,517,517,517,517,517,517,517,517,517,517,517,517,517,517,517,517,517,517,517,517,517,517,517,517,517,517,517,517,517,517,517,517,517,517,517,517,517,517,516,516,516,516,516,516,516,516,516,516,516,516,516,516,516,516,516,516,516,516,516,516,516,516,516,515,515,514,512,511,510,508,505,496,489,483,477,473,461,455,447,443,440,437,435,433,429,427,424,418,416,416,414,413,403,394,382,368,351,278,234,181,125,13,13,13,13,13,13,13,13,13,13,13,13,13,13,2,8,31,38,45,53,62],"timestamp_mouse":[11,42,51,71,91,111,131,152,172,190,211,230,250,271,290,310,330,350,370,390,410,430,451,470,490,510,530,551,571,590,611,630,650,670,690,710,731,750,771,791,811,831,851,871,891,911,931,951,971,991,1011,1031,1051,1071,1091,1111,1131,1151,1171,1191,1211,1231,1251,1271,1291,1311,1331,1351,1370,1390,1410,1430,1450,1470,1490,1510,1530,1550,1571,1590,1611,1630,1650,1670,1690,1710,1731,1751,1771,1791,1810,1831,1851,1871,1891,1910,1932,1951,1972,1991,2011,2032,2052,2071,2091,2111,2132,2151,2172,2191,2212,2231,2252,2271,2292,2311,2332,2351,2371,2391,2411,2431,2451,2470,2491,2510,2531,2550,2570,2592],"xSR":741.5,"ySR":469.95,"xT1":424.9,"yT1":0,"xT2":1058.1,"yT2":0,"toosoon":0,"cond_shown":"randomdotsizeEA","ratio_trial":900,"smaller_num":"9","larger_num":"10","correct_side":2,"subjID":"juanitalopez21","gender":"1","age":"11","school":"6"},{"start_time":1551900847099,"click_time":1551900848101,"finger_time":1551900847922,"fix_duration":796.2841884678534,"trial":53,"RT":823,"MT":179,"sideResp":1,"stimulus":"img/750/equaldotanddens/L/14_Ratio_750_L_8_R_6.png","xmouse":[810,810,810,810,810,810,810,810,810,810,810,810,810,810,810,810,810,810,810,810,810,810,810,810,810,810,810,810,810,810,810,810,810,810,810,810,810,810,809,806,796,790,778,761,743,697,663,626,573,559,485],"ymouse":[533,533,533,533,533,533,533,533,533,533,533,533,533,533,533,533,533,533,533,533,533,533,533,533,533,533,533,533,533,533,533,533,533,533,533,533,530,528,524,512,482,463,440,413,384,315,268,223,155,138,40],"timestamp_mouse":[13,32,43,62,82,103,123,142,163,182,203,224,244,263,283,302,323,344,363,383,403,424,443,462,482,503,522,542,562,582,602,622,642,663,683,702,722,742,762,782,802,823,842,863,882,903,923,943,963,983,1002],"xSR":741.5,"ySR":469.95,"xT1":424.9,"yT1":0,"xT2":1058.1,"yT2":0,"toosoon":0,"cond_shown":"equaldotanddens","ratio_trial":750,"smaller_num":"6","larger_num":"8","correct_side":1,"subjID":"juanitalopez21","gender":"1","age":"11","school":"6"},{"start_time":1551900849434,"click_time":1551900850502,"finger_time":1551900850043,"fix_duration":250,"trial":54,"RT":609,"MT":459,"sideResp":2,"stimulus":"img/900/equaldotsize/R/5_Ratio_900_L_9_R_10.png","xmouse":[796,796,796,796,796,796,796,796,796,796,796,796,796,796,796,796,796,796,796,796,796,796,796,796,796,797,798,800,806,812,830,837,865,909,935,958,977,994,1017,1024,1034,1036,1040,1045,1048,1051,1053,1055,1061,1066,1070,1074,1077,1082],"ymouse":[513,513,513,513,513,513,513,513,513,513,513,513,513,513,513,513,513,513,513,513,513,513,513,513,513,513,511,509,495,480,451,443,407,341,301,263,236,215,183,174,162,158,150,142,139,137,136,132,124,120,113,107,104,94],"timestamp_mouse":[10,37,47,67,88,108,128,147,168,188,208,229,248,269,288,308,328,349,368,388,408,428,449,468,488,508,529,549,567,589,609,628,649,667,689,709,727,748,768,788,808,827,848,867,888,907,927,947,968,987,1007,1027,1047,1067],"xSR":741.5,"ySR":469.95,"xT1":424.9,"yT1":0,"xT2":1058.1,"yT2":0,"toosoon":0,"cond_shown":"equaldotsize","ratio_trial":900,"smaller_num":"9","larger_num":"10","correct_side":2,"subjID":"juanitalopez21","gender":"1","age":"11","school":"6"},{"start_time":1551900852514,"click_time":1551900853481,"finger_time":1551900853203,"fix_duration":1011.4428134682881,"trial":55,"RT":689,"MT":278,"sideResp":2,"stimulus":"img/500/equaldotsize/R/15_Ratio_500_L_1_R_2.png","xmouse":[797,797,797,797,797,797,797,797,797,797,797,797,797,797,797,797,797,797,797,797,797,797,797,797,797,797,797,797,797,797,798,803,815,832,865,950,1029,1070,1097,1115,1131,1134,1134,1130,1127,1126,1126,1127,1129],"ymouse":[519,519,519,519,519,519,519,519,519,519,519,519,519,519,519,519,519,519,519,519,519,519,519,519,519,519,519,519,519,519,518,512,503,489,466,393,318,272,233,197,161,152,144,137,134,123,110,100,91],"timestamp_mouse":[15,27,47,67,89,107,128,147,167,188,208,228,247,267,288,308,328,348,368,388,408,429,448,468,488,508,528,548,568,588,609,629,649,669,689,708,728,747,768,788,807,827,847,867,887,907,927,948,967],"xSR":741.5,"ySR":469.95,"xT1":424.9,"yT1":0,"xT2":1058.1,"yT2":0,"toosoon":0,"cond_shown":"equaldotsize","ratio_trial":500,"smaller_num":"1","larger_num":"2","correct_side":2,"subjID":"juanitalopez21","gender":"1","age":"11","school":"6"},{"start_time":1551900855363,"click_time":1551900856181,"finger_time":1551900856021,"fix_duration":980.4630984068574,"trial":56,"RT":658,"MT":160,"sideResp":1,"stimulus":"img/750/randomdotsizeEA/L/8_Ratio_750_L_4_R_3.png","xmouse":[817,817,817,817,817,817,817,817,817,817,817,817,817,817,817,817,817,817,817,817,817,817,817,817,817,817,817,815,814,811,808,802,772,751,723,682,639,553,516,491,467],"ymouse":[512,512,512,512,512,512,512,512,512,512,512,512,512,512,512,512,512,512,512,512,512,512,512,512,512,512,512,510,508,505,499,489,456,434,405,366,322,213,161,113,71],"timestamp_mouse":[18,38,58,78,99,119,140,159,179,200,219,239,260,279,299,319,339,360,379,399,419,439,459,479,499,519,539,559,579,599,619,640,658,678,699,718,739,759,779,798,818],"xSR":741.5,"ySR":469.95,"xT1":424.9,"yT1":0,"xT2":1058.1,"yT2":0,"toosoon":0,"cond_shown":"randomdotsizeEA","ratio_trial":750,"smaller_num":"3","larger_num":"4","correct_side":1,"subjID":"juanitalopez21","gender":"1","age":"11","school":"6"},{"start_time":1551900857629,"click_time":1551900858641,"finger_time":1551900858221,"fix_duration":327.7103725006676,"trial":57,"RT":592,"MT":420,"sideResp":1,"stimulus":"img/250/equaldotanddens/L/15_Ratio_250_L_12_R_3.png","xmouse":[762,762,762,762,762,762,762,762,762,762,762,762,762,762,762,762,762,762,762,762,762,762,762,762,762,761,761,756,750,724,708,689,672,650,615,604,596,591,588,585,584,584,583,581,570,563,549,542,536,525,519],"ymouse":[518,518,518,518,518,518,518,518,518,518,518,518,518,518,518,518,518,518,518,518,518,518,518,518,518,516,515,508,497,464,441,419,396,368,315,294,279,263,255,241,238,233,227,220,195,181,155,141,128,108,99],"timestamp_mouse":[12,37,52,72,92,112,133,152,172,193,212,233,252,272,292,312,333,352,372,392,412,432,452,473,492,512,532,552,572,592,612,632,652,672,692,713,733,752,773,792,812,832,852,872,893,912,933,952,973,992,1012],"xSR":741.5,"ySR":469.95,"xT1":424.9,"yT1":0,"xT2":1058.1,"yT2":0,"toosoon":0,"cond_shown":"equaldotanddens","ratio_trial":250,"smaller_num":"3","larger_num":"12","correct_side":1,"subjID":"juanitalopez21","gender":"1","age":"11","school":"6"},{"start_time":1551900860282,"click_time":1551900861401,"finger_time":1551900861181,"fix_duration":659.7518698261375,"trial":58,"RT":899,"MT":220,"sideResp":2,"stimulus":"img/900/randomdotsizeEA/R/7_Ratio_900_L_9_R_10.png","xmouse":[781,781,781,781,781,781,781,781,781,781,781,781,781,781,781,781,781,781,781,781,781,781,781,781,781,781,781,781,781,781,781,781,781,781,781,781,781,781,781,781,782,785,790,804,821,843,915,953,994,1033,1061,1076,1105,1116,1119,1119],"ymouse":[499,499,499,499,499,499,499,499,499,499,499,499,499,499,499,499,499,499,499,499,499,499,499,499,499,499,499,499,499,499,499,499,499,499,499,499,499,499,499,499,499,497,492,478,465,449,396,362,326,281,242,213,162,133,114,95],"timestamp_mouse":[19,40,59,79,99,120,140,159,179,199,219,239,259,279,299,319,339,359,379,399,419,439,459,479,500,519,539,560,579,599,620,639,660,680,699,719,739,759,779,799,820,840,859,880,899,919,940,959,979,1001,1020,1040,1060,1080,1100,1119],"xSR":741.5,"ySR":469.95,"xT1":424.9,"yT1":0,"xT2":1058.1,"yT2":0,"toosoon":0,"cond_shown":"randomdotsizeEA","ratio_trial":900,"smaller_num":"9","larger_num":"10","correct_side":2,"subjID":"juanitalopez21","gender":"1","age":"11","school":"6"},{"start_time":1551900863024,"click_time":1551900863922,"finger_time":1551900863721,"fix_duration":581.7554250146591,"trial":59,"RT":697,"MT":201,"sideResp":1,"stimulus":"img/900/randomdotsizeEA/L/4_Ratio_900_L_20_R_18.png","xmouse":[819,819,819,819,819,819,819,819,819,819,819,819,819,819,819,819,819,819,819,819,819,819,819,819,819,819,819,819,818,817,813,811,806,796,779,744,721,699,675,603,575,544,514,493,466],"ymouse":[500,500,500,500,500,500,500,500,500,500,500,500,500,500,500,500,500,500,500,500,500,500,500,500,500,500,500,500,500,499,492,489,482,472,453,417,398,372,344,259,224,189,152,121,86],"timestamp_mouse":[18,44,57,77,97,118,137,157,177,197,217,237,257,277,298,317,338,358,377,397,417,437,458,478,497,517,537,557,577,597,617,637,657,678,697,717,737,757,777,799,817,839,859,877,898],"xSR":741.5,"ySR":469.95,"xT1":424.9,"yT1":0,"xT2":1058.1,"yT2":0,"toosoon":0,"cond_shown":"randomdotsizeEA","ratio_trial":900,"smaller_num":"18","larger_num":"20","correct_side":1,"subjID":"juanitalopez21","gender":"1","age":"11","school":"6"},{"start_time":1551900865700,"click_time":1551900866861,"finger_time":1551900866281,"fix_duration":737.4054962056387,"trial":60,"RT":581,"MT":580,"sideResp":1,"stimulus":"img/250/equaldotsize/L/2_Ratio_250_L_16_R_4.png","xmouse":[761,761,761,761,761,761,761,761,761,761,761,761,761,761,761,761,761,761,761,761,761,761,761,761,761,760,760,755,746,730,715,673,623,605,595,588,583,582,582,582,582,582,581,580,579,578,576,566,558,552,544,534,531,526,526,526,525,525,519],"ymouse":[513,513,513,513,513,513,513,513,513,513,513,513,513,513,513,513,513,513,513,513,513,513,513,513,513,511,510,499,484,465,441,376,284,238,205,178,158,131,124,119,115,111,104,100,96,91,88,80,76,73,70,67,66,65,65,65,65,65,65],"timestamp_mouse":[19,39,41,61,82,102,121,141,162,182,201,223,242,261,281,302,321,342,362,382,401,422,441,461,482,501,521,541,562,581,601,621,641,662,682,702,721,741,762,781,801,822,841,862,881,902,921,941,961,982,1001,1023,1041,1062,1081,1101,1121,1141,1161],"xSR":741.5,"ySR":469.95,"xT1":424.9,"yT1":0,"xT2":1058.1,"yT2":0,"toosoon":0,"cond_shown":"equaldotsize","ratio_trial":250,"smaller_num":"4","larger_num":"16","correct_side":1,"subjID":"juanitalopez21","gender":"1","age":"11","school":"6"},{"start_time":1551900868053,"click_time":1551900869261,"finger_time":1551900868942,"fix_duration":250,"trial":61,"RT":889,"MT":319,"sideResp":1,"stimulus":"img/250/randomdotsizeEA/L/2_Ratio_250_L_16_R_4.png","xmouse":[755,755,755,755,755,755,755,755,755,755,755,755,755,755,755,755,755,755,755,755,755,755,755,755,755,755,755,755,755,755,755,755,755,755,755,755,755,755,755,755,755,755,754,751,728,713,696,681,666,639,625,618,611,601,586,577,567,557,546,526,518],"ymouse":[507,507,507,507,507,507,507,507,507,507,507,507,507,507,507,507,507,507,507,507,507,507,507,507,507,507,507,507,507,507,507,507,507,507,507,507,507,507,507,507,507,506,501,491,455,437,420,400,379,335,303,283,263,241,197,174,154,136,119,88,71],"timestamp_mouse":[8,34,48,68,88,108,128,148,168,188,209,228,248,270,288,308,328,349,368,388,408,428,449,468,488,508,528,548,568,588,608,628,648,668,688,708,728,748,768,788,808,829,848,869,889,908,929,949,969,990,1008,1029,1048,1068,1089,1108,1128,1148,1168,1189,1208],"xSR":741.5,"ySR":469.95,"xT1":424.9,"yT1":0,"xT2":1058.1,"yT2":0,"toosoon":0,"cond_shown":"randomdotsizeEA","ratio_trial":250,"smaller_num":"4","larger_num":"16","correct_side":1,"subjID":"juanitalopez21","gender":"1","age":"11","school":"6"},{"start_time":1551900870763,"click_time":1551900871861,"finger_time":1551900871422,"fix_duration":740.4638783719474,"trial":62,"RT":659,"MT":439,"sideResp":2,"stimulus":"img/250/randomdotsizeEA/R/12_Ratio_250_L_5_R_20.png","xmouse":[804,804,804,804,804,804,804,804,804,804,804,804,804,804,804,804,804,804,804,804,804,804,804,804,804,804,804,804,805,809,816,831,847,883,912,939,961,983,1001,1031,1040,1050,1055,1059,1061,1061,1060,1060,1058,1058,1058,1058,1058,1058,1067],"ymouse":[543,543,543,543,543,543,543,543,543,543,543,543,543,543,543,543,543,543,543,543,543,543,543,543,543,543,543,543,541,538,529,517,503,468,433,403,378,352,331,289,268,249,233,222,197,187,180,173,166,146,134,123,114,103,75],"timestamp_mouse":[34,40,59,78,98,118,139,159,178,198,218,238,259,278,299,318,339,359,379,398,418,439,458,478,499,518,538,559,579,599,618,640,659,681,698,719,739,758,779,798,818,838,858,879,899,919,938,958,978,998,1018,1038,1058,1078,1098],"xSR":741.5,"ySR":469.95,"xT1":424.9,"yT1":0,"xT2":1058.1,"yT2":0,"toosoon":0,"cond_shown":"randomdotsizeEA","ratio_trial":250,"smaller_num":"5","larger_num":"20","correct_side":2,"subjID":"juanitalopez21","gender":"1","age":"11","school":"6"},{"start_time":1551900872913,"click_time":1551900874002,"finger_time":1551900873561,"fix_duration":250,"trial":63,"RT":648,"MT":441,"sideResp":2,"stimulus":"img/500/equaldotsize/R/3_Ratio_500_L_10_R_20.png","xmouse":[780,780,780,780,780,780,780,780,780,780,780,780,780,780,780,780,780,780,780,780,780,780,780,780,780,780,780,780,780,784,788,801,837,859,891,921,959,1083,1127,1154,1172,1183,1192,1193,1193,1192,1192,1190,1190,1188,1186,1181,1168,1163,1158],"ymouse":[504,504,504,504,504,504,504,504,504,504,504,504,504,504,504,504,504,504,504,504,504,504,504,504,504,504,504,504,504,502,499,491,460,442,419,388,349,246,204,176,156,139,116,111,108,106,105,104,104,103,103,102,97,95,92],"timestamp_mouse":[9,29,58,68,88,109,128,148,168,189,208,228,248,269,289,308,328,348,368,388,408,428,448,468,488,508,528,549,569,588,608,628,648,668,689,708,728,748,768,788,808,829,849,870,888,908,928,948,968,989,1008,1029,1049,1069,1089],"xSR":741.5,"ySR":469.95,"xT1":424.9,"yT1":0,"xT2":1058.1,"yT2":0,"toosoon":0,"cond_shown":"equaldotsize","ratio_trial":500,"smaller_num":"10","larger_num":"20","correct_side":2,"subjID":"juanitalopez21","gender":"1","age":"11","school":"6"},{"start_time":1551900876366,"click_time":1551900877562,"finger_time":1551900877261,"fix_duration":1441.7768459008043,"trial":64,"RT":895,"MT":301,"sideResp":2,"stimulus":"img/250/equaldotsize/R/8_Ratio_250_L_1_R_4.png","xmouse":[807,806,806,805,805,805,805,805,805,805,805,805,805,805,805,805,805,805,805,805,805,805,805,805,805,805,805,805,805,805,805,805,805,805,805,805,805,805,805,805,809,816,825,835,870,887,905,923,939,972,1002,1020,1039,1053,1072,1080,1084,1087,1089,1089],"ymouse":[504,506,506,507,508,508,508,508,508,508,508,508,508,508,508,508,508,508,508,508,508,508,508,508,508,508,508,508,508,508,508,508,508,508,508,508,508,508,508,508,504,497,487,474,438,421,404,385,367,320,276,249,219,196,154,136,119,109,100,92],"timestamp_mouse":[20,45,55,76,95,115,136,155,177,196,216,235,255,275,295,315,335,355,376,395,415,435,455,475,496,515,536,555,575,596,615,635,655,675,695,715,735,755,775,795,815,835,855,875,895,915,935,955,975,995,1016,1036,1055,1075,1095,1116,1135,1155,1176,1196],"xSR":741.5,"ySR":469.95,"xT1":424.9,"yT1":0,"xT2":1058.1,"yT2":0,"toosoon":0,"cond_shown":"equaldotsize","ratio_trial":250,"smaller_num":"1","larger_num":"4","correct_side":2,"subjID":"juanitalopez21","gender":"1","age":"11","school":"6"},{"start_time":1551900879791,"click_time":1551900881182,"finger_time":1551900880502,"fix_duration":1447.3609416270208,"trial":65,"RT":711,"MT":680,"sideResp":1,"stimulus":"img/900/equaldotanddens/L/4_Ratio_900_L_20_R_18.png","xmouse":[802,802,802,802,802,802,802,802,802,802,802,802,802,802,802,802,802,802,802,802,802,802,802,802,802,802,802,802,801,798,796,794,791,786,771,762,751,738,725,693,678,663,649,636,613,602,590,579,568,546,543,542,541,541,541,540,540,540,540,539,539,538,535,529,528,527,527,527,526,522],"ymouse":[520,520,520,520,520,520,520,520,520,520,520,520,520,520,520,520,520,520,520,520,520,520,520,520,520,520,520,520,518,515,512,509,505,497,473,459,442,423,406,352,330,302,279,254,205,178,151,128,108,70,65,61,59,59,58,58,58,57,57,56,56,56,55,53,52,52,51,51,51,51],"timestamp_mouse":[19,41,51,70,90,110,130,151,171,191,211,231,251,271,292,310,330,350,370,390,411,430,450,470,490,510,530,551,571,590,611,630,651,671,690,711,731,750,770,790,810,830,851,870,891,911,931,950,972,990,1011,1030,1050,1070,1091,1111,1130,1151,1171,1190,1211,1230,1250,1272,1290,1311,1330,1350,1371,1390],"xSR":741.5,"ySR":469.95,"xT1":424.9,"yT1":0,"xT2":1058.1,"yT2":0,"toosoon":0,"cond_shown":"equaldotanddens","ratio_trial":900,"smaller_num":"18","larger_num":"20","correct_side":1,"subjID":"juanitalopez21","gender":"1","age":"11","school":"6"},{"start_time":1551900883642,"click_time":1551900884741,"finger_time":1551900884201,"fix_duration":1460.1522033238828,"trial":66,"RT":559,"MT":540,"sideResp":2,"stimulus":"img/250/equaldotanddens/R/10_Ratio_250_L_4_R_16.png","xmouse":[806,806,806,806,806,806,806,806,806,806,806,806,806,806,806,806,806,806,806,806,806,806,806,806,807,812,831,848,870,903,943,1046,1104,1157,1203,1228,1239,1247,1247,1247,1247,1247,1247,1247,1247,1247,1247,1247,1247,1200,1191,1176,1170,1160,1155],"ymouse":[523,523,523,523,523,523,523,523,523,523,523,523,523,523,523,523,523,523,523,523,523,523,523,523,523,518,495,477,455,417,373,269,213,156,88,50,29,1,1,1,1,1,1,1,1,1,1,1,1,13,23,36,43,52,57],"timestamp_mouse":[19,39,59,79,99,120,139,159,179,199,220,239,259,280,299,319,339,359,379,399,419,439,460,480,500,520,540,559,579,599,619,639,659,679,699,719,739,760,780,800,819,840,860,880,899,920,939,959,980,999,1019,1039,1059,1079,1099],"xSR":741.5,"ySR":469.95,"xT1":424.9,"yT1":0,"xT2":1058.1,"yT2":0,"toosoon":0,"cond_shown":"equaldotanddens","ratio_trial":250,"smaller_num":"4","larger_num":"16","correct_side":2,"subjID":"juanitalopez21","gender":"1","age":"11","school":"6"},{"start_time":1551900886781,"click_time":1551900887924,"finger_time":1551900887541,"fix_duration":1017.010266649644,"trial":67,"RT":760,"MT":383,"sideResp":2,"stimulus":"img/500/equaldotsize/R/14_Ratio_500_L_5_R_10.png","xmouse":[792,792,792,792,792,792,792,792,792,792,792,792,792,792,792,792,792,792,792,792,792,792,792,792,792,792,792,792,792,792,792,792,792,792,792,792,795,802,813,832,866,957,1004,1039,1070,1087,1104,1113,1117,1122,1131,1135,1138,1142,1145,1147,1148,1147],"ymouse":[490,490,490,490,490,490,490,490,490,490,490,490,490,490,490,490,490,490,490,490,490,490,490,490,490,490,490,490,490,490,490,490,490,490,490,490,488,481,468,450,426,360,328,299,268,249,220,205,198,191,176,168,159,150,140,131,104,93],"timestamp_mouse":[3,20,40,61,81,100,121,141,161,181,201,221,240,260,280,301,320,340,360,380,401,420,440,460,480,500,520,540,560,580,600,620,641,660,680,701,720,741,760,781,801,820,840,861,880,900,921,941,960,981,1001,1021,1040,1061,1079,1100,1120,1143],"xSR":741.5,"ySR":469.95,"xT1":424.9,"yT1":0,"xT2":1058.1,"yT2":0,"toosoon":0,"cond_shown":"equaldotsize","ratio_trial":500,"smaller_num":"5","larger_num":"10","correct_side":2,"subjID":"juanitalopez21","gender":"1","age":"11","school":"6"},{"start_time":1551900890130,"click_time":1551900891022,"finger_time":1551900890701,"fix_duration":1186.8740232975547,"trial":68,"RT":571,"MT":321,"sideResp":2,"stimulus":"img/500/equaldotsize/R/12_Ratio_500_L_1_R_2.png","xmouse":[809,809,809,809,809,809,809,809,809,809,809,809,809,809,809,809,809,809,809,809,809,809,809,809,809,811,816,819,851,871,889,908,926,956,970,984,998,1011,1042,1051,1062,1072,1082,1103,1117],"ymouse":[510,510,510,510,510,510,510,510,510,510,510,510,510,510,510,510,510,510,510,510,510,510,510,510,510,506,500,497,456,429,403,375,350,306,286,266,249,233,192,177,161,147,133,105,89],"timestamp_mouse":[12,35,51,71,91,111,131,151,171,192,211,231,251,272,291,311,331,351,371,391,411,431,451,471,491,512,531,552,571,591,611,632,651,671,691,711,732,752,771,791,811,831,851,871,891],"xSR":741.5,"ySR":469.95,"xT1":424.9,"yT1":0,"xT2":1058.1,"yT2":0,"toosoon":0,"cond_shown":"equaldotsize","ratio_trial":500,"smaller_num":"1","larger_num":"2","