[{"start_time":1551899784471,"click_time":1551899790034,"finger_time":1551899786873,"fix_duration":1316.897802422383,"trial":0,"RT":2402,"MT":3161,"sideResp":2,"stimulus":[],"xmouse":[790,790,790,790,790,790,790,790,790,790,790,790,790,790,790,790,790,790,790,790,790,790,790,790,790,790,790,790,790,790,790,790,790,790,790,790,790,790,790,790,790,790,790,790,790,790,790,790,790,790,790,790,790,790,790,790,790,790,790,790,790,790,790,790,790,790,790,790,790,790,790,790,790,790,790,790,790,790,790,790,790,790,790,790,790,790,790,790,790,790,790,790,790,790,790,790,790,790,790,790,790,790,790,790,790,790,790,790,790,790,790,790,790,790,790,790,790,790,784,778,772,766,762,760,759,759,759,759,759,760,760,760,760,760,760,760,760,760,760,760,760,760,760,760,760,760,758,755,748,745,741,740,736,729,724,718,712,708,699,694,689,686,683,678,675,673,673,672,670,669,668,668,667,665,663,663,662,662,662,661,661,660,659,659,659,659,659,659,659,659,659,659,659,659,659,659,659,659,659,659,659,659,659,659,659,659,659,659,659,659,659,659,659,659,659,659,659,659,659,659,659,659,659,659,659,659,659,659,659,659,659,659,659,659,659,659,659,659,659,659,659,659,659,659,659,659,659,659,659,659,660,669,678,692,703,721,744,769,808,822,835,848,868,910,929,944,956,965,976,991,994,994,994,995,1000,1013,1032,1056,1098],"ymouse":[552,552,552,552,552,552,552,552,552,552,552,552,552,552,552,552,552,552,552,552,552,552,552,552,552,552,552,552,552,552,552,552,552,552,552,552,552,552,552,552,552,552,552,552,552,552,552,552,552,552,552,552,552,552,552,552,552,552,552,552,552,552,552,552,552,552,552,552,552,552,552,552,552,552,552,552,552,552,552,552,552,552,552,552,552,552,552,552,552,552,552,552,552,552,552,552,552,552,552,552,552,552,552,552,552,552,552,552,552,552,552,552,552,552,552,552,551,548,524,509,495,487,480,468,464,459,454,449,446,445,445,445,445,445,445,445,445,445,445,445,445,445,445,445,445,443,437,429,409,401,393,386,379,364,358,348,341,335,322,315,309,305,300,291,288,285,283,282,280,278,277,277,276,271,269,267,266,266,266,264,263,261,261,261,261,261,261,261,261,261,261,261,261,261,261,261,261,261,261,261,261,261,261,261,261,261,261,261,261,261,261,261,261,261,261,261,261,261,261,261,261,261,261,261,261,261,261,261,261,261,261,261,261,261,261,261,261,261,261,261,261,261,261,261,261,261,261,261,261,261,259,246,231,213,206,199,191,184,175,171,165,161,153,136,127,114,97,81,67,49,47,46,45,45,45,47,53,62,72],"timestamp_mouse":[10,22,41,62,82,102,122,143,162,182,202,222,242,261,282,301,322,342,361,381,401,421,441,462,481,501,521,541,561,581,601,621,641,661,681,701,722,741,761,782,801,821,841,862,882,902,922,942,962,982,1001,1022,1042,1063,1082,1103,1122,1142,1162,1182,1202,1222,1242,1262,1282,1302,1322,1342,1362,1382,1402,1423,1443,1462,1483,1502,1522,1542,1563,1583,1603,1622,1642,1661,1681,1702,1721,1741,1761,1781,1801,1822,1841,1861,1881,1901,1921,1942,1962,1983,2002,2022,2042,2062,2083,2102,2122,2142,2163,2182,2202,2222,2242,2263,2283,2302,2322,2342,2361,2383,2402,2423,2442,2462,2482,2501,2521,2541,2561,2581,2601,2621,2642,2661,2682,2701,2721,2741,2761,2782,2801,2822,2841,2862,2881,2901,2921,2941,2962,2981,3002,3022,3042,3062,3081,3102,3122,3142,3161,3182,3203,3222,3243,3263,3282,3303,3322,3342,3362,3382,3402,3423,3443,3462,3482,3501,3521,3541,3562,3581,3602,3621,3641,3662,3681,3701,3721,3741,3762,3781,3801,3821,3842,3863,3882,3902,3922,3942,3962,3982,4002,4022,4042,4062,4082,4102,4122,4142,4162,4182,4201,4221,4241,4261,4281,4301,4321,4341,4362,4381,4401,4421,4441,4462,4482,4502,4522,4542,4562,4582,4602,4622,4642,4662,4682,4702,4722,4742,4762,4782,4802,4822,4841,4862,4881,4901,4921,4941,4962,4981,5001,5021,5041,5062,5081,5101,5121,5141,5162,5182,5201,5221,5241,5262,5282,5302,5322,5342,5362,5382,5402,5422,5442,5462,5482,5502,5523,5542,5563],"xSR":741.5,"ySR":501.8,"xT1":424.9,"yT1":0,"xT2":1058.1,"yT2":0,"toosoon":0,"cond_shown":"Congruent","ratio_trial":100,"L_num":9,"L_den":15,"R_num":8,"R_den":16,"correct_side":1,"subjID":"juanitalopez21","gender":"1","age":"11","school":"6","test":{"fix_dur":[250,1500],"timestim":1000,"targets_dim":[100,100],"targets_relative_coord":[0.3,0.7],"size_stim":[880,420],"start_dim":[100,100],"size_start":[300,300],"size_fix":60,"samplingrate":20,"img_types":["Congruent","Incongruent"],"ratios":[100,200,300],"rep_conds":19,"nTrials":120,"trials_to_rest":500,"Trials_order":[96,79,117,25,41,16,31,18,13,76,47,68,23,86,87,89,72,2,84,105,44,50,77,62,45,67,111,94,63,54,115,55,1,53,0,17,71,29,33,102,51,74,80,81,35,42,97,52,91,118,93,66,14,19,38,75,30,107,10,106,78,15,34,40,90,7,83,119,69,37,5,95,112,22,20,100,57,110,36,99,65,49,108,32,12,70,60,21,82,59,58,101,116,46,9,64,98,103,104,27,56,48,109,88,28,11,43,8,4,85,26,73,61,3,113,24,39,92,6,114],"cond_shown":["Congruent","Incongruent","Incongruent","Incongruent","Incongruent","Congruent","Incongruent","Congruent","Incongruent","Congruent","Incongruent","Congruent","Incongruent","Congruent","Incongruent","Incongruent","Congruent","Congruent","Congruent","Incongruent","Congruent","Congruent","Incongruent","Congruent","Incongruent","Incongruent","Incongruent","Congruent","Incongruent","Congruent","Incongruent","Incongruent","Incongruent","Incongruent","Congruent","Incongruent","Incongruent","Incongruent","Incongruent","Congruent","Incongruent","Congruent","Congruent","Incongruent","Incongruent","Congruent","Incongruent","Congruent","Incongruent","Congruent","Incongruent","Congruent","Congruent","Incongruent","Congruent","Incongruent","Congruent","Incongruent","Congruent","Congruent","Congruent","Incongruent","Congruent","Congruent","Congruent","Incongruent","Incongruent","Incongruent","Incongruent","Incongruent","Incongruent","Incongruent","Congruent","Congruent","Congruent","Congruent","Incongruent","Congruent","Congruent","Incongruent","Incongruent","Incongruent","Congruent","Congruent","Congruent","Congruent","Congruent","Incongruent","Congruent","Incongruent","Congruent","Incongruent","Congruent","Congruent","Incongruent","Congruent","Congruent","Incongruent","Congruent","Incongruent","Congruent","Congruent","Incongruent","Congruent","Congruent","Incongruent","Incongruent","Congruent","Congruent","Incongruent","Congruent","Incongruent","Incongruent","Incongruent","Incongruent","Congruent","Incongruent","Congruent","Congruent","Congruent"],"ratio_trial":[100,100,200,100,300,300,100,100,100,300,300,200,300,200,200,300,100,200,100,200,200,200,300,200,200,100,200,300,200,100,100,100,100,300,100,300,300,300,200,100,200,200,200,200,300,100,100,300,100,300,200,100,200,100,200,200,100,300,300,300,100,200,300,300,100,100,300,300,200,100,300,300,300,300,200,300,200,200,100,200,300,100,100,200,100,300,100,200,300,300,300,300,200,300,200,300,200,100,200,200,200,100,100,300,300,300,100,200,300,100,200,100,100,200,300,100,200,200,100,100],"left_num":[9,8,3,6,4,3,10,2,9,8,4,12,1,16,7,1,6,8,6,3,3,6,13,3,7,3,7,3,7,8,9,6,6,4,3,3,8,13,14,1,7,13,5,11,4,3,12,5,3,4,1,4,16,13,20,7,4,8,4,20,11,3,20,1,15,10,4,1,9,6,8,8,4,3,6,3,14,6,2,14,8,2,8,6,9,1,9,7,2,4,8,13,4,8,11,7,6,17,4,4,13,11,3,7,4,4,17,16,3,9,3,1,3,1,1,7,7,7,11,6],"right_num":[8,6,1,13,8,2,8,6,20,1,2,6,2,9,14,2,15,2,5,11,9,11,12,7,6,4,6,11,12,2,6,3,7,2,4,4,9,12,6,18,12,14,14,3,2,4,2,6,11,13,2,6,9,6,9,6,6,9,13,13,6,11,13,11,13,8,6,2,8,7,9,14,1,4,3,11,12,11,6,6,9,8,2,7,8,8,8,6,12,2,10,12,3,10,3,20,11,10,3,6,14,6,11,20,13,8,10,9,4,20,11,8,7,3,2,9,12,2,6,5],"left_den":[15,16,10,10,5,6,25,5,10,16,20,15,2,30,10,2,12,15,20,4,12,20,26,10,15,6,15,12,10,16,18,12,10,20,20,6,10,26,30,2,10,26,10,20,20,20,30,25,5,20,3,8,30,26,25,15,8,10,20,25,22,4,25,5,25,25,5,2,15,10,10,10,10,6,15,12,30,20,5,30,10,4,16,12,15,30,15,15,10,20,15,26,10,15,20,14,20,30,8,5,26,22,5,14,20,5,30,30,6,10,10,2,9,2,2,14,10,21,22,20],"right_den":[16,10,2,26,16,10,16,12,25,5,4,10,10,27,28,10,25,6,25,20,20,22,15,14,9,10,9,20,24,5,10,5,14,4,16,20,18,15,9,30,24,20,20,4,4,16,4,12,22,26,15,10,27,10,15,9,10,18,26,26,15,20,26,22,26,16,12,10,10,14,18,28,10,5,15,20,18,22,12,9,18,20,5,10,16,24,16,9,24,4,12,15,15,12,4,25,22,15,10,10,20,15,22,25,26,16,15,27,5,25,22,20,30,10,10,15,24,15,15,25],"correct_side":[1,2,2,1,1,1,2,2,1,1,2,1,1,1,1,1,2,1,1,1,2,2,2,2,2,1,2,2,1,1,2,2,1,2,2,1,1,2,2,2,1,2,2,2,2,2,2,2,1,2,1,2,1,2,1,2,2,1,2,1,1,1,1,2,1,2,1,1,2,1,1,1,1,2,1,2,2,2,2,2,1,1,1,2,1,2,1,2,2,2,2,2,1,2,2,2,2,2,1,1,2,1,1,2,2,1,2,1,2,1,2,1,1,1,1,2,1,1,1,1],"img_shown":["img2/100/Congruent/L/C_Dist_100_LN_9_LD_15_RN_8_RD_16_0.png","img2/100/Incongruent/R/I_Dist_100_LN_8_LD_16_RN_6_RD_10_1.png","img2/200/Incongruent/R/I_Dist_200_LN_3_LD_10_RN_1_RD_2_1.png","img2/100/Incongruent/L/I_Dist_100_LN_6_LD_10_RN_13_RD_26_0.png","img2/300/Incongruent/L/I_Dist_300_LN_4_LD_5_RN_8_RD_16_0.png","img2/300/Congruent/L/C_Dist_300_LN_3_LD_6_RN_2_RD_10_0.png","img2/100/Incongruent/R/I_Dist_100_LN_10_LD_25_RN_8_RD_16_1.png","img2/100/Congruent/R/C_Dist_100_LN_2_LD_5_RN_6_RD_12_1.png","img2/100/Incongruent/L/I_Dist_100_LN_9_LD_10_RN_20_RD_25_0.png","img2/300/Congruent/L/C_Dist_300_LN_8_LD_16_RN_1_RD_5_0.png","img2/300/Incongruent/R/I_Dist_300_LN_4_LD_20_RN_2_RD_4_1.png","img2/200/Congruent/L/C_Dist_200_LN_12_LD_15_RN_6_RD_10_0.png","img2/300/Incongruent/L/I_Dist_300_LN_1_LD_2_RN_2_RD_10_0.png","img2/200/Congruent/L/C_Dist_200_LN_16_LD_30_RN_9_RD_27_0.png","img2/200/Incongruent/L/I_Dist_200_LN_7_LD_10_RN_14_RD_28_0.png","img2/300/Incongruent/L/I_Dist_300_LN_1_LD_2_RN_2_RD_10_0.png","img2/100/Congruent/R/C_Dist_100_LN_6_LD_12_RN_15_RD_25_1.png","img2/200/Congruent/L/C_Dist_200_LN_8_LD_15_RN_2_RD_6_0.png","img2/100/Congruent/L/C_Dist_100_LN_6_LD_20_RN_5_RD_25_0.png","img2/200/Incongruent/L/I_Dist_200_LN_3_LD_4_RN_11_RD_20_0.png","img2/200/Congruent/R/C_Dist_200_LN_3_LD_12_RN_9_RD_20_1.png","img2/200/Congruent/R/C_Dist_200_LN_6_LD_20_RN_11_RD_22_1.png","img2/300/Incongruent/R/I_Dist_300_LN_13_LD_26_RN_12_RD_15_1.png","img2/200/Congruent/R/C_Dist_200_LN_3_LD_10_RN_7_RD_14_1.png","img2/200/Incongruent/R/I_Dist_200_LN_7_LD_15_RN_6_RD_9_1.png","img2/100/Incongruent/L/I_Dist_100_LN_3_LD_6_RN_4_RD_10_0.png","img2/200/Incongruent/R/I_Dist_200_LN_7_LD_15_RN_6_RD_9_1.png","img2/300/Congruent/R/C_Dist_300_LN_3_LD_12_RN_11_RD_20_1.png","img2/200/Incongruent/L/I_Dist_200_LN_7_LD_10_RN_12_RD_24_0.png","img2/100/Congruent/L/C_Dist_100_LN_8_LD_16_RN_2_RD_5_0.png","img2/100/Incongruent/R/I_Dist_100_LN_9_LD_18_RN_6_RD_10_1.png","img2/100/Incongruent/R/I_Dist_100_LN_6_LD_12_RN_3_RD_5_1.png","img2/100/Incongruent/L/I_Dist_100_LN_6_LD_10_RN_7_RD_14_0.png","img2/300/Incongruent/R/I_Dist_300_LN_4_LD_20_RN_2_RD_4_1.png","img2/100/Congruent/R/C_Dist_100_LN_3_LD_20_RN_4_RD_16_1.png","img2/300/Incongruent/L/I_Dist_300_LN_3_LD_6_RN_4_RD_20_0.png","img2/300/Incongruent/L/I_Dist_300_LN_8_LD_10_RN_9_RD_18_0.png","img2/300/Incongruent/R/I_Dist_300_LN_13_LD_26_RN_12_RD_15_1.png","img2/200/Incongruent/R/I_Dist_200_LN_14_LD_30_RN_6_RD_9_1.png","img2/100/Congruent/R/C_Dist_100_LN_1_LD_2_RN_18_RD_30_1.png","img2/200/Incongruent/L/I_Dist_200_LN_7_LD_10_RN_12_RD_24_0.png","img2/200/Congruent/R/C_Dist_200_LN_13_LD_26_RN_14_RD_20_1.png","img2/200/Congruent/R/C_Dist_200_LN_5_LD_10_RN_14_RD_20_1.png","img2/200/Incongruent/R/I_Dist_200_LN_11_LD_20_RN_3_RD_4_1.png","img2/300/Incongruent/R/I_Dist_300_LN_4_LD_20_RN_2_RD_4_1.png","img2/100/Congruent/R/C_Dist_100_LN_3_LD_20_RN_4_RD_16_1.png","img2/100/Incongruent/R/I_Dist_100_LN_12_LD_30_RN_2_RD_4_1.png","img2/300/Congruent/R/C_Dist_300_LN_5_LD_25_RN_6_RD_12_1.png","img2/100/Incongruent/L/I_Dist_100_LN_3_LD_5_RN_11_RD_22_0.png","img2/300/Congruent/R/C_Dist_300_LN_4_LD_20_RN_13_RD_26_1.png","img2/200/Incongruent/L/I_Dist_200_LN_1_LD_3_RN_2_RD_15_0.png","img2/100/Congruent/R/C_Dist_100_LN_4_LD_8_RN_6_RD_10_1.png","img2/200/Congruent/L/C_Dist_200_LN_16_LD_30_RN_9_RD_27_0.png","img2/100/Incongruent/R/I_Dist_100_LN_13_LD_26_RN_6_RD_10_1.png","img2/200/Congruent/L/C_Dist_200_LN_20_LD_25_RN_9_RD_15_0.png","img2/200/Incongruent/R/I_Dist_200_LN_7_LD_15_RN_6_RD_9_1.png","img2/100/Congruent/R/C_Dist_100_LN_4_LD_8_RN_6_RD_10_1.png","img2/300/Incongruent/L/I_Dist_300_LN_8_LD_10_RN_9_RD_18_0.png","img2/300/Congruent/R/C_Dist_300_LN_4_LD_20_RN_13_RD_26_1.png","img2/300/Congruent/L/C_Dist_300_LN_20_LD_25_RN_13_RD_26_0.png","img2/100/Congruent/L/C_Dist_100_LN_11_LD_22_RN_6_RD_15_0.png","img2/200/Incongruent/L/I_Dist_200_LN_3_LD_4_RN_11_RD_20_0.png","img2/300/Congruent/L/C_Dist_300_LN_20_LD_25_RN_13_RD_26_0.png","img2/300/Congruent/R/C_Dist_300_LN_1_LD_5_RN_11_RD_22_1.png","img2/100/Congruent/L/C_Dist_100_LN_15_LD_25_RN_13_RD_26_0.png","img2/100/Incongruent/R/I_Dist_100_LN_10_LD_25_RN_8_RD_16_1.png","img2/300/Incongruent/L/I_Dist_300_LN_4_LD_5_RN_6_RD_12_0.png","img2/300/Incongruent/L/I_Dist_300_LN_1_LD_2_RN_2_RD_10_0.png","img2/200/Incongruent/R/I_Dist_200_LN_9_LD_15_RN_8_RD_10_1.png","img2/100/Incongruent/L/I_Dist_100_LN_6_LD_10_RN_7_RD_14_0.png","img2/300/Incongruent/L/I_Dist_300_LN_8_LD_10_RN_9_RD_18_0.png","img2/300/Incongruent/L/I_Dist_300_LN_8_LD_10_RN_14_RD_28_0.png","img2/300/Congruent/L/C_Dist_300_LN_4_LD_10_RN_1_RD_10_0.png","img2/300/Congruent/R/C_Dist_300_LN_3_LD_6_RN_4_RD_5_1.png","img2/200/Congruent/L/C_Dist_200_LN_6_LD_15_RN_3_RD_15_0.png","img2/300/Congruent/R/C_Dist_300_LN_3_LD_12_RN_11_RD_20_1.png","img2/200/Incongruent/R/I_Dist_200_LN_14_LD_30_RN_12_RD_18_1.png","img2/200/Congruent/R/C_Dist_200_LN_6_LD_20_RN_11_RD_22_1.png","img2/100/Congruent/R/C_Dist_100_LN_2_LD_5_RN_6_RD_12_1.png","img2/200/Incongruent/R/I_Dist_200_LN_14_LD_30_RN_6_RD_9_1.png","img2/300/Incongruent/L/I_Dist_300_LN_8_LD_10_RN_9_RD_18_0.png","img2/100/Incongruent/L/I_Dist_100_LN_2_LD_4_RN_8_RD_20_0.png","img2/100/Congruent/L/C_Dist_100_LN_8_LD_16_RN_2_RD_5_0.png","img2/200/Congruent/R/C_Dist_200_LN_6_LD_12_RN_7_RD_10_1.png","img2/100/Congruent/L/C_Dist_100_LN_9_LD_15_RN_8_RD_16_0.png","img2/300/Congruent/R/C_Dist_300_LN_1_LD_30_RN_8_RD_24_1.png","img2/100/Congruent/L/C_Dist_100_LN_9_LD_15_RN_8_RD_16_0.png","img2/200/Incongruent/R/I_Dist_200_LN_7_LD_15_RN_6_RD_9_1.png","img2/300/Congruent/R/C_Dist_300_LN_2_LD_10_RN_12_RD_24_1.png","img2/300/Incongruent/R/I_Dist_300_LN_4_LD_20_RN_2_RD_4_1.png","img2/300/Congruent/R/C_Dist_300_LN_8_LD_15_RN_10_RD_12_1.png","img2/300/Incongruent/R/I_Dist_300_LN_13_LD_26_RN_12_RD_15_1.png","img2/200/Congruent/L/C_Dist_200_LN_4_LD_10_RN_3_RD_15_0.png","img2/300/Congruent/R/C_Dist_300_LN_8_LD_15_RN_10_RD_12_1.png","img2/200/Incongruent/R/I_Dist_200_LN_11_LD_20_RN_3_RD_4_1.png","img2/300/Congruent/R/C_Dist_300_LN_7_LD_14_RN_20_RD_25_1.png","img2/200/Congruent/R/C_Dist_200_LN_6_LD_20_RN_11_RD_22_1.png","img2/100/Incongruent/R/I_Dist_100_LN_17_LD_30_RN_10_RD_15_1.png","img2/200/Congruent/L/C_Dist_200_LN_4_LD_8_RN_3_RD_10_0.png","img2/200/Incongruent/L/I_Dist_200_LN_4_LD_5_RN_6_RD_10_0.png","img2/200/Congruent/R/C_Dist_200_LN_13_LD_26_RN_14_RD_20_1.png","img2/100/Congruent/L/C_Dist_100_LN_11_LD_22_RN_6_RD_15_0.png","img2/100/Incongruent/L/I_Dist_100_LN_3_LD_5_RN_11_RD_22_0.png","img2/300/Congruent/R/C_Dist_300_LN_7_LD_14_RN_20_RD_25_1.png","img2/300/Congruent/R/C_Dist_300_LN_4_LD_20_RN_13_RD_26_1.png","img2/300/Incongruent/L/I_Dist_300_LN_4_LD_5_RN_8_RD_16_0.png","img2/100/Incongruent/R/I_Dist_100_LN_17_LD_30_RN_10_RD_15_1.png","img2/200/Congruent/L/C_Dist_200_LN_16_LD_30_RN_9_RD_27_0.png","img2/300/Congruent/R/C_Dist_300_LN_3_LD_6_RN_4_RD_5_1.png","img2/100/Incongruent/L/I_Dist_100_LN_9_LD_10_RN_20_RD_25_0.png","img2/200/Congruent/R/C_Dist_200_LN_3_LD_10_RN_11_RD_22_1.png","img2/100/Incongruent/L/I_Dist_100_LN_1_LD_2_RN_8_RD_20_0.png","img2/100/Incongruent/L/I_Dist_100_LN_3_LD_9_RN_7_RD_30_0.png","img2/200/Incongruent/L/I_Dist_200_LN_1_LD_2_RN_3_RD_10_0.png","img2/300/Incongruent/L/I_Dist_300_LN_1_LD_2_RN_2_RD_10_0.png","img2/100/Congruent/R/C_Dist_100_LN_7_LD_14_RN_9_RD_15_1.png","img2/200/Incongruent/L/I_Dist_200_LN_7_LD_10_RN_12_RD_24_0.png","img2/200/Congruent/L/C_Dist_200_LN_7_LD_21_RN_2_RD_15_0.png","img2/100/Congruent/L/C_Dist_100_LN_11_LD_22_RN_6_RD_15_0.png","img2/100/Congruent/L/C_Dist_100_LN_6_LD_20_RN_5_RD_25_0.png"],"dist100_C":[["C_Dist_100_LN_10_LD_25_RN_3_RD_10_0.png","C_Dist_100_LN_11_LD_22_RN_4_RD_10_0.png","C_Dist_100_LN_11_LD_22_RN_6_RD_15_0.png","C_Dist_100_LN_15_LD_25_RN_13_RD_26_0.png","C_Dist_100_LN_3_LD_6_RN_2_RD_5_0.png","C_Dist_100_LN_6_LD_20_RN_5_RD_25_0.png","C_Dist_100_LN_8_LD_16_RN_2_RD_5_0.png","C_Dist_100_LN_9_LD_15_RN_8_RD_16_0.png"],["C_Dist_100_LN_1_LD_2_RN_18_RD_30_1.png","C_Dist_100_LN_1_LD_2_RN_3_RD_5_1.png","C_Dist_100_LN_12_LD_30_RN_13_RD_26_1.png","C_Dist_100_LN_2_LD_5_RN_11_RD_22_1.png","C_Dist_100_LN_2_LD_5_RN_6_RD_12_1.png","C_Dist_100_LN_3_LD_20_RN_4_RD_16_1.png","C_Dist_100_LN_4_LD_10_RN_15_RD_30_1.png","C_Dist_100_LN_4_LD_8_RN_6_RD_10_1.png","C_Dist_100_LN_6_LD_12_RN_15_RD_25_1.png","C_Dist_100_LN_7_LD_14_RN_15_RD_25_1.png","C_Dist_100_LN_7_LD_14_RN_9_RD_15_1.png"]],"dist100_I":[["I_Dist_100_LN_1_LD_2_RN_8_RD_20_0.png","I_Dist_100_LN_2_LD_4_RN_6_RD_15_0.png","I_Dist_100_LN_2_LD_4_RN_8_RD_20_0.png","I_Dist_100_LN_3_LD_5_RN_11_RD_22_0.png","I_Dist_100_LN_3_LD_5_RN_8_RD_16_0.png","I_Dist_100_LN_3_LD_6_RN_4_RD_10_0.png","I_Dist_100_LN_3_LD_9_RN_7_RD_30_0.png","I_Dist_100_LN_4_LD_8_RN_8_RD_20_0.png","I_Dist_100_LN_6_LD_10_RN_11_RD_22_0.png","I_Dist_100_LN_6_LD_10_RN_13_RD_26_0.png","I_Dist_100_LN_6_LD_10_RN_7_RD_14_0.png","I_Dist_100_LN_9_LD_10_RN_20_RD_25_0.png","I_Dist_100_LN_9_LD_15_RN_13_RD_26_0.png","I_Dist_100_LN_9_LD_15_RN_14_RD_28_0.png"],["I_Dist_100_LN_10_LD_25_RN_8_RD_16_1.png","I_Dist_100_LN_10_LD_25_RN_9_RD_18_1.png","I_Dist_100_LN_11_LD_22_RN_9_RD_15_1.png","I_Dist_100_LN_12_LD_24_RN_9_RD_15_1.png","I_Dist_100_LN_12_LD_30_RN_2_RD_4_1.png","I_Dist_100_LN_13_LD_26_RN_12_RD_20_1.png","I_Dist_100_LN_13_LD_26_RN_6_RD_10_1.png","I_Dist_100_LN_17_LD_30_RN_10_RD_15_1.png","I_Dist_100_LN_6_LD_12_RN_3_RD_5_1.png","I_Dist_100_LN_8_LD_16_RN_6_RD_10_1.png","I_Dist_100_LN_8_LD_20_RN_1_RD_2_1.png","I_Dist_100_LN_9_LD_18_RN_6_RD_10_1.png"]],"dist100_S":[["E_Dist_100_LN_2_LD_12_RN_2_RD_30_0.png","E_Dist_100_LN_6_LD_10_RN_6_RD_12_0.png"],["E_Dist_100_LN_6_LD_12_RN_6_RD_10_1.png"]],"dist200_C":[["C_Dist_200_LN_11_LD_22_RN_3_RD_10_0.png","C_Dist_200_LN_12_LD_15_RN_6_RD_10_0.png","C_Dist_200_LN_12_LD_20_RN_6_RD_15_0.png","C_Dist_200_LN_14_LD_28_RN_6_RD_20_0.png","C_Dist_200_LN_15_LD_25_RN_4_RD_10_0.png","C_Dist_200_LN_16_LD_20_RN_12_RD_20_0.png","C_Dist_200_LN_16_LD_30_RN_9_RD_27_0.png","C_Dist_200_LN_20_LD_25_RN_9_RD_15_0.png","C_Dist_200_LN_21_LD_30_RN_2_RD_4_0.png","C_Dist_200_LN_4_LD_10_RN_3_RD_15_0.png","C_Dist_200_LN_4_LD_8_RN_3_RD_10_0.png","C_Dist_200_LN_6_LD_15_RN_3_RD_15_0.png","C_Dist_200_LN_7_LD_21_RN_2_RD_15_0.png","C_Dist_200_LN_8_LD_15_RN_2_RD_6_0.png","C_Dist_200_LN_8_LD_15_RN_3_RD_9_0.png","C_Dist_200_LN_8_LD_15_RN_7_RD_21_0.png","C_Dist_200_LN_9_LD_20_RN_4_RD_16_0.png"],["C_Dist_200_LN_1_LD_2_RN_21_RD_30_1.png","C_Dist_200_LN_13_LD_26_RN_14_RD_20_1.png","C_Dist_200_LN_3_LD_10_RN_11_RD_22_1.png","C_Dist_200_LN_3_LD_10_RN_14_RD_28_1.png","C_Dist_200_LN_3_LD_10_RN_7_RD_14_1.png","C_Dist_200_LN_3_LD_12_RN_9_RD_20_1.png","C_Dist_200_LN_3_LD_6_RN_14_RD_20_1.png","C_Dist_200_LN_5_LD_10_RN_14_RD_20_1.png","C_Dist_200_LN_6_LD_12_RN_7_RD_10_1.png","C_Dist_200_LN_6_LD_20_RN_11_RD_22_1.png","C_Dist_200_LN_7_LD_15_RN_18_RD_27_1.png","C_Dist_200_LN_9_LD_30_RN_13_RD_26_1.png"]],"dist200_I":[["I_Dist_200_LN_1_LD_2_RN_3_RD_10_0.png","I_Dist_200_LN_1_LD_3_RN_2_RD_15_0.png","I_Dist_200_LN_3_LD_4_RN_11_RD_20_0.png","I_Dist_200_LN_4_LD_5_RN_6_RD_10_0.png","I_Dist_200_LN_4_LD_6_RN_14_RD_30_0.png","I_Dist_200_LN_7_LD_10_RN_12_RD_24_0.png","I_Dist_200_LN_7_LD_10_RN_14_RD_28_0.png","I_Dist_200_LN_7_LD_10_RN_8_RD_16_0.png"],["I_Dist_200_LN_11_LD_20_RN_3_RD_4_1.png","I_Dist_200_LN_14_LD_30_RN_12_RD_18_1.png","I_Dist_200_LN_14_LD_30_RN_6_RD_9_1.png","I_Dist_200_LN_3_LD_10_RN_1_RD_2_1.png","I_Dist_200_LN_4_LD_30_RN_1_RD_3_1.png","I_Dist_200_LN_6_LD_20_RN_3_RD_6_1.png","I_Dist_200_LN_7_LD_15_RN_4_RD_6_1.png","I_Dist_200_LN_7_LD_15_RN_6_RD_9_1.png","I_Dist_200_LN_9_LD_15_RN_8_RD_10_1.png"]],"dist200_S":[["E_Dist_200_LN_3_LD_6_RN_3_RD_10_0.png"],["E_Dist_200_LN_3_LD_10_RN_3_RD_6_1.png"]],"dist300_C":[["C_Dist_300_LN_11_LD_22_RN_1_RD_5_0.png","C_Dist_300_LN_11_LD_22_RN_2_RD_10_0.png","C_Dist_300_LN_11_LD_22_RN_4_RD_20_0.png","C_Dist_300_LN_12_LD_24_RN_2_RD_10_0.png","C_Dist_300_LN_18_LD_20_RN_9_RD_15_0.png","C_Dist_300_LN_20_LD_25_RN_13_RD_26_0.png","C_Dist_300_LN_20_LD_25_RN_14_RD_28_0.png","C_Dist_300_LN_20_LD_25_RN_5_RD_10_0.png","C_Dist_300_LN_20_LD_25_RN_8_RD_16_0.png","C_Dist_300_LN_20_LD_25_RN_9_RD_18_0.png","C_Dist_300_LN_24_LD_30_RN_2_RD_4_0.png","C_Dist_300_LN_24_LD_30_RN_8_RD_16_0.png","C_Dist_300_LN_3_LD_6_RN_2_RD_10_0.png","C_Dist_300_LN_4_LD_10_RN_1_RD_10_0.png","C_Dist_300_LN_4_LD_5_RN_2_RD_4_0.png","C_Dist_300_LN_8_LD_16_RN_1_RD_5_0.png","C_Dist_300_LN_9_LD_10_RN_3_RD_5_0.png"],["C_Dist_300_LN_1_LD_20_RN_7_RD_20_1.png","C_Dist_300_LN_1_LD_3_RN_19_RD_30_1.png","C_Dist_300_LN_1_LD_30_RN_8_RD_24_1.png","C_Dist_300_LN_1_LD_5_RN_11_RD_22_1.png","C_Dist_300_LN_1_LD_5_RN_3_RD_6_1.png","C_Dist_300_LN_1_LD_5_RN_6_RD_12_1.png","C_Dist_300_LN_2_LD_10_RN_12_RD_24_1.png","C_Dist_300_LN_2_LD_20_RN_10_RD_25_1.png","C_Dist_300_LN_3_LD_12_RN_11_RD_20_1.png","C_Dist_300_LN_3_LD_6_RN_4_RD_5_1.png","C_Dist_300_LN_4_LD_20_RN_13_RD_26_1.png","C_Dist_300_LN_5_LD_25_RN_6_RD_12_1.png","C_Dist_300_LN_5_LD_25_RN_7_RD_14_1.png","C_Dist_300_LN_7_LD_14_RN_20_RD_25_1.png","C_Dist_300_LN_8_LD_15_RN_10_RD_12_1.png"]],"dist300_I":[["I_Dist_300_LN_1_LD_2_RN_2_RD_10_0.png","I_Dist_300_LN_1_LD_2_RN_3_RD_15_0.png","I_Dist_300_LN_2_LD_4_RN_6_RD_30_0.png","I_Dist_300_LN_3_LD_6_RN_4_RD_20_0.png","I_Dist_300_LN_4_LD_5_RN_6_RD_12_0.png","I_Dist_300_LN_4_LD_5_RN_8_RD_16_0.png","I_Dist_300_LN_7_LD_10_RN_8_RD_20_0.png","I_Dist_300_LN_8_LD_10_RN_14_RD_28_0.png","I_Dist_300_LN_8_LD_10_RN_9_RD_18_0.png"],["I_Dist_300_LN_13_LD_26_RN_12_RD_15_1.png","I_Dist_300_LN_4_LD_20_RN_2_RD_4_1.png"]],"dist300_S":[["E_Dist_300_LN_9_LD_12_RN_9_RD_20_0.png"],["E_Dist_300_LN_18_LD_30_RN_18_RD_20_1.png","E_Dist_300_LN_3_LD_10_RN_3_RD_5_1.png","E_Dist_300_LN_9_LD_20_RN_9_RD_12_1.png"]],"dist500_C":[["C_Dist_500_LN_10_LD_13_RN_7_RD_26_0.png","C_Dist_500_LN_10_LD_15_RN_4_RD_24_0.png","C_Dist_500_LN_12_LD_16_RN_3_RD_12_0.png","C_Dist_500_LN_12_LD_18_RN_4_RD_24_0.png","C_Dist_500_LN_15_LD_18_RN_5_RD_15_0.png","C_Dist_500_LN_15_LD_20_RN_1_RD_4_0.png","C_Dist_500_LN_18_LD_27_RN_1_RD_6_0.png","C_Dist_500_LN_20_LD_24_RN_1_RD_3_0.png","C_Dist_500_LN_20_LD_24_RN_3_RD_9_0.png","C_Dist_500_LN_20_LD_24_RN_7_RD_21_0.png","C_Dist_500_LN_20_LD_28_RN_3_RD_14_0.png","C_Dist_500_LN_21_LD_28_RN_6_RD_24_0.png","C_Dist_500_LN_22_LD_28_RN_2_RD_7_0.png","C_Dist_500_LN_25_LD_30_RN_9_RD_27_0.png","C_Dist_500_LN_4_LD_6_RN_1_RD_6_0.png","C_Dist_500_LN_5_LD_6_RN_2_RD_6_0.png","C_Dist_500_LN_6_LD_9_RN_1_RD_6_0.png","C_Dist_500_LN_7_LD_10_RN_1_RD_5_0.png","C_Dist_500_LN_8_LD_12_RN_1_RD_6_0.png","C_Dist_500_LN_8_LD_12_RN_4_RD_24_0.png"],["C_Dist_500_LN_1_LD_4_RN_12_RD_16_1.png","C_Dist_500_LN_1_LD_4_RN_9_RD_12_1.png","C_Dist_500_LN_1_LD_9_RN_11_RD_18_1.png","C_Dist_500_LN_10_LD_24_RN_22_RD_24_1.png","C_Dist_500_LN_2_LD_12_RN_10_RD_15_1.png","C_Dist_500_LN_2_LD_12_RN_12_RD_18_1.png","C_Dist_500_LN_2_LD_12_RN_4_RD_6_1.png","C_Dist_500_LN_2_LD_24_RN_7_RD_12_1.png","C_Dist_500_LN_2_LD_5_RN_18_RD_20_1.png","C_Dist_500_LN_2_LD_5_RN_9_RD_10_1.png","C_Dist_500_LN_2_LD_8_RN_12_RD_16_1.png","C_Dist_500_LN_2_LD_8_RN_21_RD_28_1.png","C_Dist_500_LN_3_LD_10_RN_4_RD_5_1.png","C_Dist_500_LN_3_LD_12_RN_15_RD_20_1.png","C_Dist_500_LN_3_LD_30_RN_6_RD_10_1.png","C_Dist_500_LN_3_LD_8_RN_14_RD_16_1.png","C_Dist_500_LN_4_LD_16_RN_15_RD_20_1.png","C_Dist_500_LN_4_LD_24_RN_12_RD_18_1.png","C_Dist_500_LN_5_LD_14_RN_6_RD_7_1.png","C_Dist_500_LN_7_LD_21_RN_20_RD_24_1.png","C_Dist_500_LN_7_LD_28_RN_12_RD_16_1.png","C_Dist_500_LN_7_LD_28_RN_9_RD_12_1.png","C_Dist_500_LN_9_LD_27_RN_20_RD_24_1.png"]],"dist500_I":[["I_Dist_500_LN_2_LD_3_RN_4_RD_24_0.png","I_Dist_500_LN_5_LD_6_RN_6_RD_18_0.png","I_Dist_500_LN_7_LD_8_RN_9_RD_24_0.png"],["I_Dist_500_LN_7_LD_21_RN_5_RD_6_1.png"]],"dist500_S":[["E_Dist_500_LN_6_LD_8_RN_6_RD_24_0.png"],["E_Dist_500_LN_2_LD_12_RN_2_RD_3_1.png","E_Dist_500_LN_6_LD_24_RN_6_RD_8_1.png"]]}},{"start_time":1551899793170,"click_time":1551899796093,"finger_time":1551899795272,"fix_duration":954.6082181460961,"trial":1,"RT":2102,"MT":821,"sideResp":1,"stimulus":[],"xmouse":[802,802,802,802,802,802,802,802,802,802,802,802,802,802,802,802,802,802,802,802,802,802,802,802,802,802,802,802,802,802,802,802,802,802,802,802,802,802,802,802,802,802,802,802,802,802,802,802,802,802,802,802,802,802,802,802,802,802,802,802,802,802,802,802,802,802,802,802,802,802,802,802,802,802,802,802,802,802,802,802,802,802,802,802,802,802,802,802,802,802,802,802,802,802,802,802,802,802,802,802,802,802,802,801,784,771,756,742,728,715,696,688,685,684,684,684,684,684,682,672,664,654,647,642,633,630,624,618,612,601,595,587,578,564,547,543,538,534,528,520,519,518,517,516,512,510,508],"ymouse":[537,537,537,537,537,537,537,537,537,537,537,537,537,537,537,537,537,537,537,537,537,537,537,537,537,537,537,537,537,537,537,537,537,537,537,537,537,537,537,537,537,537,537,537,537,537,537,537,537,537,537,537,537,537,537,537,537,537,537,537,537,537,537,537,537,537,537,537,537,537,537,537,537,537,537,537,537,537,537,537,537,537,537,537,537,537,537,537,537,537,537,537,537,537,537,537,537,537,537,537,537,537,537,535,504,483,465,446,429,416,397,390,387,386,386,386,386,384,380,358,343,327,316,307,288,279,268,256,247,226,213,202,190,174,153,148,142,136,128,118,115,114,113,110,104,100,95],"timestamp_mouse":[9,23,43,63,83,103,124,143,163,184,203,224,244,263,283,303,323,343,363,383,403,423,443,463,484,503,523,543,563,583,603,624,643,662,683,703,722,743,763,782,802,822,842,862,883,903,922,942,962,982,1002,1022,1042,1062,1082,1102,1123,1142,1162,1183,1203,1223,1243,1263,1284,1303,1324,1343,1363,1383,1403,1423,1444,1464,1483,1503,1524,1543,1563,1583,1604,1623,1643,1664,1683,1703,1723,1743,1763,1783,1803,1823,1843,1863,1884,1904,1923,1943,1963,1982,2002,2022,2042,2062,2082,2102,2122,2142,2162,2183,2202,2222,2242,2262,2282,2302,2322,2342,2362,2383,2403,2422,2442,2463,2483,2504,2524,2542,2562,2582,2603,2624,2643,2664,2683,2704,2724,2744,2763,2782,2803,2824,2843,2863,2883,2904,2923],"xSR":741.5,"ySR":501.8,"xT1":424.9,"yT1":0,"xT2":1058.1,"yT2":0,"toosoon":0,"cond_shown":"Incongruent","ratio_trial":100,"L_num":8,"L_den":16,"R_num":6,"R_den":10,"correct_side":2,"subjID":"juanitalopez21","gender":"1","school":"6","age":"11"},{"start_time":1551899800285,"click_time":1551899806732,"finger_time":1551899805953,"fix_duration":250,"trial":2,"RT":5668,"MT":779,"sideResp":1,"stimulus":[],"xmouse":[765,766,766,766,766,766,766,766,766,766,766,766,766,766,766,766,766,766,766,766,766,766,766,766,766,766,766,766,766,766,766,766,766,766,766,766,766,766,766,766,766,766,766,766,766,766,766,766,766,766,766,766,766,766,766,766,766,766,766,766,766,766,766,766,766,766,766,766,766,766,766,766,766,766,766,766,766,766,766,766,766,766,766,766,766,766,766,766,766,766,766,766,766,766,766,766,766,766,766,766,766,766,766,766,766,766,766,766,766,766,766,766,766,766,766,766,766,766,766,766,766,766,766,766,766,766,766,766,766,766,766,766,766,766,766,766,766,766,766,766,766,766,766,766,766,766,766,766,766,766,766,766,766,766,766,766,766,766,766,766,766,766,766,766,766,766,766,766,766,766,766,766,766,766,766,766,766,766,766,766,766,766,766,766,766,766,766,766,766,766,766,766,766,766,766,766,766,766,766,766,766,766,766,766,766,766,766,766,766,766,766,766,766,766,766,766,766,766,766,766,766,766,766,766,766,766,766,766,766,766,766,766,766,766,766,766,766,766,766,766,766,766,766,766,766,766,766,766,766,766,766,766,766,766,766,766,766,766,766,766,766,766,766,766,766,766,766,766,766,766,766,766,766,766,766,766,766,766,766,764,760,753,742,727,674,654,636,618,599,587,569,565,563,562,560,557,557,557,557,557,566,573,576,576,577,577,577,577,577,577,577,577,569,559,529,511,495,484,473,454,451,449,446],"ymouse":[516,517,517,517,517,517,517,517,517,517,517,517,517,517,517,517,517,517,517,517,517,517,517,517,517,517,517,517,517,517,517,517,517,517,517,517,517,517,517,517,517,517,517,517,517,517,517,517,517,517,517,517,517,517,517,517,517,517,517,517,517,517,517,517,517,517,517,517,517,517,517,517,517,517,517,517,517,517,517,517,517,517,517,517,517,517,517,517,517,517,517,517,517,517,517,517,517,517,517,517,517,517,517,517,517,517,517,517,517,517,517,517,517,517,517,517,517,517,517,517,517,517,517,517,517,517,517,517,517,517,517,517,517,517,517,517,517,517,517,517,517,517,517,517,517,517,517,517,517,517,517,517,517,517,517,517,517,517,517,517,517,517,517,517,517,517,517,517,517,517,517,517,517,517,517,517,517,517,517,517,517,517,517,517,517,517,517,517,517,517,517,517,517,517,517,517,517,517,517,517,517,517,517,517,517,517,517,517,517,517,517,517,517,517,517,517,517,517,517,517,517,517,517,517,517,517,517,517,517,517,517,517,517,517,517,517,517,517,517,517,517,517,517,517,517,517,517,517,517,517,517,517,517,517,517,517,517,517,517,517,517,517,517,517,517,517,517,517,517,517,517,517,517,517,517,517,517,517,518,520,523,528,536,548,588,601,615,628,641,652,664,664,664,662,653,609,569,525,481,437,338,277,254,246,239,239,239,239,239,239,239,240,245,248,251,243,232,216,198,153,131,111,95],"timestamp_mouse":[13,28,52,68,88,109,128,148,168,188,209,228,249,268,288,308,329,348,368,387,407,427,447,468,487,507,528,547,567,588,607,627,647,667,687,708,727,747,767,788,808,827,847,867,887,907,928,948,968,988,1008,1028,1048,1069,1088,1108,1129,1149,1169,1188,1209,1229,1249,1269,1288,1308,1328,1348,1368,1388,1408,1429,1448,1468,1488,1508,1528,1548,1567,1587,1607,1628,1647,1667,1688,1707,1727,1747,1767,1788,1807,1827,1847,1867,1887,1908,1928,1948,1968,1988,2008,2028,2048,2068,2088,2108,2129,2148,2168,2189,2208,2229,2248,2267,2287,2307,2327,2347,2367,2387,2408,2428,2447,2468,2487,2507,2528,2547,2567,2587,2607,2628,2648,2668,2688,2708,2729,2748,2768,2789,2808,2828,2848,2868,2888,2908,2928,2949,2967,2987,3007,3027,3047,3067,3087,3108,3129,3149,3168,3188,3208,3229,3248,3268,3289,3309,3329,3349,3368,3388,3408,3428,3448,3468,3488,3508,3528,3548,3568,3588,3609,3628,3648,3669,3688,3708,3728,3748,3768,3788,3809,3828,3848,3868,3887,3907,3928,3947,3968,3987,4007,4027,4047,4067,4087,4108,4128,4149,4168,4188,4208,4228,4249,4268,4289,4309,4328,4348,4368,4388,4408,4429,4447,4467,4487,4508,4527,4547,4568,4588,4608,4628,4649,4668,4688,4708,4728,4748,4769,4788,4808,4828,4848,4868,4888,4908,4927,4947,4968,4987,5007,5027,5048,5067,5087,5107,5128,5147,5167,5188,5208,5227,5247,5268,5287,5307,5327,5347,5367,5388,5409,5428,5448,5468,5488,5508,5529,5548,5568,5588,5609,5628,5648,5668,5687,5707,5728,5748,5768,5788,5808,5828,5848,5868,5888,5908,5928,5948,5968,5988,6008,6028,6048,6068,6088,6108,6127,6147,6168,6188,6207,6227,6247,6267,6288,6307,6328,6348,6367,6388,6407,6427,6447],"xSR":741.5,"ySR":501.8,"xT1":424.9,"yT1":0,"xT2":1058.1,"yT2":0,"toosoon":0,"cond_shown":"Incongruent","ratio_trial":200,"L_num":3,"L_den":10,"R_num":1,"R_den":2,"correct_side":2,"subjID":"juanitalopez21","gender":"1","school":"6","age":"11"},{"start_time":1551899814091,"click_time":1551899817434,"finger_time":1551899816113,"fix_duration":737.2466259189009,"trial":3,"RT":2022,"MT":1321,"sideResp":2,"stimulus":[],"xmouse":[823,823,823,823,823,823,823,823,823,823,823,823,823,823,823,823,823,823,823,823,823,823,823,823,823,823,823,823,823,823,823,823,823,823,823,823,823,823,823,823,823,823,823,823,823,823,823,823,823,823,823,823,823,823,823,823,823,823,823,823,823,823,823,823,823,823,823,823,823,823,823,823,823,823,823,823,823,823,823,823,823,823,823,823,823,823,823,823,823,823,823,823,823,823,823,823,823,823,822,820,814,813,813,812,812,813,819,821,822,822,823,823,823,824,825,829,836,839,844,852,862,880,884,884,884,884,884,884,884,884,884,884,884,884,884,884,884,884,884,884,884,884,884,884,884,884,884,884,884,884,884,884,884,884,884,884,884,884,884,884,884,884,884,884,884,884,1100,1095],"ymouse":[545,545,545,545,545,545,545,545,545,545,545,545,545,545,545,545,545,545,545,545,545,545,545,545,545,545,545,545,545,545,545,545,545,545,545,545,545,545,545,545,545,545,545,545,545,545,545,545,545,545,545,545,545,545,545,545,545,545,545,545,545,545,545,545,545,545,545,545,545,545,545,545,545,545,545,545,545,545,545,545,545,545,545,545,545,545,545,545,545,545,545,545,545,545,545,545,545,545,544,538,510,496,484,472,462,451,419,399,371,355,338,294,271,247,221,189,129,106,73,51,31,6,2,2,2,2,2,2,2,2,2,2,2,2,2,2,2,2,2,2,2,2,2,2,2,2,2,2,2,2,2,2,2,2,2,2,2,2,2,2,2,2,2,2,2,2,0,10],"timestamp_mouse":[9,32,43,63,82,102,121,141,161,181,201,221,241,262,281,301,321,342,361,381,402,421,441,462,482,501,522,541,561,581,601,621,643,661,681,702,722,742,762,783,802,823,842,862,882,902,923,942,962,982,1002,1022,1042,1062,1082,1102,1122,1142,1163,1182,1202,1222,1242,1262,1283,1303,1322,1342,1361,1381,1401,1421,1441,1461,1481,1501,1521,1541,1561,1581,1601,1621,1641,1661,1681,1701,1721,1741,1761,1781,1801,1823,1842,1862,1882,1902,1923,1942,1962,1982,2002,2022,2042,2062,2082,2102,2122,2143,2161,2181,2202,2221,2241,2261,2282,2303,2321,2342,2361,2381,2403,2421,2441,2461,2481,2503,2522,2541,2561,2581,2603,2621,2641,2661,2681,2703,2722,2742,2761,2781,2803,2822,2842,2862,2882,2903,2922,2942,2962,2982,3003,3022,3042,3062,3082,3103,3123,3141,3162,3182,3203,3223,3243,3263,3282,3303,3321,3343],"xSR":741.5,"ySR":501.8,"xT1":424.9,"yT1":0,"xT2":1058.1,"yT2":0,"toosoon":0,"cond_shown":"Incongruent","ratio_trial":100,"L_num":6,"L_den":10,"R_num":13,"R_den":26,"correct_side":1,"subjID":"juanitalopez21","gender":"1","school":"6","age":"11"},{"start_time":1551899820265,"click_time":1551899836852,"finger_time":1551899834132,"fix_duration":250,"trial":4,"RT":13867,"MT":2720,"sideResp":2,"stimulus":[],"xmouse":[782,783,783,783,783,783,783,783,783,783,783,783,783,783,783,783,783,783,783,783,783,783,783,783,783,783,783,783,783,783,783,783,783,783,783,783,783,783,783,783,783,783,783,783,783,783,783,783,783,783,783,783,783,783,783,783,783,783,783,783,783,783,783,783,783,783,783,783,783,783,783,783,783,783,783,783,783,783,783,783,783,783,783,783,783,783,783,783,783,783,783,783,783,783,783,783,783,783,783,783,783,783,783,783,783,783,783,783,783,783,783,783,783,783,783,783,783,783,783,783,783,783,783,783,783,783,783,783,783,783,783,783,783,783,783,783,783,783,783,783,783,783,783,783,783,783,783,783,783,783,783,783,783,783,783,783,783,783,783,783,783,783,783,783,783,783,783,783,783,783,783,783,783,783,783,783,783,783,783,783,783,783,783,783,783,783,783,783,783,783,783,783,783,783,783,783,783,783,783,783,783,783,783,783,783,783,783,783,783,783,783,783,783,783,783,783,783,783,783,783,783,783,783,783,783,783,783,783,783,783,783,783,783,783,783,783,783,783,783,783,783,783,783,783,783,783,783,783,783,783,783,783,783,783,783,783,783,783,783,783,783,783,783,783,783,783,783,783,783,783,783,783,783,783,783,783,783,783,783,783,783,783,783,783,783,783,783,783,783,783,783,783,783,783,783,783,783,783,783,783,783,783,783,783,783,783,783,783,783,783,783,783,783,783,783,783,783,783,783,783,783,783,783,783,783,783,783,783,783,783,783,783,783,783,783,783,783,783,783,783,783,783,783,783,783,783,783,783,783,783,783,783,783,783,783,783,783,783,783,783,783,783,783,783,783,783,783,783,783,783,783,783,783,783,783,783,783,783,783,783,783,783,783,783,783,783,783,783,783,783,783,783,783,783,783,783,783,783,783,783,783,783,783,783,783,783,783,783,783,783,783,783,783,783,783,783,783,783,783,783,783,783,783,783,783,783,783,783,783,783,783,783,783,783,783,783,783,783,783,783,783,783,783,783,783,783,783,783,783,783,783,783,783,783,783,783,783,783,783,783,783,783,783,783,783,783,783,783,783,783,783,783,783,783,783,783,783,783,783,783,783,783,783,783,783,783,783,783,783,783,783,783,783,783,783,783,783,783,783,783,783,783,783,783,783,783,783,783,783,783,783,783,783,783,783,783,783,783,783,783,783,783,783,783,783,783,783,783,783,783,783,783,783,783,783,783,783,783,783,783,783,783,783,783,783,783,783,783,783,783,783,783,783,783,783,783,783,783,783,783,783,783,783,783,783,783,783,783,783,783,783,783,783,783,783,783,783,783,783,783,783,783,783,783,783,783,783,783,783,783,783,783,783,783,783,783,783,783,783,783,783,783,783,783,783,783,783,783,783,783,783,783,783,783,783,783,783,783,783,783,783,783,783,783,783,783,783,783,783,783,783,783,783,783,783,783,783,783,783,783,783,783,783,783,783,783,783,783,783,783,783,783,783,783,783,783,783,783,783,783,783,783,783,783,783,783,783,783,783,783,783,783,783,783,783,783,783,783,783,783,783,783,783,783,783,783,783,783,783,783,783,783,782,753,735,723,718,717,716,716,719,721,722,724,726,728,728,728,728,728,728,728,728,728,728,729,731,734,737,749,749,751,752,752,752,752,752,752,752,752,752,752,752,752,753,753,753,753,752,751,751,751,751,751,751,751,751,751,749,747,742,737,732,726,717,713,709,703,696,684,678,674,672,671,671,671,671,671,670,669,667,666,664,662,662,662,662,662,662,662,662,662,662,662,662,662,662,666,684,701,738,773,791,791,791,791,791,791,791,791,791,791,791,791,791,791,791,791,791,791,791,791,791,791,791,791,791,791,791,791,791,791,1004,1007,1014,1017,1020,1024,1030,1060],"ymouse":[533,532,532,532,532,532,532,532,532,532,532,532,532,532,532,532,532,532,532,532,532,532,532,532,532,532,532,532,532,532,532,532,532,532,532,532,532,532,532,532,532,532,532,532,532,532,532,532,532,532,532,532,532,532,532,532,532,532,532,532,532,532,532,532,532,532,532,532,532,532,532,532,532,532,532,532,532,532,532,532,532,532,532,532,532,532,532,532,532,532,532,532,532,532,532,532,532,532,532,532,532,532,532,532,532,532,532,532,532,532,532,532,532,532,532,532,532,532,532,532,532,532,532,532,532,532,532,532,532,532,532,532,532,532,532,532,532,532,532,532,532,532,532,532,532,532,532,532,532,532,532,532,532,532,532,532,532,532,532,532,532,532,532,532,532,532,532,532,532,532,532,532,532,532,532,532,532,532,532,532,532,532,532,532,532,532,532,532,532,532,532,532,532,532,532,532,532,532,532,532,532,532,532,532,532,532,532,532,532,532,532,532,532,532,532,532,532,532,532,532,532,532,532,532,532,532,532,532,532,532,532,532,532,532,532,532,532,532,532,532,532,532,532,532,532,532,532,532,532,532,532,532,532,532,532,532,532,532,532,532,532,532,532,532,532,532,532,532,532,532,532,532,532,532,532,532,532,532,532,532,532,532,532,532,532,532,532,532,532,532,532,532,532,532,532,532,532,532,532,532,532,532,532,532,532,532,532,532,532,532,532,532,532,532,532,532,532,532,532,532,532,532,532,532,532,532,532,532,532,532,532,532,532,532,532,532,532,532,532,532,532,532,532,532,532,532,532,532,532,532,532,532,532,532,532,532,532,532,532,532,532,532,532,532,532,532,532,532,532,532,532,532,532,532,532,532,532,532,532,532,532,532,532,532,532,532,532,532,532,532,532,532,532,532,532,532,532,532,532,532,532,532,532,532,532,532,532,532,532,532,532,532,532,532,532,532,532,532,532,532,532,532,532,532,532,532,532,532,532,532,532,532,532,532,532,532,532,532,532,532,532,532,532,532,532,532,532,532,532,532,532,532,532,532,532,532,532,532,532,532,532,532,532,532,532,532,532,532,532,532,532,532,532,532,532,532,532,532,532,532,532,532,532,532,532,532,532,532,532,532,532,532,532,532,532,532,532,532,532,532,532,532,532,532,532,532,532,532,532,532,532,532,532,532,532,532,532,532,532,532,532,532,532,532,532,532,532,532,532,532,532,532,532,532,532,532,532,532,532,532,532,532,532,532,532,532,532,532,532,532,532,532,532,532,532,532,532,532,532,532,532,532,532,532,532,532,532,532,532,532,532,532,532,532,532,532,532,532,532,532,532,532,532,532,532,532,532,532,532,532,532,532,532,532,532,532,532,532,532,532,532,532,532,532,532,532,532,532,532,532,532,532,532,532,532,532,532,532,532,532,532,532,532,532,532,532,532,532,532,532,532,532,532,532,532,532,532,532,532,532,532,532,532,532,532,532,532,532,532,532,532,532,532,532,532,532,532,532,532,532,532,532,532,532,532,532,532,532,532,532,532,532,532,532,532,532,532,532,532,532,532,532,532,532,532,532,532,532,532,532,532,532,529,500,478,465,454,439,406,398,391,385,380,367,362,360,360,360,360,360,360,360,360,360,359,358,355,351,346,333,333,332,332,332,332,332,332,332,332,332,332,332,331,330,330,330,330,331,335,338,339,340,340,340,340,339,338,332,319,314,307,303,299,295,287,284,281,279,277,276,276,276,276,276,276,276,275,274,265,237,215,208,204,202,202,201,201,201,201,201,201,201,201,201,201,201,199,194,169,149,96,42,17,17,17,17,17,17,17,17,17,17,17,17,17,17,17,17,17,17,17,17,17,17,17,17,17,17,17,17,17,17,6,12,23,24,25,26,26,17],"timestamp_mouse":[9,28,48,68,88,108,128,149,168,188,208,228,248,268,287,308,327,347,367,387,408,427,447,468,488,508,527,547,567,587,607,627,647,667,687,707,728,747,767,788,807,828,848,868,889,909,928,947,967,988,1007,1027,1047,1068,1088,1107,1127,1147,1168,1187,1207,1228,1247,1268,1288,1308,1328,1348,1368,1388,1408,1428,1449,1468,1489,1508,1528,1548,1568,1588,1608,1628,1648,1668,1688,1708,1728,1748,1768,1788,1808,1828,1848,1868,1888,1908,1929,1948,1969,1988,2007,2027,2048,2068,2088,2107,2127,2147,2167,2187,2207,2227,2248,2267,2287,2308,2327,2348,2367,2387,2407,2427,2447,2467,2487,2508,2527,2548,2567,2587,2607,2628,2649,2668,2688,2708,2728,2748,2768,2788,2808,2828,2849,2868,2888,2908,2929,2948,2968,2988,3008,3028,3048,3068,3088,3107,3128,3147,3167,3188,3208,3228,3249,3268,3288,3308,3328,3348,3368,3388,3408,3428,3448,3468,3488,3508,3528,3548,3568,3588,3608,3628,3648,3668,3688,3708,3728,3748,3768,3788,3807,3827,3848,3867,3888,3907,3927,3947,3967,3987,4009,4029,4048,4068,4088,4108,4128,4148,4168,4188,4208,4229,4248,4268,4288,4308,4329,4348,4368,4388,4409,4428,4448,4468,4488,4508,4528,4548,4568,4588,4608,4628,4649,4669,4688,4708,4728,4747,4767,4788,4807,4827,4847,4867,4887,4907,4927,4947,4967,4987,5008,5028,5047,5067,5087,5107,5129,5148,5168,5188,5208,5228,5248,5268,5287,5307,5328,5347,5367,5388,5407,5427,5447,5467,5487,5507,5528,5547,5567,5588,5608,5627,5648,5668,5688,5708,5728,5748,5768,5788,5809,5828,5848,5868,5888,5908,5929,5948,5968,5988,6008,6029,6048,6068,6088,6108,6128,6148,6168,6187,6207,6227,6247,6267,6287,6307,6328,6347,6367,6387,6407,6427,6447,6467,6488,6508,6528,6548,6568,6588,6609,6628,6648,6668,6688,6708,6728,6748,6769,6788,6808,6828,6847,6868,6887,6907,6927,6947,6967,6988,7008,7027,7047,7068,7087,7107,7128,7147,7167,7187,7207,7227,7247,7267,7288,7308,7328,7348,7368,7389,7408,7429,7448,7468,7487,7507,7527,7547,7567,7588,7607,7627,7647,7667,7688,7708,7727,7748,7767,7787,7809,7828,7847,7868,7888,7908,7928,7948,7968,7988,8008,8029,8048,8069,8088,8116,8128,8148,8169,8188,8207,8227,8247,8267,8287,8307,8327,8348,8367,8387,8407,8427,8447,8468,8487,8508,8528,8547,8568,8588,8609,8629,8649,8668,8688,8708,8729,8747,8767,8787,8807,8827,8847,8867,8887,8908,8927,8947,8967,8987,9007,9027,9047,9067,9087,9107,9128,9148,9168,9187,9209,9228,9248,9268,9288,9308,9329,9348,9368,9389,9408,9428,9448,9468,9488,9508,9528,9548,9568,9588,9608,9628,9648,9668,9689,9708,9728,9749,9768,9789,9808,9828,9849,9868,9888,9908,9928,9949,9967,9987,10007,10027,10047,10067,10087,10107,10128,10147,10167,10187,10208,10228,10248,10268,10288,10308,10328,10348,10368,10388,10408,10429,10448,10468,10488,10508,10528,10548,10568,10588,10609,10628,10648,10668,10689,10709,10728,10748,10768,10789,10809,10828,10848,10868,10887,10908,10927,10947,10967,10988,11007,11027,11047,11067,11087,11107,11127,11147,11167,11187,11207,11228,11247,11267,11287,11308,11327,11347,11367,11387,11408,11427,11447,11468,11488,11508,11528,11548,11568,11588,11609,11628,11648,11668,11689,11708,11728,11749,11769,11789,11809,11829,11848,11868,11889,11908,11929,11948,11968,11988,12008,12029,12048,12068,12089,12108,12129,12148,12168,12188,12208,12228,12248,12268,12287,12307,12327,12348,12367,12387,12407,12427,12447,12469,12487,12508,12528,12549,12568,12588,12609,12628,12648,12668,12688,12708,12728,12749,12768,12788,12809,12828,12848,12868,12888,12907,12928,12947,12967,12987,13007,13027,13047,13068,13087,13107,13128,13148,13168,13187,13207,13227,13248,13267,13287,13307,13327,13347,13367,13388,13407,13427,13447,13467,13489,13508,13528,13548,13568,13588,13608,13628,13648,13668,13689,13709,13728,13748,13768,13788,13808,13828,13848,13867,13888,13908,13928,13948,13969,13988,14008,14027,14048,14068,14087,14107,14127,14147,14167,14187,14207,14227,14247,14267,14288,14307,14327,14347,14367,14387,14408,14427,14447,14468,14488,14508,14528,14548,14568,14588,14608,14628,14648,14669,14688,14708,14728,14748,14770,14787,14808,14828,14848,14869,14888,14908,14928,14948,14970,14987,15008,15028,15048,15069,15088,15109,15128,15148,15167,15187,15207,15227,15247,15267,15287,15307,15327,15347,15367,15387,15407,15427,15447,15469,15487,15507,15528,15548,15569,15588,15608,15628,15648,15669,15688,15708,15728,15748,15770,15787,15809,15828,15848,15869,15888,15909,15928,15948,15969,15988,16008,16028,16048,16069,16088,16108,16127,16147,16167,16188,16207,16227,16247,16267,16288,16307,16327,16347,16367,16388,16407,16427,16447,16467,16487,16507,16527,16547,16567,16587],"xSR":741.5,"ySR":501.8,"xT1":424.9,"yT1":0,"xT2":1058.1,"yT2":0,"toosoon":0,"cond_shown":"Incongruent","ratio_trial":300,"L_num":4,"L_den":5,"R_num":8,"R_den":16,"correct_side":1,"subjID":"juanitalopez21","gender":"1","school":"6","age":"11"},{"start_time":1551899841713,"click_time":1551899846372,"finger_time":1551899845873,"fix_duration":558.20259533052,"trial":5,"RT":4160,"MT":499,"sideResp":1,"stimulus":[],"xmouse":[816,815,815,815,815,815,815,815,815,815,815,815,815,815,815,815,815,815,815,815,815,815,815,815,815,815,815,815,815,815,815,815,815,815,815,815,815,815,815,815,815,815,815,815,815,815,815,815,815,815,815,815,815,815,815,815,815,815,815,815,815,815,815,815,815,815,815,815,815,815,815,815,815,815,815,815,815,815,815,815,815,815,815,815,815,815,815,815,815,815,815,815,815,815,815,815,815,815,815,815,815,815,815,815,815,815,815,815,815,815,815,815,815,815,815,815,815,815,815,815,815,815,815,815,815,815,815,815,815,815,815,815,815,815,815,815,815,815,815,815,815,815,815,815,815,815,815,815,815,815,815,815,815,815,815,815,815,815,815,815,815,815,815,815,815,815,815,815,815,815,815,815,815,815,815,815,815,815,815,815,815,815,815,815,815,815,815,815,815,815,815,815,815,815,815,815,815,815,815,815,815,815,815,813,806,790,772,753,719,703,683,666,624,593,578,572,566,561,556,551,546,541,537,533,532,531,530,527,524,522,519,516,513,494],"ymouse":[558,557,557,557,557,557,557,557,557,557,557,557,557,557,557,557,557,557,557,557,557,557,557,557,557,557,557,557,557,557,557,557,557,557,557,557,557,557,557,557,557,557,557,557,557,557,557,557,557,557,557,557,557,557,557,557,557,557,557,557,557,557,557,557,557,557,557,557,557,557,557,557,557,557,557,557,557,557,557,557,557,557,557,557,557,557,557,557,557,557,557,557,557,557,557,557,557,557,557,557,557,557,557,557,557,557,557,557,557,557,557,557,557,557,557,557,557,557,557,557,557,557,557,557,557,557,557,557,557,557,557,557,557,557,557,557,557,557,557,557,557,557,557,557,557,557,557,557,557,557,557,557,557,557,557,557,557,557,557,557,557,557,557,557,557,557,557,557,557,557,557,557,557,557,557,557,557,557,557,557,557,557,557,557,557,557,557,557,557,557,557,557,557,557,557,557,557,557,557,557,557,557,557,555,551,541,525,507,472,453,429,408,358,323,304,291,278,265,236,221,206,194,186,179,177,175,172,168,158,154,146,137,126,87],"timestamp_mouse":[1,20,45,59,79,99,119,139,159,179,199,219,240,260,280,300,320,341,361,380,400,420,440,460,480,501,520,541,560,580,601,620,640,661,680,700,721,740,760,780,801,821,841,860,880,901,920,941,960,980,999,1021,1040,1060,1080,1100,1119,1139,1159,1179,1200,1219,1239,1259,1280,1299,1320,1339,1359,1380,1400,1419,1439,1459,1479,1500,1519,1539,1560,1580,1601,1620,1640,1660,1680,1700,1720,1740,1760,1780,1801,1820,1840,1859,1879,1900,1919,1939,1959,1979,2000,2019,2040,2059,2079,2099,2120,2140,2160,2180,2201,2220,2240,2260,2280,2301,2320,2340,2361,2380,2400,2429,2440,2460,2484,2500,2519,2539,2559,2579,2599,2620,2639,2659,2680,2699,2719,2739,2760,2779,2799,2819,2839,2859,2879,2899,2919,2939,2959,2979,3000,3020,3041,3060,3080,3100,3120,3141,3160,3180,3200,3220,3240,3260,3280,3300,3320,3339,3359,3379,3400,3419,3440,3459,3479,3499,3519,3539,3559,3579,3599,3620,3639,3660,3679,3699,3720,3739,3760,3779,3799,3819,3839,3859,3879,3899,3919,3940,3960,3980,4000,4020,4040,4060,4080,4100,4120,4140,4160,4180,4200,4220,4241,4259,4280,4299,4320,4339,4359,4379,4399,4419,4439,4459,4479,4499,4519,4539,4559,4579,4599,4619,4639,4659],"xSR":741.5,"ySR":501.8,"xT1":424.9,"yT1":0,"xT2":1058.1,"yT2":0,"toosoon":0,"cond_shown":"Congruent","ratio_trial":300,"L_num":3,"L_den":6,"R_num":2,"R_den":10,"correct_side":1,"subjID":"juanitalopez21","gender":"1","school":"6","age":"11"},{"start_time":1551899852045,"click_time":1551899856772,"finger_time":1551899855394,"fix_duration":250,"trial":6,"RT":3349,"MT":1378,"sideResp":1,"stimulus":[],"xmouse":[757,757,757,757,757,757,757,757,757,757,757,757,757,757,757,757,757,757,757,757,757,757,757,757,757,757,757,757,757,757,757,757,757,757,757,757,757,757,757,757,757,757,757,757,757,757,757,757,757,757,757,757,757,757,757,757,757,757,757,757,757,757,757,757,757,757,757,757,757,757,757,757,757,757,757,757,757,757,757,757,757,757,757,757,757,757,757,757,757,757,757,757,757,757,757,757,757,757,757,757,757,757,757,757,757,757,757,757,757,757,757,757,757,757,757,757,757,757,757,757,757,757,757,757,757,757,757,757,757,757,757,757,757,757,757,757,757,757,757,757,757,757,757,757,757,757,757,757,757,757,757,757,757,757,757,757,757,757,757,757,757,757,757,757,757,757,757,757,756,756,756,756,757,762,767,773,786,802,807,808,808,808,808,812,815,819,822,827,828,828,828,828,828,823,812,795,769,699,654,610,566,492,404,376,358,349,343,343,343,343,343,350,363,370,374,377,379,380,380,379,377,372,368,368,368,368,370,374,376,380,384,388,395,407,415,423,429],"ymouse":[516,516,516,516,516,516,516,516,516,516,516,516,516,516,516,516,516,516,516,516,516,516,516,516,516,516,516,516,516,516,516,516,516,516,516,516,516,516,516,516,516,516,516,516,516,516,516,516,516,516,516,516,516,516,516,516,516,516,516,516,516,516,516,516,516,516,516,516,516,516,516,516,516,516,516,516,516,516,516,516,516,516,516,516,516,516,516,516,516,516,516,516,516,516,516,516,516,516,516,516,516,516,516,516,516,516,516,516,516,516,516,516,516,516,516,516,516,516,516,516,516,516,516,516,516,516,516,516,516,516,516,516,516,516,516,516,516,516,516,516,516,516,516,516,516,516,516,516,516,516,516,516,516,516,516,516,516,516,516,516,516,516,516,516,516,514,510,465,425,381,337,272,184,148,117,90,58,17,7,5,5,5,5,6,9,12,15,22,23,24,24,24,24,26,34,47,70,137,174,205,235,275,303,303,303,298,293,289,287,280,268,238,199,185,176,172,168,160,153,138,118,86,58,46,39,33,29,21,18,15,15,15,16,21,24,26,26],"timestamp_mouse":[10,28,47,67,88,107,127,147,167,187,207,228,247,267,287,307,327,348,367,387,407,427,447,468,487,508,529,548,568,588,609,628,648,668,688,708,728,748,768,788,808,828,848,868,888,909,928,948,969,988,1009,1029,1048,1068,1088,1108,1127,1148,1167,1187,1207,1227,1247,1267,1287,1307,1327,1347,1367,1388,1407,1428,1447,1467,1487,1508,1527,1548,1567,1588,1609,1628,1648,1668,1688,1708,1728,1747,1767,1787,1807,1827,1847,1868,1888,1907,1927,1947,1968,1988,2007,2027,2048,2069,2089,2108,2128,2149,2168,2188,2208,2229,2248,2268,2288,2308,2328,2348,2369,2388,2408,2428,2448,2468,2488,2507,2527,2547,2567,2587,2607,2627,2647,2668,2687,2707,2728,2747,2768,2787,2807,2827,2848,2867,2887,2907,2927,2947,2967,2987,3007,3029,3047,3068,3088,3107,3128,3148,3168,3189,3208,3229,3248,3268,3288,3308,3328,3349,3368,3388,3409,3428,3447,3469,3488,3508,3528,3548,3569,3588,3608,3628,3649,3668,3688,3708,3728,3748,3768,3788,3807,3827,3847,3867,3888,3907,3927,3948,3968,3987,4007,4027,4048,4068,4088,4107,4127,4147,4168,4188,4208,4228,4247,4269,4288,4308,4328,4348,4368,4388,4408,4428,4448,4468,4488,4508,4528,4548,4568,4589,4608,4627,4647,4668,4688,4707,4727],"xSR":741.5,"ySR":501.8,"xT1":424.9,"yT1":0,"xT2":1058.1,"yT2":0,"toosoon":0,"cond_shown":"Incongruent","ratio_trial":100,"L_num":10,"L_den":25,"R_num":8,"R_den":16,"correct_side":2,"subjID":"juanitalopez21","gender":"1","school":"6","age":"11"},{"start_time":1551899861816,"click_time":1551899864633,"finger_time":1551899864072,"fix_duration":421.6046423926082,"trial":7,"RT":2256,"MT":561,"sideResp":2,"stimulus":[],"xmouse":[824,824,824,824,824,824,824,824,824,824,824,824,824,824,824,824,824,824,824,824,824,824,824,824,823,823,823,823,823,823,823,823,823,823,823,823,823,823,823,823,823,823,823,823,823,823,823,823,823,823,823,823,823,823,823,823,823,823,823,823,823,823,823,823,823,823,823,823,823,823,823,823,823,823,823,823,823,823,823,823,823,823,823,823,823,823,823,823,823,823,823,823,823,823,823,823,823,823,823,823,823,823,823,823,823,823,823,823,823,823,823,831,849,868,912,934,951,970,989,1036,1047,1057,1066,1071,1077,1078,1078,1078,1078,1078,1078,1078,1079,1079,1079,1080,1080,1080,1080,1080,1080],"ymouse":[533,533,533,533,533,533,533,533,533,533,533,533,533,533,533,533,533,533,533,533,533,533,533,533,533,533,533,533,533,533,533,532,532,532,532,532,532,532,532,532,532,532,532,532,532,532,532,532,532,532,532,532,532,532,532,532,532,532,532,532,532,532,532,532,532,532,532,532,532,532,532,532,532,532,532,532,532,532,532,532,532,532,532,532,532,532,532,532,532,532,532,532,532,532,532,532,532,532,532,532,532,532,532,532,532,532,532,532,532,531,529,518,499,481,440,421,402,384,369,338,328,316,306,296,280,276,270,264,257,240,233,225,217,209,190,181,168,158,144,108,92],"timestamp_mouse":[17,37,56,77,97,116,136,156,177,196,216,237,257,277,297,317,337,357,377,397,417,437,457,478,498,517,537,557,578,597,617,637,657,677,697,717,737,757,776,796,817,836,856,877,896,917,936,956,977,996,1016,1036,1056,1076,1096,1117,1136,1156,1176,1196,1216,1236,1256,1277,1296,1317,1336,1356,1377,1396,1417,1438,1457,1477,1497,1517,1537,1558,1577,1597,1617,1637,1657,1677,1697,1717,1737,1757,1777,1797,1817,1837,1857,1876,1897,1916,1936,1956,1976,1997,2016,2036,2057,2076,2096,2116,2136,2157,2176,2196,2216,2236,2256,2276,2297,2317,2337,2356,2376,2396,2417,2437,2457,2477,2497,2517,2537,2557,2578,2597,2617,2637,2657,2678,2697,2717,2737,2757,2777,2796,2817],"xSR":741.5,"ySR":501.8,"xT1":424.9,"yT1":0,"xT2":1058.1,"yT2":0,"toosoon":0,"cond_shown":"Congruent","ratio_trial":100,"L_num":2,"L_den":5,"R_num":6,"R_den":12,"correct_side":2,"subjID":"juanitalopez21","gender":"1","school":"6","age":"11"},{"start_time":1551899866856,"click_time":1551899870073,"finger_time":1551899869013,"fix_duration":941.8466000374723,"trial":8,"RT":2157,"MT":1060,"sideResp":2,"stimulus":[],"xmouse":[776,776,776,776,776,776,776,776,776,776,776,776,776,776,776,776,776,776,776,776,776,776,776,776,776,776,776,776,776,776,776,776,776,776,776,776,776,776,776,776,776,776,776,776,776,776,776,776,776,776,776,776,776,776,776,776,776,776,776,776,776,776,776,776,776,776,776,776,776,776,776,776,776,776,776,776,776,776,776,776,776,776,776,776,776,776,776,776,776,776,776,776,776,776,776,776,776,776,776,776,776,776,776,776,776,776,775,762,749,737,727,718,702,698,688,680,675,660,658,658,658,658,666,676,701,724,754,814,847,874,899,924,945,981,991,1002,1011,1018,1026,1029,1030,1030,1030,1033,1034,1034,1035,1036,1040,1041,1043,1045,1047,1058,1063,1067,1071,1074,1079,1081,1085],"ymouse":[524,524,524,524,524,524,524,524,524,524,524,524,524,524,524,524,524,524,524,524,524,524,524,524,524,524,524,524,524,524,524,524,524,524,524,524,524,524,524,524,524,524,524,524,524,524,524,524,524,524,524,524,524,524,524,524,524,524,524,524,524,524,524,524,524,524,524,524,524,524,524,524,524,524,524,524,524,524,524,524,524,524,524,524,524,524,524,524,524,524,524,524,524,524,524,524,524,524,524,524,524,524,524,524,524,523,521,500,478,461,449,441,418,401,366,342,322,290,282,281,281,281,291,304,330,345,359,369,369,366,360,356,347,317,301,284,265,244,206,191,177,166,157,144,140,135,132,130,126,125,124,123,120,115,113,111,109,106,102,100,95],"timestamp_mouse":[17,36,58,77,97,118,138,157,178,197,218,237,257,277,297,317,337,358,378,397,417,437,457,476,497,516,536,556,576,596,616,636,656,676,696,716,736,756,776,796,817,836,856,877,896,916,936,956,977,996,1016,1037,1056,1077,1096,1116,1136,1156,1176,1196,1216,1237,1257,1277,1297,1317,1336,1356,1376,1396,1416,1436,1457,1476,1496,1516,1536,1556,1576,1596,1616,1636,1656,1676,1697,1716,1736,1757,1777,1797,1817,1837,1857,1877,1898,1917,1937,1957,1977,1997,2017,2037,2057,2077,2097,2117,2137,2157,2176,2197,2217,2237,2257,2276,2297,2317,2337,2358,2377,2397,2416,2436,2457,2476,2496,2516,2536,2558,2576,2597,2616,2637,2656,2676,2697,2716,2736,2756,2776,2796,2816,2836,2856,2876,2897,2916,2936,2956,2976,2997,3017,3036,3057,3076,3098,3117,3137,3157,3177,3197,3217],"xSR":741.5,"ySR":501.8,"xT1":424.9,"yT1":0,"xT2":1058.1,"yT2":0,"toosoon":0,"cond_shown":"Incongruent","ratio_trial":100,"L_num":9,"L_den":10,"R_num":20,"R_den":25,"correct_side":1,"subjID":"juanitalopez21","gender":"1","school":"6","age":"11"},{"start_time":1551899872868,"click_time":1551899887433,"finger_time":1551899885733,"fix_duration":373.90867103920743,"trial":9,"RT":12865,"MT":1700,"sideResp":1,"stimulus":[],"xmouse":[776,776,776,776,776,776,776,776,776,776,776,776,776,776,776,776,776,776,776,776,776,776,776,776,776,776,776,776,776,776,776,776,776,776,776,776,776,776,776,776,776,776,776,776,776,776,776,776,776,776,776,776,776,776,776,776,776,776,776,776,776,776,776,776,776,776,776,776,776,776,776,776,776,776,776,776,776,776,776,776,776,776,776,776,776,776,776,776,776,776,776,776,776,776,776,776,776,776,776,776,776,776,776,776,776,776,776,776,776,776,776,776,776,776,776,776,776,776,776,776,776,776,776,776,776,776,776,776,776,776,776,776,776,776,776,776,776,776,776,776,776,776,776,776,776,776,776,776,776,776,776,776,776,776,776,776,776,776,776,776,776,776,776,776,776,776,776,776,776,776,776,776,776,776,776,776,776,776,776,776,776,776,776,776,776,776,776,776,776,776,776,776,776,776,776,776,776,776,776,776,776,776,776,776,776,776,776,776,776,776,776,776,776,776,776,776,776,776,776,776,776,776,776,776,776,776,776,776,776,776,776,776,776,776,776,776,776,776,776,776,776,776,776,776,776,776,776,776,776,776,776,776,776,776,776,776,776,776,776,776,776,776,776,776,776,776,776,776,776,776,776,776,776,776,776,776,776,776,776,776,776,776,776,776,776,776,776,776,776,776,776,776,776,776,776,776,776,776,776,776,776,776,776,776,776,776,776,776,776,776,776,776,776,776,776,776,776,776,776,776,776,776,776,776,776,776,776,776,776,776,776,776,776,776,776,776,776,776,776,776,776,776,776,776,776,776,776,776,776,776,776,776,776,776,776,776,776,776,776,776,776,776,776,776,776,776,776,776,776,776,776,776,776,776,776,776,776,776,776,776,776,776,776,776,776,776,776,776,776,776,776,776,776,776,776,776,776,776,776,776,776,776,776,776,776,776,776,776,776,776,776,776,776,776,776,776,776,776,776,776,776,776,776,776,776,776,776,776,776,776,776,776,776,776,776,776,776,776,776,776,776,776,776,776,776,776,776,776,776,776,776,776,776,776,776,776,776,776,776,776,776,776,776,776,776,776,776,776,776,776,776,776,776,776,776,776,776,776,776,776,776,776,776,776,776,776,776,776,776,776,776,776,776,776,776,776,776,776,776,776,776,776,776,776,776,776,776,776,776,776,776,776,776,776,776,776,776,776,776,776,776,776,776,776,776,776,776,776,776,776,776,776,776,776,776,776,776,776,776,776,776,776,776,776,776,776,776,776,776,776,776,776,776,776,776,776,776,776,776,776,776,776,776,776,776,776,776,776,776,776,776,776,776,776,776,776,776,776,776,776,776,776,776,776,776,776,776,776,776,776,776,776,776,776,776,776,776,776,776,776,776,776,776,776,776,776,776,776,776,776,776,776,776,776,776,776,776,776,776,776,776,776,776,776,776,776,776,776,776,776,776,776,776,776,776,776,776,777,777,779,779,777,775,771,759,751,744,739,737,732,731,729,727,723,714,709,705,703,703,703,703,703,703,703,702,698,697,695,694,694,694,694,694,694,694,694,695,695,696,696,696,696,696,696,696,696,696,696,696,696,696,696,696,695,693,679,670,662,652,637,634,633,633,632,632,632,632,631,631,631,631,631,631,631,631,631,631,631,631,631,631,629,626,619,606,539,500,470,451],"ymouse":[518,518,518,518,518,518,518,518,518,518,518,518,518,518,518,518,518,518,518,518,518,518,518,518,518,518,518,518,518,518,518,518,518,518,518,518,518,518,518,518,518,518,518,518,518,518,518,518,518,518,518,518,518,518,518,518,518,518,518,518,518,518,518,518,518,518,518,518,518,518,518,518,518,518,518,518,518,518,518,518,518,518,518,518,518,518,518,518,518,518,518,518,518,518,518,518,518,518,518,518,518,518,518,518,518,518,518,518,518,518,518,518,518,518,518,518,518,518,518,518,518,518,518,518,518,518,518,518,518,518,518,518,518,518,518,518,518,518,518,518,518,518,518,518,518,518,518,518,518,518,518,518,518,518,518,518,518,518,518,518,518,518,518,518,518,518,518,518,518,518,518,518,518,518,518,518,518,518,518,518,518,518,518,518,518,518,518,518,518,518,518,518,518,518,518,518,518,518,518,518,518,518,518,518,518,518,518,518,518,518,518,518,518,518,518,518,518,518,518,518,518,518,518,518,518,518,518,518,518,518,518,518,518,518,518,518,518,518,518,518,518,518,518,518,518,518,518,518,518,518,518,518,518,518,518,518,518,518,518,518,518,518,518,518,518,518,518,518,518,518,518,518,518,518,518,518,518,518,518,518,518,518,518,518,518,518,518,518,518,518,518,518,518,518,518,518,518,518,518,518,518,518,518,518,518,518,518,518,518,518,518,518,518,518,518,518,518,518,518,518,518,518,518,518,518,518,518,518,518,518,518,518,518,518,518,518,518,518,518,518,518,518,518,518,518,518,518,518,518,518,518,518,518,518,518,518,518,518,518,518,518,518,518,518,518,518,518,518,518,518,518,518,518,518,518,518,518,518,518,518,518,518,518,518,518,518,518,518,518,518,518,518,518,518,518,518,518,518,518,518,518,518,518,518,518,518,518,518,518,518,518,518,518,518,518,518,518,518,518,518,518,518,518,518,518,518,518,518,518,518,518,518,518,518,518,518,518,518,518,518,518,518,518,518,518,518,518,518,518,518,518,518,518,518,518,518,518,518,518,518,518,518,518,518,518,518,518,518,518,518,518,518,518,518,518,518,518,518,518,518,518,518,518,518,518,518,518,518,518,518,518,518,518,518,518,518,518,518,518,518,518,518,518,518,518,518,518,518,518,518,518,518,518,518,518,518,518,518,518,518,518,518,518,518,518,518,518,518,518,518,518,518,518,518,518,518,518,518,518,518,518,518,518,518,518,518,518,518,518,518,518,518,518,518,518,518,518,518,518,518,518,518,518,518,518,518,518,518,518,518,518,518,518,518,518,518,518,518,518,518,518,518,518,518,518,518,518,518,518,518,518,518,518,518,518,518,518,518,518,518,518,518,518,518,518,518,518,518,518,518,518,518,518,518,518,518,518,518,518,518,518,518,518,518,518,518,518,518,518,518,518,518,518,518,518,518,518,517,516,512,508,506,503,501,494,490,487,484,482,480,479,477,477,475,473,471,468,465,465,465,464,464,463,461,457,448,446,441,440,439,438,437,437,437,436,435,435,435,435,435,435,435,435,435,435,435,435,435,435,435,435,435,434,433,429,404,389,369,352,318,308,302,298,296,295,294,293,293,293,293,293,293,293,293,293,293,293,293,293,293,292,290,285,274,258,185,148,111,87],"timestamp_mouse":[10,36,45,64,85,104,124,144,165,184,204,224,244,264,284,304,324,345,365,385,405,425,446,465,485,505,525,545,565,585,606,625,646,666,685,705,726,745,765,785,806,825,845,866,885,905,925,945,965,985,1006,1024,1044,1064,1084,1104,1124,1144,1165,1184,1205,1224,1245,1264,1285,1304,1324,1344,1364,1384,1404,1424,1444,1464,1484,1504,1525,1544,1565,1584,1604,1624,1644,1664,1684,1704,1725,1744,1766,1785,1805,1825,1845,1865,1885,1905,1926,1945,1965,1985,2005,2025,2046,2065,2085,2106,2125,2145,2165,2186,2205,2225,2245,2265,2285,2306,2325,2345,2365,2386,2405,2425,2444,2465,2484,2504,2525,2544,2564,2584,2604,2624,2644,2664,2684,2705,2725,2744,2764,2784,2804,2824,2844,2864,2884,2904,2924,2944,2964,2985,3004,3025,3045,3065,3085,3105,3125,3145,3166,3184,3205,3225,3245,3265,3285,3305,3325,3345,3365,3385,3405,3426,3445,3465,3485,3505,3525,3545,3565,3585,3604,3625,3644,3664,3684,3704,3724,3744,3764,3785,3804,3824,3844,3864,3884,3904,3925,3944,3964,3984,4004,4024,4045,4064,4084,4104,4125,4144,4164,4184,4204,4224,4244,4264,4284,4304,4325,4345,4365,4386,4405,4425,4445,4465,4485,4505,4525,4545,4565,4585,4605,4625,4645,4665,4685,4704,4724,4745,4765,4784,4804,4824,4844,4864,4884,4904,4924,4944,4964,4986,5005,5025,5045,5065,5086,5105,5125,5145,5165,5186,5205,5226,5246,5265,5285,5305,5325,5345,5364,5385,5404,5424,5444,5464,5485,5504,5525,5544,5564,5585,5604,5624,5644,5665,5686,5705,5725,5745,5765,5785,5806,5825,5845,5866,5886,5906,5926,5945,5965,5985,6005,6025,6045,6065,6085,6104,6125,6144,6164,6184,6204,6224,6244,6264,6285,6304,6324,6344,6364,6384,6404,6424,6445,6464,6484,6504,6525,6544,6564,6584,6604,6625,6645,6665,6685,6705,6725,6745,6765,6784,6804,6824,6844,6864,6884,6905,6924,6945,6964,6984,7004,7025,7044,7064,7085,7104,7125,7144,7165,7184,7205,7225,7245,7265,7285,7305,7325,7346,7365,7385,7406,7425,7445,7466,7485,7505,7525,7545,7565,7585,7605,7625,7645,7665,7685,7705,7725,7745,7766,7785,7805,7824,7844,7864,7884,7904,7925,7944,7964,7985,8005,8024,8044,8064,8084,8104,8124,8144,8165,8184,8205,8224,8244,8265,8284,8304,8325,8345,8366,8385,8406,8425,8445,8464,8484,8504,8524,8545,8564,8585,8605,8625,8644,8664,8684,8705,8725,8744,8764,8784,8804,8824,8844,8864,8884,8904,8925,8944,8965,8984,9004,9024,9045,9064,9084,9105,9125,9145,9166,9185,9205,9225,9245,9265,9285,9305,9325,9346,9365,9385,9405,9424,9444,9464,9484,9504,9524,9544,9564,9584,9604,9625,9644,9664,9684,9704,9725,9744,9764,9784,9804,9824,9845,9864,9884,9904,9925,9944,9964,9984,10004,10024,10044,10064,10084,10104,10124,10144,10164,10185,10205,10226,10245,10266,10285,10306,10325,10346,10365,10386,10405,10425,10445,10465,10485,10505,10525,10545,10565,10585,10605,10625,10645,10665,10685,10705,10725,10745,10765,10785,10805,10825,10844,10864,10884,10904,10924,10944,10964,10984,11004,11024,11044,11064,11084,11104,11125,11145,11164,11184,11204,11225,11244,11265,11284,11304,11324,11344,11364,11384,11404,11424,11445,11465,11485,11505,11525,11545,11566,11585,11606,11625,11645,11665,11686,11706,11725,11746,11765,11785,11805,11826,11845,11865,11885,11906,11926,11945,11965,11986,12005,12025,12046,12065,12085,12104,12124,12145,12164,12184,12204,12225,12244,12265,12284,12304,12325,12344,12364,12384,12405,12425,12444,12464,12485,12504,12524,12544,12564,12584,12604,12624,12644,12665,12684,12704,12724,12744,12764,12784,12804,12825,12844,12864,12885,12905,12925,12945,12965,12985,13004,13026,13045,13066,13086,13104,13124,13144,13165,13185,13204,13225,13244,13264,13286,13304,13325,13344,13364,13385,13404,13425,13444,13464,13486,13505,13526,13545,13565,13586,13605,13625,13645,13665,13686,13704,13725,13745,13764,13784,13804,13824,13844,13864,13884,13904,13925,13944,13964,13986,14004,14025,14044,14064,14086,14104,14124,14144,14164,14186,14204,14224,14244,14264,14286,14305,14325,14345,14365,14386,14404,14425,14445,14465,14486,14505,14526,14545,14565],"xSR":741.5,"ySR":501.8,"xT1":424.9,"yT1":0,"xT2":1058.1,"yT2":0,"toosoon":0,"cond_shown":"Congruent","ratio_trial":300,"L_num":8,"L_den":16,"R_num":1,"R_den":5,"correct_side":1,"subjID":"juanitalopez21","gender":"1","school":"6","age":"11"},{"start_time":1551899890424,"click_time":1551899896274,"finger_time":1551899895013,"fix_duration":250,"trial":10,"RT":4589,"MT":1261,"sideResp":1,"stimulus":[],"xmouse":[820,820,820,819,818,817,816,815,815,815,815,815,815,815,815,815,815,815,815,815,815,815,815,815,815,815,815,815,815,815,815,815,815,815,815,815,815,815,815,815,815,815,815,815,815,815,815,815,815,815,815,815,815,815,815,815,815,815,815,815,815,815,815,815,815,815,815,815,815,815,815,815,815,815,815,815,815,815,815,815,815,815,815,815,815,815,815,815,815,815,815,815,815,815,815,815,815,815,815,815,815,815,815,815,815,815,815,815,815,815,815,815,815,815,815,815,815,815,815,815,815,815,815,815,815,815,815,815,815,815,815,815,815,815,815,815,815,815,815,815,815,815,815,815,815,815,815,815,815,815,815,815,815,815,815,815,815,815,815,815,815,815,815,815,815,815,815,815,815,815,815,815,815,815,815,815,815,815,815,815,815,815,815,815,815,815,815,815,815,815,815,815,815,815,815,815,815,815,815,815,815,815,815,815,815,815,815,815,815,815,815,815,815,815,815,815,816,817,817,817,817,817,817,817,818,819,821,832,841,852,867,878,895,898,900,902,902,903,904,904,904,904,904,904,904,904,903,901,896,890,883,873,859,822,788,770,750,713,696,681,673,669,669,669,669,668,667,657,620,598,580,563,546,543,542,541,541,540,532,527,526,526,524,523,522,520,518,515,512,510,509,509,509],"ymouse":[565,565,565,566,567,568,569,569,569,569,569,569,569,569,569,569,569,569,569,569,569,569,569,569,569,569,569,569,569,569,569,569,569,569,569,569,569,569,569,569,569,569,569,569,569,569,569,569,569,569,569,569,569,569,569,569,569,569,569,569,569,569,569,569,569,569,569,569,569,569,569,569,569,569,569,569,569,569,569,569,569,569,569,569,569,569,569,569,569,569,569,569,569,569,569,569,569,569,569,569,569,569,569,569,569,569,569,569,569,569,569,569,569,569,569,569,569,569,569,569,569,569,569,569,569,569,569,569,569,569,569,569,569,569,569,569,569,569,569,569,569,569,569,569,569,569,569,569,569,569,569,569,569,569,569,569,569,569,569,569,569,569,569,569,569,569,569,569,569,569,569,569,569,569,569,569,569,569,569,569,569,569,569,569,569,569,569,569,569,569,569,569,569,569,569,569,569,569,569,569,569,569,569,569,569,569,569,569,569,569,569,569,569,569,569,569,569,568,567,567,567,567,567,567,565,558,547,525,513,503,495,491,487,485,485,483,481,480,478,476,474,473,472,469,466,463,459,449,441,428,411,394,374,319,268,236,210,171,156,145,139,137,137,137,137,137,137,134,122,116,111,106,106,106,106,105,105,105,105,106,106,107,107,107,108,108,108,108,105,103,102,100,99],"timestamp_mouse":[9,29,49,69,88,109,128,149,169,188,208,228,249,268,288,308,328,348,368,388,408,428,448,468,489,508,530,549,569,590,609,629,650,670,689,709,729,748,768,788,808,829,848,868,889,908,929,948,968,988,1008,1029,1048,1068,1088,1109,1128,1148,1168,1189,1208,1228,1249,1269,1289,1309,1330,1350,1369,1389,1408,1428,1448,1468,1488,1508,1528,1548,1569,1589,1608,1629,1648,1668,1688,1708,1728,1748,1770,1789,1810,1829,1849,1869,1889,1909,1929,1949,1970,1989,2009,2029,2049,2069,2089,2109,2129,2149,2169,2190,2209,2230,2249,2269,2290,2309,2329,2349,2369,2388,2408,2429,2448,2468,2489,2508,2528,2548,2568,2589,2608,2628,2648,2668,2688,2708,2728,2748,2768,2789,2809,2829,2848,2868,2888,2908,2929,2948,2969,2989,3008,3028,3049,3068,3088,3108,3128,3148,3169,3189,3209,3229,3249,3269,3289,3309,3329,3350,3369,3389,3409,3429,3450,3469,3489,3509,3529,3550,3569,3589,3609,3629,3650,3669,3689,3709,3729,3749,3770,3788,3808,3828,3848,3869,3888,3908,3928,3949,3968,3988,4008,4028,4049,4069,4089,4109,4128,4148,4168,4188,4208,4228,4248,4268,4288,4308,4329,4349,4368,4389,4409,4429,4449,4469,4489,4509,4530,4549,4569,4589,4609,4629,4649,4668,4689,4710,4729,4750,4769,4789,4809,4829,4850,4869,4889,4909,4929,4949,4968,4989,5009,5028,5050,5069,5088,5108,5128,5150,5178,5189,5209,5232,5249,5268,5288,5308,5328,5349,5368,5388,5408,5428,5450,5468,5488,5508,5528,5550,5568,5590,5609,5629,5650,5668,5689,5709,5729,5750,5768,5789,5809,5829,5850],"xSR":741.5,"ySR":501.8,"xT1":424.9,"yT1":0,"xT2":1058.1,"yT2":0,"toosoon":0,"cond_shown":"Incongruent","ratio_trial":300,"L_num":4,"L_den":20,"R_num":2,"R_den":4,"correct_side":2,"subjID":"juanitalopez21","gender":"1","school":"6","age":"11"},{"start_time":1551899899272,"click_time":1551899904932,"finger_time":1551899903833,"fix_duration":1218.7117331289742,"trial":11,"RT":4561,"MT":1099,"sideResp":1,"stimulus":[],"xmouse":[796,796,796,796,796,796,796,796,796,796,796,796,796,796,796,796,796,796,796,796,796,796,796,796,796,796,796,796,796,796,796,796,796,796,796,796,796,796,796,796,796,796,796,796,796,796,796,796,796,796,796,796,796,796,796,796,796,796,796,796,796,796,796,796,796,796,796,796,796,796,796,796,796,796,796,796,796,796,796,796,796,796,796,796,796,796,796,796,796,796,796,796,796,796,796,796,796,796,796,796,796,796,796,796,796,796,796,796,796,796,796,796,796,796,796,796,796,796,796,796,796,796,796,796,796,796,796,796,796,796,796,796,796,796,796,796,796,796,796,796,796,796,796,796,796,796,796,796,796,796,796,796,796,796,796,796,796,796,796,796,796,796,796,796,796,796,796,796,796,796,796,796,796,796,796,796,796,796,796,796,796,796,796,796,796,796,796,796,796,796,796,796,796,796,796,796,796,796,796,796,796,796,796,796,796,802,808,810,811,811,811,811,811,811,811,811,811,811,811,811,811,812,812,813,813,813,814,815,816,820,823,824,822,814,807,798,784,779,774,769,766,764,763,763,763,762,760,726,705,668,635,608,562,546,537,527,527,527,527,527,527,527,527,527,527,527,527,527,527,527,527,527,527,527,527,527,527,527,527,527,527,527,527,477],"ymouse":[530,530,530,530,530,530,530,530,530,530,530,530,530,530,530,530,530,530,530,530,530,530,530,530,530,530,530,530,530,530,530,530,530,530,530,530,530,530,530,530,530,530,530,530,530,530,530,530,530,530,530,530,530,530,530,530,530,530,530,530,530,530,530,530,530,530,530,530,530,530,530,530,530,530,530,530,530,530,530,530,530,530,530,530,530,530,530,530,530,530,530,530,530,530,530,530,530,530,530,530,530,530,530,530,530,530,530,530,530,530,530,530,530,530,530,530,530,530,530,530,530,530,530,530,530,530,530,530,530,530,530,530,530,530,530,530,530,530,530,530,530,530,530,530,530,530,530,530,530,530,530,530,530,530,530,530,530,530,530,530,530,530,530,530,530,530,530,530,530,530,530,530,530,530,530,530,530,530,530,530,530,530,530,530,530,530,530,530,530,530,530,530,530,530,530,530,530,530,530,530,530,530,530,530,530,521,514,512,511,510,509,509,509,509,509,509,509,509,509,509,509,507,507,506,505,504,503,502,498,490,478,445,428,411,396,381,356,346,339,331,328,326,325,325,325,324,321,281,256,226,190,156,81,50,26,5,5,5,5,5,5,5,5,5,5,5,5,5,5,5,5,5,5,5,5,5,5,5,5,5,5,5,5,1],"timestamp_mouse":[9,20,40,60,81,100,120,141,161,180,200,220,240,260,280,301,320,340,360,381,400,421,440,460,480,500,520,540,560,580,600,620,641,661,681,702,721,741,761,781,801,821,841,861,881,901,921,941,962,982,1000,1021,1041,1061,1081,1101,1121,1141,1161,1182,1201,1220,1240,1260,1280,1301,1320,1340,1360,1380,1400,1421,1440,1460,1480,1500,1520,1540,1560,1581,1600,1620,1641,1660,1680,1700,1720,1740,1760,1780,1801,1820,1841,1862,1881,1901,1921,1942,1962,1981,2001,2021,2042,2061,2081,2101,2121,2141,2161,2181,2202,2221,2241,2261,2280,2300,2320,2341,2361,2380,2400,2420,2440,2460,2480,2500,2520,2540,2560,2580,2600,2620,2640,2661,2681,2700,2720,2741,2761,2781,2800,2820,2841,2860,2880,2900,2920,2941,2960,2982,3000,3020,3040,3060,3082,3100,3122,3141,3161,3181,3201,3221,3241,3261,3282,3301,3321,3341,3360,3381,3400,3421,3440,3460,3480,3500,3520,3540,3560,3580,3600,3620,3640,3661,3681,3700,3720,3741,3760,3781,3800,3820,3841,3861,3880,3901,3920,3940,3960,3981,4000,4020,4040,4061,4080,4100,4121,4141,4161,4181,4201,4221,4242,4261,4281,4301,4321,4341,4361,4382,4401,4421,4442,4461,4482,4501,4521,4540,4561,4580,4600,4621,4640,4661,4680,4700,4722,4741,4761,4781,4800,4821,4840,4860,4880,4900,4921,4940,4960,4980,5000,5022,5040,5061,5080,5100,5122,5140,5160,5180,5200,5221,5241,5260,5280,5300,5320,5340,5360,5381,5400,5421,5441,5461,5481,5500,5521,5540,5559,5580,5599,5619,5639,5659],"xSR":741.5,"ySR":501.8,"xT1":424.9,"yT1":0,"xT2":1058.1,"yT2":0,"toosoon":0,"cond_shown":"Congruent","ratio_trial":200,"L_num":12,"L_den":15,"R_num":6,"R_den":10,"correct_side":1,"subjID":"juanitalopez21","gender":"1","school":"6","age":"11"},{"start_time":1551899908196,"click_time":1551899911452,"finger_time":1551899910893,"fix_duration":1182.5367871275378,"trial":12,"RT":2697,"MT":559,"sideResp":2,"stimulus":[],"xmouse":[794,794,794,794,794,794,794,794,794,794,794,794,794,794,794,794,794,794,794,794,794,794,794,794,794,794,794,794,794,794,794,794,794,794,794,794,794,794,794,794,794,794,794,794,794,794,794,794,794,794,794,794,794,794,794,794,794,794,794,794,794,794,794,794,794,794,794,794,794,794,794,794,794,794,794,794,794,794,794,794,794,794,794,794,794,794,794,794,794,794,794,794,794,794,794,794,794,794,794,794,794,794,794,794,794,794,794,794,794,794,794,794,794,794,794,794,794,794,794,794,794,794,794,794,794,794,794,794,794,794,794,794,805,825,879,990,1037,1101,1118,1176,1261,1289,1310,1326,1336,1338,1331,1322,1306,1291,1239,1213,1194,1192,1192,1192,1189,1178,1173,1169,1165,1159,1151],"ymouse":[581,581,581,581,581,581,581,581,581,581,581,581,581,581,581,581,581,581,581,581,581,581,581,581,581,581,581,581,581,581,581,581,581,581,581,581,581,581,581,581,581,581,581,581,581,581,581,581,581,581,581,581,581,581,581,581,581,581,581,581,581,581,581,581,581,581,581,581,581,581,581,581,581,581,581,581,581,581,581,581,581,581,581,581,581,581,581,581,581,581,581,581,581,581,581,581,581,581,581,581,581,581,581,581,581,581,581,581,581,581,581,581,581,581,581,581,581,581,581,581,581,581,581,581,581,581,581,581,581,581,581,581,576,565,544,505,480,435,421,381,320,299,284,266,250,240,219,209,192,183,153,143,135,133,133,129,125,114,106,95,82,57,47],"timestamp_mouse":[16,36,56,76,96,116,136,156,176,196,215,235,255,275,295,316,336,356,376,396,416,437,456,476,496,516,536,556,577,596,616,636,656,677,696,717,736,757,776,796,817,836,856,876,896,916,937,956,976,997,1016,1036,1057,1077,1096,1116,1137,1156,1176,1196,1216,1236,1256,1276,1296,1316,1336,1355,1375,1395,1416,1437,1456,1476,1496,1516,1536,1556,1576,1596,1616,1636,1656,1676,1696,1717,1736,1756,1776,1796,1817,1836,1856,1877,1897,1916,1936,1956,1976,1996,2016,2036,2056,2076,2096,2116,2136,2156,2175,2196,2215,2235,2255,2275,2295,2315,2335,2355,2377,2396,2415,2436,2456,2476,2497,2516,2536,2556,2577,2596,2616,2637,2656,2676,2697,2716,2736,2757,2776,2796,2816,2836,2856,2876,2896,2916,2936,2957,2976,2996,3016,3036,3057,3076,3096,3117,3135,3156,3176,3196,3216,3236,3256],"xSR":741.5,"ySR":501.8,"xT1":424.9,"yT1":0,"xT2":1058.1,"yT2":0,"toosoon":0,"cond_shown":"Incongruent","ratio_trial":300,"L_num":1,"L_den":2,"R_num":2,"R_den":10,"correct_side":1,"subjID":"juanitalopez21","gender":"1","school":"6","age":"11"},{"start_time":1551899914286,"click_time":1551899920812,"finger_time":1551899920432,"fix_duration":1072.8136346818749,"trial":13,"RT":6146,"MT":380,"sideResp":1,"stimulus":[],"xmouse":[809,809,809,809,809,809,809,809,809,809,809,809,809,809,809,809,809,809,809,809,809,809,809,809,809,809,809,809,809,809,809,809,809,809,809,809,809,809,809,809,809,809,809,809,809,809,809,809,809,809,809,809,809,809,809,809,809,809,809,809,809,809,809,809,809,809,809,809,809,809,809,809,809,809,809,809,809,809,809,809,809,809,809,809,809,809,809,809,809,809,809,809,809,809,809,809,809,809,809,809,809,809,809,809,809,809,809,809,809,809,809,809,809,809,809,809,809,809,809,809,809,809,809,809,809,809,809,809,809,809,809,809,809,809,809,809,809,809,809,809,809,809,809,809,809,809,809,809,809,809,809,809,809,809,809,809,809,809,809,809,809,809,809,809,809,809,809,809,809,809,809,809,809,809,809,809,809,809,809,809,809,809,809,809,809,809,809,809,809,809,809,809,809,809,809,809,809,809,809,809,809,809,809,809,809,809,809,809,809,809,809,809,809,809,809,809,809,809,809,809,809,809,809,809,809,809,809,809,809,809,809,809,809,809,809,809,809,809,809,809,809,809,809,809,809,809,809,809,809,809,809,809,809,809,809,809,809,809,809,809,809,809,809,809,809,809,809,809,809,809,809,809,809,809,809,809,809,809,809,809,809,809,809,809,809,809,809,809,809,809,809,809,809,809,809,809,809,809,809,809,809,809,809,809,809,811,822,866,881,885,887,887,887,887,887,887,888,884,877,852,830,788,695,652,603,556,516],"ymouse":[535,535,535,535,535,535,535,535,535,535,535,535,535,535,535,535,535,535,535,535,535,535,535,535,535,535,535,535,535,535,535,535,535,535,535,535,535,535,535,535,535,535,535,535,535,535,535,535,535,535,535,535,535,535,535,535,535,535,535,535,535,535,535,535,535,535,535,535,535,535,535,535,535,535,535,535,535,535,535,535,535,535,535,535,535,535,535,535,535,535,535,535,535,535,535,535,535,535,535,535,535,535,535,535,535,535,535,535,535,535,535,535,535,535,535,535,535,535,535,535,535,535,535,535,535,535,535,535,535,535,535,535,535,535,535,535,535,535,535,535,535,535,535,535,535,535,535,535,535,535,535,535,535,535,535,535,535,535,535,535,535,535,535,535,535,535,535,535,535,535,535,535,535,535,535,535,535,535,535,535,535,535,535,535,535,535,535,535,535,535,535,535,535,535,535,535,535,535,535,535,535,535,535,535,535,535,535,535,535,535,535,535,535,535,535,535,535,535,535,535,535,535,535,535,535,535,535,535,535,535,535,535,535,535,535,535,535,535,535,535,535,535,535,535,535,535,535,535,535,535,535,535,535,535,535,535,535,535,535,535,535,535,535,535,535,535,535,535,535,535,535,535,535,535,535,535,535,535,535,535,535,535,535,535,535,535,535,535,535,535,535,535,535,535,535,535,535,535,535,535,535,535,535,535,533,528,508,439,417,406,396,377,360,308,286,267,253,226,206,180,164,151,123,103,83,66,50],"timestamp_mouse":[9,26,46,66,86,107,125,145,165,185,205,226,245,265,286,306,326,347,366,386,406,426,446,466,486,506,526,546,566,586,607,626,646,666,686,707,726,746,766,786,807,827,847,866,886,906,926,946,966,986,1007,1026,1046,1067,1086,1107,1126,1146,1166,1186,1206,1227,1246,1266,1286,1306,1327,1347,1366,1386,1406,1425,1445,1465,1485,1506,1525,1546,1566,1585,1606,1626,1646,1667,1686,1706,1726,1746,1766,1786,1806,1826,1847,1866,1887,1906,1926,1946,1966,1986,2007,2027,2046,2066,2086,2106,2126,2146,2166,2186,2207,2227,2246,2266,2286,2306,2326,2346,2366,2386,2406,2426,2446,2466,2486,2505,2525,2545,2567,2586,2605,2627,2646,2666,2686,2706,2727,2746,2766,2786,2806,2826,2846,2866,2886,2907,2926,2946,2967,2986,3006,3027,3047,3066,3086,3106,3127,3147,3166,3186,3207,3226,3246,3266,3287,3306,3326,3346,3366,3386,3406,3426,3446,3466,3486,3506,3526,3546,3566,3586,3606,3626,3646,3665,3686,3705,3725,3746,3765,3785,3805,3826,3846,3866,3886,3906,3926,3946,3966,3987,4006,4026,4046,4067,4086,4107,4126,4147,4166,4187,4207,4226,4246,4266,4286,4307,4326,4346,4366,4386,4406,4426,4447,4466,4486,4506,4526,4546,4567,4586,4606,4626,4646,4666,4686,4707,4726,4746,4766,4787,4805,4825,4845,4865,4885,4905,4925,4947,4965,4986,5006,5027,5047,5067,5086,5106,5127,5146,5166,5187,5206,5226,5246,5266,5286,5306,5326,5347,5366,5386,5406,5426,5447,5466,5486,5507,5526,5546,5567,5586,5606,5627,5647,5667,5686,5706,5726,5746,5766,5786,5806,5826,5846,5866,5886,5905,5925,5945,5965,5985,6006,6025,6045,6066,6086,6107,6126,6146,6166,6186,6207,6227,6247,6266,6286,6307,6326,6348,6366,6386,6406,6426,6446,6466,6486,6506,6526],"xSR":741.5,"ySR":501.8,"xT1":424.9,"yT1":0,"xT2":1058.1,"yT2":0,"toosoon":0,"cond_shown":"Congruent","ratio_trial":200,"L_num":16,"L_den":30,"R_num":9,"R_den":27,"correct_side":1,"subjID":"juanitalopez21","gender":"1","school":"6","age":"11"},{"start_time":1551899922522,"click_time":1551899928412,"finger_time":1551899927352,"fix_duration":368.9480872313885,"trial":14,"RT":4830,"MT":1060,"sideResp":2,"stimulus":[],"xmouse":[763,763,763,763,763,763,763,763,763,763,763,763,763,763,763,763,763,763,763,763,763,763,763,763,763,763,763,763,763,763,763,763,763,763,763,763,763,763,763,763,763,763,763,763,763,763,763,763,763,763,763,763,763,763,763,763,763,763,763,763,763,763,763,763,763,763,763,763,763,763,763,763,763,763,763,763,763,763,763,763,763,763,763,763,763,763,763,763,763,763,763,763,763,763,763,763,763,763,763,763,763,763,763,763,763,763,763,763,763,763,763,763,763,763,763,763,763,763,763,763,763,763,763,763,763,763,763,763,763,763,763,763,763,763,763,763,769,770,770,770,770,770,770,770,770,770,770,770,770,770,770,770,770,770,770,770,770,770,770,770,770,770,770,770,770,770,770,770,770,770,770,770,770,770,770,770,770,770,770,770,770,770,770,770,770,770,770,770,770,770,770,770,770,770,770,770,770,770,770,770,770,770,770,770,770,770,770,770,770,770,770,770,770,770,770,770,770,770,770,770,770,770,770,770,770,770,770,770,771,771,772,772,773,773,773,774,778,788,801,817,834,878,903,923,944,970,991,998,1001,1002,1002,995,990,987,985,985,985,985,985,985,985,985,985,985,985,985,985,985,985,985,985,985,985,985,985,986,990,1018,1044,1095,1135,1189,1201,1208,1209,1209,1209,1209,1208,1207,1206,1199,1185,1169,1152],"ymouse":[552,551,551,551,551,551,551,551,551,551,551,551,551,551,551,551,551,551,551,551,551,551,551,551,551,551,551,551,551,551,551,551,551,551,551,551,551,551,551,551,551,551,551,551,551,551,551,551,551,551,551,551,551,551,551,551,551,551,551,551,551,551,551,551,551,551,551,551,551,551,551,551,551,551,551,551,551,551,551,551,551,551,551,551,551,551,551,551,551,551,551,551,551,551,551,551,551,551,551,551,551,551,551,551,551,551,551,551,551,551,551,551,551,551,551,551,551,551,551,551,551,551,551,551,551,551,551,551,551,551,551,551,551,551,551,551,550,550,550,550,550,550,550,550,550,550,550,550,550,550,550,550,550,550,550,550,550,550,550,550,550,550,550,550,550,550,550,550,550,550,550,550,550,550,550,550,550,550,550,550,550,550,550,550,550,550,550,550,550,550,550,550,550,550,550,550,550,550,550,550,550,550,550,550,550,550,550,550,550,550,550,550,550,550,550,550,550,550,550,550,550,550,550,550,550,550,550,550,550,550,550,550,550,550,550,550,548,547,545,540,536,517,506,493,476,449,413,392,374,358,344,319,309,300,295,290,287,287,287,287,287,287,287,287,287,287,287,287,287,287,287,287,287,287,287,285,279,252,232,192,156,110,98,90,89,89,89,89,89,91,91,92,91,89,85],"timestamp_mouse":[10,30,50,70,90,118,130,150,170,190,211,230,250,271,290,310,330,350,370,390,411,431,450,470,489,509,529,550,569,589,610,630,649,669,689,710,729,749,769,789,809,830,850,870,890,910,931,951,970,991,1011,1030,1050,1070,1090,1110,1130,1150,1170,1190,1210,1230,1250,1270,1291,1310,1330,1350,1371,1390,1411,1430,1450,1471,1490,1510,1530,1550,1570,1590,1610,1630,1650,1670,1691,1710,1730,1750,1770,1791,1810,1830,1850,1870,1889,1909,1929,1950,1970,1990,2010,2031,2051,2070,2090,2110,2130,2150,2170,2190,2210,2230,2250,2270,2290,2311,2330,2350,2370,2390,2410,2430,2450,2471,2490,2510,2530,2550,2571,2590,2610,2630,2650,2670,2691,2711,2729,2749,2769,2789,2809,2830,2850,2870,2890,2909,2930,2950,2970,2990,3010,3030,3050,3071,3090,3110,3130,3150,3170,3190,3210,3230,3250,3270,3290,3311,3330,3350,3370,3391,3410,3430,3451,3470,3490,3510,3530,3550,3570,3590,3610,3630,3650,3670,3690,3710,3731,3750,3770,3790,3810,3830,3851,3870,3891,3910,3930,3950,3971,3990,4009,4029,4049,4069,4090,4109,4130,4149,4169,4189,4210,4231,4250,4270,4290,4311,4330,4350,4370,4390,4410,4430,4450,4470,4490,4510,4530,4550,4570,4590,4610,4631,4650,4670,4690,4710,4730,4750,4770,4791,4810,4830,4850,4870,4890,4910,4930,4951,4970,4990,5010,5030,5050,5071,5089,5109,5130,5149,5170,5189,5209,5230,5250,5270,5290,5311,5330,5349,5370,5390,5410,5430,5450,5470,5490,5510,5530,5550,5570,5590,5610,5630,5650,5671,5690,5710,5731,5750,5770,5790,5810,5831,5850,5871,5890],"xSR":741.5,"ySR":501.8,"xT1":424.9,"yT1":0,"xT2":1058.1,"yT2":0,"toosoon":0,"cond_shown":"Incongruent","ratio_trial":200,"L_num":7,"L_den":10,"R_num":14,"R_den":28,"correct_side":1,"subjID":"juanitalopez21","gender":"1","school":"6","age":"11"},{"start_time":1551899930177,"click_time":1551899933012,"finger_time":1551899932472,"fix_duration":482.1037992277509,"trial":15,"RT":2295,"MT":540,"sideResp":2,"stimulus":[],"xmouse":[783,783,783,783,783,783,783,783,783,783,783,783,783,783,783,783,783,783,783,783,783,783,783,783,783,783,783,783,783,783,783,783,783,783,783,783,783,783,783,783,783,783,783,783,783,783,783,783,783,783,783,783,783,783,783,783,783,783,783,783,783,783,783,783,783,783,783,783,783,783,783,783,783,783,783,783,783,783,783,783,783,783,783,783,783,783,783,783,783,783,783,783,783,783,783,783,783,783,783,783,783,783,783,783,783,783,783,783,783,783,783,783,783,788,818,878,951,1026,1089,1178,1209,1218,1222,1224,1225,1226,1226,1226,1224,1208,1208,1208,1208,1208,1208,1208,1208,1208,1208,1208,1208,1144],"ymouse":[529,529,529,529,529,529,529,529,529,529,529,529,529,529,529,529,529,529,529,529,529,529,529,529,529,529,529,529,529,529,529,529,529,529,529,529,529,529,529,529,529,529,529,529,529,529,529,529,529,529,529,529,529,529,529,529,529,529,529,529,529,529,529,529,529,529,529,529,529,529,529,529,529,529,529,529,529,529,529,529,529,529,529,529,529,529,529,529,529,529,529,529,529,529,529,529,529,529,529,529,529,529,529,529,529,529,529,529,529,529,529,529,529,523,491,433,372,308,249,135,82,60,49,43,38,34,28,21,15,0,0,0,0,0,0,0,0,0,0,0,0,1],"timestamp_mouse":[15,40,56,76,95,115,135,155,175,195,216,235,255,275,296,315,335,355,375,395,415,436,455,475,495,516,536,555,575,596,615,635,654,674,694,714,734,754,775,794,815,835,855,876,895,915,936,955,975,995,1016,1036,1055,1076,1095,1115,1135,1155,1175,1196,1215,1235,1256,1275,1296,1315,1336,1355,1376,1395,1415,1435,1455,1475,1495,1515,1535,1555,1575,1596,1615,1636,1655,1675,1696,1715,1736,1755,1774,1795,1814,1834,1854,1874,1895,1914,1936,1955,1976,1996,2015,2036,2055,2076,2095,2115,2136,2155,2175,2195,2215,2235,2255,2275,2295,2315,2336,2355,2375,2395,2415,2436,2455,2475,2495,2515,2535,2555,2575,2595,2615,2635,2656,2675,2695,2715,2736,2756,2775,2795,2816,2835],"xSR":741.5,"ySR":501.8,"xT1":424.9,"yT1":0,"xT2":1058.1,"yT2":0,"toosoon":0,"cond_shown":"Incongruent","ratio_trial":300,"L_num":1,"L_den":2,"R_num":2,"R_den":10,"correct_side":1,"subjID":"juanitalopez21","gender":"1","school":"6","age":"11"},{"start_time":1551899936196,"click_time":1551899940992,"finger_time":1551899940473,"fix_duration":401.98343453605446,"trial":16,"RT":4277,"MT":519,"sideResp":2,"stimulus":[],"xmouse":[812,812,812,812,812,812,812,812,812,812,812,812,812,812,812,812,812,812,812,812,812,812,812,812,812,812,812,812,812,812,812,812,812,812,812,812,812,812,812,812,812,812,812,812,812,812,812,812,812,812,812,812,812,812,812,812,812,812,812,812,812,812,812,812,812,812,812,812,812,812,812,812,812,812,812,812,812,812,812,812,812,812,812,812,812,812,812,812,812,812,812,812,812,812,812,812,812,812,812,812,812,812,812,812,812,812,812,812,812,812,812,812,812,812,812,812,812,812,812,812,812,812,812,812,812,812,812,812,812,812,812,812,812,812,812,812,812,812,812,812,812,812,812,812,812,812,812,812,812,812,812,812,812,812,812,812,812,812,812,812,812,812,812,812,812,812,812,812,812,812,812,812,812,812,812,812,812,812,812,812,812,812,812,812,812,812,812,812,812,812,812,812,812,812,812,812,812,812,812,812,812,812,812,812,812,812,812,812,812,812,812,812,812,817,820,848,869,897,936,1020,1053,1067,1073,1075,1079,1080,1080,1080,1081,1081,1081,1081,1081,1081,1081,1082,1084,1086,1087,1087],"ymouse":[555,555,555,555,555,555,555,555,555,555,555,555,555,555,555,555,555,555,555,555,555,555,555,555,555,555,555,555,555,555,555,555,555,555,555,555,555,555,555,555,555,555,555,555,555,555,555,555,555,555,555,555,555,555,555,555,555,555,555,555,555,555,555,555,555,555,555,555,555,555,555,555,555,555,555,555,555,555,555,555,555,555,555,555,555,555,555,555,555,555,555,555,555,555,555,555,555,555,555,555,555,555,555,555,555,555,555,555,555,555,555,555,555,555,555,555,555,555,555,555,555,555,555,555,555,555,555,555,555,555,555,555,555,555,555,555,555,555,555,555,555,555,555,555,555,555,555,555,555,555,555,555,555,555,555,555,555,555,555,555,555,555,555,555,555,555,555,555,555,555,555,555,555,555,555,555,555,555,555,555,555,555,555,555,555,555,555,555,555,555,555,555,555,555,555,555,555,555,555,555,555,555,555,555,555,555,555,555,555,555,555,555,554,481,433,376,346,321,292,237,216,206,202,198,192,189,189,189,188,184,181,179,174,166,147,133,122,113,106,97],"timestamp_mouse":[16,40,56,76,96,116,136,156,176,197,217,237,256,276,296,317,336,357,377,396,416,436,457,476,496,516,537,557,576,596,617,635,656,676,696,715,735,755,775,797,815,836,856,876,896,916,936,956,975,995,1015,1036,1056,1076,1096,1116,1136,1156,1177,1196,1216,1236,1256,1276,1296,1316,1336,1356,1377,1396,1416,1436,1456,1477,1496,1516,1537,1556,1576,1597,1616,1636,1656,1676,1697,1716,1736,1756,1776,1797,1816,1836,1857,1876,1896,1916,1937,1956,1976,1997,2015,2036,2056,2075,2095,2116,2135,2155,2175,2196,2216,2236,2257,2276,2296,2316,2336,2356,2376,2396,2416,2436,2456,2476,2496,2516,2536,2556,2577,2596,2616,2637,2656,2676,2696,2716,2736,2756,2776,2797,2816,2836,2856,2876,2896,2916,2936,2956,2975,2995,3016,3035,3055,3075,3095,3115,3135,3155,3176,3196,3216,3236,3256,3276,3296,3317,3336,3356,3376,3396,3416,3436,3456,3476,3496,3516,3537,3557,3577,3596,3617,3636,3656,3676,3697,3716,3737,3756,3776,3796,3817,3836,3856,3876,3896,3916,3937,3956,3976,3995,4015,4035,4055,4075,4095,4116,4136,4156,4176,4196,4216,4236,4257,4277,4295,4316,4336,4356,4376,4395,4417,4436,4456,4476,4496,4517,4536,4556,4576,4596,4617,4636,4656,4676,4696,4716,4736,4756,4776,4796],"xSR":741.5,"ySR":501.8,"xT1":424.9,"yT1":0,"xT2":1058.1,"yT2":0,"toosoon":0,"cond_shown":"Congruent","ratio_trial":100,"L_num":6,"L_den":12,"R_num":15,"R_den":25,"correct_side":2,"subjID":"juanitalopez21","gender":"1","school":"6","age":"11"},{"start_time":1551899942844,"click_time":1551899945852,"finger_time":1551899945392,"fix_duration":250,"trial":17,"RT":2548,"MT":460,"sideResp":1,"stimulus":[],"xmouse":[799,799,799,799,799,799,799,799,799,799,799,799,799,799,799,799,799,799,799,799,799,799,799,799,799,799,799,799,799,799,799,799,799,799,799,799,799,799,799,799,799,799,799,799,799,799,799,799,799,799,799,799,799,799,799,799,799,799,799,799,799,799,799,799,799,799,799,799,799,799,799,799,799,799,799,799,799,799,799,799,799,799,799,799,799,799,799,799,799,799,799,799,799,799,799,799,799,799,799,799,799,799,799,799,799,799,799,799,799,799,799,799,799,799,799,799,799,799,799,799,799,799,799,799,799,799,798,781,764,740,711,666,613,590,569,562,560,560,560,560,560,560,560,560,560,560,560,560,560,560,480],"ymouse":[528,528,528,528,528,528,528,528,528,528,528,528,528,528,528,528,528,528,528,528,528,528,528,528,528,528,528,528,528,528,528,528,528,528,528,528,528,528,528,528,528,528,528,528,528,528,528,528,528,528,528,528,528,528,528,528,528,528,528,528,528,528,528,528,528,528,528,528,528,528,528,528,528,528,528,528,528,528,528,528,528,528,528,528,528,528,528,528,528,528,528,528,528,528,528,528,528,528,528,528,528,528,528,528,528,528,528,528,528,528,528,528,528,528,528,528,528,528,528,528,528,528,528,528,524,520,514,481,449,407,359,267,146,89,41,12,0,0,0,0,0,0,0,0,0,0,0,0,0,0,3],"timestamp_mouse":[9,39,48,69,88,108,128,148,168,188,208,228,248,268,289,308,328,348,368,388,409,428,448,468,488,508,529,549,568,588,609,628,648,667,688,708,728,748,769,788,808,828,848,868,888,908,929,948,968,988,1008,1029,1048,1068,1088,1108,1128,1148,1168,1189,1209,1228,1248,1268,1288,1309,1329,1348,1368,1388,1408,1428,1448,1468,1488,1508,1528,1549,1568,1588,1608,1629,1648,1668,1689,1708,1728,1748,1768,1788,1807,1827,1847,1868,1889,1908,1928,1949,1968,1989,2008,2028,2048,2068,2088,2108,2129,2148,2168,2188,2208,2228,2249,2268,2288,2308,2328,2348,2368,2388,2408,2428,2448,2469,2488,2508,2528,2548,2568,2588,2608,2628,2649,2668,2688,2708,2728,2748,2768,2789,2808,2828,2848,2868,2888,2908,2928,2948,2969,2989,3008],"xSR":741.5,"ySR":501.8,"xT1":424.9,"yT1":0,"xT2":1058.1,"yT2":0,"toosoon":0,"cond_shown":"Congruent","ratio_trial":200,"L_num":8,"L_den":15,"R_num":2,"R_den":6,"correct_side":1,"subjID":"juanitalopez21","gender":"1","school":"6","age":"11"},{"start_time":1551899948446,"click_time":1551899951692,"finger_time":1551899950952,"fix_duration":250,"trial":18,"RT":2506,"MT":740,"sideResp":1,"stimulus":[],"xmouse":[756,756,756,756,756,756,756,756,756,756,756,756,756,756,756,756,756,756,756,756,756,756,756,756,756,756,756,756,756,756,756,756,756,756,756,756,756,756,756,756,756,756,756,756,756,756,756,756,756,756,756,756,756,756,756,756,756,756,756,756,756,756,756,756,756,756,756,756,756,756,756,756,756,756,756,756,756,756,756,756,756,756,756,756,756,756,756,756,756,756,756,756,756,756,756,756,756,756,756,756,756,756,756,756,756,756,756,756,756,756,756,756,756,756,756,756,756,756,756,756,756,756,756,772,820,926,1064,1211,1470,1498,1486,1421,1268,1268,1268,1268,1268,1268,1268,1268,1268,1268,1268,118,173,237,305,375,394,393,380,352,305,187,142,123,119,120,187,243,309,375,427],"ymouse":[552,552,552,552,552,552,552,552,552,552,552,552,552,552,552,552,552,552,552,552,552,552,552,552,552,552,552,552,552,552,552,552,552,552,552,552,552,552,552,552,552,552,552,552,552,552,552,552,552,552,552,552,552,552,552,552,552,552,552,552,552,552,552,552,552,552,552,552,552,552,552,552,552,552,552,552,552,552,552,552,552,552,552,552,552,552,552,552,552,552,552,552,552,552,552,552,552,552,552,552,552,552,552,552,552,552,552,552,552,552,552,552,552,552,552,552,552,552,552,552,550,545,543,537,525,503,467,413,250,191,133,71,5,5,5,5,5,5,5,5,5,5,5,2,28,52,75,99,107,108,111,112,112,103,100,99,99,98,90,87,83,82,80],"timestamp_mouse":[10,35,46,66,87,106,126,147,165,186,206,227,246,266,286,306,326,346,366,386,406,427,446,466,486,506,526,546,566,586,607,627,646,666,686,706,727,746,766,786,806,826,847,866,887,906,926,946,966,986,1006,1026,1047,1066,1086,1106,1126,1147,1166,1186,1206,1226,1246,1266,1285,1305,1325,1345,1365,1385,1405,1425,1446,1466,1486,1506,1526,1546,1566,1586,1606,1626,1646,1666,1687,1706,1726,1746,1766,1786,1806,1826,1846,1867,1886,1906,1926,1946,1966,1987,2006,2026,2047,2066,2086,2106,2126,2146,2166,2186,2206,2226,2246,2267,2287,2306,2327,2346,2366,2386,2406,2426,2446,2466,2486,2506,2526,2546,2566,2586,2606,2626,2646,2667,2686,2706,2726,2745,2766,2787,2805,2825,2846,2866,2885,2905,2926,2946,2965,2986,3006,3026,3047,3066,3086,3106,3126,3146,3166,3186,3206,3227,3246],"xSR":741.5,"ySR":501.8,"xT1":424.9,"yT1":0,"xT2":1058.1,"yT2":0,"toosoon":0,"cond_shown":"Congruent","ratio_trial":100,"L_num":6,"L_den":20,"R_num":5,"R_den":25,"correct_side":1,"subjID":"juanitalopez21","gender":"1","school":"6","age":"11"},{"start_time":1551899953988,"click_time":1551899956872,"finger_time":1551899956192,"fix_duration":973.4234583109175,"trial":19,"RT":2204,"MT":680,"sideResp":2,"stimulus":[],"xmouse":[784,784,784,784,784,784,784,784,784,784,784,784,784,784,784,784,784,784,784,784,784,784,784,784,784,784,784,784,784,784,784,784,784,784,784,784,784,784,784,784,784,784,784,784,784,784,784,784,784,784,784,784,784,784,784,784,784,784,784,784,784,784,784,784,784,784,784,784,784,784,784,784,784,784,784,784,784,784,784,784,784,784,784,784,784,784,784,784,784,784,784,784,784,784,784,784,784,784,784,784,784,784,784,784,784,784,784,784,784,782,732,625,608,604,604,604,603,603,603,599,593,593,595,605,624,651,700,820,903,903,903,903,903,903,903,903,903,903,903,903,903,903,903,903,1128],"ymouse":[542,542,542,542,542,542,542,542,542,542,542,542,542,542,542,542,542,542,542,542,542,542,542,542,542,542,542,542,542,542,542,542,542,542,542,542,542,542,542,542,542,542,542,542,542,542,542,542,542,542,542,542,542,542,542,542,542,542,542,542,542,542,542,542,542,542,542,542,542,542,542,542,542,542,542,542,542,542,542,542,542,542,542,542,542,542,542,542,542,542,542,542,542,542,542,542,542,542,542,542,542,542,542,542,542,542,542,542,542,538,475,363,352,351,351,361,401,402,401,389,376,374,374,371,358,331,277,106,1,1,1,1,1,1,1,1,1,1,1,1,1,1,1,1,11],"timestamp_mouse":[11,24,45,64,84,105,124,144,164,184,204,224,245,264,284,304,324,345,364,385,405,424,443,463,483,503,523,543,563,583,605,624,644,664,685,704,724,745,764,784,804,824,844,865,884,904,924,944,964,984,1005,1024,1044,1064,1084,1104,1124,1144,1164,1184,1204,1224,1244,1264,1284,1304,1325,1344,1364,1384,1404,1424,1444,1464,1484,1504,1524,1544,1564,1584,1605,1625,1645,1664,1684,1704,1723,1745,1763,1783,1803,1823,1843,1864,1884,1904,1924,1944,1964,1984,2005,2024,2044,2064,2084,2105,2124,2144,2164,2184,2204,2226,2244,2265,2285,2304,2326,2344,2364,2384,2405,2424,2444,2464,2484,2504,2524,2544,2564,2584,2604,2624,2645,2664,2684,2704,2724,2744,2764,2784,2804,2826,2845,2865,2884],"xSR":741.5,"ySR":501.8,"xT1":424.9,"yT1":0,"xT2":1058.1,"yT2":0,"toosoon":0,"cond_shown":"Incongruent","ratio_trial":200,"L_num":3,"L_den":4,"R_num":11,"R_den":20,"correct_side":1,"subjID":"juanitalopez21","gender":"1","school":"6","age":"11"},{"start_time":1551899961118,"click_time":1551899966393,"finger_time":1551899964132,"fix_duration":1125.8833485785756,"trial":20,"RT":3014,"MT":2261,"sideResp":1,"stimulus":[],"xmouse":[804,804,804,804,804,804,804,804,804,804,804,804,804,804,804,804,804,804,804,804,804,804,804,804,804,804,804,804,804,804,804,804,804,804,804,804,804,804,804,804,804,804,804,804,804,804,804,804,804,804,804,804,804,804,804,804,804,804,804,804,804,804,804,804,804,804,804,804,804,804,804,804,804,804,804,804,804,804,804,804,804,804,804,804,804,804,804,804,804,804,804,804,804,804,804,804,804,804,804,804,804,804,804,804,804,804,804,804,804,804,804,804,804,804,804,804,804,804,804,804,804,804,804,804,804,804,804,804,804,804,804,804,804,804,804,804,804,804,804,804,804,804,805,808,815,825,830,832