[{"start_time":1551791047026,"click_time":1551791049107,"finger_time":1551791048788,"fix_duration":1354.2776744490877,"trial":0,"RT":1762,"MT":319,"sideResp":1,"stimulus":"img/500/equaldotanddens/L/10_Ratio_500_L_4_R_2.png","xmouse":[809,809,809,809,809,809,809,809,809,809,809,809,809,809,809,809,809,809,809,809,809,809,809,809,809,809,809,809,809,809,809,809,809,809,809,809,809,809,809,809,809,809,809,809,809,809,809,809,809,809,809,809,809,809,809,809,809,809,809,809,809,809,809,809,809,809,809,809,809,809,809,809,809,809,809,809,809,809,809,809,809,809,809,809,808,794,757,695,557,501,461,442,422,416,409,404,400,398,402,409,415,418,421,425],"ymouse":[527,527,527,527,527,527,527,527,527,527,527,527,527,527,527,527,527,527,527,527,527,527,527,527,527,527,527,527,527,527,527,527,527,527,527,527,527,527,527,527,527,527,527,527,527,527,527,527,527,527,527,527,527,527,527,527,527,527,527,527,527,527,527,527,527,527,527,527,527,527,527,527,527,527,527,527,527,527,527,527,527,527,527,527,527,512,476,433,331,283,247,225,203,196,182,172,160,149,116,104,97,94,94,94],"timestamp_mouse":[8,42,61,81,101,122,141,162,182,201,222,241,261,282,302,321,341,361,382,402,421,441,462,481,501,521,541,562,582,601,621,641,662,681,701,721,742,761,782,801,821,842,862,882,901,921,941,961,982,1001,1022,1041,1061,1082,1101,1122,1141,1161,1182,1201,1221,1242,1262,1282,1301,1321,1342,1362,1381,1401,1421,1441,1462,1481,1501,1521,1542,1562,1581,1601,1622,1641,1662,1681,1702,1722,1741,1762,1782,1802,1821,1841,1862,1881,1901,1921,1941,1961,1981,2002,2021,2042,2063,2081],"xSR":741.5,"ySR":469.95,"xT1":424.9,"yT1":0,"xT2":1058.1,"yT2":0,"toosoon":0,"cond_shown":"equaldotanddens","ratio_trial":500,"smaller_num":"2","larger_num":"4","correct_side":1,"subjID":"mariana-aguilera-pinzon","gender":"11","age":"No_age","school":"No_school","test":{"fix_dur":[250,1500],"timestim":300,"targets_dim":[100,100],"targets_relative_coord":[0.3,0.7],"size_stim":[880,420],"start_dim":[100,100],"size_start":[300,300],"size_fix":60,"samplingrate":20,"img_types":["equaldotsize","equaldotanddens","randomdotsizeEA"],"ratios":[250,500,750,900],"rep_conds":9,"nTrials":120,"trials_to_rest":500,"Trials_order":[28,42,55,73,58,83,16,47,37,113,39,56,20,43,60,110,119,104,35,30,57,10,79,74,41,59,6,18,36,101,23,45,114,96,70,21,94,64,40,106,66,82,71,12,2,72,46,3,67,100,68,78,44,17,111,5,88,116,62,76,97,93,117,61,50,63,109,49,15,65,52,91,98,54,81,118,103,99,22,53,0,19,13,11,105,14,90,107,108,75,85,86,7,24,95,9,87,84,69,48,31,25,89,51,112,33,29,4,32,77,38,34,80,26,92,8,1,27,102,115],"cond_shown":["equaldotanddens","equaldotsize","equaldotanddens","equaldotanddens","equaldotanddens","randomdotsizeEA","equaldotanddens","randomdotsizeEA","equaldotanddens","randomdotsizeEA","equaldotsize","randomdotsizeEA","randomdotsizeEA","equaldotanddens","equaldotsize","randomdotsizeEA","randomdotsizeEA","randomdotsizeEA","randomdotsizeEA","equaldotsize","equaldotsize","equaldotanddens","equaldotanddens","randomdotsizeEA","randomdotsizeEA","randomdotsizeEA","equaldotsize","equaldotsize","equaldotsize","randomdotsizeEA","randomdotsizeEA","equaldotsize","equaldotsize","equaldotsize","equaldotanddens","equaldotsize","equaldotanddens","equaldotanddens","equaldotanddens","equaldotanddens","equaldotsize","equaldotanddens","randomdotsizeEA","equaldotsize","randomdotsizeEA","equaldotsize","equaldotanddens","equaldotsize","equaldotanddens","equaldotanddens","randomdotsizeEA","equaldotsize","randomdotsizeEA","randomdotsizeEA","equaldotsize","randomdotsizeEA","equaldotanddens","randomdotsizeEA","randomdotsizeEA","equaldotanddens","equaldotanddens","equaldotsize","equaldotsize","equaldotanddens","randomdotsizeEA","equaldotsize","equaldotanddens","equaldotanddens","equaldotsize","randomdotsizeEA","equaldotanddens","equaldotanddens","randomdotsizeEA","equaldotsize","equaldotsize","equaldotanddens","equaldotanddens","equaldotsize","equaldotanddens","randomdotsizeEA","equaldotsize","equaldotanddens","equaldotanddens","randomdotsizeEA","equaldotsize","randomdotsizeEA","equaldotsize","randomdotsizeEA","equaldotsize","equaldotsize","equaldotanddens","randomdotsizeEA","equaldotanddens","equaldotsize","randomdotsizeEA","equaldotsize","equaldotsize","equaldotsize","equaldotsize","equaldotsize","equaldotanddens","equaldotanddens","randomdotsizeEA","equaldotsize","equaldotanddens","equaldotsize","randomdotsizeEA","equaldotanddens","randomdotsizeEA","randomdotsizeEA","randomdotsizeEA","equaldotanddens","randomdotsizeEA","randomdotsizeEA","randomdotsizeEA","randomdotsizeEA","equaldotanddens","equaldotsize","equaldotsize","equaldotanddens"],"ratio_trial":[500,750,750,250,900,900,500,900,250,500,500,750,750,750,250,250,900,750,900,750,900,900,750,250,500,900,750,750,250,500,900,900,750,250,900,900,900,500,500,900,750,900,900,250,250,250,900,500,750,500,750,750,750,500,500,500,500,750,250,500,250,900,900,250,250,500,250,250,500,500,500,750,250,750,900,900,750,500,900,500,250,750,250,900,900,250,750,900,250,500,250,250,750,250,900,900,500,250,900,250,750,250,500,500,500,900,500,500,750,500,250,900,750,250,750,750,250,500,750,750],"smaller_num":["2","6","6","3","18","18","5","18","2","10","4","6","6","15","4","4","18","6","18","15","18","9","6","1","9","9","9","3","6","10","9","18","3","2","18","9","18","9","5","18","15","18","18","3","2","6","18","1","6","1","3","3","3","9","5","1","6","3","2","2","3","18","9","4","2","1","6","3","9","10","9","6","6","3","9","18","3","10","18","9","3","15","2","18","9","6","12","18","6","1","3","2","15","3","18","9","4","2","18","2","15","3","9","5","5","9","2","9","9","3","3","18","6","3","3","3","1","3","18","6"],"larger_num":["4","8","8","12","20","20","10","20","8","20","8","8","8","20","16","16","20","8","20","20","20","10","8","4","18","10","12","4","24","20","10","20","4","8","20","10","20","18","10","20","20","20","20","12","8","24","20","2","8","2","4","4","4","18","10","2","12","4","8","4","12","20","10","16","8","2","24","12","18","20","18","8","24","4","10","20","4","20","20","18","12","20","8","20","10","24","16","20","24","2","12","8","20","12","20","10","8","8","20","8","20","12","18","10","10","10","4","18","12","6","12","20","8","12","4","4","4","6","24","8"],"correct_side":[1,1,2,2,1,2,1,2,1,2,1,1,1,1,1,2,1,1,2,2,2,2,2,2,2,2,2,1,2,2,1,2,1,1,1,2,2,1,2,1,1,2,1,2,1,2,1,2,2,2,1,1,1,1,1,2,1,2,1,1,1,2,2,1,1,2,2,2,2,2,1,1,1,1,2,2,1,2,1,2,2,1,1,2,2,1,2,2,2,2,2,2,2,2,2,2,1,1,2,1,2,1,1,2,1,1,1,1,2,2,1,1,2,2,1,2,2,2,1,1],"img_shown":["img/500/equaldotanddens/L/10_Ratio_500_L_4_R_2.png","img/750/equaldotsize/L/14_Ratio_750_L_8_R_6.png","img/750/equaldotanddens/R/2_Ratio_750_L_6_R_8.png","img/250/equaldotanddens/R/4_Ratio_250_L_3_R_12.png","img/900/equaldotanddens/L/10_Ratio_900_L_20_R_18.png","img/900/randomdotsizeEA/R/11_Ratio_900_L_18_R_20.png","img/500/equaldotanddens/L/7_Ratio_500_L_10_R_5.png","img/900/randomdotsizeEA/R/13_Ratio_900_L_18_R_20.png","img/250/equaldotanddens/L/3_Ratio_250_L_8_R_2.png","img/500/randomdotsizeEA/R/3_Ratio_500_L_10_R_20.png","img/500/equaldotsize/L/8_Ratio_500_L_8_R_4.png","img/750/randomdotsizeEA/L/13_Ratio_750_L_8_R_6.png","img/750/randomdotsizeEA/L/13_Ratio_750_L_8_R_6.png","img/750/equaldotanddens/L/1_Ratio_750_L_20_R_15.png","img/250/equaldotsize/L/2_Ratio_250_L_16_R_4.png","img/250/randomdotsizeEA/R/10_Ratio_250_L_4_R_16.png","img/900/randomdotsizeEA/L/10_Ratio_900_L_20_R_18.png","img/750/randomdotsizeEA/L/14_Ratio_750_L_8_R_6.png","img/900/randomdotsizeEA/R/12_Ratio_900_L_18_R_20.png","img/750/equaldotsize/R/4_Ratio_750_L_15_R_20.png","img/900/equaldotsize/R/9_Ratio_900_L_18_R_20.png","img/900/equaldotanddens/R/3_Ratio_900_L_9_R_10.png","img/750/equaldotanddens/R/2_Ratio_750_L_6_R_8.png","img/250/randomdotsizeEA/R/8_Ratio_250_L_1_R_4.png","img/500/randomdotsizeEA/R/6_Ratio_500_L_9_R_18.png","img/900/randomdotsizeEA/R/3_Ratio_900_L_9_R_10.png","img/750/equaldotsize/R/15_Ratio_750_L_9_R_12.png","img/750/equaldotsize/L/8_Ratio_750_L_4_R_3.png","img/250/equaldotsize/R/6_Ratio_250_L_6_R_24.png","img/500/randomdotsizeEA/R/3_Ratio_500_L_10_R_20.png","img/900/randomdotsizeEA/L/1_Ratio_900_L_10_R_9.png","img/900/equaldotsize/R/11_Ratio_900_L_18_R_20.png","img/750/equaldotsize/L/10_Ratio_750_L_4_R_3.png","img/250/equaldotsize/L/1_Ratio_250_L_8_R_2.png","img/900/equaldotanddens/L/8_Ratio_900_L_20_R_18.png","img/900/equaldotsize/R/7_Ratio_900_L_9_R_10.png","img/900/equaldotanddens/R/12_Ratio_900_L_18_R_20.png","img/500/equaldotanddens/L/4_Ratio_500_L_18_R_9.png","img/500/equaldotanddens/R/14_Ratio_500_L_5_R_10.png","img/900/equaldotanddens/L/4_Ratio_900_L_20_R_18.png","img/750/equaldotsize/L/1_Ratio_750_L_20_R_15.png","img/900/equaldotanddens/R/14_Ratio_900_L_18_R_20.png","img/900/randomdotsizeEA/L/10_Ratio_900_L_20_R_18.png","img/250/equaldotsize/R/4_Ratio_250_L_3_R_12.png","img/250/randomdotsizeEA/L/3_Ratio_250_L_8_R_2.png","img/250/equaldotsize/R/6_Ratio_250_L_6_R_24.png","img/900/equaldotanddens/L/10_Ratio_900_L_20_R_18.png","img/500/equaldotsize/R/15_Ratio_500_L_1_R_2.png","img/750/equaldotanddens/R/2_Ratio_750_L_6_R_8.png","img/500/equaldotanddens/R/15_Ratio_500_L_1_R_2.png","img/750/randomdotsizeEA/L/8_Ratio_750_L_4_R_3.png","img/750/equaldotsize/L/9_Ratio_750_L_4_R_3.png","img/750/randomdotsizeEA/L/8_Ratio_750_L_4_R_3.png","img/500/randomdotsizeEA/L/4_Ratio_500_L_18_R_9.png","img/500/equaldotsize/L/7_Ratio_500_L_10_R_5.png","img/500/randomdotsizeEA/R/15_Ratio_500_L_1_R_2.png","img/500/equaldotanddens/L/13_Ratio_500_L_12_R_6.png","img/750/randomdotsizeEA/R/12_Ratio_750_L_3_R_4.png","img/250/randomdotsizeEA/L/3_Ratio_250_L_8_R_2.png","img/500/equaldotanddens/L/10_Ratio_500_L_4_R_2.png","img/250/equaldotanddens/L/15_Ratio_250_L_12_R_3.png","img/900/equaldotsize/R/11_Ratio_900_L_18_R_20.png","img/900/equaldotsize/R/3_Ratio_900_L_9_R_10.png","img/250/equaldotanddens/L/2_Ratio_250_L_16_R_4.png","img/250/randomdotsizeEA/L/3_Ratio_250_L_8_R_2.png","img/500/equaldotsize/R/15_Ratio_500_L_1_R_2.png","img/250/equaldotanddens/R/6_Ratio_250_L_6_R_24.png","img/250/equaldotanddens/R/4_Ratio_250_L_3_R_12.png","img/500/equaldotsize/R/6_Ratio_500_L_9_R_18.png","img/500/randomdotsizeEA/R/3_Ratio_500_L_10_R_20.png","img/500/equaldotanddens/L/4_Ratio_500_L_18_R_9.png","img/750/equaldotanddens/L/14_Ratio_750_L_8_R_6.png","img/250/randomdotsizeEA/L/5_Ratio_250_L_24_R_6.png","img/750/equaldotsize/L/8_Ratio_750_L_4_R_3.png","img/900/equaldotsize/R/7_Ratio_900_L_9_R_10.png","img/900/equaldotanddens/R/14_Ratio_900_L_18_R_20.png","img/750/equaldotanddens/L/9_Ratio_750_L_4_R_3.png","img/500/equaldotsize/R/3_Ratio_500_L_10_R_20.png","img/900/equaldotanddens/L/8_Ratio_900_L_20_R_18.png","img/500/randomdotsizeEA/R/1_Ratio_500_L_9_R_18.png","img/250/equaldotsize/R/4_Ratio_250_L_3_R_12.png","img/750/equaldotanddens/L/1_Ratio_750_L_20_R_15.png","img/250/equaldotanddens/L/7_Ratio_250_L_8_R_2.png","img/900/randomdotsizeEA/R/9_Ratio_900_L_18_R_20.png","img/900/equaldotsize/R/15_Ratio_900_L_9_R_10.png","img/250/randomdotsizeEA/L/5_Ratio_250_L_24_R_6.png","img/750/equaldotsize/R/11_Ratio_750_L_12_R_16.png","img/900/randomdotsizeEA/R/14_Ratio_900_L_18_R_20.png","img/250/equaldotsize/R/6_Ratio_250_L_6_R_24.png","img/500/equaldotsize/R/15_Ratio_500_L_1_R_2.png","img/250/equaldotanddens/R/11_Ratio_250_L_3_R_12.png","img/250/randomdotsizeEA/R/13_Ratio_250_L_2_R_8.png","img/750/equaldotanddens/R/3_Ratio_750_L_15_R_20.png","img/250/equaldotsize/R/9_Ratio_250_L_3_R_12.png","img/900/randomdotsizeEA/R/13_Ratio_900_L_18_R_20.png","img/900/equaldotsize/R/7_Ratio_900_L_9_R_10.png","img/500/equaldotsize/L/8_Ratio_500_L_8_R_4.png","img/250/equaldotsize/L/1_Ratio_250_L_8_R_2.png","img/900/equaldotsize/R/13_Ratio_900_L_18_R_20.png","img/250/equaldotsize/L/1_Ratio_250_L_8_R_2.png","img/750/equaldotanddens/R/4_Ratio_750_L_15_R_20.png","img/250/equaldotanddens/L/14_Ratio_250_L_12_R_3.png","img/500/randomdotsizeEA/L/4_Ratio_500_L_18_R_9.png","img/500/equaldotsize/R/14_Ratio_500_L_5_R_10.png","img/500/equaldotanddens/L/7_Ratio_500_L_10_R_5.png","img/900/equaldotsize/L/1_Ratio_900_L_10_R_9.png","img/500/randomdotsizeEA/L/5_Ratio_500_L_4_R_2.png","img/500/equaldotanddens/L/4_Ratio_500_L_18_R_9.png","img/750/randomdotsizeEA/R/15_Ratio_750_L_9_R_12.png","img/500/randomdotsizeEA/R/2_Ratio_500_L_3_R_6.png","img/250/randomdotsizeEA/L/14_Ratio_250_L_12_R_3.png","img/900/equaldotanddens/L/10_Ratio_900_L_20_R_18.png","img/750/randomdotsizeEA/R/2_Ratio_750_L_6_R_8.png","img/250/randomdotsizeEA/R/9_Ratio_250_L_3_R_12.png","img/750/randomdotsizeEA/L/8_Ratio_750_L_4_R_3.png","img/750/randomdotsizeEA/R/7_Ratio_750_L_3_R_4.png","img/250/equaldotanddens/R/8_Ratio_250_L_1_R_4.png","img/500/equaldotsize/R/2_Ratio_500_L_3_R_6.png","img/750/equaldotsize/L/6_Ratio_750_L_24_R_18.png","img/750/equaldotanddens/L/14_Ratio_750_L_8_R_6.png"],"Rat0":[["12_Ratio_0_L_9_R_0.png","13_Ratio_0_L_6_R_0.png","5_Ratio_0_L_2_R_0.png","6_Ratio_0_L_4_R_0.png","8_Ratio_0_L_6_R_0.png"],["1_Ratio_0_L_0_R_17.png","10_Ratio_0_L_0_R_22.png","11_Ratio_0_L_0_R_1.png","14_Ratio_0_L_0_R_24.png","15_Ratio_0_L_0_R_4.png","2_Ratio_0_L_0_R_5.png","3_Ratio_0_L_0_R_17.png","4_Ratio_0_L_0_R_7.png","7_Ratio_0_L_0_R_19.png","9_Ratio_0_L_0_R_15.png"]],"Rat250":[["1_Ratio_250_L_8_R_2.png","14_Ratio_250_L_12_R_3.png","15_Ratio_250_L_12_R_3.png","2_Ratio_250_L_16_R_4.png","3_Ratio_250_L_8_R_2.png","5_Ratio_250_L_24_R_6.png","7_Ratio_250_L_8_R_2.png"],["10_Ratio_250_L_4_R_16.png","11_Ratio_250_L_3_R_12.png","12_Ratio_250_L_5_R_20.png","13_Ratio_250_L_2_R_8.png","4_Ratio_250_L_3_R_12.png","6_Ratio_250_L_6_R_24.png","8_Ratio_250_L_1_R_4.png","9_Ratio_250_L_3_R_12.png"]],"Rat500":[["10_Ratio_500_L_4_R_2.png","11_Ratio_500_L_12_R_6.png","13_Ratio_500_L_12_R_6.png","4_Ratio_500_L_18_R_9.png","5_Ratio_500_L_4_R_2.png","7_Ratio_500_L_10_R_5.png","8_Ratio_500_L_8_R_4.png"],["1_Ratio_500_L_9_R_18.png","12_Ratio_500_L_1_R_2.png","14_Ratio_500_L_5_R_10.png","15_Ratio_500_L_1_R_2.png","2_Ratio_500_L_3_R_6.png","3_Ratio_500_L_10_R_20.png","6_Ratio_500_L_9_R_18.png","9_Ratio_500_L_2_R_4.png"]],"Rat750":[["1_Ratio_750_L_20_R_15.png","10_Ratio_750_L_4_R_3.png","13_Ratio_750_L_8_R_6.png","14_Ratio_750_L_8_R_6.png","6_Ratio_750_L_24_R_18.png","8_Ratio_750_L_4_R_3.png","9_Ratio_750_L_4_R_3.png"],["11_Ratio_750_L_12_R_16.png","12_Ratio_750_L_3_R_4.png","15_Ratio_750_L_9_R_12.png","2_Ratio_750_L_6_R_8.png","3_Ratio_750_L_15_R_20.png","4_Ratio_750_L_15_R_20.png","5_Ratio_750_L_15_R_20.png","7_Ratio_750_L_3_R_4.png"]],"Rat900":[["1_Ratio_900_L_10_R_9.png","10_Ratio_900_L_20_R_18.png","2_Ratio_900_L_20_R_18.png","4_Ratio_900_L_20_R_18.png","8_Ratio_900_L_20_R_18.png"],["11_Ratio_900_L_18_R_20.png","12_Ratio_900_L_18_R_20.png","13_Ratio_900_L_18_R_20.png","14_Ratio_900_L_18_R_20.png","15_Ratio_900_L_9_R_10.png","3_Ratio_900_L_9_R_10.png","5_Ratio_900_L_9_R_10.png","6_Ratio_900_L_9_R_10.png","7_Ratio_900_L_9_R_10.png","9_Ratio_900_L_18_R_20.png"]],"Rat1000":[["10_Ratio_1000_L_16_R_16.png","11_Ratio_1000_L_6_R_6.png","12_Ratio_1000_L_14_R_14.png","13_Ratio_1000_L_20_R_20.png","15_Ratio_1000_L_15_R_15.png","2_Ratio_1000_L_17_R_17.png","4_Ratio_1000_L_9_R_9.png","5_Ratio_1000_L_6_R_6.png","6_Ratio_1000_L_19_R_19.png","8_Ratio_1000_L_14_R_14.png","9_Ratio_1000_L_25_R_25.png"],["1_Ratio_1000_L_1_R_1.png","14_Ratio_1000_L_17_R_17.png","3_Ratio_1000_L_17_R_17.png","7_Ratio_1000_L_6_R_6.png"]]}},{"start_time":1551791052646,"click_time":1551791054448,"finger_time":1551791053827,"fix_duration":1053.4625872130598,"trial":1,"RT":1181,"MT":621,"sideResp":1,"stimulus":"img/750/equaldotsize/L/14_Ratio_750_L_8_R_6.png","xmouse":[783,783,783,783,783,783,783,783,783,783,783,783,783,783,783,783,783,783,783,783,783,783,783,783,783,783,783,783,783,783,783,783,783,783,783,783,783,783,783,783,783,783,783,783,788,790,790,790,790,790,790,790,790,790,790,790,791,777,755,736,713,697,695,695,695,694,693,672,618,530,432,351,284,286,296,315,322,329,329,330,331,333,342,353,368,385,392,400,404,411,429],"ymouse":[524,524,524,524,524,524,524,524,524,524,524,524,524,524,524,524,524,524,524,524,524,524,524,524,524,524,524,524,524,524,524,524,524,524,524,524,524,524,524,524,524,524,524,526,531,534,534,534,534,534,534,534,534,534,534,534,534,523,503,480,460,448,446,446,446,446,445,417,370,302,235,177,108,93,82,72,69,64,63,63,63,63,63,68,76,87,95,97,97,97,96],"timestamp_mouse":[13,23,43,62,81,101,122,141,162,182,202,221,242,262,281,301,321,342,363,381,401,421,442,461,481,502,522,542,561,581,601,622,641,662,681,702,721,741,762,781,801,821,842,862,882,901,921,942,961,982,1001,1022,1041,1062,1083,1102,1121,1142,1162,1181,1201,1221,1241,1262,1281,1301,1322,1342,1361,1381,1401,1421,1442,1461,1481,1502,1521,1542,1561,1581,1601,1622,1643,1660,1681,1701,1721,1743,1761,1781,1802],"xSR":741.5,"ySR":469.95,"xT1":424.9,"yT1":0,"xT2":1058.1,"yT2":0,"toosoon":0,"cond_shown":"equaldotsize","ratio_trial":750,"smaller_num":"6","larger_num":"8","correct_side":1,"subjID":"mariana-aguilera-pinzon","gender":"11","age":"No_age","school":"No_school"},{"start_time":1551791056163,"click_time":1551791059507,"finger_time":1551791057108,"fix_duration":393.0365024677128,"trial":2,"RT":945,"MT":2399,"sideResp":2,"stimulus":"img/750/equaldotanddens/R/2_Ratio_750_L_6_R_8.png","xmouse":[768,768,768,769,769,769,769,769,769,769,769,769,769,769,769,769,769,769,769,769,769,769,769,769,769,769,769,769,769,769,769,769,769,769,769,769,769,769,769,769,769,769,769,769,769,771,775,778,780,782,782,782,782,782,779,761,732,662,612,592,578,573,573,573,571,570,570,570,570,569,562,550,518,509,506,506,506,506,506,505,513,534,539,543,546,547,548,549,553,561,570,578,593,603,618,636,654,678,680,680,680,680,680,680,680,680,680,680,680,680,680,680,680,680,680,680,683,701,721,754,768,771,772,772,772,772,772,772,772,772,772,772,772,772,772,772,772,772,772,772,772,772,774,776,777,778,787,791,808,825,848,878,929,943,952,960,971,990,1009,1021,1031,1041,1052,1055,1057,1058,1058,1060],"ymouse":[523,523,523,523,523,523,523,523,523,523,523,523,523,523,523,523,523,523,523,523,523,523,523,523,523,523,523,523,523,523,523,523,523,523,523,523,523,523,523,523,523,523,523,523,523,514,482,457,437,418,415,414,414,412,408,385,351,280,238,224,213,208,208,208,207,207,206,206,206,205,200,189,168,161,158,158,158,158,158,159,170,196,207,217,226,231,235,240,249,261,271,279,299,313,335,356,374,392,394,394,394,394,394,394,394,394,394,394,394,394,394,394,394,394,394,394,394,394,393,382,377,374,372,372,372,372,372,372,372,372,372,372,372,372,372,372,372,372,372,372,372,372,368,357,348,338,308,294,269,254,239,223,196,189,183,178,170,152,133,117,97,80,61,57,55,52,52,50],"timestamp_mouse":[8,24,45,65,85,105,124,145,165,184,205,225,244,264,285,305,325,345,364,384,405,425,445,464,484,504,525,545,565,585,605,625,645,664,685,704,725,745,764,785,804,824,844,865,884,905,925,945,964,985,1004,1025,1044,1064,1084,1105,1124,1145,1165,1184,1204,1226,1244,1264,1285,1304,1325,1344,1365,1385,1404,1424,1444,1464,1484,1505,1525,1545,1564,1584,1605,1625,1644,1664,1685,1704,1724,1745,1765,1784,1804,1825,1844,1865,1885,1904,1924,1944,1964,1985,2004,2024,2044,2064,2084,2106,2125,2145,2165,2184,2204,2224,2244,2264,2284,2304,2325,2344,2364,2385,2404,2424,2444,2465,2485,2504,2526,2545,2564,2584,2604,2624,2644,2664,2685,2705,2725,2745,2764,2784,2804,2824,2844,2865,2884,2905,2926,2944,2964,2985,3004,3024,3044,3065,3084,3105,3125,3145,3165,3185,3205,3225,3244,3265,3284,3304,3325,3344],"xSR":741.5,"ySR":469.95,"xT1":424.9,"yT1":0,"xT2":1058.1,"yT2":0,"toosoon":0,"cond_shown":"equaldotanddens","ratio_trial":750,"smaller_num":"6","larger_num":"8","correct_side":2,"subjID":"mariana-aguilera-pinzon","gender":"11","age":"No_age","school":"No_school"},{"start_time":1551791062209,"click_time":1551791063467,"finger_time":1551791062907,"fix_duration":459.43149159813623,"trial":3,"RT":698,"MT":560,"sideResp":2,"stimulus":"img/250/equaldotanddens/R/4_Ratio_250_L_3_R_12.png","xmouse":[802,802,802,802,802,802,802,802,802,802,802,802,802,802,802,802,802,802,802,802,802,802,802,802,802,802,802,802,802,802,802,802,802,802,851,898,950,981,1009,1015,1021,1025,1030,1043,1052,1065,1073,1076,1084,1088,1092,1094,1097,1101,1104,1104,1104,1104,1102,1097,1091,1081,1074],"ymouse":[515,515,515,515,515,515,515,515,515,515,515,515,515,515,515,515,515,515,515,515,515,515,515,515,515,515,515,515,515,515,515,515,515,507,441,405,370,353,333,326,319,313,309,294,286,272,266,262,253,248,243,239,234,223,214,214,209,207,182,167,145,110,87],"timestamp_mouse":[18,38,59,79,98,118,139,158,178,199,218,239,260,278,299,319,339,358,379,398,418,438,458,478,498,518,538,559,579,598,618,638,658,678,698,718,738,758,779,798,818,839,858,880,898,918,939,958,979,998,1018,1038,1059,1079,1098,1118,1140,1158,1180,1198,1218,1238,1258],"xSR":741.5,"ySR":469.95,"xT1":424.9,"yT1":0,"xT2":1058.1,"yT2":0,"toosoon":0,"cond_shown":"equaldotanddens","ratio_trial":250,"smaller_num":"3","larger_num":"12","correct_side":2,"subjID":"mariana-aguilera-pinzon","gender":"11","age":"No_age","school":"No_school"},{"start_time":1551791064540,"click_time":1551791066489,"finger_time":1551791065707,"fix_duration":250,"trial":4,"RT":1167,"MT":782,"sideResp":1,"stimulus":"img/900/equaldotanddens/L/10_Ratio_900_L_20_R_18.png","xmouse":[770,770,770,770,770,770,770,770,770,770,770,770,770,770,770,770,770,770,770,770,770,770,770,770,770,770,770,770,770,770,770,770,770,770,770,770,770,770,770,770,770,770,770,770,770,770,770,770,770,770,770,770,770,770,770,769,767,756,746,737,724,718,701,693,686,682,676,671,665,656,649,639,599,580,563,555,554,553,553,553,553,552,551,551,550,549,549,549,549,549,549,549,547,544,537,528,520,499],"ymouse":[528,528,528,528,528,528,528,528,528,528,528,528,528,528,528,528,528,528,528,528,528,528,528,528,528,528,528,528,528,528,528,528,528,528,528,528,528,528,528,528,528,528,528,528,528,528,528,528,528,528,528,528,528,528,526,520,509,475,452,429,387,365,331,320,312,303,294,287,280,270,261,249,220,209,201,195,194,192,187,182,177,176,171,169,167,162,161,160,160,160,160,160,159,151,141,131,121,93],"timestamp_mouse":[8,38,48,67,88,108,127,147,168,187,207,227,248,267,287,308,327,347,368,388,408,428,449,468,487,508,527,547,568,588,607,627,647,668,688,708,727,748,767,788,807,827,848,868,888,909,927,948,968,988,1008,1027,1048,1067,1087,1108,1127,1148,1167,1187,1207,1227,1248,1267,1288,1307,1328,1348,1368,1387,1407,1427,1448,1467,1488,1507,1527,1548,1568,1587,1607,1627,1648,1667,1688,1707,1727,1748,1768,1787,1808,1827,1848,1867,1888,1907,1927,1949],"xSR":741.5,"ySR":469.95,"xT1":424.9,"yT1":0,"xT2":1058.1,"yT2":0,"toosoon":0,"cond_shown":"equaldotanddens","ratio_trial":900,"smaller_num":"18","larger_num":"20","correct_side":1,"subjID":"mariana-aguilera-pinzon","gender":"11","age":"No_age","school":"No_school"},{"start_time":1551791070184,"click_time":1551791072568,"finger_time":1551791072328,"fix_duration":935.0055704322391,"trial":5,"RT":2144,"MT":240,"sideResp":2,"stimulus":"img/900/randomdotsizeEA/R/11_Ratio_900_L_18_R_20.png","xmouse":[790,790,790,790,790,790,790,790,790,790,790,790,790,790,790,790,790,790,790,790,790,790,790,790,790,790,790,790,790,790,790,790,790,790,790,790,790,790,790,790,790,790,790,790,790,790,790,790,790,790,790,790,790,790,790,790,790,790,790,790,790,790,790,790,790,790,790,790,790,790,790,790,790,790,790,790,790,790,790,790,790,790,790,790,790,790,790,790,790,790,790,790,790,790,790,790,790,790,790,790,790,790,790,790,790,790,790,794,796,798,799,799,800,803,804,817,886,974,1029,1078],"ymouse":[473,473,473,473,473,473,473,473,473,473,473,473,473,473,473,473,473,473,473,473,473,473,473,473,473,473,473,473,473,473,473,473,473,473,473,473,473,473,473,473,473,473,473,473,473,473,473,473,473,473,473,473,473,473,473,473,473,473,473,473,473,473,473,473,473,473,473,473,473,473,473,473,473,473,473,473,473,473,473,473,473,473,473,473,473,473,473,473,473,473,473,473,473,473,473,473,473,473,473,473,473,473,473,473,473,473,473,469,462,460,459,458,458,455,444,420,293,170,96,33],"timestamp_mouse":[8,23,44,63,83,103,124,143,164,183,204,223,244,263,284,303,323,343,364,383,403,423,443,464,484,504,524,544,563,584,604,624,643,664,683,704,723,743,763,783,803,824,843,863,884,903,924,944,963,984,1003,1024,1044,1063,1083,1103,1124,1143,1163,1183,1204,1223,1244,1263,1283,1304,1324,1343,1363,1384,1404,1424,1443,1464,1483,1503,1524,1544,1563,1583,1604,1624,1643,1663,1684,1704,1723,1744,1763,1784,1804,1824,1844,1863,1883,1903,1924,1944,1964,1984,2003,2024,2044,2063,2083,2104,2124,2144,2163,2183,2204,2223,2243,2263,2284,2304,2323,2343,2363,2384],"xSR":741.5,"ySR":469.95,"xT1":424.9,"yT1":0,"xT2":1058.1,"yT2":0,"toosoon":0,"cond_shown":"randomdotsizeEA","ratio_trial":900,"smaller_num":"18","larger_num":"20","correct_side":2,"subjID":"mariana-aguilera-pinzon","gender":"11","age":"No_age","school":"No_school"},{"start_time":1551791074553,"click_time":1551791075868,"finger_time":1551791075488,"fix_duration":884.8031075103885,"trial":6,"RT":935,"MT":380,"sideResp":1,"stimulus":"img/500/equaldotanddens/L/7_Ratio_500_L_10_R_5.png","xmouse":[811,811,811,811,811,811,811,811,811,811,811,811,811,811,811,811,811,811,811,811,811,811,811,811,811,811,811,811,811,811,811,811,811,811,811,811,811,811,811,811,811,811,811,810,810,809,795,760,747,718,703,675,665,653,639,625,585,561,542,535,534,534,528,515,499,484],"ymouse":[520,520,520,520,520,520,520,520,520,520,520,520,520,520,520,520,520,520,520,520,520,520,520,520,520,520,520,520,520,520,520,520,520,520,520,520,520,520,520,520,520,520,520,520,513,497,459,384,360,321,306,271,255,238,220,202,162,146,132,127,126,126,121,113,101,92],"timestamp_mouse":[14,38,54,75,94,114,135,154,174,194,214,234,255,274,294,315,334,354,374,394,414,434,456,475,494,515,535,554,574,594,615,635,655,674,694,714,735,755,775,795,815,834,855,874,894,915,935,954,974,994,1014,1035,1054,1074,1095,1114,1136,1154,1175,1194,1215,1235,1254,1274,1294,1315],"xSR":741.5,"ySR":469.95,"xT1":424.9,"yT1":0,"xT2":1058.1,"yT2":0,"toosoon":0,"cond_shown":"equaldotanddens","ratio_trial":500,"smaller_num":"5","larger_num":"10","correct_side":1,"subjID":"mariana-aguilera-pinzon","gender":"11","age":"No_age","school":"No_school"},{"start_time":1551791078030,"click_time":1551791080389,"finger_time":1551791080227,"fix_duration":1400.7502027882472,"trial":7,"RT":2197,"MT":162,"sideResp":1,"stimulus":"img/900/randomdotsizeEA/R/13_Ratio_900_L_18_R_20.png","xmouse":[816,816,816,816,816,816,816,816,816,816,816,816,816,816,816,816,816,816,816,816,816,816,816,816,816,816,816,816,816,816,816,816,816,816,816,816,816,816,816,816,816,816,816,816,816,816,816,816,816,816,816,816,816,816,816,816,816,816,816,816,816,816,816,816,816,816,816,816,816,816,816,816,816,816,816,816,816,816,816,816,816,816,816,816,816,816,816,816,816,816,816,816,816,816,816,816,816,816,816,816,816,816,816,816,816,816,816,816,795,752,695,652,583,560,531,515,501,470],"ymouse":[514,514,514,514,514,514,514,514,514,514,514,514,514,514,514,514,514,514,514,514,514,514,514,514,514,514,514,514,514,514,514,514,514,514,514,514,514,514,514,514,514,514,514,514,514,514,514,514,514,514,514,514,514,514,514,514,514,514,514,514,514,514,514,514,514,514,514,514,514,514,514,514,514,514,514,514,514,514,514,514,514,514,514,514,514,514,514,514,514,514,514,514,514,514,514,514,514,514,514,514,514,514,514,514,514,514,514,514,477,414,330,265,167,145,126,115,104,84],"timestamp_mouse":[17,37,57,77,98,118,137,158,177,197,217,238,258,278,298,318,337,357,378,398,417,437,457,478,497,517,537,558,578,597,618,638,657,678,697,717,737,758,777,797,818,838,857,878,898,918,938,957,977,997,1018,1037,1057,1078,1097,1117,1137,1157,1177,1197,1217,1237,1258,1278,1297,1318,1338,1358,1378,1398,1417,1438,1457,1477,1498,1518,1538,1557,1578,1597,1617,1638,1657,1677,1698,1718,1737,1757,1778,1798,1817,1837,1857,1878,1898,1919,1938,1958,1977,1998,2018,2038,2058,2077,2097,2118,2137,2157,2177,2197,2218,2238,2259,2277,2297,2317,2337,2359],"xSR":741.5,"ySR":469.95,"xT1":424.9,"yT1":0,"xT2":1058.1,"yT2":0,"toosoon":0,"cond_shown":"randomdotsizeEA","ratio_trial":900,"smaller_num":"18","larger_num":"20","correct_side":2,"subjID":"mariana-aguilera-pinzon","gender":"11","age":"No_age","school":"No_school"},{"start_time":1551791086212,"click_time":1551791087567,"finger_time":1551791087208,"fix_duration":844.3276931408454,"trial":8,"RT":996,"MT":359,"sideResp":1,"stimulus":"img/250/equaldotanddens/L/3_Ratio_250_L_8_R_2.png","xmouse":[786,786,786,786,786,786,786,786,786,786,786,786,786,786,786,786,786,786,786,786,786,786,786,786,786,786,786,786,786,786,786,786,786,786,786,786,786,786,786,786,786,786,786,786,786,786,786,784,774,635,544,466,409,342,331,327,325,324,323,323,323,323,323,326,332,340,397,460],"ymouse":[536,536,536,536,536,536,536,536,536,536,536,536,536,536,536,536,536,536,536,536,536,536,536,536,536,536,536,536,536,536,536,536,536,536,536,536,536,536,536,536,536,536,536,536,536,536,536,533,526,423,354,286,235,173,160,150,145,140,135,135,134,133,131,128,125,123,107,88],"timestamp_mouse":[15,41,55,76,96,115,135,155,176,196,216,236,256,275,296,315,335,356,375,395,415,436,455,475,495,515,535,556,576,595,615,635,655,677,696,716,735,755,776,795,816,836,857,875,896,916,935,955,976,996,1016,1036,1055,1076,1095,1116,1135,1156,1176,1195,1215,1236,1255,1276,1296,1316,1335,1355],"xSR":741.5,"ySR":469.95,"xT1":424.9,"yT1":0,"xT2":1058.1,"yT2":0,"toosoon":0,"cond_shown":"equaldotanddens","ratio_trial":250,"smaller_num":"2","larger_num":"8","correct_side":1,"subjID":"mariana-aguilera-pinzon","gender":"11","age":"No_age","school":"No_school"},{"start_time":1551791089957,"click_time":1551791092108,"finger_time":1551791091927,"fix_duration":1107.7700059746364,"trial":9,"RT":1970,"MT":181,"sideResp":1,"stimulus":"img/500/randomdotsizeEA/R/3_Ratio_500_L_10_R_20.png","xmouse":[792,792,792,792,792,792,792,792,792,792,792,792,792,792,792,792,792,792,792,792,792,792,792,792,792,792,792,792,792,792,792,792,792,792,792,792,792,792,792,792,792,792,792,792,792,792,792,792,792,792,792,792,792,792,792,792,792,792,792,792,792,792,792,792,792,792,792,792,792,792,792,792,792,792,792,792,792,792,792,792,792,792,792,792,792,792,792,792,792,792,792,792,792,792,792,792,792,792,789,774,740,610,553,512,494,488,488,487],"ymouse":[490,490,490,490,490,490,490,490,490,490,490,490,490,490,490,490,490,490,490,490,490,490,490,490,490,490,490,490,490,490,490,490,490,490,490,490,490,490,490,490,490,490,490,490,490,490,490,490,490,490,490,490,490,490,490,490,490,490,490,490,490,490,490,490,490,490,490,490,490,490,490,490,490,490,490,490,490,490,490,490,490,490,490,490,490,490,490,490,490,490,490,490,490,490,490,490,490,477,453,425,378,235,183,142,117,107,102,99],"timestamp_mouse":[10,42,50,71,90,110,131,151,170,190,210,230,250,270,290,310,331,350,370,391,411,431,450,470,491,511,531,550,570,590,611,630,650,670,691,710,730,751,770,792,810,831,851,870,890,911,930,950,971,990,1010,1030,1050,1070,1090,1110,1130,1150,1170,1190,1210,1230,1250,1270,1290,1310,1330,1350,1371,1390,1410,1431,1450,1470,1490,1511,1530,1551,1570,1590,1611,1630,1651,1671,1691,1711,1730,1750,1770,1791,1810,1830,1850,1871,1891,1911,1930,1950,1970,1990,2011,2032,2050,2071,2091,2111,2130,2150],"xSR":741.5,"ySR":469.95,"xT1":424.9,"yT1":0,"xT2":1058.1,"yT2":0,"toosoon":0,"cond_shown":"randomdotsizeEA","ratio_trial":500,"smaller_num":"10","larger_num":"20","correct_side":2,"subjID":"mariana-aguilera-pinzon","gender":"11","age":"No_age","school":"No_school"},{"start_time":1551791094136,"click_time":1551791097668,"finger_time":1551791094227,"fix_duration":1046.6315073738729,"trial":10,"RT":91,"MT":3441,"sideResp":2,"stimulus":"img/500/equaldotsize/L/8_Ratio_500_L_8_R_4.png","xmouse":[831,822,801,742,722,715,715,715,715,715,715,715,715,715,715,715,715,715,715,715,715,714,714,715,719,726,737,747,768,774,774,774,774,774,774,774,775,776,779,780,780,780,780,780,780,780,780,780,780,780,780,780,780,780,780,780,780,780,780,780,780,780,780,780,780,780,780,780,780,780,780,780,780,780,780,780,780,780,780,780,780,780,780,780,780,780,780,780,780,780,780,780,780,780,780,780,780,780,780,780,780,780,780,780,780,780,780,780,780,780,780,780,780,780,780,780,780,780,780,780,780,780,780,780,780,780,780,780,780,780,780,780,780,780,780,780,780,780,780,780,780,780,780,780,780,780,780,780,780,780,780,780,780,780,780,780,780,781,791,809,829,842,855,882,894,898,899,899,899,899,899,899,903,964,1024,1079,1130],"ymouse":[534,532,529,519,516,515,515,515,515,515,515,515,515,515,515,515,515,515,515,515,515,515,515,515,515,516,519,522,526,528,528,528,528,528,528,528,528,528,528,527,527,527,527,527,527,527,527,527,527,527,527,527,527,527,527,527,527,527,527,527,527,527,527,527,527,527,527,527,527,527,527,527,527,527,527,527,527,527,527,527,527,527,527,527,527,527,527,527,527,527,527,527,527,527,527,527,527,527,527,527,527,527,527,527,527,527,527,527,527,527,527,527,527,527,527,527,527,527,527,527,527,527,527,527,527,527,527,527,527,527,527,527,527,527,527,527,527,527,527,527,527,527,527,527,527,527,527,527,527,527,527,527,527,527,527,527,527,525,512,488,460,445,433,402,395,393,393,393,393,393,393,393,390,340,263,169,29],"timestamp_mouse":[11,31,52,71,91,111,131,152,171,191,211,231,251,271,291,311,332,351,372,392,412,431,451,471,491,511,531,551,572,591,611,631,652,672,692,711,731,752,771,792,812,831,852,872,891,911,932,952,972,991,1011,1031,1051,1072,1092,1111,1131,1151,1173,1191,1211,1231,1251,1271,1291,1311,1331,1352,1371,1392,1412,1431,1451,1473,1492,1511,1531,1551,1572,1592,1611,1632,1652,1672,1691,1711,1731,1751,1771,1791,1811,1831,1852,1873,1891,1911,1931,1952,1971,1992,2011,2031,2052,2071,2092,2111,2131,2152,2172,2191,2212,2231,2251,2271,2293,2312,2332,2352,2372,2392,2411,2432,2452,2472,2491,2511,2531,2552,2572,2592,2611,2632,2652,2673,2693,2713,2731,2751,2772,2793,2811,2832,2852,2873,2892,2911,2932,2952,2971,2992,3012,3032,3053,3071,3093,3111,3132,3153,3171,3192,3212,3232,3251,3271,3292,3313,3331,3351,3371,3391,3411,3433,3452,3473,3491,3511,3531],"xSR":741.5,"ySR":469.95,"xT1":424.9,"yT1":0,"xT2":1058.1,"yT2":0,"toosoon":0,"cond_shown":"equaldotsize","ratio_trial":500,"smaller_num":"4","larger_num":"8","correct_side":1,"subjID":"mariana-aguilera-pinzon","gender":"11","age":"No_age","school":"No_school"},{"start_time":1551791100560,"click_time":1551791102528,"finger_time":1551791102147,"fix_duration":250,"trial":11,"RT":1587,"MT":381,"sideResp":1,"stimulus":"img/750/randomdotsizeEA/L/13_Ratio_750_L_8_R_6.png","xmouse":[791,791,791,791,791,791,791,791,791,791,791,791,791,791,791,791,791,791,791,791,791,791,791,791,791,791,791,791,791,791,791,791,791,791,791,791,791,791,791,791,791,791,791,791,791,791,791,791,791,791,791,791,791,791,791,791,791,791,791,791,791,791,791,791,791,791,792,790,785,781,779,777,777,777,777,777,777,776,776,775,771,760,753,742,728,715,702,680,663,635,619,609,601,600,600,594,579,533,514],"ymouse":[516,516,516,516,516,516,516,516,516,516,516,516,516,516,516,516,516,516,516,516,516,516,516,516,516,516,516,516,516,516,516,516,516,516,516,516,516,516,516,516,516,516,516,516,516,516,516,516,516,516,516,516,516,516,516,516,516,516,516,516,516,516,516,516,516,516,516,500,487,480,476,473,473,473,473,472,472,471,470,465,450,377,333,294,264,240,218,190,171,149,139,134,130,130,129,129,123,108,99],"timestamp_mouse":[8,33,47,67,89,108,127,147,167,189,207,227,247,268,289,307,328,348,367,387,408,427,448,467,487,508,528,548,568,587,607,629,649,667,689,707,729,749,768,787,807,827,848,868,888,907,929,948,969,987,1008,1028,1048,1068,1089,1107,1129,1147,1167,1188,1207,1227,1247,1268,1287,1308,1329,1347,1368,1388,1407,1429,1447,1467,1487,1507,1528,1548,1567,1587,1607,1628,1647,1668,1688,1707,1727,1747,1768,1787,1808,1828,1847,1867,1888,1908,1928,1948,1968],"xSR":741.5,"ySR":469.95,"xT1":424.9,"yT1":0,"xT2":1058.1,"yT2":0,"toosoon":0,"cond_shown":"randomdotsizeEA","ratio_trial":750,"smaller_num":"6","larger_num":"8","correct_side":1,"subjID":"mariana-aguilera-pinzon","gender":"11","age":"No_age","school":"No_school"},{"start_time":1551791108988,"click_time":1551791112507,"finger_time":1551791111607,"fix_duration":398.2151286151028,"trial":12,"RT":2619,"MT":900,"sideResp":1,"stimulus":"img/750/randomdotsizeEA/L/13_Ratio_750_L_8_R_6.png","xmouse":[799,799,799,799,799,799,799,799,799,799,799,799,799,799,799,799,799,799,799,799,799,799,799,799,799,799,799,799,799,799,799,799,799,799,799,799,799,799,799,799,799,799,799,799,799,799,799,799,799,799,799,799,799,799,799,799,799,799,799,799,799,799,799,799,799,799,799,799,799,799,799,799,799,799,799,799,799,799,799,799,799,799,799,799,799,799,799,799,799,799,799,799,799,799,799,799,799,799,799,799,799,799,799,799,799,799,799,799,799,799,799,799,799,799,799,799,799,799,799,799,799,799,799,799,799,799,799,799,797,792,784,777,775,773,772,769,769,767,766,765,763,763,763,763,763,763,763,762,756,746,733,732,732,732,733,732,727,721,718,715,711,679,652,652,652,652,652,652,652,652,652,652,652,652,652,652,486],"ymouse":[522,522,522,522,522,522,522,522,522,522,522,522,522,522,522,522,522,522,522,522,522,522,522,522,522,522,522,522,522,522,522,522,522,522,522,522,522,522,522,522,522,522,522,522,522,522,522,522,522,522,522,522,522,522,522,522,522,522,522,522,522,522,522,522,522,522,522,522,522,522,522,522,522,522,522,522,522,522,522,522,522,522,522,522,522,522,522,522,522,522,522,522,522,522,522,522,522,522,522,522,522,522,522,522,522,522,522,522,522,522,522,522,522,522,522,522,522,522,522,522,522,522,522,522,522,522,522,522,522,510,494,456,441,430,421,403,398,393,387,384,369,361,353,343,336,323,306,275,256,230,210,205,204,204,202,201,201,202,204,204,200,103,9,9,9,9,9,9,9,9,9,9,9,9,9,9,6],"timestamp_mouse":[8,21,39,59,80,99,121,140,161,179,200,221,239,260,280,300,319,339,361,380,399,419,441,459,480,500,520,541,561,579,600,620,641,660,680,700,720,741,760,780,800,819,840,860,881,900,919,941,961,979,1001,1019,1040,1061,1079,1099,1121,1140,1160,1179,1200,1221,1240,1259,1280,1301,1319,1341,1359,1380,1399,1421,1439,1459,1481,1499,1520,1539,1560,1579,1600,1619,1639,1659,1680,1699,1720,1739,1759,1781,1800,1819,1840,1860,1881,1899,1919,1940,1960,1980,2000,2020,2040,2059,2079,2099,2120,2140,2160,2179,2199,2221,2239,2259,2280,2299,2321,2340,2360,2379,2400,2420,2440,2459,2479,2499,2520,2539,2560,2579,2599,2619,2639,2660,2680,2701,2719,2740,2759,2779,2801,2820,2840,2859,2879,2900,2919,2939,2959,2979,3001,3020,3039,3060,3080,3101,3119,3140,3160,3180,3200,3219,3240,3261,3280,3301,3320,3340,3361,3380,3400,3421,3440,3459,3479,3500,3519],"xSR":741.5,"ySR":469.95,"xT1":424.9,"yT1":0,"xT2":1058.1,"yT2":0,"toosoon":0,"cond_shown":"randomdotsizeEA","ratio_trial":750,"smaller_num":"6","larger_num":"8","correct_side":1,"subjID":"mariana-aguilera-pinzon","gender":"11","age":"No_age","school":"No_school"},{"start_time":1551791114051,"click_time":1551791115928,"finger_time":1551791115269,"fix_duration":361.59384657437045,"trial":13,"RT":1218,"MT":659,"sideResp":1,"stimulus":"img/750/equaldotanddens/L/1_Ratio_750_L_20_R_15.png","xmouse":[783,783,783,783,783,783,783,783,783,783,783,783,783,783,783,783,783,783,783,783,783,783,783,783,783,783,783,783,783,783,783,783,783,783,783,783,783,783,783,783,783,783,783,783,783,783,783,783,783,783,783,783,783,783,783,783,783,785,791,793,793,791,780,770,759,746,726,721,719,717,714,710,674,639,621,610,601,577,562,540,519,503,479,472,468,468,465,464,463,462,462,462,468,470],"ymouse":[494,494,494,494,494,494,494,494,494,494,494,494,494,494,494,494,494,494,494,494,494,494,494,494,494,494,494,494,494,494,494,494,494,494,494,494,494,494,494,494,494,494,494,494,494,494,494,494,494,494,494,494,494,494,494,494,494,494,481,471,464,450,427,413,399,385,367,364,362,361,359,354,334,318,310,301,292,260,239,219,206,196,180,173,164,160,153,151,149,146,142,123,102,96],"timestamp_mouse":[17,47,58,77,97,116,136,157,177,196,216,238,256,276,298,318,337,357,377,396,416,437,456,478,496,516,536,556,577,597,618,636,657,678,698,717,736,756,776,797,817,837,856,877,898,916,936,957,977,998,1016,1037,1057,1077,1096,1117,1138,1157,1176,1197,1218,1236,1256,1276,1297,1318,1338,1356,1376,1396,1416,1436,1457,1476,1496,1517,1536,1556,1576,1597,1617,1636,1656,1677,1696,1716,1738,1757,1777,1796,1817,1838,1857,1877],"xSR":741.5,"ySR":469.95,"xT1":424.9,"yT1":0,"xT2":1058.1,"yT2":0,"toosoon":0,"cond_shown":"equaldotanddens","ratio_trial":750,"smaller_num":"15","larger_num":"20","correct_side":1,"subjID":"mariana-aguilera-pinzon","gender":"11","age":"No_age","school":"No_school"},{"start_time":1551791117794,"click_time":1551791118907,"finger_time":1551791118567,"fix_duration":704.2665526582388,"trial":14,"RT":773,"MT":340,"sideResp":1,"stimulus":"img/250/equaldotsize/L/2_Ratio_250_L_16_R_4.png","xmouse":[822,822,822,822,822,822,822,822,822,822,822,822,822,822,822,822,822,822,822,822,822,822,822,822,822,822,822,822,822,822,822,822,822,822,822,822,822,812,790,714,651,584,533,501,480,472,466,464,463,461,460,456,452,449,448,448],"ymouse":[494,494,494,494,494,494,494,494,494,494,494,494,494,494,494,494,494,494,494,494,494,494,494,494,494,494,494,494,494,494,494,494,494,494,494,494,494,481,462,400,345,287,245,217,192,178,171,167,162,154,147,138,125,115,108,97],"timestamp_mouse":[13,38,54,74,94,114,135,153,174,194,214,234,254,274,294,313,333,354,375,394,414,435,454,474,493,514,534,555,575,594,615,633,655,674,693,714,733,754,773,795,814,833,855,874,895,914,934,953,973,994,1013,1034,1054,1073,1093,1113],"xSR":741.5,"ySR":469.95,"xT1":424.9,"yT1":0,"xT2":1058.1,"yT2":0,"toosoon":0,"cond_shown":"equaldotsize","ratio_trial":250,"smaller_num":"4","larger_num":"16","correct_side":1,"subjID":"mariana-aguilera-pinzon","gender":"11","age":"No_age","school":"No_school"},{"start_time":1551791120954,"click_time":1551791122607,"finger_time":1551791122188,"fix_duration":1223.309144321433,"trial":15,"RT":1234,"MT":419,"sideResp":2,"stimulus":"img/250/randomdotsizeEA/R/10_Ratio_250_L_4_R_16.png","xmouse":[801,801,801,801,801,801,801,801,801,801,801,801,801,801,801,801,801,801,801,801,801,801,801,801,801,801,801,801,801,801,801,801,801,801,801,801,801,801,801,801,801,801,801,801,801,801,801,801,801,801,801,801,801,801,801,801,801,801,801,801,803,864,891,904,906,906,906,907,919,923,923,923,923,923,923,923,923,923,923,923,923,923,1077],"ymouse":[488,488,488,488,488,488,488,488,488,488,488,488,488,488,488,488,488,488,488,488,488,488,488,488,488,488,488,488,488,488,488,488,488,488,488,488,488,488,488,488,488,488,488,488,488,488,488,488,488,488,488,488,488,488,488,488,488,488,488,488,485,338,233,151,91,63,44,26,6,0,0,0,0,0,0,0,0,0,0,0,0,0,3],"timestamp_mouse":[15,50,55,74,93,115,134,153,175,193,213,234,255,273,294,313,334,353,373,393,414,433,454,474,494,513,534,553,575,593,615,633,655,673,694,713,733,754,773,793,814,833,853,873,895,913,933,954,973,994,1014,1034,1054,1074,1093,1113,1135,1153,1173,1193,1213,1234,1253,1273,1294,1313,1335,1354,1374,1394,1413,1434,1454,1474,1494,1514,1535,1554,1574,1594,1614,1633,1653],"xSR":741.5,"ySR":469.95,"xT1":424.9,"yT1":0,"xT2":1058.1,"yT2":0,"toosoon":0,"cond_shown":"randomdotsizeEA","ratio_trial":250,"smaller_num":"4","larger_num":"16","correct_side":2,"subjID":"mariana-aguilera-pinzon","gender":"11","age":"No_age","school":"No_school"},{"start_time":1551791124060,"click_time":1551791126289,"finger_time":1551791126067,"fix_duration":250,"trial":16,"RT":2007,"MT":222,"sideResp":1,"stimulus":"img/900/randomdotsizeEA/L/10_Ratio_900_L_20_R_18.png","xmouse":[750,750,750,750,750,750,750,750,750,750,750,750,750,750,750,750,750,750,750,750,750,750,750,750,750,750,750,750,750,750,750,750,750,750,750,750,750,750,750,750,750,750,750,750,750,750,750,750,750,750,750,750,750,750,750,750,750,750,750,750,750,750,750,750,750,750,750,750,750,750,750,750,750,750,750,750,750,750,750,750,750,750,750,750,750,750,750,750,750,750,750,750,750,750,750,750,750,750,750,750,746,737,660,598,575,562,547,542,532,525,521,514],"ymouse":[489,489,489,489,489,489,489,489,489,489,489,489,489,489,489,489,489,489,489,489,489,489,489,489,489,489,489,489,489,489,489,489,489,489,489,489,489,489,489,489,489,489,489,489,489,489,489,489,489,489,489,489,489,489,489,489,489,489,489,489,489,489,489,489,489,489,489,489,489,489,489,489,489,489,489,489,489,489,489,489,489,489,489,489,489,489,489,489,489,489,489,489,489,489,489,489,489,489,489,489,445,399,219,151,135,126,117,114,109,105,103,99],"timestamp_mouse":[8,27,59,68,88,108,128,149,168,187,208,228,248,267,287,307,327,347,368,389,409,428,447,468,487,509,527,548,567,587,607,629,648,667,687,708,729,747,767,789,807,828,849,869,888,908,928,949,969,988,1007,1027,1049,1068,1088,1107,1129,1147,1168,1188,1209,1227,1247,1267,1288,1308,1327,1348,1367,1387,1407,1427,1448,1469,1487,1508,1529,1547,1568,1587,1607,1627,1647,1667,1688,1708,1727,1747,1768,1788,1809,1829,1847,1867,1888,1908,1927,1948,1967,1988,2007,2027,2047,2068,2088,2108,2129,2147,2167,2188,2207,2229],"xSR":741.5,"ySR":469.95,"xT1":424.9,"yT1":0,"xT2":1058.1,"yT2":0,"toosoon":0,"cond_shown":"randomdotsizeEA","ratio_trial":900,"smaller_num":"18","larger_num":"20","correct_side":1,"subjID":"mariana-aguilera-pinzon","gender":"11","age":"No_age","school":"No_school"},{"start_time":1551791128247,"click_time":1551791131089,"finger_time":1551791129828,"fix_duration":1059.3141224149108,"trial":17,"RT":1581,"MT":1261,"sideResp":1,"stimulus":"img/750/randomdotsizeEA/L/14_Ratio_750_L_8_R_6.png","xmouse":[795,795,795,795,795,795,795,795,795,795,795,795,795,795,795,795,795,795,795,795,795,795,795,795,795,795,795,795,795,795,795,795,795,795,795,795,795,795,795,795,795,795,795,795,795,795,795,795,795,795,795,795,795,795,795,795,795,795,795,795,795,795,795,795,795,795,795,795,795,795,795,795,795,795,795,795,795,796,796,796,789,782,767,764,762,762,762,762,762,762,762,762,762,762,762,762,762,762,762,762,762,762,762,762,762,762,762,762,762,762,762,762,762,762,762,762,762,762,762,760,757,751,739,734,729,725,721,714,689,673,655,641,624,619,618,616,613,604,577,563,550,539,523],"ymouse":[513,513,513,513,513,513,513,513,513,513,513,513,513,513,513,513,513,513,513,513,513,513,513,513,513,513,513,513,513,513,513,513,513,513,513,513,513,513,513,513,513,513,513,513,513,513,513,513,513,513,513,513,513,513,513,513,513,513,513,513,513,513,513,513,513,513,513,513,513,513,513,513,513,513,513,513,513,512,476,453,430,406,375,369,367,367,367,367,367,367,367,367,367,367,367,367,367,367,367,367,367,367,367,367,367,367,367,367,367,367,367,367,367,367,367,367,367,367,367,363,353,343,324,319,313,309,305,297,271,259,247,236,223,219,219,217,213,201,169,153,134,115,77],"timestamp_mouse":[9,20,40,61,81,100,120,142,160,180,200,220,240,260,280,300,321,340,360,382,400,421,441,461,481,501,520,541,561,580,600,621,640,662,680,702,721,741,760,780,801,821,840,861,880,902,921,942,962,980,1000,1021,1041,1062,1081,1101,1120,1141,1160,1180,1201,1221,1241,1262,1281,1300,1322,1340,1361,1381,1400,1421,1440,1462,1481,1500,1522,1540,1561,1581,1601,1620,1641,1660,1680,1700,1721,1742,1760,1781,1801,1820,1842,1860,1880,1900,1920,1941,1961,1981,2000,2020,2040,2060,2081,2100,2120,2141,2162,2180,2200,2221,2242,2260,2282,2300,2320,2342,2361,2380,2400,2421,2442,2460,2481,2501,2520,2540,2560,2581,2600,2620,2641,2660,2680,2701,2720,2741,2762,2782,2801,2820,2841],"xSR":741.5,"ySR":469.95,"xT1":424.9,"yT1":0,"xT2":1058.1,"yT2":0,"toosoon":0,"cond_shown":"randomdotsizeEA","ratio_trial":750,"smaller_num":"6","larger_num":"8","correct_side":1,"subjID":"mariana-aguilera-pinzon","gender":"11","age":"No_age","school":"No_school"},{"start_time":1551791133579,"click_time":1551791135227,"finger_time":1551791134488,"fix_duration":250.09050017888202,"trial":18,"RT":909,"MT":739,"sideResp":1,"stimulus":"img/900/randomdotsizeEA/R/12_Ratio_900_L_18_R_20.png","xmouse":[798,798,798,798,798,798,798,798,798,798,798,798,798,798,798,798,798,798,798,798,798,798,798,798,798,798,798,798,798,798,798,798,798,798,798,798,798,798,798,798,798,798,790,782,758,685,642,598,586,581,580,574,565,555,537,537,531,531,533,538,542,542,541,540,540,540,540,537,533,529,528,528,528,528,528,528,528,528,528,528,528,528,523],"ymouse":[519,519,519,519,519,519,519,519,519,519,519,519,519,519,519,519,519,519,519,519,519,519,519,519,519,519,519,519,519,519,519,519,519,519,519,519,519,519,519,519,519,520,516,508,491,444,418,389,378,374,373,351,326,301,259,259,238,232,221,204,176,169,161,157,152,145,128,115,108,104,102,102,102,102,102,102,102,102,102,102,102,102,97],"timestamp_mouse":[8,41,50,68,88,108,130,150,168,189,209,230,249,268,289,308,328,348,370,388,410,428,449,468,489,508,529,549,568,588,610,629,648,668,689,708,728,750,768,789,808,828,848,868,890,909,928,949,970,989,1010,1029,1049,1093,1095,1108,1129,1148,1169,1189,1209,1228,1250,1269,1289,1308,1328,1349,1369,1388,1409,1430,1449,1468,1488,1508,1528,1548,1568,1588,1609,1628,1648],"xSR":741.5,"ySR":469.95,"xT1":424.9,"yT1":0,"xT2":1058.1,"yT2":0,"toosoon":0,"cond_shown":"randomdotsizeEA","ratio_trial":900,"smaller_num":"18","larger_num":"20","correct_side":2,"subjID":"mariana-aguilera-pinzon","gender":"11","age":"No_age","school":"No_school"},{"start_time":1551791140216,"click_time":1551791141628,"finger_time":1551791141109,"fix_duration":746.6495452074901,"trial":19,"RT":893,"MT":519,"sideResp":2,"stimulus":"img/750/equaldotsize/R/4_Ratio_750_L_15_R_20.png","xmouse":[826,826,826,826,826,826,826,826,826,826,826,826,826,826,826,826,826,826,826,826,826,826,826,826,826,826,826,826,826,826,826,826,826,826,826,826,826,826,826,826,826,826,826,832,890,939,976,998,1061,1072,1083,1096,1101,1106,1109,1113,1115,1117,1122,1123,1124,1125,1126,1127,1131,1134,1136,1136,1136,1136,1136],"ymouse":[549,549,549,549,549,549,549,549,549,549,549,549,549,549,549,549,549,549,549,549,549,549,549,549,549,549,549,549,549,549,549,549,549,549,549,549,549,549,549,549,549,549,549,544,509,467,435,421,387,378,351,324,311,293,269,239,208,183,153,147,143,141,138,137,133,130,127,124,111,104,98],"timestamp_mouse":[12,32,52,72,91,111,131,151,171,191,211,232,251,271,292,313,332,351,373,391,412,433,451,472,492,512,532,551,571,592,612,633,652,671,691,712,731,752,772,791,812,831,851,871,893,911,931,951,972,991,1012,1031,1051,1073,1092,1112,1131,1152,1173,1191,1211,1231,1251,1272,1291,1312,1332,1352,1372,1391,1412],"xSR":741.5,"ySR":469.95,"xT1":424.9,"yT1":0,"xT2":1058.1,"yT2":0,"toosoon":0,"cond_shown":"equaldotsize","ratio_trial":750,"smaller_num":"15","larger_num":"20","correct_side":2,"subjID":"mariana-aguilera-pinzon","gender":"11","age":"No_age","school":"No_school"},{"start_time":1551791143314,"click_time":1551791145468,"finger_time":1551791144807,"fix_duration":804.4059251081395,"trial":20,"RT":1493,"MT":661,"sideResp":2,"stimulus":"img/900/equaldotsize/R/9_Ratio_900_L_18_R_20.png","xmouse":[756,756,756,756,756,756,756,756,756,756,756,756,756,756,756,756,756,756,756,756,756,756,756,756,756,756,756,756,756,756,756,756,756,756,756,756,756,756,756,756,756,756,756,756,756,756,756,756,756,756,756,756,756,756,756,756,756,756,756,756,756,756,756,756,756,756,756,756,756,756,756,756,756,757,776,797,818,832,848,866,888,900,908,915,930,934,936,938,938,949,955,962,966,968,973,978,984,993,999,1010,1010,1012,1019,1038,1044,1048,1051,1060],"ymouse":[531,531,531,531,531,531,531,531,531,531,531,531,531,531,531,531,531,531,531,531,531,531,531,531,531,531,531,531,531,531,531,531,531,531,531,531,531,531,531,531,531,531,531,531,531,531,531,531,531,531,531,531,531,531,531,531,531,531,531,531,531,531,531,531,531,531,531,531,531,531,531,531,531,520,450,379,316,259,192,158,126,109,89,74,53,48,46,45,44,43,42,41,41,41,44,47,50,51,51,51,51,51,51,50,49,48,48,47],"timestamp_mouse":[13,42,54,73,93,113,135,154,175,193,214,234,253,273,294,314,333,353,374,393,414,433,454,474,493,515,533,553,573,594,614,635,653,673,695,715,733,754,773,793,813,833,853,875,894,913,933,954,974,993,1013,1035,1054,1073,1093,1113,1133,1154,1174,1193,1214,1233,1254,1273,1294,1313,1335,1353,1374,1395,1414,1435,1453,1473,1493,1513,1534,1555,1573,1593,1613,1635,1653,1673,1693,1714,1733,1753,1774,1794,1813,1833,1853,1873,1893,1914,1935,1954,1973,1993,2013,2033,2054,2075,2093,2113,2134,2154],"xSR":741.5,"ySR":469.95,"xT1":424.9,"yT1":0,"xT2":1058.1,"yT2":0,"toosoon":0,"cond_shown":"equaldotsize","ratio_trial":900,"smaller_num":"18","larger_num":"20","correct_side":2,"subjID":"mariana-aguilera-pinzon","gender":"11","age":"No_age","school":"No_school"},{"start_time":1551791146559,"click_time":1551791148108,"finger_time":1551791147588,"fix_duration":250,"trial":21,"RT":1029,"MT":520,"sideResp":2,"stimulus":"img/900/equaldotanddens/R/3_Ratio_900_L_9_R_10.png","xmouse":[805,805,805,805,805,805,805,805,805,805,805,805,805,805,805,805,805,805,805,805,805,805,805,805,805,805,805,805,805,805,805,805,805,805,805,805,805,805,805,805,805,805,805,805,805,805,805,805,805,814,839,933,978,1019,1058,1091,1112,1146,1152,1171,1184,1198,1210,1215,1221,1224,1228,1228,1228,1228,1228,1228,1228,1228,1227,1218,1200,1148],"ymouse":[527,527,527,527,527,527,527,527,527,527,527,527,527,527,527,527,527,527,527,527,527,527,527,527,527,527,527,527,527,527,527,527,527,527,527,527,527,527,527,527,527,527,527,527,527,527,527,527,527,522,486,372,333,304,277,253,239,209,202,175,157,133,105,93,82,76,67,64,63,62,62,62,62,62,62,62,63,69],"timestamp_mouse":[8,33,48,68,88,108,129,150,168,188,209,228,248,268,289,309,329,348,370,388,409,429,449,470,490,508,529,549,568,588,610,629,649,668,688,708,730,748,768,790,808,828,850,869,889,908,930,948,968,988,1009,1029,1048,1068,1089,1109,1128,1148,1169,1188,1209,1228,1248,1269,1289,1308,1329,1348,1370,1389,1409,1428,1449,1468,1488,1508,1528,1549],"xSR":741.5,"ySR":469.95,"xT1":424.9,"yT1":0,"xT2":1058.1,"yT2":0,"toosoon":0,"cond_shown":"equaldotanddens","ratio_trial":900,"smaller_num":"9","larger_num":"10","correct_side":2,"subjID":"mariana-aguilera-pinzon","gender":"11","age":"No_age","school":"No_school"},{"start_time":1551791149418,"click_time":1551791150708,"finger_time":1551791150307,"fix_duration":250,"trial":22,"RT":889,"MT":401,"sideResp":2,"stimulus":"img/750/equaldotanddens/R/2_Ratio_750_L_6_R_8.png","xmouse":[824,824,824,824,824,824,824,824,824,824,824,824,824,824,824,824,824,824,824,824,824,824,824,824,824,824,824,824,824,824,824,824,824,824,824,824,824,824,824,824,824,824,824,824,838,854,864,874,910,936,961,986,1002,1028,1034,1037,1040,1042,1048,1057,1062,1067,1071,1076,1078],"ymouse":[505,505,505,505,505,505,505,505,505,505,505,505,505,505,505,505,505,505,505,505,505,505,505,505,505,505,505,505,505,505,505,505,505,505,505,505,505,505,505,505,505,505,505,502,469,432,410,386,336,307,281,256,240,216,209,206,202,195,185,162,148,135,123,106,98],"timestamp_mouse":[14,36,50,70,89,109,131,149,170,189,209,231,249,269,290,309,329,349,369,391,409,431,450,470,489,510,531,549,569,589,609,630,649,670,689,709,730,749,769,789,809,829,849,869,889,909,930,951,971,990,1009,1029,1050,1071,1090,1110,1129,1150,1169,1189,1209,1229,1250,1271,1289],"xSR":741.5,"ySR":469.95,"xT1":424.9,"yT1":0,"xT2":1058.1,"yT2":0,"toosoon":0,"cond_shown":"equaldotanddens","ratio_trial":750,"smaller_num":"6","larger_num":"8","correct_side":2,"subjID":"mariana-aguilera-pinzon","gender":"11","age":"No_age","school":"No_school"},{"start_time":1551791152190,"click_time":1551791154229,"finger_time":1551791154047,"fix_duration":420.74567999722376,"trial":23,"RT":1857,"MT":182,"sideResp":2,"stimulus":"img/250/randomdotsizeEA/R/8_Ratio_250_L_1_R_4.png","xmouse":[773,773,773,773,773,773,773,773,773,773,773,773,773,773,773,773,773,773,773,773,773,773,773,773,773,773,773,773,773,773,773,773,773,773,773,773,773,773,773,773,773,773,773,773,773,773,773,773,773,773,773,773,773,773,773,773,773,773,773,773,773,773,773,773,773,773,773,773,773,773,773,773,773,773,773,773,773,773,773,773,773,773,773,773,773,773,773,773,773,773,773,787,808,861,927,1019,1046,1058,1070,1084,1091,1099],"ymouse":[508,508,508,508,508,508,508,508,508,508,508,508,508,508,508,508,508,508,508,508,508,508,508,508,508,508,508,508,508,508,508,508,508,508,508,508,508,508,508,508,508,508,508,508,508,508,508,508,508,508,508,508,508,508,508,508,508,508,508,508,508,508,508,508,508,508,508,508,508,508,508,508,508,508,508,508,508,508,508,508,508,508,508,508,508,508,508,508,508,508,508,489,461,387,307,206,176,162,147,122,104,87],"timestamp_mouse":[34,38,57,77,97,117,139,157,179,197,217,237,259,278,297,317,339,357,377,398,418,438,457,478,497,518,539,558,577,598,617,637,658,677,699,717,738,758,778,798,817,837,859,877,897,918,937,957,979,997,1018,1037,1057,1077,1097,1117,1138,1157,1177,1199,1217,1238,1257,1279,1297,1317,1337,1357,1378,1397,1419,1437,1457,1477,1497,1519,1537,1558,1579,1597,1617,1639,1658,1677,1698,1717,1738,1758,1777,1797,1819,1838,1857,1877,1897,1917,1938,1957,1977,1999,2017,2039],"xSR":741.5,"ySR":469.95,"xT1":424.9,"yT1":0,"xT2":1058.1,"yT2":0,"toosoon":0,"cond_shown":"randomdotsizeEA","ratio_trial":250,"smaller_num":"1","larger_num":"4","correct_side":2,"subjID":"mariana-aguilera-pinzon","gender":"11","age":"No_age","school":"No_school"},{"start_time":1551791156301,"click_time":1551791158369,"finger_time":1551791157607,"fix_duration":1192.1615359320851,"trial":24,"RT":1306,"MT":762,"sideResp":2,"stimulus":"img/500/randomdotsizeEA/R/6_Ratio_500_L_9_R_18.png","xmouse":[821,821,821,821,821,821,821,821,821,821,821,821,821,821,821,821,821,821,821,821,821,821,821,821,821,821,821,821,821,821,821,821,821,821,821,821,821,821,821,821,821,821,821,821,821,821,821,821,821,821,821,821,821,821,821,821,821,821,821,821,821,821,821,821,821,836,863,886,907,921,943,956,965,975,992,1002,1012,1022,1033,1033,1033,1033,1033,1033,1033,1033,1037,1038,1038,1038,1039,1039,1039,1039,1039,1039,1039,1039,1039,1039,1039,1045,1054,1059],"ymouse":[496,496,496,496,496,496,496,496,496,496,496,496,496,496,496,496,496,496,496,496,496,496,496,496,496,496,496,496,496,496,496,496,496,496,496,496,496,496,496,496,496,496,496,496,496,496,496,496,496,496,496,496,496,496,496,496,496,496,496,496,496,496,496,496,490,453,394,337,291,247,177,148,126,105,67,49,32,17,2,2,2,2,2,2,2,2,1,4,10,16,21,21,21,21,21,21,21,21,21,21,21,21,21,21],"timestamp_mouse":[8,38,46,67,86,107,126,147,168,187,207,228,246,266,287,306,326,347,366,387,406,427,446,467,486,508,527,546,566,588,606,626,646,668,686,706,726,746,768,787,806,827,846,867,888,907,927,946,966,986,1008,1026,1046,1067,1086,1107,1126,1146,1167,1186,1206,1227,1246,1268,1286,1306,1326,1346,1366,1386,1406,1426,1447,1466,1488,1507,1527,1547,1566,1588,1607,1626,1647,1667,1688,1706,1727,1747,1767,1786,1806,1826,1847,1868,1887,1906,1926,1948,1967,1986,2006,2026,2047,2068],"xSR":741.5,"ySR":469.95,"xT1":424.9,"yT1":0,"xT2":1058.1,"yT2":0,"toosoon":0,"cond_shown":"randomdotsizeEA","ratio_trial":500,"smaller_num":"9","larger_num":"18","correct_side":2,"subjID":"mariana-aguilera-pinzon","gender":"11","age":"No_age","school":"No_school"},{"start_time":1551791160184,"click_time":1551791162407,"finger_time":1551791162289,"fix_duration":995.0573705701082,"trial":25,"RT":2105,"MT":118,"sideResp":2,"stimulus":"img/900/randomdotsizeEA/R/3_Ratio_900_L_9_R_10.png","xmouse":[756,756,756,756,756,756,756,756,756,756,756,756,756,756,756,756,756,756,756,756,756,756,756,756,756,756,756,756,756,756,756,756,756,756,756,756,756,756,756,756,756,756,756,756,756,756,756,756,756,756,756,756,756,756,756,756,756,756,756,756,756,756,756,756,756,756,756,756,756,756,756,756,756,756,756,756,756,756,756,756,756,756,756,756,756,756,756,756,756,756,756,756,756,756,756,756,756,756,756,756,756,756,756,761,770,818,871,889,944,984,1022,1111],"ymouse":[510,510,510,510,510,510,510,510,510,510,510,510,510,510,510,510,510,510,510,510,510,510,510,510,510,510,510,510,510,510,510,510,510,510,510,510,510,510,510,510,510,510,510,510,510,510,510,510,510,510,510,510,510,510,510,510,510,510,510,510,510,510,510,510,510,510,510,510,510,510,510,510,510,510,510,510,510,510,510,510,510,510,510,510,510,510,510,510,510,510,510,510,510,510,510,510,510,510,510,510,510,510,510,505,494,431,368,346,283,235,191,96],"timestamp_mouse":[9,40,44,63,85,103,123,144,165,183,204,223,244,264,283,303,323,344,363,383,405,423,443,463,484,504,523,543,565,583,603,623,643,663,683,703,724,743,763,784,804,824,844,863,884,904,923,943,964,985,1005,1023,1043,1064,1084,1105,1123,1143,1164,1185,1205,1223,1244,1263,1285,1303,1323,1343,1364,1383,1403,1425,1445,1464,1484,1505,1525,1543,1564,1583,1605,1623,1645,1665,1683,1703,1723,1743,1763,1784,1804,1823,1844,1864,1883,1905,1924,1944,1963,1983,2004,2024,2045,2063,2084,2105,2124,2143,2163,2183,2203,2223],"xSR":741.5,"ySR":469.95,"xT1":424.9,"yT1":0,"xT2":1058.1,"yT2":0,"toosoon":0,"cond_shown":"randomdotsizeEA","ratio_trial":900,"smaller_num":"9","larger_num":"10","correct_side":2,"subjID":"mariana-aguilera-pinzon","gender":"11","age":"No_age","school":"No_school"},{"start_time":1551791164427,"click_time":1551791166447,"finger_time":1551791165647,"fix_duration":1159.2740990390532,"trial":26,"RT":1220,"MT":800,"sideResp":2,"stimulus":"img/750/equaldotsize/R/15_Ratio_750_L_9_R_12.png","xmouse":[780,780,780,780,780,780,780,780,780,780,780,780,780,780,780,780,780,780,780,780,780,780,780,780,780,780,780,780,780,780,780,780,780,780,780,780,780,780,780,780,780,780,780,780,780,780,780,780,780,780,780,780,780,780,780,780,780,780,780,780,788,808,845,889,956,969,980,989,1005,1013,1021,1029,1035,1040,1046,1048,1048,1049,1050,1057,1058,1058,1058,1058,1058,1058,1058,1058,1058,1058,1058,1058,1058,1058,1058,1058,1058,1058,1058,1058,1058,1066],"ymouse":[515,515,515,515,515,515,515,515,515,515,515,515,515,515,515,515,515,515,515,515,515,515,515,515,515,515,515,515,515,515,515,515,515,515,515,515,515,515,515,515,515,515,515,515,515,515,515,515,515,515,515,515,515,515,515,515,515,515,515,515,498,459,385,303,193,175,157,143,110,96,82,72,65,60,48,45,45,45,42,35,34,34,34,34,34,34,34,34,34,34,34,34,34,34,34,34,34,34,34,34,33,33],"timestamp_mouse":[1,20,43,62,81,100,121,141,160,181,200,220,240,260,280,301,321,341,361,381,402,421,440,461,480,502,521,540,561,581,600,621,642,660,680,700,721,740,760,782,800,821,841,860,881,901,921,942,961,980,1001,1021,1040,1061,1080,1100,1121,1141,1161,1180,1201,1220,1240,1260,1280,1302,1320,1341,1361,1380,1401,1420,1440,1461,1480,1501,1520,1542,1560,1581,1600,1620,1641,1662,1681,1700,1720,1740,1761,1782,1802,1821,1840,1860,1881,1900,1921,1941,1960,1980,2001,2020],"xSR":741.5,"ySR":469.95,"xT1":424.9,"yT1":0,"xT2":1058.1,"yT2":0,"toosoon":0,"cond_shown":"equaldotsize","ratio_trial":750,"smaller_num":"9","larger_num":"12","correct_side":2,"subjID":"mariana-aguilera-pinzon","gender":"11","age":"No_age","school":"No_school"},{"start_time":1551791169118,"click_time":1551791171508,"finger_time":1551791170807,"fix_duration":1468.2586649108496,"trial":27,"RT":1689,"MT":701,"sideResp":1,"stimulus":"img/750/equaldotsize/L/8_Ratio_750_L_4_R_3.png","xmouse":[788,788,788,788,788,788,788,788,788,788,788,788,788,788,788,788,788,788,788,788,788,788,788,788,788,788,788,788,788,788,788,788,788,788,788,788,788,788,788,788,788,788,788,788,788,788,788,788,788,788,788,788,788,788,788,788,788,788,788,788,788,788,788,788,788,788,788,788,788,788,788,788,788,788,788,788,788,788,788,788,788,788,788,788,803,806,806,802,792,780,759,744,727,721,721,721,721,721,721,721,721,721,721,721,721,595,592,589,589,588,588,587,587,587,587,582,570,552,535,508],"ymouse":[500,500,500,500,500,500,500,500,500,500,500,500,500,500,500,500,500,500,500,500,500,500,500,500,500,500,500,500,500,500,500,500,500,500,500,500,500,500,500,500,500,500,500,500,500,500,500,500,500,500,500,500,500,500,500,500,500,500,500,500,500,500,500,500,500,500,500,500,500,500,500,500,500,500,500,500,500,500,500,500,500,500,500,480,383,317,268,227,189,121,65,40,19,10,10,10,10,10,10,10,10,10,10,10,10,6,9,12,13,13,14,15,15,15,15,17,21,27,29,34],"timestamp_mouse":[9,40,49,69,90,109,129,150,171,190,211,230,249,269,289,309,329,349,370,389,410,431,449,469,489,509,529,550,569,589,609,629,649,670,689,710,731,749,770,790,809,829,849,870,890,911,930,950,971,990,1011,1030,1050,1071,1089,1111,1129,1151,1169,1190,1211,1229,1249,1270,1290,1311,1330,1351,1369,1390,1410,1429,1450,1470,1491,1509,1531,1550,1569,1590,1609,1629,1651,1669,1689,1710,1731,1750,1769,1789,1809,1831,1851,1870,1890,1909,1929,1949,1970,1989,2009,2029,2049,2070,2091,2111,2129,2149,2169,2190,2209,2229,2251,2270,2290,2310,2329,2351,2371,2390],"xSR":741.5,"ySR":469.95,"xT1":424.9,"yT1":0,"xT2":1058.1,"yT2":0,"toosoon":0,"cond_shown":"equaldotsize","ratio_trial":750,"smaller_num":"3","larger_num":"4","correct_side":1,"subjID":"mariana-aguilera-pinzon","gender":"11","age":"No_age","school":"No_school"},{"start_time":1551791172779,"click_time":1551791173908,"finger_time":1551791173768,"fix_duration":250,"trial":28,"RT":989,"MT":140,"sideResp":2,"stimulus":"img/250/equaldotsize/R/6_Ratio_250_L_6_R_24.png","xmouse":[802,802,802,802,802,802,802,802,802,802,802,802,802,802,802,802,802,802,802,802,802,802,802,802,802,802,802,802,802,802,802,802,802,802,802,802,802,802,802,802,802,802,802,802,802,802,803,809,832,859,895,968,1005,1048,1087,1110,1139],"ymouse":[531,531,531,531,531,531,531,531,531,531,531,531,531,531,531,531,531,531,531,531,531,531,531,531,531,531,531,531,531,531,531,531,531,531,531,531,531,531,531,531,531,531,531,531,531,531,530,522,494,464,423,335,285,220,168,123,73],"timestamp_mouse":[9,41,49,69,88,108,129,150,169,189,208,229,248,268,288,310,328,348,370,389,409,428,448,470,489,508,530,549,568,589,609,628,648,668,689,708,730,748,768,790,810,828,849,869,888,909,928,948,970,989,1009,1028,1049,1069,1089,1108,1128],"xSR":741.5,"ySR":469.95,"xT1":424.9,"yT1":0,"xT2":1058.1,"yT2":0,"toosoon":0,"cond_shown":"equaldotsize","ratio_trial":250,"smaller_num":"6","larger_num":"24","correct_side":2,"subjID":"mariana-aguilera-pinzon","gender":"11","age":"No_age","school":"No_school"},{"start_time":1551791177371,"click_time":1551791178627,"finger_time":1551791178328,"fix_duration":1161.4633475077287,"trial":29,"RT":957,"MT":299,"sideResp":1,"stimulus":"img/500/randomdotsizeEA/R/3_Ratio_500_L_10_R_20.png","xmouse":[794,794,794,794,794,794,794,794,794,794,794,794,794,794,794,794,794,794,794,794,794,794,794,794,794,794,794,794,794,794,794,794,794,794,794,794,794,794,794,794,794,794,796,799,804,805,805,802,802,802,802,802,802,802,802,801,794,767,736,685,624,497,459],"ymouse":[531,531,531,531,531,531,531,531,531,531,531,531,531,531,531,531,531,531,531,531,531,531,531,531,531,531,531,531,531,531,531,531,531,531,531,531,531,531,531,531,531,531,527,516,500,490,477,464,462,462,462,462,462,462,462,460,448,410,368,307,232,122,95],"timestamp_mouse":[17,37,56,76,96,117,137,158,176,197,218,237,256,276,297,317,337,356,377,396,416,437,456,476,497,516,538,557,576,596,617,636,657,676,696,717,736,756,776,797,818,836,856,877,896,916,936,957,978,998,1016,1036,1056,1077,1097,1117,1136,1156,1177,1197,1218,1237,1256],"xSR":741.5,"ySR":469.95,"xT1":424.9,"yT1":0,"xT2":1058.1,"yT2":0,"toosoon":0,"cond_shown":"randomdotsizeEA","ratio_trial":500,"smaller_num":"10","larger_num":"20","correct_side":2,"subjID":"mariana-aguilera-pinzon","gender":"11","age":"No_age","school":"No_school"},{"start_time":1551791181434,"click_time":1551791184008,"finger_time":1551791183089,"fix_duration":1425.4065182460995,"trial":30,"RT":1655,"MT":919,"sideResp":2,"stimulus":"img/900/randomdotsizeEA/L/1_Ratio_900_L_10_R_9.png","xmouse":[761,761,761,761,761,761,761,761,761,761,761,761,761,761,761,761,761,761,761,761,761,761,761,761,761,761,761,761,761,761,761,761,761,761,761,761,761,761,761,761,761,761,761,761,761,761,761,761,761,761,761,761,761,761,761,761,761,761,761,761,761,761,761,761,761,761,761,761,761,761,761,761,761,761,761,761,761,761,761,761,761,748,715,699,686,682,682,682,682,682,682,682,682,682,682,682,686,706,729,762,804,876,955,1135,1262,1321,1344,1348,1348,1348,1346,1344,1335,1330,1320,1310,1297,1279,1242,1229,1222,1219,1218,1215,1214,1207,1196,1183,1158],"ymouse":[501,501,501,501,501,501,501,501,501,501,501,501,501,501,501,501,501,501,501,501,501,501,501,501,501,501,501,501,501,501,501,501,501,501,501,501,501,501,501,501,501,501,501,501,501,501,501,501,501,501,501,501,501,501,501,501,501,501,501,501,501,501,501,501,501,501,501,501,501,501,501,501,501,501,501,501,501,501,501,501,501,490,465,452,440,438,438,438,438,438,438,438,438,438,438,437,433,398,367,330,290,245,210,132,85,59,47,42,40,39,37,33,28,27,25,25,26,34,51,57,59,60,60,61,62,66,72,78,85],"timestamp_mouse":[13,35,54,73,93,113,135,154,173,194,214,233,253,274,294,315,333,353,374,393,413,434,454,473,493,513,533,555,573,594,614,634,654,673,693,713,734,755,773,793,814,833,853,875,893,914,934,955,973,993,1015,1033,1053,1073,1094,1113,1133,1154,1176,1193,1214,1233,1253,1273,1293,1314,1333,1354,1373,1393,1413,1433,1453,1473,1493,1514,1533,1554,1573,1595,1613,1634,1655,1674,1693,1714,1735,1755,1773,1793,1815,1834,1853,1873,1894,1913,1933,1955,1974,1994,2014,2035,2053,2074,2093,2114,2134,2154,2173,2194,2214,2234,2254,2273,2294,2313,2333,2353,2373,2394,2414,2433,2454,2474,2493,2514,2534,2554,2574],"xSR":741.5,"ySR":469.95,"xT1":424.9,"yT1":0,"xT2":1058.1,"yT2":0,"toosoon":0,"cond_shown":"randomdotsizeEA","ratio_trial":900,"smaller_num":"9","larger_num":"10","correct_side":1,"subjID":"mariana-aguilera-pinzon","gender":"11","age":"No_age","school":"No_school"},{"start_time":1551791186321,"click_time":1551791187747,"finger_time":1551791187149,"fix_duration":1312.042757801325,"trial":31,"RT":828,"MT":598,"sideResp":1,"stimulus":"img/900/equaldotsize/R/11_Ratio_900_L_18_R_20.png","xmouse":[788,788,788,788,788,788,788,788,788,788,788,788,788,788,788,788,788,788,788,788,788,788,788,788,788,788,788,788,788,788,788,788,788,788,788,788,788,788,788,789,784,775,762,716,692,677,670,667,662,641,635,635,631,621,584,561,538,521,512,507,507,507,507,507,507,507,507,507,507,507,507,505],"ymouse":[493,493,493,493,493,493,493,493,493,493,493,493,493,493,493,493,493,493,493,493,493,493,493,493,493,493,493,493,493,493,493,493,493,493,493,493,493,493,493,493,481,466,448,380,344,326,319,316,315,304,301,300,298,289,256,236,205,164,135,103,101,100,100,100,100,100,100,100,100,100,100,97],"timestamp_mouse":[8,44,46,67,86,107,126,147,168,186,206,226,248,266,288,306,326,347,366,387,407,427,447,466,487,506,526,546,567,586,608,626,646,668,686,708,726,746,768,787,806,828,846,868,886,907,926,948,966,986,1006,1026,1047,1067,1086,1106,1126,1147,1166,1187,1207,1226,1246,1266,1287,1306,1327,1346,1368,1386,1407,1426],"xSR":741.5,"ySR":469.95,"xT1":424.9,"yT1":0,"xT2":1058.1,"yT2":0,"toosoon":0,"cond_shown":"equaldotsize","ratio_trial":900,"smaller_num":"18","larger_num":"20","correct_side":2,"subjID":"mariana-aguilera-pinzon","gender":"11","age":"No_age","school":"No_school"},{"start_time":1551791191952,"click_time":1551791193588,"finger_time":1551791193189,"fix_duration":1342.4453951997561,"trial":32,"RT":1237,"MT":399,"sideResp":1,"stimulus":"img/750/equaldotsize/L/10_Ratio_750_L_4_R_3.png","xmouse":[811,811,811,811,811,811,811,811,811,811,811,811,811,811,811,811,811,811,811,811,811,811,811,811,811,811,811,811,811,811,811,811,811,811,811,811,811,811,811,804,793,792,792,792,792,792,792,792,792,792,792,792,792,792,792,792,792,792,792,792,792,785,773,762,751,737,721,697,678,640,624,610,609,609,609,608,608,607,578,550,528,518],"ymouse":[525,525,525,525,525,525,525,525,525,524,524,524,524,524,524,524,524,524,524,524,524,524,524,520,519,518,517,517,517,517,517,517,517,517,517,517,517,517,517,508,490,486,486,486,486,486,486,486,486,486,486,486,486,486,486,486,486,486,486,486,484,442,418,395,375,351,328,291,262,197,168,143,141,141,141,140,140,139,109,77,44,22],"timestamp_mouse":[15,36,57,76,95,116,135,155,176,196,215,236,255,277,296,315,337,355,375,395,417,435,457,475,495,516,537,556,576,595,616,636,655,676,696,715,735,756,776,796,815,835,855,877,896,916,936,955,977,996,1015,1036,1057,1075,1096,1115,1137,1155,1176,1197,1215,1237,1255,1275,1295,1316,1336,1356,1375,1395,1415,1436,1455,1475,1496,1517,1536,1556,1575,1595,1615,1636],"xSR":741.5,"ySR":469.95,"xT1":424.9,"yT1":0,"xT2":1058.1,"yT2":0,"toosoon":0,"cond_shown":"equaldotsize","ratio_trial":750,"smaller_num":"3","larger_num":"4","correct_side":1,"subjID":"mariana-aguilera-pinzon","gender":"11","age":"No_age","school":"No_school"},{"start_time":1551791195424,"click_time":1551791196987,"finger_time":1551791196189,"fix_duration":833.0826035939225,"trial":33,"RT":765,"MT":798,"sideResp":1,"stimulus":"img/250/equaldotsize/L/1_Ratio_250_L_8_R_2.png","xmouse":[791,791,791,791,791,791,791,791,791,791,791,791,791,791,791,791,791,791,791,791,791,791,791,791,791,791,791,791,791,791,791,791,791,791,791,791,791,787,778,768,752,724,701,668,651,648,644,641,636,617,610,607,607,607,614,616,616,616,616,616,616,616,615,615,607,603,598,592,583,570,566,559,553,546,533,520,509,495,483],"ymouse":[497,497,497,497,497,497,498,498,498,498,498,498,498,498,498,498,498,498,498,498,498,498,498,498,498,498,498,498,498,498,498,498,498,498,498,498,493,482,460,445,423,391,370,334,320,319,315,312,308,292,280,270,266,254,231,223,221,220,220,219,219,219,218,217,210,208,208,208,207,203,199,193,185,178,166,149,131,109,91],"timestamp_mouse":[8,35,43,63,83,104,124,143,163,183,204,224,244,265,283,304,324,345,364,385,403,423,445,464,484,504,524,543,563,583,603,623,644,663,683,703,723,743,765,783,804,823,843,865,884,904,924,943,964,983,1003,1023,1044,1064,1083,1103,1123,1145,1164,1183,1203,1223,1243,1264,1284,1303,1324,1343,1364,1384,1403,1424,1444,1464,1483,1505,1524,1545,1563],"xSR":741.5,"ySR":469.95,"xT1":424.9,"yT1":0,"xT2":1058.1,"yT2":0,"toosoon":0,"cond_shown":"equaldotsize","ratio_trial":250,"smaller_num":"2","larger_num":"8","correct_side":1,"subjID":"mariana-aguilera-pinzon","gender":"11","age":"No_age","school":"No_school"},{"start_time":1551791199084,"click_time":1551791201147,"finger_time":1551791200608,"fix_duration":1134.4531178525758,"trial":34,"RT":1524,"MT":539,"sideResp":1,"stimulus":"img/900/equaldotanddens/L/8_Ratio_900_L_20_R_18.png","xmouse":[774,774,774,774,774,774,774,774,774,774,774,774,774,774,774,774,774,774,774,774,774,774,774,774,774,774,774,774,774,774,774,774,774,774,774,774,774,774,774,774,774,774,774,774,774,774,774,774,774,774,774,774,774,774,774,774,774,774,774,774,774,774,774,774,774,774,774,774,774,774,774,774,774,774,774,778,785,785,785,785,782,747,647,496,332,135,114,109,108,108,107,100,96,96,96,106,120,140,172,225,283,370,411,466],"ymouse":[502,502,502,502,502,502,502,502,502,502,502,502,502,502,502,502,502,502,502,502,502,502,502,502,502,502,502,502,502,502,502,502,502,502,502,502,502,502,502,502,502,502,502,502,502,502,502,502,502,502,502,502,502,502,502,502,502,502,502,502,502,502,502,502,502,502,502,502,502,502,502,502,502,502,502,492,461,430,402,385,371,349,325,282,231,148,133,128,125,123,120,109,99,95,92,79,71,61,52,41,33,33,33,33],"timestamp_mouse":[8,25,44,64,84,103,123,143,163,183,204,224,243,265,285,304,323,344,365,383,403,423,445,464,484,503,523,543,563,584,603,623,643,664,683,704,724,744,763,785,803,823,843,864,883,903,924,943,964,983,1003,1024,1043,1063,1083,1104,1125,1143,1164,1185,1204,1225,1243,1265,1283,1303,1323,1344,1365,1383,1405,1423,1443,1464,1483,1505,1524,1545,1564,1584,1604,1623,1644,1664,1683,1705,1723,1744,1763,1783,1804,1824,1843,1863,1883,1904,1923,1944,1963,1984,2003,2024,2044,2063],"xSR":741.5,"ySR":469.95,"xT1":424.9,"yT1":0,"xT2":1058.1,"yT2":0,"toosoon":0,"cond_shown":"equaldotanddens","ratio_trial":900,"smaller_num":"18","larger_num":"20","correct_side":1,"subjID":"mariana-aguilera-pinzon","gender":"11","age":"No_age","school":"No_school"},{"start_time":1551791203599,"click_time":1551791205008,"finger_time":1551791204407,"fix_duration":250,"trial":35,"RT":808,"MT":601,"sideResp":2,"stimulus":"img/900/equaldotsize/R/7_Ratio_900_L_9_R_10.png","xmouse":[813,813,813,813,813,813,813,813,813,813,813,813,813,813,813,813,813,813,813,813,813,813,813,813,813,813,813,813,813,813,813,813,813,813,813,813,813,813,813,813,878,989,1072,1119,1153,1209,1209,1209,1209,1209,1209,1209,1209,1209,1209,1209,1209,1209,1209,1209,1209,1185,1185,1185,1185,1183,1179,1177,1175,1170,1155],"ymouse":[544,544,544,544,544,544,544,544,544,544,544,544,544,544,544,544,544,544,544,544,544,544,544,544,544,544,544,544,544,544,544,544,544,544,544,544,544,544,544,541,461,335,263,213,145,13,13,13,13,13,13,13,13,13,13,13,13,13,13,13,13,9,9,9,9,13,18,20,24,31,54],"timestamp_mouse":[9,39,49,70,88,108,128,148,168,189,208,230,249,268,288,308,328,349,368,390,408,428,448,468,488,508,528,548,568,588,608,629,648,668,688,708,728,748,769,788,808,829,850,869,889,909,928,948,969,989,1010,1030,1048,1068,1088,1108,1128,1148,1169,1190,1209,1228,1250,1269,1288,1308,1329,1349,1368,1389,1409],"xSR":741.5,"ySR":469.95,"xT1":424.9,"yT1":0,"xT2":1058.1,"yT2":0,"toosoon":0,"cond_shown":"equaldotsize","ratio_trial":900,"smaller_num":"9","larger_num":"10","correct_side":2,"subjID":"mariana-aguilera-pinzon","gender":"11","age":"No_age","school":"No_school"},{"start_time":1551791207067,"click_time":1551791209508,"finger_time":1551791209247,"fix_duration":1077.5527141006062,"trial":36,"RT":2180,"MT":261,"sideResp":2,"stimulus":"img/900/equaldotanddens/R/12_Ratio_900_L_18_R_20.png","xmouse":[763,763,763,763,763,763,763,763,763,763,763,763,763,763,763,763,763,763,763,763,763,763,763,763,763,763,763,763,763,763,763,763,763,763,763,763,763,763,763,763,763,763,763,763,763,763,763,763,763,763,763,763,763,763,763,763,763,763,763,763,763,763,763,763,763,763,763,763,763,763,763,763,763,763,763,763,763,763,763,763,763,763,763,763,763,763,763,763,763,763,763,763,763,763,763,763,763,763,763,763,763,763,763,763,763,763,763,763,763,762,761,760,760,766,775,787,827,845,868,894,938,989,1108],"ymouse":[531,531,531,531,531,531,531,531,531,531,531,531,531,531,531,531,531,531,531,531,531,531,531,531,531,531,531,531,531,531,531,531,531,531,531,531,529,528,527,527,527,527,527,527,527,527,527,527,527,527,527,527,527,527,527,527,527,527,527,527,527,527,527,527,527,527,527,527,527,527,527,527,527,527,527,527,527,527,527,527,527,527,527,527,527,527,527,527,527,527,527,527,527,527,527,527,527,527,527,527,527,527,527,527,523,519,496,482,472,463,457,439,420,377,344,312,250,225,198,172,141,109,55],"timestamp_mouse":[1,21,41,60,81,100,122,140,160,181,202,220,242,261,281,302,321,341,360,380,400,422,442,461,480,502,522,541,560,582,600,621,642,661,680,700,722,740,760,781,800,820,840,862,881,901,922,940,961,982,1001,1020,1042,1060,1081,1102,1120,1140,1160,1180,1202,1220,1240,1262,1280,1301,1320,1341,1361,1381,1400,1422,1440,1460,1482,1501,1520,1542,1561,1581,1601,1621,1641,1660,1681,1702,1720,1741,1762,1780,1800,1821,1840,1861,1880,1900,1922,1940,1960,1980,2000,2022,2040,2060,2081,2101,2122,2140,2161,2180,2200,2222,2240,2260,2282,2301,2322,2341,2361,2381,2400,2421,2441],"xSR":741.5,"ySR":469.95,"xT1":424.9,"yT1":0,"xT2":1058.1,"yT2":0,"toosoon":0,"cond_shown":"equaldotanddens","ratio_trial":900,"smaller_num":"18","larger_num":"20","correct_side":2,"subjID":"mariana-aguilera-pinzon","gender":"11","age":"No_age","school":"No_school"},{"start_time":1551791211873,"click_time":1551791213207,"finger_time":1551791212688,"fix_duration":1304.977564126664,"trial":37,"RT":815,"MT":519,"sideResp":1,"stimulus":"img/500/equaldotanddens/L/4_Ratio_500_L_18_R_9.png","xmouse":[792,792,792,792,792,792,792,792,792,792,792,792,792,792,792,792,792,792,792,792,792,792,792,792,792,792,792,792,792,792,792,792,792,792,792,792,790,784,779,772,747,726,686,648,604,565,526,519,516,514,511,511,511,511,511,511,511,511,511,511,510,508,506,505,503,502,495],"ymouse":[526,526,526,526,526,526,526,526,526,526,526,526,526,526,526,526,526,526,526,526,526,526,526,526,526,526,526,526,526,526,526,526,526,526,526,526,521,503,492,482,455,435,398,363,314,259,179,163,158,155,151,147,145,136,133,127,124,121,120,119,117,113,109,107,104,103,94],"timestamp_mouse":[15,37,55,75,94,114,136,156,175,194,216,234,254,275,295,316,334,355,375,395,414,436,455,475,495,515,535,555,574,594,614,635,654,674,696,716,735,754,774,794,815,834,855,875,896,914,934,955,974,994,1016,1035,1054,1074,1094,1116,1135,1156,1174,1195,1214,1234,1255,1274,1294,1315,1334],"xSR":741.5,"ySR":469.95,"xT1":424.9,"yT1":0,"xT2":1058.1,"yT2":0,"toosoon":0,"cond_shown":"equaldotanddens","ratio_trial":500,"smaller_num":"9","larger_num":"18","correct_side":1,"subjID":"mariana-aguilera-pinzon","gender":"11","age":"No_age","school":"No_school"},{"start_time":1551791214299,"click_time":1551791215148,"finger_time":1551791215007,"fix_duration":250,"trial":38,"RT":708,"MT":141,"sideResp":2,"stimulus":"img/500/equaldotanddens/R/14_Ratio_500_L_5_R_10.png","xmouse":[811,811,811,811,811,811,811,811,811,811,811,811,811,811,811,811,811,811,811,811,811,811,811,811,811,811,811,811,811,811,811,811,811,812,816,834,859,894,930,984,1030,1042,1074],"ymouse":[499,499,499,499,499,499,499,499,499,499,499,499,499,499,499,499,499,499,499,499,499,499,499,499,499,499,499,499,499,499,499,499,500,499,482,424,377,327,280,198,130,109,58],"timestamp_mouse":[9,29,48,69,89,109,128,148,170,189,208,228,250,268,289,309,328,349,370,389,409,430,449,468,490,508,529,549,568,589,609,630,649,669,688,708,729,750,769,790,809,828,848],"xSR":741.5,"ySR":469.95,"xT1":424.9,"yT1":0,"xT2":1058.1,"yT2":0,"toosoon":0,"cond_shown":"equaldotanddens","ratio_trial":500,"smaller_num":"5","larger_num":"10","correct_side":2,"subjID":"mariana-aguilera-pinzon","gender":"11","age":"No_age","school":"No_school"},{"start_time":1551791216341,"click_time":1551791218408,"finger_time":1551791217927,"fix_duration":250,"trial":39,"RT":1586,"MT":481,"sideResp":1,"stimulus":"img/900/equaldotanddens/L/4_Ratio_900_L_20_R_18.png","xmouse":[801,801,801,801,801,801,801,801,801,801,801,801,801,801,801,801,801,801,801,801,801,801,801,801,801,801,801,801,801,801,801,801,801,801,801,801,801,801,801,801,801,801,801,801,801,801,801,801,801,801,801,801,801,801,801,801,801,801,801,801,801,801,801,801,801,801,801,801,801,801,800,798,794,786,779,775,771,767,745,708,690,675,652,640,630,618,608,590,582,566,556,545,527,518,510,501,486,463,430,415,409,407,410,428],"ymouse":[522,522,522,522,522,522,522,522,522,522,522,522,522,522,522,522,522,522,522,522,522,522,522,522,522,522,522,522,522,522,522,522,522,522,522,522,522,522,522,522,522,522,522,522,522,522,522,522,522,522,522,522,522,522,522,522,522,522,522,522,522,522,522,522,522,522,522,522,522,522,522,520,513,505,500,496,493,489,472,447,434,420,389,373,357,340,326,298,285,263,253,241,226,221,217,211,203,190,168,152,139,125,110,76],"timestamp_mouse":[8,26,46,66,88,106,128,146,166,186,206,226,246,266,287,307,327,347,368,386,408,426,448,467,488,506,526,546,566,586,606,626,647,666,688,707,726,746,766,787,807,826,848,866,886,906,928,948,968,988,1007,1027,1047,1067,1086,1106,1128,1146,1166,1187,1206,1227,1248,1266,1287,1306,1326,1347,1366,1386,1406,1428,1447,1466,1488,1506,1526,1546,1567,1586,1606,1627,1647,1666,1686,1706,1726,1747,1766,1787,1806,1826,1848,1867,1887,1906,1926,1946,1967,1987,2007,2027,2047,2067],"xSR":741.5,"ySR":469.95,"xT1":424.9,"yT1":0,"xT2":1058.1,"yT2":0,"toosoon":0,"cond_shown":"equaldotanddens","ratio_trial":900,"smaller_num":"18","larger_num":"20","correct_side":1,"subjID":"mariana-aguilera-pinzon","gender":"11","age":"No_age","school":"No_school"},{"start_time":1551791220517,"click_time":1551791222007,"finger_time":1551791221608,"fix_duration":1226.6069016542206,"trial":40,"RT":1091,"MT":399,"sideResp":1,"stimulus":"img/750/equaldotsize/L/1_Ratio_750_L_20_R_15.png","xmouse":[797,797,797,797,797,797,797,797,797,797,797,797,797,797,797,797,797,797,797,797,797,797,797,797,797,797,797,797,797,797,797,797,797,797,797,797,797,797,797,795,794,794,794,794,794,794,794,794,794,793,789,783,774,763,740,720,688,649,580,561,546,545,544,543,537,529,521,515,513,513,513,513,512,508,503],"ymouse":[524,524,524,524,524,524,524,524,524,524,524,524,524,524,524,524,524,524,524,524,524,524,524,524,524,524,524,524,524,524,524,524,524,524,524,524,524,524,524,523,522,521,521,521,521,521,521,521,521,520,515,509,503,495,462,422,366,313,212,180,149,137,132,130,123,116,109,105,104,104,104,104,103,100,94],"timestamp_mouse":[10,36,52,72,90,111,132,150,171,191,210,232,251,271,290,311,330,350,370,390,410,431,450,472,490,510,531,551,570,591,610,631,650,671,691,710,730,750,770,791,811,831,851,870,891,910,932,951,970,991,1010,1031,1051,1071,1091,1112,1131,1152,1172,1190,1211,1231,1251,1271,1290,1312,1332,1350,1371,1390,1410,1431,1450,1470,1490],"xSR":741.5,"ySR":469.95,"xT1":424.9,"yT1":0,"xT2":1058.1,"yT2":0,"toosoon":0,"cond_shown":"equaldotsize","ratio_trial":750,"smaller_num":"15","larger_num":"20","correct_side":1,"subjID":"mariana-aguilera-pinzon","gender":"11","age":"No_age","school":"No_school"},{"start_time":1551791224619,"click_time":1551791226549,"finger_time":1551791226107,"fix_duration":250,"trial":41,"RT":1488,"MT":442,"sideResp":2,"stimulus":"img/900/equaldotanddens/R/14_Ratio_900_L_18_R_20.png","xmouse":[812,812,812,812,812,812,812,812,812,812,812,812,812,812,812,812,812,812,812,812,812,812,812,812,812,812,812,812,812,812,812,812,812,812,812,812,812,812,812,812,812,812,812,812,812,812,812,812,812,812,812,812,812,812,812,812,812,812,812,812,812,812,812,812,812,812,812,812,812,812,812,812,812,812,811,811,815,828,847,871,871,871,871,871,871,871,871,871,871,871,871,871,871,871,871,871,1106],"ymouse":[487,487,487,487,487,487,487,487,487,487,487,487,487,487,487,487,487,487,487,487,487,487,487,487,487,487,487,487,487,487,487,487,487,487,487,487,487,487,487,487,487,487,487,487,487,487,487,487,487,487,487,487,487,487,487,487,487,487,487,487,487,487,487,487,487,487,487,487,487,487,487,487,481,473,440,397,284,200,112,25,25,25,25,25,25,25,25,25,25,25,25,25,25,25,25,25,18],"timestamp_mouse":[8,37,50,69,89,109,128,148,170,188,210,228,249,270,288,310,329,348,370,388,408,429,448,469,488,508,530,548,568,589,608,629,648,668,690,710,728,748,769,788,809,828,848,868,889,908,929,948,969,988,1008,1028,1048,1068,1089,1108,1129,1148,1169,1188,1208,1228,1248,1269,1288,1309,1330,1349,1369,1389,1410,1428,1448,1469,1488,1509,1529,1549,1569,1588,1608,1629,1648,1668,1688,1708,1729,1749,1768,1788,1809,1829,1849,1869,1889,1909,1930],"xSR":741.5,"ySR":469.95,"xT1":424.9,"yT1":0,"xT2":1058.1,"yT2":0,"toosoon":0,"cond_shown":"equaldotanddens","ratio_trial":900,"smaller_num":"18","larger_num":"20","correct_side":2,"subjID":"mariana-aguilera-pinzon","gender":"11","age":"No_age","school":"No_school"},{"start_time":1551791228790,"click_time":1551791231407,"finger_time":1551791230688,"fix_duration":1261.821636003493,"trial":42,"RT":1898,"MT":719,"sideResp":2,"stimulus":"img/900/randomdotsizeEA/L/10_Ratio_900_L_20_R_18.png","xmouse":[773,773,773,773,773,773,773,773,773,773,773,773,773,773,773,773,773,773,773,773,773,773,773,773,773,773,773,773,773,773,773,773,773,773,773,773,773,773,773,773,773,773,773,773,773,773,773,773,773,773,773,773,773,773,773,773,773,773,773,773,773,773,773,773,773,773,773,773,773,773,773,773,773,773,773,773,773,773,773,773,773,773,773,773,773,773,773,773,773,773,773,773,773,772,803,1005,1168,1254,1287,1287,1287,1287,1287,1287,1287,1287,1287,1287,1287,1287,1330,1313,1302,1292,1287,1285,1283,1269,1257,1246,1233,1221,1208,1196,1185,1175,1175,1175,1175,1174,1151],"ymouse":[524,524,524,524,524,524,524,524,524,524,524,524,524,524,524,524,524,524,524,524,524,524,524,524,524,524,524,524,524,524,524,524,524,524,524,524,524,524,524,524,524,524,524,524,524,524,524,524,524,524,524,524,524,524,524,524,524,524,524,524,524,524,524,524,524,524,524,524,524,524,524,524,524,524,524,524,524,524,524,524,524,524,524,524,524,524,524,524,524,524,524,524,524,515,461,233,107,36,10,10,10,10,10,10,10,10,10,10,10,10,1,39,62,80,90,92,93,94,94,94,91,83,74,65,58,55,55,55,55,55,59],"timestamp_mouse":[30,39,57,77,98,118,139,157,178,197,219,237,258,277,298,318,338,358,378,397,417,437,459,479,497,518,539,558,579,599,618,637,658,677,699,718,739,757,777,798,817,838,859,878,898,919,937,959,977,998,1019,1038,1057,1079,1097,1118,1137,1159,1179,1197,1217,1237,1258,1278,1299,1317,1338,1357,1378,1397,1417,1437,1458,1479,1497,1517,1538,1557,1578,1599,1617,1638,1659,1678,1698,1719,1737,1759,1778,1797,1817,1837,1858,1878,1898,1917,1938,1959,1977,1997,2017,2037,2057,2077,2098,2118,2137,2157,2177,2198,2218,2238,2259,2279,2298,2318,2338,2357,2377,2398,2418,2437,2457,2478,2497,2518,2538,2557,2577,2597,2617],"xSR":741.5,"ySR":469.95,"xT1":424.9,"yT1":0,"xT2":1058.1,"yT2":0,"toosoon":0,"cond_shown":"randomdotsizeEA","ratio_trial":900,"smaller_num":"18","larger_num":"20","correct_side":1,"subjID":"mariana-aguilera-pinzon","gender":"11","age":"No_age","school":"No_school"},{"start_time":1551791238313,"click_time":1551791241768,"finger_time":1551791240588,"fix_duration":404.2299271129819,"trial":43,"RT":2275,"MT":1180,"sideResp":2,"stimulus":"img/250/equaldotsize/R/4_Ratio_250_L_3_R_12.png","xmouse":[837,837,837,837,837,837,837,837,837,837,837,837,837,837,837,837,837,837,837,837,837,837,837,837,837,837,837,837,837,837,837,837,837,837,837,837,837,837,837,837,837,837,837,837,837,837,837,837,837,837,837,837,837,837,837,837,837,837,837,837,837,837,837,837,837,841,841,841,841,841,841,841,840,837,830,830,830,830,830,830,830,830,830,830,830,830,830,830,830,830,830,830,830,830,830,830,830,830,830,830,830,830,830,830,830,830,830,830,830,830,830,830,830,853,893,934,952,958,958,957,954,948,940,928,893,875,858,838,819,798,798,798,798,798,798,798,798,798,798,798,798,798,798,798,798,798,798,798,798,798,798,798,798,798,798,798,798,798,798,798,798,798,798,798,798,798,814,835,869,922,963,1043,1099],"ymouse":[534,534,534,534,534,534,534,534,534,534,534,534,534,534,534,534,534,534,534,534,534,534,534,534,534,534,534,534,534,534,534,534,534,534,534,534,534,534,534,534,534,534,534,534,534,534,534,534,534,534,534,534,534,534,534,534,534,534,534,534,534,534,534,534,534,534,534,534,534,534,534,534,534,533,533,533,533,533,533,533,533,533,533,533,533,533,533,533,533,533,533,533,533,533,533,533,533,533,533,533,533,533,533,533,533,533,533,533,533,533,533,533,533,527,520,519,519,521,521,521,519,518,515,512,501,497,492,487,483,479,479,479,479,479,479,479,479,479,479,479,479,479,479,479,479,479,479,479,479,479,479,479,479,479,479,479,479,479,479,479,479,479,479,479,479,479,466,447,404,292,223,118,51],"timestamp_mouse":[14,42,54,75,95,114,136,154,174,195,215,234,256,274,294,314,334,354,375,395,415,436,455,475,496,514,535,555,574,594,614,634,654,675,694,714,736,754,776,794,816,834,855,876,895,915,936,954,974,995,1014,1034,1054,1074,1094,1116,1134,1154,1175,1194,1214,1234,1254,1274,1294,1314,1334,1355,1374,1394,1414,1434,1456,1475,1496,1515,1535,1556,1576,1594,1616,1634,1655,1674,1695,1716,1734,1755,1776,1794,1816,1836,1855,1876,1895,1914,1936,1954,1975,1995,2014,2035,2055,2076,2094,2114,2134,2156,2174,2194,2214,2234,2255,2275,2295,2314,2334,2354,2375,2394,2415,2435,2455,2474,2494,2514,2534,2554,2574,2596,2614,2634,2654,2674,2694,2715,2735,2755,2775,2794,2816,2834,2854,2876,2894,2916,2934,2954,2976,2994,3014,3034,3055,3075,3096,3115,3135,3154,3175,3194,3216,3234,3254,3274,3294,3314,3334,3354,3375,3395,3415,3435,3455],"xSR":741.5,"ySR":469.95,"xT1":424.9,"yT1":0,"xT2":1058.1,"yT2":0,"toosoon":0,"cond_shown":"equaldotsize","ratio_trial":250,"smaller_num":"3","larger_num":"12","correct_side":2,"subjID":"mariana-aguilera-pinzon","gender":"11","age":"No_age","school":"No_school"},{"start_time":1551791246406,"click_time":1551791247747,"finger_time":1551791247228,"fix_duration":615.6696135796316,"trial":44,"RT":822,"MT":519,"sideResp":1,"stimulus":"img/250/randomdotsizeEA/L/3_Ratio_250_L_8_R_2.png","xmouse":[817,817,817,817,817,817,817,817,817,817,817,817,817,817,817,817,817,817,817,817,817,817,817,817,817,817,817,817,817,817,817,817,817,817,817,817,817,817,817,814,809,799,778,727,687,646,627,621,621,621,621,621,621,622,637,645,645,645,645,645,645,640,633,625,615,586,535,500],"ymouse":[482,482,482,482,482,482,482,482,482,482,482,482,482,482,482,482,482,482,482,482,482,482,482,482,482,482,482,482,482,482,482,482,482,482,482,482,482,482,482,480,471,460,429,375,331,248,187,173,173,173,173,173,173,173,177,180,180,180,180,180,180,175,168,159,146,107,67,47],"timestamp_mouse":[8,22,41,62,82,102,121,143,161,181,201,221,241,262,283,301,321,343,361,382,401,421,442,462,481,502,522,541,562,582,601,622,643,662,682,701,722,743,763,781,801,822,843,861,881,901,922,941,961,982,1002,1022,1042,1061,1081,1102,1122,1141,1163,1183,1202,1221,1242,1261,1282,1301,1322,1341],"xSR":741.5,"ySR":469.95,"xT1":424.9,"yT1":0,"xT2":1058.1,"yT2":0,"toosoon":0,"cond_shown":"randomdotsizeEA","ratio_trial":250,"smaller_num":"2","larger_num":"8","correct_side":1,"subjID":"mariana-aguilera-pinzon","gender":"11","age":"No_age","school":"No_school"},{"start_time":1551791249241,"click_time":1551791250587,"finger_time":1551791250007,"fix_duration":250,"trial":45,"RT":766,"MT":580,"sideResp":2,"stimulus":"img/250/equaldotsize/R/6_Ratio_250_L_6_R_24.png","xmouse":[763,763,763,763,763,763,763,763,763,763,763,763,763,763,763,763,763,763,763,763,763,763,763,763,763,763,763,763,763,763,763,763,763,763,763,766,772,792,826,855,904,938,963,967,970,973,974,975,982,987,992,997,1000,1003,1007,1012,1017,1026,1053,1057,1058,1058,1058,1058,1058,1058,1058,1059],"ymouse":[500,500,500,500,500,500,500,500,500,500,500,500,500,500,500,500,500,500,500,500,500,500,500,500,500,500,500,500,500,500,500,500,500,500,500,500,500,483,442,403,351,304,254,234,219,199,190,184,167,155,144,137,135,131,130,129,127,122,102,98,96,96,96,96,96,96,96,95],"timestamp_mouse":[9,33,48,67,86,106,127,146,166,187,206,227,246,266,286,308,327,346,366,388,406,427,448,466,486,506,527,546,566,586,606,626,646,667,686,706,728,746,766,786,807,826,848,866,887,906,926,947,966,987,1008,1027,1047,1067,1086,1107,1126,1147,1166,1187,1206,1226,1247,1266,1287,1308,1327,1346],"xSR":741.5,"ySR":469.95,"xT1":424.9,"yT1":0,"xT2":1058.1,"yT2":0,"toosoon":0,"cond_shown":"equaldotsize","ratio_trial":250,"smaller_num":"6","larger_num":"24","correct_side":2,"subjID":"mariana-aguilera-pinzon","gender":"11","age":"No_age","school":"No_school"},{"start_time":1551791252185,"click_time":1551791253847,"finger_time":1551791253309,"fix_duration":535.5397273573415,"trial":46,"RT":1124,"MT":538,"sideResp":1,"stimulus":"img/900/equaldotanddens/L/10_Ratio_900_L_20_R_18.png","xmouse":[760,760,760,760,760,760,760,760,760,760,760,760,760,760,760,760,760,760,760,760,760,760,760,760,760,760,760,760,760,760,760,760,760,760,760,760,758,752,751,749,749,749,749,749,749,749,749,749,749,749,749,749,749,749,748,747,738,713,688,653,578,578,578,578,578,578,578,578,578,578,578,578,578,578,578,578,578,578,578,578,578,578,578,455],"ymouse":[509,509,509,509,509,509,509,509,509,509,509,509,509,509,509,509,509,509,509,509,509,509,509,509,509,509,509,509,509,509,509,509,509,509,509,509,507,503,502,501,501,501,501,501,501,501,501,501,501,501,501,501,501,501,498,492,442,348,261,170,30,30,30,30,30,30,30,30,30,30,30,30,30,30,30,30,30,30,30,30,30,30,30,7],"timestamp_mouse":[10,34,42,63,82,104,123,142,162,183,204,223,243,264,282,302,322,342,363,382,403,422,442,463,482,502,522,544,563,583,604,622,644,662,683,703,722,743,764,783,802,822,843,863,884,902,922,942,964,983,1002,1024,1042,1062,1082,1102,1124,1143,1164,1182,1202,1222,1243,1262,1282,1303,1323,1342,1362,1382,1402,1423,1442,1462,1483,1502,1523,1543,1562,1582,1603,1623,1642,1662],"xSR":741.5,"ySR":469.95,"xT1":424.9,"yT1":0,"xT2":1058.1,"yT2":0,"toosoon":0,"cond_shown":"equaldotanddens","ratio_trial":900,"smaller_num":"18","larger_num":"20","correct_side":1,"subjID":"mariana-aguilera-pinzon","gender":"11","age":"No_age","school":"No_school"},{"start_time":1551791256752,"click_time":1551791257649,"finger_time":1551791257328,"fix_duration":1384.9516060057365,"trial":47,"RT":576,"MT":321,"sideResp":2,"stimulus":"img/500/equaldotsize/R/15_Ratio_500_L_1_R_2.png","xmouse":[817,817,817,817,817,817,817,817,817,817,817,817,817,817,817,817,817,817,817,817,817,817,817,817,817,819,822,838,850,857,861,862,862,862,862,862,862,862,864,879,912,994,1026,1072,1110],"ymouse":[515,515,515,515,515,515,515,515,515,515,515,515,515,515,515,515,515,515,515,515,515,515,515,515,515,515,515,497,467,447,433,425,418,418,418,418,418,418,416,403,367,255,199,131,74],"timestamp_mouse":[15,35,55,76,95,116,135,155,177,195,215,236,256,276,295,317,336,356,375,395,417,436,456,475,495,515,536,556,576,595,616,636,656,675,696,716,736,755,775,796,817,837,855,876,897],"xSR":741.5,"ySR":469.95,"xT1":424.9,"yT1":0,"xT2":1058.1,"yT2":0,"toosoon":0,"cond_shown":"equaldotsize","ratio_trial":500,"smaller_num":"1","larger_num":"2","correct_side":2,"subjID":"mariana-aguilera-pinzon","gender":"11","age":"No_age","school":"No_school"},{"start_time":1551791259139,"click_time":1551791260409,"finger_time":1551791260049,"fix_duration":250,"trial":48,"RT":910,"MT":360,"sideResp":2,"stimulus":"img/750/equaldotanddens/R/2_Ratio_750_L_6_R_8.png","xmouse":[779,779,779,779,779,779,779,779,779,779,779,779,779,779,779,779,779,779,779,779,779,779,779,779,779,779,779,779,779,779,779,779,779,779,779,779,779,779,779,779,779,779,779,788,807,829,848,866,892,906,915,925,935,964,980,994,1005,1013,1021,1022,1024,1029,1038,1062],"ymouse":[508,508,508,508,508,508,508,508,508,508,508,508,508,508,508,508,508,508,508,508,508,508,508,508,508,508,508,508,508,508,508,508,508,508,508,508,508,508,508,508,508,508,508,501,482,452,422,383,307,263,242,223,204,166,144,131,119,111,102,101,100,99,98,94],"timestamp_mouse":[10,32,49,68,89,108,128,149,168,189,209,228,250,268,289,309,328,349,368,389,408,429,448,469,488,510,530,548,570,589,609,629,648,668,689,710,729,750,768,788,809,828,849,870,890,910,929,949,968,989,1008,1029,1050,1068,1089,1108,1130,1148,1168,1189,1208,1228,1248,1270],"xSR":741.5,"ySR":469.95,"xT1":424.9,"yT1":0,"xT2":1058.1,"yT2":0,"toosoon":0,"cond_shown":"equaldotanddens","ratio_trial":750,"smaller_num":"6","larger_num":"8","correct_side":2,"subjID":"mariana-aguilera-pinzon","gender":"11","age":"No_age","school":"No_school"},{"start_time":1551791261673,"click_time":1551791263307,"finger_time":1551791262468,"fix_duration":605.6225118034209,"trial":49,"RT":795,"MT":839,"sideResp":2,"stimulus":"img/500/equaldotanddens/R/15_Ratio_500_L_1_R_2.png","xmouse":[774,774,774,774,774,774,774,774,774,774,774,774,774,774,774,774,774,774,774,775,775,775,775,775,776,776,776,776,776,776,776,776,776,777,778,787,795,809,832,858,887,977,1036,1090,1108,1122,1143,1154,1166,1175,1182,1191,1196,1199,1202,1202,1202,1202,1202,1202,1202,1202,1202,1201,1195,1185,1177,1177,1177,1176,1175,1171,1169,1168,1166,1166,1164,1163,1162,1161,1160,1158],"ymouse":[557,557,557,557,557,557,557,557,557,557,557,557,557,557,557,557,557,557,557,556,556,556,556,556,556,556,556,556,556,555,555,555,555,555,554,542,527,505,472,435,394,298,252,218,211,202,189,180,172,164,158,147,134,127,121,119,117,116,116,116,116,114,114,111,105,98,91,88,87,85,84,82,82,82,81,81,81,81,81,81,81,81],"timestamp_mouse":[22,34,65,74,96,115,136,155,176,194,214,234,254,275,294,314,335,354,375,395,416,434,454,475,495,515,534,556,575,594,616,634,655,674,695,716,734,755,775,795,814,834,855,875,894,915,935,955,974,994,1015,1034,1054,1075,1095,1115,1134,1155,1175,1194,1214,1234,1254,1274,1295,1315,1335,1356,1374,1395,1416,1435,1454,1476,1495,1515,1534,1556,1576,1595,1615,1634],"xSR":741.5,"ySR":469.95,"xT1":424.9,"yT1":0,"xT2":1058.1,"yT2":0,"toosoon":0,"cond_shown":"equaldotanddens","ratio_trial":500,"smaller_num":"1","larger_num":"2","correct_side":2,"subjID":"mariana-aguilera-pinzon","gender":"11","age":"No_age","school":"No_school"},{"start_time":1551791269608,"click_time":1551791270809,"finger_time":1551791269868,"fix_duration":500.53431715161787,"trial":50,"RT":260,"MT":941,"sideResp":1,"stimulus":"img/750/randomdotsizeEA/L/8_Ratio_750_L_4_R_3.png","xmouse":[831,831,831,831,831,831,831,831,831,831,833,836,842,847,854,857,859,862,864,865,865,865,865,865,865,865,865,865,865,865,863,860,859,857,848,820,785,753,717,674,667,664,659,654,628,622,618,615,612,599,591,585,578,570,565,562,557,550,545,524],"ymouse":[478,478,478,478,478,478,478,478,478,477,475,472,465,460,451,442,435,425,416,414,414,414,414,414,414,414,414,414,414,414,413,413,413,412,411,404,390,371,352,325,320,317,312,304,261,245,227,209,194,154,137,123,108,92,84,81,76,73,69,54],"timestamp_mouse":[21,44,60,79,100,119,139,161,179,199,219,240,260,279,299,320,340,360,381,400,420,441,460,480,499,520,539,559,579,600,619,640,660,680,699,719,740,759,779,800,821,840,859,879,900,919,940,959,980,999,1019,1039,1060,1081,1099,1119,1139,1160,1180,1201],"xSR":741.5,"ySR":469.95,"xT1":424.9,"yT1":0,"xT2":1058.1,"yT2":0,"toosoon":0,"cond_shown":"r