[{"start_time":1551790113453,"click_time":1551790121732,"finger_time":1551790113462,"fix_duration":577.8378620233585,"trial":0,"RT":9,"MT":8270,"sideResp":1,"stimulus":[],"xmouse":[816,816,816,816,816,816,816,816,816,816,816,816,816,816,816,816,816,816,816,816,816,816,816,816,816,816,816,816,816,816,816,816,816,816,816,816,816,816,816,816,816,816,816,816,816,816,816,816,816,816,816,816,816,816,816,816,816,816,816,816,816,816,816,816,816,816,816,816,816,816,816,816,816,775,755,743,735,724,712,696,643,606,560,512,413,383,362,347,338,330,329,328,328,328,328,327,326,325,325,325,327,330,332,334,339,343,343,343,343,348,353,354,354,354,354,354,354,354,354,354,354,354,354,355,361,366,368,374,378,379,379,379,379,382,399,409,415,417,417,417,417,417,417,417,417,417,417,417,417,417,417,417,417,417,417,417,417,417,417,417,417,417,417,417,417,417,417,417,417,417,417,417,417,417,417,417,417,417,417,417,417,417,417,417,417,417,417,417,417,417,417,417,417,417,417,417,417,417,417,417,417,417,417,417,417,417,417,417,417,417,417,417,417,417,417,417,417,417,417,417,417,417,417,417,417,417,417,417,417,417,417,417,417,417,417,417,417,417,417,417,417,417,419,421,426,427,427,427,427,427,427,427,427,427,427,427,427,427,427,427,427,427,427,427,427,427,427,427,427,427,427,427,427,427,427,427,427,427,427,427,427,427,427,427,427,427,427,427,427,427,427,424,422,418,412,410,409,409,409,409,409,409,409,409,409,409,409,409,409,409,409,409,409,409,409,409,409,409,409,409,409,409,409,409,413,414,415,417,419,420,423,424,424,424,424,424,424,424,424,424,424,424,424,424,424,424,424,423,421,415,412,411,411,411,411,411,411,411,411,411,411,411,411,411,411,411,411,411,411,411,411,411,411,411,411,411,411,411,411,411,411,411,411,411,411,411,411,411,416,421,417,398,384,374,365,364,364,363,363,363,363,362,361,361,360,355,353,350,349,345,339,327,316,308],"ymouse":[301,301,301,301,301,301,301,301,301,301,301,301,301,301,301,301,301,301,301,301,301,301,301,301,301,301,301,301,301,301,301,301,301,301,301,301,301,301,301,301,301,301,301,301,301,301,301,301,301,301,301,301,301,301,301,301,301,301,301,301,301,301,301,301,301,301,301,301,301,301,301,301,301,3,35,58,76,96,117,141,209,248,291,331,417,438,454,465,472,480,482,483,483,483,483,484,488,496,502,508,514,517,518,518,518,518,518,518,518,518,518,518,518,518,518,518,518,518,518,518,518,518,518,518,525,529,531,532,533,533,533,533,533,533,530,528,528,528,528,528,528,528,528,528,528,528,528,528,528,528,528,528,528,528,528,528,528,528,528,528,528,528,528,528,528,528,528,528,528,528,528,528,528,528,528,528,528,528,528,528,528,528,528,528,528,528,528,528,528,528,528,528,528,528,528,528,528,528,528,528,528,528,528,528,528,528,528,528,528,528,528,528,528,528,528,528,528,528,528,528,528,528,528,528,528,528,528,528,528,528,528,528,528,528,528,528,528,528,528,528,528,528,528,528,527,526,526,526,526,526,526,526,526,526,526,526,526,526,526,526,526,526,526,526,526,526,526,526,526,526,526,526,526,526,526,526,526,526,526,526,526,526,526,526,526,526,526,526,526,526,526,529,531,533,538,542,542,542,542,542,542,542,542,542,542,542,542,542,542,542,542,542,542,542,542,542,542,542,542,542,542,542,542,541,534,531,526,520,514,511,501,496,494,491,490,489,489,489,489,489,489,489,489,489,489,489,489,492,493,502,505,507,508,508,508,508,508,508,508,508,508,508,508,508,508,508,508,508,508,508,508,508,508,508,508,508,508,508,508,508,508,508,508,508,508,508,507,500,480,409,370,325,290,266,228,222,219,218,218,216,205,197,192,188,181,171,166,160,153,134,112,89,67,52],"timestamp_mouse":[9,46,59,80,100,119,139,160,180,199,220,239,259,279,300,318,338,359,379,400,419,439,460,478,500,520,539,560,579,598,619,640,659,679,700,719,739,760,780,799,818,838,859,879,900,919,939,958,979,998,1019,1040,1059,1079,1098,1119,1140,1160,1179,1198,1219,1239,1259,1280,1298,1319,1339,1360,1379,1400,1420,1439,1459,1480,1500,1519,1539,1558,1578,1600,1619,1640,1659,1679,1699,1718,1740,1760,1779,1799,1819,1839,1859,1879,1898,1918,1939,1959,1979,1999,2019,2038,2059,2080,2099,2120,2139,2159,2179,2199,2218,2239,2260,2279,2300,2319,2339,2358,2380,2400,2419,2439,2458,2479,2499,2518,2540,2560,2579,2600,2619,2639,2659,2680,2699,2718,2740,2759,2779,2799,2819,2838,2859,2880,2900,2918,2938,2960,2980,2999,3020,3039,3059,3079,3099,3119,3140,3160,3179,3199,3219,3240,3259,3279,3299,3320,3338,3360,3378,3399,3419,3439,3458,3480,3498,3519,3539,3559,3579,3598,3619,3639,3660,3678,3700,3720,3740,3759,3779,3799,3819,3839,3859,3880,3899,3918,3940,3959,3978,3999,4020,4039,4059,4080,4100,4120,4139,4160,4180,4199,4218,4240,4260,4280,4300,4319,4338,4360,4379,4398,4418,4439,4458,4478,4498,4519,4540,4559,4579,4600,4620,4639,4659,4680,4699,4719,4740,4759,4780,4799,4819,4839,4859,4879,4898,4920,4940,4958,4978,4998,5018,5038,5060,5078,5100,5118,5138,5159,5179,5199,5219,5239,5259,5279,5299,5319,5339,5359,5379,5400,5419,5440,5458,5480,5499,5518,5538,5559,5578,5598,5618,5638,5658,5678,5698,5718,5738,5758,5778,5798,5818,5839,5858,5878,5898,5918,5938,5958,5978,5998,6019,6040,6060,6078,6099,6120,6139,6158,6180,6200,6219,6239,6259,6279,6298,6318,6338,6358,6378,6398,6418,6438,6458,6479,6499,6518,6538,6558,6578,6599,6619,6639,6658,6678,6698,6718,6738,6758,6779,6800,6819,6839,6859,6879,6899,6919,6939,6959,6978,6999,7018,7040,7060,7079,7098,7119,7140,7159,7180,7199,7220,7240,7260,7279,7299,7319,7340,7359,7378,7399,7419,7439,7459,7479,7500,7519,7540,7559,7579,7599,7619,7640,7659,7678,7698,7719,7739,7758,7780,7800,7819,7839,7859,7879,7899,7919,7939,7960,7978,7998,8018,8038,8059,8079,8098,8119,8138,8159,8179,8199,8219,8240,8259,8278],"xSR":383.5,"ySR":488.15000000000003,"xT1":210.09999999999997,"yT1":0,"xT2":556.9,"yT2":0,"toosoon":0,"cond_shown":"Congruent","ratio_trial":100,"L_num":11,"L_den":22,"R_num":4,"R_den":10,"correct_side":1,"subjID":"mariana-aguilera-pinzon-1","gender":null,"age":"6","school":"6","test":{"fix_dur":[250,1500],"timestim":1000,"targets_dim":[100,100],"targets_relative_coord":[0.3,0.7],"size_stim":[880,420],"start_dim":[100,100],"size_start":[300,300],"size_fix":60,"samplingrate":20,"img_types":["Congruent","Incongruent"],"ratios":[100,200,300],"rep_conds":19,"nTrials":120,"trials_to_rest":500,"Trials_order":[18,50,58,71,90,76,108,47,85,65,45,75,69,12,64,55,31,25,107,24,3,103,48,91,8,53,95,78,70,15,99,16,11,44,116,29,87,119,101,19,94,117,6,38,22,80,118,7,30,1,56,51,10,36,89,104,111,33,88,43,106,92,98,113,67,14,62,97,68,5,46,109,96,21,32,20,23,110,52,42,115,72,66,82,112,114,81,100,39,61,2,28,77,26,73,86,102,35,74,9,37,59,84,0,27,34,79,105,93,49,17,63,4,41,13,40,57,60,54,83],"cond_shown":["Congruent","Congruent","Congruent","Incongruent","Congruent","Congruent","Congruent","Incongruent","Incongruent","Incongruent","Incongruent","Incongruent","Incongruent","Congruent","Congruent","Incongruent","Incongruent","Incongruent","Incongruent","Congruent","Incongruent","Incongruent","Congruent","Incongruent","Congruent","Incongruent","Incongruent","Congruent","Congruent","Incongruent","Incongruent","Congruent","Incongruent","Congruent","Congruent","Incongruent","Incongruent","Incongruent","Incongruent","Incongruent","Congruent","Incongruent","Congruent","Congruent","Congruent","Congruent","Congruent","Incongruent","Congruent","Incongruent","Congruent","Incongruent","Congruent","Congruent","Incongruent","Congruent","Incongruent","Incongruent","Congruent","Incongruent","Congruent","Congruent","Congruent","Incongruent","Incongruent","Congruent","Congruent","Incongruent","Congruent","Incongruent","Congruent","Incongruent","Congruent","Incongruent","Congruent","Congruent","Incongruent","Congruent","Congruent","Congruent","Incongruent","Congruent","Congruent","Congruent","Congruent","Congruent","Incongruent","Congruent","Incongruent","Incongruent","Congruent","Congruent","Incongruent","Congruent","Incongruent","Congruent","Congruent","Incongruent","Congruent","Incongruent","Incongruent","Incongruent","Congruent","Congruent","Incongruent","Congruent","Incongruent","Incongruent","Incongruent","Incongruent","Incongruent","Incongruent","Congruent","Incongruent","Incongruent","Congruent","Incongruent","Congruent","Congruent","Incongruent"],"ratio_trial":[100,200,300,300,100,300,100,300,100,300,200,200,200,100,300,100,100,100,300,100,200,100,100,100,200,300,300,100,300,200,200,300,300,200,200,300,200,300,300,100,300,200,100,200,300,200,300,100,100,100,200,200,300,100,300,200,200,200,300,100,300,200,200,300,100,200,200,100,200,300,300,100,100,200,200,200,300,200,300,100,100,100,100,300,300,100,200,300,200,100,200,300,300,200,100,200,100,300,200,200,100,300,100,100,200,300,100,200,200,100,300,200,300,300,100,300,200,100,100,300],"left_num":[11,8,8,7,1,20,9,4,6,8,4,3,7,7,20,4,9,6,4,3,11,8,2,8,15,13,1,11,8,4,6,1,13,4,4,3,1,13,3,9,1,11,4,3,4,9,1,2,2,11,8,7,4,12,3,6,4,4,9,1,11,3,6,3,2,20,3,6,9,2,1,2,7,7,13,12,1,9,4,3,8,9,10,24,5,3,7,8,3,3,16,1,4,9,3,9,12,4,9,7,13,2,10,1,7,1,6,7,7,10,1,7,7,4,2,20,7,15,1,1],"right_num":[4,3,10,8,3,5,8,2,7,14,1,11,12,15,14,8,6,13,6,4,3,1,6,1,4,12,3,4,1,14,3,8,12,3,3,4,3,12,4,13,6,3,6,7,1,13,11,6,6,9,2,8,13,13,4,11,14,6,3,8,1,14,7,4,8,9,14,3,4,6,19,8,9,4,14,6,3,4,1,4,6,8,3,2,7,2,4,10,11,4,12,3,2,4,4,4,13,8,13,8,6,6,3,3,4,3,13,4,4,8,2,6,20,6,8,5,12,13,18,2],"left_den":[22,15,15,10,2,25,15,20,10,10,30,4,10,14,25,8,18,10,5,20,20,20,5,20,25,26,2,22,16,6,20,30,26,10,8,6,2,26,6,15,5,20,8,10,10,30,5,4,5,22,15,10,20,30,6,20,6,5,10,2,22,6,12,6,4,25,10,12,20,4,3,4,14,15,26,20,2,20,10,20,16,15,25,30,25,6,15,15,4,6,20,5,20,20,6,20,30,5,30,10,26,4,25,2,15,5,10,15,15,25,2,15,14,5,4,25,10,25,2,2],"right_den":[10,9,12,20,5,10,16,4,14,28,3,20,24,25,28,20,10,26,12,16,4,2,12,2,10,15,15,10,5,30,6,24,15,15,10,20,10,15,20,26,12,4,10,14,10,26,22,15,12,15,6,16,26,26,20,22,30,10,5,20,5,20,10,20,20,15,28,5,16,30,30,20,15,6,20,15,15,16,10,16,10,16,10,4,14,5,6,12,20,10,20,6,4,16,10,16,26,16,26,16,10,30,10,5,6,6,26,6,6,16,10,9,25,12,20,10,24,26,30,10],"correct_side":[1,1,2,1,2,1,1,2,1,1,2,1,1,2,1,1,2,1,1,2,2,2,2,2,1,2,1,1,1,1,2,2,2,1,1,1,1,2,1,1,2,2,2,2,1,2,2,1,2,2,1,1,2,2,1,2,1,1,1,1,1,2,2,1,1,1,2,2,1,1,2,1,2,2,2,1,1,1,1,2,2,1,1,1,2,1,2,2,1,1,1,2,2,1,1,1,2,1,2,1,2,1,1,2,2,2,1,2,2,2,1,2,2,1,1,1,1,1,2,1],"img_shown":["img2/100/Congruent/L/C_Dist_100_LN_11_LD_22_RN_4_RD_10_0.png","img2/200/Congruent/L/C_Dist_200_LN_8_LD_15_RN_3_RD_9_0.png","img2/300/Congruent/R/C_Dist_300_LN_8_LD_15_RN_10_RD_12_1.png","img2/300/Incongruent/L/I_Dist_300_LN_7_LD_10_RN_8_RD_20_0.png","img2/100/Congruent/R/C_Dist_100_LN_1_LD_2_RN_3_RD_5_1.png","img2/300/Congruent/L/C_Dist_300_LN_20_LD_25_RN_5_RD_10_0.png","img2/100/Congruent/L/C_Dist_100_LN_9_LD_15_RN_8_RD_16_0.png","img2/300/Incongruent/R/I_Dist_300_LN_4_LD_20_RN_2_RD_4_1.png","img2/100/Incongruent/L/I_Dist_100_LN_6_LD_10_RN_7_RD_14_0.png","img2/300/Incongruent/L/I_Dist_300_LN_8_LD_10_RN_14_RD_28_0.png","img2/200/Incongruent/R/I_Dist_200_LN_4_LD_30_RN_1_RD_3_1.png","img2/200/Incongruent/L/I_Dist_200_LN_3_LD_4_RN_11_RD_20_0.png","img2/200/Incongruent/L/I_Dist_200_LN_7_LD_10_RN_12_RD_24_0.png","img2/100/Congruent/R/C_Dist_100_LN_7_LD_14_RN_15_RD_25_1.png","img2/300/Congruent/L/C_Dist_300_LN_20_LD_25_RN_14_RD_28_0.png","img2/100/Incongruent/L/I_Dist_100_LN_4_LD_8_RN_8_RD_20_0.png","img2/100/Incongruent/R/I_Dist_100_LN_9_LD_18_RN_6_RD_10_1.png","img2/100/Incongruent/L/I_Dist_100_LN_6_LD_10_RN_13_RD_26_0.png","img2/300/Incongruent/L/I_Dist_300_LN_4_LD_5_RN_6_RD_12_0.png","img2/100/Congruent/R/C_Dist_100_LN_3_LD_20_RN_4_RD_16_1.png","img2/200/Incongruent/R/I_Dist_200_LN_11_LD_20_RN_3_RD_4_1.png","img2/100/Incongruent/R/I_Dist_100_LN_8_LD_20_RN_1_RD_2_1.png","img2/100/Congruent/R/C_Dist_100_LN_2_LD_5_RN_6_RD_12_1.png","img2/100/Incongruent/R/I_Dist_100_LN_8_LD_20_RN_1_RD_2_1.png","img2/200/Congruent/L/C_Dist_200_LN_15_LD_25_RN_4_RD_10_0.png","img2/300/Incongruent/R/I_Dist_300_LN_13_LD_26_RN_12_RD_15_1.png","img2/300/Incongruent/L/I_Dist_300_LN_1_LD_2_RN_3_RD_15_0.png","img2/100/Congruent/L/C_Dist_100_LN_11_LD_22_RN_4_RD_10_0.png","img2/300/Congruent/L/C_Dist_300_LN_8_LD_16_RN_1_RD_5_0.png","img2/200/Incongruent/L/I_Dist_200_LN_4_LD_6_RN_14_RD_30_0.png","img2/200/Incongruent/R/I_Dist_200_LN_6_LD_20_RN_3_RD_6_1.png","img2/300/Congruent/R/C_Dist_300_LN_1_LD_30_RN_8_RD_24_1.png","img2/300/Incongruent/R/I_Dist_300_LN_13_LD_26_RN_12_RD_15_1.png","img2/200/Congruent/L/C_Dist_200_LN_4_LD_10_RN_3_RD_15_0.png","img2/200/Congruent/L/C_Dist_200_LN_4_LD_8_RN_3_RD_10_0.png","img2/300/Incongruent/L/I_Dist_300_LN_3_LD_6_RN_4_RD_20_0.png","img2/200/Incongruent/L/I_Dist_200_LN_1_LD_2_RN_3_RD_10_0.png","img2/300/Incongruent/R/I_Dist_300_LN_13_LD_26_RN_12_RD_15_1.png","img2/300/Incongruent/L/I_Dist_300_LN_3_LD_6_RN_4_RD_20_0.png","img2/100/Incongruent/L/I_Dist_100_LN_9_LD_15_RN_13_RD_26_0.png","img2/300/Congruent/R/C_Dist_300_LN_1_LD_5_RN_6_RD_12_1.png","img2/200/Incongruent/R/I_Dist_200_LN_11_LD_20_RN_3_RD_4_1.png","img2/100/Congruent/R/C_Dist_100_LN_4_LD_8_RN_6_RD_10_1.png","img2/200/Congruent/R/C_Dist_200_LN_3_LD_10_RN_7_RD_14_1.png","img2/300/Congruent/L/C_Dist_300_LN_4_LD_10_RN_1_RD_10_0.png","img2/200/Congruent/R/C_Dist_200_LN_9_LD_30_RN_13_RD_26_1.png","img2/300/Congruent/R/C_Dist_300_LN_1_LD_5_RN_11_RD_22_1.png","img2/100/Incongruent/L/I_Dist_100_LN_2_LD_4_RN_6_RD_15_0.png","img2/100/Congruent/R/C_Dist_100_LN_2_LD_5_RN_6_RD_12_1.png","img2/100/Incongruent/R/I_Dist_100_LN_11_LD_22_RN_9_RD_15_1.png","img2/200/Congruent/L/C_Dist_200_LN_8_LD_15_RN_2_RD_6_0.png","img2/200/Incongruent/L/I_Dist_200_LN_7_LD_10_RN_8_RD_16_0.png","img2/300/Congruent/R/C_Dist_300_LN_4_LD_20_RN_13_RD_26_1.png","img2/100/Congruent/R/C_Dist_100_LN_12_LD_30_RN_13_RD_26_1.png","img2/300/Incongruent/L/I_Dist_300_LN_3_LD_6_RN_4_RD_20_0.png","img2/200/Congruent/R/C_Dist_200_LN_6_LD_20_RN_11_RD_22_1.png","img2/200/Incongruent/L/I_Dist_200_LN_4_LD_6_RN_14_RD_30_0.png","img2/200/Incongruent/L/I_Dist_200_LN_4_LD_5_RN_6_RD_10_0.png","img2/300/Congruent/L/C_Dist_300_LN_9_LD_10_RN_3_RD_5_0.png","img2/100/Incongruent/L/I_Dist_100_LN_1_LD_2_RN_8_RD_20_0.png","img2/300/Congruent/L/C_Dist_300_LN_11_LD_22_RN_1_RD_5_0.png","img2/200/Congruent/R/C_Dist_200_LN_3_LD_6_RN_14_RD_20_1.png","img2/200/Congruent/R/C_Dist_200_LN_6_LD_12_RN_7_RD_10_1.png","img2/300/Incongruent/L/I_Dist_300_LN_3_LD_6_RN_4_RD_20_0.png","img2/100/Incongruent/L/I_Dist_100_LN_2_LD_4_RN_8_RD_20_0.png","img2/200/Congruent/L/C_Dist_200_LN_20_LD_25_RN_9_RD_15_0.png","img2/200/Congruent/R/C_Dist_200_LN_3_LD_10_RN_14_RD_28_1.png","img2/100/Incongruent/R/I_Dist_100_LN_6_LD_12_RN_3_RD_5_1.png","img2/200/Congruent/L/C_Dist_200_LN_9_LD_20_RN_4_RD_16_0.png","img2/300/Incongruent/L/I_Dist_300_LN_2_LD_4_RN_6_RD_30_0.png","img2/300/Congruent/R/C_Dist_300_LN_1_LD_3_RN_19_RD_30_1.png","img2/100/Incongruent/L/I_Dist_100_LN_2_LD_4_RN_8_RD_20_0.png","img2/100/Congruent/R/C_Dist_100_LN_7_LD_14_RN_9_RD_15_1.png","img2/200/Incongruent/R/I_Dist_200_LN_7_LD_15_RN_4_RD_6_1.png","img2/200/Congruent/R/C_Dist_200_LN_13_LD_26_RN_14_RD_20_1.png","img2/200/Congruent/L/C_Dist_200_LN_12_LD_20_RN_6_RD_15_0.png","img2/300/Incongruent/L/I_Dist_300_LN_1_LD_2_RN_3_RD_15_0.png","img2/200/Congruent/L/C_Dist_200_LN_9_LD_20_RN_4_RD_16_0.png","img2/300/Congruent/L/C_Dist_300_LN_4_LD_10_RN_1_RD_10_0.png","img2/100/Congruent/R/C_Dist_100_LN_3_LD_20_RN_4_RD_16_1.png","img2/100/Incongruent/R/I_Dist_100_LN_8_LD_16_RN_6_RD_10_1.png","img2/100/Congruent/L/C_Dist_100_LN_9_LD_15_RN_8_RD_16_0.png","img2/100/Congruent/L/C_Dist_100_LN_10_LD_25_RN_3_RD_10_0.png","img2/300/Congruent/L/C_Dist_300_LN_24_LD_30_RN_2_RD_4_0.png","img2/300/Congruent/R/C_Dist_300_LN_5_LD_25_RN_7_RD_14_1.png","img2/100/Congruent/L/C_Dist_100_LN_3_LD_6_RN_2_RD_5_0.png","img2/200/Incongruent/R/I_Dist_200_LN_7_LD_15_RN_4_RD_6_1.png","img2/300/Congruent/R/C_Dist_300_LN_8_LD_15_RN_10_RD_12_1.png","img2/200/Incongruent/L/I_Dist_200_LN_3_LD_4_RN_11_RD_20_0.png","img2/100/Incongruent/L/I_Dist_100_LN_3_LD_6_RN_4_RD_10_0.png","img2/200/Congruent/L/C_Dist_200_LN_16_LD_20_RN_12_RD_20_0.png","img2/300/Congruent/R/C_Dist_300_LN_1_LD_5_RN_3_RD_6_1.png","img2/300/Incongruent/R/I_Dist_300_LN_4_LD_20_RN_2_RD_4_1.png","img2/200/Congruent/L/C_Dist_200_LN_9_LD_20_RN_4_RD_16_0.png","img2/100/Incongruent/L/I_Dist_100_LN_3_LD_6_RN_4_RD_10_0.png","img2/200/Congruent/L/C_Dist_200_LN_9_LD_20_RN_4_RD_16_0.png","img2/100/Congruent/R/C_Dist_100_LN_12_LD_30_RN_13_RD_26_1.png","img2/300/Incongruent/L/I_Dist_300_LN_4_LD_5_RN_8_RD_16_0.png","img2/200/Congruent/R/C_Dist_200_LN_9_LD_30_RN_13_RD_26_1.png","img2/200/Incongruent/L/I_Dist_200_LN_7_LD_10_RN_8_RD_16_0.png","img2/100/Incongruent/R/I_Dist_100_LN_13_LD_26_RN_6_RD_10_1.png","img2/300/Incongruent/L/I_Dist_300_LN_2_LD_4_RN_6_RD_30_0.png","img2/100/Congruent/L/C_Dist_100_LN_10_LD_25_RN_3_RD_10_0.png","img2/100/Congruent/R/C_Dist_100_LN_1_LD_2_RN_3_RD_5_1.png","img2/200/Incongruent/R/I_Dist_200_LN_7_LD_15_RN_4_RD_6_1.png","img2/300/Congruent/R/C_Dist_300_LN_1_LD_5_RN_3_RD_6_1.png","img2/100/Incongruent/L/I_Dist_100_LN_6_LD_10_RN_13_RD_26_0.png","img2/200/Incongruent/R/I_Dist_200_LN_7_LD_15_RN_4_RD_6_1.png","img2/200/Incongruent/R/I_Dist_200_LN_7_LD_15_RN_4_RD_6_1.png","img2/100/Incongruent/R/I_Dist_100_LN_10_LD_25_RN_8_RD_16_1.png","img2/300/Incongruent/L/I_Dist_300_LN_1_LD_2_RN_2_RD_10_0.png","img2/200/Incongruent/R/I_Dist_200_LN_7_LD_15_RN_6_RD_9_1.png","img2/300/Congruent/R/C_Dist_300_LN_7_LD_14_RN_20_RD_25_1.png","img2/300/Incongruent/L/I_Dist_300_LN_4_LD_5_RN_6_RD_12_0.png","img2/100/Incongruent/L/I_Dist_100_LN_2_LD_4_RN_8_RD_20_0.png","img2/300/Congruent/L/C_Dist_300_LN_20_LD_25_RN_5_RD_10_0.png","img2/200/Incongruent/L/I_Dist_200_LN_7_LD_10_RN_12_RD_24_0.png","img2/100/Congruent/L/C_Dist_100_LN_15_LD_25_RN_13_RD_26_0.png","img2/100/Congruent/R/C_Dist_100_LN_1_LD_2_RN_18_RD_30_1.png","img2/300/Incongruent/L/I_Dist_300_LN_1_LD_2_RN_2_RD_10_0.png"],"dist100_C":[["C_Dist_100_LN_10_LD_25_RN_3_RD_10_0.png","C_Dist_100_LN_11_LD_22_RN_4_RD_10_0.png","C_Dist_100_LN_11_LD_22_RN_6_RD_15_0.png","C_Dist_100_LN_15_LD_25_RN_13_RD_26_0.png","C_Dist_100_LN_3_LD_6_RN_2_RD_5_0.png","C_Dist_100_LN_6_LD_20_RN_5_RD_25_0.png","C_Dist_100_LN_8_LD_16_RN_2_RD_5_0.png","C_Dist_100_LN_9_LD_15_RN_8_RD_16_0.png"],["C_Dist_100_LN_1_LD_2_RN_18_RD_30_1.png","C_Dist_100_LN_1_LD_2_RN_3_RD_5_1.png","C_Dist_100_LN_12_LD_30_RN_13_RD_26_1.png","C_Dist_100_LN_2_LD_5_RN_11_RD_22_1.png","C_Dist_100_LN_2_LD_5_RN_6_RD_12_1.png","C_Dist_100_LN_3_LD_20_RN_4_RD_16_1.png","C_Dist_100_LN_4_LD_10_RN_15_RD_30_1.png","C_Dist_100_LN_4_LD_8_RN_6_RD_10_1.png","C_Dist_100_LN_6_LD_12_RN_15_RD_25_1.png","C_Dist_100_LN_7_LD_14_RN_15_RD_25_1.png","C_Dist_100_LN_7_LD_14_RN_9_RD_15_1.png"]],"dist100_I":[["I_Dist_100_LN_1_LD_2_RN_8_RD_20_0.png","I_Dist_100_LN_2_LD_4_RN_6_RD_15_0.png","I_Dist_100_LN_2_LD_4_RN_8_RD_20_0.png","I_Dist_100_LN_3_LD_5_RN_11_RD_22_0.png","I_Dist_100_LN_3_LD_5_RN_8_RD_16_0.png","I_Dist_100_LN_3_LD_6_RN_4_RD_10_0.png","I_Dist_100_LN_3_LD_9_RN_7_RD_30_0.png","I_Dist_100_LN_4_LD_8_RN_8_RD_20_0.png","I_Dist_100_LN_6_LD_10_RN_11_RD_22_0.png","I_Dist_100_LN_6_LD_10_RN_13_RD_26_0.png","I_Dist_100_LN_6_LD_10_RN_7_RD_14_0.png","I_Dist_100_LN_9_LD_10_RN_20_RD_25_0.png","I_Dist_100_LN_9_LD_15_RN_13_RD_26_0.png","I_Dist_100_LN_9_LD_15_RN_14_RD_28_0.png"],["I_Dist_100_LN_10_LD_25_RN_8_RD_16_1.png","I_Dist_100_LN_10_LD_25_RN_9_RD_18_1.png","I_Dist_100_LN_11_LD_22_RN_9_RD_15_1.png","I_Dist_100_LN_12_LD_24_RN_9_RD_15_1.png","I_Dist_100_LN_12_LD_30_RN_2_RD_4_1.png","I_Dist_100_LN_13_LD_26_RN_12_RD_20_1.png","I_Dist_100_LN_13_LD_26_RN_6_RD_10_1.png","I_Dist_100_LN_17_LD_30_RN_10_RD_15_1.png","I_Dist_100_LN_6_LD_12_RN_3_RD_5_1.png","I_Dist_100_LN_8_LD_16_RN_6_RD_10_1.png","I_Dist_100_LN_8_LD_20_RN_1_RD_2_1.png","I_Dist_100_LN_9_LD_18_RN_6_RD_10_1.png"]],"dist100_S":[["E_Dist_100_LN_2_LD_12_RN_2_RD_30_0.png","E_Dist_100_LN_6_LD_10_RN_6_RD_12_0.png"],["E_Dist_100_LN_6_LD_12_RN_6_RD_10_1.png"]],"dist200_C":[["C_Dist_200_LN_11_LD_22_RN_3_RD_10_0.png","C_Dist_200_LN_12_LD_15_RN_6_RD_10_0.png","C_Dist_200_LN_12_LD_20_RN_6_RD_15_0.png","C_Dist_200_LN_14_LD_28_RN_6_RD_20_0.png","C_Dist_200_LN_15_LD_25_RN_4_RD_10_0.png","C_Dist_200_LN_16_LD_20_RN_12_RD_20_0.png","C_Dist_200_LN_16_LD_30_RN_9_RD_27_0.png","C_Dist_200_LN_20_LD_25_RN_9_RD_15_0.png","C_Dist_200_LN_21_LD_30_RN_2_RD_4_0.png","C_Dist_200_LN_4_LD_10_RN_3_RD_15_0.png","C_Dist_200_LN_4_LD_8_RN_3_RD_10_0.png","C_Dist_200_LN_6_LD_15_RN_3_RD_15_0.png","C_Dist_200_LN_7_LD_21_RN_2_RD_15_0.png","C_Dist_200_LN_8_LD_15_RN_2_RD_6_0.png","C_Dist_200_LN_8_LD_15_RN_3_RD_9_0.png","C_Dist_200_LN_8_LD_15_RN_7_RD_21_0.png","C_Dist_200_LN_9_LD_20_RN_4_RD_16_0.png"],["C_Dist_200_LN_1_LD_2_RN_21_RD_30_1.png","C_Dist_200_LN_13_LD_26_RN_14_RD_20_1.png","C_Dist_200_LN_3_LD_10_RN_11_RD_22_1.png","C_Dist_200_LN_3_LD_10_RN_14_RD_28_1.png","C_Dist_200_LN_3_LD_10_RN_7_RD_14_1.png","C_Dist_200_LN_3_LD_12_RN_9_RD_20_1.png","C_Dist_200_LN_3_LD_6_RN_14_RD_20_1.png","C_Dist_200_LN_5_LD_10_RN_14_RD_20_1.png","C_Dist_200_LN_6_LD_12_RN_7_RD_10_1.png","C_Dist_200_LN_6_LD_20_RN_11_RD_22_1.png","C_Dist_200_LN_7_LD_15_RN_18_RD_27_1.png","C_Dist_200_LN_9_LD_30_RN_13_RD_26_1.png"]],"dist200_I":[["I_Dist_200_LN_1_LD_2_RN_3_RD_10_0.png","I_Dist_200_LN_1_LD_3_RN_2_RD_15_0.png","I_Dist_200_LN_3_LD_4_RN_11_RD_20_0.png","I_Dist_200_LN_4_LD_5_RN_6_RD_10_0.png","I_Dist_200_LN_4_LD_6_RN_14_RD_30_0.png","I_Dist_200_LN_7_LD_10_RN_12_RD_24_0.png","I_Dist_200_LN_7_LD_10_RN_14_RD_28_0.png","I_Dist_200_LN_7_LD_10_RN_8_RD_16_0.png"],["I_Dist_200_LN_11_LD_20_RN_3_RD_4_1.png","I_Dist_200_LN_14_LD_30_RN_12_RD_18_1.png","I_Dist_200_LN_14_LD_30_RN_6_RD_9_1.png","I_Dist_200_LN_3_LD_10_RN_1_RD_2_1.png","I_Dist_200_LN_4_LD_30_RN_1_RD_3_1.png","I_Dist_200_LN_6_LD_20_RN_3_RD_6_1.png","I_Dist_200_LN_7_LD_15_RN_4_RD_6_1.png","I_Dist_200_LN_7_LD_15_RN_6_RD_9_1.png","I_Dist_200_LN_9_LD_15_RN_8_RD_10_1.png"]],"dist200_S":[["E_Dist_200_LN_3_LD_6_RN_3_RD_10_0.png"],["E_Dist_200_LN_3_LD_10_RN_3_RD_6_1.png"]],"dist300_C":[["C_Dist_300_LN_11_LD_22_RN_1_RD_5_0.png","C_Dist_300_LN_11_LD_22_RN_2_RD_10_0.png","C_Dist_300_LN_11_LD_22_RN_4_RD_20_0.png","C_Dist_300_LN_12_LD_24_RN_2_RD_10_0.png","C_Dist_300_LN_18_LD_20_RN_9_RD_15_0.png","C_Dist_300_LN_20_LD_25_RN_13_RD_26_0.png","C_Dist_300_LN_20_LD_25_RN_14_RD_28_0.png","C_Dist_300_LN_20_LD_25_RN_5_RD_10_0.png","C_Dist_300_LN_20_LD_25_RN_8_RD_16_0.png","C_Dist_300_LN_20_LD_25_RN_9_RD_18_0.png","C_Dist_300_LN_24_LD_30_RN_2_RD_4_0.png","C_Dist_300_LN_24_LD_30_RN_8_RD_16_0.png","C_Dist_300_LN_3_LD_6_RN_2_RD_10_0.png","C_Dist_300_LN_4_LD_10_RN_1_RD_10_0.png","C_Dist_300_LN_4_LD_5_RN_2_RD_4_0.png","C_Dist_300_LN_8_LD_16_RN_1_RD_5_0.png","C_Dist_300_LN_9_LD_10_RN_3_RD_5_0.png"],["C_Dist_300_LN_1_LD_20_RN_7_RD_20_1.png","C_Dist_300_LN_1_LD_3_RN_19_RD_30_1.png","C_Dist_300_LN_1_LD_30_RN_8_RD_24_1.png","C_Dist_300_LN_1_LD_5_RN_11_RD_22_1.png","C_Dist_300_LN_1_LD_5_RN_3_RD_6_1.png","C_Dist_300_LN_1_LD_5_RN_6_RD_12_1.png","C_Dist_300_LN_2_LD_10_RN_12_RD_24_1.png","C_Dist_300_LN_2_LD_20_RN_10_RD_25_1.png","C_Dist_300_LN_3_LD_12_RN_11_RD_20_1.png","C_Dist_300_LN_3_LD_6_RN_4_RD_5_1.png","C_Dist_300_LN_4_LD_20_RN_13_RD_26_1.png","C_Dist_300_LN_5_LD_25_RN_6_RD_12_1.png","C_Dist_300_LN_5_LD_25_RN_7_RD_14_1.png","C_Dist_300_LN_7_LD_14_RN_20_RD_25_1.png","C_Dist_300_LN_8_LD_15_RN_10_RD_12_1.png"]],"dist300_I":[["I_Dist_300_LN_1_LD_2_RN_2_RD_10_0.png","I_Dist_300_LN_1_LD_2_RN_3_RD_15_0.png","I_Dist_300_LN_2_LD_4_RN_6_RD_30_0.png","I_Dist_300_LN_3_LD_6_RN_4_RD_20_0.png","I_Dist_300_LN_4_LD_5_RN_6_RD_12_0.png","I_Dist_300_LN_4_LD_5_RN_8_RD_16_0.png","I_Dist_300_LN_7_LD_10_RN_8_RD_20_0.png","I_Dist_300_LN_8_LD_10_RN_14_RD_28_0.png","I_Dist_300_LN_8_LD_10_RN_9_RD_18_0.png"],["I_Dist_300_LN_13_LD_26_RN_12_RD_15_1.png","I_Dist_300_LN_4_LD_20_RN_2_RD_4_1.png"]],"dist300_S":[["E_Dist_300_LN_9_LD_12_RN_9_RD_20_0.png"],["E_Dist_300_LN_18_LD_30_RN_18_RD_20_1.png","E_Dist_300_LN_3_LD_10_RN_3_RD_5_1.png","E_Dist_300_LN_9_LD_20_RN_9_RD_12_1.png"]],"dist500_C":[["C_Dist_500_LN_10_LD_13_RN_7_RD_26_0.png","C_Dist_500_LN_10_LD_15_RN_4_RD_24_0.png","C_Dist_500_LN_12_LD_16_RN_3_RD_12_0.png","C_Dist_500_LN_12_LD_18_RN_4_RD_24_0.png","C_Dist_500_LN_15_LD_18_RN_5_RD_15_0.png","C_Dist_500_LN_15_LD_20_RN_1_RD_4_0.png","C_Dist_500_LN_18_LD_27_RN_1_RD_6_0.png","C_Dist_500_LN_20_LD_24_RN_1_RD_3_0.png","C_Dist_500_LN_20_LD_24_RN_3_RD_9_0.png","C_Dist_500_LN_20_LD_24_RN_7_RD_21_0.png","C_Dist_500_LN_20_LD_28_RN_3_RD_14_0.png","C_Dist_500_LN_21_LD_28_RN_6_RD_24_0.png","C_Dist_500_LN_22_LD_28_RN_2_RD_7_0.png","C_Dist_500_LN_25_LD_30_RN_9_RD_27_0.png","C_Dist_500_LN_4_LD_6_RN_1_RD_6_0.png","C_Dist_500_LN_5_LD_6_RN_2_RD_6_0.png","C_Dist_500_LN_6_LD_9_RN_1_RD_6_0.png","C_Dist_500_LN_7_LD_10_RN_1_RD_5_0.png","C_Dist_500_LN_8_LD_12_RN_1_RD_6_0.png","C_Dist_500_LN_8_LD_12_RN_4_RD_24_0.png"],["C_Dist_500_LN_1_LD_4_RN_12_RD_16_1.png","C_Dist_500_LN_1_LD_4_RN_9_RD_12_1.png","C_Dist_500_LN_1_LD_9_RN_11_RD_18_1.png","C_Dist_500_LN_10_LD_24_RN_22_RD_24_1.png","C_Dist_500_LN_2_LD_12_RN_10_RD_15_1.png","C_Dist_500_LN_2_LD_12_RN_12_RD_18_1.png","C_Dist_500_LN_2_LD_12_RN_4_RD_6_1.png","C_Dist_500_LN_2_LD_24_RN_7_RD_12_1.png","C_Dist_500_LN_2_LD_5_RN_18_RD_20_1.png","C_Dist_500_LN_2_LD_5_RN_9_RD_10_1.png","C_Dist_500_LN_2_LD_8_RN_12_RD_16_1.png","C_Dist_500_LN_2_LD_8_RN_21_RD_28_1.png","C_Dist_500_LN_3_LD_10_RN_4_RD_5_1.png","C_Dist_500_LN_3_LD_12_RN_15_RD_20_1.png","C_Dist_500_LN_3_LD_30_RN_6_RD_10_1.png","C_Dist_500_LN_3_LD_8_RN_14_RD_16_1.png","C_Dist_500_LN_4_LD_16_RN_15_RD_20_1.png","C_Dist_500_LN_4_LD_24_RN_12_RD_18_1.png","C_Dist_500_LN_5_LD_14_RN_6_RD_7_1.png","C_Dist_500_LN_7_LD_21_RN_20_RD_24_1.png","C_Dist_500_LN_7_LD_28_RN_12_RD_16_1.png","C_Dist_500_LN_7_LD_28_RN_9_RD_12_1.png","C_Dist_500_LN_9_LD_27_RN_20_RD_24_1.png"]],"dist500_I":[["I_Dist_500_LN_2_LD_3_RN_4_RD_24_0.png","I_Dist_500_LN_5_LD_6_RN_6_RD_18_0.png","I_Dist_500_LN_7_LD_8_RN_9_RD_24_0.png"],["I_Dist_500_LN_7_LD_21_RN_5_RD_6_1.png"]],"dist500_S":[["E_Dist_500_LN_6_LD_8_RN_6_RD_24_0.png"],["E_Dist_500_LN_2_LD_12_RN_2_RD_3_1.png","E_Dist_500_LN_6_LD_24_RN_6_RD_8_1.png"]]}},{"start_time":1551790127475,"click_time":1551790129133,"finger_time":1551790128772,"fix_duration":582.5582671551915,"trial":1,"RT":1297,"MT":361,"sideResp":1,"stimulus":[],"xmouse":[774,774,774,774,774,774,774,774,774,774,774,774,774,774,774,774,774,774,774,774,774,774,774,774,774,774,774,774,774,774,774,774,774,774,774,774,774,774,774,774,774,774,774,774,774,774,774,774,774,774,774,774,774,774,774,774,774,774,774,774,774,774,774,760,747,729,713,697,680,663,660,653,637,637,637,637,637,637,637,637,637,527,511],"ymouse":[577,577,577,577,577,577,577,577,577,577,577,577,577,577,577,577,577,577,577,577,577,577,577,577,577,577,577,577,577,577,577,577,577,577,577,577,577,577,577,577,577,577,577,577,577,577,577,577,577,577,577,577,577,577,577,577,577,577,577,577,577,570,564,514,468,413,355,298,239,134,95,56,5,5,5,5,5,5,5,5,5,22,33],"timestamp_mouse":[17,37,57,78,97,117,137,157,177,197,217,236,258,276,296,317,336,356,376,397,416,436,456,476,496,516,536,556,577,596,616,636,656,676,696,716,738,757,778,798,818,838,858,878,897,917,937,957,977,997,1017,1037,1057,1077,1098,1117,1137,1157,1177,1197,1217,1238,1258,1277,1297,1317,1338,1357,1377,1397,1418,1438,1457,1477,1497,1518,1537,1558,1577,1597,1617,1637,1658],"xSR":741.5,"ySR":501.8,"xT1":424.9,"yT1":0,"xT2":1058.1,"yT2":0,"toosoon":0,"cond_shown":"Congruent","ratio_trial":200,"L_num":8,"L_den":15,"R_num":3,"R_den":9,"correct_side":1,"subjID":"mariana-aguilera-pinzon-1","gender":null,"school":"6","age":"6"},{"start_time":1551790131798,"click_time":1551790133371,"finger_time":1551790133071,"fix_duration":663.689714422644,"trial":2,"RT":1273,"MT":300,"sideResp":2,"stimulus":[],"xmouse":[810,810,810,810,810,810,810,810,810,810,810,810,810,810,810,810,810,810,810,810,810,810,810,810,810,810,810,810,810,810,810,810,810,810,810,810,810,810,810,810,810,810,810,810,810,810,810,810,810,810,810,810,810,810,810,810,810,810,810,810,810,814,817,844,871,895,916,959,976,990,1002,1014,1038,1049,1063,1079,1091,1100,1113],"ymouse":[538,538,538,538,538,538,538,538,538,538,538,538,538,538,538,538,538,538,538,538,538,538,538,538,538,538,538,538,538,538,538,538,538,538,538,538,538,538,538,538,538,538,538,538,538,538,538,538,538,538,538,538,538,538,538,538,538,538,538,538,538,532,524,468,420,378,339,269,249,232,219,206,183,173,161,144,130,118,96],"timestamp_mouse":[14,35,54,75,94,114,134,155,174,194,214,234,254,274,294,314,334,354,374,394,414,434,454,474,494,514,534,554,574,594,615,634,654,674,694,714,734,754,774,794,814,834,854,874,894,914,934,954,974,994,1014,1034,1054,1075,1094,1114,1134,1153,1175,1193,1213,1233,1254,1273,1294,1313,1334,1355,1373,1393,1413,1433,1455,1473,1494,1513,1533,1554,1573],"xSR":741.5,"ySR":501.8,"xT1":424.9,"yT1":0,"xT2":1058.1,"yT2":0,"toosoon":0,"cond_shown":"Congruent","ratio_trial":300,"L_num":8,"L_den":15,"R_num":10,"R_den":12,"correct_side":2,"subjID":"mariana-aguilera-pinzon-1","gender":null,"school":"6","age":"6"},{"start_time":1551790136088,"click_time":1551790137612,"finger_time":1551790136771,"fix_duration":1235.3875196997562,"trial":3,"RT":683,"MT":841,"sideResp":2,"stimulus":[],"xmouse":[795,795,795,795,795,795,795,795,795,795,795,795,795,795,795,795,795,795,795,795,795,795,795,795,795,795,795,795,795,795,795,797,806,815,818,818,818,818,818,818,818,818,818,818,876,950,1031,1106,1193,1224,1242,1261,1261,1261,1261,1261,1261,1261,1261,1261,1261,1261,1261,1261,1261,1261,1261,1261,1261,1261,1261,1261,1261,1261,1261,1261,1085],"ymouse":[532,532,532,532,532,532,532,532,532,532,532,532,532,532,532,532,532,532,532,532,532,532,532,532,532,532,532,532,532,532,532,526,515,505,501,501,501,501,501,501,501,501,500,500,459,387,298,219,115,70,41,4,4,4,4,4,4,4,4,4,4,4,4,4,4,4,4,4,4,4,4,4,4,4,4,4,6],"timestamp_mouse":[3,25,43,64,84,105,124,144,164,185,204,224,244,265,284,304,324,344,363,383,403,423,443,464,483,504,523,543,564,583,604,623,644,663,683,703,724,744,764,784,804,824,843,863,884,904,925,945,964,984,1003,1024,1044,1064,1085,1104,1125,1144,1164,1185,1205,1225,1245,1264,1284,1305,1324,1344,1364,1385,1404,1425,1445,1464,1485,1504,1524],"xSR":741.5,"ySR":501.8,"xT1":424.9,"yT1":0,"xT2":1058.1,"yT2":0,"toosoon":0,"cond_shown":"Incongruent","ratio_trial":300,"L_num":7,"L_den":10,"R_num":8,"R_den":20,"correct_side":1,"subjID":"mariana-aguilera-pinzon-1","gender":null,"school":"6","age":"6"},{"start_time":1551790140942,"click_time":1551790142893,"finger_time":1551790141951,"fix_duration":549.7345332311661,"trial":4,"RT":1009,"MT":942,"sideResp":2,"stimulus":[],"xmouse":[778,778,778,778,778,778,778,778,778,778,778,778,778,778,778,778,778,778,778,778,778,778,778,778,778,778,778,778,778,778,778,778,778,778,778,778,778,778,778,778,778,778,778,778,778,778,778,778,778,784,814,891,938,994,1062,1135,1283,1336,1375,1404,1412,1412,1412,1412,1412,1412,1412,1412,1412,1410,1376,1357,1339,1325,1319,1315,1315,1315,1314,1314,1300,1293,1284,1273,1258,1233,1225,1219,1215,1211,1205,1200,1200,1200,1200,1185,1167,1152],"ymouse":[528,528,528,528,528,528,528,528,528,528,528,528,528,528,528,528,528,528,528,528,528,528,528,528,528,528,528,528,528,528,528,528,528,528,528,528,528,528,528,528,528,528,528,528,528,528,528,528,525,516,484,421,387,345,293,230,138,115,104,91,86,86,86,86,86,86,86,86,86,85,85,85,82,79,78,77,77,77,77,76,71,68,67,65,65,65,65,65,65,65,65,65,65,65,65,63,61,58],"timestamp_mouse":[11,30,50,70,90,110,130,150,170,190,210,230,250,270,290,310,330,350,370,390,410,430,450,470,490,510,530,550,571,590,610,630,650,670,690,710,730,750,770,790,809,829,849,869,889,909,929,949,969,990,1009,1029,1049,1069,1090,1110,1129,1149,1169,1189,1211,1229,1249,1270,1289,1309,1330,1350,1370,1391,1411,1431,1450,1470,1491,1510,1531,1550,1570,1590,1610,1631,1650,1671,1690,1710,1729,1750,1771,1790,1810,1830,1850,1871,1891,1910,1930,1951],"xSR":741.5,"ySR":501.8,"xT1":424.9,"yT1":0,"xT2":1058.1,"yT2":0,"toosoon":0,"cond_shown":"Congruent","ratio_trial":100,"L_num":1,"L_den":2,"R_num":3,"R_den":5,"correct_side":2,"subjID":"mariana-aguilera-pinzon-1","gender":null,"school":"6","age":"6"},{"start_time":1551790146599,"click_time":1551790148173,"finger_time":1551790147252,"fix_duration":1027.3531361421765,"trial":5,"RT":653,"MT":921,"sideResp":1,"stimulus":[],"xmouse":[745,745,745,745,745,745,745,745,745,745,745,745,745,745,745,745,745,745,745,745,745,745,745,745,745,745,745,745,745,745,746,746,748,749,750,750,750,750,750,750,749,747,744,730,721,713,707,703,700,696,690,683,671,666,661,658,655,647,645,643,642,640,640,638,637,633,628,621,621,621,621,619,608,603,596,588,573,537,523],"ymouse":[535,535,535,535,535,535,535,535,535,535,535,535,535,535,535,535,535,535,535,535,535,535,535,535,535,535,535,535,535,535,529,515,473,455,440,429,424,422,420,419,416,414,411,393,382,372,363,348,337,322,306,291,260,249,237,225,211,177,163,151,140,132,127,121,119,118,116,116,115,115,115,115,112,109,105,97,87,63,54],"timestamp_mouse":[14,34,54,73,93,113,133,153,173,193,213,233,253,273,293,313,334,353,372,392,412,432,452,472,492,512,532,552,572,592,613,632,653,672,692,713,732,753,772,792,813,832,852,873,894,912,934,953,973,994,1014,1034,1053,1072,1094,1114,1133,1153,1174,1194,1214,1233,1253,1274,1293,1314,1334,1353,1374,1393,1414,1433,1453,1473,1493,1514,1534,1553,1574],"xSR":741.5,"ySR":501.8,"xT1":424.9,"yT1":0,"xT2":1058.1,"yT2":0,"toosoon":0,"cond_shown":"Congruent","ratio_trial":300,"L_num":20,"L_den":25,"R_num":5,"R_den":10,"correct_side":1,"subjID":"mariana-aguilera-pinzon-1","gender":null,"school":"6","age":"6"},{"start_time":1551790150514,"click_time":1551790152531,"finger_time":1551790151552,"fix_duration":779.790306163848,"trial":6,"RT":1038,"MT":979,"sideResp":1,"stimulus":[],"xmouse":[763,763,763,763,763,763,763,763,763,763,763,763,763,763,763,763,763,763,763,763,763,763,763,763,763,763,763,763,763,763,763,763,763,763,763,763,763,763,763,763,761,760,758,758,758,758,758,758,758,757,752,749,747,746,746,746,746,746,746,746,746,746,746,746,746,745,744,744,744,744,740,737,724,718,714,710,707,698,693,687,680,676,661,651,642,635,629,623,618,613,608,598,567,551,542,538,538,538,536,529,515],"ymouse":[557,557,557,557,557,557,557,557,557,557,557,557,557,557,557,557,557,557,557,557,557,557,557,557,557,557,557,557,557,557,557,557,557,557,557,557,557,557,554,551,543,537,533,533,533,533,533,531,528,520,505,496,487,485,484,484,484,484,484,484,484,484,484,484,480,469,455,419,394,369,320,292,249,234,224,213,207,188,180,173,164,157,141,131,123,117,112,108,107,106,106,105,99,93,88,86,85,85,85,80,70],"timestamp_mouse":[17,38,57,77,97,118,137,157,177,197,217,237,258,277,297,318,337,357,377,397,417,437,457,477,498,519,538,559,579,599,619,638,658,678,698,718,738,758,779,799,818,838,858,878,899,918,938,958,979,999,1019,1038,1058,1078,1098,1118,1138,1159,1179,1199,1219,1238,1258,1279,1299,1319,1338,1358,1379,1399,1419,1438,1459,1478,1499,1518,1538,1558,1579,1598,1619,1638,1659,1679,1698,1718,1738,1757,1777,1797,1817,1838,1857,1878,1897,1917,1938,1958,1978,1997,2017],"xSR":741.5,"ySR":501.8,"xT1":424.9,"yT1":0,"xT2":1058.1,"yT2":0,"toosoon":0,"cond_shown":"Congruent","ratio_trial":100,"L_num":9,"L_den":15,"R_num":8,"R_den":16,"correct_side":1,"subjID":"mariana-aguilera-pinzon-1","gender":null,"school":"6","age":"6"},{"start_time":1551790155112,"click_time":1551790158652,"finger_time":1551790155991,"fix_duration":1040.9275190221392,"trial":7,"RT":879,"MT":2661,"sideResp":1,"stimulus":[],"xmouse":[751,751,751,751,751,751,751,751,751,751,751,751,751,751,751,751,751,751,751,751,751,751,751,751,751,751,751,751,751,751,751,751,751,751,751,751,751,751,753,754,762,772,805,824,849,876,959,993,1009,1025,1040,1058,1071,1073,1074,1076,1077,1079,1081,1083,1083,1088,1089,1091,1093,1093,1093,1093,1093,1093,1093,1085,1073,1060,1051,1043,1038,1033,1033,1033,1033,1026,1020,1010,1000,990,980,963,960,959,956,938,929,918,903,886,867,839,830,826,824,823,820,818,818,818,818,818,818,818,818,818,818,818,818,818,818,818,818,818,818,818,818,818,818,818,818,818,818,818,818,818,818,818,818,817,816,813,812,811,811,810,810,810,810,810,810,810,809,808,808,808,808,808,808,808,808,808,808,808,808,808,808,808,808,808,808,808,808,808,807,800,782,747,690,623,489],"ymouse":[567,567,567,567,567,567,567,567,567,567,567,567,567,567,567,567,567,567,567,567,567,567,567,567,567,567,567,567,567,567,567,567,567,567,567,567,567,566,564,561,551,540,503,481,454,423,329,284,267,252,238,218,196,190,187,185,182,178,173,168,163,152,149,145,142,140,139,139,139,139,139,144,156,168,179,189,195,203,203,203,204,214,221,232,242,249,256,261,261,261,256,215,201,187,176,169,166,166,171,174,176,177,180,182,183,183,183,183,183,183,183,183,183,183,183,183,183,183,183,183,183,183,183,183,183,183,183,183,183,183,183,183,183,183,183,185,189,199,202,205,208,210,211,211,211,211,211,212,214,216,217,217,217,217,217,217,217,217,217,217,217,217,217,217,217,217,217,217,217,217,217,209,194,175,146,108,38],"timestamp_mouse":[20,40,61,80,100,120,140,160,180,201,220,240,260,280,300,320,340,360,380,400,420,440,460,480,501,520,540,560,580,600,619,641,659,681,699,719,739,759,779,800,820,839,859,879,900,919,941,960,980,999,1019,1039,1059,1079,1100,1119,1141,1160,1180,1201,1220,1241,1260,1280,1301,1321,1340,1361,1380,1400,1420,1440,1460,1480,1500,1521,1540,1561,1581,1600,1621,1640,1660,1680,1701,1720,1740,1761,1780,1800,1820,1839,1860,1881,1901,1920,1940,1961,1980,2000,2020,2040,2061,2081,2101,2120,2140,2160,2180,2200,2220,2240,2261,2281,2301,2320,2340,2360,2379,2400,2421,2441,2459,2480,2500,2519,2540,2559,2579,2599,2619,2640,2659,2679,2700,2719,2740,2760,2779,2800,2820,2841,2859,2880,2901,2921,2940,2960,2980,3001,3020,3040,3060,3080,3101,3121,3141,3160,3181,3201,3221,3240,3261,3281,3300,3320,3340,3360,3381,3401,3421,3440,3461,3480,3501,3520,3539],"xSR":741.5,"ySR":501.8,"xT1":424.9,"yT1":0,"xT2":1058.1,"yT2":0,"toosoon":0,"cond_shown":"Incongruent","ratio_trial":300,"L_num":4,"L_den":20,"R_num":2,"R_den":4,"correct_side":2,"subjID":"mariana-aguilera-pinzon-1","gender":null,"school":"6","age":"6"},{"start_time":1551790163198,"click_time":1551790165672,"finger_time":1551790165052,"fix_duration":1065.627098904725,"trial":8,"RT":1854,"MT":620,"sideResp":2,"stimulus":[],"xmouse":[789,789,789,789,789,789,789,789,789,789,789,789,789,789,789,789,789,789,789,789,789,789,789,789,789,789,789,789,789,789,789,789,789,789,789,789,789,789,789,789,789,789,789,789,789,789,789,789,789,789,789,789,789,789,789,789,789,789,789,789,789,789,789,789,789,789,789,789,789,789,789,789,789,789,789,789,789,789,789,789,789,789,789,789,789,789,789,789,789,789,789,791,798,806,814,820,834,853,860,869,875,880,891,896,904,911,916,938,952,970,990,1006,1020,1043,1056,1068,1076,1094,1098,1104,1107,1111,1116,1117],"ymouse":[569,569,569,569,569,569,569,569,569,569,569,569,569,569,569,569,569,569,569,569,569,569,569,569,569,569,569,569,569,569,569,569,569,569,569,569,569,569,569,569,569,569,569,569,569,569,569,569,569,569,569,569,569,569,569,569,569,569,569,569,569,569,569,569,569,569,569,569,569,569,569,569,569,569,569,569,569,569,569,569,569,569,569,569,569,569,569,569,569,562,551,535,486,451,428,408,371,326,308,291,279,270,256,250,242,234,228,214,208,200,192,184,176,158,149,142,136,122,118,114,111,107,101,97],"timestamp_mouse":[14,34,53,75,95,115,135,155,174,195,214,234,254,274,294,314,334,354,374,394,414,434,454,474,494,514,534,554,574,594,614,634,654,674,694,714,734,754,774,794,814,834,854,874,894,914,934,954,974,994,1014,1034,1054,1074,1094,1114,1134,1154,1174,1194,1214,1234,1254,1274,1294,1314,1333,1353,1373,1393,1413,1433,1453,1473,1493,1513,1533,1553,1573,1593,1613,1633,1653,1673,1693,1713,1733,1753,1773,1793,1814,1835,1854,1874,1894,1915,1935,1954,1974,1995,2014,2034,2054,2074,2095,2115,2135,2154,2175,2195,2215,2235,2254,2274,2294,2314,2334,2354,2374,2394,2415,2434,2454,2473],"xSR":741.5,"ySR":501.8,"xT1":424.9,"yT1":0,"xT2":1058.1,"yT2":0,"toosoon":0,"cond_shown":"Incongruent","ratio_trial":100,"L_num":6,"L_den":10,"R_num":7,"R_den":14,"correct_side":1,"subjID":"mariana-aguilera-pinzon-1","gender":null,"school":"6","age":"6"},{"start_time":1551790167784,"click_time":1551790170514,"finger_time":1551790169672,"fix_duration":250,"trial":9,"RT":1888,"MT":842,"sideResp":1,"stimulus":[],"xmouse":[752,752,752,752,752,752,752,752,752,752,752,752,752,752,752,752,752,752,752,752,752,752,752,752,752,752,752,752,752,752,752,752,752,752,752,752,752,752,752,752,752,752,752,752,752,752,752,752,752,752,752,752,752,752,752,752,752,752,752,752,752,752,752,752,752,752,752,752,752,752,752,752,752,752,752,752,752,752,752,752,752,752,752,752,752,752,752,752,752,752,752,752,752,747,740,730,718,707,689,672,664,657,652,647,641,637,633,631,629,628,628,628,628,628,628,628,625,624,621,614,597,583,568,558,548,547,547,547,547,547,546,546,544,539,532,526,520],"ymouse":[547,547,547,547,547,547,547,547,547,547,547,547,547,547,547,547,547,547,547,547,547,547,547,547,547,547,547,547,547,547,547,547,547,547,547,547,547,547,547,547,547,547,547,547,547,547,547,547,547,547,547,547,547,547,547,547,547,547,547,547,547,547,547,547,547,547,547,547,547,547,547,547,547,547,547,547,547,547,547,547,547,547,547,547,547,547,547,547,547,547,547,547,544,521,500,475,449,422,381,331,305,284,264,250,220,202,190,178,172,168,168,166,161,155,139,133,127,125,122,120,114,108,100,94,87,86,86,86,86,86,86,84,81,76,68,63,60],"timestamp_mouse":[8,29,48,68,88,108,128,148,168,188,208,228,247,267,287,307,327,347,367,387,407,428,447,467,487,507,527,547,567,587,607,627,647,667,687,707,727,749,769,789,809,829,849,869,889,908,929,948,968,988,1009,1028,1048,1068,1088,1108,1128,1148,1168,1188,1208,1228,1248,1268,1288,1308,1328,1348,1368,1388,1408,1429,1448,1468,1488,1508,1528,1548,1568,1588,1608,1628,1649,1668,1688,1708,1728,1748,1768,1788,1808,1828,1848,1868,1888,1909,1928,1949,1969,1989,2008,2028,2047,2069,2087,2108,2127,2148,2168,2188,2208,2227,2247,2268,2287,2307,2327,2349,2369,2388,2408,2429,2448,2469,2490,2509,2529,2549,2569,2590,2609,2630,2649,2669,2689,2710,2730],"xSR":741.5,"ySR":501.8,"xT1":424.9,"yT1":0,"xT2":1058.1,"yT2":0,"toosoon":0,"cond_shown":"Incongruent","ratio_trial":300,"L_num":8,"L_den":10,"R_num":14,"R_den":28,"correct_side":1,"subjID":"mariana-aguilera-pinzon-1","gender":null,"school":"6","age":"6"},{"start_time":1551790175067,"click_time":1551790185414,"finger_time":1551790183772,"fix_duration":1274.5586133880906,"trial":10,"RT":8705,"MT":1642,"sideResp":1,"stimulus":[],"xmouse":[799,799,799,799,799,799,799,799,799,799,799,799,799,799,799,799,799,799,799,799,799,799,799,799,799,799,799,799,799,799,799,799,799,799,799,799,799,799,799,799,799,799,799,799,799,799,799,799,799,799,799,799,799,799,799,799,799,799,799,799,799,799,799,799,799,799,799,799,799,799,799,799,799,799,799,799,799,799,799,799,799,799,799,799,799,799,799,799,799,799,799,799,799,799,799,799,799,799,799,799,799,799,799,799,799,799,799,799,799,799,799,799,799,799,799,799,799,799,799,799,799,799,799,799,799,799,799,799,799,799,799,799,799,799,799,799,799,799,799,799,799,799,799,799,799,799,799,799,799,799,799,799,799,799,799,799,799,799,799,799,799,799,799,799,799,799,799,799,799,799,799,799,799,799,799,799,799,799,799,799,799,799,799,799,799,799,799,799,799,799,799,799,799,799,799,799,799,799,799,799,799,799,799,799,799,799,799,799,799,799,799,799,799,799,799,799,799,799,799,799,799,799,799,799,799,799,799,799,799,799,799,799,799,799,799,799,799,799,799,799,799,799,799,799,799,799,799,799,799,799,799,799,799,799,799,799,799,799,799,799,799,799,799,799,799,799,799,799,799,799,799,799,799,799,799,799,799,799,799,799,799,799,799,799,799,799,799,799,799,799,799,799,799,799,799,799,799,799,799,799,799,799,799,799,799,799,799,799,799,799,799,799,799,799,799,799,799,799,799,799,799,799,799,799,799,799,799,799,799,799,799,799,799,799,799,799,799,799,799,799,799,799,799,799,799,799,799,799,799,799,799,799,799,799,799,799,799,799,799,799,799,799,799,799,799,799,799,799,799,799,799,799,799,799,799,799,799,799,799,799,799,799,799,799,799,799,799,799,799,799,799,799,799,799,799,799,799,799,799,799,799,799,799,799,799,799,799,799,799,799,799,799,799,799,799,799,799,799,799,799,799,799,799,799,799,799,799,799,799,799,799,799,799,799,801,826,826,826,824,823,822,822,822,822,822,822,822,820,817,813,808,806,803,799,798,796,796,796,796,796,791,788,785,782,778,767,761,753,746,741,735,732,727,718,710,708,706,705,704,702,692,681,659,638,631,631,627,620,615,612,593,582,578,575,572,567,566,566,566,566,565,564,562,556,554,553,553,553,553,553,553,552,550,546,542,542,540,523],"ymouse":[539,539,539,539,539,539,539,539,539,539,539,539,539,539,539,539,539,539,539,539,539,539,539,539,539,539,539,539,539,539,539,539,539,539,539,539,539,539,539,539,539,539,539,539,539,539,539,539,539,539,539,539,539,539,539,539,539,539,539,539,539,539,539,539,539,539,539,539,539,539,539,539,539,539,539,539,539,539,539,539,539,539,539,539,539,539,539,539,539,539,539,539,539,539,539,539,539,539,539,539,539,539,539,539,539,539,539,539,539,539,539,539,539,539,539,539,539,539,539,539,539,539,539,539,539,539,539,539,539,539,539,539,539,539,539,539,539,539,539,539,539,539,539,539,539,539,539,539,539,539,539,539,539,539,539,539,539,539,539,539,539,539,539,539,539,539,539,539,539,539,539,539,539,539,539,539,539,539,539,539,539,539,539,539,539,539,539,539,539,539,539,539,539,539,539,539,539,539,539,539,539,539,539,539,539,539,539,539,539,539,539,539,539,539,539,539,539,539,539,539,539,539,539,539,539,539,539,539,539,539,539,539,539,539,539,539,539,539,539,539,539,539,539,539,539,539,539,539,539,539,539,539,539,539,539,539,539,539,539,539,539,539,539,539,539,539,539,539,539,539,539,539,539,539,539,539,539,539,539,539,539,539,539,539,539,539,539,539,539,539,539,539,539,539,539,539,539,539,539,539,539,539,539,539,539,539,539,539,539,539,539,539,539,539,539,539,539,539,539,539,539,539,539,539,539,539,539,539,539,539,539,539,539,539,539,539,539,539,539,539,539,539,539,539,539,539,539,539,539,539,539,539,539,539,539,539,539,539,539,539,539,539,539,539,539,539,539,539,539,539,539,539,539,539,539,539,539,539,539,539,539,539,539,539,539,539,539,539,539,539,539,539,539,539,539,539,539,539,539,539,539,539,539,539,539,539,539,539,539,539,539,539,539,539,539,539,539,539,539,539,539,539,539,539,539,539,539,539,539,539,539,539,539,537,529,488,484,482,474,470,469,469,469,469,469,469,467,460,450,439,428,422,416,402,400,396,396,396,395,393,382,375,364,354,345,320,308,294,280,271,258,250,241,225,199,188,178,173,169,164,146,135,126,122,121,121,121,121,121,121,121,120,118,116,113,106,104,102,99,96,91,90,88,84,82,81,81,81,81,81,81,81,81,81,81,81,81,81],"timestamp_mouse":[5,25,45,65,85,105,126,145,165,185,205,225,245,265,285,305,325,345,365,385,405,425,445,465,487,506,527,547,567,587,607,626,646,666,686,706,726,746,766,786,806,826,847,866,886,906,925,945,965,985,1006,1025,1045,1065,1085,1105,1125,1145,1165,1185,1205,1225,1245,1265,1285,1305,1325,1346,1365,1385,1405,1425,1446,1465,1485,1505,1525,1545,1565,1585,1605,1625,1645,1665,1686,1705,1725,1745,1765,1786,1805,1825,1845,1865,1885,1905,1925,1945,1965,1985,2005,2025,2045,2065,2085,2105,2125,2145,2165,2185,2205,2226,2245,2265,2287,2307,2327,2347,2367,2386,2406,2426,2446,2466,2486,2506,2527,2546,2566,2586,2606,2626,2646,2666,2685,2705,2725,2745,2765,2785,2805,2825,2845,2865,2885,2905,2926,2945,2965,2985,3005,3025,3045,3065,3085,3105,3125,3145,3165,3185,3205,3225,3245,3265,3285,3305,3325,3345,3365,3385,3405,3425,3445,3465,3485,3505,3525,3545,3565,3585,3605,3625,3645,3665,3685,3705,3725,3745,3765,3785,3805,3825,3846,3865,3885,3905,3925,3945,3965,3987,4007,4027,4047,4067,4087,4106,4127,4146,4166,4187,4206,4226,4246,4266,4286,4306,4326,4346,4366,4386,4406,4426,4445,4465,4485,4505,4525,4545,4565,4585,4605,4625,4645,4665,4685,4705,4725,4745,4765,4785,4805,4825,4845,4865,4885,4905,4925,4945,4965,4985,5005,5025,5045,5065,5085,5105,5125,5145,5165,5185,5205,5225,5245,5265,5286,5305,5325,5345,5366,5385,5405,5425,5445,5465,5485,5505,5526,5545,5565,5585,5605,5625,5645,5665,5685,5706,5727,5745,5767,5787,5807,5827,5847,5867,5887,5906,5926,5946,5966,5986,6006,6026,6047,6066,6086,6106,6126,6146,6166,6186,6205,6225,6245,6265,6285,6305,6325,6345,6365,6385,6405,6425,6445,6465,6485,6505,6525,6545,6565,6585,6605,6625,6645,6665,6685,6705,6725,6745,6765,6785,6805,6825,6845,6865,6885,6905,6925,6945,6965,6985,7005,7025,7045,7065,7085,7105,7125,7145,7165,7185,7205,7225,7245,7265,7285,7305,7325,7345,7365,7385,7405,7425,7445,7465,7487,7505,7527,7547,7567,7587,7606,7626,7646,7666,7686,7706,7726,7746,7766,7786,7806,7826,7846,7866,7886,7906,7926,7946,7965,7985,8005,8025,8045,8065,8085,8105,8125,8145,8165,8185,8205,8225,8245,8265,8285,8305,8325,8345,8365,8385,8405,8425,8445,8465,8485,8505,8525,8545,8565,8585,8605,8625,8645,8665,8685,8705,8725,8746,8765,8785,8805,8826,8845,8866,8885,8906,8926,8945,8965,8985,9005,9026,9046,9066,9085,9106,9126,9146,9166,9186,9205,9226,9245,9266,9286,9307,9326,9346,9367,9386,9407,9426,9447,9466,9486,9506,9527,9546,9567,9586,9606,9627,9646,9666,9686,9705,9725,9746,9766,9786,9805,9825,9845,9866,9885,9905,9926,9945,9966,9985,10006,10026,10046,10065,10085,10105,10126,10145,10166,10185,10207,10227,10247,10266,10287,10307,10326,10347],"xSR":741.5,"ySR":501.8,"xT1":424.9,"yT1":0,"xT2":1058.1,"yT2":0,"toosoon":0,"cond_shown":"Incongruent","ratio_trial":200,"L_num":4,"L_den":30,"R_num":1,"R_den":3,"correct_side":2,"subjID":"mariana-aguilera-pinzon-1","gender":null,"school":"6","age":"6"},{"start_time":1551790187153,"click_time":1551790189253,"finger_time":1551790188772,"fix_duration":779.1919686562611,"trial":11,"RT":1619,"MT":481,"sideResp":2,"stimulus":[],"xmouse":[790,790,790,790,790,790,790,790,790,790,790,790,790,790,790,790,790,790,790,790,790,790,790,790,790,790,790,790,790,790,790,790,790,790,790,790,790,790,790,790,790,790,790,790,790,790,790,790,790,790,790,790,790,790,790,790,790,790,790,790,790,790,790,790,790,790,790,790,790,790,790,790,790,790,790,790,790,790,790,791,885,1019,1105,1129,1140,1142,1144,1145,1149,1157,1175,1183,1187,1189,1189,1189,1189,1189,1189,1183,1170,1157,1135,1110,1090],"ymouse":[545,545,545,545,545,545,545,545,545,545,545,545,545,545,545,545,545,545,545,545,545,545,545,545,545,545,545,545,545,545,545,545,545,545,545,545,545,545,545,545,545,545,545,545,545,545,545,545,545,545,545,545,545,545,545,545,545,545,545,545,545,545,545,545,545,545,545,545,545,545,545,545,545,545,545,545,545,545,545,544,482,402,368,351,319,301,290,279,268,251,196,170,153,142,139,139,139,137,135,131,122,116,109,103,93],"timestamp_mouse":[19,39,59,79,99,119,139,159,179,199,219,239,259,279,299,319,339,359,379,399,419,439,459,479,499,519,539,559,579,599,619,639,659,679,699,719,739,759,779,799,819,839,859,879,899,919,939,959,979,999,1019,1039,1059,1079,1099,1119,1139,1160,1180,1200,1221,1241,1260,1280,1301,1320,1340,1360,1380,1400,1420,1440,1460,1480,1500,1520,1540,1560,1580,1600,1619,1639,1660,1679,1699,1719,1739,1760,1779,1800,1820,1839,1860,1879,1900,1920,1939,1960,1979,2000,2020,2039,2059,2079,2099],"xSR":741.5,"ySR":501.8,"xT1":424.9,"yT1":0,"xT2":1058.1,"yT2":0,"toosoon":0,"cond_shown":"Incongruent","ratio_trial":200,"L_num":3,"L_den":4,"R_num":11,"R_den":20,"correct_side":1,"subjID":"mariana-aguilera-pinzon-1","gender":null,"school":"6","age":"6"},{"start_time":1551790191877,"click_time":1551790193932,"finger_time":1551790193512,"fix_duration":1143.5264858859684,"trial":12,"RT":1635,"MT":420,"sideResp":2,"stimulus":[],"xmouse":[779,779,779,779,779,779,779,779,779,779,779,779,779,779,779,779,779,779,779,779,779,779,779,779,779,779,779,779,779,779,779,779,779,779,779,779,779,779,779,779,779,779,779,779,779,779,779,779,779,779,779,779,779,779,779,779,779,779,779,779,779,779,779,779,779,779,779,779,779,779,779,779,779,779,779,779,779,779,780,796,803,814,858,884,927,947,961,972,981,997,1008,1019,1036,1045,1055,1056,1059,1066,1077,1110,1126,1139,1148],"ymouse":[536,536,536,536,536,536,536,536,536,536,536,536,536,536,536,536,536,536,536,536,536,536,536,536,536,536,536,536,536,536,536,536,536,536,536,536,536,536,536,536,536,536,536,536,536,536,536,536,536,536,536,536,536,536,536,536,536,536,536,536,536,536,536,536,536,536,536,536,536,536,536,536,536,536,536,536,536,536,534,524,513,489,415,372,317,298,283,267,252,226,213,205,192,184,176,175,174,170,162,137,125,113,98],"timestamp_mouse":[15,35,55,75,95,115,135,155,175,195,215,235,255,275,295,315,335,355,375,395,415,435,455,475,495,515,535,555,575,597,617,637,657,676,697,717,736,756,776,796,816,836,856,876,896,916,936,956,975,995,1015,1035,1055,1075,1095,1115,1135,1155,1175,1195,1215,1235,1255,1275,1295,1315,1335,1355,1375,1395,1415,1435,1455,1475,1495,1515,1535,1555,1575,1595,1616,1635,1655,1675,1696,1716,1736,1755,1775,1796,1816,1835,1856,1875,1896,1915,1935,1956,1984,1995,2016,2035,2055],"xSR":741.5,"ySR":501.8,"xT1":424.9,"yT1":0,"xT2":1058.1,"yT2":0,"toosoon":0,"cond_shown":"Incongruent","ratio_trial":200,"L_num":7,"L_den":10,"R_num":12,"R_den":24,"correct_side":1,"subjID":"mariana-aguilera-pinzon-1","gender":null,"school":"6","age":"6"},{"start_time":1551790196342,"click_time":1551790198353,"finger_time":1551790197492,"fix_duration":1288.9145511463141,"trial":13,"RT":1150,"MT":861,"sideResp":1,"stimulus":[],"xmouse":[790,790,790,790,790,790,790,790,790,790,790,790,790,790,790,790,790,790,790,790,790,790,790,790,790,790,790,790,790,790,790,790,790,790,790,790,790,790,790,790,790,790,790,790,790,790,790,790,790,790,790,790,790,790,790,790,786,776,752,733,724,717,716,716,715,715,717,718,718,718,718,718,718,718,717,706,702,698,695,690,687,685,682,679,674,650,637,623,612,592,561,547,542,542,542,542,542,542,542,509,501],"ymouse":[537,537,537,537,537,537,537,537,537,537,537,537,537,537,537,537,537,537,537,537,537,537,537,537,537,537,537,537,537,537,537,537,537,537,537,537,537,537,537,537,537,537,537,537,537,537,537,537,537,537,537,537,537,537,525,520,506,493,471,458,450,439,435,432,430,425,408,401,394,375,355,318,297,278,257,217,204,193,183,170,162,159,154,151,146,127,118,105,93,66,25,7,1,1,1,1,1,1,1,0,12],"timestamp_mouse":[12,31,52,71,91,110,131,150,170,190,210,230,250,270,290,310,330,350,370,390,410,430,450,470,490,510,530,550,570,590,610,630,650,670,690,710,730,751,771,790,810,831,851,871,890,910,931,950,970,991,1010,1030,1050,1070,1091,1111,1130,1150,1171,1191,1210,1230,1251,1270,1291,1310,1331,1351,1370,1390,1410,1431,1451,1470,1491,1511,1530,1552,1571,1592,1611,1631,1651,1672,1691,1711,1731,1751,1771,1792,1810,1832,1852,1872,1891,1911,1931,1951,1970,1991,2011],"xSR":741.5,"ySR":501.8,"xT1":424.9,"yT1":0,"xT2":1058.1,"yT2":0,"toosoon":0,"cond_shown":"Congruent","ratio_trial":100,"L_num":7,"L_den":14,"R_num":15,"R_den":25,"correct_side":2,"subjID":"mariana-aguilera-pinzon-1","gender":null,"school":"6","age":"6"},{"start_time":1551790200333,"click_time":1551790203472,"finger_time":1551790202473,"fix_duration":1060.2401505233026,"trial":14,"RT":2140,"MT":999,"sideResp":2,"stimulus":[],"xmouse":[781,781,781,781,781,781,781,781,781,781,781,781,781,781,781,781,781,781,781,781,781,781,781,781,781,781,781,781,781,781,781,781,781,781,781,781,781,781,781,781,781,781,781,781,781,781,781,781,781,781,781,781,781,781,781,781,781,781,781,781,781,781,781,781,781,781,781,781,781,781,781,781,781,781,781,781,781,781,781,781,781,781,781,781,781,782,782,782,782,782,782,782,782,782,782,782,782,782,782,782,782,782,782,782,787,795,846,890,939,981,1001,1047,1063,1070,1075,1078,1085,1089,1091,1091,1092,1092,1092,1092,1092,1095,1101,1107,1113,1121,1148,1162,1182,1197,1206,1206,1206,1206,1206,1206,1207,1207,1207,1205,1204,1203,1200,1198,1198,1198,1197,1196,1195,1188,1176,1162,1133],"ymouse":[579,579,579,579,579,579,579,579,579,579,579,579,579,579,579,579,579,579,579,579,579,579,579,579,579,579,579,579,579,579,579,579,579,579,579,579,579,579,579,579,579,579,579,579,579,579,579,579,579,579,579,579,579,579,579,579,579,579,579,579,579,579,579,579,579,579,579,579,579,579,579,579,579,579,579,579,579,579,579,579,579,579,579,579,579,579,579,579,579,579,579,579,579,579,579,579,579,579,579,579,579,579,579,579,577,574,557,534,510,489,474,446,437,431,426,421,409,405,400,398,398,398,398,398,396,387,374,362,353,342,306,286,259,233,211,196,184,183,181,178,167,161,154,142,132,123,102,91,84,76,70,68,68,68,68,69,75],"timestamp_mouse":[20,39,59,79,99,119,139,159,179,199,219,239,259,279,299,319,339,359,379,399,419,439,459,479,499,521,540,560,580,600,620,640,660,680,700,720,739,759,779,799,819,839,859,879,899,919,939,959,979,999,1019,1039,1059,1079,1099,1119,1139,1159,1179,1199,1219,1239,1259,1279,1299,1319,1339,1359,1379,1399,1419,1439,1459,1479,1499,1519,1539,1559,1579,1599,1619,1639,1659,1679,1699,1719,1739,1759,1779,1799,1819,1839,1859,1879,1899,1919,1939,1959,1979,1999,2019,2039,2059,2079,2099,2119,2140,2160,2180,2199,2219,2240,2259,2280,2299,2320,2341,2360,2381,2401,2421,2441,2461,2481,2500,2520,2539,2561,2581,2601,2619,2640,2660,2681,2700,2720,2739,2760,2779,2800,2819,2840,2859,2879,2899,2920,2939,2960,2980,2999,3019,3040,3060,3080,3099,3120,3139],"xSR":741.5,"ySR":501.8,"xT1":424.9,"yT1":0,"xT2":1058.1,"yT2":0,"toosoon":0,"cond_shown":"Congruent","ratio_trial":300,"L_num":20,"L_den":25,"R_num":14,"R_den":28,"correct_side":1,"subjID":"mariana-aguilera-pinzon-1","gender":null,"school":"6","age":"6"},{"start_time":1551790205285,"click_time":1551790209572,"finger_time":1551790208952,"fix_duration":310.532097673304,"trial":15,"RT":3667,"MT":620,"sideResp":1,"stimulus":[],"xmouse":[780,780,780,780,780,780,780,780,780,780,780,780,780,780,780,780,780,780,780,780,780,780,780,780,780,780,780,780,780,780,780,780,780,780,780,780,780,780,780,780,780,780,780,780,780,780,780,780,780,780,780,780,780,780,780,780,780,780,780,780,780,780,780,780,780,780,780,780,780,780,780,780,780,780,780,780,780,780,780,780,780,780,780,780,780,780,780,780,780,780,780,780,780,780,780,780,780,780,780,780,780,780,780,780,780,780,780,780,780,780,780,780,780,780,780,780,780,780,780,780,780,780,780,780,780,780,780,780,780,780,780,780,780,780,780,780,780,780,780,780,780,780,780,780,780,780,780,780,780,780,780,780,780,780,780,780,780,780,780,780,780,780,780,780,780,780,780,780,780,780,780,780,780,780,780,780,780,780,780,780,780,776,768,751,696,674,660,653,649,645,644,643,639,635,630,628,626,624,622,617,614,613,612,612,612,608,598,588,576,557,552,548,535,528,520],"ymouse":[544,544,544,544,544,544,544,544,544,544,544,544,544,544,544,544,544,544,544,544,544,544,544,544,544,544,544,544,544,544,544,544,544,544,544,544,544,544,544,544,544,544,544,544,544,544,544,544,544,544,544,544,544,544,544,544,544,544,544,544,544,544,544,544,544,544,544,544,544,544,544,544,544,544,544,544,544,544,544,544,544,544,544,544,544,544,544,544,544,544,544,544,544,544,544,544,544,544,544,544,544,544,544,544,544,544,544,544,544,544,544,544,544,544,544,544,544,544,544,544,544,544,544,544,544,544,544,544,544,544,544,544,544,544,544,544,544,544,544,544,544,544,544,544,544,544,544,544,544,544,544,544,544,544,544,544,544,544,544,544,544,544,544,544,544,544,544,544,544,544,544,544,544,544,544,544,544,544,544,544,544,532,511,477,393,363,347,338,332,316,302,283,266,238,199,185,174,159,141,111,101,99,98,98,98,97,96,94,90,85,84,81,72,65,55],"timestamp_mouse":[7,27,48,67,87,107,127,147,167,187,207,227,247,267,287,307,327,347,367,387,407,427,447,467,487,507,527,547,567,587,607,627,647,667,687,707,728,747,767,787,807,827,847,867,887,909,929,949,968,988,1008,1029,1049,1068,1088,1108,1128,1148,1168,1188,1208,1228,1248,1268,1288,1308,1327,1347,1367,1387,1407,1427,1447,1467,1487,1507,1527,1547,1567,1587,1607,1627,1647,1667,1687,1707,1727,1747,1767,1787,1807,1827,1847,1867,1887,1907,1927,1947,1967,1987,2007,2027,2047,2067,2087,2107,2127,2147,2167,2187,2207,2227,2247,2267,2287,2307,2327,2347,2367,2387,2407,2427,2447,2467,2487,2507,2527,2547,2567,2588,2608,2627,2647,2667,2687,2707,2727,2747,2767,2787,2807,2829,2849,2869,2889,2908,2928,2948,2968,2988,3008,3028,3048,3068,3088,3108,3128,3148,3168,3188,3208,3227,3248,3267,3287,3307,3327,3347,3367,3387,3407,3427,3447,3467,3487,3507,3527,3547,3567,3587,3607,3627,3648,3667,3688,3708,3728,3747,3767,3787,3807,3827,3847,3867,3888,3908,3927,3948,3967,3988,4008,4027,4048,4067,4088,4107,4127,4147,4167,4187,4208,4228,4247,4267,4287],"xSR":741.5,"ySR":501.8,"xT1":424.9,"yT1":0,"xT2":1058.1,"yT2":0,"toosoon":0,"cond_shown":"Incongruent","ratio_trial":100,"L_num":4,"L_den":8,"R_num":8,"R_den":20,"correct_side":1,"subjID":"mariana-aguilera-pinzon-1","gender":null,"school":"6","age":"6"},{"start_time":1551790211315,"click_time":1551790213673,"finger_time":1551790213252,"fix_duration":642.6801553241883,"trial":16,"RT":1937,"MT":421,"sideResp":2,"stimulus":[],"xmouse":[794,794,794,794,794,794,794,794,794,794,794,794,794,794,794,794,794,794,794,794,794,794,794,794,794,794,794,794,794,794,794,794,794,794,794,794,794,794,794,794,794,794,794,794,794,794,794,794,794,794,794,794,794,794,794,794,794,794,794,794,794,794,794,794,794,794,794,794,794,794,794,794,794,794,794,794,794,794,794,794,794,794,794,794,794,794,794,794,794,794,794,794,794,794,794,795,813,832,852,869,893,908,936,949,967,982,1014,1027,1037,1045,1051,1059,1064,1069,1076,1082,1088,1093],"ymouse":[521,521,521,521,521,521,521,521,521,521,521,521,521,521,521,521,521,521,521,521,521,521,521,521,521,521,521,521,521,521,521,521,521,521,521,521,521,521,521,521,521,521,521,521,521,521,521,521,521,521,521,521,521,521,521,521,521,521,521,521,521,521,521,521,521,521,521,521,521,521,521,521,521,521,521,521,521,521,521,521,521,521,521,521,521,521,521,521,521,521,521,521,521,521,521,521,478,439,404,373,331,305,269,256,244,235,218,211,204,200,194,180,167,156,139,123,107,83],"timestamp_mouse":[17,38,57,77,97,117,137,157,177,197,217,237,257,277,299,319,339,358,378,398,419,439,458,478,498,518,538,558,578,598,618,638,658,678,697,718,737,757,777,797,817,837,857,877,897,917,937,957,977,997,1018,1037,1057,1077,1097,1117,1137,1157,1177,1197,1217,1237,1257,1277,1297,1317,1337,1357,1377,1397,1417,1437,1457,1477,1497,1517,1537,1557,1577,1597,1617,1637,1657,1677,1698,1717,1737,1757,1777,1797,1817,1837,1857,1877,1897,1917,1937,1957,1978,1999,2018,2037,2059,2079,2098,2119,2138,2158,2178,2198,2218,2237,2258,2278,2298,2318,2338,2358],"xSR":741.5,"ySR":501.8,"xT1":424.9,"yT1":0,"xT2":1058.1,"yT2":0,"toosoon":0,"cond_shown":"Incongruent","ratio_trial":100,"L_num":9,"L_den":18,"R_num":6,"R_den":10,"correct_side":2,"subjID":"mariana-aguilera-pinzon-1","gender":null,"school":"6","age":"6"},{"start_time":1551790215303,"click_time":1551790217332,"finger_time":1551790216734,"fix_duration":250,"trial":17,"RT":1431,"MT":598,"sideResp":2,"stimulus":[],"xmouse":[771,771,771,771,771,771,771,771,771,771,771,771,771,771,771,771,771,771,771,771,771,771,771,771,771,771,771,771,771,771,771,771,771,771,771,771,771,771,771,771,771,771,771,771,771,771,771,771,771,771,771,771,771,771,771,771,771,771,771,771,771,771,771,771,771,771,771,771,771,780,799,848,914,921,921,921,921,921,921,921,921,921,921,921,921,921,921,922,934,947,959,970,983,1003,1014,1025,1035,1046,1065,1075,1083,1093],"ymouse":[540,540,540,540,540,540,540,540,540,540,540,540,540,540,540,540,540,540,540,540,540,540,540,540,540,540,540,540,540,540,540,540,540,540,540,540,540,540,540,540,540,540,540,540,540,540,540,540,540,540,540,540,540,540,540,540,540,540,540,540,540,540,540,540,540,540,540,540,540,534,513,466,407,403,403,403,403,403,403,403,403,403,403,403,403,403,403,401,374,344,317,296,265,225,208,189,172,157,131,118,106,92],"timestamp_mouse":[10,29,51,70,90,110,130,150,170,190,210,229,250,269,289,309,329,349,369,389,409,429,449,469,489,509,529,549,569,589,609,629,649,669,689,710,729,749,769,789,809,829,849,869,889,909,929,949,969,989,1009,1029,1049,1070,1089,1109,1129,1149,1169,1189,1211,1231,1251,1271,1290,1310,1330,1350,1370,1391,1411,1431,1450,1470,1490,1511,1530,1551,1570,1590,1610,1630,1650,1670,1690,1710,1729,1750,1769,1789,1810,1830,1849,1869,1889,1909,1929,1950,1969,1989,2010,2029],"xSR":741.5,"ySR":501.8,"xT1":424.9,"yT1":0,"xT2":1058.1,"yT2":0,"toosoon":0,"cond_shown":"Incongruent","ratio_trial":100,"L_num":6,"L_den":10,"R_num":13,"R_den":26,"correct_side":1,"subjID":"mariana-aguilera-pinzon-1","gender":null,"school":"6","age":"6"},{"start_time":1551790219080,"click_time":1551790221072,"finger_time":1551790220553,"fix_duration":966.352126492013,"trial":18,"RT":1473,"MT":519,"sideResp":2,"stimulus":[],"xmouse":[795,795,795,795,795,795,795,795,795,795,795,795,795,795,795,795,795,795,795,795,795,795,795,795,795,795,795,795,795,795,795,795,795,795,795,795,795,795,795,795,795,795,795,795,795,795,795,795,795,795,795,795,795,795,795,795,795,795,795,795,795,795,795,795,795,795,795,795,795,795,795,802,824,897,933,968,992,1008,1014,1028,1034,1041,1046,1062,1097,1110,1120,1129,1134,1143,1146,1149,1151,1158,1159,1159,1159,1159,1158,1155],"ymouse":[592,592,592,592,592,592,592,592,592,592,592,592,592,592,592,592,592,592,592,592,592,592,592,592,592,592,592,592,592,592,592,592,592,592,592,592,592,592,592,592,592,592,592,592,592,592,592,592,592,592,592,592,592,592,592,592,592,592,592,592,592,592,592,592,592,592,592,592,592,592,592,582,562,512,486,457,437,425,418,384,370,360,355,341,310,295,283,269,258,231,217,202,185,148,136,128,118,111,105,88],"timestamp_mouse":[13,32,52,72,92,112,132,152,172,192,212,232,252,272,292,312,332,352,372,392,412,432,452,472,492,512,532,552,572,592,612,632,652,672,692,712,732,752,772,792,812,832,852,872,892,912,932,954,974,994,1013,1033,1053,1073,1093,1113,1133,1153,1173,1193,1213,1233,1253,1273,1293,1313,1333,1353,1372,1393,1412,1432,1453,1473,1493,1512,1532,1552,1573,1592,1612,1633,1653,1672,1692,1712,1733,1752,1772,1793,1812,1833,1852,1873,1893,1913,1932,1953,1972,1992],"xSR":741.5,"ySR":501.8,"xT1":424.9,"yT1":0,"xT2":1058.1,"yT2":0,"toosoon":0,"cond_shown":"Incongruent","ratio_trial":300,"L_num":4,"L_den":5,"R_num":6,"R_den":12,"correct_side":1,"subjID":"mariana-aguilera-pinzon-1","gender":null,"school":"6","age":"6"},{"start_time":1551790224026,"click_time":1551790226633,"finger_time":1551790225953,"fix_duration":1472.2182230140343,"trial":19,"RT":1927,"MT":680,"sideResp":1,"stimulus":[],"xmouse":[800,800,800,800,800,800,800,800,800,800,800,800,800,800,800,800,800,800,800,800,800,800,800,800,800,800,800,800,800,800,800,800,800,800,800,800,800,800,800,800,800,800,800,800,800,800,800,800,800,800,800,800,800,800,800,800,800,800,800,800,800,800,800,800,800,800,800,800,800,800,800,800,800,800,800,800,800,800,800,800,800,800,800,800,800,800,800,800,800,800,800,800,798,799,802,805,812,816,819,825,829,832,835,835,832,824,813,795,785,774,763,750,718,698,671,630,610,582,574,570,568,565,560,557,557,557,557,556,547,530,511],"ymouse":[547,547,547,547,547,547,547,547,547,547,547,547,547,547,547,547,547,547,547,547,547,547,547,547,547,547,547,547,547,547,547,547,547,547,547,547,547,547,547,547,547,547,547,547,547,547,547,547,547,547,547,547,547,547,547,547,547,547,547,547,547,547,547,547,547,547,547,547,547,547,547,547,547,547,547,547,547,547,547,547,547,547,547,547,547,547,547,547,547,547,547,547,547,539,531,518,497,482,459,434,411,387,337,310,280,255,230,202,190,179,171,161,146,141,138,130,125,112,105,101,99,95,89,84,83,83,83,83,79,75,69],"timestamp_mouse":[7,27,46,66,86,106,126,146,166,186,206,226,246,266,286,307,326,346,366,386,406,426,446,466,486,507,526,546,566,586,606,626,646,666,686,706,726,746,766,786,806,826,846,866,886,906,926,946,966,987,1006,1026,1046,1066,1086,1106,1126,1146,1166,1186,1206,1226,1248,1268,1288,1308,1327,1348,1367,1387,1407,1427,1447,1467,1487,1507,1527,1547,1567,1587,1607,1627,1647,1667,1686,1706,1726,1746,1766,1786,1806,1826,1847,1867,1887,1906,1927,1946,1967,1986,2006,2026,2046,2066,2087,2107,2126,2146,2167,2186,2206,2226,2246,2266,2287,2307,2326,2347,2366,2386,2406,2426,2446,2467,2487,2507,2526,2546,2566,2586,2607],"xSR":741.5,"ySR":501.8,"xT1":424.9,"yT1":0,"xT2":1058.1,"yT2":0,"toosoon":0,"cond_shown":"Congruent","ratio_trial":100,"L_num":3,"L_den":20,"R_num":4,"R_den":16,"correct_side":2,"subjID":"mariana-aguilera-pinzon-1","gender":null,"school":"6","age":"6"},{"start_time":1551790230463,"click_time":1551790232832,"finger_time":1551790232231,"fix_duration":789.8536776759851,"trial":20,"RT":1768,"MT":601,"sideResp":1,"stimulus":[],"xmouse":[820,820,820,820,820,820,820,820,820,820,820,820,820,820,820,820,820,820,820,820,820,820,820,820,820,820,820,820,820,820,820,820,820,820,820,820,820,820,820,820,820,820,820,820,820,820,820,820,820,820,820,820,820,820,820,820,820,820,820,820,820,820,820,820,820,820,820,820,820,820,820,820,820,820,820,820,820,820,820,820,820,820,821,823,825,829,834,838,845,850,850,850,850,850,850,850,850,847,838,827,803,784,758,719,648,631,619,607,598,591,584,582,582,582,582,581,576,558,520],"ymouse":[550,550,550,550,550,550,550,550,550,550,550,550,550,550,550,550,550,550,550,550,550,550,550,550,550,550,550,550,550,550,550,550,550,550,550,550,550,550,550,550,550,550,550,550,550,550,550,550,550,550,550,550,550,550,550,550,550,550,550,550,550,550,550,550,550,550,550,550,550,550,550,550,550,550,550,550,550,550,550,550,550,550,550,550,547,539,524,507,492,459,443,433,430,430,430,424,414,404,391,378,352,330,308,280,217,195,177,160,149,142,133,131,131,131,131,130,124,111,90],"timestamp_mouse":[9,30,49,68,88,109,128,148,168,188,208,228,250,270,290,309,329,349,369,389,409,429,449,469,489,509,529,550,569,589,609,629,649,669,689,709,729,749,769,789,809,829,849,869,889,909,929,949,969,989,1009,1029,1049,1069,1089,1109,1130,1149,1170,1190,1209,1229,1249,1269,1289,1309,1330,1348,1370,1388,1408,1430,1449,1470,1489,1510,1529,1550,1568,1590,1610,1629,1649,1670,1689,1710,1729,1749,1768,1790,1809,1829,1849,1870,1889,1909,1929,1949,1970,1989,2010,2029,2049,2069,2090,2109,2129,2149,2170,2190,2209,2229,2250,2269,2290,2310,2329,2350,2369],"xSR":741.5,"ySR":501.8,"xT1":424.9,"yT1":0,"xT2":1058.1,"yT2":0,"toosoon":0,"cond_shown":"Incongruent","ratio_trial":200,"L_num":11,"L_den":20,"R_num":3,"R_den":4,"correct_side":2,"subjID":"mariana-aguilera-pinzon-1","gender":null,"school":"6","age":"6"},{"start_time":1551790233923,"click_time":1551790235333,"finger_time":1551790234932,"fix_duration":250,"trial":21,"RT":1009,"MT":401,"sideResp":2,"stimulus":[],"xmouse":[787,787,787,787,787,787,787,787,787,787,787,787,787,787,787,787,787,787,787,787,787,787,787,787,787,787,788,788,788,788,788,788,788,788,788,788,788,788,788,788,788,789,789,789,789,789,789,793,801,813,857,898,971,1000,1031,1072,1126,1221,1246,1260,1273,1279,1279,1279,1274,1264,1228,1205,1184,1161,1126],"ymouse":[564,564,564,564,564,564,564,564,564,564,564,564,564,564,564,564,564,564,564,564,564,564,564,564,564,564,565,567,568,568,568,568,568,568,568,568,568,568,568,568,568,569,569,569,569,569,569,569,562,553,524,493,419,382,347,318,297,276,269,262,250,232,225,215,201,180,131,104,80,53,17],"timestamp_mouse":[9,29,50,70,90,109,129,149,169,190,209,230,250,270,290,309,329,349,369,389,409,429,449,469,489,509,529,549,569,589,609,629,649,669,689,709,729,749,770,789,809,830,849,870,889,909,929,950,970,989,1009,1029,1049,1068,1089,1109,1129,1150,1169,1190,1209,1229,1249,1270,1290,1309,1329,1349,1369,1390,1410],"xSR":741.5,"ySR":501.8,"xT1":424.9,"yT1":0,"xT2":1058.1,"yT2":0,"toosoon":0,"cond_shown":"Incongruent","ratio_trial":100,"L_num":8,"L_den":20,"R_num":1,"R_den":2,"correct_side":2,"subjID":"mariana-aguilera-pinzon-1","gender":null,"school":"6","age":"6"},{"start_time":1551790238460,"click_time":1551790240433,"finger_time":1551790239813,"fix_duration":1347.653640264939,"trial":22,"RT":1353,"MT":620,"sideResp":1,"stimulus":[],"xmouse":[799,799,799,799,799,799,799,799,799,799,799,799,799,799,799,799,799,799,799,799,799,799,799,799,799,799,799,799,799,799,799,799,799,799,799,799,799,799,799,799,799,799,799,799,799,799,799,799,799,799,799,799,799,799,799,799,799,799,799,799,799,799,799,799,793,789,784,779,769,738,712,683,658,637,610,603,595,589,582,570,568,568,568,568,566,563,561,560,560,560,560,554,549,546,546,546,543,533,524],"ymouse":[531,531,531,531,531,531,531,531,531,531,531,531,531,531,531,531,531,531,531,531,531,531,531,531,531,531,531,531,531,531,531,531,531,531,531,531,531,531,531,531,531,531,531,531,531,531,531,531,531,531,531,531,531,531,531,531,531,531,531,531,531,531,531,531,528,519,505,486,465,411,375,336,303,272,235,221,210,203,195,179,176,176,176,175,157,146,136,128,117,94,84,73,66,63,63,63,63,63,63],"timestamp_mouse":[13,32,52,72,92,112,132,153,173,193,212,233,253,272,292,312,333,352,372,392,412,432,452,472,492,512,532,552,572,592,612,632,652,672,692,712,733,753,772,792,812,832,852,872,892,911,933,952,972,993,1013,1033,1052,1072,1093,1113,1132,1153,1172,1193,1212,1233,1252,1272,1293,1312,1332,1353,1372,1393,1412,1433,1452,1472,1493,1512,1532,1552,1573,1592,1612,1633,1652,1673,1693,1712,1732,1752,1773,1793,1812,1832,1852,1872,1893,1912,1932,1952,1973],"xSR":741.5,"ySR":501.8,"xT1":424.9,"yT1":0,"xT2":1058.1,"yT2":0,"toosoon":0,"cond_shown":"Congruent","ratio_trial":100,"L_num":2,"L_den":5,"R_num":6,"R_den":12,"correct_side":2,"subjID":"mariana-aguilera-pinzon-1","gender":null,"school":"6","age":"6"},{"start_time":1551790244943,"click_time":1551790246153,"finger_time":1551790245692,"fix_duration":949.1157029648741,"trial":23,"RT":749,"MT":461,"sideResp":2,"stimulus":[],"xmouse":[818,818,818,818,818,818,818,818,818,818,818,818,818,818,818,818,818,818,818,818,818,818,818,818,818,818,818,818,818,818,818,818,818,818,818,818,822,846,876,898,904,930,949,967,993,1076,1110,1134,1146,1147,1146,1146,1146,1146,1146,1145,1143,1139,1131,1124,1088],"ymouse":[557,557,557,557,557,557,557,557,557,557,557,557,557,557,557,557,557,557,557,557,557,557,557,557,557,557,557,557,557,557,557,557,557,557,557,557,558,539,512,483,469,437,418,391,357,251,217,188,167,148,126,126,126,126,126,126,124,120,115,109,90],"timestamp_mouse":[11,41,49,70,89,110,129,150,170,189,210,229,250,269,289,309,330,349,369,389,409,429,449,469,489,510,529,550,570,590,609,629,650,670,689,709,729,749,770,789,809,829,849,869,890,910,929,949,969,989,1011,1029,1049,1069,1089,1110,1129,1149,1170,1189,1209],"xSR":741.5,"ySR":501.8,"xT1":424.9,"yT1":0,"xT2":1058.1,"yT2":0,"toosoon":0,"cond_shown":"Incongruent","ratio_trial":100,"L_num":8,"L_den":20,"R_num":1,"R_den":2,"correct_side":2,"subjID":"mariana-aguilera-pinzon-1","gender":null,"school":"6","age":"6"},{"start_time":1551790248517,"click_time":1551790250972,"finger_time":1551790250432,"fix_duration":963.2626130599147,"trial":24,"RT":1915,"MT":540,"sideResp":1,"stimulus":[],"xmouse":[778,778,778,778,778,778,778,778,778,778,778,778,778,778,778,778,778,778,778,778,778,778,778,778,778,778,778,778,778,778,778,778,778,778,778,778,778,778,778,778,778,778,778,778,778,778,778,778,778,778,778,778,778,778,778,778,778,778,778,778,778,778,778,778,778,778,778,778,778,778,778,778,778,778,778,778,778,778,778,778,778,778,778,778,778,778,778,778,778,778,778,778,778,776,762,741,675,649,621,598,566,548,527,524,522,520,519,518,518,518,519,522,527,527,526,526,525,522,520,517,513,513,510],"ymouse":[563,563,563,563,563,563,563,563,563,563,563,563,563,563,563,563,563,563,563,563,563,563,563,563,563,563,563,563,563,563,563,563,563,563,563,563,563,563,563,563,563,563,563,563,563,563,563,563,563,563,563,563,563,563,563,563,563,563,563,563,563,563,563,563,563,563,563,563,563,563,563,563,563,563,563,563,563,563,563,563,563,563,563,563,563,563,563,563,563,563,563,563,552,537,510,479,399,369,337,310,267,243,212,206,202,199,193,186,184,180,175,165,144,139,137,136,135,129,120,114,106,101,91],"timestamp_mouse":[15,36,55,76,95,116,136,155,176,195,216,236,256,276,295,316,335,356,376,395,415,436,456,475,496,515,535,555,575,595,615,635,656,675,695,715,735,755,775,795,815,835,855,876,895,915,935,955,975,996,1015,1035,1055,1075,1095,1116,1135,1156,1176,1195,1215,1235,1256,1275,1295,1315,1336,1355,1375,1395,1416,1435,1455,1475,1496,1516,1535,1555,1575,1596,1615,1635,1656,1675,1696,1715,1735,1756,1775,1795,1815,1835,1856,1875,1896,1915,1936,1955,1976,1995,2016,2035,2055,2075,2096,2115,2135,2156,2176,2195,2215,2235,2256,2275,2296,2315,2335,2356,2375,2396,2415,2435,2455],"xSR":741.5,"ySR":501.8,"xT1":424.9,"yT1":0,"xT2":1058.1,"yT2":0,"toosoon":0,"cond_shown":"Congruent","ratio_trial":200,"L_num":15,"L_den":25,"R_num":4,"R_den":10,"correct_side":1,"subjID":"mariana-aguilera-pinzon-1","gender":null,"school":"6","age":"6"},{"start_time":1551790252769,"click_time":1551790255412,"finger_time":1551790254772,"fix_duration":515.1520947413113,"trial":25,"RT":2003,"MT":640,"sideResp":1,"stimulus":[],"xmouse":[806,806,806,806,806,806,806,806,806,806,806,806,806,806,806,806,806,806,806,806,806,806,806,806,806,806,806,806,806,806,806,806,806,806,806,806,806,806,806,806,806,806,806,806,806,806,806,806,806,806,806,806,806,806,806,806,806,806,806,806,806,806,806,806,806,806,806,806,806,806,806,807,807,807,807,807,810,814,815,816,816,816,816,816,816,816,816,816,816,816,818,821,823,823,824,826,826,826,826,826,827,828,828,828,828,825,822,820,816,806,799,788,771,754,721,705,687,678,668,665,665,665,665,665,664,661,648,621,558,488,440,437,438],"ymouse":[533,533,533,533,533,533,533,533,533,533,533,533,533,533,533,533,533,533,533,533,533,533,533,533,533,533,533,533,533,533,533,533,533,533,533,533,533,533,533,533,533,533,533,533,533,533,533,533,533,533,533,533,533,533,533,533,533,533,533,533,533,533,533,533,533,533,533,533,533,533,533,534,534,534,534,534,534,532,532,531,531,531,531,531,531,531,531,531,531,531,528,525,523,521,520,514,510,506,503,502,486,479,472,463,454,430,423,417,409,386,369,351,322,298,269,257,248,244,240,240,240,240,240,240,239,238,230,213,183,154,122,107,91],"timestamp_mouse":[9,23,43,64,84,103,123,145,164,183,203,223,243,263,284,303,324,343,363,383,403,423,443,463,484,503,523,543,564,583,603,623,643,663,684,703,723,744,764,783,803,823,843,864,884,903,923,943,964,983,1003,1023,1044,1064,1083,1103,1123,1143,1163,1184,1204,1224,1243,1263,1283,1304,1323,1344,1363,1384,1405,1424,1443,1463,1483,1503,1524,1542,1563,1582,1603,1623,1643,1663,1684,1703,1723,1744,1763,1783,1804,1823,1843,1863,1883,1903,1924,1943,1963,1983,2003,2023,2044,2063,2084,2103,2123,2143,2163,2184,2203,2223,2244,2263,2284,2303,2323,2344,2364,2383,2403,2423,2444,2463,2484,2503,2524,2543,2563,2584,2604,2623,2643],"xSR":741.5,"ySR":501.8,"xT1":424.9,"yT1":0,"xT2":1058.1,"yT2":0,"toosoon":0,"cond_shown":"Incongruent","ratio_trial":300,"L_num":13,"L_den":26,"R_num":12,"R_den":15,"correct_side":2,"subjID":"mariana-aguilera-pinzon-1","gender":null,"school":"6","age":"6"},{"start_time":1551790256804,"click_time":1551790258272,"finger_time":1551790257932,"fix_duration":250,"trial":26,"RT":1128,"MT":340,"sideResp":1,"stimulus":[],"xmouse":[806,806,806,806,806,806,806,806,806,806,806,806,806,806,806,806,806,806,806,806,806,806,806,806,806,806,806,806,806,806,806,806,806,806,806,806,806,806,806,806,806,806,806,806,806,806,806,806,806,806,806,806,806,806,804,792,767,651,604,564,532,511,483,474,468,461,453,445,443,443,443,443,444,457],"ymouse":[555,555,555,555,555,555,555,555,555,555,555,555,555,555,555,555,555,555,555,555,555,555,555,555,555,555,555,555,555,555,555,555,555,555,555,555,555,555,555,555,555,555,555,555,555,555,555,555,555,555,555,555,555,555,547,526,497,370,314,268,233,208,169,156,149,141,129,112,108,108,108,107,103,90],"timestamp_mouse":[9,40,49,68,89,110,129,148,168,188,209,229,249,268,289,308,329,349,368,388,409,428,448,469,488,508,529,548,568,589,609,628,649,668,689,709,728,749,768,788,809,828,849,868,888,909,929,948,969,988,1009,1028,1048,1068,1088,1108,1128,1149,1168,1188,1208,1228,1249,1268,1288,1308,1328,1349,1368,1388,1409,1428,1448,1468],"xSR":741.5,"ySR":501.8,"xT1":424.9,"yT1":0,"xT2":1058.1,"yT2":0,"toosoon":0,"cond_shown":"Incongruent","ratio_trial":300,"L_num":1,"L_den":2,"R_num":3,"R_den":15,"correct_side":1,"subjID":"mariana-aguilera-pinzon-1","gender":null,"school":"6","age":"6"},{"start_time":1551790259764,"click_time":1551790262054,"finger_time":1551790261372,"fix_duration":250,"trial":27,"RT":1608,"MT":682,"sideResp":2,"stimulus":[],"xmouse":[820,820,820,820,820,820,820,820,820,820,820,820,820,820,820,820,820,820,820,820,820,820,820,820,820,820,820,820,820,820,820,820,820,820,820,820,820,820,820,820,820,820,820,820,820,820,820,820,820,820,820,820,820,820,820,820,820,820,820,820,820,820,820,820,820,820,820,820,820,820,820,820,820,820,820,820,820,820,820,820,822,822,824,826,826,826,826,827,831,846,855,863,872,885,918,937,958,978,995,1013,1015,1015,1016,1019,1027,1028,1029,1029,1030,1041,1050,1056,1061,1064,1065],"ymouse":[505,505,505,505,505,505,505,505,505,505,505,505,505,505,505,505,505,505,505,505,505,505,505,505,505,505,505,505,505,505,505,505,505,505,505,505,505,505,505,505,505,505,505,505,505,505,505,505,505,505,505,505,505,505,505,505,505,505,505,505,505,505,505,505,505,505,505,505,505,505,505,505,505,505,505,505,505,505,505,505,489,462,429,384,349,318,308,300,288,251,237,225,214,203,188,182,177,170,166,157,156,155,154,152,144,141,140,139,137,123,115,107,102,100,99],"timestamp_mouse":[11,37,48,69,89,109,128,148,168,188,208,228,249,268,288,309,328,348,368,388,408,428,448,468,488,508,528,548,568,588,608,628,648,668,688,708,728,749,768,789,809,828,848,869,888,908,928,948,968,989,1010,1028,1049,1068,1088,1108,1128,1149,1168,1189,1208,1229,1248,1268,1289,1309,1329,1348,1369,1388,1408,1428,1448,1469,1488,1508,1528,1548,1568,1589,1608,1628,1648,1669,1689,1708,1728,1748,1768,1790,1808,1828,1848,1868,1889,1908,1928,1949,1969,1989,2008,2028,2048,2069,2089,2108,2128,2148,2169,2189,2208,2228,2248,2269,2289],"xSR":741.5,"ySR":501.8,"xT1":424.9,"yT1":0,"xT2":1058.1,"yT2":0,"toosoon":0,"cond_shown":"Congruent","ratio_trial":100,"L_num":11,"L_den":22,"R_num":4,"R_den":10,"correct_side":1,"subjID":"mariana-aguilera-pinzon-1","gender":null,"school":"6","age":"6"},{"start_time":1551790264236,"click_time":1551790266234,"finger_time":1551790265952,"fix_duration":763.035304455529,"trial":28,"RT":1716,"MT":282,"sideResp":1,"stimulus":[],"xmouse":[767,767,767,767,767,767,767,767,767,767,767,767,767,767,767,767,767,767,767,767,767,767,767,767,767,767,767,767,767,767,767,767,767,767,767,767,767,767,767,767,767,767,767,767,767,767,767,767,767,767,767,767,767,767,767,767,767,767,767,767,767,767,767,767,767,767,767,767,767,767,767,767,767,767,767,767,767,767,767,767,767,767,767,762,752,739,699,681,668,656,631,615,579,535,496,462,451,441,436,433],"ymouse":[552,552,552,552,552,552,552,552,552,552,552,552,552,552,552,552,552,552,552,552,552,552,552,552,552,552,552,552,552,552,552,552,552,552,552,552,552,552,552,552,552,552,552,552,552,552,552,552,552,552,552,552,552,552,552,552,552,552,552,552,552,552,552,552,552,552,552,552,552,552,552,552,552,552,552,552,552,552,552,552,552,552,552,529,503,478,413,389,375,359,319,290,243,194,156,130,120,108,100,92],"timestamp_mouse":[16,36,56,76,96,116,137,156,177,197,216,237,260,277,296,316,336,356,376,397,416,436,456,476,496,517,536,556,576,596,617,636,656,677,697,716,737,756,777,797,817,836,856,876,896,916,936,956,976,996,1017,1036,1056,1077,1096,1116,1137,1156,1176,1197,1216,1236,1256,1277,1296,1316,1336,1357,1376,1397,1416,1436,1456,1476,1496,1517,1536,1556,1576,1596,1616,1636,1656,1676,1696,1716,1736,1756,1776,1796,1816,1837,1857,1876,1896,1916,1937,1956,1976,1997],"xSR":741.5,"ySR":501.8,"xT1":424.9,"yT1":0,"xT2":1058.1,"yT2":0,"toosoon":0,"cond_shown":"Congruent","ratio_trial":300,"L_num":8,"L_den":16,"R_num":1,"R_den":5,"correct_side":1,"subjID":"mariana-aguilera-pinzon-1","gender":null,"school":"6","age":"6"},{"start_time":1551790268008,"click_time":1551790270052,"finger_time":1551790269652,"fix_duration":935.5062306520451,"trial":29,"RT":1644,"MT":400,"sideResp":2,"stimulus":[],"xmouse":[812,812,812,812,812,812,812,812,812,812,812,812,812,812,812,812,812,812,812,812,812,812,812,812,812,812,812,812,812,812,812,812,812,812,812,812,812,812,812,812,812,812,812,812,812,812,812,812,812,812,812,812,812,812,812,812,812,812,812,812,812,812,812,812,812,812,812,812,812,812,812,812,812,812,812,812,812,812,812,814,824,831,842,847,852,857,867,887,925,943,962,984,1005,1029,1038,1043,1047,1052,1053,1055,1060,1068,1090],"ymouse":[572,572,572,572,572,572,572,572,572,572,572,572,572,572,572,572,572,572,572,572,572,572,572,572,572,572,572,572,572,572,572,572,572,572,572,572,572,572,572,572,572,572,572,572,572,572,572,572,572,572,572,572,572,572,572,572,572,572,572,572,572,572,572,572,572,572,572,572,572,572,572,572,572,572,572,572,572,572,572,572,556,545,530,523,517,512,499,473,428,403,376,346,309,254,233,218,201,184,166,151,130,109,73],"timestamp_mouse":[4,25,48,65,85,104,124,144,164,184,204,224,244,264,285,304,324,345,364,384,405,424,444,464,484,505,524,544,565,585,604,624,644,664,684,704,725,745,764,785,804,824,845,865,884,904,924,944,964,985,1004,1024,1045,1065,1085,1104,1124,1145,1165,1183,1204,1225,1244,1264,1284,1304,1323,1345,1364,1384,1404,1424,1444,1464,1484,1504,1525,1545,1565,1585,1605,1625,1644,1664,1684,1704,1723,1745,1765,1785,1804,1825,1844,1864,1884,1905,1925,1944,1964,1984,2005,2024,2044],"xSR":741.5,"ySR":501.8,"xT1":424.9,"yT1":0,"xT2":1058.1,"yT2":0,"toosoon":0,"cond_shown":"Incongruent","ratio_trial":200,"L_num":4,"L_den":6,"R_num":14,"R_den":30,"correct_side":1,"subjID":"mariana-aguilera-pinzon-1","gender":null,"school":"6","age":"6"},{"start_time":1551790272346,"click_time":1551790274113,"finger_time":1551790273692,"fix_duration":1233.8735119128974,"trial":30,"RT":1346,"MT":421,"sideResp":2,"stimulus":[],"xmouse":[805,805,805,805,805,805,805,805,805,805,805,805,805,805,805,805,805,805,805,805,805,805,805,805,805,805,805,805,805,805,805,805,805,805,805,805,805,805,805,805,805,805,805,805,805,805,805,805,805,805,805,805,805,805,805,805,805,805,805,805,805,805,805,805,805,805,811,824,839,859,916,930,939,945,946,951,954,960,965,970,978,987,994,1001,1011,1025,1047,1056,1065],"ymouse":[522,522,522,522,522,522,522,522,522,522,522,522,522,522,522,522,522,522,522,522,522,522,522,522,522,522,522,522,522,522,522,522,522,522,522,522,522,522,522,522,522,522,522,522,522,522,522,522,522,522,522,522,522,522,522,522,522,522,522,522,522,522,522,522,522,522,512,493,471,442,318,287,270,260,256,247,240,231,222,210,194,178,166,154,139,121,90,78,67],"timestamp_mouse":[6,26,46,65,85,106,126,147,167,186,206,227,246,266,286,306,326,346,366,386,407,427,446,466,486,506,527,547,566,586,606,626,646,667,686,706,726,746,766,786,806,826,846,866,886,906,926,946,966,986,1006,1026,1046,1066,1087,1106,1126,1146,1166,1186,1206,1226,1245,1266,1285,1305,1326,1346,1366,1386,1407,1427,1446,1467,1486,1506,1527,1546,1566,1586,1606,1626,1646,1666,1687,1706,1727,1747,1767],"xSR":741.5,"ySR":501.8,"xT1":424.9,"yT1":0,"xT2":1058.1,"yT2":0,"toosoon":0,"cond_shown":"Incongruent","ratio_trial":200,"L_num":6,"L_den":20,"R_num":3,"R_den":6,"correct_side":2,"subjID":"mariana-aguilera-pinzon-1","gender":null,"school":"6","age":"6"},{"start_time":1551790276010,"click_time":1551790277873,"finger_time":1551790277331,"fix_duration":657.2508642631619,"trial":31,"RT":1321,"MT":542,"sideResp":2,"stimulus":[],"xmouse":[823,823,823,823,823,823,823,823,823,823,823,823,823,823,823,823,823,823,823,823,823,823,823,823,823,823,823,823,823,823,823,823,823,823,823,823,823,823,823,823,823,823,823,823,823,823,823,823,823,823,823,823,823,823,823,823,823,823,823,823,823,823,823,823,833,840,857,867,868,868,868,868,868,870,878,897,922,954,972,979,988,997,1002,1006,1007,1010,1011,1015,1027,1037,1045,1049,1053,1067],"ymouse":[537,537,537,537,537,537,537,537,537,537,537,537,537,537,537,537,537,537,537,537,537,537,537,537,537,537,537,537,537,537,537,537,537,537,537,537,537,537,537,537,537,537,537,537,537,537,537,537,537,537,537,537,537,537,537,537,537,537,537,537,537,537,537,537,521,503,458,421,415,415,415,415,403,382,355,310,260,218,195,184,171,159,149,137,132,128,126,119,106,99,94,92,89,85],"timestamp_mouse":[3,23,42,61,83,103,122,142,163,183,202,223,242,263,282,302,322,342,362,382,402,423,442,462,482,503,522,542,562,582,602,622,642,662,682,702,722,742,762,782,802,822,842,862,883,902,922,942,963,982,1002,1022,1042,1063,1082,1102,1122,1142,1162,1182,1202,1222,1243,1262,1283,1302,1321,1342,1361,1381,1401,1422,1442,1462,1482,1503,1522,1542,1563,1582,1603,1622,1642,1663,1682,1702,1722,1742,1762,1782,1802,1822,1842,1863],"xSR":741.5,"ySR":501.8,"xT1":424.9,"yT1":0,"xT2":1058.1,"yT2":0,"toosoon":0,"cond_shown":"Congruent","ratio_trial":300,"L_num":1,"L_den":30,"R_num":8,"R_den":24,"correct_side":2,"subjID":"mariana-aguilera-pinzon-1","gender":null,"school":"6","age":"6"},{"start_time":1551790279764,"click_time":1551790281873,"finger_time":1551790281153,"fix_duration":250,"trial":32,"RT":1389,"MT":720,"sideResp":1,"stimulus":[],"xmouse":[794,794,794,794,794,794,794,794,794,794,794,794,794,794,794,794,794,794,794,794,794,794,794,794,794,794,794,794,794,794,794,794,794,794,794,794,794,794,794,794,794,794,794,794,794,794,794,794,794,794,794,794,794,794,794,794,794,794,794,794,794,794,794,794,794,794,794,800,811,820,821,821,821,821,821,821,821,821,821,821,821,821,821,821,821,821,821,821,821,818,818,818,818,818,818,816,811,800,776,749,668,625,577,538,513,498],"ymouse":[537,537,537,537,537,537,537,537,537,537,537,537,537,537,537,537,537,537,537,537,537,537,537,537,537,537,537,537,537,537,537,537,537,537,537,537,537,537,537,537,537,537,537,537,537,537,537,537,537,537,537,537,537,537,537,537,537,537,537,537,537,537,537,537,537,537,537,524,508,496,493,492,492,492,492,492,492,492,492,492,492,492,492,492,492,490,484,481,479,474,474,474,474,474,474,472,457,436,398,357,260,224,186,149,115,86],"timestamp_mouse":[9,28,49,68,88,108,128,149,168,188,208,228,248,268,288,308,328,348,368,388,408,428,448,469,488,508,528,548,568,588,608,628,648,668,688,709,728,748,768,788,808,828,849,868,888,909,928,948,967,988,1007,1027,1047,1069,1088,1107,1129,1149,1169,1189,1208,1228,1248,1268,1288,1308,1328,1348,1369,1389,1409,1429,1449,1469,1488,1508,1529,1548,1568,1588,1608,1628,1649,1669,1688,1708,1729,1748,1769,1789,1808,1828,1848,1869,1888,1908,1928,1948,1968,1988,2008,2029,2048,2069,2088,2109],"xSR":741.5,"ySR":501.8,"xT1":424.9,"yT1":0,"xT2":1058.1,"yT2":0,"toosoon":0,"cond_shown":"Incongruent","ratio_trial":300,"L_num":13,"L_den":26,"R_num":12,"R_den":15,"correct_side":2,"subjID":"mariana-aguilera-pinzon-1","gender":null,"school":"6","age":"6"},{"start_time":1551790283705,"click_time":1551790286232,"finger_time":1551790285372,"fix_duration":712.1139787393862,"trial":33,"RT":1667,"MT":860,"sideResp":1,"stimulus":[],"xmouse":[773,773,773,773,773,773,773,773,773,773,773,773,773,773,773,773,773,773,773,773,773,773,773,773,773,773,773,773,773,773,773,773,773,773,773,773,773,773,773,773,773,773,773,773,773,773,773,773,773,773,773,773,773,773,773,773,773,773,773,773,773,773,773,773,773,773,773,773,773,773,773,773,773,773,773,773,773,773,773,773,773,775,785,806,813,819,823,824,827,835,846,859,874,875,875,875,875,875,875,875,875,875,875,875,875,875,875,875,874,860,849,842,838,838,838,837,829,811,801,787,765,731,620,583,547,520,495],"ymouse":[527,527,527,527,527,527,527,527,527,527,527,527,527,527,527,527,527,527,527,527,527,527,527,527,527,527,527,527,527,527,527,527,527,527,527,527,527,527,527,527,527,527,527,527,527,527,527,527,527,527,527,527,527,527,527,527,527,527,527,527,527,527,527,527,527,527,527,527,527,527,527,527,527,527,527,527,527,527,527,527,527,525,510,476,465,455,449,448,444,432,417,399,378,377,377,377,377,377,377,377,377,377,377,377,377,377,377,377,379,405,427,443,450,450,450,449,429,388,364,332,291,246,164,142,124,112,99],"timestamp_mouse":[7,27,47,67,87,107,127,147,167,187,207,227,247,267,287,307,327,347,367,387,407,427,447,467,487,507,527,547,567,587,607,627,648,667,688,707,728,748,768,787,808,828,847,867,888,907,928,947,967,988,1007,1027,1047,1068,1087,1108,1127,1147,1167,1188,1207,1227,1247,1268,1287,1307,1328,1347,1367,1387,1408,1427,1447,1468,1487,1507,1527,1548,1568,1588,1607,1627,1647,1667,1687,1708,1727,1748,1767,1787,1807,1827,1848,1867,1888,1907,1927,1947,1968,1987,2008,2027,2048,2067,2087,2108,2127,2148,2167,2187,2207,2228,2248,2267,2287,2308,2327,2348,2367,2387,2407,2427,2448,2466,2487,2508,2527],"xSR":741.5,"ySR":501.8,"xT1":424.9,"yT1":0,"xT2":1058.1,"yT2":0,"toosoon":0,"cond_shown":"Congruent","ratio_trial":200,"L_num":4,"L_den":10,"R_num":3,"R_den":15,"correct_side":1,"subjID":"mariana-aguilera-pinzon-1","gender":null,"school":"6","age":"6"},{"start_time":1551790287875,"click_time":1551790289913,"finger_time":1551790289312,"fix_duration":621.5872939284452,"trial":34,"RT":1437,"MT":601,"sideResp":1,"stimulus":[],"xmouse":[774,774,774,774,774,774,774,774,774,774,774,774,774,774,774,774,774,774,774,774,774,774,774,774,774,774,774,774,774,774,774,774,774,774,774,774,774,774,774,774,774,774,774,774,774,774,774,774,774,774,774,774,774,774,774,774,774,774,774,774,774,774,774,774,774,774,774,774,774,771,766,761,750,738,728,723,720,717,715,715,713,710,704,691,680,660,633,612,584,576,570,568,568,568,568,568,567,567,566,558,544,521],"ymouse":[554,554,554,554,554,554,554,554,554,554,554,554,554,554,554,554,554,554,554,554,554,554,554,554,554,554,554,554,554,554,554,554,554,554,554,554,554,554,554,554,554,554,554,554,554,554,554,554,554,554,554,554,554,554,554,554,554,554,554,554,554,554,554,554,554,554,554,554,548,534,514,487,451,409,370,357,345,331,305,290,274,259,242,216,205,191,170,152,113,99,91,87,87,87,87,87,86,86,86,85,84,81],"timestamp_mouse":[19,45,58,77,97,117,137,157,177,198,218,237,257,277,297,317,337,357,377,397,417,438,457,477,497,517,537,557,577,597,618,638,657,677,697,717,737,758,777,798,819,837,857,878,897,918,937,957,978,997,1017,1038,1058,1077,1097,1117,1137,1157,1177,1197,1218,1237,1257,1277,1297,1317,1338,1357,1377,1397,1417,1437,1457,1477,1497,1517,1537,1557,1578,1597,1617,1638,1658,1678,1697,1717,1737,1757,1778,1797,1817,1838,1858,1878,1897,1917,1938,1957,1977,1997,2017,2038],"xSR":741.5,"ySR":501.8,"xT1":424.9,"yT1":0,"xT2":1058.1,"yT2":0,"toosoon":0,"cond_shown":"Congruent","ratio_trial":200,"L_num":4,"L_den":8,"R_num":3,"R_den":10,"correct_side":1,"subjID":"mariana-aguilera-pinzon-1","gender":null,"school":"6","age":"6"},{"start_time":1551790297295,"click_time":1551790299353,"finger_time":1551790298913,"fix_duration":359.6888726030182,"trial":35,"RT":1618,"MT":440,"sideResp":1,"stimulus":[],"xmouse":[823,823,823,823,823,823,823,823,823,823,823,823,823,823,823,823,823,823,823,823,823,823,823,823,823,823,823,823,823,823,823,823,823,823,823,823,823,823,823,823,823,823,823,823,823,823,823,823,823,823,823,823,823,823,823,823,823,823,823,823,823,823,823,823,823,823,823,823,823,823,823,823,823,823,823,823,823,807,792,777,760,744,724,704,700,691,679,664,636,625,618,610,578,561,545,533,523,517,517,515,513,510,506],"ymouse":[579,579,579,579,579,579,579,579,579,579,579,579,579,579,579,579,579,579,579,579,579,579,579,579,579,579,579,579,579,579,579,579,579,579,579,579,579,579,579,579,579,579,579,579,579,579,579,579,579,579,579,579,579,579,579,579,579,579,579,579,579,579,579,579,579,579,579,579,579,579,579,579,579,579,579,579,578,565,546,523,491,465,427,397,389,373,351,328,292,278,265,254,222,209,197,189,179,169,164,154,142,125,96],"timestamp_mouse":[18,44,57,77,98,117,138,157,177,197,219,237,257,278,298,317,337,357,377,398,418,438,458,479,497,519,537,558,577,599,617,639,658,677,699,718,737,757,778,797,818,839,857,878,897,918,937,958,977,997,1018,1037,1058,1078,1099,1118,1138,1158,1179,1198,1218,1239,1258,1278,1299,1317,1338,1357,1379,1398,1417,1438,1459,1478,1498,1518,1537,1558,1577,1597,1618,1638,1657,1677,1697,1718,1737,1757,1777,1797,1818,1837,1858,1877,1897,1917,1938,1958,1977,1997,2018,2037,2058],"xSR":741.5,"ySR":501.8,"xT1":424.9,"yT1":0,"xT2":1058.1,"yT2":0,"toosoon":0,"cond_shown":"Incongruent","ratio_trial":300,"L_num":3,"L_den":6,"R_num":4,"R_den":20,"correct_side":1,"subjID":"mariana-aguilera-pinzon-1","gender":null,"school":"6","age":"6"},{"start_time":1551790300943,"click_time":1551790302814,"finger_time":1551790301893,"fix_duration":368.8111916383517,"trial":36,"RT":950,"MT":921,"sideResp":1,"stimulus":[],"xmouse":[791,791,791,791,791,791,791,791,791,791,791,791,791,791,791,791,791,791,791,791,791,791,791,791,791,791,791,791,791,791,791,791,791,791,791,791,791,791,791,791,791,791,791,791,791,792,791,782,766,753,724,710,702,698,694,692,692,691,690,685,681,675,669,662,655,641,636,630,624,617,610,607,604,601,596,585,581,576,574,571,563,558,556,555,555,555,555,555,553,549,533,527,522],"ymouse":[536,536,536,536,536,536,536,536,536,536,536,536,536,536,536,536,536,536,536,536,536,536,536,536,536,536,536,536,536,536,536,536,536,536,536,536,536,536,536,536,536,536,536,536,536,517,490,467,437,422,397,386,379,374,365,359,353,343,336,306,290,276,262,248,237,216,208,200,191,178,161,153,148,142,133,116,108,101,94,82,67,61,57,56,56,56,56,56,56,56,56,57,57],"timestamp_mouse":[9,49,70,89,109,129,151,170,189,209,229,250,269,289,309,330,350,370,389,410,429,449,469,489,511,529,549,571,589,609,630,649,669,690,710,730,749,770,789,809,830,849,870,890,910,929,950,970,989,1009,1030,1049,1069,1089,1111,1129,1149,1169,1191,1210,1229,1249,1270,1289,1309,1329,1349,1370,1390,1410,1430,1449,1469,1489,1509,1529,1550,1569,1590,1609,1629,1649,1669,1689,1710,1729,1750,1770,1789,1809,1830,1849,1871],"xSR":741.5,"ySR":501.8,"xT1":424.9,"yT1":0,"xT2":1058.1,"yT2":0,"toosoon":0,"cond_shown":"Incongruent","ratio_trial":200,"L_num":1,"L_den":2,"R_num":3,"R_den":10,"correct_side":1,"subjID":"mariana-aguilera-pinzon-1","gender":null,"school":"6","age":"6"},{"start_time":1551790305189,"click_time":1551790307614,"finger_time":1551790306932,"fix_duration":915.3979939822851,"trial":37,"RT":1743,"MT":682,"sideResp":1,"stimulus":[],"xmouse":[793,793,793,793,793,793,793,793,793,793,793,793,793,793,793,793,793,793,793,793,793,793,793,793,793,793,793,793,793,793,793,793,793,793,793,793,793,793,793,793,793,793,793,793,793,793,793,793,793,793,793,793,793,793,793,793,793,793,793,793,793,793,793,793,793,793,793,793,793,793,793,793,793,793,793,793,793,793,793,793,793,793,793,793,793,794,794,794,793,791,789,786,782,777,753,735,715,692,650,601,588,580,575,574,574,573,571,567,564,564,564,564,564,561,549,549,549,548,548,539,532,523],"ymouse":[515,515,515,515,515,515,515,515,515,515,515,515,515,515,515,515,515,515,515,515,515,515,515,515,515,515,515,515,515,515,515,515,515,515,515,515,515,515,515,515,515,515,515,515,515,515,515,515,515,515,515,515,515,515,515,515,515,515,515,515,515,515,515,515,515,515,515,515,515,515,515,515,515,515,515,515,515,515,515,515,515,515,515,515,515,509,503,501,491,487,483,477,470,461,430,410,386,359,310,243,217,198,181,165,134,121,107,97,92,92,92,92,92,91,91,91,91,91,91,88,85,81],"timestamp_mouse":[12,24,43,64,83,103,123,143,164,184,205,224,244,263,284,303,323,343,363,383,403,425,443,464,485,503,523,544,565,585,603,624,644,663,684,704,724,744,765,784,803,825,844,864,883,904,925,944,964,983,1004,1024,1044,1064,1085,1104,1125,1144,1163,1183,1203,1223,1243,1264,1284,1303,1324,1343,1364,1384,1403,1423,1443,1463,1483,1504,1523,1543,1563,1584,1603,1624,1643,1664,1683,1704,1724,1743,1764,1783,1803,1823,1844,1865,1883,1904,1923,1944,1965,1985,2003,2023,2044,2063,2083,2104,2124,2143,2164,2183,2204,2224,2244,2263,2283,2303,2323,2344,2363,2383,2403,2424],"xSR":741.5,"ySR":501.8,"xT1":424.9,"yT1":0,"xT2":1058.1,"yT2":0,"toosoon":0,"cond_shown":"Incongruent","ratio_trial":300,"L_num":13,"L_den":26,"R_num":12,"R_den":15,"correct_side":2,"subjID":"mariana-aguilera-pinzon-1","gender":null,"school":"6","age":"6"},{"start_time":1551790309537,"click_time":1551790310912,"finger_time":1551790310712,"fix_duration":622.2039672877318,"trial":38,"RT":1175,"MT":200,"sideResp":1,"stimulus":[],"xmouse":[813,813,813,813,813,813,813,813,813,813,813,813,813,813,813,813,813,813,813,813,813,813,813,813,813,813,813,813,813,813,813,813,813,813,813,813,813,813,813,813,813,813,813,813,813,813,813,813,813,813,813,813,813,813,813,810,788,764,727,674,622,507,485,472,464,451,447,443,442],"ymouse":[574,574,574,574,574,574,574,574,574,574,574,574,574,574,574,574,574,574,574,574,574,574,574,574,574,574,574,574,574,574,574,574,574,574,574,574,574,574,574,574,574,574,574,574,574,573,573,573,573,573,573,573,573,573,572,566,538,507,455,393,342,241,217,193,161,123,111,101,93],"timestamp_mouse":[31,35,57,75,95,116,135,155,176,195,215,237,255,276,297,315,337,355,375,397,415,437,455,477,495,515,535,555,575,595,615,635,655,675,695,715,735,755,775,795,817,836,856,876,895,915,935,955,976,995,1015,1035,1055,1075,1095,1116,1135,1155,1175,1196,1216,1235,1255,1276,1295,1317,1335,1356,1375],"xSR":741.5,"ySR":501.8,"xT1":424.9,"yT1":0,"xT2":1058.1,"yT2":0,"toosoon":0,"cond_shown":"Incongruent","ratio_trial":300,