[{"start_time":1551790947447,"click_time":1551790949594,"finger_time":1551790948493,"fix_duration":250,"trial":0,"RT":1046,"MT":1101,"sideResp":2,"stimulus":"img/750/equaldotsize/R/7_Ratio_750_L_3_R_4.png","xmouse":[787,787,788,788,788,788,788,788,788,788,788,788,788,788,788,788,788,788,788,788,788,788,788,788,788,788,788,788,788,788,788,788,788,788,788,788,788,788,788,788,788,788,788,788,788,788,788,788,788,788,788,788,788,786,774,770,767,763,763,763,763,768,785,811,939,1002,1060,1118,1165,1205,1256,1259,1259,1258,1249,1243,1236,1229,1222,1218,1213,1212,1211,1210,1206,1198,1192,1183,1177,1168,1166,1165,1165,1164,1164,1164,1164,1164,1163,1162,1160,1160,1160,1160,1160,1159,1158],"ymouse":[510,510,510,510,510,510,510,510,510,510,510,511,511,511,511,511,511,511,511,511,511,511,511,511,511,511,511,511,511,511,511,511,511,511,511,511,511,511,511,511,511,511,511,510,509,506,502,498,492,480,473,468,461,452,424,416,410,404,403,403,403,397,387,366,249,200,156,127,107,91,78,78,78,78,79,77,74,67,58,50,39,37,36,35,33,30,30,30,31,38,40,41,42,42,42,43,44,45,45,45,45,45,45,45,45,45,45],"timestamp_mouse":[41,46,67,86,105,126,146,167,186,205,226,245,266,286,306,326,345,365,385,405,425,446,467,486,506,527,546,566,586,606,626,646,666,687,707,726,747,765,787,807,826,847,867,885,906,926,946,966,986,1006,1026,1046,1065,1086,1107,1125,1145,1167,1186,1207,1226,1247,1266,1286,1307,1325,1346,1366,1387,1406,1425,1446,1466,1486,1507,1526,1546,1565,1587,1606,1626,1646,1667,1686,1706,1726,1746,1767,1786,1807,1825,1845,1865,1886,1906,1927,1946,1967,1985,2006,2026,2047,2066,2086,2105,2126,2147],"xSR":741.5,"ySR":469.95,"xT1":424.9,"yT1":0,"xT2":1058.1,"yT2":0,"toosoon":0,"cond_shown":"equaldotsize","ratio_trial":750,"smaller_num":"3","larger_num":"4","correct_side":2,"subjID":"mariana  alape matiz2","gender":"1","age":"11","school":"6","test":{"fix_dur":[250,1500],"timestim":300,"targets_dim":[100,100],"targets_relative_coord":[0.3,0.7],"size_stim":[880,420],"start_dim":[100,100],"size_start":[300,300],"size_fix":60,"samplingrate":20,"img_types":["equaldotsize","equaldotanddens","randomdotsizeEA"],"ratios":[250,500,750,900],"rep_conds":9,"nTrials":120,"trials_to_rest":500,"Trials_order":[30,63,88,91,94,12,16,25,15,68,39,28,43,59,1,89,92,93,5,13,101,95,99,62,14,4,67,56,55,119,116,60,82,58,87,47,42,23,34,104,73,64,48,96,118,38,8,2,22,100,52,81,102,71,103,83,85,105,86,111,109,114,40,76,65,50,49,98,80,57,51,61,17,21,77,27,90,66,79,115,75,19,7,107,97,3,74,24,33,46,108,18,35,36,32,37,26,41,112,45,6,9,53,113,20,0,10,69,54,44,84,72,78,117,106,29,11,70,31,110],"cond_shown":["equaldotsize","equaldotsize","equaldotanddens","equaldotanddens","equaldotanddens","equaldotsize","equaldotanddens","equaldotanddens","equaldotsize","randomdotsizeEA","equaldotsize","equaldotanddens","equaldotanddens","randomdotsizeEA","equaldotanddens","randomdotsizeEA","randomdotsizeEA","equaldotsize","randomdotsizeEA","equaldotanddens","randomdotsizeEA","randomdotsizeEA","equaldotsize","randomdotsizeEA","randomdotsizeEA","equaldotanddens","equaldotanddens","randomdotsizeEA","equaldotanddens","randomdotsizeEA","randomdotsizeEA","equaldotsize","equaldotanddens","equaldotanddens","equaldotsize","randomdotsizeEA","equaldotsize","randomdotsizeEA","equaldotanddens","randomdotsizeEA","equaldotanddens","equaldotanddens","equaldotsize","equaldotsize","equaldotanddens","randomdotsizeEA","randomdotsizeEA","randomdotsizeEA","equaldotanddens","equaldotanddens","equaldotanddens","equaldotsize","equaldotsize","randomdotsizeEA","equaldotanddens","randomdotsizeEA","equaldotanddens","equaldotsize","randomdotsizeEA","equaldotsize","equaldotanddens","equaldotsize","equaldotanddens","equaldotanddens","randomdotsizeEA","randomdotsizeEA","equaldotanddens","randomdotsizeEA","randomdotsizeEA","equaldotsize","equaldotsize","equaldotanddens","randomdotsizeEA","equaldotsize","randomdotsizeEA","equaldotsize","equaldotsize","equaldotsize","equaldotanddens","equaldotanddens","equaldotsize","equaldotanddens","equaldotanddens","randomdotsizeEA","equaldotanddens","equaldotsize","randomdotsizeEA","equaldotsize","equaldotsize","equaldotanddens","equaldotsize","equaldotsize","randomdotsizeEA","equaldotsize","randomdotsizeEA","equaldotanddens","randomdotsizeEA","randomdotsizeEA","equaldotanddens","equaldotsize","equaldotsize","equaldotsize","randomdotsizeEA","randomdotsizeEA","randomdotsizeEA","equaldotsize","equaldotanddens","equaldotsize","equaldotsize","randomdotsizeEA","equaldotsize","equaldotsize","equaldotsize","equaldotsize","equaldotanddens","randomdotsizeEA","randomdotsizeEA","equaldotanddens","equaldotanddens","randomdotsizeEA"],"ratio_trial":[750,500,500,750,900,250,500,250,500,750,500,500,750,900,250,500,750,900,500,250,500,900,500,250,250,500,750,750,750,900,750,250,900,900,500,900,750,900,900,750,250,500,250,250,900,250,750,250,900,500,500,900,750,900,750,900,250,900,250,500,250,750,500,500,500,250,250,250,750,900,500,250,500,900,500,500,750,750,750,750,500,750,750,900,250,500,250,250,900,900,250,750,900,250,750,250,250,500,500,900,750,900,500,500,750,250,900,900,750,750,250,250,750,900,900,500,900,900,750,250],"smaller_num":["3","5","2","15","9","3","6","2","9","3","5","2","3","9","3","2","18","18","1","6","9","18","2","2","6","10","6","15","3","9","18","2","9","9","5","18","12","9","9","18","2","4","1","4","18","3","3","2","18","1","9","9","15","18","15","9","1","18","5","9","1","15","2","9","1","3","2","6","15","9","5","1","4","9","2","9","3","6","15","3","9","3","15","9","3","4","3","3","18","9","2","12","18","2","15","6","2","1","9","9","3","18","6","9","9","2","18","9","6","3","6","2","9","18","18","6","18","18","3","3"],"larger_num":["4","10","4","20","10","12","12","8","18","4","10","4","4","10","12","4","24","20","2","24","18","20","4","8","24","20","8","20","4","10","24","8","10","10","10","20","16","10","10","24","8","8","4","16","20","12","4","8","20","2","18","10","20","20","20","10","4","20","20","18","4","20","4","18","2","12","8","24","20","10","10","4","8","10","4","18","4","8","20","4","18","4","20","10","12","8","12","12","20","10","8","16","20","8","20","24","8","2","18","10","4","20","12","18","12","8","20","10","8","4","24","8","12","20","20","12","20","20","4","12"],"correct_side":[2,2,2,1,2,2,1,1,2,2,2,2,1,2,1,2,1,2,2,1,2,2,1,2,1,2,2,1,1,2,1,1,2,2,2,2,2,1,1,1,2,1,2,1,1,2,1,1,1,2,1,2,2,1,2,2,2,2,2,2,2,2,1,2,2,2,1,1,2,1,1,2,1,2,2,1,1,1,2,2,1,1,2,2,2,1,1,1,1,2,1,2,1,2,2,1,1,2,2,2,2,1,1,1,2,2,1,1,1,1,1,1,2,1,1,1,1,2,1,2],"img_shown":["img/750/equaldotsize/R/7_Ratio_750_L_3_R_4.png","img/500/equaldotsize/R/14_Ratio_500_L_5_R_10.png","img/500/equaldotanddens/R/9_Ratio_500_L_2_R_4.png","img/750/equaldotanddens/L/1_Ratio_750_L_20_R_15.png","img/900/equaldotanddens/R/5_Ratio_900_L_9_R_10.png","img/250/equaldotsize/R/11_Ratio_250_L_3_R_12.png","img/500/equaldotanddens/L/13_Ratio_500_L_12_R_6.png","img/250/equaldotanddens/L/7_Ratio_250_L_8_R_2.png","img/500/equaldotsize/R/1_Ratio_500_L_9_R_18.png","img/750/randomdotsizeEA/R/12_Ratio_750_L_3_R_4.png","img/500/equaldotsize/R/14_Ratio_500_L_5_R_10.png","img/500/equaldotanddens/R/9_Ratio_500_L_2_R_4.png","img/750/equaldotanddens/L/9_Ratio_750_L_4_R_3.png","img/900/randomdotsizeEA/R/3_Ratio_900_L_9_R_10.png","img/250/equaldotanddens/L/14_Ratio_250_L_12_R_3.png","img/500/randomdotsizeEA/R/9_Ratio_500_L_2_R_4.png","img/750/randomdotsizeEA/L/6_Ratio_750_L_24_R_18.png","img/900/equaldotsize/R/13_Ratio_900_L_18_R_20.png","img/500/randomdotsizeEA/R/15_Ratio_500_L_1_R_2.png","img/250/equaldotanddens/L/5_Ratio_250_L_24_R_6.png","img/500/randomdotsizeEA/R/1_Ratio_500_L_9_R_18.png","img/900/randomdotsizeEA/R/12_Ratio_900_L_18_R_20.png","img/500/equaldotsize/L/5_Ratio_500_L_4_R_2.png","img/250/randomdotsizeEA/R/13_Ratio_250_L_2_R_8.png","img/250/randomdotsizeEA/L/5_Ratio_250_L_24_R_6.png","img/500/equaldotanddens/R/3_Ratio_500_L_10_R_20.png","img/750/equaldotanddens/R/2_Ratio_750_L_6_R_8.png","img/750/randomdotsizeEA/L/1_Ratio_750_L_20_R_15.png","img/750/equaldotanddens/L/10_Ratio_750_L_4_R_3.png","img/900/randomdotsizeEA/R/6_Ratio_900_L_9_R_10.png","img/750/randomdotsizeEA/L/6_Ratio_750_L_24_R_18.png","img/250/equaldotsize/L/3_Ratio_250_L_8_R_2.png","img/900/equaldotanddens/R/5_Ratio_900_L_9_R_10.png","img/900/equaldotanddens/R/5_Ratio_900_L_9_R_10.png","img/500/equaldotsize/R/14_Ratio_500_L_5_R_10.png","img/900/randomdotsizeEA/R/14_Ratio_900_L_18_R_20.png","img/750/equaldotsize/R/11_Ratio_750_L_12_R_16.png","img/900/randomdotsizeEA/L/1_Ratio_900_L_10_R_9.png","img/900/equaldotanddens/L/1_Ratio_900_L_10_R_9.png","img/750/randomdotsizeEA/L/6_Ratio_750_L_24_R_18.png","img/250/equaldotanddens/R/13_Ratio_250_L_2_R_8.png","img/500/equaldotanddens/L/8_Ratio_500_L_8_R_4.png","img/250/equaldotsize/R/8_Ratio_250_L_1_R_4.png","img/250/equaldotsize/L/2_Ratio_250_L_16_R_4.png","img/900/equaldotanddens/L/8_Ratio_900_L_20_R_18.png","img/250/randomdotsizeEA/R/11_Ratio_250_L_3_R_12.png","img/750/randomdotsizeEA/L/8_Ratio_750_L_4_R_3.png","img/250/randomdotsizeEA/L/3_Ratio_250_L_8_R_2.png","img/900/equaldotanddens/L/8_Ratio_900_L_20_R_18.png","img/500/equaldotanddens/R/15_Ratio_500_L_1_R_2.png","img/500/equaldotanddens/L/4_Ratio_500_L_18_R_9.png","img/900/equaldotsize/R/7_Ratio_900_L_9_R_10.png","img/750/equaldotsize/R/4_Ratio_750_L_15_R_20.png","img/900/randomdotsizeEA/L/2_Ratio_900_L_20_R_18.png","img/750/equaldotanddens/R/4_Ratio_750_L_15_R_20.png","img/900/randomdotsizeEA/R/3_Ratio_900_L_9_R_10.png","img/250/equaldotanddens/R/8_Ratio_250_L_1_R_4.png","img/900/equaldotsize/R/9_Ratio_900_L_18_R_20.png","img/250/randomdotsizeEA/R/12_Ratio_250_L_5_R_20.png","img/500/equaldotsize/R/1_Ratio_500_L_9_R_18.png","img/250/equaldotanddens/R/8_Ratio_250_L_1_R_4.png","img/750/equaldotsize/R/4_Ratio_750_L_15_R_20.png","img/500/equaldotanddens/L/10_Ratio_500_L_4_R_2.png","img/500/equaldotanddens/R/6_Ratio_500_L_9_R_18.png","img/500/randomdotsizeEA/R/12_Ratio_500_L_1_R_2.png","img/250/randomdotsizeEA/R/11_Ratio_250_L_3_R_12.png","img/250/equaldotanddens/L/7_Ratio_250_L_8_R_2.png","img/250/randomdotsizeEA/L/5_Ratio_250_L_24_R_6.png","img/750/randomdotsizeEA/R/5_Ratio_750_L_15_R_20.png","img/900/equaldotsize/L/1_Ratio_900_L_10_R_9.png","img/500/equaldotsize/L/7_Ratio_500_L_10_R_5.png","img/250/equaldotanddens/R/8_Ratio_250_L_1_R_4.png","img/500/randomdotsizeEA/L/8_Ratio_500_L_8_R_4.png","img/900/equaldotsize/R/5_Ratio_900_L_9_R_10.png","img/500/randomdotsizeEA/R/9_Ratio_500_L_2_R_4.png","img/500/equaldotsize/L/4_Ratio_500_L_18_R_9.png","img/750/equaldotsize/L/9_Ratio_750_L_4_R_3.png","img/750/equaldotsize/L/14_Ratio_750_L_8_R_6.png","img/750/equaldotanddens/R/5_Ratio_750_L_15_R_20.png","img/750/equaldotanddens/R/12_Ratio_750_L_3_R_4.png","img/500/equaldotsize/L/4_Ratio_500_L_18_R_9.png","img/750/equaldotanddens/L/10_Ratio_750_L_4_R_3.png","img/750/equaldotanddens/R/5_Ratio_750_L_15_R_20.png","img/900/randomdotsizeEA/R/6_Ratio_900_L_9_R_10.png","img/250/equaldotanddens/R/11_Ratio_250_L_3_R_12.png","img/500/equaldotsize/L/8_Ratio_500_L_8_R_4.png","img/250/randomdotsizeEA/L/14_Ratio_250_L_12_R_3.png","img/250/equaldotsize/L/15_Ratio_250_L_12_R_3.png","img/900/equaldotsize/L/2_Ratio_900_L_20_R_18.png","img/900/equaldotanddens/R/3_Ratio_900_L_9_R_10.png","img/250/equaldotsize/L/7_Ratio_250_L_8_R_2.png","img/750/equaldotsize/R/11_Ratio_750_L_12_R_16.png","img/900/randomdotsizeEA/L/10_Ratio_900_L_20_R_18.png","img/250/equaldotsize/R/13_Ratio_250_L_2_R_8.png","img/750/randomdotsizeEA/R/3_Ratio_750_L_15_R_20.png","img/250/equaldotanddens/L/5_Ratio_250_L_24_R_6.png","img/250/randomdotsizeEA/L/3_Ratio_250_L_8_R_2.png","img/500/randomdotsizeEA/R/15_Ratio_500_L_1_R_2.png","img/500/equaldotanddens/R/1_Ratio_500_L_9_R_18.png","img/900/equaldotsize/R/6_Ratio_900_L_9_R_10.png","img/750/equaldotsize/R/7_Ratio_750_L_3_R_4.png","img/900/equaldotsize/L/8_Ratio_900_L_20_R_18.png","img/500/randomdotsizeEA/L/13_Ratio_500_L_12_R_6.png","img/500/randomdotsizeEA/L/4_Ratio_500_L_18_R_9.png","img/750/randomdotsizeEA/R/15_Ratio_750_L_9_R_12.png","img/250/equaldotsize/R/13_Ratio_250_L_2_R_8.png","img/900/equaldotanddens/L/10_Ratio_900_L_20_R_18.png","img/900/equaldotsize/L/1_Ratio_900_L_10_R_9.png","img/750/equaldotsize/L/14_Ratio_750_L_8_R_6.png","img/750/randomdotsizeEA/L/9_Ratio_750_L_4_R_3.png","img/250/equaldotsize/L/5_Ratio_250_L_24_R_6.png","img/250/equaldotsize/L/1_Ratio_250_L_8_R_2.png","img/750/equaldotsize/R/15_Ratio_750_L_9_R_12.png","img/900/equaldotsize/L/4_Ratio_900_L_20_R_18.png","img/900/equaldotanddens/L/4_Ratio_900_L_20_R_18.png","img/500/randomdotsizeEA/L/13_Ratio_500_L_12_R_6.png","img/900/randomdotsizeEA/L/2_Ratio_900_L_20_R_18.png","img/900/equaldotanddens/R/13_Ratio_900_L_18_R_20.png","img/750/equaldotanddens/L/10_Ratio_750_L_4_R_3.png","img/250/randomdotsizeEA/R/11_Ratio_250_L_3_R_12.png"],"Rat0":[["12_Ratio_0_L_9_R_0.png","13_Ratio_0_L_6_R_0.png","5_Ratio_0_L_2_R_0.png","6_Ratio_0_L_4_R_0.png","8_Ratio_0_L_6_R_0.png"],["1_Ratio_0_L_0_R_17.png","10_Ratio_0_L_0_R_22.png","11_Ratio_0_L_0_R_1.png","14_Ratio_0_L_0_R_24.png","15_Ratio_0_L_0_R_4.png","2_Ratio_0_L_0_R_5.png","3_Ratio_0_L_0_R_17.png","4_Ratio_0_L_0_R_7.png","7_Ratio_0_L_0_R_19.png","9_Ratio_0_L_0_R_15.png"]],"Rat250":[["1_Ratio_250_L_8_R_2.png","14_Ratio_250_L_12_R_3.png","15_Ratio_250_L_12_R_3.png","2_Ratio_250_L_16_R_4.png","3_Ratio_250_L_8_R_2.png","5_Ratio_250_L_24_R_6.png","7_Ratio_250_L_8_R_2.png"],["10_Ratio_250_L_4_R_16.png","11_Ratio_250_L_3_R_12.png","12_Ratio_250_L_5_R_20.png","13_Ratio_250_L_2_R_8.png","4_Ratio_250_L_3_R_12.png","6_Ratio_250_L_6_R_24.png","8_Ratio_250_L_1_R_4.png","9_Ratio_250_L_3_R_12.png"]],"Rat500":[["10_Ratio_500_L_4_R_2.png","11_Ratio_500_L_12_R_6.png","13_Ratio_500_L_12_R_6.png","4_Ratio_500_L_18_R_9.png","5_Ratio_500_L_4_R_2.png","7_Ratio_500_L_10_R_5.png","8_Ratio_500_L_8_R_4.png"],["1_Ratio_500_L_9_R_18.png","12_Ratio_500_L_1_R_2.png","14_Ratio_500_L_5_R_10.png","15_Ratio_500_L_1_R_2.png","2_Ratio_500_L_3_R_6.png","3_Ratio_500_L_10_R_20.png","6_Ratio_500_L_9_R_18.png","9_Ratio_500_L_2_R_4.png"]],"Rat750":[["1_Ratio_750_L_20_R_15.png","10_Ratio_750_L_4_R_3.png","13_Ratio_750_L_8_R_6.png","14_Ratio_750_L_8_R_6.png","6_Ratio_750_L_24_R_18.png","8_Ratio_750_L_4_R_3.png","9_Ratio_750_L_4_R_3.png"],["11_Ratio_750_L_12_R_16.png","12_Ratio_750_L_3_R_4.png","15_Ratio_750_L_9_R_12.png","2_Ratio_750_L_6_R_8.png","3_Ratio_750_L_15_R_20.png","4_Ratio_750_L_15_R_20.png","5_Ratio_750_L_15_R_20.png","7_Ratio_750_L_3_R_4.png"]],"Rat900":[["1_Ratio_900_L_10_R_9.png","10_Ratio_900_L_20_R_18.png","2_Ratio_900_L_20_R_18.png","4_Ratio_900_L_20_R_18.png","8_Ratio_900_L_20_R_18.png"],["11_Ratio_900_L_18_R_20.png","12_Ratio_900_L_18_R_20.png","13_Ratio_900_L_18_R_20.png","14_Ratio_900_L_18_R_20.png","15_Ratio_900_L_9_R_10.png","3_Ratio_900_L_9_R_10.png","5_Ratio_900_L_9_R_10.png","6_Ratio_900_L_9_R_10.png","7_Ratio_900_L_9_R_10.png","9_Ratio_900_L_18_R_20.png"]],"Rat1000":[["10_Ratio_1000_L_16_R_16.png","11_Ratio_1000_L_6_R_6.png","12_Ratio_1000_L_14_R_14.png","13_Ratio_1000_L_20_R_20.png","15_Ratio_1000_L_15_R_15.png","2_Ratio_1000_L_17_R_17.png","4_Ratio_1000_L_9_R_9.png","5_Ratio_1000_L_6_R_6.png","6_Ratio_1000_L_19_R_19.png","8_Ratio_1000_L_14_R_14.png","9_Ratio_1000_L_25_R_25.png"],["1_Ratio_1000_L_1_R_1.png","14_Ratio_1000_L_17_R_17.png","3_Ratio_1000_L_17_R_17.png","7_Ratio_1000_L_6_R_6.png"]]}},{"start_time":1551790952848,"click_time":1551790954173,"finger_time":1551790953713,"fix_duration":1072.3815946331363,"trial":1,"RT":865,"MT":460,"sideResp":2,"stimulus":"img/500/equaldotsize/R/14_Ratio_500_L_5_R_10.png","xmouse":[756,756,756,756,756,756,756,756,756,756,756,756,756,756,756,756,756,756,756,756,756,756,756,756,756,756,756,756,756,756,756,756,756,756,756,756,756,756,756,756,756,770,787,805,825,844,884,902,921,940,961,990,1002,1015,1025,1049,1058,1067,1078,1083,1087,1088,1088,1088,1088,1088,1088],"ymouse":[511,511,511,511,511,511,511,511,511,511,511,511,511,511,511,511,511,511,511,511,511,511,511,511,511,511,511,511,511,511,511,511,511,511,511,511,511,511,511,511,511,495,479,460,438,414,353,324,294,265,239,207,199,190,184,168,160,154,147,140,130,126,120,113,108,102,93],"timestamp_mouse":[9,25,51,65,86,106,126,145,166,185,205,225,244,266,284,305,325,344,366,385,406,425,446,466,485,506,526,545,566,585,605,626,646,664,685,706,724,746,766,786,804,825,844,865,885,904,925,945,966,986,1005,1025,1045,1066,1085,1106,1125,1145,1164,1186,1206,1225,1246,1266,1285,1305,1324],"xSR":741.5,"ySR":469.95,"xT1":424.9,"yT1":0,"xT2":1058.1,"yT2":0,"toosoon":0,"cond_shown":"equaldotsize","ratio_trial":500,"smaller_num":"5","larger_num":"10","correct_side":2,"subjID":"mariana  alape matiz2","gender":"1","age":"11","school":"6"},{"start_time":1551790959168,"click_time":1551790961333,"finger_time":1551790960073,"fix_duration":1133.6593871378482,"trial":2,"RT":905,"MT":1260,"sideResp":1,"stimulus":"img/500/equaldotanddens/R/9_Ratio_500_L_2_R_4.png","xmouse":[800,800,800,800,800,800,800,800,800,800,800,800,800,800,800,800,800,800,800,800,800,800,800,800,800,800,800,800,800,800,800,800,800,800,800,800,800,800,800,799,798,798,798,800,824,845,864,879,892,924,934,942,952,965,976,1001,1013,1024,1032,1039,1040,1040,1040,1040,1040,1038,1036,1031,1025,1015,981,962,934,906,833,793,751,711,677,623,616,613,612,611,610,606,604,602,601,601,598,595,591,583,569,563,557,553,551,551,549,548,545,543,535,532,529,525,519],"ymouse":[512,512,512,512,512,512,512,512,512,512,512,512,512,512,512,512,512,512,512,512,512,512,512,512,512,512,512,512,512,512,512,512,512,512,512,512,512,512,512,509,507,504,501,500,486,478,469,460,446,400,383,358,333,312,293,248,231,216,207,193,189,184,184,184,183,182,180,179,178,177,177,178,179,181,183,183,183,183,183,174,171,170,169,168,167,164,162,160,160,160,159,157,153,150,140,134,130,127,124,124,122,121,118,115,108,105,102,99,94],"timestamp_mouse":[9,35,44,66,86,105,126,145,166,185,206,226,245,265,284,305,324,346,365,385,404,426,446,465,484,506,524,544,566,585,605,626,646,665,684,706,725,745,766,786,806,825,845,866,886,905,925,946,966,986,1005,1025,1046,1065,1085,1104,1126,1145,1164,1186,1205,1226,1245,1265,1286,1305,1325,1346,1365,1384,1405,1425,1445,1465,1486,1504,1526,1544,1564,1586,1605,1625,1645,1665,1684,1704,1726,1745,1766,1785,1804,1825,1845,1864,1886,1905,1926,1946,1965,1985,2006,2025,2046,2065,2086,2105,2125,2145,2165],"xSR":741.5,"ySR":469.95,"xT1":424.9,"yT1":0,"xT2":1058.1,"yT2":0,"toosoon":0,"cond_shown":"equaldotanddens","ratio_trial":500,"smaller_num":"2","larger_num":"4","correct_side":2,"subjID":"mariana  alape matiz2","gender":"1","age":"11","school":"6"},{"start_time":1551790964377,"click_time":1551790966554,"finger_time":1551790965333,"fix_duration":1141.6087246043053,"trial":3,"RT":956,"MT":1221,"sideResp":2,"stimulus":"img/750/equaldotanddens/L/1_Ratio_750_L_20_R_15.png","xmouse":[790,790,790,790,790,790,790,790,790,790,790,790,790,790,790,790,790,790,790,790,790,790,790,790,790,790,790,790,790,790,790,790,790,790,790,790,790,790,790,790,790,792,793,796,804,810,810,804,794,743,721,693,661,634,602,598,593,589,578,570,565,560,557,555,555,555,555,555,557,589,614,641,666,694,752,779,804,825,841,877,886,896,903,917,925,933,939,945,953,984,997,1009,1014,1018,1021,1022,1023,1024,1026,1030,1033,1037,1040,1044,1046,1048,1053,1058,1077],"ymouse":[530,530,530,530,530,530,530,530,530,530,530,530,530,530,530,530,530,530,530,530,530,530,530,530,530,530,530,530,530,530,530,530,530,530,530,530,530,530,530,530,530,528,525,522,501,486,471,444,421,358,339,319,296,280,260,257,252,249,242,239,235,233,231,231,231,231,231,230,229,214,204,192,180,172,150,138,129,123,116,103,99,98,94,92,89,88,86,85,83,83,83,84,84,84,85,85,85,85,85,82,80,78,77,76,75,74,73,72,68],"timestamp_mouse":[15,43,56,77,95,116,137,156,175,195,215,236,256,276,297,316,336,357,375,397,416,436,456,476,496,516,536,555,575,597,616,636,656,676,697,716,735,755,775,796,816,836,856,875,896,917,936,956,976,996,1016,1036,1057,1076,1096,1116,1137,1155,1177,1196,1216,1236,1257,1276,1296,1315,1337,1357,1376,1397,1416,1436,1457,1476,1496,1516,1537,1556,1577,1597,1615,1635,1657,1677,1696,1716,1736,1755,1776,1796,1816,1836,1857,1876,1895,1915,1936,1957,1976,1997,2016,2036,2057,2077,2096,2116,2136,2155,2176],"xSR":741.5,"ySR":469.95,"xT1":424.9,"yT1":0,"xT2":1058.1,"yT2":0,"toosoon":0,"cond_shown":"equaldotanddens","ratio_trial":750,"smaller_num":"15","larger_num":"20","correct_side":1,"subjID":"mariana  alape matiz2","gender":"1","age":"11","school":"6"},{"start_time":1551790973549,"click_time":1551790975213,"finger_time":1551790974354,"fix_duration":1374.7576052417253,"trial":4,"RT":805,"MT":859,"sideResp":2,"stimulus":"img/900/equaldotanddens/R/5_Ratio_900_L_9_R_10.png","xmouse":[786,786,786,786,786,786,786,786,786,786,786,786,786,786,786,786,786,786,786,786,786,786,786,786,786,786,786,786,786,786,786,786,786,786,786,786,786,786,786,786,794,800,814,832,858,911,935,956,972,987,1005,1017,1027,1034,1045,1061,1067,1071,1074,1075,1076,1077,1078,1078,1078,1079,1080,1082,1083,1086,1088,1088,1088,1088,1088,1088,1088,1088,1088,1088,1088,1088,1088,1088],"ymouse":[518,518,518,518,518,518,518,518,518,518,518,518,518,518,518,518,518,518,518,518,518,518,518,518,518,518,518,518,518,518,518,518,518,518,518,518,518,515,512,505,466,444,420,399,376,335,318,303,291,280,258,244,233,222,211,194,186,182,176,172,168,160,157,154,153,150,146,143,142,137,132,128,124,123,122,121,117,116,115,115,112,110,106,93],"timestamp_mouse":[9,24,46,64,84,105,123,145,164,184,203,224,244,265,284,304,324,345,363,385,405,423,445,463,485,505,524,545,565,584,605,625,644,664,685,705,724,745,765,784,805,824,844,864,884,906,924,944,964,984,1005,1024,1044,1064,1084,1105,1124,1144,1165,1184,1204,1224,1245,1264,1285,1304,1324,1344,1364,1384,1404,1423,1444,1465,1485,1505,1525,1543,1565,1584,1606,1624,1644,1664],"xSR":741.5,"ySR":469.95,"xT1":424.9,"yT1":0,"xT2":1058.1,"yT2":0,"toosoon":0,"cond_shown":"equaldotanddens","ratio_trial":900,"smaller_num":"9","larger_num":"10","correct_side":2,"subjID":"mariana  alape matiz2","gender":"1","age":"11","school":"6"},{"start_time":1551790978905,"click_time":1551790980714,"finger_time":1551790980033,"fix_duration":431.80990722182236,"trial":5,"RT":1128,"MT":681,"sideResp":2,"stimulus":"img/250/equaldotsize/R/11_Ratio_250_L_3_R_12.png","xmouse":[808,808,808,808,808,808,808,808,808,808,808,808,808,808,808,808,808,808,808,808,808,808,808,808,808,808,808,808,808,808,808,808,808,808,808,808,808,808,808,808,808,808,808,808,810,813,816,817,817,817,817,817,818,824,828,836,846,862,892,903,912,923,970,988,1011,1041,1077,1168,1214,1260,1282,1298,1301,1297,1293,1290,1286,1278,1275,1272,1269,1266,1262,1258,1254,1248,1242,1219,1197,1173,1157],"ymouse":[519,519,519,519,519,519,519,519,519,519,519,519,519,519,519,519,519,519,519,519,519,519,519,519,519,519,519,519,519,519,519,519,519,519,519,519,519,519,519,519,519,519,519,519,520,520,521,521,521,521,521,521,521,523,524,524,527,530,534,534,530,523,481,463,443,422,398,335,300,257,227,200,163,146,138,131,126,111,105,100,95,92,90,85,83,81,79,69,64,59,57],"timestamp_mouse":[8,34,49,69,88,108,127,149,168,188,209,229,249,268,289,308,328,349,369,388,409,429,447,468,488,508,528,548,569,589,609,627,648,668,687,709,729,748,767,788,809,827,849,867,888,908,928,949,969,987,1009,1028,1047,1068,1088,1109,1128,1149,1168,1188,1208,1229,1249,1268,1288,1308,1328,1348,1368,1388,1408,1428,1449,1468,1488,1508,1527,1549,1568,1588,1609,1628,1649,1667,1689,1708,1728,1748,1768,1788,1809],"xSR":741.5,"ySR":469.95,"xT1":424.9,"yT1":0,"xT2":1058.1,"yT2":0,"toosoon":0,"cond_shown":"equaldotsize","ratio_trial":250,"smaller_num":"3","larger_num":"12","correct_side":2,"subjID":"mariana  alape matiz2","gender":"1","age":"11","school":"6"},{"start_time":1551790983842,"click_time":1551790987314,"finger_time":1551790984893,"fix_duration":1248.2607760035326,"trial":6,"RT":1051,"MT":2421,"sideResp":2,"stimulus":"img/500/equaldotanddens/L/13_Ratio_500_L_12_R_6.png","xmouse":[804,804,804,806,807,807,807,808,808,810,810,810,810,811,812,815,816,817,817,817,817,817,818,818,819,819,819,819,819,819,819,819,819,819,819,819,819,819,819,819,819,819,819,819,819,819,819,819,822,826,836,840,842,844,844,845,845,845,845,845,845,845,845,845,845,845,845,844,844,843,843,843,843,843,843,843,843,843,843,843,843,843,843,843,843,841,839,839,840,841,841,843,844,846,849,853,854,856,857,859,860,860,860,860,860,860,864,866,868,870,870,870,871,872,875,879,886,886,886,886,886,887,887,888,888,889,889,889,889,889,889,889,889,889,890,890,914,933,969,1004,1070,1110,1159,1194,1218,1236,1250,1250,1250,1250,1244,1242,1238,1233,1225,1218,1197,1188,1181,1176,1176,1175,1174,1172,1169,1168,1168,1168,1168,1168,1166,1163,1160,1157],"ymouse":[508,507,507,501,498,494,493,492,491,489,487,486,485,485,484,484,483,482,482,482,482,482,480,479,478,478,478,478,478,478,478,478,478,478,478,478,478,478,478,478,478,478,478,478,478,478,478,478,480,482,489,492,495,498,500,502,502,502,502,502,502,502,502,502,502,502,502,502,502,503,503,503,503,503,503,503,503,503,503,503,503,502,501,499,497,494,483,482,479,476,473,472,471,471,471,473,474,475,478,479,482,484,484,484,484,484,486,487,488,488,488,488,488,488,488,488,488,488,488,488,488,488,489,489,489,489,488,487,486,485,485,485,485,485,485,485,472,459,439,414,364,335,301,275,255,237,203,190,178,167,155,151,147,141,136,133,131,131,135,137,138,138,138,137,130,126,109,106,104,103,102,99,97,95],"timestamp_mouse":[11,46,51,72,91,112,132,151,172,192,211,230,252,272,292,313,331,351,372,391,412,431,451,471,492,511,532,550,572,592,612,631,650,671,691,711,732,752,772,790,812,831,852,871,891,910,932,952,972,992,1012,1030,1051,1071,1091,1112,1130,1151,1171,1191,1212,1232,1251,1270,1291,1312,1331,1351,1371,1390,1412,1432,1452,1471,1491,1510,1531,1551,1570,1591,1611,1631,1652,1670,1692,1712,1730,1751,1771,1792,1810,1831,1851,1871,1890,1912,1930,1951,1972,1992,2011,2031,2051,2071,2092,2111,2130,2151,2171,2190,2212,2231,2251,2271,2291,2311,2332,2351,2371,2390,2410,2431,2452,2471,2491,2511,2532,2551,2572,2591,2612,2631,2652,2671,2691,2710,2732,2751,2771,2792,2811,2831,2851,2872,2891,2912,2932,2950,2971,2991,3012,3030,3051,3071,3090,3111,3131,3151,3171,3192,3211,3231,3252,3271,3291,3310,3330,3351,3372,3390,3412,3431,3451,3472],"xSR":741.5,"ySR":469.95,"xT1":424.9,"yT1":0,"xT2":1058.1,"yT2":0,"toosoon":0,"cond_shown":"equaldotanddens","ratio_trial":500,"smaller_num":"6","larger_num":"12","correct_side":1,"subjID":"mariana  alape matiz2","gender":"1","age":"11","school":"6"},{"start_time":1551790996276,"click_time":1551790997593,"finger_time":1551790997252,"fix_duration":1301.8815860837378,"trial":7,"RT":976,"MT":341,"sideResp":2,"stimulus":"img/250/equaldotanddens/L/7_Ratio_250_L_8_R_2.png","xmouse":[783,783,783,783,783,783,783,783,783,783,783,783,783,783,783,783,783,783,783,783,783,783,783,783,783,783,783,783,783,783,783,783,783,783,783,783,783,783,783,783,783,783,783,783,783,783,789,823,896,1035,1088,1121,1139,1148,1148,1148,1148,1148,1148,1148,1148,1148,1148,1145,1142,1138],"ymouse":[517,517,517,517,517,517,517,517,517,517,517,517,517,517,517,517,517,517,517,517,517,517,517,517,517,517,517,517,517,517,517,517,517,517,517,517,517,517,517,517,517,517,517,517,517,517,513,488,429,337,289,245,213,162,147,135,129,127,123,121,119,118,115,107,103,99],"timestamp_mouse":[17,42,57,77,97,118,138,157,176,196,216,238,256,277,296,318,338,356,378,397,418,438,458,478,498,516,537,556,577,597,616,637,658,676,698,716,738,757,776,798,817,838,856,877,898,917,937,958,976,996,1017,1038,1056,1078,1097,1117,1138,1158,1178,1197,1216,1237,1256,1278,1296,1317],"xSR":741.5,"ySR":469.95,"xT1":424.9,"yT1":0,"xT2":1058.1,"yT2":0,"toosoon":0,"cond_shown":"equaldotanddens","ratio_trial":250,"smaller_num":"2","larger_num":"8","correct_side":1,"subjID":"mariana  alape matiz2","gender":"1","age":"11","school":"6"},{"start_time":1551791001607,"click_time":1551791002934,"finger_time":1551791002472,"fix_duration":312.78519119161365,"trial":8,"RT":865,"MT":462,"sideResp":1,"stimulus":"img/500/equaldotsize/R/1_Ratio_500_L_9_R_18.png","xmouse":[791,791,791,791,791,791,791,791,791,791,791,791,791,791,791,791,791,791,791,791,791,791,791,791,791,791,791,791,791,791,791,791,791,791,791,791,791,791,791,791,791,791,790,770,741,684,626,497,466,448,442,442,442,442,442,442,442,442,442,445,450,454,458,470,474,475,476],"ymouse":[510,510,510,510,510,510,510,510,510,510,510,510,510,510,510,510,510,510,510,510,510,510,510,510,510,510,510,510,510,510,510,510,510,510,510,510,510,510,510,510,510,510,501,468,429,374,329,261,242,229,225,225,225,225,225,225,224,218,209,194,167,149,139,117,110,105,99],"timestamp_mouse":[8,37,46,65,86,105,126,146,165,185,205,225,245,266,287,305,326,346,366,386,406,425,445,465,485,506,527,546,565,586,605,625,645,666,685,706,727,745,765,785,805,825,845,865,885,906,925,947,965,985,1005,1026,1046,1066,1085,1106,1126,1146,1165,1185,1206,1225,1245,1265,1286,1306,1327],"xSR":741.5,"ySR":469.95,"xT1":424.9,"yT1":0,"xT2":1058.1,"yT2":0,"toosoon":0,"cond_shown":"equaldotsize","ratio_trial":500,"smaller_num":"9","larger_num":"18","correct_side":2,"subjID":"mariana  alape matiz2","gender":"1","age":"11","school":"6"},{"start_time":1551791005195,"click_time":1551791008853,"finger_time":1551791008434,"fix_duration":841.6376289644799,"trial":9,"RT":3239,"MT":419,"sideResp":2,"stimulus":"img/750/randomdotsizeEA/R/12_Ratio_750_L_3_R_4.png","xmouse":[787,787,787,787,787,787,787,787,787,787,787,787,787,787,787,787,787,787,787,787,787,787,787,787,787,787,787,787,787,787,787,787,787,787,787,787,787,787,787,787,787,787,787,787,787,787,787,787,788,788,789,790,791,791,791,791,791,791,792,792,792,792,792,792,792,792,792,792,792,792,792,792,792,792,792,792,792,792,792,792,792,792,792,792,792,792,792,792,792,792,792,793,794,797,799,801,802,803,805,806,808,810,815,817,820,820,821,821,821,821,821,821,822,822,823,823,824,824,824,824,824,824,824,824,824,824,824,824,824,824,824,824,824,824,824,824,824,824,824,824,824,824,824,824,824,824,824,824,824,825,826,828,830,830,830,830,830,830,833,835,839,842,854,862,870,882,901,994,1020,1036,1046,1050,1052,1052,1052,1052,1052,1052,1052,1053,1053,1054,1062],"ymouse":[530,530,530,530,530,530,530,530,530,530,530,530,530,530,530,530,530,530,530,530,530,530,530,530,530,530,530,530,530,530,530,530,530,530,530,530,530,530,530,530,530,530,530,530,530,530,530,530,530,530,530,530,530,530,530,530,530,530,532,534,537,539,540,540,540,540,540,540,540,540,540,540,540,540,540,540,540,540,540,540,540,540,540,540,540,540,540,540,540,540,540,540,540,540,540,540,540,540,540,540,542,544,551,553,555,557,558,558,558,558,558,558,558,558,557,556,555,554,553,553,553,553,553,553,553,553,553,553,553,553,553,553,553,553,553,553,553,553,553,553,553,553,553,553,553,553,553,553,552,551,549,548,546,545,545,545,544,543,541,537,531,521,492,474,447,420,392,283,259,240,221,205,165,152,141,130,120,104,102,100,98,94,81],"timestamp_mouse":[19,47,58,77,97,119,138,158,177,198,217,237,257,278,297,318,337,358,377,397,417,437,458,477,497,518,538,558,577,598,618,637,658,677,699,718,738,758,779,797,817,837,858,877,898,917,938,957,977,997,1017,1037,1057,1078,1097,1117,1137,1157,1178,1197,1218,1237,1257,1277,1297,1317,1338,1358,1377,1397,1419,1437,1457,1479,1497,1519,1537,1557,1578,1598,1617,1637,1658,1677,1698,1717,1738,1757,1777,1797,1817,1837,1858,1877,1897,1917,1937,1958,1978,1997,2018,2037,2058,2077,2097,2118,2138,2158,2177,2197,2217,2237,2258,2277,2298,2317,2338,2357,2377,2397,2417,2437,2457,2478,2498,2517,2537,2557,2577,2597,2617,2637,2657,2677,2697,2717,2737,2757,2777,2797,2817,2837,2857,2877,2898,2917,2937,2957,2977,2997,3018,3037,3058,3078,3097,3117,3137,3157,3178,3197,3217,3239,3258,3277,3297,3318,3337,3359,3377,3398,3418,3437,3458,3477,3497,3517,3537,3558,3577,3598,3617,3637,3658],"xSR":741.5,"ySR":469.95,"xT1":424.9,"yT1":0,"xT2":1058.1,"yT2":0,"toosoon":0,"cond_shown":"randomdotsizeEA","ratio_trial":750,"smaller_num":"3","larger_num":"4","correct_side":2,"subjID":"mariana  alape matiz2","gender":"1","age":"11","school":"6"},{"start_time":1551791011216,"click_time":1551791013072,"finger_time":1551791012132,"fix_duration":1041.8413358619098,"trial":10,"RT":916,"MT":940,"sideResp":1,"stimulus":"img/500/equaldotsize/R/14_Ratio_500_L_5_R_10.png","xmouse":[811,811,811,811,811,811,811,811,811,811,811,811,811,811,811,811,811,811,811,811,811,811,811,811,811,811,811,811,811,811,811,811,811,811,811,811,811,811,811,811,811,811,812,821,837,847,895,910,920,930,943,958,986,990,1000,1013,1053,1068,1074,1077,1077,1075,1067,1060,1043,1016,926,893,860,828,801,775,731,705,679,653,591,567,549,538,531,529,529,529,529,529,529,529,529,529,529,528,524],"ymouse":[521,521,521,521,521,521,521,521,521,521,521,521,521,521,521,521,521,521,521,521,521,521,521,521,521,521,521,521,521,521,521,521,521,521,521,521,521,521,521,521,521,521,521,520,517,516,498,489,474,455,428,403,340,306,277,252,210,200,194,191,190,187,180,177,168,154,121,108,102,95,90,87,80,77,72,70,71,71,72,72,74,74,74,74,74,74,74,74,74,74,74,74,74],"timestamp_mouse":[17,36,56,76,97,117,138,157,176,197,217,236,257,276,298,316,336,356,377,396,416,436,457,476,497,518,537,558,577,597,616,636,657,676,697,717,736,756,777,796,816,837,856,876,896,916,937,956,977,996,1016,1037,1056,1076,1096,1116,1137,1156,1176,1196,1216,1236,1256,1276,1297,1317,1337,1356,1376,1397,1416,1436,1456,1476,1497,1516,1538,1556,1576,1597,1617,1637,1657,1677,1697,1716,1737,1756,1776,1796,1816,1837,1856],"xSR":741.5,"ySR":469.95,"xT1":424.9,"yT1":0,"xT2":1058.1,"yT2":0,"toosoon":0,"cond_shown":"equaldotsize","ratio_trial":500,"smaller_num":"5","larger_num":"10","correct_side":2,"subjID":"mariana  alape matiz2","gender":"1","age":"11","school":"6"},{"start_time":1551791017625,"click_time":1551791019774,"finger_time":1551791018974,"fix_duration":1450.5760489211696,"trial":11,"RT":1349,"MT":800,"sideResp":2,"stimulus":"img/500/equaldotanddens/R/9_Ratio_500_L_2_R_4.png","xmouse":[779,779,779,779,779,779,779,779,779,779,779,779,779,779,779,779,779,779,779,779,779,779,779,779,779,779,779,779,779,779,779,779,779,779,779,779,779,779,779,779,779,779,779,779,779,779,779,779,779,779,779,779,779,779,779,779,779,779,779,779,781,784,784,784,784,784,784,805,816,830,844,877,896,918,946,975,1009,1016,1016,1016,1016,1016,1016,1016,1016,1017,1019,1024,1024,1026,1027,1032,1036,1042,1046,1052,1055,1056,1056,1056,1056,1056,1056,1056,1056,1056,1057,1059],"ymouse":[538,538,538,538,538,538,538,538,538,538,538,538,538,538,538,538,538,538,538,538,538,538,538,538,538,538,538,538,538,538,538,538,538,538,538,538,538,538,538,538,538,538,538,538,538,538,538,538,538,538,538,538,538,538,538,538,538,538,532,524,514,500,497,496,495,493,490,452,427,402,373,324,300,278,253,223,175,96,72,65,64,62,60,57,54,46,39,31,29,28,28,28,28,29,31,31,31,31,31,31,31,31,31,31,31,31,32,34],"timestamp_mouse":[10,41,48,68,88,108,127,148,167,188,208,228,247,268,287,307,329,348,368,388,409,427,448,468,488,507,527,547,568,587,608,627,647,667,687,707,727,747,768,788,808,827,848,867,888,907,927,948,967,988,1007,1028,1049,1068,1088,1108,1128,1147,1167,1187,1208,1228,1247,1268,1288,1307,1327,1349,1368,1388,1407,1429,1447,1467,1488,1508,1527,1547,1567,1587,1607,1628,1647,1667,1687,1708,1728,1748,1767,1788,1807,1828,1847,1867,1888,1908,1927,1947,1967,1987,2009,2028,2048,2067,2087,2107,2127,2148],"xSR":741.5,"ySR":469.95,"xT1":424.9,"yT1":0,"xT2":1058.1,"yT2":0,"toosoon":0,"cond_shown":"equaldotanddens","ratio_trial":500,"smaller_num":"2","larger_num":"4","correct_side":2,"subjID":"mariana  alape matiz2","gender":"1","age":"11","school":"6"},{"start_time":1551791022104,"click_time":1551791023913,"finger_time":1551791023592,"fix_duration":928.0888583717767,"trial":12,"RT":1488,"MT":321,"sideResp":1,"stimulus":"img/750/equaldotanddens/L/9_Ratio_750_L_4_R_3.png","xmouse":[781,781,781,781,781,781,781,781,781,781,781,781,781,781,781,781,781,781,781,781,781,781,781,781,781,781,781,781,781,781,781,781,781,781,781,781,781,781,781,781,781,781,781,781,781,781,781,781,781,781,781,781,781,781,781,781,781,781,781,781,781,781,781,781,781,781,781,781,781,781,781,781,781,786,787,787,789,789,772,754,738,723,688,675,664,655,642,601,554,498,432],"ymouse":[526,526,526,525,522,521,519,519,519,518,517,516,515,514,514,513,513,512,512,512,512,512,512,512,512,512,512,512,512,512,512,512,512,512,512,512,512,512,512,512,512,512,512,512,512,512,512,512,512,512,512,512,512,512,512,512,512,512,512,511,511,511,511,511,511,511,511,511,511,511,511,511,509,484,456,429,399,373,325,307,293,281,253,242,236,229,221,190,158,122,92],"timestamp_mouse":[8,39,49,69,88,108,128,148,168,188,208,228,249,268,288,309,329,349,368,388,408,428,448,469,488,509,528,548,568,589,609,628,648,670,689,709,728,749,768,789,808,828,848,868,889,908,930,949,968,989,1008,1028,1048,1068,1089,1109,1128,1148,1168,1188,1209,1228,1249,1268,1288,1309,1328,1349,1370,1388,1409,1429,1448,1469,1488,1509,1529,1549,1568,1588,1608,1628,1649,1668,1688,1708,1729,1749,1768,1789,1809],"xSR":741.5,"ySR":469.95,"xT1":424.9,"yT1":0,"xT2":1058.1,"yT2":0,"toosoon":0,"cond_shown":"equaldotanddens","ratio_trial":750,"smaller_num":"3","larger_num":"4","correct_side":1,"subjID":"mariana  alape matiz2","gender":"1","age":"11","school":"6"},{"start_time":1551791027288,"click_time":1551791029653,"finger_time":1551791029213,"fix_duration":612.4944482264856,"trial":13,"RT":1925,"MT":440,"sideResp":2,"stimulus":"img/900/randomdotsizeEA/R/3_Ratio_900_L_9_R_10.png","xmouse":[769,769,769,769,769,769,769,769,769,769,769,769,769,769,769,769,769,769,769,769,769,769,769,769,769,769,769,769,769,769,769,769,769,769,769,769,769,769,769,769,769,769,769,769,769,769,769,769,769,769,769,769,769,769,769,769,769,769,769,769,769,769,769,769,769,769,769,769,770,770,770,770,770,770,770,770,770,770,770,770,770,770,770,770,770,770,770,770,770,770,772,777,786,812,827,841,857,872,895,904,920,933,957,975,983,992,1004,1014,1024,1045,1059,1076,1090,1105,1121,1124,1126,1127,1128],"ymouse":[538,538,538,538,538,538,538,538,538,538,538,538,538,538,538,538,538,538,538,538,538,538,538,538,538,538,538,538,538,538,538,538,538,538,538,538,538,538,538,538,538,538,538,538,538,538,538,538,538,538,538,538,538,538,538,538,538,538,538,538,538,538,538,538,538,538,538,538,538,538,538,538,538,538,538,538,538,538,538,538,538,538,538,538,538,538,538,538,538,538,536,529,521,500,489,474,458,442,406,381,354,326,287,246,225,206,193,182,172,154,148,140,134,129,119,115,110,106,99],"timestamp_mouse":[8,34,44,64,85,104,124,145,165,185,205,225,245,264,285,305,325,345,364,384,405,424,445,465,484,505,525,544,565,585,604,624,645,665,684,705,725,744,764,785,805,824,844,865,884,904,925,944,964,984,1005,1024,1044,1064,1084,1105,1124,1145,1164,1184,1206,1224,1245,1264,1285,1304,1324,1345,1365,1384,1404,1425,1444,1465,1484,1506,1525,1544,1565,1584,1606,1624,1644,1664,1685,1704,1724,1745,1764,1784,1805,1825,1845,1865,1885,1904,1924,1944,1965,1984,2004,2025,2044,2066,2084,2104,2124,2145,2164,2184,2204,2224,2244,2264,2285,2304,2324,2344,2365],"xSR":741.5,"ySR":469.95,"xT1":424.9,"yT1":0,"xT2":1058.1,"yT2":0,"toosoon":0,"cond_shown":"randomdotsizeEA","ratio_trial":900,"smaller_num":"9","larger_num":"10","correct_side":2,"subjID":"mariana  alape matiz2","gender":"1","age":"11","school":"6"},{"start_time":1551791031665,"click_time":1551791033853,"finger_time":1551791031732,"fix_duration":250,"trial":14,"RT":67,"MT":2121,"sideResp":1,"stimulus":"img/250/equaldotanddens/L/14_Ratio_250_L_12_R_3.png","xmouse":[772,756,756,733,731,731,731,731,731,731,731,731,731,731,731,731,732,733,734,740,743,744,748,750,751,755,757,758,760,763,765,767,768,770,772,772,772,772,772,772,772,772,772,773,773,773,773,774,774,774,774,774,774,774,774,775,775,775,775,775,775,775,775,775,776,776,776,776,776,776,777,780,784,785,787,787,787,787,787,787,783,775,764,753,739,702,690,673,655,623,609,596,587,578,561,556,553,552,549,549,547,546,544,541,536,534,532,531,527,519],"ymouse":[521,523,523,524,524,524,524,524,524,524,524,524,524,524,524,524,524,524,524,523,522,522,522,522,522,521,521,521,521,519,519,518,517,516,516,516,516,516,516,516,516,516,516,516,516,516,516,516,516,516,516,516,516,516,516,516,517,517,518,518,519,519,520,520,520,520,520,520,520,520,517,510,505,500,491,488,485,483,481,474,464,447,426,405,382,333,316,294,274,229,210,195,185,177,157,146,141,134,129,128,125,121,119,116,109,106,104,101,98,90],"timestamp_mouse":[12,38,47,67,88,108,127,147,167,188,207,227,247,267,287,307,328,347,368,388,407,428,448,467,487,508,527,548,568,588,607,628,648,667,688,707,728,748,767,787,807,829,848,867,888,908,928,947,967,987,1007,1027,1047,1068,1087,1108,1127,1147,1167,1188,1207,1227,1248,1269,1287,1308,1328,1347,1368,1389,1407,1428,1448,1467,1488,1507,1527,1547,1568,1588,1607,1627,1647,1667,1687,1707,1727,1747,1767,1789,1807,1827,1848,1867,1888,1907,1927,1948,1967,1988,2007,2028,2047,2067,2088,2107,2127,2147,2169,2188],"xSR":741.5,"ySR":469.95,"xT1":424.9,"yT1":0,"xT2":1058.1,"yT2":0,"toosoon":0,"cond_shown":"equaldotanddens","ratio_trial":250,"smaller_num":"3","larger_num":"12","correct_side":1,"subjID":"mariana  alape matiz2","gender":"1","age":"11","school":"6"},{"start_time":1551791035642,"click_time":1551791037313,"finger_time":1551791036973,"fix_duration":488.93455517280495,"trial":15,"RT":1331,"MT":340,"sideResp":1,"stimulus":"img/500/randomdotsizeEA/R/9_Ratio_500_L_2_R_4.png","xmouse":[795,795,795,795,795,795,795,795,795,795,795,795,795,795,795,795,795,795,795,795,795,795,795,795,795,795,795,795,795,795,795,795,795,795,795,795,795,795,795,795,795,795,795,795,795,795,795,795,795,795,795,795,795,795,795,795,795,795,795,795,795,795,794,790,779,770,702,666,625,600,565,554,546,534,528,519,496,489,484,480,476,474,470,469],"ymouse":[498,498,498,498,498,498,498,498,498,498,498,498,498,498,498,498,498,498,498,498,498,498,498,498,498,498,498,498,498,498,498,498,498,498,498,498,498,498,498,498,498,498,498,498,498,498,498,498,498,498,498,498,498,498,498,498,498,498,498,498,498,498,497,495,486,482,449,426,382,340,281,258,239,216,198,183,147,136,127,120,111,106,102,96],"timestamp_mouse":[10,41,51,70,90,110,132,150,171,190,210,230,250,270,291,311,330,351,370,391,410,430,450,470,490,510,530,550,570,590,610,630,650,670,690,710,730,750,771,790,810,830,850,871,891,910,930,951,970,991,1011,1031,1051,1071,1090,1110,1130,1150,1170,1190,1210,1230,1251,1271,1290,1310,1331,1350,1370,1390,1412,1430,1450,1470,1491,1510,1530,1550,1571,1591,1611,1630,1650,1671],"xSR":741.5,"ySR":469.95,"xT1":424.9,"yT1":0,"xT2":1058.1,"yT2":0,"toosoon":0,"cond_shown":"randomdotsizeEA","ratio_trial":500,"smaller_num":"2","larger_num":"4","correct_side":2,"subjID":"mariana  alape matiz2","gender":"1","age":"11","school":"6"},{"start_time":1551791039746,"click_time":1551791041293,"finger_time":1551791040693,"fix_duration":1092.0167911841763,"trial":16,"RT":947,"MT":600,"sideResp":2,"stimulus":"img/750/randomdotsizeEA/L/6_Ratio_750_L_24_R_18.png","xmouse":[801,801,801,801,801,801,801,801,801,801,801,801,801,801,801,801,801,801,801,801,801,801,801,801,801,801,801,801,801,801,801,801,801,801,801,801,801,801,801,801,801,801,801,801,802,811,818,827,833,838,850,853,860,870,877,895,900,906,913,921,934,940,946,951,959,978,989,1004,1017,1029,1042,1055,1057,1059,1059,1060,1061,1061],"ymouse":[535,535,535,535,535,535,535,535,535,535,535,535,535,535,535,535,535,535,535,535,535,535,535,535,535,535,535,535,535,535,535,535,535,535,535,535,535,535,535,535,535,535,535,535,532,512,493,465,438,401,356,338,322,303,286,243,218,204,196,189,183,178,176,172,167,155,148,141,134,128,121,114,110,109,106,104,100,99],"timestamp_mouse":[8,40,47,66,86,107,127,146,167,187,207,227,246,267,286,306,326,346,367,386,407,427,446,467,486,507,527,546,567,586,607,626,646,666,687,707,727,746,766,787,806,826,846,868,886,907,926,947,967,986,1008,1026,1046,1067,1086,1107,1126,1146,1167,1186,1206,1226,1246,1267,1286,1307,1326,1347,1367,1386,1407,1426,1446,1467,1487,1507,1526,1547],"xSR":741.5,"ySR":469.95,"xT1":424.9,"yT1":0,"xT2":1058.1,"yT2":0,"toosoon":0,"cond_shown":"randomdotsizeEA","ratio_trial":750,"smaller_num":"18","larger_num":"24","correct_side":1,"subjID":"mariana  alape matiz2","gender":"1","age":"11","school":"6"},{"start_time":1551791043037,"click_time":1551791043853,"finger_time":1551791043792,"fix_duration":643.0019470197992,"trial":17,"RT":755,"MT":61,"sideResp":1,"stimulus":"img/900/equaldotsize/R/13_Ratio_900_L_18_R_20.png","xmouse":[778,778,778,778,778,778,778,778,778,778,778,778,778,778,778,778,778,778,778,778,778,778,778,778,778,778,778,778,778,778,778,778,778,778,778,778,773,758,721,656,512],"ymouse":[545,545,545,545,545,545,545,545,545,545,545,545,545,545,545,545,545,545,545,545,545,545,545,545,545,545,545,545,545,545,545,545,545,545,545,545,525,442,320,185,9],"timestamp_mouse":[15,35,55,75,95,115,135,155,175,197,215,235,255,276,295,316,336,357,375,396,416,436,456,475,495,516,535,556,576,596,616,636,656,675,696,715,736,755,776,795,816],"xSR":741.5,"ySR":469.95,"xT1":424.9,"yT1":0,"xT2":1058.1,"yT2":0,"toosoon":0,"cond_shown":"equaldotsize","ratio_trial":900,"smaller_num":"18","larger_num":"20","correct_side":2,"subjID":"mariana  alape matiz2","gender":"1","age":"11","school":"6"},{"start_time":1551791048752,"click_time":1551791049992,"finger_time":1551791049813,"fix_duration":979.0920061932388,"trial":18,"RT":1061,"MT":179,"sideResp":1,"stimulus":"img/500/randomdotsizeEA/R/15_Ratio_500_L_1_R_2.png","xmouse":[827,827,827,827,827,827,827,827,827,827,827,827,827,827,827,827,827,827,827,827,827,827,827,827,827,827,827,827,827,827,827,827,827,827,827,827,827,827,827,827,827,827,827,827,827,827,827,827,827,827,826,819,804,782,738,680,553,495,459,448,442,439,434],"ymouse":[506,506,506,506,506,506,506,506,506,506,506,506,506,506,506,506,506,506,506,506,506,506,506,506,506,506,506,506,506,506,506,506,506,506,506,506,506,506,506,506,506,506,506,506,506,506,506,506,506,506,504,492,472,446,404,346,230,171,138,120,107,102,96],"timestamp_mouse":[9,21,41,60,80,100,120,140,160,180,201,220,241,261,280,300,320,341,361,382,400,420,442,461,481,501,520,540,560,581,602,621,641,660,680,701,720,740,760,780,800,821,841,861,880,901,920,940,960,981,1000,1021,1040,1061,1080,1100,1120,1140,1161,1181,1201,1220,1240],"xSR":741.5,"ySR":469.95,"xT1":424.9,"yT1":0,"xT2":1058.1,"yT2":0,"toosoon":0,"cond_shown":"randomdotsizeEA","ratio_trial":500,"smaller_num":"1","larger_num":"2","correct_side":2,"subjID":"mariana  alape matiz2","gender":"1","age":"11","school":"6"},{"start_time":1551791052440,"click_time":1551791053493,"finger_time":1551791053133,"fix_duration":1026.5562417779063,"trial":19,"RT":693,"MT":360,"sideResp":2,"stimulus":"img/250/equaldotanddens/L/5_Ratio_250_L_24_R_6.png","xmouse":[777,777,777,777,777,777,777,777,777,777,777,777,777,777,777,777,777,777,777,777,777,777,777,777,777,777,777,777,777,777,777,783,791,803,818,867,883,895,909,922,936,944,958,974,994,1019,1027,1035,1039,1044,1049,1054,1059],"ymouse":[537,537,537,537,537,537,537,537,537,537,537,537,537,537,537,537,537,537,537,537,537,537,537,537,537,537,537,537,535,532,529,510,491,470,441,333,299,270,243,216,179,162,143,125,107,85,72,66,60,55,47,43,42],"timestamp_mouse":[13,41,53,72,93,112,133,152,172,192,212,233,252,272,294,313,333,352,372,392,412,433,453,473,492,513,533,552,573,593,613,632,653,673,693,713,732,752,774,793,813,832,852,872,893,913,932,952,973,992,1014,1032,1053],"xSR":741.5,"ySR":469.95,"xT1":424.9,"yT1":0,"xT2":1058.1,"yT2":0,"toosoon":0,"cond_shown":"equaldotanddens","ratio_trial":250,"smaller_num":"6","larger_num":"24","correct_side":1,"subjID":"mariana  alape matiz2","gender":"1","age":"11","school":"6"},{"start_time":1551791056005,"click_time":1551791057293,"finger_time":1551791056672,"fix_duration":1231.2258216847883,"trial":20,"RT":667,"MT":621,"sideResp":1,"stimulus":"img/500/randomdotsizeEA/R/1_Ratio_500_L_9_R_18.png","xmouse":[807,807,807,807,807,807,807,807,807,807,807,807,807,807,807,807,807,807,807,807,807,807,807,807,807,807,807,807,807,807,807,807,806,801,792,784,771,762,754,752,746,736,723,717,713,707,699,676,664,656,644,633,609,601,594,588,580,573,546,536,532,529,529,526,524],"ymouse":[494,494,494,494,494,494,494,494,494,494,494,494,494,494,494,494,494,494,494,494,494,494,494,494,494,494,494,494,494,494,494,494,492,466,434,407,388,377,363,354,340,317,289,279,273,264,255,228,217,206,194,184,169,164,158,152,143,134,107,100,98,95,94,90,89],"timestamp_mouse":[9,40,48,67,88,107,127,148,167,187,207,228,247,268,287,308,328,347,367,387,408,427,448,467,488,507,529,548,568,588,607,628,648,667,687,708,727,748,768,788,809,827,848,867,887,907,928,948,967,987,1007,1027,1049,1067,1087,1108,1129,1148,1168,1187,1208,1227,1247,1267,1288],"xSR":741.5,"ySR":469.95,"xT1":424.9,"yT1":0,"xT2":1058.1,"yT2":0,"toosoon":0,"cond_shown":"randomdotsizeEA","ratio_trial":500,"smaller_num":"9","larger_num":"18","correct_side":2,"subjID":"mariana  alape matiz2","gender":"1","age":"11","school":"6"},{"start_time":1551791058754,"click_time":1551791061673,"finger_time":1551791060894,"fix_duration":280.49564184618623,"trial":21,"RT":2140,"MT":779,"sideResp":2,"stimulus":"img/900/randomdotsizeEA/R/12_Ratio_900_L_18_R_20.png","xmouse":[828,828,828,828,828,828,828,828,828,828,828,828,828,828,828,828,828,828,828,828,828,828,828,828,828,828,828,828,828,828,828,828,828,828,828,828,828,828,828,828,828,828,828,828,828,828,828,828,828,828,828,828,828,828,828,828,828,828,828,828,828,828,828,828,828,828,828,828,828,828,828,828,828,828,828,829,829,830,831,831,831,831,831,831,831,831,831,831,831,831,831,831,831,831,831,831,831,831,831,831,831,831,831,831,831,834,843,861,880,949,981,1010,1038,1059,1085,1102,1107,1110,1113,1127,1136,1144,1150,1154,1160,1160,1161,1161,1161,1159,1155,1149,1145,1141,1138,1134,1134,1133,1133,1131,1130,1130,1130,1130,1130,1130],"ymouse":[549,549,549,549,549,549,549,549,549,549,549,549,549,549,549,549,549,549,549,549,549,549,549,549,549,549,549,549,549,549,549,549,549,549,549,549,549,549,549,549,549,549,549,549,549,549,549,549,549,549,549,549,549,549,549,549,549,549,549,549,549,549,549,549,549,549,549,549,549,549,549,549,549,549,549,549,549,549,549,549,549,549,549,549,549,549,549,549,549,549,549,549,549,549,549,549,549,549,549,549,549,549,549,549,547,541,525,501,470,394,356,323,295,271,249,233,229,227,223,212,203,197,189,183,172,168,164,161,158,146,141,134,128,125,122,116,115,114,113,108,108,108,107,105,103,97],"timestamp_mouse":[19,38,60,78,98,119,138,159,179,199,218,238,260,279,300,318,339,358,379,398,419,438,459,478,499,518,538,558,578,599,620,639,659,680,699,719,739,758,779,799,818,838,858,878,899,919,938,959,979,999,1019,1039,1059,1079,1099,1119,1138,1158,1179,1198,1219,1239,1259,1278,1299,1318,1339,1359,1379,1399,1419,1440,1459,1478,1499,1519,1538,1559,1578,1599,1620,1638,1660,1678,1700,1718,1738,1759,1778,1800,1819,1839,1860,1878,1900,1920,1939,1960,1979,1999,2020,2040,2058,2080,2100,2119,2140,2159,2179,2199,2218,2239,2259,2279,2299,2319,2338,2360,2379,2399,2418,2439,2458,2479,2499,2518,2538,2559,2580,2599,2618,2639,2659,2678,2699,2720,2739,2759,2778,2800,2818,2839,2858,2879,2898,2918],"xSR":741.5,"ySR":469.95,"xT1":424.9,"yT1":0,"xT2":1058.1,"yT2":0,"toosoon":0,"cond_shown":"randomdotsizeEA","ratio_trial":900,"smaller_num":"18","larger_num":"20","correct_side":2,"subjID":"mariana  alape matiz2","gender":"1","age":"11","school":"6"},{"start_time":1551791063772,"click_time":1551791065472,"finger_time":1551791064734,"fix_duration":398.99552932372615,"trial":22,"RT":962,"MT":738,"sideResp":1,"stimulus":"img/500/equaldotsize/L/5_Ratio_500_L_4_R_2.png","xmouse":[793,793,793,793,793,793,793,793,793,793,793,793,793,793,793,793,793,793,793,793,793,793,793,793,793,793,793,793,793,793,793,795,796,796,796,797,797,797,797,796,795,792,790,786,783,769,758,744,729,712,681,662,640,617,579,569,562,557,555,544,541,538,534,528,519,514,509,503,498,480,475,474,473,473,473,473,473,473,473,473,471,468,466,465,462,461],"ymouse":[526,526,526,526,526,526,526,526,526,526,526,526,526,526,526,526,526,526,526,526,526,526,526,526,526,526,526,526,526,526,525,523,522,520,519,518,517,517,517,515,513,512,511,510,508,502,497,492,485,471,445,428,410,393,363,353,344,337,330,312,307,303,301,298,282,272,263,255,251,236,232,226,220,210,202,192,187,181,177,170,154,146,139,131,108,94],"timestamp_mouse":[9,20,41,62,81,101,121,140,162,180,202,220,241,260,282,300,320,340,361,381,402,421,440,461,481,500,522,541,560,582,602,621,641,661,681,701,721,740,761,781,801,821,842,861,881,901,921,941,961,981,1001,1021,1040,1061,1082,1100,1122,1141,1160,1182,1200,1221,1240,1260,1282,1301,1321,1341,1360,1381,1400,1421,1441,1460,1481,1500,1521,1541,1560,1582,1602,1621,1640,1662,1681,1700],"xSR":741.5,"ySR":469.95,"xT1":424.9,"yT1":0,"xT2":1058.1,"yT2":0,"toosoon":0,"cond_shown":"equaldotsize","ratio_trial":500,"smaller_num":"2","larger_num":"4","correct_side":1,"subjID":"mariana  alape matiz2","gender":"1","age":"11","school":"6"},{"start_time":1551791068255,"click_time":1551791074733,"finger_time":1551791072853,"fix_duration":1440.6129630061573,"trial":23,"RT":4598,"MT":1880,"sideResp":1,"stimulus":"img/250/randomdotsizeEA/R/13_Ratio_250_L_2_R_8.png","xmouse":[794,794,794,794,794,794,794,794,794,794,794,794,794,794,794,794,794,794,794,794,794,794,794,794,794,794,794,794,794,794,794,794,794,794,794,794,794,794,794,794,794,794,794,794,794,794,794,794,794,794,794,794,794,794,794,794,794,794,794,794,794,794,794,794,794,794,794,794,794,794,794,794,794,794,794,794,794,794,794,794,794,794,794,794,794,794,794,794,794,794,794,794,794,794,794,794,794,794,794,794,794,794,794,794,794,794,794,794,794,794,794,794,794,790,787,785,785,785,785,785,785,785,785,785,785,786,786,786,786,785,784,781,776,772,769,766,766,766,766,766,766,766,766,766,766,767,768,768,768,770,771,772,772,773,775,776,777,778,779,781,782,782,782,783,784,784,784,785,785,785,785,785,785,785,785,785,785,785,785,785,785,785,785,785,785,785,785,785,785,785,785,785,785,786,787,787,787,787,787,787,787,787,787,787,787,787,787,787,787,787,787,787,787,787,787,788,789,790,790,790,790,790,791,794,798,805,808,814,825,852,859,860,862,861,861,861,861,868,874,906,919,932,948,964,983,1031,1051,1084,1126,1174,1259,1278,1286,1289,1289,1289,1289,1289,1289,1289,1289,1289,1289,1289,1289,1289,1289,1289,1289,1289,1289,1289,1289,1289,1289,1289,1289,1289,1289,1289,1289,1289,1289,1289,227,386,551,774,1009,1407,1554,1554,1554,1554,1554,1554,1554,1554,1554,1554,1554,1554,1554,1554,1554,1496,1386,1237,1069,874,531,391,257,229,182,172,172,172,172,172,181,219,300,431],"ymouse":[540,540,540,540,540,540,540,540,540,540,540,540,540,540,540,540,540,540,540,540,540,540,540,540,540,540,540,540,540,540,540,540,540,540,540,540,540,540,540,540,540,540,540,540,540,540,540,540,540,540,540,540,540,540,540,540,540,540,539,539,539,539,539,539,539,539,539,539,539,539,539,539,539,539,539,539,539,539,539,539,539,539,539,539,539,539,539,539,539,539,539,539,539,539,539,539,539,539,539,539,539,539,539,539,539,539,539,539,539,539,539,539,539,541,543,543,543,543,544,544,544,544,544,543,540,538,535,533,532,527,521,517,512,510,507,506,506,506,506,506,506,506,506,508,509,510,512,513,514,515,515,516,516,516,517,518,518,518,518,518,519,519,519,520,520,520,520,520,520,520,520,520,520,520,520,523,525,526,527,529,529,530,530,531,531,531,531,532,532,532,532,532,532,532,532,532,532,532,532,532,532,532,532,532,532,532,532,532,532,532,532,532,532,532,532,531,530,529,527,522,522,522,522,522,524,532,532,530,519,482,461,444,422,398,374,368,364,353,346,328,319,306,293,278,263,215,197,176,151,120,60,42,19,3,3,3,3,3,3,3,3,3,3,3,3,3,3,3,3,3,3,3,3,3,3,3,3,3,3,3,3,3,3,3,1,9,34,81,125,184,199,199,199,199,199,199,199,199,199,199,199,199,199,199,199,173,154,126,108,79,53,45,37,35,33,33,33,33,33,33,33,33,33,36],"timestamp_mouse":[17,37,58,79,98,117,139,157,179,197,217,249,259,279,299,317,339,357,379,397,419,438,457,477,499,517,537,559,577,598,619,637,659,677,697,719,738,759,779,797,819,838,857,878,897,917,939,957,979,997,1018,1039,1059,1078,1099,1117,1139,1157,1177,1199,1219,1238,1259,1277,1298,1318,1337,1359,1379,1397,1419,1438,1458,1479,1497,1519,1538,1557,1577,1599,1618,1639,1659,1677,1699,1717,1738,1758,1777,1798,1818,1838,1859,1877,1897,1918,1937,1958,1978,1997,2018,2039,2059,2078,2098,2119,2137,2158,2179,2198,2219,2239,2257,2278,2298,2319,2337,2357,2379,2397,2417,2437,2459,2477,2498,2519,2538,2559,2578,2598,2617,2638,2658,2677,2698,2718,2739,2757,2779,2797,2819,2839,2858,2878,2898,2919,2937,2959,2978,2997,3019,3038,3057,3077,3098,3118,3138,3157,3178,3198,3218,3238,3258,3279,3297,3318,3338,3357,3378,3397,3419,3438,3459,3477,3498,3518,3538,3558,3577,3598,3618,3637,3658,3677,3698,3718,3737,3758,3777,3799,3817,3838,3857,3878,3899,3917,3937,3957,3978,3997,4018,4037,4058,4078,4098,4117,4137,4159,4177,4198,4217,4238,4257,4278,4298,4318,4338,4359,4377,4399,4417,4438,4458,4478,4497,4519,4538,4558,4578,4598,4618,4638,4658,4678,4699,4717,4737,4757,4778,4798,4818,4838,4859,4879,4898,4918,4937,4958,4977,4999,5017,5038,5057,5079,5098,5118,5137,5158,5177,5197,5219,5239,5259,5278,5298,5318,5338,5357,5377,5397,5418,5438,5458,5479,5498,5518,5537,5557,5579,5598,5618,5638,5658,5678,5699,5717,5737,5758,5779,5798,5817,5838,5858,5878,5897,5919,5939,5957,5978,5998,6018,6038,6059,6077,6098,6117,6137,6158,6178,6197,6217,6238,6258,6277,6297,6318,6339,6358,6377,6399,6417,6438,6458,6477],"xSR":741.5,"ySR":469.95,"xT1":424.9,"yT1":0,"xT2":1058.1,"yT2":0,"toosoon":0,"cond_shown":"randomdotsizeEA","ratio_trial":250,"smaller_num":"2","larger_num":"8","correct_side":2,"subjID":"mariana  alape matiz2","gender":"1","age":"11","school":"6"},{"start_time":1551791076669,"click_time":1551791078333,"finger_time":1551791077473,"fix_duration":434.9713297376785,"trial":24,"RT":804,"MT":860,"sideResp":2,"stimulus":"img/250/randomdotsizeEA/L/5_Ratio_250_L_24_R_6.png","xmouse":[757,757,757,757,757,757,757,757,757,757,757,757,757,757,757,757,757,757,757,758,758,758,758,758,758,758,758,758,758,758,758,760,761,763,769,773,777,784,789,794,798,801,804,804,808,809,809,809,809,809,809,809,809,809,816,833,857,899,966,1113,1171,1203,1223,1230,1230,1222,1218,1217,1217,1217,1217,1217,1217,1217,1217,1217,1217,1217,1217,1217,1217,1217,1159,1155],"ymouse":[496,496,496,496,496,496,496,496,496,496,496,496,496,496,496,496,496,496,496,496,496,496,496,496,496,496,496,496,496,496,496,496,496,496,495,493,490,487,484,474,467,460,453,450,439,435,431,429,427,424,423,422,422,421,415,408,401,387,363,284,229,177,130,93,30,14,5,2,2,2,2,2,2,2,2,2,2,2,2,2,2,2,3,10],"timestamp_mouse":[8,23,44,66,83,104,124,144,164,185,204,225,243,265,283,303,325,343,365,384,404,423,443,464,484,505,523,545,564,585,603,623,645,664,684,704,724,743,764,784,804,824,844,864,884,903,924,944,965,985,1003,1023,1044,1065,1084,1103,1123,1144,1164,1184,1204,1224,1244,1263,1285,1303,1324,1344,1364,1384,1404,1425,1444,1464,1484,1504,1524,1544,1563,1583,1604,1623,1645,1664],"xSR":741.5,"ySR":469.95,"xT1":424.9,"yT1":0,"xT2":1058.1,"yT2":0,"toosoon":0,"cond_shown":"randomdotsizeEA","ratio_trial":250,"smaller_num":"6","larger_num":"24","correct_side":1,"subjID":"mariana  alape matiz2","gender":"1","age":"11","school":"6"},{"start_time":1551791080796,"click_time":1551791082014,"finger_time":1551791081494,"fix_duration":1222.8670897823968,"trial":25,"RT":698,"MT":520,"sideResp":1,"stimulus":"img/500/equaldotanddens/R/3_Ratio_500_L_10_R_20.png","xmouse":[819,819,819,819,819,819,819,819,819,819,819,819,819,819,819,819,819,819,819,819,819,819,819,819,819,818,817,817,817,815,813,808,779,762,741,717,692,676,653,649,645,643,643,643,643,643,641,637,632,632,630,629,629,615,606,594,582,535,514,496,481],"ymouse":[518,518,518,518,518,518,518,518,518,518,518,518,518,518,518,518,518,518,518,518,518,518,518,518,519,521,528,529,530,532,533,534,534,534,529,521,514,510,499,494,488,481,462,447,429,412,392,342,319,298,274,250,231,194,177,165,152,117,105,101,95],"timestamp_mouse":[17,37,57,77,96,117,138,158,176,197,216,236,257,278,296,317,337,356,376,397,416,438,457,476,497,517,537,557,576,597,616,638,657,677,698,716,737,757,778,797,817,837,858,876,897,917,938,957,976,996,1017,1036,1056,1076,1096,1116,1137,1157,1176,1196,1218],"xSR":741.5,"ySR":469.95,"xT1":424.9,"yT1":0,"xT2":1058.1,"yT2":0,"toosoon":0,"cond_shown":"equaldotanddens","ratio_trial":500,"smaller_num":"10","larger_num":"20","correct_side":2,"subjID":"mariana  alape matiz2","gender":"1","age":"11","school":"6"},{"start_time":1551791084362,"click_time":1551791086053,"finger_time":1551791085193,"fix_duration":968.1056586887436,"trial":26,"RT":831,"MT":860,"sideResp":1,"stimulus":"img/750/equaldotanddens/R/2_Ratio_750_L_6_R_8.png","xmouse":[791,791,791,791,791,791,791,791,791,791,791,791,791,791,791,791,791,791,791,791,791,791,791,791,791,791,791,791,791,791,791,791,791,791,791,791,792,793,797,798,798,799,809,822,856,877,897,915,934,967,991,1007,1019,1027,1031,1032,1032,1032,1030,1027,1026,1025,1024,1024,1023,1023,1023,1023,1023,1023,1023,1023,1023,1023,1023,1021,1017,1006,986,884,820,735,652,572,458],"ymouse":[500,500,500,500,500,500,500,500,500,500,500,500,500,500,500,500,500,500,500,500,500,500,500,498,498,498,498,498,498,498,498,498,498,498,498,498,496,494,486,475,472,468,455,434,385,351,318,282,246,186,150,131,117,106,94,91,87,84,79,77,77,76,76,76,76,76,76,76,76,76,76,76,76,76,76,76,76,76,76,78,78,74,74,72,72],"timestamp_mouse":[10,41,50,72,90,111,131,151,170,192,210,231,250,272,292,311,330,352,371,391,411,430,451,470,491,510,530,551,572,591,610,632,650,671,690,710,731,750,772,791,811,831,851,872,891,911,930,951,972,991,1010,1030,1050,1071,1091,1110,1130,1151,1170,1191,1210,1231,1251,1270,1291,1310,1331,1351,1370,1392,1412,1431,1451,1472,1492,1511,1531,1550,1570,1592,1611,1630,1652,1670,1691],"xSR":741.5,"ySR":469.95,"xT1":424.9,"yT1":0,"xT2":1058.1,"yT2":0,"toosoon":0,"cond_shown":"equaldotanddens","ratio_trial":750,"smaller_num":"6","larger_num":"8","correct_side":2,"subjID":"mariana  alape matiz2","gender":"1","age":"11","school":"6"},{"start_time":1551791088599,"click_time":1551791091072,"finger_time":1551791089434,"fix_duration":1325.7101642408036,"trial":27,"RT":835,"MT":1638,"sideResp":2,"stimulus":"img/750/randomdotsizeEA/L/1_Ratio_750_L_20_R_15.png","xmouse":[802,802,802,802,802,802,802,802,802,802,802,802,802,802,802,802,802,802,802,802,802,802,802,802,802,802,802,802,802,802,802,802,802,802,802,802,802,805,807,810,814,818,822,824,828,831,837,856,877,893,911,931,949,969,978,989,1007,1038,1043,1046,1048,1049,1050,1050,1051,1051,1051,1052,1055,1057,1059,1062,1065,1068,1073,1076,1078,1079,1079,1079,1079,1079,1081,1081,1079,1072,1061,1048,1047,1045,1041,1039,1036,1034,1033,1033,1033,1033,1033,1033,1033,1033,1034,1035,1037,1037,1038,1038,1040,1042,1046,1048,1054,1055,1056,1057,1057,1057,1057,1058,1058,1058,1058,1062],"ymouse":[513,513,513,513,513,513,513,513,513,513,513,513,513,513,513,513,513,513,513,513,513,513,513,513,513,513,513,513,513,513,513,513,513,513,512,511,510,503,493,486,475,461,443,436,429,423,414,390,363,345,325,305,286,252,239,221,205,176,171,165,161,160,157,157,157,156,154,152,146,144,141,141,137,134,129,127,125,122,122,122,122,122,121,121,121,121,117,111,110,108,106,103,101,100,100,100,100,100,99,96,95,93,92,91,90,89,89,88,88,87,87,87,87,87,87,87,87,87,87,87,87,87,87,87],"timestamp_mouse":[14,37,54,74,95,113,134,153,175,193,215,233,255,275,294,313,334,355,373,394,413,433,455,474,494,515,533,553,574,593,615,635,653,675,693,714,733,754,775,793,813,835,854,874,895,914,935,954,973,993,1014,1035,1054,1073,1094,1114,1133,1154,1173,1193,1214,1234,1254,1273,1293,1314,1334,1355,1375,1394,1413,1433,1455,1473,1493,1514,1534,1555,1573,1594,1614,1634,1654,1673,1693,1714,1733,1755,1773,1794,1814,1834,1854,1873,1893,1914,1934,1954,1973,1993,2014,2034,2054,2073,2093,2113,2135,2154,2175,2193,2214,2234,2255,2274,2293,2313,2333,2355,2375,2395,2414,2433,2454,2473],"xSR":741.5,"ySR":469.95,"xT1":424.9,"yT1":0,"xT2":1058.1,"yT2":0,"toosoon":0,"cond_shown":"randomdotsizeEA","ratio_trial":750,"smaller_num":"15","larger_num":"20","correct_side":1,"subjID":"mariana  alape matiz2","gender":"1","age":"11","school":"6"},{"start_time":1551791092979,"click_time":1551791094493,"finger_time":1551791093774,"fix_duration":864.1438772987315,"trial":28,"RT":795,"MT":719,"sideResp":1,"stimulus":"img/750/equaldotanddens/L/10_Ratio_750_L_4_R_3.png","xmouse":[774,774,774,774,774,774,774,774,774,774,774,774,774,774,774,774,774,776,780,786,788,789,789,789,789,789,789,789,789,789,789,789,789,790,790,790,790,790,790,777,765,756,748,729,718,710,702,693,686,666,660,654,649,643,640,635,629,620,615,600,594,587,581,576,563,560,557,552,546,545,543,540,539,538,527,523],"ymouse":[525,525,525,525,525,525,525,525,525,525,525,525,525,525,525,525,525,525,525,525,525,525,525,525,525,525,525,525,525,525,525,525,525,525,523,521,515,504,490,437,410,383,350,293,270,253,242,229,216,190,183,178,175,172,171,169,166,163,158,150,148,146,145,145,141,139,135,132,126,124,121,120,117,116,103,97],"timestamp_mouse":[13,40,53,75,93,114,135,154,174,193,214,235,253,274,293,313,335,353,375,393,413,434,453,474,495,513,534,553,573,595,613,635,653,675,693,714,734,755,773,795,814,833,854,874,894,913,934,955,974,993,1014,1034,1053,1074,1093,1113,1135,1155,1174,1195,1213,1233,1254,1274,1293,1313,1333,1354,1374,1393,1413,1434,1453,1474,1493,1514],"xSR":741.5,"ySR":469.95,"xT1":424.9,"yT1":0,"xT2":1058.1,"yT2":0,"toosoon":0,"cond_shown":"equaldotanddens","ratio_trial":750,"smaller_num":"3","larger_num":"4","correct_side":1,"subjID":"mariana  alape matiz2","gender":"1","age":"11","school":"6"},{"start_time":1551791097480,"click_time":1551791098693,"finger_time":1551791098214,"fix_duration":1425.0818803325049,"trial":29,"RT":734,"MT":479,"sideResp":1,"stimulus":"img/900/randomdotsizeEA/R/6_Ratio_900_L_9_R_10.png","xmouse":[793,793,793,793,793,793,791,791,791,791,791,791,791,790,790,789,789,789,789,788,788,788,788,788,786,783,779,776,773,769,769,769,769,768,765,757,741,721,690,673,654,637,620,609,583,572,564,560,554,550,549,546,546,537,534,530,528,524,520,507,500],"ymouse":[530,530,530,530,530,530,530,530,530,530,530,530,530,530,530,530,530,530,530,530,530,530,530,530,530,528,525,523,520,514,514,514,514,514,510,500,483,463,422,398,373,345,320,299,257,244,231,222,202,192,184,177,167,140,131,125,121,115,111,102,99],"timestamp_mouse":[12,37,53,73,93,112,133,152,173,193,212,233,252,274,292,313,332,354,372,394,413,434,453,473,493,512,534,553,573,593,612,632,652,673,693,712,734,753,773,792,813,833,852,874,892,913,932,953,973,992,1013,1033,1052,1073,1092,1112,1133,1153,1173,1192,1213],"xSR":741.5,"ySR":469.95,"xT1":424.9,"yT1":0,"xT2":1058.1,"yT2":0,"toosoon":0,"cond_shown":"randomdotsizeEA","ratio_trial":900,"smaller_num":"9","larger_num":"10","correct_side":2,"subjID":"mariana  alape matiz2","gender":"1","age":"11","school":"6"},{"start_time":1551791100992,"click_time":1551791101492,"finger_time":1551791101373,"fix_duration":1016.0799267308302,"trial":30,"RT":381,"MT":119,"sideResp":1,"stimulus":"img/750/randomdotsizeEA/L/6_Ratio_750_L_24_R_18.png","xmouse":[764,764,764,764,764,764,764,764,764,764,764,764,764,764,764,764,764,764,764,744,717,679,641,562,537,521],"ymouse":[509,509,509,509,509,509,509,509,509,509,509,509,509,509,509,509,505,497,486,397,336,272,208,107,76,55],"timestamp_mouse":[9,22,42,61,80,102,120,142,161,180,202,220,241,260,282,301,321,341,362,381,401,421,441,461,480,500],"xSR":741.5,"ySR":469.95,"xT1":424.9,"yT1":0,"xT2":1058.1,"yT2":0,"toosoon":0,"cond_shown":"randomdotsizeEA","ratio_trial":750,"smaller_num":"18","larger_num":"24","correct_side":1,"subjID":"mariana  alape matiz2","gender":"1","age":"11","school":"6"},{"start_time":1551791103712,"click_time":1551791104693,"finger_time":1551791104493,"fix_duration":919.9913912657262,"trial":31,"RT":781,"MT":200,"sideResp":1,"stimulus":"img/250/equaldotsize/L/3_Ratio_250_L_8_R_2.png","xmouse":[798,798,798,798,798,798,798,798,798,798,798,798,798,798,798,798,798,798,798,798,798,798,798,798,798,798,798,801,803,806,808,809,810,810,810,810,810,810,810,810,810,810,809,776,749,709,668,568,530,498],"ymouse":[532,532,532,532,532,532,532,532,532,532,532,532,532,532,532,532,531,526,512,509,507,505,503,501,501,501,500,498,496,494,492,489,486,485,484,483,482,481,474,467,456,433,398,290,240,190,142,66,42,21],"timestamp_mouse":[8,22,41,61,80,101,121,140,160,182,200,220,242,260,280,300,321,341,360,380,401,421,440,461,480,502,520,541,560,582,601,620,641,662,681,701,720,740,760,781,801,821,841,862,881,900,921,942,960,981],"xSR":741.5,"ySR":469.95,"xT1":424.9,"yT1":0,"xT2":1058.1,"yT2":0,"toosoon":0,"cond_shown":"equaldotsize","ratio_trial":250,"smaller_num":"2","larger_num":"8","correct_side":1,"subjID":"mariana  alape matiz2","gender":"1","age":"11","school":"6"},{"start_time":1551791107405,"click_time":1551791108354,"finger_time":1551791107892,"fix_duration":1330.5206583866784,"trial":32,"RT":487,"MT":462,"sideResp":1,"stimulus":"img/900/equaldotanddens/R/5_Ratio_900_L_9_R_10.png","xmouse":[806,806,806,806,806,806,806,806,806,806,806,806,806,806,806,806,806,806,806,806,806,806,800,794,785,775,760,747,702,682,665,647,619,609,603,598,594,588,579,577,571,566,556,548,543,534,525,497],"ymouse":[512,512,512,512,512,512,512,512,512,512,512,512,512,512,512,512,512,512,512,512,512,510,499,483,466,447,425,400,323,290,262,241,204,192,184,176,170,161,145,138,132,125,115,110,103,93,85,57],"timestamp_mouse":[10,34,49,68,88,107,128,147,169,187,207,228,247,268,288,308,327,348,369,389,408,427,448,467,487,508,527,548,567,588,607,627,648,667,688,708,729,748,767,788,807,829,848,867,887,908,927,948],"xSR":741.5,"ySR":469.95,"xT1":424.9,"yT1":0,"xT2":1058.1,"yT2":0,"toosoon":0,"cond_shown":"equaldotanddens","ratio_trial":900,"smaller_num":"9","larger_num":"10","correct_side":2,"subjID":"mariana  alape matiz2","gender":"1","age":"11","school":"6"},{"start_time":1551791110128,"click_time":1551791111013,"finger_time":1551791110732,"fix_duration":573.5814794578625,"trial":33,"RT":604,"MT":281,"sideResp":1,"stimulus":"img/900/equaldotanddens/R/5_Ratio_900_L_9_R_10.png","xmouse":[769,769,769,769,769,769,769,769,769,769,769,768,768,768,768,768,768,768,768,768,768,768,768,768,768,768,768,767,764,761,753,734,715,697,670,647,619,557,531,509,490,458,448,438,426],"ymouse":[491,491,491,491,491,491,491,491,491,491,491,491,491,491,491,491,491,491,491,491,491,491,491,491,491,491,490,487,482,475,457,420,398,376,344,314,284,231,210,190,174,141,129,114,91],"timestamp_mouse":[8,26,44,65,84,106,125,146,164,185,204,225,246,264,285,305,325,345,365,385,404,424,446,465,484,506,525,544,565,585,604,626,644,664,684,705,724,744,765,785,804,826,844,865,885],"xSR":741.5,"ySR":469.95,"xT1":424.9,"yT1":0,"xT2":1058.1,"yT2":0,"toosoon":0,"cond_shown":"equaldotanddens","ratio_trial":900,"smaller_num":"9","larger_num":"10","correct_side":2,"subjID":"mariana  alape matiz2","gender":"1","age":"11","school":"6"},{"start_time":1551791113119,"click_time":1551791114072,"finger_time":1551791113533,"fix_duration":564.428130143837,"trial":34,"RT":414,"MT":539,"sideResp":2,"stimulus":"img/500/equaldotsize/R/14_Ratio_500_L_5_R_10.png","xmouse":[791,791,791,791,791,791,791,791,791,791,791,791,791,791,791,791,801,809,822,836,849,879,892,905,919,934,948,973,983,994,1003,1011,1027,1033,1036,1036,1037,1038,1041,1041,1045,1046,1054,1055,1055,1055,1058,1059],"ymouse":[510,510,510,510,510,510,510,510,510,510,510,510,510,510,510,510,502,495,484,472,461,437,426,416,406,395,382,358,347,335,320,304,256,237,219,206,186,171,155,143,125,120,95,88,84,83,77,76],"timestamp_mouse":[13,34,55,73,94,114,134,154,175,193,214,234,254,274,294,314,334,353,374,393,414,434,454,474,493,514,534,553,573,594,614,633,654,674,694,714,735,753,774,794,814,835,853,874,893,914,934,953],"xSR":741.5,"ySR":469.95,"xT1":424.9,"yT1":0,"xT2":1058.1,"yT2":0,"toosoon":0,"cond_shown":"equaldotsize","ratio_trial":500,"smaller_num":"5","larger_num":"10","correct_side":2,"subjID":"mariana  alape matiz2","gender":"1","age":"11","school":"6"},{"start_time":1551791115243,"click_time":1551791116192,"finger_time":1551791115813,"fix_duration":250,"trial":35,"RT":570,"MT":379,"sideResp":2,"stimulus":"img/900/randomdotsizeEA/R/14_Ratio_900_L_18_R_20.png","xmouse":[790,790,790,790,790,790,790,790,790,790,790,790,790,790,790,790,790,790,790,790,790,790,790,790,793,797,807,824,848,876,925,953,978,998,1016,1029,1064,1081,1093,1103,1117,1122,1126,1130,1132,1133,1133,1133],"ymouse":[543,543,543,543,543,543,543,543,543,543,543,543,543,543,543,543,543,543,543,543,543,543,543,543,541,539,534,523,506,486,447,418,390,365,345,326,267,240,217,194,167,158,146,137,130,110,103,95],"timestamp_mouse":[9,31,51,82,91,110,129,150,171,190,210,229,249,271,289,310,330,349,371,390,410,430,450,469,489,510,529,549,570,590,611,629,650,669,690,710,729,750,769,790,810,830,849,870,891,910,929,949],"xSR":741.5,"ySR":469.95,"xT1":424.9,"yT1":0,"xT2":1058.1,"yT2":0,"toosoon":0,"cond_shown":"randomdotsizeEA","ratio_trial":900,"smaller_num":"18","larger_num":"20","correct_side":2,"subjID":"mariana  alape matiz2","gender":"1","age":"11","school":"6"},{"start_time":1551791117667,"click_time":1551791118893,"finger_time":1551791118553,"fix_duration":313.29100657200314,"trial":36,"RT":886,"MT":340,"sideResp":1,"stimulus":"img/750/equaldotsize/R/11_Ratio_750_L_12_R_16.png","xmouse":[773,773,773,773,773,773,773,773,773,773,773,773,773,773,773,773,773,773,773,773,773,773,773,773,773,773,773,773,773,773,773,773,773,773,774,779,782,786,790,796,800,809,818,828,844,844,844,844,842,838,836,831,827,824,811,797,780,755,703,593,549,517],"ymouse":[546,546,546,546,546,546,546,546,546,546,546,546,546,546,546,546,546,546,546,546,546,546,546,546,546,546,546,546,546,546,546,546,546,546,546,546,546,544,540,528,521,506,489,470,414,393,378,368,363,358,356,354,354,352,336,318,291,249,192,82,54,37],"timestamp_mouse":[8,25,46,65,86,105,126,146,165,187,205,226,247,267,285,306,325,346,365,386,406,426,446,466,487,506,525,546,565,585,605,625,645,666,686,706,725,746,765,786,805,825,846,866,886,906,925,945,965,987,1005,1025,1046,1066,1086,1105,1125,1145,1166,1186,1205,1226],"xSR":741.5,"ySR":469.95,"xT1":424.9,"yT1":0,"xT2":1058.1,"yT2":0,"toosoon":0,"cond_shown":"equaldotsize","ratio_trial":750,"smaller_num":"12","larger_num":"16","correct_side":2,"subjID":"mariana  alape matiz2","gender":"1","age":"11","school":"6"},{"start_time":1551791120905,"click_time":1551791121872,"finger_time":1551791121453,"fix_duration":250,"trial":37,"RT":548,"MT":419,"sideResp":2,"stimulus":"img/900/randomdotsizeEA/L/1_Ratio_900_L_10_R_9.png","xmouse":[783,783,783,783,783,783,783,783,783,783,783,783,783,783,783,783,783,783,783,783,784,784,785,786,790,797,806,838,856,876,896,929,941,993,1013,1029,1044,1063,1068,1069,1070,1070,1070,1071,1071,1071,1071,1071,1071],"ymouse":[506,506,506,506,506,506,506,506,506,506,506,506,506,506,506,506,506,506,506,505,505,504,501,498,492,485,475,440,420,400,380,340,328,263,241,219,198,172,164,160,156,149,149,132,125,115,110,104,92],"timestamp_mouse":[8,37,48,68,88,108,128,148,168,188,209,227,248,268,288,308,327,348,368,388,407,427,448,468,487,508,528,548,567,587,608,627,647,667,688,708,728,749,767,788,808,827,847,869,887,907,927,947,967],"xSR":741.5,"ySR":469.95,"xT1":424.9,"yT1":0,"xT2":1058.1,"yT2":0,"toosoon":0,"cond_shown":"randomdotsizeEA","ratio_trial":900,"smaller_num":"9","larger_num":"10","correct_side":1,"subjID":"mariana  alape matiz2","gender":"1","age":"11","school":"6"},{"start_time":1551791123972,"click_time":1551791124753,"finger_time":1551791124253,"fix_duration":1038.9296273542857,"trial":38,"RT":281,"MT":500,"sideResp":2,"stimulus":"img/900/equaldotanddens/L/1_Ratio_900_L_10_R_9.png","xmouse":[806,806,806,806,806,806,806,806,806,806,806,806,813,824,855,871,884,897,911,955,975,993,1013,1029,1059,1070,1079,1088,1096,1101,1116,1121,1128,1135,1140,1148,1149,1149,1151,1152],"ymouse":[512,512,512,512,512,512,512,512,512,512,512,512,508,498,472,458,444,429,413,364,344,325,305,287,254,239,226,211,198,190,171,163,154,143,134,121,116,110,103,98],"timestamp_mouse":[8,20,40,60,80,100,120,142,160,180,201,220,240,261,281,300,321,341,361,381,400,420,440,460,481,500,520,541,560,581,601,620,640,661,681,700,720,741,760,780],"xSR":741.5,"ySR":469.95,"xT1":424.9,"yT1":0,"xT2":1058.1,"yT2":0,"toosoon":0,"cond_shown":"equaldotanddens","ratio_trial":900,"smaller_num":"9","larger_num":"10","correct_side":1,"subjID":"mariana  alape matiz2","gender":"1","age":"11","school":"6"},{"start_time":1551791126508,"click_time":1551791128153,"finger_time":1551791127573,"fix_duration":595.7087470004842,"trial":39,"RT":1065,"MT":580,"sideResp":2,"stimulus":"img/750/randomdotsizeEA/L/6_Ratio_750_L_24_R_18.png","xmouse":[795,795,795,795,795,795,795,795,795,795,795,795,795,795,795,795,795,795,795,795,795,795,795,795,795,795,795,795,795,795,795,795,795,795,795,795,795,795,795,795,795,795,795,795,795,795,794,793,793,793,793,792,792,790,790,790,790,790,790,790,790,790,790,790,790,790,790,813,835,867,903,939,977,1017,1025,1033,1040,1051,1059,1071,1089,1113,1154],"ymouse":[498,498,498,498,498,498,498,498,498,498,498,498,498,498,498,498,498,498,498,498,498,498,498,498,498,498,498,498,498,498,498,498,498,498,498,498,498,498,498,498,498,498,498,497,495,492,490,486,485,484,482,478,473,467,466,466,465,465,465,465,465,465,465,465,465,465,465,449,431,400,359,310,263,212,199,192,181,163,154,140,123,100,66],"timestamp_mouse":[20,25,46,65,84,104,125,145,166,186,205,226,246,264,286,304,324,344,366,385,405,426,444,465,485,504,525,546,565,585,606,625,645,664,686,704,724,745,766,784,805,825,845,865,884,904,925,945,964,985,1005,1025,1045,1065,1084,1105,1124,1145,1166,1185,1204,1224,1245,1264,1284,1304,1325,1345,1364,1384,1405,1424,1444,1465,1484,1506,1525,1546,1564,1585,1605,1624,1645],"xSR":741.5,"ySR":469.95,"xT1":424.9,"yT1":0,"xT2":1058.1,"yT2":0,"toosoon":0,"cond_shown":"randomdotsizeEA","ratio_trial":750,"smaller_num":"18","larger_num":"24","correct_side":1,"subjID":"mariana  alape matiz2","gender":"1","age":"11","school":"6"},{"start_time":1551791130909,"click_time":1551791132512,"finger_time":1551791131832,"fix_duration":1435.0522980513517,"trial":40,"RT":923,"MT":680,"sideResp":2,"stimulus":"img/250/equaldotanddens/R/13_Ratio_250_L_2_R_8.png","xmouse":[797,797,797,797,797,797,797,797,797,797,797,797,797,797,797,797,797,797,797,797,797,797,797,797,797,797,797,797,797,797,797,797,797,797,797,797,797,797,797,797,797,797,797,805,814,832,850,885,904,921,936,950,980,992,999,1012,1019,1031,1031,1031,1031,1031,1031,1031,1031,1031,1031,1031,1031,1031,1031,1033,1036,1038,1040,1042,1045,1047,1054,1058,1061],"ymouse":[509,509,509,509,509,509,509,509,509,509,509,509,509,509,509,509,509,509,509,509,509,509,509,509,509,509,509,509,509,509,509,509,509,509,509,509,509,509,509,509,509,509,509,501,492,474,454,411,383,356,332,305,253,242,227,212,193,132,106,91,81,72,65,60,58,57,56,55,55,55,55,55,54,54,54,54,54,54,54,54,54],"timestamp_mouse":[8,23,43,63,83,105,123,143,163,183,204,224,245,264,285,303,324,344,363,384,404,423,444,465,483,504,523,544,565,583,603,623,643,665,683,704,725,744,763,784,803,823,843,864,883,904,923,944,963,984,1003,1023,1045,1063,1083,1103,1123,1145,1163,1183,1203,1223,1244,1264,1283,1304,1323,1343,1363,1383,1403,1424,1444,1463,1483,1503,1523,1543,1563,1584,1603],"xSR":741.5,"ySR":469.95,"xT1":424.9,"yT1":0,"xT2":1058.1,"yT2":0,"toosoon":0,"cond_shown":"equaldotanddens","ratio_trial":250,"smaller_num":"2","larger_num":"8","correct_side":2,"subjID":"mariana  alape matiz2","gender":"1","age":"11","school":"6"},{"start_time":1551791134415,"click_time":1551791136192,"finger_time":1551791135272,"fix_duration":780.325427015329,"trial":41,"RT":857,"MT":920,"sideResp":2,"stimulus":"img/500/equaldotanddens/L/8_Ratio_500_L_8_R_4.png","xmouse":[794,794,794,794,794,794,794,794,794,794,794,794,794,794,794,794,794,794,794,794,794,794,794,794,794,794,794,794,794,794,794,794,794,794,794,794,794,794,794,802,809,828,855,865,874,884,895,912,916,920,928,943,946,948,951,951,953,953,953,953,956,960,966,968,970,973,974,975,977,978,981,988,993,1000,1007,1013,1020,1027,1028,1029,1029,1030,1032,1035,1038,1042,1048,1056,1060],"ymouse":[546,546,546,546,546,546,546,546,546,546,546,546,546,546,546,546,546,546,546,546,546,546,546,546,546,546,546,546,546,546,546,546,546,546,546,546,546,546,546,544,541,531,509,496,481,464,445,410,398,386,365,322,300,276,250,226,199,186,178,171,166,159,149,145,140,136,132,130,128,125,122,111,108,103,97,92,83,74,73,73,73,72,72,71,70,69,66,63,60],"timestamp_mouse":[17,37,57,77,99,117,139,159,177,198,220,238,257,278,298,317,338,358,378,397,419,438,457,478,497,518,537,558,579,598,618,637,658,677,698,719,737,757,778,798,818,837,857,878,898,919,938,957,977,997,1017,1039,1057,1078,1097,1118,1138,1157,1177,1197,1218,1238,1257,1278,1297,1319,1338,1357,1378,1398,1417,1438,1457,1478,1498,1518,1538,1557,1577,1599,1617,1638,1657,1677,1697,1719,1738,1757,1777],"xSR":741.5,"ySR":469.95,"xT1":424.9,"yT1":0,"xT2":1058.1,"yT2":0,"toosoon":0,"cond_shown":"equaldotanddens","ratio_trial":500,"smaller_num":"4","larger_num":"8","correct_side":1,"subjID":"mariana  alape matiz2","gender":"1","age":"11","school":"6"},{"start_time":1551791137932,"click_time":1551791140234,"finger_time":1551791139893,"fix_duration":777.4155662065274,"trial":42,"RT":1961,"MT":341,"sideResp":1,"stimulus":"img/250/equaldotsize/R/8_Ratio_250_L_1_R_4.png","xmouse":[792,792,792,792,792,792,792,792,792,792,792,792,792,792,792,792,792,792,792,792,792,792,792,792,792,792,792,792,792,792,792,792,792,792,792,792,792,792,792,792,792,792,792,792,792,792,792,792,792,792,792,792,792,792,792,792,793,793,793,794,795,795,795,795,795,795,796,796,797,797,798,798,798,798,798,798,798,798,798,798,798,798,798,798,798,798,798,798,798,798,798,798,798,798,798,799,799,799,799,799,797,776,761,737,713,672,640,595,578,566,559,538,534,529,525,523],"ymouse":[520,520,520,520,520,520,520,520,520,520,520,520,520,520,520,520,520,520,520,520,520,520,520,520,520,520,520,520,520,520,520,520,520,520,520,520,520,520,520,520,520,520,520,520,520,520,520,520,520,520,520,520,518,517,514,511,510,508,506,505,504,502,500,498,497,496,494,494,492,491,490,489,487,487,485,484,483,483,483,483,482,482,482,482,482,482,482,482,482,482,482,482,482,482,482,480,479,474,467,452,420,362,328,290,252,204,159,109,90,76,63,42,36,33,31,31],"timestamp_mouse":[8,20,50,60,80,101,120,141,162,180,200,221,240,261,280,301,321,340,361,380,401,421,440,461,480,500,520,540,560,581,602,620,640,662,680,700,722,740,760,780,800,822,840,860,880,901,920,941,960,980,1000,1020,1040,1060,1081,1100,1120,1140,1161,1180,1200,1220,1241,1261,1281,1300,1321,1340,1361,1380,1400,1420,1441,1460,1481,1502,1521,1542,1560,1580,1601,1620,1641,1660,1680,1702,1721,1740,1760,1782,1800,1822,1842,1860,1881,1900,1921,1940,1961,1981,2001,2022,2040,2060,2081,2100,2121,2140,2160,2180,2200,2222,2240,2261,2280,2302],"xSR":741.5,"ySR":469.95,"xT1":424.9,"yT1":0,"xT2":1058.1,"yT2":0,"toosoon":0,"cond_shown":"equaldotsize","ratio_trial":250,"smaller_num":"1","larger_num":"4","correct_side":2,"subjID":"mariana  alape matiz2","gender":"1","age":"11","school":"6"},{"start_time":1551791142744,"click_time":1551791145093,"finger_time":1551791143853,"fix_duration":250,"trial":43,"RT":1109,"MT":1240,"sideResp":1,"stimulus":"img/250/equaldotsize/L/2_Ratio_250_L_16_R_4.png","xmouse":[790,790,790,790,790,790,790,790,790,790,790,790,790,790,790,790,790,790,790,790,790,790,790,790,790,790,790,790,790,790,790,790,790,790,790,790,790,790,790,790,790,788,787,787,787,787,787,787,787,787,787,786,785,781,774,738,685,584,448,343,245,232,218,207,197,187,186,186,186,188,192,214,225,238,254,265,287,294,298,301,307,320,328,338,347,353,359,361,362,363,365,367,368,371,374,379,381,383,385,386,388,391,392,394,396,397,401,402,402,403,404,405,406,408,410,418,424,430],"ymouse":[545,545,545,545,545,545,545,545,545,545,545,545,545,545,545,545,545,545,545,545,545,545,545,545,545,545,545,545,545,545,545,545,545,545,545,545,545,545,545,545,545,541,540,540,540,540,540,540,540,540,539,538,534,527,513,446,385,317,266,232,181,169,159,147,136,121,115,111,108,107,106,106,106,108,108,108,104,102,101,99,96,90,86,83,79,76,71,70,70,70,70,70,70,69,69,66,64,62,61,59,59,56,56,55,53,52,50,49,49,48,47,47,47,47,47,51,53,55],"timestamp_mouse":[16,43,48,68,88,108,128,149,168,189,209,228,249,268,289,308,328,350,368,388,408,429,449,468,489,509,530,548,569,588,609,628,648,668,689,709,728,749,770,789,808,829,849,868,888,909,929,948,968,988,1009,1028,1048,1068,1089,1109,1128,1148,1169,1188,1209,1228,1248,1268,1289,1309,1328,1348,1368,1390,1409,1428,1448,1469,1488,1508,1528,1549,1569,1590,1609,1628,1648,1669,1689,1709,1728,1749,1768,1788,1808,1828,1849,1869,1889,1909,1928,1950,1969,1988,2009,2028,2048,2068,2089,2108,2128,2150,2169,2190,2209,2228,2248,2268,2289,2308,2328,2349],"xSR":741.5,"ySR":469.95,"xT1":424.9,"yT1":0,"xT2":1058.1,"yT2":0,"toosoon":0,"cond_shown":"equaldotsize","ratio_trial":250,"smaller_num":"4","larger_num":"16","correct_side":1,"subjID":"mariana  alape matiz2","gender":"1","age":"11","school":"6"},{"start_time":1551791147703,"click_time":1551791148953,"finger_time":1551791148512,"fix_duration":1069.975750164603,"trial":44,"RT":809,"MT":441,"sideResp":1,"stimulus":"img/900/equaldotanddens/L/8_Ratio_900_L_20_R_18.png","xmouse":[788,788,788,788,788,788,788,788,788,788,788,788,788,788,788,788,788,788,788,788,788,788,788,788,788,788,788,788,788,788,788,788,788,788,788,788,788,785,779,765,744,718,624,576,522,484,441,401,360,350,345,345,345,345,346,349,352,359,365,370,382,399,440],"ymouse":[506,506,506,505,505,505,505,505,505,504,504,504,504,504,504,504,504,504,504,504,504,504,504,504,504,504,504,504,504,504,504,504,504,504,504,504,501,494,487,472,452,429,355,311,256,222,177,142,92,77,72,71,70,67,64,61,58,55,55,55,54,54,54],"timestamp_mouse":[9,29,49,71,89,109,130,149,169,189,211,229,251,269,291,309,331,350,370,389,409,430,450,470,491,509,531,549,570,589,610,629,651,669,691,709,729,750,769,789,809,830,851,869,890,909,929,949,969,989,1009,1030,1049,1069,1089,1111,1131,1150,1169,1189,1209,1230,1250],"xSR":741.5,"ySR":469.95,"xT1":424.9,"yT1":0,"xT2":1058.1,"yT2":0,"toosoon":0,"cond_shown":"equaldotanddens","ratio_trial":900,"smaller_num":"18","larger_num":"20","correct_side":1,"subjID":"mariana  alape matiz2","gender":"1","age":"11","school":"6"},{"start_time":1551791150645,"click_time":1551791152453,"finger_time":1551791151293,"fix_duration":550.0809798443479,"trial":45,"RT":648,"MT":1160,"sideResp":2,"stimulus":"img/250/randomdotsizeEA/R/11_Ratio_250_L_3_R_12.png","xmouse":[806,806,806,806,806,806,806,806,806,806,806,806,806,806,806,806,806,806,806,806,806,806,806,806,806,806,806,806,806,806,811,817,830,846,880,907,918,928,931,934,937,939,939,939,939,939,940,940,940,940,940,940,940,940,940,937,934,931,929,928,928,927,927,927,927,927,926,926,925,925,925,925,925,925,925,925,925,925,925,925,925,933,944,954,969,1002,1024,1034,1044,1051,1062],"ymouse":[496,496,496,496,496,496,496,496,496,496,496,496,496,496,496,496,496,496,496,496,496,496,496,496,496,496,496,496,496,496,491,481,466,444,386,327,306,287,263,241,204,192,183,175,167,159,155,151,148,144,138,137,135,135,134,134,134,134,134,134,132,132,132,132,132,132,131,129,127,126,124,122,122,122,122,122,122,122,122,122,119,110,102,100,91,68,51,43,38,33,27],"timestamp_mouse":[8,41,47,68,89,107,129,147,167,188,208,228,249,267,287,308,327,349,367,388,408,429,447,469,487,507,529,548,569,587,607,627,648,667,688,708,727,748,767,788,808,827,848,868,887,909,927,947,968,988,1008,1027,1048,1067,1087,1108,1127,1147,1168,1189,1207,1227,1248,1267,1287,1309,1327,1347,1367,1387,1407,1428,1448,1467,1488,1508,1527,1548,1568,1587,1608,1627,1647,1668,1687,1708,1727,1747,1768,1787,1808],"xSR":741.5,"ySR":469.95,"xT1":424.9,"yT1":0,"xT2":1058.1,"yT2":0,"toosoon":0,"cond_shown":"randomdotsizeEA","ratio_trial":250,"smaller_num":"3","larger_num":"12","correct_side":2,"subjID":"mariana  alape matiz2","gender":"1","age":"11","school":"6"},{"start_time":1551791154365,"click_time":1551791156093,"finger_time":1551791155633,"fix_duration":250,"trial":46,"RT":1268,"MT":460,"sideResp":1,"stimulus":"img/750/randomdotsizeEA/L/8_Ratio_750_L_4_R_3.png","xmouse":[791,791,791,791,791,791,791,791,791,791,791,791,791,791,791,791,791,791,791,791,791,791,791,791,791,791,791,791,791,791,791,791,791,791,791,791,791,791,791,791,791,791,791,791,791,791,791,791,791,791,791,791,791,791,791,791,791,791,791,791,783,770,750,729,671,638,614,596,584,571,569,565,561,555,542,539,537,537,536,536,535,533,530,525,510,504,501],"ymouse":[530,530,530,530,530,530,530,530,530,530,530,530,530,530,530,530,530,530,530,530,530,530,530,530,530,530,530,530,530,530,530,530,530,530,530,530,530,530,530,530,530,530,530,530,530,530,530,530,530,530,530,530,530,530,530,530,530,530,530,530,524,514,503,487,445,422,403,385,370,342,333,323,313,300,284,279,276,274,265,256,219,199,175,153,121,103,89],"timestamp_mouse":[8,35,49,68,87,109,129,148,167,187,208,227,248,267,288,307,329,348,368,387,408,429,447,468,488,508,528,547,568,587,607,627,648,667,687,707,727,749,767,787,807,829,849,868,889,908,927,947,967,988,1007,1029,1049,1067,1087,1107,1127,1148,1168,1187,1208,1227,1249,1268,1289,1307,1328,1348,1367,1389,1407,1427,1447,1468,1488,1507,1528,1547,1567,1589,1607,1627,1648,1667,1689,1707,1728],"xSR":741.5,"ySR":469.95,"xT1":424.9,"yT1":0,"xT2":1058.1,"yT2":0,"toosoon":0,"cond_shown":"randomdotsizeEA","ratio_trial":750,"smaller_num":"3","larger_num":"4","correct_side":1,"subjID":"mariana  alape matiz2","gender":"1","age":"11","school":"6"},{"start_time":1551791158356,"click_time":1551791159412,"finger_time":1551791158992,"fix_duration":902.1640280323793,"trial":47,"RT":636,"MT":420,"sideResp":1,"stimulus":"img/250/randomdotsizeEA/L/3_Ratio_250_L_8_R_2.png","xmouse":[799,799,799,799,799,799,799,799,799,799,799,799,799,799,799,799,799,799,799,799,799,799,799,799,799,799,799,799,798,797,781,770,752,733,693,671,651,631,614,602,568,563,558,555,548,540,530,517,505,488,484,482,480],"ymouse":[487,487,487,487,487,487,487,487,487,487,487,487,487,487,487,487,487,487,487,487,487,487,487,487,487,487,487,487,487,486,471,461,445,429,393,370,350,328,309,293,247,238,229,222,203,189,171,154,141,119,112,106,98],"timestamp_mouse":[17,36,62,77,97,116,137,158,177,196,217,237,256,278,296,317,336,356,376,396,416,436,457,477,496,516,536,556,577,596,618,636,657,677,697,716,736,757,776,796,817,836,856,877,897,916,936,956,978,997,1016,1037,1056],"xSR":741.5,"ySR":469.95,"xT1":424.9,"yT1":0,"xT2":1058.1,"yT2":0,"toosoon":0,"cond_shown":"randomdotsizeEA","ratio_trial":250,"smaller_num":"2","larger_num":"8","correct_side":1,"subjID":"mariana  alape matiz2","gender":"1","age":"11","school":"6"},{"start_time":1551791162114,"click_time":1551791163572,"finger_time":1551791162812,"fix_duration":1300.7922358025644,"trial":48,"RT":698,"MT":760,"sideResp":1,"stimulus":"img/900/equaldotanddens/L/8_Ratio_900_L_20_R_18.png","xmouse":[807,807,807,807,807,807,807,807,807,807,807,807,807,807,807,807,807,807,806,806,806,806,806,806,806,806,806,806,806,806,805,804,792,769,729,671,602,436,376,320,265,235,235,235,235,235,235,235,235,235,235,235,235,235,235,235,235,235,360,363,369,370,370,370,371,374,378,390,397,404,414,424,428],"ymouse":[521,521,521,521,521,521,521,521,521,521,521,521,521,521,521,521,521,521,521,521,521,521,521,521,521,521,521,521,521,521,521,521,511,490,453,395,333,200,150,101,46,2,2,2,2,2,2,2,2,2,2,2,2,2,2,2,2,2,1,4,8,10,10,10,12,16,22,36,42,46,50,55,56],"timestamp_mouse":[21,38,60,79,98,120,139,158,180,198,219,238,258,279,298,318,339,358,380,399,419,438,459,479,500,520,538,558,578,598,620,638,659,678,698,719,738,758,778,799,819,838,858,878,898,918,939,958,979,999,1019,1039,1059,1078,1098,1118,1138,1158,1178,1198,1218,1239,1259,1278,1298,1320,1339,1359,1378,1398,1418,1438,1458],"xSR":741.5,"ySR":469.95,"xT1":424.9,"yT1":0,"xT2":1058.1,"yT2":0,"toosoon":0,"cond_shown":"equaldotanddens","ratio_trial":900,"smaller_num":"18","larger_num":"20","correct_side":1,"subjID":"mariana  alape matiz2","gender":"1","age":"11","school":"6"},{"start_time":1551791167416,"click_time":1551791168574,"finger_time":1551791168214,"fix_duration":702.0957664630653,"trial":49,"RT":798,"MT":360,"sideResp":2,"stimulus":"img/500/equaldotanddens/R/15_Ratio_500_L_1_R_2.png","xmouse":[786,786,786,786,786,786,786,786,786,786,786,786,786,786,786,786,786,786,786,786,786,786,786,786,786,786,786,786,786,786,786,786,786,786,786,788,789,812,827,846,866,900,916,931,946,962,977,1009,1022,1034,1047,1059,1077,1081,1086,1088,1091,1096],"ymouse":[513,513,513,513,513,513,513,513,513,513,513,513,513,513,513,513,513,513,513,513,513,513,513,513,513,513,513,513,513,513,513,513,513,513,513,513,513,509,498,487,471,435,415,392,371,351,332,293,278,260,241,214,162,146,134,122,110,88],"timestamp_mouse":[16,36,58,76,98,116,136,158,176,196,216,237,256,276,297,317,337,358,377,397,418,436,457,476,497,516,536,558,577,598,617,636,657,676,696,716,736,758,776,798,817,838,856,876,897,916,936,957,976,997,1017,1036,1057,1078,1097,1116,1137,1157],"xSR":741.5,"ySR":469.95,"xT1":424.9,"yT1":0,"xT2":1058.1,"yT2":0,"toosoon":0,"cond_shown":"equaldotanddens","ratio_trial":500,"smaller_num":"1","larger_num":"2","correct_side":2,"subjID":"mariana  alape matiz2","gender":"1","age":"11","school":"6"},{"start_time":1551791170165,"click_time":1551791171612,"finger_time":1551791170912,"fix_duration":250,"trial":50,"RT":747,"MT":700,"sideResp":1,"stimulus":"img/500/equaldotanddens/L/4_Ratio_500_L_18_R_9.png","xmouse":[785,785,785,785,785,785,785,785,785,785,785,785,785,785,785,785,785,785,785,785,785,785,785,785,785,785,785,785,785,785,784,784,782,779,768,759,748,738,728,709,706,703,702,702,701,693,688,680,673,645,630,618,607,600,594,594,594,594,594,594,594,592,591,588,582,577,573,567,563,556,537,525,511],"ymouse":[553,553,553,553,553,553,553,553,553,553,553,553,553,553,553,553,553,553,553,553,553,553,553,553,553,553,553,553,553,553,553,552,552,550,542,534,524,516,512,503,503,502,501,501,499,486,477,462,444,364,319,282,251,218,164,144,135,129,125,113,108,104,102,100,95,93,89,87,85,85,80,76,75],"timestamp_mouse":[11,37,47,67,87,107,127,147,167,188,207,229,247,268,287,309,328,349,367,387,409,427,448,467,487,507,527,549,567,589,607,627,647,667,688,707,727,747,769,788,807,827,848,868,887,907,927,948,967,988,1007,1027,1048,1068,1087,1107,1127,1147,1167,1187,1207,1227,1248,1268,1287,1307,1328,1347,1369,1387,1407,1427,1447],"xSR":741.5,"ySR":469.95,"xT1":424.9,"yT1":0,"xT2":1058.1,"yT2":0,"toosoon":0,"cond_shown":"equaldotanddens","ratio_trial":500,"smaller_num":"9","larger_num":"18","correct_side":1,"subjID":"mariana  alape matiz2","gender":"1","age":"11","school":"6"},{"start_time":1551791173120,"click_time":1551791174533,"finger_time":1551791174054,"fix_duration":446.6427276412529,"trial":51,"RT":934,"MT":479,"sideResp":1,"stimulus":"img/900/equaldotsize/R/7_Ratio_900_L_9_R_10.png","xmouse":[806,806,806,806,806,806,806,806,806,806,806,806,806,806,806,806,806,806,806,806,806,806,806,806,806,806,806,806,806,806,806,806,806,806,806,806,806,806,806,806,806,805,802,798,793,787,768,759,749,740,726,691,674,655,642,629,609,597,586,576,566,539,534,533,533,533,533,532,529,526,523],"ymouse":[525,525,525,525,525,525,525,525,525,525,525,525,525,525,525,525,525,525,525,525,525,525,525,525,523,522,522,522,522,522,522,522,522,522,522,522,522,522,522,520,519,517,508,501,492,483,459,440,413,388,355,271,236,210,189,171,147,131,118,103,94,65,60,59,59,59,59,58,56,53,51],"timestamp_mouse":[13,35,52,72,92,113,132,152,174,192,212,234,252,272,294,312,332,353,372,392,412,433,452,472,492,512,532,552,572,592,612,632,653,673,692,712,733,754,774,792,812,832,854,872,894,913,934,952,973,993,1013,1033,1052,1073,1092,1113,1133,1152,1172,1192,1213,1234,1253,1272,1292,1313,1333,1352,1373,1393,1413],"xSR":741.5,"ySR":469.95,"xT1":424.9,"yT1":0,"xT2":1058.1,"yT2":0,"toosoon":0,"cond_shown":"equaldotsize","ratio_trial":900,"smaller_num":"9","larger_num":"10","correct_side":2,"subjID":"mariana  alape matiz2","gender":"1","age":"11","school":"6"},{"start_time":1551791177089,"click_time":1551791178153,"finger_time":1551791177792,"fix_duration":1374.258701661895,"trial":52,"RT":703,"MT":361,"sideResp":2,"stimulus":"img/750/equaldotsize/R/4_Ratio_750_L_15_R_20.png","xmouse":[783,783,783,783,783,783,783,783,783,783,783,783,783,783,783,783,783,783,783,783,783,783,783,783,783,783,783,783,783,783,783,783,783,783,787,806,823,845,867,877,890,902,917,952,965,979,993,1003,1027,1037,1046,1052,1058,1062],"ymouse":[508,508,508,508,508,508,508,508,508,508,508,508,508,508,508,508,508,508,508,508,508,508,508,508,508,508,508,508,508,508,508,508,508,508,495,469,432,385,301,274,255,241,222,175,163,151,138,124,99,88,80,73,65,60],"timestamp_mouse":[8,37,45,63,84,103,123,143,164,185,203,225,243,264,283,304,323,344,364,385,403,424,443,464,483,505,523,544,565,583,604,625,643,663,684,703,724,744,764,783,803,824,844,864,883,903,924,943,963,983,1003,1023,1043,1064],"xSR":741.5,"ySR":469.95,"xT1":424.9,"yT1":0,"xT2":1058.1,"yT2":0,"toosoon":0,"cond_shown":"equaldotsize","ratio_trial":750,"smaller_num":"15","larger_num":"20","correct_side":2,"subjID":"mariana  alape matiz2","gender":"1","age":"11","school":"6"},{"start_time":1551791180305,"click_time":1551791181472,"finger_time":1551791181133,"fix_duration":970.4194687173136,"trial":53,"RT":828,"MT":339,"sideResp":1,"stimulus":"img/900/randomdotsizeEA/L/2_Ratio_900_L_20_R_18.png","xmouse":[768,768,768,768,768,768,768,768,768,768,768,768,768,768,768,768,768,768,768,768,768,768,768,768,768,768,768,768,768,768,768,768,768,768,768,768,768,768,768,768,768,769,769,759,743,721,702,668,658,650,641,634,611,598,584,570,559,534,521],"ymouse":[519,519,519,519,519,519,519,519,519,519,519,519,519,519,519,519,519,519,519,519,519,519,519,519,519,519,519,519,519,519,519,519,519,519,519,519,519,519,519,513,505,469,405,332,290,251,223,180,167,158,149,140,116,104,90,76,66,48,39],"timestamp_mouse":[8,41,47,68,87,107,128,147,168,187,207,227,247,268,287,307,327,347,367,388,407,429,448,469,488,508,528,548,567,587,609,627,648,667,689,707,727,747,767,789,808,828,848,867,887,907,927,948,967,988,1008,1027,1048,1067,1087,1108,1127,1148,1167],"xSR":741.5,"ySR":469.95,"xT1":424.9,"yT1":0,"xT2":1058.1,"yT2":0,"toosoon":0,"cond_shown":"randomdotsizeEA","ratio_trial":900,"smaller_num":"18","larger_num":"20","correct_side":1,"subjID":"mariana  alape matiz2","gender":"1","age":"11","school":"6"},{"start_time":1551791183343,"click_time":1551791184833,"finger_time":1551791184152,"fix_duration":250,"trial":54,"RT":809,"MT":681,"sideResp":2,"stimulus":"img/750/equaldotanddens/R/4_Ratio_750_L_15_R_20.png","xmouse":[812,812,812,812,812,811,810,807,806,803,802,801,801,801,801,801,801,801,801,801,801,801,801,801,801,801,801,801,801,801,801,801,801,801,801,803,807,812,821,830,855,895,914,933,953,996,1018,1042,1060,1084,1092,1111,1113,1115,1116,1117,1117,1117,1116,1115,1115,1112,1112,1111,1110,1110,1110,1110,1110,1109,1109,1105,1104,1102,1101],"ymouse":[540,540,540,540,540,540,540,540,540,539,539,538,538,538,538,538,538,538,538,538,538,538,538,538,538,538,538,538,538,538,538,538,538,538,538,534,529,516,499,485,455,417,403,388,375,340,322,298,278,253,245,217,213,207,197,168,157,148,139,132,125,115,113,110,108,107,107,107,107,107,107,104,102,100,98],"timestamp_mouse":[9,40,50,69,89,109,129,150,170,189,210,230,251,269,289,310,330,349,370,389,409,430,449,470,489,510,529,551,569,589,611,630,649,669,690,709,729,750,769,790,809,830,850,870,889,910,929,950,969,990,1009,1030,1049,1071,1090,1110,1129,1150,1171,1190,1210,1230,1249,1270,1289,1310,1330,1350,1369,1390,1409,1430,1449,1469,1490],"xSR":741.5,"ySR":469.95,"xT1":424.9,"yT1":0,"xT2":1058.1,"yT2":0,"toosoon":0,"cond_shown":"equaldotanddens","ratio_trial":750,"smaller_num":"15","larger_num":"20","correct_side":2,"subjID":"mariana  alape matiz2","gender":"1","age":"11","school":"6"},{"start_time":1551791189467,"click_time":1551791190733,"finger_time":1551791190233,"fix_duration":1253.738412500601,"trial":55,"RT":766,"MT":500,"sideResp":1,"stimulus":"img/900/randomdotsizeEA/R/3_Ratio_900_L_9_R_10.png","xmouse":[799,799,799,799,799,799,799,799,799,799,799,799,799,799,799,799,799,799,799,799,799,799,799,799,799,799,799,799,799,799,799,799,799,799,799,798,795,786,770,717,692,662,641,627,610,609,609,609,609,608,608,607,607,605,604,601,597,593,584,575,554,544,531,519],"ymouse":[506,506,506,506,506,506,506,506,506,506,506,506,506,506,506,5