[{"start_time":1551789947251,"click_time":1551789963643,"finger_time":1551789947265,"fix_duration":1063.7878325007096,"trial":0,"RT":14,"MT":16378,"sideResp":2,"stimulus":[],"xmouse":[429,429,429,429,429,429,429,429,429,429,429,429,429,429,429,429,429,429,429,429,429,429,429,429,429,429,429,429,429,429,429,429,429,429,429,429,429,429,429,429,429,429,429,432,451,502,536,555,566,574,582,587,593,606,629,666,773,789,793,793,794,800,803,805,809,810,811,811,811,811,807,788,782,782,782,782,782,782,782,782,782,781,780,780,780,780,780,779,779,777,777,776,776,776,776,775,775,774,773,771,769,768,768,768,768,768,768,768,768,768,769,773,775,776,778,781,785,785,785,786,786,787,788,789,789,789,789,789,789,789,789,789,789,789,789,789,789,789,789,789,789,789,789,789,789,789,789,789,789,789,789,789,789,789,789,789,789,789,789,789,789,789,789,789,789,789,789,789,790,791,792,801,810,832,870,885,885,885,885,887,889,923,942,952,957,961,964,964,964,964,964,965,965,965,965,964,962,961,961,960,959,958,958,958,958,963,970,975,979,982,985,991,993,994,995,996,996,996,996,996,996,996,996,996,996,996,996,996,996,996,996,996,996,996,996,996,996,996,996,996,996,996,996,996,996,996,996,996,995,995,995,994,993,993,992,991,988,987,985,984,984,984,984,984,984,984,984,984,984,984,984,984,984,984,983,983,983,983,983,983,983,983,983,983,983,983,983,983,983,983,983,981,980,978,977,977,973,972,971,970,966,964,963,961,958,955,943,937,928,922,910,889,881,874,868,861,851,848,845,843,838,827,818,813,807,803,794,792,791,790,788,787,786,785,784,784,784,784,784,784,784,784,784,784,784,784,784,784,785,785,785,786,786,786,779,760,741,726,715,711,710,710,710,710,714,727,739,748,752,754,754,755,755,755,755,755,753,751,748,748,748,748,749,751,754,759,761,761,761,761,761,753,746,742,740,739,739,739,739,740,741,742,742,742,742,743,747,753,757,762,764,766,767,767,767,767,767,767,767,767,767,767,767,766,766,766,766,766,766,766,767,771,772,773,774,775,775,775,776,776,776,776,776,776,776,776,776,776,776,776,778,779,779,780,780,780,780,780,780,780,781,782,784,785,785,787,788,788,788,788,788,788,788,788,788,788,788,788,788,788,788,788,788,788,788,788,788,788,788,788,788,788,788,788,788,788,788,788,788,788,788,791,792,793,793,793,793,793,793,793,793,793,793,793,794,794,794,794,794,794,794,794,794,794,794,794,794,794,794,794,794,794,794,794,794,794,794,794,794,794,794,794,794,794,794,794,794,794,794,794,794,794,794,794,794,794,794,794,794,794,794,794,794,794,794,794,794,794,794,794,794,794,794,794,794,794,794,794,794,794,794,794,794,794,794,794,794,794,794,794,794,794,794,794,794,794,794,794,794,794,794,794,794,794,794,794,794,794,794,794,794,794,794,794,794,794,794,794,794,794,794,794,794,794,794,794,794,794,794,794,794,794,794,794,794,794,794,794,794,794,794,794,794,794,794,794,794,794,794,794,794,794,794,794,794,794,794,794,794,794,794,794,794,794,794,794,794,794,794,794,794,794,794,794,794,794,794,794,794,794,794,794,794,794,794,794,794,794,794,794,794,794,794,794,794,794,794,794,794,794,794,794,794,794,794,794,794,794,794,794,794,794,794,794,794,794,794,794,794,794,794,794,794,794,794,794,794,794,794,794,794,794,794,794,794,794,794,794,794,794,794,794,794,794,794,794,794,794,794,794,794,794,794,794,794,794,794,794,794,794,794,794,794,794,794,794,794,794,794,794,794,792,789,784,780,780,780,781,787,798,830,855,882,904,925,951,961,965,967,969,971,972,972,972,972,972,991,1009,1028,1057,1091,1149,1172,1194,1213,1225,1231,1231,1231,1231,1229,1226,1220,1213,1206,1197,1178,1172,1164,1154],"ymouse":[303,303,303,303,303,303,303,303,303,303,303,303,303,303,303,303,303,303,303,303,303,303,303,303,303,303,303,303,303,303,303,303,303,303,303,303,303,303,303,303,303,303,303,303,305,315,324,335,344,350,357,361,367,376,387,402,451,460,462,462,464,473,480,487,494,498,503,506,510,518,532,570,584,589,591,591,591,591,591,591,591,591,591,591,591,591,591,589,586,583,580,579,577,575,572,569,563,562,560,559,557,556,556,555,554,554,553,552,551,550,549,547,545,544,542,541,540,540,540,540,540,540,540,540,540,540,540,540,540,540,540,540,540,540,540,540,540,540,540,540,540,540,540,540,540,540,540,541,542,542,542,542,542,542,542,542,542,542,542,542,542,542,542,542,542,543,545,546,546,546,547,563,580,602,629,638,638,638,638,638,638,628,623,620,616,614,611,611,611,611,610,606,604,602,599,597,592,589,587,584,581,576,574,572,569,559,544,531,523,518,512,505,503,501,500,499,499,499,499,499,499,499,499,499,499,499,499,499,499,499,499,499,499,499,499,499,499,499,499,499,499,499,499,499,499,499,499,499,499,499,499,499,499,499,499,499,499,500,500,500,500,500,500,500,500,500,500,500,500,500,500,500,500,500,500,500,500,500,500,500,500,500,500,500,500,500,500,500,500,500,500,500,500,500,500,500,500,499,499,499,498,498,498,498,498,498,497,497,497,497,497,498,499,500,502,503,507,508,509,510,513,518,520,524,526,528,532,533,534,536,541,543,544,545,547,548,548,549,550,551,553,553,553,554,555,556,557,558,558,558,558,558,554,551,542,524,510,503,499,499,499,499,499,499,504,514,524,528,530,531,532,534,536,539,541,542,543,541,540,539,539,538,536,533,531,525,523,523,523,523,525,537,548,556,561,566,570,570,570,567,559,553,548,541,537,536,536,536,540,546,560,565,570,572,572,572,572,572,568,564,557,544,541,539,539,539,539,539,539,539,542,547,550,554,559,561,562,562,562,562,562,562,562,562,562,562,562,561,560,559,556,554,553,552,551,551,551,551,551,551,551,551,551,551,552,555,555,555,555,555,555,555,555,555,555,555,555,555,555,555,555,555,555,555,555,555,555,555,555,555,555,555,555,555,555,555,554,554,553,551,548,537,535,533,532,530,530,530,530,530,533,536,539,542,544,546,547,547,547,547,547,547,547,547,547,547,547,547,547,547,546,546,546,546,546,546,546,546,546,546,546,546,546,546,546,546,546,546,546,546,546,546,546,546,546,546,546,546,546,546,546,546,546,546,546,546,546,546,546,546,546,546,546,546,546,546,546,546,546,546,546,546,546,546,546,546,546,546,546,546,546,546,546,546,546,546,546,546,546,546,546,546,546,546,546,546,546,546,546,546,546,546,546,546,546,546,546,546,546,546,546,546,546,546,546,546,546,546,546,546,546,546,546,546,546,546,546,546,546,546,546,546,546,546,546,546,546,546,546,546,546,546,546,546,546,546,546,546,546,546,546,546,546,546,546,546,546,546,546,546,546,546,546,546,546,546,546,546,546,546,546,546,546,546,546,546,546,546,546,546,546,546,546,546,546,546,546,546,546,546,546,546,546,546,546,546,546,546,546,546,546,546,546,546,546,546,546,546,546,546,546,546,546,546,546,546,546,546,546,546,546,546,546,546,546,546,546,546,546,546,546,546,546,546,546,546,546,546,546,546,546,546,546,546,546,546,546,546,546,546,546,546,546,546,546,546,546,546,546,546,546,544,541,536,530,513,497,489,483,474,456,443,429,413,396,367,349,339,329,317,308,286,277,267,258,247,214,200,185,170,154,130,122,112,106,103,102,102,101,100,92,87,81,75,69,64,58,57,53,52],"timestamp_mouse":[14,32,52,72,93,113,132,153,173,192,213,232,253,274,292,313,333,352,374,393,413,433,454,472,493,513,533,552,572,592,612,632,652,672,693,713,733,753,772,792,812,832,853,873,892,914,932,952,973,992,1015,1032,1053,1072,1093,1112,1134,1152,1173,1193,1213,1233,1253,1272,1293,1313,1333,1352,1372,1393,1413,1433,1452,1473,1492,1513,1533,1552,1573,1592,1612,1632,1654,1672,1692,1713,1732,1753,1773,1793,1813,1833,1853,1873,1892,1912,1933,1953,1973,1993,2013,2033,2052,2073,2093,2112,2132,2153,2172,2193,2213,2232,2254,2272,2294,2313,2332,2352,2373,2393,2414,2432,2452,2472,2493,2513,2532,2553,2573,2594,2612,2632,2652,2672,2692,2713,2732,2752,2773,2793,2812,2833,2852,2873,2892,2913,2932,2953,2973,2993,3012,3032,3052,3072,3092,3112,3133,3152,3172,3192,3212,3232,3252,3272,3293,3312,3332,3353,3372,3392,3412,3432,3452,3472,3492,3512,3532,3552,3573,3593,3613,3632,3654,3672,3692,3712,3733,3752,3772,3793,3812,3832,3854,3873,3893,3913,3932,3952,3972,3993,4012,4033,4053,4073,4093,4113,4132,4152,4172,4193,4212,4233,4253,4273,4293,4313,4332,4352,4372,4392,4413,4433,4453,4473,4493,4512,4533,4553,4573,4592,4613,4632,4652,4674,4692,4713,4733,4753,4773,4792,4813,4832,4852,4872,4892,4914,4932,4953,4973,4992,5013,5032,5052,5072,5093,5112,5133,5152,5172,5192,5214,5233,5253,5272,5292,5314,5332,5352,5373,5393,5413,5432,5452,5472,5492,5513,5533,5554,5573,5592,5613,5633,5654,5673,5693,5712,5732,5752,5772,5793,5812,5833,5853,5873,5893,5912,5932,5953,5973,5992,6013,6033,6053,6073,6092,6113,6133,6152,6172,6192,6213,6233,6252,6272,6293,6313,6332,6353,6373,6392,6413,6433,6452,6472,6493,6513,6532,6553,6572,6593,6614,6633,6653,6673,6692,6712,6732,6752,6773,6792,6814,6832,6853,6872,6894,6913,6932,6952,6972,6992,7013,7033,7054,7073,7092,7113,7132,7152,7172,7192,7213,7232,7253,7273,7293,7313,7332,7352,7372,7392,7412,7433,7452,7472,7493,7512,7532,7552,7573,7592,7613,7632,7652,7673,7692,7713,7733,7752,7773,7792,7812,7833,7852,7874,7892,7913,7932,7953,7972,7992,8014,8032,8052,8072,8094,8113,8132,8153,8172,8192,8213,8233,8253,8273,8292,8312,8333,8352,8372,8394,8413,8433,8452,8473,8492,8512,8532,8552,8573,8593,8613,8632,8653,8674,8693,8713,8732,8752,8774,8793,8812,8832,8852,8874,8892,8912,8933,8952,8974,8992,9013,9033,9052,9072,9093,9112,9133,9152,9174,9192,9213,9233,9252,9273,9292,9313,9332,9352,9372,9392,9412,9432,9453,9474,9492,9512,9532,9552,9572,9592,9612,9632,9653,9674,9693,9712,9733,9753,9773,9792,9812,9834,9852,9873,9892,9912,9933,9952,9973,9993,10012,10033,10053,10073,10093,10114,10132,10152,10172,10192,10213,10232,10252,10273,10293,10313,10333,10352,10372,10392,10413,10433,10453,10472,10493,10512,10532,10553,10573,10594,10613,10632,10653,10672,10693,10712,10732,10753,10772,10793,10812,10833,10853,10873,10892,10912,10932,10952,10972,10992,11013,11033,11052,11074,11093,11114,11132,11154,11172,11193,11213,11232,11252,11272,11292,11312,11332,11352,11374,11392,11412,11434,11452,11472,11492,11512,11532,11552,11573,11593,11614,11632,11652,11672,11692,11714,11733,11752,11772,11792,11813,11832,11852,11872,11893,11912,11934,11953,11972,11993,12013,12032,12052,12072,12092,12113,12133,12152,12172,12194,12214,12232,12252,12274,12294,12312,12332,12354,12372,12392,12413,12432,12452,12473,12492,12514,12533,12552,12572,12593,12612,12633,12652,12672,12693,12712,12734,12753,12773,12792,12812,12833,12852,12873,12892,12913,12932,12953,12973,12993,13012,13032,13052,13073,13094,13113,13133,13153,13174,13193,13213,13232,13253,13273,13292,13313,13333,13354,13372,13392,13413,13434,13453,13473,13493,13513,13532,13554,13572,13592,13612,13632,13652,13673,13692,13712,13733,13754,13773,13792,13813,13832,13853,13873,13892,13913,13933,13954,13973,13992,14014,14032,14054,14073,14094,14113,14134,14152,14174,14193,14214,14232,14252,14272,14292,14312,14332,14353,14372,14393,14414,14432,14453,14473,14492,14514,14534,14553,14572,14593,14612,14632,14652,14672,14694,14712,14733,14753,14772,14793,14812,14833,14852,14873,14894,14912,14933,14952,14974,14993,15012,15032,15052,15072,15093,15113,15134,15153,15172,15193,15212,15233,15254,15272,15292,15313,15332,15353,15372,15392,15413,15433,15452,15473,15493,15513,15532,15553,15572,15592,15613,15633,15653,15673,15693,15713,15732,15753,15772,15793,15813,15832,15853,15872,15892,15913,15933,15952,15973,15993,16013,16033,16053,16073,16092,16112,16132,16153,16173,16192,16213,16233,16252,16274,16293,16313,16333,16352,16373,16392],"xSR":365.5,"ySR":255.45000000000002,"xT1":199.29999999999998,"yT1":0,"xT2":531.6999999999999,"yT2":0,"toosoon":0,"cond_shown":"Congruent","ratio_trial":100,"L_num":1,"L_den":2,"R_num":18,"R_den":30,"correct_side":2,"subjID":"marian alape matiz 2","gender":"1","age":"11","school":"6","test":{"fix_dur":[250,1500],"timestim":1000,"targets_dim":[100,100],"targets_relative_coord":[0.3,0.7],"size_stim":[880,420],"start_dim":[100,100],"size_start":[300,300],"size_fix":60,"samplingrate":20,"img_types":["Congruent","Incongruent"],"ratios":[100,200,300],"rep_conds":19,"nTrials":120,"trials_to_rest":500,"Trials_order":[12,7,8,55,41,112,74,31,25,80,102,16,110,108,24,104,117,6,71,69,97,52,51,101,64,2,58,56,39,99,93,53,40,20,116,21,44,26,57,67,37,79,82,4,119,45,106,70,60,0,22,72,87,59,46,81,77,98,107,100,105,35,33,9,68,38,92,109,42,76,103,18,86,63,13,47,95,66,115,89,118,27,49,54,90,43,11,84,73,1,62,113,85,28,61,19,114,36,65,14,50,94,15,111,29,34,23,30,17,88,48,10,78,96,3,83,5,32,91,75],"cond_shown":["Congruent","Incongruent","Congruent","Incongruent","Incongruent","Congruent","Congruent","Incongruent","Incongruent","Congruent","Congruent","Congruent","Congruent","Congruent","Congruent","Congruent","Incongruent","Congruent","Incongruent","Incongruent","Incongruent","Congruent","Incongruent","Incongruent","Congruent","Congruent","Congruent","Congruent","Incongruent","Incongruent","Incongruent","Incongruent","Congruent","Congruent","Congruent","Incongruent","Congruent","Congruent","Incongruent","Incongruent","Incongruent","Incongruent","Congruent","Congruent","Incongruent","Incongruent","Congruent","Congruent","Congruent","Congruent","Congruent","Congruent","Incongruent","Incongruent","Congruent","Incongruent","Incongruent","Congruent","Incongruent","Congruent","Incongruent","Incongruent","Incongruent","Incongruent","Congruent","Congruent","Congruent","Incongruent","Congruent","Congruent","Incongruent","Congruent","Congruent","Incongruent","Incongruent","Incongruent","Incongruent","Congruent","Incongruent","Incongruent","Congruent","Incongruent","Incongruent","Congruent","Congruent","Incongruent","Incongruent","Congruent","Incongruent","Incongruent","Congruent","Incongruent","Incongruent","Congruent","Incongruent","Incongruent","Congruent","Congruent","Incongruent","Congruent","Congruent","Congruent","Incongruent","Incongruent","Incongruent","Congruent","Incongruent","Congruent","Incongruent","Congruent","Congruent","Congruent","Congruent","Congruent","Incongruent","Incongruent","Incongruent","Congruent","Incongruent","Incongruent"],"ratio_trial":[100,100,200,100,300,300,200,100,100,200,100,300,200,100,100,200,200,100,300,200,100,300,200,300,300,200,300,200,200,200,200,300,300,200,200,200,200,200,200,100,100,100,300,300,300,200,300,300,100,100,300,100,200,300,300,200,300,200,300,300,200,300,200,200,200,200,200,100,100,300,100,100,200,200,100,300,300,100,100,300,300,200,100,100,100,100,300,100,100,100,200,300,100,300,100,100,100,100,300,200,200,300,200,200,300,300,300,100,300,300,100,300,100,100,200,300,300,200,100,200],"left_num":[1,2,7,2,4,5,16,3,11,16,15,11,1,7,8,7,14,2,1,4,13,5,7,3,20,21,1,4,14,7,3,4,1,8,16,6,8,13,1,9,10,12,2,1,4,4,11,4,4,3,7,3,1,13,1,4,8,16,13,24,1,4,7,1,8,14,7,17,6,9,9,9,16,4,13,8,13,4,8,4,24,11,17,11,11,8,4,1,13,10,8,3,6,4,11,6,10,2,13,8,9,24,7,4,1,3,1,6,13,20,9,5,8,9,3,4,13,3,12,14],"right_num":[18,8,18,8,2,6,12,4,9,12,13,2,21,9,2,18,12,6,2,6,6,6,14,4,8,2,19,3,6,6,11,6,6,2,9,3,3,14,3,14,8,2,10,19,2,1,2,2,15,2,20,4,3,12,8,1,14,12,12,2,3,6,12,3,2,6,2,10,15,3,13,8,12,6,12,14,12,15,6,2,8,3,10,4,6,1,6,3,6,9,2,4,13,2,9,13,3,11,12,2,13,8,8,6,3,4,3,15,12,9,8,7,2,8,11,2,12,14,9,12],"left_den":[2,4,15,4,20,25,20,6,22,20,25,22,2,14,16,15,30,5,2,5,26,25,10,6,25,30,3,8,30,15,4,5,5,15,30,20,15,26,2,15,25,30,20,3,20,30,22,5,10,6,14,20,2,26,30,30,10,20,26,30,2,5,10,2,15,28,21,30,12,10,15,15,20,5,26,10,26,10,16,20,30,20,30,22,22,20,5,2,26,25,15,6,10,5,22,10,25,5,26,15,30,30,10,5,2,6,2,12,26,25,15,25,16,15,4,20,26,10,24,30],"right_den":[30,20,27,20,4,12,20,10,15,20,26,10,30,15,5,27,18,12,10,10,10,12,28,20,16,4,30,10,9,9,20,12,12,6,27,6,9,20,10,28,16,4,25,30,4,3,10,4,30,5,25,16,10,15,24,3,28,20,15,4,10,12,24,10,6,20,15,15,25,5,26,16,20,10,20,28,15,30,10,4,16,4,15,10,15,2,12,5,10,18,6,20,26,4,15,26,10,22,15,6,26,16,16,10,15,5,15,25,15,18,16,14,5,16,20,4,15,28,15,18],"correct_side":[2,1,2,1,2,2,1,1,2,1,1,1,2,2,1,2,2,2,1,1,2,2,1,1,1,1,2,1,2,2,1,1,2,1,1,2,1,2,1,1,2,2,2,2,2,2,1,1,2,1,2,2,1,2,2,2,1,1,2,1,1,1,1,1,1,1,1,2,2,1,1,1,1,1,2,1,2,2,2,2,1,2,2,1,1,2,1,2,2,2,1,1,1,1,2,1,1,2,2,1,2,1,1,1,1,2,1,2,2,1,1,2,1,1,1,2,2,2,2,2],"img_shown":["img2/100/Congruent/R/C_Dist_100_LN_1_LD_2_RN_18_RD_30_1.png","img2/100/Incongruent/L/I_Dist_100_LN_2_LD_4_RN_8_RD_20_0.png","img2/200/Congruent/R/C_Dist_200_LN_7_LD_15_RN_18_RD_27_1.png","img2/100/Incongruent/L/I_Dist_100_LN_2_LD_4_RN_8_RD_20_0.png","img2/300/Incongruent/R/I_Dist_300_LN_4_LD_20_RN_2_RD_4_1.png","img2/300/Congruent/R/C_Dist_300_LN_5_LD_25_RN_6_RD_12_1.png","img2/200/Congruent/L/C_Dist_200_LN_16_LD_20_RN_12_RD_20_0.png","img2/100/Incongruent/L/I_Dist_100_LN_3_LD_6_RN_4_RD_10_0.png","img2/100/Incongruent/R/I_Dist_100_LN_11_LD_22_RN_9_RD_15_1.png","img2/200/Congruent/L/C_Dist_200_LN_16_LD_20_RN_12_RD_20_0.png","img2/100/Congruent/L/C_Dist_100_LN_15_LD_25_RN_13_RD_26_0.png","img2/300/Congruent/L/C_Dist_300_LN_11_LD_22_RN_2_RD_10_0.png","img2/200/Congruent/R/C_Dist_200_LN_1_LD_2_RN_21_RD_30_1.png","img2/100/Congruent/R/C_Dist_100_LN_7_LD_14_RN_9_RD_15_1.png","img2/100/Congruent/L/C_Dist_100_LN_8_LD_16_RN_2_RD_5_0.png","img2/200/Congruent/R/C_Dist_200_LN_7_LD_15_RN_18_RD_27_1.png","img2/200/Incongruent/R/I_Dist_200_LN_14_LD_30_RN_12_RD_18_1.png","img2/100/Congruent/R/C_Dist_100_LN_2_LD_5_RN_6_RD_12_1.png","img2/300/Incongruent/L/I_Dist_300_LN_1_LD_2_RN_2_RD_10_0.png","img2/200/Incongruent/L/I_Dist_200_LN_4_LD_5_RN_6_RD_10_0.png","img2/100/Incongruent/R/I_Dist_100_LN_13_LD_26_RN_6_RD_10_1.png","img2/300/Congruent/R/C_Dist_300_LN_5_LD_25_RN_6_RD_12_1.png","img2/200/Incongruent/L/I_Dist_200_LN_7_LD_10_RN_14_RD_28_0.png","img2/300/Incongruent/L/I_Dist_300_LN_3_LD_6_RN_4_RD_20_0.png","img2/300/Congruent/L/C_Dist_300_LN_20_LD_25_RN_8_RD_16_0.png","img2/200/Congruent/L/C_Dist_200_LN_21_LD_30_RN_2_RD_4_0.png","img2/300/Congruent/R/C_Dist_300_LN_1_LD_3_RN_19_RD_30_1.png","img2/200/Congruent/L/C_Dist_200_LN_4_LD_8_RN_3_RD_10_0.png","img2/200/Incongruent/R/I_Dist_200_LN_14_LD_30_RN_6_RD_9_1.png","img2/200/Incongruent/R/I_Dist_200_LN_7_LD_15_RN_6_RD_9_1.png","img2/200/Incongruent/L/I_Dist_200_LN_3_LD_4_RN_11_RD_20_0.png","img2/300/Incongruent/L/I_Dist_300_LN_4_LD_5_RN_6_RD_12_0.png","img2/300/Congruent/R/C_Dist_300_LN_1_LD_5_RN_6_RD_12_1.png","img2/200/Congruent/L/C_Dist_200_LN_8_LD_15_RN_2_RD_6_0.png","img2/200/Congruent/L/C_Dist_200_LN_16_LD_30_RN_9_RD_27_0.png","img2/200/Incongruent/R/I_Dist_200_LN_6_LD_20_RN_3_RD_6_1.png","img2/200/Congruent/L/C_Dist_200_LN_8_LD_15_RN_3_RD_9_0.png","img2/200/Congruent/R/C_Dist_200_LN_13_LD_26_RN_14_RD_20_1.png","img2/200/Incongruent/L/I_Dist_200_LN_1_LD_2_RN_3_RD_10_0.png","img2/100/Incongruent/L/I_Dist_100_LN_9_LD_15_RN_14_RD_28_0.png","img2/100/Incongruent/R/I_Dist_100_LN_10_LD_25_RN_8_RD_16_1.png","img2/100/Incongruent/R/I_Dist_100_LN_12_LD_30_RN_2_RD_4_1.png","img2/300/Congruent/R/C_Dist_300_LN_2_LD_20_RN_10_RD_25_1.png","img2/300/Congruent/R/C_Dist_300_LN_1_LD_3_RN_19_RD_30_1.png","img2/300/Incongruent/R/I_Dist_300_LN_4_LD_20_RN_2_RD_4_1.png","img2/200/Incongruent/R/I_Dist_200_LN_4_LD_30_RN_1_RD_3_1.png","img2/300/Congruent/L/C_Dist_300_LN_11_LD_22_RN_2_RD_10_0.png","img2/300/Congruent/L/C_Dist_300_LN_4_LD_5_RN_2_RD_4_0.png","img2/100/Congruent/R/C_Dist_100_LN_4_LD_10_RN_15_RD_30_1.png","img2/100/Congruent/L/C_Dist_100_LN_3_LD_6_RN_2_RD_5_0.png","img2/300/Congruent/R/C_Dist_300_LN_7_LD_14_RN_20_RD_25_1.png","img2/100/Congruent/R/C_Dist_100_LN_3_LD_20_RN_4_RD_16_1.png","img2/200/Incongruent/L/I_Dist_200_LN_1_LD_2_RN_3_RD_10_0.png","img2/300/Incongruent/R/I_Dist_300_LN_13_LD_26_RN_12_RD_15_1.png","img2/300/Congruent/R/C_Dist_300_LN_1_LD_30_RN_8_RD_24_1.png","img2/200/Incongruent/R/I_Dist_200_LN_4_LD_30_RN_1_RD_3_1.png","img2/300/Incongruent/L/I_Dist_300_LN_8_LD_10_RN_14_RD_28_0.png","img2/200/Congruent/L/C_Dist_200_LN_16_LD_20_RN_12_RD_20_0.png","img2/300/Incongruent/R/I_Dist_300_LN_13_LD_26_RN_12_RD_15_1.png","img2/300/Congruent/L/C_Dist_300_LN_24_LD_30_RN_2_RD_4_0.png","img2/200/Incongruent/L/I_Dist_200_LN_1_LD_2_RN_3_RD_10_0.png","img2/300/Incongruent/L/I_Dist_300_LN_4_LD_5_RN_6_RD_12_0.png","img2/200/Incongruent/L/I_Dist_200_LN_7_LD_10_RN_12_RD_24_0.png","img2/200/Incongruent/L/I_Dist_200_LN_1_LD_2_RN_3_RD_10_0.png","img2/200/Congruent/L/C_Dist_200_LN_8_LD_15_RN_2_RD_6_0.png","img2/200/Congruent/L/C_Dist_200_LN_14_LD_28_RN_6_RD_20_0.png","img2/200/Congruent/L/C_Dist_200_LN_7_LD_21_RN_2_RD_15_0.png","img2/100/Incongruent/R/I_Dist_100_LN_17_LD_30_RN_10_RD_15_1.png","img2/100/Congruent/R/C_Dist_100_LN_6_LD_12_RN_15_RD_25_1.png","img2/300/Congruent/L/C_Dist_300_LN_9_LD_10_RN_3_RD_5_0.png","img2/100/Incongruent/L/I_Dist_100_LN_9_LD_15_RN_13_RD_26_0.png","img2/100/Congruent/L/C_Dist_100_LN_9_LD_15_RN_8_RD_16_0.png","img2/200/Congruent/L/C_Dist_200_LN_16_LD_20_RN_12_RD_20_0.png","img2/200/Incongruent/L/I_Dist_200_LN_4_LD_5_RN_6_RD_10_0.png","img2/100/Incongruent/R/I_Dist_100_LN_13_LD_26_RN_12_RD_20_1.png","img2/300/Incongruent/L/I_Dist_300_LN_8_LD_10_RN_14_RD_28_0.png","img2/300/Incongruent/R/I_Dist_300_LN_13_LD_26_RN_12_RD_15_1.png","img2/100/Congruent/R/C_Dist_100_LN_4_LD_10_RN_15_RD_30_1.png","img2/100/Incongruent/R/I_Dist_100_LN_8_LD_16_RN_6_RD_10_1.png","img2/300/Incongruent/R/I_Dist_300_LN_4_LD_20_RN_2_RD_4_1.png","img2/300/Congruent/L/C_Dist_300_LN_24_LD_30_RN_8_RD_16_0.png","img2/200/Incongruent/R/I_Dist_200_LN_11_LD_20_RN_3_RD_4_1.png","img2/100/Incongruent/R/I_Dist_100_LN_17_LD_30_RN_10_RD_15_1.png","img2/100/Congruent/L/C_Dist_100_LN_11_LD_22_RN_4_RD_10_0.png","img2/100/Congruent/L/C_Dist_100_LN_11_LD_22_RN_6_RD_15_0.png","img2/100/Incongruent/R/I_Dist_100_LN_8_LD_20_RN_1_RD_2_1.png","img2/300/Incongruent/L/I_Dist_300_LN_4_LD_5_RN_6_RD_12_0.png","img2/100/Congruent/R/C_Dist_100_LN_1_LD_2_RN_3_RD_5_1.png","img2/100/Incongruent/R/I_Dist_100_LN_13_LD_26_RN_6_RD_10_1.png","img2/100/Incongruent/R/I_Dist_100_LN_10_LD_25_RN_9_RD_18_1.png","img2/200/Congruent/L/C_Dist_200_LN_8_LD_15_RN_2_RD_6_0.png","img2/300/Incongruent/L/I_Dist_300_LN_3_LD_6_RN_4_RD_20_0.png","img2/100/Incongruent/L/I_Dist_100_LN_6_LD_10_RN_13_RD_26_0.png","img2/300/Congruent/L/C_Dist_300_LN_4_LD_5_RN_2_RD_4_0.png","img2/100/Incongruent/R/I_Dist_100_LN_11_LD_22_RN_9_RD_15_1.png","img2/100/Incongruent/L/I_Dist_100_LN_6_LD_10_RN_13_RD_26_0.png","img2/100/Congruent/L/C_Dist_100_LN_10_LD_25_RN_3_RD_10_0.png","img2/100/Congruent/R/C_Dist_100_LN_2_LD_5_RN_11_RD_22_1.png","img2/300/Incongruent/R/I_Dist_300_LN_13_LD_26_RN_12_RD_15_1.png","img2/200/Congruent/L/C_Dist_200_LN_8_LD_15_RN_2_RD_6_0.png","img2/200/Congruent/R/C_Dist_200_LN_9_LD_30_RN_13_RD_26_1.png","img2/300/Congruent/L/C_Dist_300_LN_24_LD_30_RN_8_RD_16_0.png","img2/200/Incongruent/L/I_Dist_200_LN_7_LD_10_RN_8_RD_16_0.png","img2/200/Incongruent/L/I_Dist_200_LN_4_LD_5_RN_6_RD_10_0.png","img2/300/Incongruent/L/I_Dist_300_LN_1_LD_2_RN_3_RD_15_0.png","img2/300/Congruent/R/C_Dist_300_LN_3_LD_6_RN_4_RD_5_1.png","img2/300/Incongruent/L/I_Dist_300_LN_1_LD_2_RN_3_RD_15_0.png","img2/100/Congruent/R/C_Dist_100_LN_6_LD_12_RN_15_RD_25_1.png","img2/300/Incongruent/R/I_Dist_300_LN_13_LD_26_RN_12_RD_15_1.png","img2/300/Congruent/L/C_Dist_300_LN_20_LD_25_RN_9_RD_18_0.png","img2/100/Congruent/L/C_Dist_100_LN_9_LD_15_RN_8_RD_16_0.png","img2/300/Congruent/R/C_Dist_300_LN_5_LD_25_RN_7_RD_14_1.png","img2/100/Congruent/L/C_Dist_100_LN_8_LD_16_RN_2_RD_5_0.png","img2/100/Congruent/L/C_Dist_100_LN_9_LD_15_RN_8_RD_16_0.png","img2/200/Incongruent/L/I_Dist_200_LN_3_LD_4_RN_11_RD_20_0.png","img2/300/Incongruent/R/I_Dist_300_LN_4_LD_20_RN_2_RD_4_1.png","img2/300/Incongruent/R/I_Dist_300_LN_13_LD_26_RN_12_RD_15_1.png","img2/200/Congruent/R/C_Dist_200_LN_3_LD_10_RN_14_RD_28_1.png","img2/100/Incongruent/R/I_Dist_100_LN_12_LD_24_RN_9_RD_15_1.png","img2/200/Incongruent/R/I_Dist_200_LN_14_LD_30_RN_12_RD_18_1.png"],"dist100_C":[["C_Dist_100_LN_10_LD_25_RN_3_RD_10_0.png","C_Dist_100_LN_11_LD_22_RN_4_RD_10_0.png","C_Dist_100_LN_11_LD_22_RN_6_RD_15_0.png","C_Dist_100_LN_15_LD_25_RN_13_RD_26_0.png","C_Dist_100_LN_3_LD_6_RN_2_RD_5_0.png","C_Dist_100_LN_6_LD_20_RN_5_RD_25_0.png","C_Dist_100_LN_8_LD_16_RN_2_RD_5_0.png","C_Dist_100_LN_9_LD_15_RN_8_RD_16_0.png"],["C_Dist_100_LN_1_LD_2_RN_18_RD_30_1.png","C_Dist_100_LN_1_LD_2_RN_3_RD_5_1.png","C_Dist_100_LN_12_LD_30_RN_13_RD_26_1.png","C_Dist_100_LN_2_LD_5_RN_11_RD_22_1.png","C_Dist_100_LN_2_LD_5_RN_6_RD_12_1.png","C_Dist_100_LN_3_LD_20_RN_4_RD_16_1.png","C_Dist_100_LN_4_LD_10_RN_15_RD_30_1.png","C_Dist_100_LN_4_LD_8_RN_6_RD_10_1.png","C_Dist_100_LN_6_LD_12_RN_15_RD_25_1.png","C_Dist_100_LN_7_LD_14_RN_15_RD_25_1.png","C_Dist_100_LN_7_LD_14_RN_9_RD_15_1.png"]],"dist100_I":[["I_Dist_100_LN_1_LD_2_RN_8_RD_20_0.png","I_Dist_100_LN_2_LD_4_RN_6_RD_15_0.png","I_Dist_100_LN_2_LD_4_RN_8_RD_20_0.png","I_Dist_100_LN_3_LD_5_RN_11_RD_22_0.png","I_Dist_100_LN_3_LD_5_RN_8_RD_16_0.png","I_Dist_100_LN_3_LD_6_RN_4_RD_10_0.png","I_Dist_100_LN_3_LD_9_RN_7_RD_30_0.png","I_Dist_100_LN_4_LD_8_RN_8_RD_20_0.png","I_Dist_100_LN_6_LD_10_RN_11_RD_22_0.png","I_Dist_100_LN_6_LD_10_RN_13_RD_26_0.png","I_Dist_100_LN_6_LD_10_RN_7_RD_14_0.png","I_Dist_100_LN_9_LD_10_RN_20_RD_25_0.png","I_Dist_100_LN_9_LD_15_RN_13_RD_26_0.png","I_Dist_100_LN_9_LD_15_RN_14_RD_28_0.png"],["I_Dist_100_LN_10_LD_25_RN_8_RD_16_1.png","I_Dist_100_LN_10_LD_25_RN_9_RD_18_1.png","I_Dist_100_LN_11_LD_22_RN_9_RD_15_1.png","I_Dist_100_LN_12_LD_24_RN_9_RD_15_1.png","I_Dist_100_LN_12_LD_30_RN_2_RD_4_1.png","I_Dist_100_LN_13_LD_26_RN_12_RD_20_1.png","I_Dist_100_LN_13_LD_26_RN_6_RD_10_1.png","I_Dist_100_LN_17_LD_30_RN_10_RD_15_1.png","I_Dist_100_LN_6_LD_12_RN_3_RD_5_1.png","I_Dist_100_LN_8_LD_16_RN_6_RD_10_1.png","I_Dist_100_LN_8_LD_20_RN_1_RD_2_1.png","I_Dist_100_LN_9_LD_18_RN_6_RD_10_1.png"]],"dist100_S":[["E_Dist_100_LN_2_LD_12_RN_2_RD_30_0.png","E_Dist_100_LN_6_LD_10_RN_6_RD_12_0.png"],["E_Dist_100_LN_6_LD_12_RN_6_RD_10_1.png"]],"dist200_C":[["C_Dist_200_LN_11_LD_22_RN_3_RD_10_0.png","C_Dist_200_LN_12_LD_15_RN_6_RD_10_0.png","C_Dist_200_LN_12_LD_20_RN_6_RD_15_0.png","C_Dist_200_LN_14_LD_28_RN_6_RD_20_0.png","C_Dist_200_LN_15_LD_25_RN_4_RD_10_0.png","C_Dist_200_LN_16_LD_20_RN_12_RD_20_0.png","C_Dist_200_LN_16_LD_30_RN_9_RD_27_0.png","C_Dist_200_LN_20_LD_25_RN_9_RD_15_0.png","C_Dist_200_LN_21_LD_30_RN_2_RD_4_0.png","C_Dist_200_LN_4_LD_10_RN_3_RD_15_0.png","C_Dist_200_LN_4_LD_8_RN_3_RD_10_0.png","C_Dist_200_LN_6_LD_15_RN_3_RD_15_0.png","C_Dist_200_LN_7_LD_21_RN_2_RD_15_0.png","C_Dist_200_LN_8_LD_15_RN_2_RD_6_0.png","C_Dist_200_LN_8_LD_15_RN_3_RD_9_0.png","C_Dist_200_LN_8_LD_15_RN_7_RD_21_0.png","C_Dist_200_LN_9_LD_20_RN_4_RD_16_0.png"],["C_Dist_200_LN_1_LD_2_RN_21_RD_30_1.png","C_Dist_200_LN_13_LD_26_RN_14_RD_20_1.png","C_Dist_200_LN_3_LD_10_RN_11_RD_22_1.png","C_Dist_200_LN_3_LD_10_RN_14_RD_28_1.png","C_Dist_200_LN_3_LD_10_RN_7_RD_14_1.png","C_Dist_200_LN_3_LD_12_RN_9_RD_20_1.png","C_Dist_200_LN_3_LD_6_RN_14_RD_20_1.png","C_Dist_200_LN_5_LD_10_RN_14_RD_20_1.png","C_Dist_200_LN_6_LD_12_RN_7_RD_10_1.png","C_Dist_200_LN_6_LD_20_RN_11_RD_22_1.png","C_Dist_200_LN_7_LD_15_RN_18_RD_27_1.png","C_Dist_200_LN_9_LD_30_RN_13_RD_26_1.png"]],"dist200_I":[["I_Dist_200_LN_1_LD_2_RN_3_RD_10_0.png","I_Dist_200_LN_1_LD_3_RN_2_RD_15_0.png","I_Dist_200_LN_3_LD_4_RN_11_RD_20_0.png","I_Dist_200_LN_4_LD_5_RN_6_RD_10_0.png","I_Dist_200_LN_4_LD_6_RN_14_RD_30_0.png","I_Dist_200_LN_7_LD_10_RN_12_RD_24_0.png","I_Dist_200_LN_7_LD_10_RN_14_RD_28_0.png","I_Dist_200_LN_7_LD_10_RN_8_RD_16_0.png"],["I_Dist_200_LN_11_LD_20_RN_3_RD_4_1.png","I_Dist_200_LN_14_LD_30_RN_12_RD_18_1.png","I_Dist_200_LN_14_LD_30_RN_6_RD_9_1.png","I_Dist_200_LN_3_LD_10_RN_1_RD_2_1.png","I_Dist_200_LN_4_LD_30_RN_1_RD_3_1.png","I_Dist_200_LN_6_LD_20_RN_3_RD_6_1.png","I_Dist_200_LN_7_LD_15_RN_4_RD_6_1.png","I_Dist_200_LN_7_LD_15_RN_6_RD_9_1.png","I_Dist_200_LN_9_LD_15_RN_8_RD_10_1.png"]],"dist200_S":[["E_Dist_200_LN_3_LD_6_RN_3_RD_10_0.png"],["E_Dist_200_LN_3_LD_10_RN_3_RD_6_1.png"]],"dist300_C":[["C_Dist_300_LN_11_LD_22_RN_1_RD_5_0.png","C_Dist_300_LN_11_LD_22_RN_2_RD_10_0.png","C_Dist_300_LN_11_LD_22_RN_4_RD_20_0.png","C_Dist_300_LN_12_LD_24_RN_2_RD_10_0.png","C_Dist_300_LN_18_LD_20_RN_9_RD_15_0.png","C_Dist_300_LN_20_LD_25_RN_13_RD_26_0.png","C_Dist_300_LN_20_LD_25_RN_14_RD_28_0.png","C_Dist_300_LN_20_LD_25_RN_5_RD_10_0.png","C_Dist_300_LN_20_LD_25_RN_8_RD_16_0.png","C_Dist_300_LN_20_LD_25_RN_9_RD_18_0.png","C_Dist_300_LN_24_LD_30_RN_2_RD_4_0.png","C_Dist_300_LN_24_LD_30_RN_8_RD_16_0.png","C_Dist_300_LN_3_LD_6_RN_2_RD_10_0.png","C_Dist_300_LN_4_LD_10_RN_1_RD_10_0.png","C_Dist_300_LN_4_LD_5_RN_2_RD_4_0.png","C_Dist_300_LN_8_LD_16_RN_1_RD_5_0.png","C_Dist_300_LN_9_LD_10_RN_3_RD_5_0.png"],["C_Dist_300_LN_1_LD_20_RN_7_RD_20_1.png","C_Dist_300_LN_1_LD_3_RN_19_RD_30_1.png","C_Dist_300_LN_1_LD_30_RN_8_RD_24_1.png","C_Dist_300_LN_1_LD_5_RN_11_RD_22_1.png","C_Dist_300_LN_1_LD_5_RN_3_RD_6_1.png","C_Dist_300_LN_1_LD_5_RN_6_RD_12_1.png","C_Dist_300_LN_2_LD_10_RN_12_RD_24_1.png","C_Dist_300_LN_2_LD_20_RN_10_RD_25_1.png","C_Dist_300_LN_3_LD_12_RN_11_RD_20_1.png","C_Dist_300_LN_3_LD_6_RN_4_RD_5_1.png","C_Dist_300_LN_4_LD_20_RN_13_RD_26_1.png","C_Dist_300_LN_5_LD_25_RN_6_RD_12_1.png","C_Dist_300_LN_5_LD_25_RN_7_RD_14_1.png","C_Dist_300_LN_7_LD_14_RN_20_RD_25_1.png","C_Dist_300_LN_8_LD_15_RN_10_RD_12_1.png"]],"dist300_I":[["I_Dist_300_LN_1_LD_2_RN_2_RD_10_0.png","I_Dist_300_LN_1_LD_2_RN_3_RD_15_0.png","I_Dist_300_LN_2_LD_4_RN_6_RD_30_0.png","I_Dist_300_LN_3_LD_6_RN_4_RD_20_0.png","I_Dist_300_LN_4_LD_5_RN_6_RD_12_0.png","I_Dist_300_LN_4_LD_5_RN_8_RD_16_0.png","I_Dist_300_LN_7_LD_10_RN_8_RD_20_0.png","I_Dist_300_LN_8_LD_10_RN_14_RD_28_0.png","I_Dist_300_LN_8_LD_10_RN_9_RD_18_0.png"],["I_Dist_300_LN_13_LD_26_RN_12_RD_15_1.png","I_Dist_300_LN_4_LD_20_RN_2_RD_4_1.png"]],"dist300_S":[["E_Dist_300_LN_9_LD_12_RN_9_RD_20_0.png"],["E_Dist_300_LN_18_LD_30_RN_18_RD_20_1.png","E_Dist_300_LN_3_LD_10_RN_3_RD_5_1.png","E_Dist_300_LN_9_LD_20_RN_9_RD_12_1.png"]],"dist500_C":[["C_Dist_500_LN_10_LD_13_RN_7_RD_26_0.png","C_Dist_500_LN_10_LD_15_RN_4_RD_24_0.png","C_Dist_500_LN_12_LD_16_RN_3_RD_12_0.png","C_Dist_500_LN_12_LD_18_RN_4_RD_24_0.png","C_Dist_500_LN_15_LD_18_RN_5_RD_15_0.png","C_Dist_500_LN_15_LD_20_RN_1_RD_4_0.png","C_Dist_500_LN_18_LD_27_RN_1_RD_6_0.png","C_Dist_500_LN_20_LD_24_RN_1_RD_3_0.png","C_Dist_500_LN_20_LD_24_RN_3_RD_9_0.png","C_Dist_500_LN_20_LD_24_RN_7_RD_21_0.png","C_Dist_500_LN_20_LD_28_RN_3_RD_14_0.png","C_Dist_500_LN_21_LD_28_RN_6_RD_24_0.png","C_Dist_500_LN_22_LD_28_RN_2_RD_7_0.png","C_Dist_500_LN_25_LD_30_RN_9_RD_27_0.png","C_Dist_500_LN_4_LD_6_RN_1_RD_6_0.png","C_Dist_500_LN_5_LD_6_RN_2_RD_6_0.png","C_Dist_500_LN_6_LD_9_RN_1_RD_6_0.png","C_Dist_500_LN_7_LD_10_RN_1_RD_5_0.png","C_Dist_500_LN_8_LD_12_RN_1_RD_6_0.png","C_Dist_500_LN_8_LD_12_RN_4_RD_24_0.png"],["C_Dist_500_LN_1_LD_4_RN_12_RD_16_1.png","C_Dist_500_LN_1_LD_4_RN_9_RD_12_1.png","C_Dist_500_LN_1_LD_9_RN_11_RD_18_1.png","C_Dist_500_LN_10_LD_24_RN_22_RD_24_1.png","C_Dist_500_LN_2_LD_12_RN_10_RD_15_1.png","C_Dist_500_LN_2_LD_12_RN_12_RD_18_1.png","C_Dist_500_LN_2_LD_12_RN_4_RD_6_1.png","C_Dist_500_LN_2_LD_24_RN_7_RD_12_1.png","C_Dist_500_LN_2_LD_5_RN_18_RD_20_1.png","C_Dist_500_LN_2_LD_5_RN_9_RD_10_1.png","C_Dist_500_LN_2_LD_8_RN_12_RD_16_1.png","C_Dist_500_LN_2_LD_8_RN_21_RD_28_1.png","C_Dist_500_LN_3_LD_10_RN_4_RD_5_1.png","C_Dist_500_LN_3_LD_12_RN_15_RD_20_1.png","C_Dist_500_LN_3_LD_30_RN_6_RD_10_1.png","C_Dist_500_LN_3_LD_8_RN_14_RD_16_1.png","C_Dist_500_LN_4_LD_16_RN_15_RD_20_1.png","C_Dist_500_LN_4_LD_24_RN_12_RD_18_1.png","C_Dist_500_LN_5_LD_14_RN_6_RD_7_1.png","C_Dist_500_LN_7_LD_21_RN_20_RD_24_1.png","C_Dist_500_LN_7_LD_28_RN_12_RD_16_1.png","C_Dist_500_LN_7_LD_28_RN_9_RD_12_1.png","C_Dist_500_LN_9_LD_27_RN_20_RD_24_1.png"]],"dist500_I":[["I_Dist_500_LN_2_LD_3_RN_4_RD_24_0.png","I_Dist_500_LN_5_LD_6_RN_6_RD_18_0.png","I_Dist_500_LN_7_LD_8_RN_9_RD_24_0.png"],["I_Dist_500_LN_7_LD_21_RN_5_RD_6_1.png"]],"dist500_S":[["E_Dist_500_LN_6_LD_8_RN_6_RD_24_0.png"],["E_Dist_500_LN_2_LD_12_RN_2_RD_3_1.png","E_Dist_500_LN_6_LD_24_RN_6_RD_8_1.png"]]}},{"start_time":1551789965754,"click_time":1551789968305,"finger_time":1551789967365,"fix_duration":867.7809461162456,"trial":1,"RT":1611,"MT":940,"sideResp":2,"stimulus":[],"xmouse":[785,785,785,785,785,785,785,785,785,785,785,785,785,785,785,785,785,785,785,785,785,785,785,785,785,785,785,785,785,785,785,785,785,785,785,785,785,785,785,785,785,785,785,785,785,785,785,785,785,785,785,785,785,785,785,785,785,785,785,785,785,785,785,785,785,785,785,785,785,785,785,785,785,785,785,785,785,795,806,863,900,912,918,927,957,970,982,990,995,1014,1015,1015,1010,1000,993,989,989,989,989,990,988,987,986,986,986,991,993,993,993,993,995,997,999,1002,1005,1011,1015,1019,1025,1032,1043,1045,1047,1049,1051,1057,1059],"ymouse":[556,556,556,556,556,556,556,556,556,556,556,556,556,556,556,556,556,556,556,556,556,556,556,556,556,556,556,556,556,556,556,556,556,556,556,556,556,556,556,556,556,556,556,556,556,556,556,556,556,556,556,556,556,556,556,556,556,556,556,556,556,556,556,556,556,556,556,556,556,556,556,556,556,556,556,556,556,556,553,539,535,532,526,513,468,445,424,415,410,382,357,336,309,282,258,218,199,184,172,164,159,159,159,159,159,152,151,151,151,151,149,147,145,142,140,134,130,126,122,119,113,112,110,109,108,100,97],"timestamp_mouse":[9,53,70,91,109,130,149,171,190,210,229,250,269,291,310,330,349,371,390,410,429,449,469,491,509,529,549,570,589,609,631,650,670,689,709,729,750,769,789,809,829,849,870,889,911,930,949,969,989,1011,1029,1049,1070,1089,1111,1130,1149,1170,1190,1209,1230,1250,1270,1290,1311,1330,1349,1369,1389,1410,1429,1451,1469,1491,1510,1531,1550,1569,1590,1610,1629,1649,1670,1689,1711,1729,1749,1770,1790,1811,1829,1850,1870,1889,1910,1929,1949,1970,1990,2009,2029,2049,2069,2090,2110,2129,2150,2170,2189,2210,2229,2249,2270,2289,2310,2330,2349,2369,2389,2409,2429,2449,2470,2490,2509,2529,2550],"xSR":741.5,"ySR":501.8,"xT1":424.9,"yT1":0,"xT2":1058.1,"yT2":0,"toosoon":0,"cond_shown":"Incongruent","ratio_trial":100,"L_num":2,"L_den":4,"R_num":8,"R_den":20,"correct_side":1,"subjID":"marian alape matiz 2","gender":"1","school":"6","age":"11"},{"start_time":1551789970847,"click_time":1551789972823,"finger_time":1551789972404,"fix_duration":881.5642687557678,"trial":2,"RT":1557,"MT":419,"sideResp":1,"stimulus":[],"xmouse":[786,786,784,783,783,782,781,781,781,781,781,781,781,781,781,781,781,781,781,781,781,781,781,781,781,781,781,781,781,780,779,778,778,776,776,775,774,774,773,773,773,772,772,771,771,771,771,771,771,771,771,771,771,771,771,771,771,771,771,771,771,771,771,771,771,771,771,771,771,771,771,771,770,769,767,765,748,740,729,724,712,702,693,681,671,659,630,618,609,600,581,574,567,562,557,552,537,529,522],"ymouse":[556,556,555,555,554,553,553,553,553,553,553,553,553,553,553,553,553,553,553,553,553,553,553,553,553,553,553,553,553,551,550,550,549,549,548,547,546,546,546,545,545,544,543,543,543,543,542,542,542,542,542,542,542,542,542,542,542,542,542,542,542,542,542,542,542,541,540,538,538,538,538,538,537,536,535,532,507,484,455,417,333,284,241,204,175,152,111,100,92,84,77,76,76,75,75,74,68,66,63],"timestamp_mouse":[26,47,56,77,96,116,136,156,176,196,216,236,256,276,298,317,336,356,377,397,416,436,458,477,496,517,537,557,577,597,617,637,657,677,697,717,738,756,777,796,816,837,857,877,898,916,937,956,976,996,1016,1036,1056,1077,1096,1118,1137,1157,1176,1196,1218,1237,1256,1277,1298,1317,1337,1356,1376,1397,1416,1437,1456,1476,1497,1517,1537,1557,1576,1597,1617,1637,1656,1677,1696,1716,1736,1756,1777,1796,1818,1837,1857,1877,1896,1917,1936,1957,1976],"xSR":741.5,"ySR":501.8,"xT1":424.9,"yT1":0,"xT2":1058.1,"yT2":0,"toosoon":0,"cond_shown":"Congruent","ratio_trial":200,"L_num":7,"L_den":15,"R_num":18,"R_den":27,"correct_side":2,"subjID":"marian alape matiz 2","gender":"1","school":"6","age":"11"},{"start_time":1551789975157,"click_time":1551789986025,"finger_time":1551789982663,"fix_duration":771.5770316521596,"trial":3,"RT":7506,"MT":3362,"sideResp":2,"stimulus":[],"xmouse":[794,794,794,794,794,794,794,794,794,794,794,794,794,794,794,794,794,794,794,794,794,794,794,794,794,794,794,794,794,794,794,794,794,794,794,794,794,794,794,794,794,794,794,794,794,794,794,794,794,794,794,794,794,794,794,794,794,794,794,794,794,794,794,794,794,794,794,794,794,794,794,794,794,794,794,794,794,794,794,794,794,794,794,794,794,794,794,794,794,794,794,794,794,794,794,794,794,794,794,794,794,794,794,794,794,794,794,794,794,794,794,794,794,794,794,794,794,794,794,794,794,794,794,794,794,794,794,794,794,794,794,794,794,794,794,794,794,794,794,794,794,794,794,794,794,794,794,794,794,794,794,794,794,794,794,794,794,794,794,794,794,794,794,794,794,794,794,794,794,794,794,794,794,794,794,794,794,794,794,794,794,794,794,794,794,794,794,794,794,794,794,794,794,794,794,794,794,794,794,794,794,794,794,794,794,794,794,794,794,794,794,794,794,794,794,794,794,794,794,794,794,794,794,794,794,794,794,794,794,794,794,794,794,794,794,794,794,794,794,794,794,794,794,794,794,794,794,794,794,794,794,794,794,794,794,794,794,794,794,794,794,794,794,794,794,794,794,794,794,794,794,794,794,794,794,794,794,794,794,794,794,794,794,794,794,794,794,794,794,794,794,794,794,794,794,794,794,794,794,794,794,794,794,794,794,794,794,794,794,794,794,794,794,794,794,795,796,796,796,796,796,796,796,796,796,796,796,796,796,796,796,796,795,794,792,790,784,783,780,778,776,772,771,770,769,768,766,765,765,764,763,763,763,763,763,763,763,763,763,763,763,763,763,763,763,763,763,764,766,766,767,767,767,767,767,767,767,767,767,767,769,779,786,790,793,794,794,794,794,795,795,795,795,795,795,794,791,786,779,772,761,760,760,763,770,798,825,858,897,937,990,1046,1067,1079,1088,1098,1121,1131,1140,1147,1161,1169,1174,1178,1182,1184,1185,1186,1187,1188,1191,1191,1191,1192,1193,1193,1193,1193,1193,1192,1192,1189,1188,1187,1185,1183,1180,1176,1171,1167,1161,1145,1137,1126,1115,1102,1090,1089,1089,1089,1100,1115,1129,1141,1154,1165,1189,1194,1196,1196,1196,1196,1196,1196,1196,1196,1196,1196,1196,1191,1173,1057,1057,1057,1057,1057,1057,1057,1057,1057,1057,1057,1057,1057,1057,1057,0,0,0,0,0,0,0,0,0,0,0,0,0,4,14,131,226,365,509,664,939,1048,1122,1167,1198,1240,1258,1282,1310,1342,1410,1442,1465,1487,1497,1501,1500,1494,1486,1476,1447,1424,1399,1365,1332,1238,1197,1156],"ymouse":[511,511,511,511,511,511,511,511,511,511,511,511,511,511,511,511,511,511,511,511,511,511,511,511,511,511,511,511,511,511,511,511,511,511,511,511,511,511,511,511,511,511,511,511,511,511,511,511,511,511,511,511,511,511,511,511,511,511,511,511,511,511,511,511,511,511,511,511,511,511,511,511,511,511,511,511,511,511,511,511,511,511,511,511,511,511,511,511,511,511,511,511,511,511,511,511,511,511,511,511,511,511,511,511,511,511,511,511,511,511,511,511,511,511,511,511,511,511,511,511,511,511,511,511,511,511,511,511,511,511,511,511,511,511,511,511,511,511,511,511,511,511,511,511,511,511,511,511,511,511,511,511,511,511,511,511,511,511,511,511,511,511,511,511,511,511,511,511,511,511,511,511,511,511,511,511,511,511,511,511,511,511,511,511,511,511,511,511,511,511,511,511,511,511,511,511,511,511,511,511,511,511,511,511,511,511,511,511,511,511,511,511,511,511,511,511,511,511,511,511,511,511,511,511,511,511,511,511,511,511,511,511,511,511,511,511,511,511,511,511,511,511,511,511,511,511,511,511,511,511,511,511,511,511,511,511,511,511,511,511,511,511,511,511,511,511,511,511,511,511,511,511,511,511,511,511,511,511,511,511,511,511,511,511,511,511,511,511,511,511,511,511,511,511,511,511,511,511,511,511,511,511,511,511,511,511,511,511,511,511,511,511,511,513,516,520,523,524,525,526,529,531,534,535,536,538,541,542,544,545,545,546,548,549,550,551,553,553,553,553,553,554,554,554,554,554,554,554,553,553,552,551,550,550,549,548,546,544,543,542,541,538,536,534,532,528,527,525,523,521,518,516,513,509,505,501,495,493,491,490,493,511,524,534,540,543,548,549,550,550,550,550,550,550,550,550,546,544,541,536,526,519,514,505,494,465,451,437,432,430,430,430,429,427,427,427,424,422,420,416,407,400,396,394,391,390,389,388,387,386,384,383,383,383,383,383,383,383,383,383,383,383,383,383,383,383,381,379,376,373,368,350,339,322,306,287,258,243,228,216,184,159,147,136,122,114,101,99,99,99,99,99,99,99,99,99,99,99,98,93,75,5,5,5,5,5,5,5,5,5,5,5,5,5,5,5,0,3,8,11,22,25,28,32,37,43,53,59,63,69,79,123,147,167,195,210,219,219,219,219,211,196,192,190,190,190,191,191,191,191,189,179,173,166,160,153,139,127,115,103,91,57,47,36],"timestamp_mouse":[8,26,46,68,86,106,127,147,166,187,207,228,247,267,287,307,326,346,368,387,407,427,446,467,486,508,526,547,568,587,606,627,646,667,687,707,726,747,767,786,807,827,847,866,886,907,927,947,968,987,1008,1026,1046,1067,1086,1108,1126,1148,1166,1186,1207,1226,1247,1266,1286,1308,1327,1346,1367,1386,1407,1426,1447,1466,1488,1506,1528,1547,1566,1587,1606,1627,1646,1666,1686,1707,1727,1748,1767,1787,1807,1826,1847,1866,1886,1906,1928,1947,1967,1987,2006,2027,2046,2067,2087,2107,2127,2148,2166,2187,2206,2226,2248,2267,2288,2308,2328,2346,2367,2386,2407,2426,2448,2467,2487,2507,2526,2547,2567,2586,2606,2626,2646,2667,2688,2706,2726,2747,2766,2786,2806,2826,2848,2866,2886,2907,2926,2947,2966,2986,3006,3028,3047,3068,3086,3106,3128,3146,3167,3187,3208,3227,3246,3266,3286,3307,3326,3346,3367,3386,3408,3426,3446,3467,3487,3506,3526,3546,3567,3586,3608,3626,3646,3666,3686,3707,3726,3746,3767,3786,3807,3827,3847,3866,3887,3906,3926,3947,3967,3986,4006,4026,4047,4067,4087,4106,4128,4146,4167,4186,4206,4226,4247,4267,4288,4306,4328,4347,4367,4387,4407,4427,4446,4467,4486,4507,4528,4547,4566,4587,4607,4626,4646,4666,4686,4708,4726,4746,4767,4787,4806,4826,4847,4867,4886,4906,4926,4947,4967,4986,5007,5026,5047,5067,5086,5107,5126,5146,5166,5188,5207,5226,5247,5266,5287,5306,5327,5346,5366,5387,5406,5427,5446,5466,5487,5506,5527,5546,5566,5586,5607,5627,5646,5666,5687,5707,5728,5747,5767,5787,5807,5827,5846,5866,5887,5907,5926,5947,5967,5986,6006,6027,6046,6066,6086,6107,6127,6147,6167,6187,6207,6228,6246,6267,6286,6307,6328,6346,6366,6386,6407,6426,6447,6466,6487,6507,6527,6547,6566,6588,6607,6628,6646,6666,6686,6707,6727,6747,6767,6786,6807,6827,6846,6866,6886,6906,6926,6946,6967,6986,7006,7026,7047,7066,7086,7108,7126,7146,7166,7187,7207,7227,7246,7268,7286,7307,7326,7347,7366,7386,7407,7427,7446,7467,7486,7506,7527,7546,7566,7586,7608,7626,7646,7666,7688,7707,7727,7747,7766,7786,7808,7827,7848,7867,7888,7906,7926,7947,7967,7986,8007,8026,8047,8066,8087,8107,8126,8147,8167,8186,8207,8228,8246,8267,8288,8306,8326,8346,8368,8387,8407,8426,8446,8467,8486,8507,8526,8546,8567,8587,8607,8626,8646,8666,8686,8707,8726,8746,8767,8787,8807,8826,8847,8867,8886,8906,8926,8946,8966,8988,9007,9027,9047,9067,9087,9107,9127,9146,9166,9186,9207,9226,9247,9267,9287,9306,9326,9347,9367,9387,9406,9427,9448,9467,9487,9507,9526,9547,9567,9586,9606,9627,9647,9667,9687,9707,9726,9746,9766,9786,9806,9827,9847,9866,9887,9907,9926,9946,9967,9986,10008,10026,10047,10067,10087,10107,10126,10146,10167,10187,10206,10226,10247,10267,10288,10307,10326,10347,10366,10387,10407,10427,10446,10466,10486,10507,10527,10548,10566,10586,10606,10627,10646,10666,10686,10706,10727,10746,10767,10787,10806,10826,10847,10868],"xSR":741.5,"ySR":501.8,"xT1":424.9,"yT1":0,"xT2":1058.1,"yT2":0,"toosoon":0,"cond_shown":"Incongruent","ratio_trial":100,"L_num":2,"L_den":4,"R_num":8,"R_den":20,"correct_side":1,"subjID":"marian alape matiz 2","gender":"1","school":"6","age":"11"},{"start_time":1551789990304,"click_time":1551789992364,"finger_time":1551789991803,"fix_duration":1138.0883812210316,"trial":4,"RT":1499,"MT":561,"sideResp":2,"stimulus":[],"xmouse":[779,779,779,779,779,779,779,779,779,779,779,779,779,779,779,779,779,779,779,779,779,779,779,779,779,779,779,779,779,779,779,779,779,779,779,779,779,779,779,779,778,778,778,778,778,778,778,778,778,778,778,778,778,778,778,778,778,778,778,778,778,778,778,778,778,778,778,778,778,778,778,779,782,791,803,812,821,830,837,848,852,858,866,895,950,998,1060,1123,1174,1233,1243,1248,1252,1252,1251,1249,1246,1241,1227,1220,1207,1192,1173,1157],"ymouse":[558,558,558,558,558,558,558,558,558,558,558,558,558,558,558,558,558,558,558,558,558,558,558,558,558,558,558,558,558,558,558,558,558,558,558,558,558,558,557,556,555,554,553,552,551,551,551,551,551,551,551,551,551,551,551,551,551,551,551,551,551,551,551,551,551,551,551,551,551,550,550,548,545,531,507,488,471,456,443,424,410,395,386,358,341,323,291,255,225,200,192,182,175,169,153,146,139,132,120,115,107,98,86,79],"timestamp_mouse":[1,21,43,59,81,100,120,139,159,179,199,219,241,260,280,299,321,340,359,379,399,419,439,461,480,500,520,540,559,581,599,619,640,659,679,699,721,739,760,780,800,820,839,859,879,899,919,940,960,980,999,1020,1039,1059,1080,1099,1120,1139,1159,1180,1200,1220,1240,1261,1281,1299,1320,1340,1360,1379,1400,1420,1440,1460,1479,1499,1519,1541,1559,1579,1600,1620,1640,1660,1679,1700,1720,1741,1759,1779,1799,1820,1840,1860,1879,1899,1919,1940,1961,1979,1999,2020,2039,2060],"xSR":741.5,"ySR":501.8,"xT1":424.9,"yT1":0,"xT2":1058.1,"yT2":0,"toosoon":0,"cond_shown":"Incongruent","ratio_trial":300,"L_num":4,"L_den":20,"R_num":2,"R_den":4,"correct_side":2,"subjID":"marian alape matiz 2","gender":"1","school":"6","age":"11"},{"start_time":1551789993936,"click_time":1551789995623,"finger_time":1551789995144,"fix_duration":250,"trial":5,"RT":1208,"MT":479,"sideResp":2,"stimulus":[],"xmouse":[765,765,765,765,765,766,769,771,771,772,772,773,773,773,774,774,774,774,774,774,774,774,774,774,774,774,774,774,774,774,774,774,774,773,773,773,773,773,773,773,773,773,773,773,773,773,773,773,773,773,773,773,773,773,773,774,777,788,804,824,844,889,930,956,975,996,1014,1045,1064,1078,1094,1109,1136,1145,1147,1148,1148,1147,1143,1137,1133,1128,1116,1115,1114],"ymouse":[571,571,571,571,571,571,571,570,569,569,568,568,566,565,564,563,563,563,563,563,563,563,563,563,563,563,563,563,563,563,563,563,563,563,563,562,562,561,561,561,561,561,561,561,561,561,561,561,561,561,561,561,561,561,558,558,555,543,526,506,488,455,429,412,394,372,354,320,299,281,262,242,195,182,172,165,154,148,142,136,130,122,105,101,94],"timestamp_mouse":[11,27,52,67,89,107,128,148,168,188,207,227,247,267,287,309,327,349,368,387,408,427,447,467,488,507,528,548,567,589,608,627,648,667,688,708,728,748,767,787,807,827,848,867,888,908,929,948,967,987,1007,1028,1047,1067,1087,1107,1127,1148,1167,1187,1208,1229,1247,1267,1288,1308,1328,1347,1367,1388,1408,1428,1447,1467,1488,1507,1528,1547,1567,1588,1608,1629,1647,1667,1687],"xSR":741.5,"ySR":501.8,"xT1":424.9,"yT1":0,"xT2":1058.1,"yT2":0,"toosoon":0,"cond_shown":"Congruent","ratio_trial":300,"L_num":5,"L_den":25,"R_num":6,"R_den":12,"correct_side":2,"subjID":"marian alape matiz 2","gender":"1","school":"6","age":"11"},{"start_time":1551789998122,"click_time":1551790010985,"finger_time":1551790004103,"fix_duration":796.2724508017942,"trial":6,"RT":5981,"MT":6882,"sideResp":1,"stimulus":[],"xmouse":[784,784,784,784,784,784,784,784,784,784,784,784,784,784,784,784,784,784,784,784,784,784,784,784,784,784,784,784,784,784,784,784,784,784,784,784,784,784,784,784,784,784,784,784,784,784,784,784,784,784,784,784,784,784,784,784,784,784,784,784,784,784,784,784,784,784,784,784,784,784,784,784,784,784,784,784,784,784,784,784,784,784,784,784,784,784,784,784,784,784,784,784,784,784,784,784,784,784,784,784,784,784,784,784,784,784,784,784,784,784,784,784,784,784,784,784,784,784,784,784,784,784,784,784,784,784,784,784,784,784,784,784,784,784,784,784,784,784,784,784,784,784,784,784,784,784,784,784,784,784,784,784,784,784,784,784,784,784,784,784,784,784,784,784,784,784,784,784,784,784,784,784,784,784,784,784,784,784,784,784,784,784,784,784,784,784,784,784,784,784,784,784,784,784,784,784,784,784,784,784,784,784,784,784,784,784,784,784,784,784,784,784,784,784,784,784,784,784,784,784,784,784,784,784,784,784,784,784,784,784,784,784,784,784,784,784,784,784,784,784,784,784,784,784,784,784,784,784,784,784,784,784,783,779,778,777,775,772,770,770,769,769,769,769,770,771,772,778,779,781,782,784,786,787,789,791,792,796,796,796,792,787,772,770,770,770,770,770,769,769,769,770,771,771,771,769,768,757,749,739,735,734,734,741,748,755,762,765,766,766,766,762,755,704,694,692,692,693,699,706,710,715,721,723,724,724,727,736,779,800,817,829,836,836,836,836,835,833,830,824,822,820,818,817,817,816,815,814,813,812,811,810,809,808,807,807,806,806,806,806,805,805,805,805,805,804,803,802,801,801,800,798,797,794,793,792,792,792,792,792,791,791,791,790,789,788,787,787,787,787,786,786,785,777,774,770,768,766,764,764,764,764,764,764,764,764,764,764,765,767,768,769,770,772,773,774,776,777,779,779,780,782,783,785,785,785,785,785,785,786,786,786,786,786,786,786,786,786,786,786,786,786,786,786,786,786,786,786,786,786,786,786,786,786,786,786,786,786,786,786,786,786,786,786,786,786,786,786,786,786,786,786,786,786,786,786,786,786,786,786,786,786,786,786,786,786,786,786,786,786,786,786,786,786,786,786,786,786,786,786,786,785,784,781,780,780,780,785,795,820,881,1000,1147,1509,1509,1509,1509,1509,1509,1509,1509,1509,1509,1509,1509,1509,1574,1565,1546,1538,1529,1524,1516,1512,1509,1507,1504,1499,1490,1485,1483,1481,1479,1475,1475,1475,1474,1474,1474,1474,1474,1475,1485,1492,1501,1514,1530,1547,1560,1561,1561,1562,1564,1566,1567,1567,1567,1567,1548,1523,1481,1407,1196,763,606,606,606,606,606,606,606,606,606,606,606,606,606,606,606,606,606,606,606,606,606,606,606,606,606,606,606,606,606,853,864,879,893,914,920,921,921,919,914,874,844,804,758,674,674,674,674,674,674,674,674,674,674,674,674,674,674,674,674,674,674,674,674,674,674,674,674,674,674,425],"ymouse":[525,525,525,525,525,525,525,525,525,525,525,525,525,525,525,525,525,525,525,525,525,525,525,525,525,525,525,525,525,525,525,525,525,525,525,525,525,525,525,525,525,525,525,525,525,525,525,525,525,525,525,525,525,525,525,525,525,525,525,525,525,525,525,525,525,525,525,525,525,525,525,525,525,525,525,525,525,525,525,525,525,525,525,525,525,525,525,525,525,525,525,525,525,525,525,525,525,525,525,525,525,525,525,525,525,525,525,525,525,525,525,525,525,525,525,525,525,525,525,525,525,525,525,525,525,525,525,525,525,525,525,525,525,525,525,525,525,525,525,525,525,525,525,525,525,525,525,525,525,525,525,525,525,525,525,525,525,525,525,525,525,525,525,525,525,525,525,525,525,525,525,525,525,525,525,525,525,525,525,525,525,525,525,525,525,525,525,525,525,525,525,525,525,525,525,525,525,525,525,525,525,525,525,525,525,525,525,525,525,525,525,525,525,525,525,525,525,525,525,525,525,525,525,525,525,525,525,525,525,525,525,525,525,525,525,525,525,525,525,525,525,525,525,525,525,525,525,525,525,525,525,526,528,532,535,536,539,545,547,549,552,554,555,557,558,560,561,567,569,571,573,573,573,573,573,573,572,567,563,556,546,540,532,531,531,531,531,531,531,531,532,533,534,534,534,534,534,536,538,538,540,540,540,540,541,541,543,543,543,543,543,543,541,524,522,522,522,522,523,525,526,527,530,530,530,530,531,536,552,558,560,561,562,562,562,562,562,562,561,559,559,558,557,557,557,557,557,557,557,557,556,556,555,552,551,550,548,546,546,546,546,545,545,545,545,543,543,543,543,543,543,543,543,543,543,543,543,543,550,554,556,559,564,567,569,571,572,572,572,573,573,573,573,573,573,573,573,573,573,573,573,573,573,573,573,573,573,573,573,573,573,573,573,573,572,572,572,572,571,570,570,569,569,568,567,567,567,567,567,567,567,567,567,567,567,567,567,567,567,567,567,567,567,567,567,567,567,567,567,567,567,567,567,567,567,567,567,567,567,567,567,567,567,567,567,567,567,567,567,567,567,567,567,567,567,567,567,567,567,567,567,567,567,567,567,567,567,567,567,567,567,567,567,567,567,567,567,567,567,567,568,569,570,572,572,572,572,569,565,556,534,494,451,403,403,403,403,403,403,403,403,403,403,403,403,403,371,369,365,361,359,355,349,345,341,336,329,319,296,289,283,281,277,272,270,269,267,266,266,265,265,264,257,254,244,229,211,193,174,172,171,168,163,160,157,154,151,147,132,121,104,85,53,16,6,6,6,6,6,6,6,6,6,6,6,6,6,6,6,6,6,6,6,6,6,6,6,6,6,6,6,6,6,4,6,10,16,24,27,28,29,30,30,30,27,22,15,2,2,2,2,2,2,2,2,2,2,2,2,2,2,2,2,2,2,2,2,2,2,2,2,2,2,3],"timestamp_mouse":[8,21,48,61,82,101,121,142,161,182,201,222,241,262,281,301,322,342,361,382,401,421,441,461,483,502,523,542,561,582,602,621,642,661,681,702,722,742,761,781,802,821,842,863,882,902,922,941,962,983,1001,1022,1041,1061,1081,1102,1122,1142,1161,1182,1202,1222,1241,1263,1282,1301,1323,1342,1361,1381,1401,1421,1441,1461,1481,1502,1522,1541,1561,1581,1601,1623,1641,1661,1682,1701,1723,1742,1762,1781,1801,1822,1842,1862,1882,1901,1921,1943,1961,1981,2001,2022,2041,2063,2081,2101,2121,2142,2161,2182,2202,2222,2241,2261,2281,2302,2321,2341,2362,2381,2403,2421,2442,2461,2482,2501,2521,2541,2561,2581,2601,2622,2643,2661,2683,2702,2722,2741,2762,2781,2802,2821,2842,2861,2882,2901,2922,2941,2963,2982,3002,3023,3042,3062,3081,3102,3123,3141,3162,3182,3201,3222,3243,3261,3281,3303,3321,3341,3361,3382,3403,3422,3442,3461,3481,3502,3521,3543,3561,3581,3601,3623,3641,3662,3681,3703,3721,3743,3763,3781,3803,3821,3842,3862,3882,3901,3923,3942,3962,3981,4002,4021,4042,4062,4081,4101,4123,4142,4163,4181,4202,4221,4241,4262,4281,4301,4322,4341,4361,4381,4401,4421,4441,4462,4481,4502,4522,4542,4561,4582,4601,4621,4641,4661,4683,4701,4721,4741,4761,4783,4802,4821,4841,4862,4882,4901,4921,4941,4963,4982,5001,5022,5042,5061,5081,5101,5122,5142,5162,5182,5202,5221,5241,5262,5281,5302,5321,5342,5362,5381,5402,5422,5442,5462,5482,5502,5522,5542,5562,5581,5602,5621,5643,5661,5681,5702,5721,5741,5761,5781,5802,5821,5841,5861,5883,5901,5921,5942,5961,5981,6002,6021,6042,6061,6081,6103,6122,6141,6161,6183,6202,6221,6242,6261,6284,6303,6322,6344,6363,6383,6402,6423,6444,6462,6483,6503,6523,6542,6563,6584,6604,6623,6642,6662,6683,6703,6724,6743,6763,6783,6803,6823,6842,6862,6884,6904,6924,6943,6963,6982,7004,7023,7042,7063,7083,7102,7124,7144,7162,7183,7203,7223,7244,7263,7284,7303,7322,7343,7363,7382,7403,7424,7443,7464,7483,7503,7523,7543,7563,7583,7604,7623,7643,7664,7683,7703,7722,7744,7762,7783,7804,7823,7843,7864,7883,7902,7923,7942,7963,7982,8002,8023,8044,8064,8082,8103,8123,8143,8163,8183,8204,8223,8242,8263,8283,8303,8323,8343,8364,8383,8404,8423,8443,8463,8482,8503,8522,8543,8563,8583,8602,8624,8642,8664,8684,8704,8723,8743,8763,8783,8802,8822,8842,8862,8883,8903,8923,8943,8963,8983,9003,9023,9044,9063,9084,9103,9123,9142,9162,9182,9202,9222,9242,9262,9283,9302,9324,9343,9362,9383,9403,9423,9443,9464,9483,9503,9523,9544,9563,9583,9602,9622,9644,9664,9683,9703,9724,9743,9763,9783,9804,9823,9844,9863,9883,9904,9923,9944,9963,9983,10002,10023,10044,10062,10083,10104,10123,10144,10163,10183,10204,10224,10243,10262,10284,10303,10322,10342,10363,10383,10402,10423,10443,10462,10484,10502,10523,10543,10563,10582,10602,10624,10644,10663,10683,10702,10724,10743,10762,10783,10804,10823,10842,10863,10884,10902,10923,10944,10963,10984,11003,11024,11044,11062,11082,11103,11123,11143,11163,11182,11203,11222,11244,11262,11283,11303,11322,11342,11363,11383,11403,11424,11443,11462,11483,11503,11522,11542,11562,11583,11603,11623,11642,11663,11682,11702,11723,11744,11764,11783,11803,11823,11844,11864,11883,11902,11922,11943,11963,11983,12002,12024,12043,12064,12083,12104,12124,12144,12163,12182,12203,12223,12243,12264,12282,12302,12323,12344,12362,12382,12404,12423,12444,12463,12482,12502,12523,12543,12562,12583,12603,12623,12643,12664,12683,12702,12722,12743,12763,12783,12802,12824,12843,12863],"xSR":741.5,"ySR":501.8,"xT1":424.9,"yT1":0,"xT2":1058.1,"yT2":0,"toosoon":0,"cond_shown":"Congruent","ratio_trial":200,"L_num":16,"L_den":20,"R_num":12,"R_den":20,"correct_side":1,"subjID":"marian alape matiz 2","gender":"1","school":"6","age":"11"},{"start_time":1551790013148,"click_time":1551790015145,"finger_time":1551790014565,"fix_duration":601.4453007912482,"trial":7,"RT":1417,"MT":580,"sideResp":1,"stimulus":[],"xmouse":[810,810,809,808,808,808,807,807,807,806,806,806,806,806,806,806,806,806,806,806,806,806,806,806,806,806,806,806,806,806,806,806,806,806,806,806,806,806,806,806,806,806,806,806,806,806,806,806,806,806,806,806,806,806,806,806,806,806,806,806,806,806,806,806,806,806,806,805,805,804,799,785,771,758,742,724,690,675,659,643,625,574,553,536,527,521,515,511,507,505,500,498,498,498,498,498,498,498,498,498],"ymouse":[524,524,524,524,524,524,524,524,524,524,524,524,524,524,524,524,524,524,524,524,524,524,524,524,524,524,524,524,524,524,524,524,524,524,524,524,524,524,524,524,524,524,524,524,524,524,524,524,524,523,523,522,522,522,522,522,522,522,522,521,520,518,516,515,513,510,508,507,505,504,497,475,452,423,391,355,289,265,246,226,208,172,158,147,140,137,132,128,126,123,119,115,114,112,110,105,104,102,100,98],"timestamp_mouse":[16,37,57,78,97,117,137,158,178,196,218,236,257,277,297,317,338,357,376,398,416,437,456,478,496,518,538,557,576,598,617,637,657,677,697,716,738,757,777,796,816,836,857,876,898,918,937,956,977,997,1017,1037,1057,1077,1098,1116,1137,1157,1177,1197,1218,1237,1257,1277,1297,1318,1337,1358,1377,1396,1417,1438,1456,1478,1498,1517,1537,1558,1578,1597,1618,1636,1657,1677,1698,1717,1736,1757,1776,1798,1817,1837,1856,1877,1897,1918,1936,1956,1976,1996],"xSR":741.5,"ySR":501.8,"xT1":424.9,"yT1":0,"xT2":1058.1,"yT2":0,"toosoon":0,"cond_shown":"Incongruent","ratio_trial":100,"L_num":3,"L_den":6,"R_num":4,"R_den":10,"correct_side":1,"subjID":"marian alape matiz 2","gender":"1","school":"6","age":"11"},{"start_time":1551790017950,"click_time":1551790019645,"finger_time":1551790018786,"fix_duration":1064.0119906798661,"trial":8,"RT":836,"MT":859,"sideResp":2,"stimulus":[],"xmouse":[770,770,770,770,770,770,770,770,770,770,770,770,770,769,769,769,769,769,769,769,769,769,769,769,768,768,768,768,768,768,768,768,769,769,769,770,770,771,774,781,814,843,861,881,895,908,926,929,934,938,947,987,1013,1034,1046,1057,1060,1060,1061,1062,1062,1063,1063,1063,1063,1063,1061,1058,1056,1056,1056,1058,1058,1058,1058,1058,1058,1058,1058,1058,1058,1058,1058,1058,1059],"ymouse":[535,535,535,535,535,535,535,535,535,535,535,535,535,535,535,535,535,535,535,535,535,535,535,536,536,537,537,538,539,540,540,542,542,543,543,544,544,544,544,542,525,506,490,472,452,431,390,372,349,327,290,246,225,208,200,191,187,187,184,182,177,174,172,168,162,155,141,131,121,114,110,102,101,100,99,99,98,98,98,97,96,94,94,93,92],"timestamp_mouse":[15,34,65,75,96,114,136,154,175,194,215,234,255,275,296,316,336,355,375,394,415,434,456,475,495,514,536,555,574,595,615,634,655,675,696,715,736,756,775,795,816,836,855,874,894,915,935,955,976,995,1015,1034,1054,1075,1096,1116,1135,1155,1174,1194,1216,1234,1255,1275,1295,1315,1335,1355,1375,1395,1415,1435,1455,1475,1495,1515,1534,1554,1574,1594,1615,1635,1655,1675,1695],"xSR":741.5,"ySR":501.8,"xT1":424.9,"yT1":0,"xT2":1058.1,"yT2":0,"toosoon":0,"cond_shown":"Incongruent","ratio_trial":100,"L_num":11,"L_den":22,"R_num":9,"R_den":15,"correct_side":2,"subjID":"marian alape matiz 2","gender":"1","school":"6","age":"11"},{"start_time":1551790023071,"click_time":1551790025385,"finger_time":1551790023584,"fix_duration":1485.3279914000116,"trial":9,"RT":513,"MT":1801,"sideResp":1,"stimulus":[],"xmouse":[779,779,779,779,779,779,779,779,779,779,779,779,779,779,779,779,780,781,785,787,792,793,795,797,798,805,808,810,814,815,815,815,815,815,815,815,815,815,815,815,815,815,815,815,815,815,815,814,814,814,812,810,806,802,794,785,780,774,772,770,768,768,768,768,768,768,768,768,768,769,769,770,771,772,774,776,777,779,780,781,779,770,755,742,722,674,657,643,628,615,593,585,579,576,572,567,566,561,556,543,539,534,532,531,526,524,523,522,521,521,520,519,517,513,509,502],"ymouse":[561,561,561,561,561,561,561,561,561,561,561,561,561,561,561,561,560,555,545,535,520,516,512,510,507,499,496,493,490,488,488,487,487,487,487,487,487,487,487,487,487,488,488,489,490,491,492,493,493,495,500,503,506,512,517,525,529,535,539,541,547,549,552,554,555,557,558,560,560,560,560,561,561,561,561,561,561,561,558,547,537,524,504,483,457,406,386,367,343,322,292,283,275,266,260,242,232,224,212,196,190,184,179,174,160,157,156,153,152,151,147,144,137,125,108,91],"timestamp_mouse":[14,42,55,73,94,114,133,154,174,193,213,234,255,274,293,314,334,354,375,393,415,433,454,475,495,513,535,555,573,595,614,634,654,675,694,714,734,754,773,795,814,835,854,873,893,915,934,953,973,994,1013,1035,1055,1074,1094,1114,1133,1154,1174,1194,1214,1235,1255,1274,1294,1315,1333,1355,1374,1393,1415,1434,1453,1473,1494,1514,1533,1555,1574,1594,1614,1634,1654,1674,1694,1713,1735,1754,1775,1794,1814,1834,1855,1874,1894,1913,1935,1955,1973,1995,2014,2033,2054,2075,2095,2113,2133,2154,2174,2195,2214,2235,2254,2275,2295,2314],"xSR":741.5,"ySR":501.8,"xT1":424.9,"yT1":0,"xT2":1058.1,"yT2":0,"toosoon":0,"cond_shown":"Congruent","ratio_trial":200,"L_num":16,"L_den":20,"R_num":12,"R_den":20,"correct_side":1,"subjID":"marian alape matiz 2","gender":"1","school":"6","age":"11"},{"start_time":1551790027529,"click_time":1551790029405,"finger_time":1551790028986,"fix_duration":941.8206645645747,"trial":10,"RT":1457,"MT":419,"sideResp":1,"stimulus":[],"xmouse":[786,786,786,786,786,786,786,786,786,786,786,786,786,786,786,786,786,786,786,786,786,786,786,786,786,786,786,786,786,786,786,786,786,786,786,786,786,786,786,786,786,786,786,786,786,786,786,786,786,786,786,786,786,786,786,786,786,786,786,786,786,786,786,786,786,786,786,786,784,784,773,754,707,700,700,700,700,692,679,664,645,608,598,585,574,556,513,490,466,455,446,439,435,432],"ymouse":[529,529,529,529,529,529,529,529,529,529,529,529,529,529,529,529,529,529,529,529,529,529,529,529,529,529,529,529,529,529,529,529,529,529,529,529,529,529,529,529,529,529,529,529,529,529,529,529,529,529,529,529,529,529,529,529,529,529,529,529,529,529,529,529,529,529,529,529,528,526,518,504,470,457,448,435,417,377,358,331,305,258,247,235,225,212,179,162,149,136,123,106,101,96],"timestamp_mouse":[16,48,56,76,96,116,135,157,177,197,215,236,256,277,295,317,336,357,375,396,415,436,456,476,495,516,535,557,575,596,615,637,656,676,696,715,737,757,776,796,817,836,856,877,895,915,936,956,976,996,1016,1036,1056,1076,1096,1117,1137,1157,1176,1195,1215,1235,1255,1275,1295,1315,1335,1355,1376,1397,1416,1437,1457,1477,1497,1516,1536,1555,1575,1597,1616,1637,1655,1676,1696,1717,1737,1755,1775,1796,1816,1837,1856,1876],"xSR":741.5,"ySR":501.8,"xT1":424.9,"yT1":0,"xT2":1058.1,"yT2":0,"toosoon":0,"cond_shown":"Congruent","ratio_trial":100,"L_num":15,"L_den":25,"R_num":13,"R_den":26,"correct_side":1,"subjID":"marian alape matiz 2","gender":"1","school":"6","age":"11"},{"start_time":1551790033083,"click_time":1551790034366,"finger_time":1551790033746,"fix_duration":1495.573396086563,"trial":11,"RT":663,"MT":620,"sideResp":2,"stimulus":[],"xmouse":[768,768,768,768,768,768,768,768,768,768,768,768,768,768,768,768,768,768,768,768,768,768,768,768,768,768,768,768,768,768,767,762,751,734,727,703,694,693,693,693,693,693,693,695,713,726,745,766,792,815,870,896,911,923,982,1039,1070,1092,1119,1153,1153,1153,1153,1152,1150],"ymouse":[557,557,557,557,557,557,557,557,557,557,557,557,557,557,557,557,557,557,557,557,557,557,557,557,557,557,557,557,557,557,557,557,556,543,536,512,506,505,505,505,505,505,504,504,503,502,494,477,462,443,411,397,387,375,325,276,250,234,213,162,142,129,114,102,90],"timestamp_mouse":[13,22,42,62,83,103,122,142,162,181,202,222,243,263,283,303,323,342,362,382,402,422,442,463,482,502,522,542,562,582,601,623,642,663,682,703,722,742,762,783,803,823,842,863,883,902,922,942,963,982,1002,1023,1042,1062,1083,1103,1121,1141,1161,1183,1202,1221,1242,1263,1283],"xSR":741.5,"ySR":501.8,"xT1":424.9,"yT1":0,"xT2":1058.1,"yT2":0,"toosoon":0,"cond_shown":"Congruent","ratio_trial":300,"L_num":11,"L_den":22,"R_num":2,"R_den":10,"correct_side":1,"subjID":"marian alape matiz 2","gender":"1","school":"6","age":"11"},{"start_time":1551790037419,"click_time":1551790039585,"finger_time":1551790039146,"fix_duration":1112.0350749442734,"trial":12,"RT":1727,"MT":439,"sideResp":1,"stimulus":[],"xmouse":[787,787,787,787,787,787,787,787,787,787,787,787,787,787,787,787,787,787,787,787,787,787,787,787,787,787,787,787,787,787,787,787,787,787,787,787,787,787,787,787,787,787,787,787,787,787,786,785,782,782,781,781,781,781,780,780,779,778,777,776,776,776,776,776,777,778,778,778,778,778,778,778,778,778,778,778,778,778,778,778,778,778,778,778,778,773,757,722,669,641,618,605,592,580,576,574,571,571,562,560,559,558,555,552,550,543,537,527,502],"ymouse":[573,573,573,573,573,573,573,573,573,573,573,573,573,573,573,573,573,573,573,573,573,573,573,573,573,573,573,573,573,573,573,573,573,573,573,573,573,573,573,573,573,573,573,573,573,573,573,573,573,572,572,572,572,572,570,569,568,566,562,562,561,561,561,561,561,561,561,561,561,561,561,561,561,561,561,561,561,561,561,561,561,561,560,554,544,526,496,428,321,268,215,174,145,112,102,95,88,82,69,65,64,64,60,59,59,57,56,55,55],"timestamp_mouse":[9,25,45,67,85,107,127,146,166,186,206,227,246,267,286,307,326,346,366,387,406,426,445,465,485,505,525,545,565,585,605,625,645,666,685,705,725,745,765,785,805,825,846,866,887,907,925,947,965,985,1006,1026,1047,1066,1086,1106,1125,1145,1165,1186,1205,1226,1245,1267,1287,1306,1327,1346,1367,1386,1406,1427,1447,1467,1487,1507,1527,1546,1567,1586,1606,1626,1646,1665,1686,1707,1727,1746,1767,1786,1807,1827,1846,1865,1887,1906,1926,1946,1967,1985,2006,2026,2047,2066,2086,2106,2126,2146,2166],"xSR":741.5,"ySR":501.8,"xT1":424.9,"yT1":0,"xT2":1058.1,"yT2":0,"toosoon":0,"cond_shown":"Congruent","ratio_trial":200,"L_num":1,"L_den":2,"R_num":21,"R_den":30,"correct_side":2,"subjID":"marian alape matiz 2","gender":"1","school":"6","age":"11"},{"start_time":1551790041889,"click_time":1551790043605,"finger_time":1551790043404,"fix_duration":863.4915624252859,"trial":13,"RT":1515,"MT":201,"sideResp":2,"stimulus":[],"xmouse":[778,778,778,778,778,778,778,778,778,778,778,778,778,778,778,778,778,778,778,778,778,778,778,778,778,778,778,778,778,778,778,778,778,778,778,778,778,778,778,778,778,778,778,778,778,778,778,778,778,778,778,778,778,778,778,778,778,778,778,778,778,778,775,773,770,768,767,767,766,766,765,765,766,801,833,879,939,994,1055,1124,1136,1142,1143,1143,1143,1143],"ymouse":[556,556,556,556,556,556,556,556,556,556,556,556,556,556,556,556,556,556,556,556,556,556,556,556,556,556,556,556,556,556,556,556,556,556,556,556,556,556,556,556,556,556,556,556,556,556,556,556,556,556,556,556,556,556,556,556,556,556,556,556,557,557,557,557,557,557,557,556,556,555,554,554,552,538,522,480,418,360,304,243,229,215,197,159,109,92],"timestamp_mouse":[16,35,55,75,95,115,135,155,175,196,215,235,255,275,295,316,335,355,375,395,417,436,456,477,497,517,537,556,577,596,616,636,656,676,696,716,736,756,776,796,816,836,856,876,896,917,936,956,976,996,1017,1036,1056,1077,1096,1116,1136,1156,1176,1196,1217,1235,1257,1277,1297,1315,1337,1357,1377,1395,1415,1436,1457,1476,1495,1515,1536,1555,1575,1595,1615,1635,1656,1675,1696,1716],"xSR":741.5,"ySR":501.8,"xT1":424.9,"yT1":0,"xT2":1058.1,"yT2":0,"toosoon":0,"cond_shown":"Congruent","ratio_trial":100,"L_num":7,"L_den":14,"R_num":9,"R_den":15,"correct_side":2,"subjID":"marian alape matiz 2","gender":"1","school":"6","age":"11"},{"start_time":1551790046127,"click_time":1551790048226,"finger_time":1551790047684,"fix_duration":841.0208754645113,"trial":14,"RT":1557,"MT":542,"sideResp":1,"stimulus":[],"xmouse":[811,811,811,811,811,811,811,811,811,811,811,811,811,811,811,811,811,811,811,811,811,811,811,811,811,811,811,811,811,811,811,811,811,811,811,811,811,811,811,811,811,811,811,811,811,811,811,811,811,811,811,811,811,811,811,811,811,811,811,811,811,811,811,811,811,811,811,811,811,811,811,811,811,809,805,799,796,793,788,784,774,753,720,700,683,664,650,627,616,606,602,596,586,577,569,560,553,543,541,540,538,537,528,525,522],"ymouse":[557,557,557,557,557,557,557,557,557,557,557,557,557,557,557,557,557,557,557,557,557,557,557,557,557,557,557,557,557,557,557,557,557,557,557,557,557,557,557,557,557,557,557,557,557,557,557,557,557,557,557,557,557,557,557,557,557,557,557,557,557,557,557,557,557,557,557,557,557,557,557,557,557,555,547,540,526,478,448,417,382,329,265,231,202,176,149,105,88,76,69,63,53,48,43,38,35,31,31,30,30,30,31,32,34],"timestamp_mouse":[23,38,59,79,99,118,138,158,178,198,218,238,258,278,298,318,338,359,378,398,418,438,458,478,498,518,538,559,578,598,618,638,658,678,698,717,737,757,777,797,817,837,857,877,897,917,937,957,977,997,1017,1037,1057,1078,1097,1117,1137,1158,1177,1197,1217,1237,1257,1277,1297,1317,1337,1358,1377,1397,1417,1439,1459,1477,1498,1518,1538,1557,1579,1598,1618,1638,1658,1678,1699,1719,1738,1757,1778,1798,1819,1838,1859,1877,1899,1919,1939,1957,1978,2003,2019,2038,2058,2077,2099],"xSR":741.5,"ySR":501.8,"xT1":424.9,"yT1":0,"xT2":1058.1,"yT2":0,"toosoon":0,"cond_shown":"Congruent","ratio_trial":100,"L_num":8,"L_den":16,"R_num":2,"R_den":5,"correct_side":1,"subjID":"marian alape matiz 2","gender":"1","school":"6","age":"11"},{"start_time":1551790050316,"click_time":1551790052265,"finger_time":1551790051966,"fix_duration":511.5128687597045,"trial":15,"RT":1650,"MT":299,"sideResp":2,"stimulus":[],"xmouse":[810,810,810,810,810,810,810,810,810,810,810,810,810,810,810,810,810,810,810,810,810,810,810,810,810,810,810,810,810,810,810,810,810,810,810,810,810,810,810,810,810,810,810,810,810,810,810,810,810,810,810,810,810,810,810,810,810,810,810,810,810,810,810,810,810,810,810,810,810,810,810,810,810,810,810,810,810,810,810,811,814,820,836,863,876,895,916,934,971,990,1013,1041,1063,1098,1110,1122,1131,1149],"ymouse":[524,524,524,524,524,524,524,524,524,524,524,524,524,524,524,524,524,524,524,524,524,524,524,524,524,524,524,524,524,524,524,524,524,524,524,524,524,524,524,524,524,524,524,524,524,524,524,524,524,524,524,524,524,524,524,524,524,524,524,524,524,524,524,524,524,524,524,524,524,524,524,524,524,524,524,524,524,524,523,520,517,511,494,457,434,407,377,341,274,245,217,183,163,134,123,109,100,79],"timestamp_mouse":[9,29,50,68,88,108,128,148,168,188,208,228,248,269,288,308,328,348,368,388,408,428,448,468,488,508,528,548,569,588,608,628,648,669,688,708,730,749,769,790,810,830,849,869,889,909,929,949,969,989,1010,1029,1049,1069,1089,1109,1129,1149,1169,1189,1209,1229,1249,1269,1290,1309,1329,1349,1369,1390,1409,1429,1449,1469,1489,1509,1529,1549,1568,1589,1610,1630,1650,1669,1688,1708,1728,1750,1768,1788,1809,1829,1848,1869,1889,1909,1928,1949],"xSR":741.5,"ySR":501.8,"xT1":424.9,"yT1":0,"xT2":1058.1,"yT2":0,"toosoon":0,"cond_shown":"Congruent","ratio_trial":200,"L_num":7,"L_den":15,"R_num":18,"R_den":27,"correct_side":2,"subjID":"marian alape matiz 2","gender":"1","school":"6","age":"11"},{"start_time":1551790055637,"click_time":1551790061986,"finger_time":1551790061305,"fix_duration":250,"trial":16,"RT":5668,"MT":681,"sideResp":1,"stimulus":[],"xmouse":[799,799,799,799,799,799,799,799,799,799,799,799,799,799,799,799,799,799,799,799,799,799,799,799,799,799,799,799,799,799,799,799,799,799,799,799,799,799,799,799,799,799,799,799,799,799,799,799,799,799,799,799,799,799,799,799,799,799,799,799,799,799,799,799,799,799,799,799,799,799,799,799,799,799,799,799,799,799,799,799,799,799,799,799,799,799,799,799,799,799,799,799,799,799,799,799,799,799,799,799,799,799,799,799,799,799,799,799,799,799,799,799,799,799,799,799,799,799,799,799,799,799,799,799,799,799,799,799,799,799,799,799,799,799,799,799,799,799,799,799,799,799,799,799,799,799,799,799,799,799,799,799,799,799,799,799,799,799,799,799,799,799,799,799,799,799,799,799,799,799,799,799,799,799,799,799,799,799,799,799,799,799,799,799,799,799,799,799,799,799,799,799,799,799,799,799,799,799,799,799,799,799,799,799,799,799,799,799,799,799,799,799,799,799,799,799,799,799,799,799,799,799,799,799,799,799,799,799,799,799,799,799,799,799,799,799,799,799,799,799,799,799,799,799,799,799,799,799,799,799,799,799,799,799,799,799,799,799,799,799,799,799,799,799,799,799,799,799,799,799,799,799,799,799,799,799,799,799,799,799,799,791,786,775,761,746,717,670,638,605,578,555,519,503,486,472,460,445,439,430,424,422,422,422,423,423,430,436,443,450,455,461,465,467,467,469,469,470],"ymouse":[535,535,535,535,535,535,535,535,535,535,535,535,535,535,535,535,535,535,535,535,535,535,535,535,535,535,535,535,535,535,535,535,535,535,535,535,535,535,535,535,535,535,535,535,535,535,535,535,535,535,535,535,535,535,535,535,535,535,535,535,535,535,535,535,535,535,535,535,535,535,535,535,535,535,535,535,535,535,535,535,535,535,535,535,535,535,535,535,535,535,535,535,535,535,535,535,535,535,535,535,535,535,535,535,535,535,535,535,535,535,535,535,535,535,535,535,535,535,535,535,535,535,535,535,535,535,535,535,535,535,535,535,535,535,535,535,535,535,535,535,535,535,535,535,535,535,535,535,535,535,535,535,535,535,535,535,535,535,535,535,535,535,535,535,535,535,535,535,535,535,535,535,535,535,535,535,535,535,535,535,535,535,535,535,535,535,535,535,535,535,535,535,535,535,535,535,535,535,535,535,535,535,535,535,535,535,535,535,535,535,535,535,535,535,535,535,535,535,535,535,535,535,535,535,535,535,535,535,535,535,535,535,535,535,535,535,535,535,535,535,535,535,535,535,535,535,535,535,535,535,535,535,535,535,535,535,535,535,535,535,535,535,535,535,535,535,535,535,535,535,535,535,535,535,535,535,535,535,535,535,535,523,510,497,478,452,419,381,364,348,336,323,293,273,249,224,200,169,148,131,117,108,105,105,105,105,105,105,103,102,102,101,100,100,100,100,100,99],"timestamp_mouse":[7,27,47,67,87,107,127,147,167,188,207,227,247,267,287,307,327,347,367,387,407,428,447,468,487,507,527,547,567,587,609,629,649,669,689,709,729,749,769,788,808,828,848,868,888,908,928,948,968,988,1009,1028,1048,1068,1088,1108,1128,1148,1168,1188,1208,1228,1248,1268,1289,1308,1328,1348,1368,1388,1408,1428,1448,1468,1488,1508,1528,1548,1568,1588,1607,1627,1647,1667,1687,1707,1728,1747,1767,1787,1807,1827,1847,1867,1887,1907,1927,1947,1967,1987,2007,2027,2047,2067,2087,2107,2127,2147,2167,2188,2207,2227,2247,2267,2287,2309,2328,2347,2369,2389,2409,2429,2449,2469,2488,2508,2528,2548,2568,2588,2608,2628,2648,2668,2688,2708,2728,2748,2768,2788,2808,2828,2848,2868,2888,2908,2929,2948,2968,2988,3008,3028,3049,3068,3088,3108,3128,3148,3168,3189,3208,3228,3248,3268,3288,3308,3328,3347,3367,3387,3409,3427,3447,3467,3487,3507,3527,3547,3567,3587,3607,3627,3647,3667,3687,3707,3727,3747,3767,3787,3807,3827,3847,3867,3887,3907,3927,3947,3968,3987,4007,4027,4047,4067,4089,4107,4129,4149,4169,4188,4208,4228,4248,4268,4289,4308,4328,4348,4368,4388,4408,4429,4449,4468,4489,4508,4528,4548,4568,4588,4608,4628,4648,4668,4688,4708,4728,4748,4768,4788,4808,4828,4848,4868,4888,4908,4928,4948,4968,4988,5009,5028,5048,5068,5087,5107,5127,5147,5167,5187,5207,5227,5247,5267,5287,5307,5327,5347,5367,5387,5408,5427,5447,5467,5487,5507,5527,5547,5567,5587,5607,5627,5647,5668,5688,5708,5728,5747,5767,5788,5807,5827,5847,5869,5888,5909,5928,5949,5967,5988,6009,6028,6048,6069,6089,6109,6129,6148,6167,6189,6209,6228,6247,6269,6288,6309,6328,6349],"xSR":741.5,"ySR":501.8,"xT1":424.9,"yT1":0,"xT2":1058.1,"yT2":0,"toosoon":0,"cond_shown":"Incongruent","ratio_trial":200,"L_num":14,"L_den":30,"R_num":12,"R_den":18,"correct_side":2,"subjID":"marian alape matiz 2","gender":"1","school":"6","age":"11"},{"start_time":1551790064827,"click_time":1551790068345,"finger_time":1551790067685,"fix_duration":1140.5438675507955,"trial":17,"RT":2858,"MT":660,"sideResp":2,"stimulus":[],"xmouse":[781,781,781,781,781,781,781,781,781,781,781,781,781,781,781,781,781,781,781,781,781,781,781,781,781,781,781,781,781,781,781,781,781,781,781,781,781,781,781,781,781,781,781,781,781,781,781,781,781,781,781,781,781,781,781,781,781,781,781,781,781,781,781,781,781,781,781,781,781,781,781,781,781,781,781,781,781,781,781,781,781,781,781,781,781,781,781,781,781,781,781,781,781,781,781,781,781,781,781,781,781,781,781,781,781,781,781,781,781,781,781,781,781,781,781,781,781,781,781,781,781,781,781,781,781,781,781,781,781,781,781,781,781,781,781,781,781,782,789,798,811,830,866,886,906,930,982,1061,1104,1142,1181,1234,1245,1251,1254,1255,1256,1256,1259,1262,1269,1276,1276,1267,1253,1234,1204,1194,1194,1194,1194,1194,1194,1194,1194,1141],"ymouse":[562,562,562,562,562,562,562,562,562,562,562,562,562,562,562,562,562,562,562,562,562,562,562,562,562,562,562,562,562,562,562,562,562,562,562,562,562,562,562,562,562,562,562,562,562,562,562,562,562,562,562,562,562,562,562,562,562,562,562,562,562,562,562,562,562,562,562,562,562,562,562,562,562,562,562,562,562,562,562,562,562,562,562,562,562,562,562,562,562,562,562,562,562,562,562,562,562,562,562,562,562,562,562,562,562,562,562,562,562,562,562,562,562,562,562,562,562,562,562,562,562,562,562,562,562,562,562,562,562,562,562,562,562,562,562,562,562,560,554,546,539,528,490,466,437,405,359,315,294,277,265,252,246,243,238,235,229,211,193,171,145,118,69,48,32,20,5,2,2,2,2,2,2,2,2,1],"timestamp_mouse":[19,38,58,80,100,120,140,160,179,199,220,240,260,278,298,318,339,358,379,400,419,438,458,478,498,518,538,558,578,598,618,639,658,678,698,718,738,758,778,798,818,838,858,878,898,919,938,958,978,998,1018,1038,1058,1078,1098,1118,1138,1158,1178,1198,1218,1238,1258,1278,1298,1318,1338,1358,1378,1398,1419,1438,1458,1479,1498,1518,1538,1558,1578,1599,1618,1638,1659,1678,1698,1718,1738,1758,1778,1798,1818,1838,1858,1880,1899,1919,1940,1960,1979,1998,2020,2039,2059,2078,2099,2118,2138,2159,2178,2198,2218,2238,2258,2278,2298,2319,2338,2358,2379,2398,2419,2438,2459,2478,2498,2518,2538,2558,2578,2598,2619,2638,2658,2678,2698,2718,2738,2758,2778,2799,2819,2838,2858,2879,2898,2918,2938,2958,2978,2999,3019,3039,3059,3078,3099,3119,3138,3159,3178,3199,3218,3238,3258,3278,3298,3318,3338,3358,3378,3399,3419,3438,3458,3478,3498,3518],"xSR":741.5,"ySR":501.8,"xT1":424.9,"yT1":0,"xT2":1058.1,"yT2":0,"toosoon":0,"cond_shown":"Congruent","ratio_trial":100,"L_num":2,"L_den":5,"R_num":6,"R_den":12,"correct_side":2,"subjID":"marian alape matiz 2","gender":"1","school":"6","age":"11"},{"start_time":1551790070277,"click_time":1551790072546,"finger_time":1551790071746,"fix_duration":250,"trial":18,"RT":1469,"MT":800,"sideResp":2,"stimulus":[],"xmouse":[818,818,818,818,818,818,818,818,818,818,818,818,818,818,818,818,818,818,818,818,818,818,818,818,818,818,818,818,818,818,818,818,818,818,818,818,818,818,818,818,818,818,818,818,818,818,818,818,818,818,818,818,818,818,818,818,818,818,818,818,818,818,818,818,818,818,818,818,818,818,818,820,826,856,880,937,967,999,1024,1052,1085,1097,1105,1115,1126,1137,1140,1142,1143,1144,1143,1142,1137,1135,1128,1128,1128,1128,1128,1128,1128,1128,1128,1128,1128,1128,1128,1128,1128,1128,1126,1126,1126,1125],"ymouse":[570,569,569,569,569,569,569,569,569,569,569,569,569,569,569,569,569,569,569,569,569,569,569,569,569,569,569,569,569,569,569,569,569,569,569,569,569,569,569,569,569,569,569,569,569,569,569,569,569,569,569,569,569,569,569,569,569,569,569,569,569,569,569,569,569,569,569,569,569,569,569,566,563,544,527,489,466,441,405,370,297,270,250,233,220,205,197,190,184,178,163,156,149,143,128,125,121,119,117,115,112,110,109,108,108,108,108,107,106,104,101,101,100,99],"timestamp_mouse":[8,28,49,68,88,108,128,148,168,188,208,228,248,268,288,308,328,349,368,388,408,428,448,468,488,508,528,548,568,588,608,628,648,669,688,709,728,748,768,788,808,828,848,868,889,908,928,948,968,988,1008,1029,1048,1068,1088,1108,1128,1148,1168,1188,1208,1229,1248,1268,1288,1308,1328,1348,1368,1388,1408,1428,1449,1469,1489,1508,1528,1548,1568,1588,1608,1629,1649,1669,1689,1708,1728,1749,1769,1789,1808,1829,1848,1868,1889,1909,1928,1949,1968,1989,2008,2028,2049,2068,2089,2109,2129,2148,2169,2188,2208,2228,2248,2269],"xSR":741.5,"ySR":501.8,"xT1":424.9,"yT1":0,"xT2":1058.1,"yT2":0,"toosoon":0,"cond_shown":"Incongruent","ratio_trial":300,"L_num":1,"L_den":2,"R_num":2,"R_den":10,"correct_side":1,"subjID":"marian alape matiz 2","gender":"1","school":"6","age":"11"},{"start_time":1551790075945,"click_time":1551790078125,"finger_time":1551790077846,"fix_duration":1459.5382008221268,"trial":19,"RT":1901,"MT":279,"sideResp":2,"stimulus":[],"xmouse":[810,810,810,810,810,810,810,810,810,810,810,810,810,810,810,810,810,810,810,810,810,810,810,810,810,810,810,810,810,810,810,810,810,810,810,810,810,810,810,810,810,810,810,810,810,810,810,810,810,810,810,810,810,810,810,810,810,810,810,810,810,810,810,810,810,810,810,810,810,810,810,810,810,810,810,810,810,810,810,810,810,810,810,810,810,810,810,810,810,810,810,810,815,821,834,854,880,951,987,1012,1034,1051,1067,1077,1083,1093,1101,1119,1130,1136],"ymouse":[543,543,543,543,543,543,543,543,543,543,543,543,543,543,543,543,543,543,543,543,543,543,543,543,543,543,543,543,543,543,543,543,543,543,543,543,543,543,543,543,543,543,543,543,543,543,543,543,543,543,543,543,543,543,543,543,543,543,543,543,543,543,543,543,543,543,543,543,543,543,543,543,543,543,543,543,543,543,543,543,543,543,543,543,543,543,543,543,543,543,543,543,536,529,515,499,473,413,378,344,312,272,219,194,175,158,147,115,100,91],"timestamp_mouse":[4,25,41,60,80,100,120,140,160,180,201,220,240,260,280,300,320,340,360,380,400,420,440,460,480,500,520,540,560,580,600,621,640,660,680,700,720,741,760,780,800,820,840,860,880,901,920,940,960,980,1000,1021,1040,1060,1080,1100,1120,1142,1162,1182,1201,1221,1242,1262,1282,1301,1322,1340,1360,1380,1400,1420,1440,1460,1480,1500,1520,1540,1560,1580,1600,1620,1640,1660,1680,1700,1720,1740,1760,1780,1800,1820,1840,1860,1881,1901,1920,1940,1960,1981,2000,2020,2040,2060,2080,2100,2120,2140,2161,2180],"xSR":741.5,"ySR":501.8,"xT1":424.9,"yT1":0,"xT2":1058.1,"yT2":0,"toosoon":0,"cond_shown":"Incongruent","ratio_trial":200,"L_num":4,"L_den":5,"R_num":6,"R_den":10,"correct_side":1,"subjID":"marian alape matiz 2","gender":"1","school":"6","age":"11"},{"start_time":1551790080321,"click_time":1551790103567,"finger_time":1551790097585,"fix_duration":955.1696513644837,"trial":20,"RT":17264,"MT":5982,"sideResp":1,"stimulus":[],"xmouse":[777,777,777,777,777,777,777,777,777,777,777,777,777,777,777,777,777,777,777,777,777,777,777,777,777,777,777,777,777,777,777,777,777,777,777,777,777,777,777,777,777,777,777,777,777,777,777,777,777,777,777,777,777,777,777,777,777,777,777,777,777,777,777,777,777,777,777,777,777,777,777,777,777,777,777,777,777,777,777,777,777,777,777,777,777,777,777,777,777,777,777,777,777,777,777,777,777,777,777,777,777,777,777,777,777,777,777,777,777,777,777,777,777,777,777,777,777,777,777,777,777,777,777,777,777,777,777,777,777,777,777,777,777,777,777,777,777,777,777,777,777,777,777,777,777,777,777,777,777,777,777,777,777,777,777,777,777,777,777,777,777,777,777,777,777,777,777,777,777,777,777,777,777,777,777,777,777,777,777,777,777,777,777,777,777,777,777,777,777,777,777,777,777,777,777,777,777,777,777,777,777,777,777,777,777,777,777,777,777,777,777,777,777,777,777,777,777,777,777,777,777,777,777,777,777,777,777,777,777,777,777,777,777,777,777,777,777,777,777,777,777,777,777,777,777,777,777,777,777,777,777,777,777,777,777,777,777,777,777,777,777,777,777,777,777,777,777,777,777,777,777,777,777,777,777,777,777,777,777,777,777,777,777,777,777,777,777,777,777,777,777,777,777,777,777,777,777,777,777,777,777,777,777,777,777,777,777,777,777,777,777,777,777,777,777,777,777,777,777,777,777,777,777,777,777,777,777,777,777,777,777,777,777,777,777,777,777,777,777,777,777,777,777,777,777,777,777,777,777,777,777,777,777,777,777,777,777,777,777,777,777,777,777,777,777,777,777,777,777,777,777,777,777,777,777,777,777,777,777,777,777,777,777,777,777,777,777,777,777,777,777,777,777,777,777,777,777,777,777,777,777,777,777,777,777,777,777,777,777,777,777,777,777,777,777,777,777,777,777,777,777,777,777,777,777,777,777,777,777,777,777,777,777,777,777,777,777,777,777,777,777,777,777,777,777,777,777,777,777,777,777,777,777,777,777,777,777,777,777,777,777,777,777,777,777,777,777,777,777,777,777,777,777,777,777,777,777,777,777,777,777,777,777,777,777,777,777,777,777,777,777,777,777,777,777,777,777,777,777,777,777,777,777,777,777,777,777,777,777,777,777,777,777,777,777,777,777,777,777,777,777,777,777,777,777,777,777,777,777,777,777,777,777,777,777,777,777,777,777,777,777,777,777,777,777,777,777,777,777,777,777,777,777,777,777,777,777,777,777,777,777,777,777,777,777,777,777,777,777,777,777,777,777,777,777,777,777,777,777,777,777,777,777,777,777,777,777,777,777,777,777,777,777,777,777,777,777,777,777,777,777,777,777,777,777,777,777,777,777,777,777,777,777,777,777,777,777,777,777,777,777,777,777,777,777,777,777,777,777,777,777,777,777,777,777,777,777,777,777,777,777,777,777,777,777,777,777,777,777,777,777,777,777,777,777,777,777,777,777,777,777,777,777,777,777,777,777,777,777,777,777,777,777,777,777,777,777,777,777,777,777,777,777,777,777,777,777,777,777,777,777,777,777,777,777,777,777,777,777,777,777,777,777,777,777,777,777,777,777,777,777,777,777,777,777,777,777,777,777,777,777,777,777,777,777,777,777,777,777,777,777,777,777,777,777,777,777,777,777,777,777,777,777,777,777,777,777,777,777,777,777,777,777,777,777,777,777,777,777,777,777,777,777,777,777,777,777,777,777,777,777,777,777,777,777,777,777,777,777,777,777,777,777,777,777,777,777,777,777,777,777,777,777,777,777,777,777,777,777,777,777,777,777,777,777,777,777,777,777,777,777,777,777,777,777,777,777,777,777,777,777,777,777,777,777,777,777,777,777,777,777,777,777,777,777,777,777,777,777,777,777,777,777,777,777,777,777,777,777,777,777,776,771,768,766,766,765,765,764,762,761,758,750,737,732,731,728,727,722,719,716,713,708,707,706,705,704,704,703,701,695,687,672,658,653,650,647,641,638,631,623,616,606,604,603,603,603,603,618,652,701,771,927,1167,1268,1334,1380,1409,1422,1422,1414,1398,1360,1269,1217,1154,1104,1054,973,950,927,913,872,854,836,818,806,799,790,786,779,774,765,744,733,721,706,690,638,604,558,457,372,216,143,87,41,0,0,0,0,0,0,0,0,0,1,2,9,12,13,16,18,19,20,21,22,23,24,25,25,29,31,33,34,37,39,42,48,52,55,58,68,70,73,75,78,80,81,81,81,81,83,94,104,122,144,170,200,201,201,196,181,164,159,152,149,142,140,138,138,138,154,159,173,194,222,295,356,463,605,768,962,1523,1523,1523,1523,1523,1523,1523,1523,1523,1523,1576,1556,1531,1497,1464,1394,1367,1343,1328,1305,1292,1284,1273,1248,1208,1066,952,812,672,467,177,31,0,0,0,0,0,0,0,0,0,0,0,0,0,0,0,0,0,0,0,0,0,0,0,0,0,0,0,0,0,0,0,0,0,0,0,0,0,0,3,4,4,4,4,4,4,4,4,4,4,4,4,3,1,0,0,0,0,0,0,0,0,0,0,0,0,1,8,92,141,185,223,252,273,303,311,318,329,335,351,356,359,359,360,360,360,360,361,361,363,365,365,365,365,365,365,365,365,366,366,368,370,372,375,385,392,399,404,438],"ymouse":[550,550,550,550,550,550,550,550,550,550,550,550,550,550,550,550,550,550,550,550,550,550,550,550,550,550,550,550,550,550,550,550,550,550,550,550,550,550,550,550,550,550,550,550,550,550,550,550,550,550,550,550,550,550,550,550,550,550,550,550,550,550,550,550,550,550,550,550,550,550,550,550,550,550,550,550,550,550,550,550,550,550,550,550,550,550,550,550,550,550,550,550,550,550,550,550,550,550,550,550,550,550,550,550,550,550,550,550,550,550,550,550,550,550,550,550,550,550,550,550,550,550,550,550,550,550,550,550,550,550,550,550,550,550,550,550,550,550,550,550,550,550,550,550,550,550,550,550,550,550,550,550,550,550,550,550,550,550,550,550,550,550,550,550,550,550,550,550,550,550,550,550,550,550,550,550,550,550,550,550,550,550,550,550,550,550,550,550,550,550,550,550,550,550,550,550,550,550,550,550,550,550,550,550,550,550,550,550,550,550,550,550,550,550,550,550,550,550,550,550,550,550,550,550,550,550,550,550,550,550,550,550,550,550,550,550,550,550,550,550,550,550,550,550,550,550,550,550,550,550,550,550,550,550,550,550,550,550,550,550,550,550,550,550,550,550,550,550,550,550,550,550,550,550,550,550,550,550,550,550,550,550,550,550,550,550,550,550,550,550,550,550,550,550,550,550,550,550,550,550,550,550,550,550,550,550,550,550,550,550,550,550,550,550,550,550,550,550,550,550,550,550,550,550,550,550,550,550,550,550,550,550,550,550,550,550,550,550,550,550,550,550,550,550,550,550,550,550,550,550,550,550,550,550,550,550,550,550,550,550,550,550,550,550,550,550,550,550,550,550,550,550,550,550,550,550,550,550,550,550,550,550,550,550,550,550,550,550,550,550,550,550,550,550,550,550,550,550,550,550,550,550,550,550,550,550,550,550,550,550,550,550,550,550,550,550,550,550,550,550,550,550,550,550,550,550,550,550,550,550,550,550,550,550,550,550,550,550,550,550,550,550,550,550,550,550,550,550,550,550,550,550,550,550,550,550,550,550,550,550,550,550,550,550,550,550,550,550,550,550,550,550,550,550,550,550,550,550,550,550,550,550,550,550,550,550,550,550,550,550,550,550,550,550,550,550,550,550,550,550,550,550,550,550,550,550,550,550,550,550,550,550,550,550,550,550,550,550,550,550,550,550,550,550,550,550,550,550,550,550,550,550,550,550,550,550,550,550,550,550,550,550,550,550,550,550,550,550,550,550,550,550,550,550,550,550,550,550,550,550,550,550,550,550,550,550,550,550,550,550,550,550,550,550,550,550,550,550,550,550,550,550,550,550,550,550,550,550,550,550,550,550,550,550,550,550,550,550,550,550,550,550,550,550,550,550,550,550,550,550,550,550,550,550,550,550,550,550,550,550,550,550,550,550,550,550,550,550,550,550,550,550,550,550,550,550,550,550,550,550,550,550,550,550,550,550,550,550,550,550,550,550,550,550,550,550,550,550,550,550,550,550,550,550,550,550,550,550,550,550,550,550,550,550,550,550,550,550,550,550,550,550,550,550,550,550,550,550,550,550,550,550,550,550,550,550,550,550,550,550,550,550,550,550,550,550,550,550,550,550,550,550,550,550,550,550,550,550,550,550,550,550,550,550,550,550,550,550,550,550,550,550,550,550,550,550,550,550,550,550,550,550,550,550,550,550,550,550,550,550,550,550,550,550,550,550,550,550,550,550,550,550,550,550,550,550,550,550,550,550,550,550,550,550,550,550,550,550,550,550,550,550,550,550,550,550,550,550,550,550,550,550,550,550,550,550,550,550,550,550,550,550,550,550,550,550,550,550,550,550,550,550,550,550,550,550,550,550,550,550,550,550,550,550,550,550,550,550,550,550,550,550,550,550,550,550,550,550,550,550,550,550,550,550,550,550,550,550,550,550,550,550,550,549,549,549,549,549,549,548,547,545,541,534,532,531,530,529,528,526,525,523,521,520,520,519,518,518,516,514,512,507,496,483,478,474,470,462,458,452,447,442,433,432,430,430,430,430,417,396,378,369,369,423,458,489,506,520,526,527,527,526,511,459,424,379,349,324,288,280,269,261,247,241,236,231,229,226,225,224,223,222,222,222,222,222,224,227,235,240,247,260,265,272,279,285,292,297,297,297,297,297,297,297,297,297,297,297,297,297,297,297,297,297,297,297,297,297,298,299,301,309,314,320,324,327,333,339,351,357,360,360,362,362,362,362,362,362,363,363,363,363,361,341,328,308,288,267,240,231,222,209,187,163,154,146,138,127,121,118,116,113,109,108,106,105,105,107,118,140,179,247,330,561,561,561,561,561,561,561,561,561,561,770,750,733,716,698,659,642,623,609,596,590,589,587,583,581,568,549,543,537,531,495,483,472,467,463,462,462,462,462,460,459,457,454,450,443,424,413,402,398,397,397,397,397,397,397,397,397,397,396,396,388,386,386,386,386,386,386,386,386,386,390,390,390,390,390,390,387,385,384,384,383,383,383,382,380,373,366,358,349,341,337,336,336,336,336,336,336,336,334,294,260,230,210,195,184,166,161,153,142,137,128,124,122,121,120,120,120,120,119,118,112,109,107,104,102,99,96,93,90,84,82,80,78,76,76,73,71,69,68,67],"timestamp_mouse":[4,24,44,64,84,104,124,144,164,184,204,224,244,264,286,306,325,346,366,386,406,426,444,464,484,504,524,544,564,584,604,624,644,664,684,704,724,744,764,784,805,824,844,864,884,904,924,944,964,984,1005,1025,1044,1064,1084,1104,1124,1144,1164,1184,1204,1224,1244,1264,1285,1304,1324,1345,1364,1384,1404,1424,1444,1464,1484,1504,1524,1544,1564,1584,1604,1624,1644,1664,1684,1704,1724,1744,1764,1784,1805,1824,1844,1864,1884,1904,1924,1944,1964,1984,2006,2026,2046,2065,2086,2105,2126,2145,2164,2184,2204,2224,2244,2264,2284,2305,2324,2344,2364,2384,2404,2424,2444,2464,2484,2504,2524,2544,2564,2584,2604,2624,2644,2664,2684,2704,2725,2744,2764,2784,2804,2824,2844,2864,2884,2904,2924,2944,2964,2984,3004,3024,3044,3064,3084,3104,3124,3144,3164,3184,3204,3224,3244,3264,3284,3304,3324,3344,3364,3384,3404,3424,3444,3464,3484,3504,3525,3544,3564,3584,3604,3624,3644,3664,3684,3704,3724,3744,3766,3786,3805,3826,3846,3865,3884,3905,3925,3944,3964,3984,4004,4024,4044,4064,4084,4104,4124,4144,4164,4184,4204,4224,4244,4264,4284,4305,4324,4344,4364,4384,4404,4424,4444,4464,4484,4504,4524,4544,4564,4584,4605,4624,4645,4664,4684,4704,4724,4744,4764,4784,4804,4825,4844,4864,4884,4905,4924,4944,4964,4984,5004,5025,5044,5064,5084,5104,5124,5144,5164,5184,5204,5224,5244,5264,5284,5304,5324,5344,5364,5384,5405,5424,5444,5464,5486,5506,5526,5546,5566,5584,5606,5625,5644,5664,5684,5704,5724,5744,5764,5784,5804,5825,5844,5864,5884,5904,5924,5944,5964,5984,6004,6024,6044,6064,6084,6104,6124,6144,6164,6184,6204,6224,6244,6264,6284,6304,6324,6344,6364,6384,6404,6424,6444,6464,6484,6504,6524,6544,6564,6584,6604,6624,6644,6664,6684,6704,6724,6744,6764,6784,6804,6824,6845,6864,6884,6904,6924,6944,6964,6984,7004,7024,7044,7065,7084,7104,7124,7144,7164,7184,7204,7224,7246,7266,7286,7306,7326,7345,7364,7384,7405,7424,7445,7464,7484,7505,7524,7544,7564,7585,7604,7624,7644,7664,7684,7704,7725,7744,7764,7784,7804,7824,7844,7864,7884,7904,7924,7944,7964,7984,8004,8024,8044,8064,8084,8104,8124,8144,8164,8184,8205,8224,8244,8264,8284,8304,8324,8344,8364,8384,8404,8424,8445,8464,8484,8505,8524,8544,8564,8584,8604,8624,8644,8664,8684,8704,8725,8744,8764,8784,8804,8824,8844,8864,8884,8905,8924,8944,8964,8986,9006,9025,9046,9065,9085,9105,9124,9144,9164,9184,9204,9224,9244,9264,9284,9304,9324,9344,9365,9384,9404,9424,9444,9464,9484,9504,9524,9544,9564,9584,9604,9624,9644,9664,9684,9704,9724,9744,9764,9784,9804,9824,9844,9864,9884,9904,9924,9944,9964,9984,10004,10025,10044,10065,10084,10104,10124,10144,10164,10184,10204,10224,10244,10264,10284,10304,10324,10344,10364,10384,10404,10424,10444,10464,10484,10504,10524,10544,10564,10584,10604,10624,10644,10664,10684,10704,10726,10746,10766,10785,10805,10826,10845,10864,10884,10905,10925,10944,10964,10985,11004,11024,11044,11064,11084,11104,11124,11144,11164,11184,11204,11224,11244,11264,11284,11304,11324,11344,11364,11384,11404,11424,11444,11465,11484,11505,11524,11544,11564,11584,11604,11624,11644,11664,11684,11704,11724,11744,11764,11784,11804,11824,11844,11864,11884,11904,11924,11944,11964,11984,12004,12025,12044,12064,12084,12104,12124,12144,12164,12184,12204,12224,12244,12264,12284,12304,12324,12344,12364,12384,12404,12424,12446,12465,12486,12506,12526,12546,12566,12586,12604,12624,12644,12664,12684,12704,12724,12744,12764,12784,12804,12824,12844,12864,12884,12904,12924,12944,12964,12984,13004,13024,13044,13064,13084,13104,13124,13144,13164,13184,13204,13224,13244,13264,13284,13304,13324,13344,13364,13384,13404,13424,13444,13464,13484,13505,13524,13544,13564,13584,13604,13624,13644,13664,13684,13704,13724,13744,13765,13784,13804,13824,13844,13864,13884,13904,13924,13944,13964,13984,14004,14024,14044,14064,14084,14104,14124,14144,14164,14186,14206,14226,14246,14266,14285,14305,14324,14344,14364,14384,14404,14424,14444,14464,14484,14504,14524,14544,14564,14584,14604,14624,14644,14664,14684,14704,14724,14744,14764,14785,14804,14824,14844,14864,14884,14904,14924,14944,14964,14984,15005,15024,15044,15064,15084,15104,15125,15144,15164,15184,15204,15224,15244,15264,15284,15304,15324,15344,15364,15384,15404,15424,15444,15464,15484,15504,15524,15544,15564,15584,15604,15624,15644,15664,15684,15704,15724,15744,15764,15785,15804,15824,15844,15864,15884,15904,15924,15946,15966,15986,16005,16024,16044,16064,16085,16104,16124,16144,16165,16184,16204,16224,16244,16264,16284,16304,16324,16344,16364,16384,16404,16425,16444,16464,16484,16504,16524,16544,16564,16584,16604,16624,16644,16664,16684,16704,16724,16744,16764,16784,16804,16824,16844,16864,16884,16904,16924,16944,16964,16984,17004,17025,17044,17064,17084,17104,17125,17144,17164,17185,17205,17224,17245,17264,17284,17305,17324,17344,17364,17385,17405,17425,17444,17465,17484,17505,17525,17544,17564,17584,17604,17624,17644,17664,17684,17704,17726,17745,17764,17786,17805,17826,17845,17865,17884,17905,17924,17945,17964,17985,18004,18024,18045,18065,18084,18104,18124,18144,18165,18184,18204,18224,18244,18264,18284,18304,18325,18344,18364,18385,18404,18425,18445,18464,18484,18505,18524,18544,18564,18585,18604,18624,18644,18664,18684,18705,18724,18744,18764,18785,18804,18825,18844,18865,18884,18905,18924,18945,18965,18985,19004,19025,19044,19065,19085,19105,19124,19144,19164,19184,19204,19225,19244,19264,19284,19304,19324,19344,19364,19385,19404,19425,19444,19464,19484,19506,19525,19546,19564,19585,19606,19626,19645,19664,19684,19705,19725,19745,19765,19785,19805,19825,19844,19865,19884,19905,19924,19944,19964,19985,20005,20024,20045,20065,20084,20105,20125,20145,20164,20184,20204,20224,20245,20264,20284,20304,20325,20345,20364,20384,20404,20424,20444,20464,20484,20505,20524,20544,20564,20584,20604,20625,20644,20664,20684,20705,20725,20745,20764,20785,20805,20825,20844,20864,20884,20905,20924,20944,20964,20984,21004,21024,21044,21064,21084,21104,21124,21144,21164,21184,21206,21226,21245,21265,21284,21305,21325,21345,21364,21385,21405,21425,21445,21465,21485,21505,21525,21545,21565,21585,21605,21625,21645,21664,21685,21705,21725,21745,21764,21784,21805,21825,21844,21864,21885,21905,21924,21945,21964,21985,22004,22025,22044,22065,22085,22105,22125,22144,22164,22185,22205,22224,22244,22265,22284,22304,22324,22345,22364,22384,22404,22424,22445,22464,22484,22505,22525,22544,22564,22584,22604,22624,22644,22665,22684,22705,22725,22745,22765,22784,22805,22824,22844,22864,22884,22904,22925,22944,22964,22985,23005,23025,23045,23066,23084,23104,23125,23145,23164,23185,23205,23224,23245],"xSR":741.5,"ySR":501.8,"xT1":424.9,"yT1":0,"xT2":1058.1,"yT2":0,"toosoon":0,"cond_shown":"Incongruent","ratio_trial":100,"L_num":13,"L_den":26,"R_num":6,"R_den":10,"correct_side":2,"subjID":"marian alape matiz 2","gender":"1","school":"6","age":"11"},{"start_time":1551790108296,"click_time":1551790110347,"finger_time":1551790110025,"fix_duration":250,"trial":21,"RT":1729,"MT":322,"sideResp":2,"stimulus":[],"xmouse":[759,761,763,767,770,772,773,775,778,781,782,783,783,783,783,783,783,783,783,783,783,783,783,783,783,783,783,783,783,783,783,783,783,783,783,783,783,783,783,783,783,783,783,783,783,783,783,783,783,783,783,783,783,783,783,783,783,783,783,783,783,783,783,783,783,783,783,783,783,783,783,783,783,783,783,783,783,783,783,783,783,783,786,793,811,822,830,844,870,888,909,933,953,981,1013,1026,1036,1045,1052,1060,1066,1076,1086],"ymouse":[537,539,541,544,547,547,547,548,550,551,552,552,552,552,552,552,552,552,552,552,552,552,552,552,552,552,552,552,552,552,552,552,552,552,552,552,552,552,552,552,552,552,552,552,552,552,552,552,552,552,552,552,552,552,552,552,552,552,552,552,552,552,552,552,552,552,552,552,552,552,552,552,552,552,552,552,552,552,552,552,552,552,552,549,528,511,489,457,387,349,314,280,254,224,191,176,158,147,136,123,114,103,92],"timestamp_mouse":[11,30,50,70,89,110,129,150,170,191,210,230,250,270,290,309,329,349,369,389,409,429,449,469,489,509,529,549,569,589,609,629,649,669,689,709,729,749,769,789,809,829,849,869,889,909,929,949,969,989,1009,1029,1049,1069,1089,1109,1129,1149,1169,1189,1209,1229,1249,1269,1289,1309,1329,1349,1369,1389,1409,1429,1449,1469,1489,1509,1529,1549,1569,1589,1609,1629,1650,1670,1689,1709,1729,1749,1770,1789,1809,1829,1850,1869,1891,1909,1930,1950,1970,1989,2011,2031,2051],"xSR":741.5,"ySR":501.8,"xT1":424.9,"yT1":0,"xT2":1058.1,"yT2":0,"toosoon":0,"cond_shown":"Congruent","ratio_trial":300,"L_num":5,"L_den":25,"R_num":6,"R_den":12,"correct_side":2,"subjID":"marian alape matiz 2","gender":"1","school":"6","age":"11"},{"start_time":1551790112533,"click_time":1551790114365,"finger_time":1551790113885,"fix_duration":306.7953498470915,"trial":22,"RT":1352,"MT":480,"sideResp":1,"stimulus":[],"xmouse":[788,792,793,794,794,794,795,795,795,795,795,795,795,795,795,795,795,795,795,795,795,795,795,795,795,795,795,795,795,795,795,795,795,795,795,795,795,795,795,795,795,795,795,795,795,795,795,795,795,795,795,795,795,795,795,795,795,795,795,795,795,795,795,795,789,782,763,704,657,606,554,439,412,390,374,369,369,372,375,376,377,377,378,380,384,389,397,411,415,421,423,425],"ymouse":[553,550,548,546,545,545,545,545,545,545,545,545,545,545,545,545,545,545,545,545,545,545,545,545,545,545,545,545,545,545,545,545,545,545,545,545,545,545,545,545,545,545,545,545,545,545,545,545,545,545,545,545,545,545,545,545,545,545,545,545,545,545,545,545,544,541,532,492,447,394,337,202,152,110,77,51,37,22,19,17,14,12,10,10,10,12,18,34,39,43,48,48],"timestamp_mouse":[13,38,53,72,93,112,132,152,173,192,212,232,252,272,292,312,332,352,372,392,412,432,453,472,492,512,532,552,572,592,612,632,652,672,692,712,732,752,772,792,812,832,852,872,892,912,932,952,972,992,1013,1032,1052,1072,1092,1112,1132,1152,1172,1194,1214,1234,1254,1274,1293,1312,1333,1352,1372,1392,1412,1433,1453,1472,1492,1513,1532,1552,1573,1593,1613,1632,1653,1672,1693,1712,1732,1752,1773,1792,1812,1832],"xSR":741.5,"ySR":501.8,"xT1":424.9,"yT1":0,"xT2":1058.1,"yT2":0,"toosoon":0,"cond_shown":"Incongruen