[{"start_time":1551794830558,"click_time":1551794831960,"finger_time":1551794831399,"fix_duration":716.720907515818,"trial":0,"RT":841,"MT":561,"sideResp":1,"stimulus":"img/250/equaldotsize/L/1_Ratio_250_L_8_R_2.png","xmouse":[778,778,778,778,778,778,778,778,778,778,778,778,778,778,778,778,778,778,778,778,778,778,778,778,778,778,778,778,778,778,778,778,778,778,778,778,778,778,775,774,772,767,754,701,679,659,643,636,635,633,618,589,549,477,461,458,457,450,446,445,448,462,546,586,606,609,609,609,597,547,501],"ymouse":[539,539,539,539,539,539,539,539,539,539,539,539,539,539,539,539,539,539,539,539,539,539,539,539,539,539,539,539,539,539,539,539,539,539,539,539,539,538,528,504,490,472,443,331,300,285,275,269,268,268,260,248,230,190,178,170,164,151,147,145,140,131,94,78,71,68,67,65,49,33,20],"timestamp_mouse":[3,22,43,61,81,102,122,143,161,182,202,222,242,263,281,301,323,342,362,382,402,421,443,462,483,501,522,542,562,582,602,621,641,662,682,703,722,741,763,782,802,822,841,862,883,903,921,942,962,981,1002,1022,1041,1062,1081,1102,1122,1142,1162,1181,1202,1222,1242,1262,1283,1302,1322,1342,1362,1382,1402],"xSR":741.5,"ySR":481,"xT1":424.9,"yT1":0,"xT2":1058.1,"yT2":0,"toosoon":0,"cond_shown":"equaldotsize","ratio_trial":250,"smaller_num":"2","larger_num":"8","correct_side":1,"subjID":"marianacardenassabogal29","gender":"1","age":"11","school":"6","test":{"fix_dur":[250,1500],"timestim":300,"targets_dim":[100,100],"targets_relative_coord":[0.3,0.7],"size_stim":[880,420],"start_dim":[100,100],"size_start":[300,300],"size_fix":60,"samplingrate":20,"img_types":["equaldotsize","equaldotanddens","randomdotsizeEA"],"ratios":[250,500,750,900],"rep_conds":9,"nTrials":120,"trials_to_rest":500,"Trials_order":[72,3,118,116,73,64,114,99,13,103,29,38,25,7,82,18,84,22,30,56,37,65,31,104,19,88,6,77,92,60,47,4,119,43,55,33,46,34,2,24,58,111,50,15,10,63,109,113,94,11,90,54,42,102,61,101,53,86,32,28,36,49,115,87,35,69,117,80,52,79,39,71,57,59,51,12,17,40,67,27,1,48,95,97,68,20,8,66,23,70,26,83,110,16,91,100,21,62,14,41,45,96,98,112,78,81,89,105,5,74,93,0,108,76,106,9,85,75,107,44],"cond_shown":["equaldotsize","equaldotsize","equaldotanddens","randomdotsizeEA","equaldotanddens","equaldotanddens","equaldotsize","equaldotsize","equaldotanddens","equaldotanddens","randomdotsizeEA","randomdotsizeEA","equaldotanddens","equaldotanddens","equaldotanddens","equaldotsize","equaldotsize","equaldotanddens","equaldotsize","randomdotsizeEA","equaldotanddens","randomdotsizeEA","equaldotanddens","randomdotsizeEA","equaldotanddens","equaldotanddens","equaldotsize","randomdotsizeEA","randomdotsizeEA","equaldotsize","randomdotsizeEA","equaldotanddens","randomdotsizeEA","equaldotanddens","equaldotanddens","equaldotsize","equaldotanddens","equaldotanddens","randomdotsizeEA","equaldotsize","equaldotanddens","equaldotsize","randomdotsizeEA","equaldotsize","equaldotanddens","equaldotsize","equaldotanddens","randomdotsizeEA","equaldotanddens","randomdotsizeEA","equaldotsize","equaldotsize","equaldotsize","equaldotsize","equaldotanddens","randomdotsizeEA","randomdotsizeEA","randomdotsizeEA","randomdotsizeEA","equaldotanddens","equaldotsize","equaldotanddens","equaldotanddens","equaldotsize","randomdotsizeEA","equaldotsize","equaldotsize","randomdotsizeEA","equaldotanddens","equaldotanddens","equaldotsize","randomdotsizeEA","equaldotsize","randomdotsizeEA","equaldotsize","equaldotsize","randomdotsizeEA","equaldotanddens","equaldotanddens","equaldotsize","equaldotanddens","equaldotsize","randomdotsizeEA","equaldotanddens","randomdotsizeEA","randomdotsizeEA","randomdotsizeEA","equaldotsize","randomdotsizeEA","equaldotanddens","randomdotsizeEA","randomdotsizeEA","randomdotsizeEA","equaldotanddens","equaldotanddens","equaldotanddens","equaldotsize","randomdotsizeEA","randomdotsizeEA","randomdotsizeEA","equaldotsize","equaldotsize","randomdotsizeEA","equaldotanddens","equaldotsize","equaldotsize","randomdotsizeEA","equaldotsize","randomdotsizeEA","randomdotsizeEA","equaldotsize","equaldotsize","equaldotsize","equaldotanddens","equaldotanddens","equaldotsize","equaldotanddens","equaldotsize","randomdotsizeEA","randomdotsizeEA"],"ratio_trial":[250,500,900,750,250,500,750,500,250,750,500,250,250,750,900,750,250,900,750,750,250,500,750,750,750,500,750,500,750,250,900,500,900,750,750,900,900,900,250,250,900,500,250,500,900,500,250,500,900,900,750,750,750,750,250,500,500,250,750,500,250,250,750,500,900,900,900,750,500,750,500,900,900,900,500,250,500,500,750,500,250,250,900,250,750,750,750,750,900,900,250,900,250,500,750,500,900,250,250,500,900,250,250,500,750,900,500,900,500,250,900,250,250,500,900,900,250,500,900,750],"smaller_num":["2","1","18","3","3","9","15","2","4","15","6","4","2","3","9","12","4","9","6","6","5","3","3","15","9","9","6","5","6","2","18","5","18","15","3","18","18","18","4","6","18","1","4","9","18","5","3","4","9","18","15","6","18","3","5","4","10","5","6","10","4","3","3","9","18","18","9","3","2","6","10","18","9","18","1","3","9","3","6","9","1","3","9","3","12","6","15","3","9","18","5","18","6","5","6","6","18","4","3","4","18","3","4","5","18","18","3","18","5","4","9","4","3","6","18","18","6","10","18","3"],"larger_num":["8","2","20","4","12","18","20","4","16","20","12","16","8","4","10","16","16","10","8","8","20","6","4","20","12","18","8","10","8","8","20","10","20","20","4","20","20","20","16","24","20","2","16","18","20","10","12","8","10","20","20","8","24","4","20","8","20","20","8","20","16","12","4","18","20","20","10","4","4","8","20","20","10","20","2","12","18","6","8","18","4","12","10","12","16","8","20","4","10","20","20","20","24","10","8","12","20","16","12","8","20","12","16","10","24","20","6","20","10","16","10","16","12","12","20","20","24","20","20","4"],"correct_side":[1,2,1,1,1,2,2,2,2,2,1,1,1,2,2,2,2,2,1,1,2,2,1,2,2,2,2,1,1,1,1,2,2,1,1,1,2,2,1,2,1,2,2,2,1,2,1,1,2,1,2,1,1,1,2,1,2,2,1,2,2,2,2,2,1,1,2,1,2,1,2,1,1,1,2,1,2,2,1,2,2,2,2,1,2,1,2,2,1,2,2,2,1,2,2,1,2,1,2,1,1,2,2,1,1,2,2,2,1,2,2,2,1,1,1,1,2,2,2,1],"img_shown":["img/250/equaldotsize/L/1_Ratio_250_L_8_R_2.png","img/500/equaldotsize/R/15_Ratio_500_L_1_R_2.png","img/900/equaldotanddens/L/4_Ratio_900_L_20_R_18.png","img/750/randomdotsizeEA/L/10_Ratio_750_L_4_R_3.png","img/250/equaldotanddens/L/14_Ratio_250_L_12_R_3.png","img/500/equaldotanddens/R/6_Ratio_500_L_9_R_18.png","img/750/equaldotsize/R/4_Ratio_750_L_15_R_20.png","img/500/equaldotsize/R/9_Ratio_500_L_2_R_4.png","img/250/equaldotanddens/R/10_Ratio_250_L_4_R_16.png","img/750/equaldotanddens/R/3_Ratio_750_L_15_R_20.png","img/500/randomdotsizeEA/L/11_Ratio_500_L_12_R_6.png","img/250/randomdotsizeEA/L/2_Ratio_250_L_16_R_4.png","img/250/equaldotanddens/L/3_Ratio_250_L_8_R_2.png","img/750/equaldotanddens/R/12_Ratio_750_L_3_R_4.png","img/900/equaldotanddens/R/6_Ratio_900_L_9_R_10.png","img/750/equaldotsize/R/11_Ratio_750_L_12_R_16.png","img/250/equaldotsize/R/10_Ratio_250_L_4_R_16.png","img/900/equaldotanddens/R/15_Ratio_900_L_9_R_10.png","img/750/equaldotsize/L/13_Ratio_750_L_8_R_6.png","img/750/randomdotsizeEA/L/14_Ratio_750_L_8_R_6.png","img/250/equaldotanddens/R/12_Ratio_250_L_5_R_20.png","img/500/randomdotsizeEA/R/2_Ratio_500_L_3_R_6.png","img/750/equaldotanddens/L/9_Ratio_750_L_4_R_3.png","img/750/randomdotsizeEA/R/3_Ratio_750_L_15_R_20.png","img/750/equaldotanddens/R/15_Ratio_750_L_9_R_12.png","img/500/equaldotanddens/R/6_Ratio_500_L_9_R_18.png","img/750/equaldotsize/R/2_Ratio_750_L_6_R_8.png","img/500/randomdotsizeEA/L/7_Ratio_500_L_10_R_5.png","img/750/randomdotsizeEA/L/14_Ratio_750_L_8_R_6.png","img/250/equaldotsize/L/7_Ratio_250_L_8_R_2.png","img/900/randomdotsizeEA/L/4_Ratio_900_L_20_R_18.png","img/500/equaldotanddens/R/14_Ratio_500_L_5_R_10.png","img/900/randomdotsizeEA/R/13_Ratio_900_L_18_R_20.png","img/750/equaldotanddens/L/1_Ratio_750_L_20_R_15.png","img/750/equaldotanddens/L/10_Ratio_750_L_4_R_3.png","img/900/equaldotsize/L/10_Ratio_900_L_20_R_18.png","img/900/equaldotanddens/R/11_Ratio_900_L_18_R_20.png","img/900/equaldotanddens/R/13_Ratio_900_L_18_R_20.png","img/250/randomdotsizeEA/L/2_Ratio_250_L_16_R_4.png","img/250/equaldotsize/R/6_Ratio_250_L_6_R_24.png","img/900/equaldotanddens/L/8_Ratio_900_L_20_R_18.png","img/500/equaldotsize/R/12_Ratio_500_L_1_R_2.png","img/250/randomdotsizeEA/R/10_Ratio_250_L_4_R_16.png","img/500/equaldotsize/R/6_Ratio_500_L_9_R_18.png","img/900/equaldotanddens/L/2_Ratio_900_L_20_R_18.png","img/500/equaldotsize/R/14_Ratio_500_L_5_R_10.png","img/250/equaldotanddens/L/14_Ratio_250_L_12_R_3.png","img/500/randomdotsizeEA/L/8_Ratio_500_L_8_R_4.png","img/900/equaldotanddens/R/7_Ratio_900_L_9_R_10.png","img/900/randomdotsizeEA/L/10_Ratio_900_L_20_R_18.png","img/750/equaldotsize/R/4_Ratio_750_L_15_R_20.png","img/750/equaldotsize/L/14_Ratio_750_L_8_R_6.png","img/750/equaldotsize/L/6_Ratio_750_L_24_R_18.png","img/750/equaldotsize/L/8_Ratio_750_L_4_R_3.png","img/250/equaldotanddens/R/12_Ratio_250_L_5_R_20.png","img/500/randomdotsizeEA/L/8_Ratio_500_L_8_R_4.png","img/500/randomdotsizeEA/R/3_Ratio_500_L_10_R_20.png","img/250/randomdotsizeEA/R/12_Ratio_250_L_5_R_20.png","img/750/randomdotsizeEA/L/14_Ratio_750_L_8_R_6.png","img/500/equaldotanddens/R/3_Ratio_500_L_10_R_20.png","img/250/equaldotsize/R/10_Ratio_250_L_4_R_16.png","img/250/equaldotanddens/R/9_Ratio_250_L_3_R_12.png","img/750/equaldotanddens/R/7_Ratio_750_L_3_R_4.png","img/500/equaldotsize/R/1_Ratio_500_L_9_R_18.png","img/900/randomdotsizeEA/L/8_Ratio_900_L_20_R_18.png","img/900/equaldotsize/L/2_Ratio_900_L_20_R_18.png","img/900/equaldotsize/R/15_Ratio_900_L_9_R_10.png","img/750/randomdotsizeEA/L/8_Ratio_750_L_4_R_3.png","img/500/equaldotanddens/R/9_Ratio_500_L_2_R_4.png","img/750/equaldotanddens/L/14_Ratio_750_L_8_R_6.png","img/500/equaldotsize/R/3_Ratio_500_L_10_R_20.png","img/900/randomdotsizeEA/L/8_Ratio_900_L_20_R_18.png","img/900/equaldotsize/L/1_Ratio_900_L_10_R_9.png","img/900/randomdotsizeEA/L/4_Ratio_900_L_20_R_18.png","img/500/equaldotsize/R/15_Ratio_500_L_1_R_2.png","img/250/equaldotsize/L/14_Ratio_250_L_12_R_3.png","img/500/randomdotsizeEA/R/6_Ratio_500_L_9_R_18.png","img/500/equaldotanddens/R/2_Ratio_500_L_3_R_6.png","img/750/equaldotanddens/L/14_Ratio_750_L_8_R_6.png","img/500/equaldotsize/R/1_Ratio_500_L_9_R_18.png","img/250/equaldotanddens/R/8_Ratio_250_L_1_R_4.png","img/250/equaldotsize/R/4_Ratio_250_L_3_R_12.png","img/900/randomdotsizeEA/R/5_Ratio_900_L_9_R_10.png","img/250/equaldotanddens/L/15_Ratio_250_L_12_R_3.png","img/750/randomdotsizeEA/R/11_Ratio_750_L_12_R_16.png","img/750/randomdotsizeEA/L/13_Ratio_750_L_8_R_6.png","img/750/randomdotsizeEA/R/4_Ratio_750_L_15_R_20.png","img/750/equaldotsize/R/7_Ratio_750_L_3_R_4.png","img/900/randomdotsizeEA/L/1_Ratio_900_L_10_R_9.png","img/900/equaldotanddens/R/9_Ratio_900_L_18_R_20.png","img/250/randomdotsizeEA/R/12_Ratio_250_L_5_R_20.png","img/900/randomdotsizeEA/R/13_Ratio_900_L_18_R_20.png","img/250/randomdotsizeEA/L/5_Ratio_250_L_24_R_6.png","img/500/equaldotanddens/R/14_Ratio_500_L_5_R_10.png","img/750/equaldotanddens/R/2_Ratio_750_L_6_R_8.png","img/500/equaldotanddens/L/13_Ratio_500_L_12_R_6.png","img/900/equaldotsize/R/11_Ratio_900_L_18_R_20.png","img/250/randomdotsizeEA/L/2_Ratio_250_L_16_R_4.png","img/250/randomdotsizeEA/R/4_Ratio_250_L_3_R_12.png","img/500/randomdotsizeEA/L/8_Ratio_500_L_8_R_4.png","img/900/equaldotsize/L/10_Ratio_900_L_20_R_18.png","img/250/equaldotsize/R/4_Ratio_250_L_3_R_12.png","img/250/randomdotsizeEA/R/10_Ratio_250_L_4_R_16.png","img/500/equaldotanddens/L/7_Ratio_500_L_10_R_5.png","img/750/equaldotsize/L/6_Ratio_750_L_24_R_18.png","img/900/equaldotsize/R/14_Ratio_900_L_18_R_20.png","img/500/randomdotsizeEA/R/2_Ratio_500_L_3_R_6.png","img/900/equaldotsize/R/9_Ratio_900_L_18_R_20.png","img/500/randomdotsizeEA/L/7_Ratio_500_L_10_R_5.png","img/250/randomdotsizeEA/R/10_Ratio_250_L_4_R_16.png","img/900/equaldotsize/R/6_Ratio_900_L_9_R_10.png","img/250/equaldotsize/R/10_Ratio_250_L_4_R_16.png","img/250/equaldotsize/L/14_Ratio_250_L_12_R_3.png","img/500/equaldotanddens/L/11_Ratio_500_L_12_R_6.png","img/900/equaldotanddens/L/10_Ratio_900_L_20_R_18.png","img/900/equaldotsize/L/2_Ratio_900_L_20_R_18.png","img/250/equaldotanddens/R/6_Ratio_250_L_6_R_24.png","img/500/equaldotsize/R/3_Ratio_500_L_10_R_20.png","img/900/randomdotsizeEA/R/11_Ratio_900_L_18_R_20.png","img/750/randomdotsizeEA/L/9_Ratio_750_L_4_R_3.png"],"Rat0":[["12_Ratio_0_L_9_R_0.png","13_Ratio_0_L_6_R_0.png","5_Ratio_0_L_2_R_0.png","6_Ratio_0_L_4_R_0.png","8_Ratio_0_L_6_R_0.png"],["1_Ratio_0_L_0_R_17.png","10_Ratio_0_L_0_R_22.png","11_Ratio_0_L_0_R_1.png","14_Ratio_0_L_0_R_24.png","15_Ratio_0_L_0_R_4.png","2_Ratio_0_L_0_R_5.png","3_Ratio_0_L_0_R_17.png","4_Ratio_0_L_0_R_7.png","7_Ratio_0_L_0_R_19.png","9_Ratio_0_L_0_R_15.png"]],"Rat250":[["1_Ratio_250_L_8_R_2.png","14_Ratio_250_L_12_R_3.png","15_Ratio_250_L_12_R_3.png","2_Ratio_250_L_16_R_4.png","3_Ratio_250_L_8_R_2.png","5_Ratio_250_L_24_R_6.png","7_Ratio_250_L_8_R_2.png"],["10_Ratio_250_L_4_R_16.png","11_Ratio_250_L_3_R_12.png","12_Ratio_250_L_5_R_20.png","13_Ratio_250_L_2_R_8.png","4_Ratio_250_L_3_R_12.png","6_Ratio_250_L_6_R_24.png","8_Ratio_250_L_1_R_4.png","9_Ratio_250_L_3_R_12.png"]],"Rat500":[["10_Ratio_500_L_4_R_2.png","11_Ratio_500_L_12_R_6.png","13_Ratio_500_L_12_R_6.png","4_Ratio_500_L_18_R_9.png","5_Ratio_500_L_4_R_2.png","7_Ratio_500_L_10_R_5.png","8_Ratio_500_L_8_R_4.png"],["1_Ratio_500_L_9_R_18.png","12_Ratio_500_L_1_R_2.png","14_Ratio_500_L_5_R_10.png","15_Ratio_500_L_1_R_2.png","2_Ratio_500_L_3_R_6.png","3_Ratio_500_L_10_R_20.png","6_Ratio_500_L_9_R_18.png","9_Ratio_500_L_2_R_4.png"]],"Rat750":[["1_Ratio_750_L_20_R_15.png","10_Ratio_750_L_4_R_3.png","13_Ratio_750_L_8_R_6.png","14_Ratio_750_L_8_R_6.png","6_Ratio_750_L_24_R_18.png","8_Ratio_750_L_4_R_3.png","9_Ratio_750_L_4_R_3.png"],["11_Ratio_750_L_12_R_16.png","12_Ratio_750_L_3_R_4.png","15_Ratio_750_L_9_R_12.png","2_Ratio_750_L_6_R_8.png","3_Ratio_750_L_15_R_20.png","4_Ratio_750_L_15_R_20.png","5_Ratio_750_L_15_R_20.png","7_Ratio_750_L_3_R_4.png"]],"Rat900":[["1_Ratio_900_L_10_R_9.png","10_Ratio_900_L_20_R_18.png","2_Ratio_900_L_20_R_18.png","4_Ratio_900_L_20_R_18.png","8_Ratio_900_L_20_R_18.png"],["11_Ratio_900_L_18_R_20.png","12_Ratio_900_L_18_R_20.png","13_Ratio_900_L_18_R_20.png","14_Ratio_900_L_18_R_20.png","15_Ratio_900_L_9_R_10.png","3_Ratio_900_L_9_R_10.png","5_Ratio_900_L_9_R_10.png","6_Ratio_900_L_9_R_10.png","7_Ratio_900_L_9_R_10.png","9_Ratio_900_L_18_R_20.png"]],"Rat1000":[["10_Ratio_1000_L_16_R_16.png","11_Ratio_1000_L_6_R_6.png","12_Ratio_1000_L_14_R_14.png","13_Ratio_1000_L_20_R_20.png","15_Ratio_1000_L_15_R_15.png","2_Ratio_1000_L_17_R_17.png","4_Ratio_1000_L_9_R_9.png","5_Ratio_1000_L_6_R_6.png","6_Ratio_1000_L_19_R_19.png","8_Ratio_1000_L_14_R_14.png","9_Ratio_1000_L_25_R_25.png"],["1_Ratio_1000_L_1_R_1.png","14_Ratio_1000_L_17_R_17.png","3_Ratio_1000_L_17_R_17.png","7_Ratio_1000_L_6_R_6.png"]]}},{"start_time":1551794833965,"click_time":1551794834860,"finger_time":1551794834520,"fix_duration":923.4879811850702,"trial":1,"RT":555,"MT":340,"sideResp":2,"stimulus":"img/500/equaldotsize/R/15_Ratio_500_L_1_R_2.png","xmouse":[805,805,805,805,805,805,805,805,805,805,805,805,805,805,805,805,805,805,805,805,805,805,805,805,805,805,807,832,848,862,893,968,1007,1033,1043,1044,1045,1047,1049,1051,1055,1058,1064,1068,1072],"ymouse":[488,488,488,488,488,488,488,488,488,488,488,488,488,488,488,488,488,488,488,488,488,488,488,488,488,488,484,437,406,378,339,272,245,229,219,211,203,176,162,151,135,125,110,103,97],"timestamp_mouse":[15,35,54,75,96,114,134,155,174,196,215,236,256,275,295,314,336,356,375,395,415,435,455,475,494,514,535,555,575,595,616,635,655,676,695,715,735,756,774,795,816,836,855,876,895],"xSR":741.5,"ySR":449.15000000000003,"xT1":424.9,"yT1":0,"xT2":1058.1,"yT2":0,"toosoon":0,"cond_shown":"equaldotsize","ratio_trial":500,"smaller_num":"1","larger_num":"2","correct_side":2,"subjID":"marianacardenassabogal29","gender":"1","age":"11","school":"6"},{"start_time":1551794836152,"click_time":1551794838519,"finger_time":1551794837320,"fix_duration":250,"trial":2,"RT":1168,"MT":1199,"sideResp":1,"stimulus":"img/900/equaldotanddens/L/4_Ratio_900_L_20_R_18.png","xmouse":[818,818,818,818,818,818,818,818,818,818,818,818,818,818,818,818,818,818,818,818,818,818,818,818,818,818,818,818,818,818,818,818,818,818,818,818,818,818,818,818,818,818,818,818,818,817,815,813,813,813,813,812,812,813,813,813,813,819,837,837,837,837,836,836,835,832,824,814,814,814,814,814,814,814,814,814,814,814,813,810,807,805,801,792,783,772,754,690,663,658,657,655,652,650,646,641,628,597,572,545,535,528,522,519,519,519,519,519,519,519,519,519,519,519,517,515,512,509,494],"ymouse":[475,475,475,475,475,475,475,475,475,475,475,475,475,475,475,475,475,475,475,475,475,475,475,475,475,475,475,475,475,475,475,475,475,475,475,475,475,475,475,475,475,475,475,475,475,468,464,459,459,459,459,459,464,467,469,469,469,465,444,441,438,435,431,431,430,430,431,432,432,432,432,432,432,432,432,432,432,432,424,398,381,362,345,310,297,281,256,196,178,172,167,164,161,159,157,153,148,135,128,122,118,115,112,111,111,111,111,111,111,111,111,111,111,111,110,109,106,105,98],"timestamp_mouse":[8,28,47,69,88,108,128,149,167,187,209,228,249,267,287,309,327,349,369,387,408,428,448,468,489,507,528,548,567,589,607,629,647,668,689,708,729,749,768,789,808,827,849,869,887,907,928,949,968,988,1008,1028,1048,1068,1089,1108,1127,1148,1168,1188,1208,1228,1248,1268,1288,1308,1328,1348,1367,1389,1408,1428,1448,1468,1488,1508,1528,1548,1568,1587,1608,1629,1648,1668,1688,1708,1728,1749,1769,1787,1808,1828,1848,1868,1889,1908,1928,1948,1967,1988,2008,2027,2048,2068,2088,2107,2128,2149,2168,2189,2208,2229,2248,2268,2287,2308,2328,2348,2367],"xSR":741.5,"ySR":449.15000000000003,"xT1":424.9,"yT1":0,"xT2":1058.1,"yT2":0,"toosoon":0,"cond_shown":"equaldotanddens","ratio_trial":900,"smaller_num":"18","larger_num":"20","correct_side":1,"subjID":"marianacardenassabogal29","gender":"1","age":"11","school":"6"},{"start_time":1551794840340,"click_time":1551794841961,"finger_time":1551794841519,"fix_duration":458.7751987776053,"trial":3,"RT":1179,"MT":442,"sideResp":2,"stimulus":"img/750/randomdotsizeEA/L/10_Ratio_750_L_4_R_3.png","xmouse":[793,793,793,793,793,793,793,793,793,793,793,793,793,793,793,793,793,793,793,793,793,793,793,793,793,793,793,793,793,793,793,793,793,793,793,793,793,793,793,793,793,793,793,793,793,793,792,792,792,792,792,792,792,792,791,794,799,808,817,843,895,941,972,995,995,994,992,992,992,997,999,999,1000,1002,1004,1006,1014,1027,1039,1050,1055,1060],"ymouse":[488,488,488,488,488,488,488,488,488,488,488,488,488,488,488,488,488,488,488,488,488,488,488,488,488,488,488,488,488,488,488,488,488,488,488,488,488,488,488,488,488,488,488,488,488,488,488,488,488,488,488,488,488,488,486,481,475,467,460,436,398,357,328,286,271,259,248,240,231,216,214,212,210,209,207,202,173,132,101,62,52,45],"timestamp_mouse":[3,21,40,60,79,100,120,140,160,181,201,219,240,260,281,299,321,340,360,381,399,419,441,460,481,501,521,541,560,580,599,619,640,661,679,700,720,740,759,779,800,821,840,860,881,901,920,940,960,981,999,1020,1040,1059,1079,1100,1120,1139,1159,1179,1200,1220,1241,1259,1279,1300,1320,1340,1360,1379,1400,1420,1440,1461,1480,1501,1520,1540,1559,1580,1600,1621],"xSR":741.5,"ySR":449.15000000000003,"xT1":424.9,"yT1":0,"xT2":1058.1,"yT2":0,"toosoon":0,"cond_shown":"randomdotsizeEA","ratio_trial":750,"smaller_num":"3","larger_num":"4","correct_side":1,"subjID":"marianacardenassabogal29","gender":"1","age":"11","school":"6"},{"start_time":1551794843730,"click_time":1551794844480,"finger_time":1551794844361,"fix_duration":869.8632435911995,"trial":4,"RT":631,"MT":119,"sideResp":2,"stimulus":"img/250/equaldotanddens/L/14_Ratio_250_L_12_R_3.png","xmouse":[809,809,809,809,809,809,809,809,809,809,809,809,809,809,809,809,809,809,809,809,809,809,809,809,809,809,809,809,809,809,828,861,902,948,1038,1078,1114,1147],"ymouse":[488,488,488,488,488,488,488,488,488,488,488,488,488,488,488,488,488,488,488,488,488,488,488,488,488,488,488,488,488,488,464,426,380,331,231,173,126,77],"timestamp_mouse":[10,30,49,69,91,110,129,151,170,191,211,230,249,270,290,310,330,351,371,389,409,431,450,470,491,509,531,550,569,589,610,631,650,669,690,711,730,750],"xSR":741.5,"ySR":449.15000000000003,"xT1":424.9,"yT1":0,"xT2":1058.1,"yT2":0,"toosoon":0,"cond_shown":"equaldotanddens","ratio_trial":250,"smaller_num":"3","larger_num":"12","correct_side":1,"subjID":"marianacardenassabogal29","gender":"1","age":"11","school":"6"},{"start_time":1551794846390,"click_time":1551794847520,"finger_time":1551794847100,"fix_duration":469.4578420485508,"trial":5,"RT":710,"MT":420,"sideResp":2,"stimulus":"img/500/equaldotanddens/R/6_Ratio_500_L_9_R_18.png","xmouse":[793,793,793,793,793,793,793,793,793,793,793,793,793,793,793,793,793,793,793,793,793,793,793,793,793,793,793,793,793,793,793,793,793,793,794,848,897,956,1003,1041,1067,1069,1069,1069,1069,1069,1072,1083,1092,1099,1111,1113,1115,1116,1117,1118,1115],"ymouse":[504,506,506,506,506,506,506,506,506,506,506,506,506,506,506,506,506,506,506,506,506,506,506,506,506,506,506,506,506,506,506,506,506,506,506,464,422,372,334,301,269,266,266,266,266,266,262,239,221,204,182,177,173,168,160,121,98],"timestamp_mouse":[18,31,49,69,90,110,129,151,171,190,210,230,251,270,291,310,329,351,371,389,410,430,451,470,490,509,530,550,569,589,610,631,649,671,690,710,731,749,770,790,810,830,850,870,891,910,930,950,970,990,1010,1030,1051,1070,1090,1110,1129],"xSR":741.5,"ySR":449.15000000000003,"xT1":424.9,"yT1":0,"xT2":1058.1,"yT2":0,"toosoon":0,"cond_shown":"equaldotanddens","ratio_trial":500,"smaller_num":"9","larger_num":"18","correct_side":2,"subjID":"marianacardenassabogal29","gender":"1","age":"11","school":"6"},{"start_time":1551794849550,"click_time":1551794851000,"finger_time":1551794850660,"fix_duration":250,"trial":6,"RT":1110,"MT":340,"sideResp":2,"stimulus":"img/750/equaldotsize/R/4_Ratio_750_L_15_R_20.png","xmouse":[813,813,813,813,813,813,813,813,813,813,813,813,813,813,813,813,813,813,813,813,813,813,813,813,813,813,813,813,813,813,813,813,813,813,813,813,813,813,813,813,813,813,813,813,813,813,813,813,813,813,813,813,815,827,837,849,863,909,935,950,964,983,1004,1028,1032,1036,1039,1048,1056,1062,1067,1070,1073],"ymouse":[512,512,512,512,512,512,512,512,512,512,512,512,512,512,512,512,512,512,512,512,512,512,512,512,512,512,512,512,512,512,512,512,512,512,512,512,512,512,512,512,512,512,512,512,512,512,512,512,512,512,512,512,512,514,514,512,503,452,401,373,349,329,309,276,262,252,244,212,181,157,135,114,86],"timestamp_mouse":[11,31,50,69,90,109,130,150,171,190,210,231,249,271,290,310,329,349,371,390,411,431,450,471,490,511,529,549,570,590,610,631,649,670,689,709,731,750,770,789,810,831,851,870,891,909,929,950,971,989,1010,1030,1049,1070,1090,1110,1129,1150,1171,1190,1210,1230,1249,1269,1290,1311,1331,1350,1370,1390,1410,1430,1450],"xSR":741.5,"ySR":449.15000000000003,"xT1":424.9,"yT1":0,"xT2":1058.1,"yT2":0,"toosoon":0,"cond_shown":"equaldotsize","ratio_trial":750,"smaller_num":"15","larger_num":"20","correct_side":2,"subjID":"marianacardenassabogal29","gender":"1","age":"11","school":"6"},{"start_time":1551794853350,"click_time":1551794854640,"finger_time":1551794854139,"fix_duration":250,"trial":7,"RT":789,"MT":501,"sideResp":2,"stimulus":"img/500/equaldotsize/R/9_Ratio_500_L_2_R_4.png","xmouse":[757,757,757,757,757,757,757,757,757,757,757,757,757,757,757,757,757,758,758,758,758,758,758,758,758,758,758,758,758,758,758,758,758,758,758,758,758,758,769,848,937,1034,1190,1233,1266,1286,1301,1313,1311,1305,1301,1301,1301,1301,1274,1239,1205,1177,1177,1176,1176,1176,1176,1162,1155],"ymouse":[476,476,476,476,476,476,476,476,476,476,476,476,476,476,476,476,477,477,477,477,477,477,477,477,477,477,477,477,477,477,477,477,477,477,477,477,477,477,475,423,364,299,204,178,154,132,104,55,25,9,3,3,3,3,11,36,55,72,72,72,72,72,72,52,38],"timestamp_mouse":[10,31,50,70,90,111,129,149,170,189,211,230,251,270,291,310,331,350,371,391,409,430,451,470,491,509,529,550,571,589,610,630,651,669,689,710,729,750,771,789,810,830,849,870,890,910,930,950,971,989,1011,1030,1051,1070,1090,1109,1131,1150,1170,1191,1210,1230,1250,1270,1290],"xSR":741.5,"ySR":449.15000000000003,"xT1":424.9,"yT1":0,"xT2":1058.1,"yT2":0,"toosoon":0,"cond_shown":"equaldotsize","ratio_trial":500,"smaller_num":"2","larger_num":"4","correct_side":2,"subjID":"marianacardenassabogal29","gender":"1","age":"11","school":"6"},{"start_time":1551794857105,"click_time":1551794858120,"finger_time":1551794857819,"fix_duration":1405.0539011694402,"trial":8,"RT":714,"MT":301,"sideResp":2,"stimulus":"img/250/equaldotanddens/R/10_Ratio_250_L_4_R_16.png","xmouse":[759,759,759,759,759,759,759,759,759,759,759,759,759,759,759,759,759,759,759,759,759,759,759,759,759,759,759,759,759,759,759,759,759,759,773,826,858,881,905,932,993,1023,1051,1070,1098,1105,1112,1118,1124,1130,1144],"ymouse":[486,486,486,486,486,486,486,486,486,486,486,486,486,486,486,486,486,486,486,486,486,486,486,486,486,486,486,486,486,486,486,486,486,486,478,449,437,427,414,397,345,313,280,261,221,198,176,157,135,112,63],"timestamp_mouse":[17,35,55,75,95,114,135,156,174,195,215,235,256,275,294,315,334,355,376,395,414,434,455,474,496,515,536,555,576,596,615,634,655,675,694,714,736,756,775,794,815,835,855,876,895,915,936,954,975,996,1015],"xSR":741.5,"ySR":449.15000000000003,"xT1":424.9,"yT1":0,"xT2":1058.1,"yT2":0,"toosoon":0,"cond_shown":"equaldotanddens","ratio_trial":250,"smaller_num":"4","larger_num":"16","correct_side":2,"subjID":"marianacardenassabogal29","gender":"1","age":"11","school":"6"},{"start_time":1551794859224,"click_time":1551794860381,"finger_time":1551794860181,"fix_duration":262.75364107752455,"trial":9,"RT":957,"MT":200,"sideResp":2,"stimulus":"img/750/equaldotanddens/R/3_Ratio_750_L_15_R_20.png","xmouse":[812,812,812,812,812,812,812,812,812,812,812,812,812,812,812,812,812,812,812,812,812,812,812,812,812,812,812,812,812,812,812,812,812,812,812,812,812,812,812,812,812,812,812,812,812,812,831,870,903,964,980,995,1004,1018,1039,1056,1075,1086],"ymouse":[479,479,479,479,479,479,479,479,479,479,479,479,479,479,479,479,479,479,479,479,479,479,479,479,479,479,479,479,479,479,479,479,479,479,479,479,479,479,479,479,479,479,479,479,479,479,450,405,369,279,252,231,215,190,162,142,117,96],"timestamp_mouse":[17,36,56,76,95,115,136,157,175,195,215,236,255,277,297,316,336,356,376,395,416,436,456,476,496,516,536,557,575,597,617,637,655,677,696,717,735,756,777,797,816,837,855,876,896,916,937,957,976,996,1017,1036,1056,1076,1096,1115,1136,1157],"xSR":741.5,"ySR":449.15000000000003,"xT1":424.9,"yT1":0,"xT2":1058.1,"yT2":0,"toosoon":0,"cond_shown":"equaldotanddens","ratio_trial":750,"smaller_num":"15","larger_num":"20","correct_side":2,"subjID":"marianacardenassabogal29","gender":"1","age":"11","school":"6"},{"start_time":1551794861892,"click_time":1551794863079,"finger_time":1551794862799,"fix_duration":490.83254918043286,"trial":10,"RT":907,"MT":280,"sideResp":2,"stimulus":"img/500/randomdotsizeEA/L/11_Ratio_500_L_12_R_6.png","xmouse":[781,780,779,779,779,779,779,779,779,779,779,779,779,779,779,779,779,779,779,779,779,779,779,779,779,779,779,779,779,779,779,779,779,779,779,779,779,779,779,779,779,779,779,782,792,819,894,919,940,961,998,1026,1042,1057,1065,1072,1095,1108,1125,1132],"ymouse":[475,476,477,477,477,477,477,477,477,477,477,477,477,477,477,477,477,477,477,477,477,477,477,477,477,477,477,477,477,477,477,477,477,477,477,477,477,477,477,477,477,477,477,473,463,446,406,392,375,354,308,262,242,226,214,201,165,136,101,70],"timestamp_mouse":[8,29,49,68,88,109,127,149,168,189,208,228,247,269,288,308,328,349,369,388,408,428,447,467,487,508,528,548,567,587,608,627,648,668,688,708,728,748,769,788,808,828,849,869,889,907,928,948,969,989,1008,1028,1047,1069,1088,1108,1128,1148,1168,1187],"xSR":741.5,"ySR":449.15000000000003,"xT1":424.9,"yT1":0,"xT2":1058.1,"yT2":0,"toosoon":0,"cond_shown":"randomdotsizeEA","ratio_trial":500,"smaller_num":"6","larger_num":"12","correct_side":1,"subjID":"marianacardenassabogal29","gender":"1","age":"11","school":"6"},{"start_time":1551794866481,"click_time":1551794868360,"finger_time":1551794868140,"fix_duration":620.9440204198849,"trial":11,"RT":1659,"MT":220,"sideResp":1,"stimulus":"img/250/randomdotsizeEA/L/2_Ratio_250_L_16_R_4.png","xmouse":[791,791,791,791,791,791,791,791,791,791,791,791,791,791,791,791,791,791,791,791,791,791,791,791,791,791,791,791,791,791,791,791,791,791,791,791,791,791,791,791,791,791,791,791,791,791,791,791,791,791,791,791,791,791,791,791,791,791,791,791,791,791,791,791,791,791,791,791,790,790,790,790,790,790,790,790,796,802,807,813,815,815,804,794,781,759,721,703,688,676,645,592,555,518],"ymouse":[495,495,495,495,495,495,495,495,495,495,495,495,495,495,495,495,495,495,495,495,495,495,495,495,495,495,495,495,495,495,495,495,495,495,495,495,495,495,495,495,495,495,495,495,495,495,495,495,495,495,495,495,495,495,495,495,495,495,495,495,495,495,495,495,495,495,495,495,497,498,498,498,498,498,498,499,500,493,486,476,458,450,434,424,416,405,379,364,349,331,262,164,119,87],"timestamp_mouse":[18,38,59,80,99,119,139,159,178,199,218,239,260,278,300,319,338,359,380,399,419,438,459,480,500,518,538,558,579,599,619,639,660,678,698,719,740,760,778,799,818,839,859,880,898,920,940,959,979,998,1020,1040,1059,1079,1100,1119,1138,1160,1179,1199,1220,1239,1259,1279,1298,1320,1339,1359,1379,1398,1418,1439,1460,1480,1500,1519,1539,1559,1579,1600,1619,1638,1659,1679,1700,1720,1739,1759,1780,1800,1819,1838,1858,1879],"xSR":741.5,"ySR":449.15000000000003,"xT1":424.9,"yT1":0,"xT2":1058.1,"yT2":0,"toosoon":0,"cond_shown":"randomdotsizeEA","ratio_trial":250,"smaller_num":"4","larger_num":"16","correct_side":1,"subjID":"marianacardenassabogal29","gender":"1","age":"11","school":"6"},{"start_time":1551794869611,"click_time":1551794870641,"finger_time":1551794870119,"fix_duration":250,"trial":12,"RT":508,"MT":522,"sideResp":1,"stimulus":"img/250/equaldotanddens/L/3_Ratio_250_L_8_R_2.png","xmouse":[818,818,818,818,818,818,818,818,818,818,818,818,818,818,818,818,818,818,818,818,818,818,818,809,804,751,701,663,634,609,602,598,595,593,589,579,571,561,557,555,547,536,526,519,514,509,508,507,507,506,504,503],"ymouse":[511,511,511,511,511,511,511,511,511,511,511,511,511,511,511,511,511,511,511,511,511,511,511,504,497,423,345,285,244,199,183,174,166,162,153,140,132,127,124,123,120,117,113,110,107,104,103,102,102,101,100,98],"timestamp_mouse":[8,29,50,70,88,109,129,149,170,189,208,229,250,268,290,309,328,349,370,389,410,430,449,469,489,508,529,549,569,589,610,629,648,669,690,709,729,749,769,789,809,829,849,869,889,910,929,950,969,989,1009,1030],"xSR":741.5,"ySR":449.15000000000003,"xT1":424.9,"yT1":0,"xT2":1058.1,"yT2":0,"toosoon":0,"cond_shown":"equaldotanddens","ratio_trial":250,"smaller_num":"2","larger_num":"8","correct_side":1,"subjID":"marianacardenassabogal29","gender":"1","age":"11","school":"6"},{"start_time":1551794872897,"click_time":1551794874101,"finger_time":1551794873640,"fix_duration":414.4932357467781,"trial":13,"RT":743,"MT":461,"sideResp":2,"stimulus":"img/750/equaldotanddens/R/12_Ratio_750_L_3_R_4.png","xmouse":[813,813,813,813,813,813,813,813,813,813,813,813,813,813,813,813,813,813,813,813,813,813,813,813,813,813,813,813,813,813,813,813,813,813,813,817,839,857,876,891,919,947,965,982,994,1002,1018,1025,1030,1037,1049,1066,1078,1087,1092,1099,1102,1106,1108,1112,1119],"ymouse":[534,534,534,534,534,534,534,534,534,534,534,534,534,534,534,534,534,534,534,534,534,534,534,534,534,534,534,534,534,534,534,534,534,534,534,527,499,474,452,433,391,345,316,291,267,247,211,195,185,174,158,140,132,127,124,119,117,114,112,107,96],"timestamp_mouse":[4,25,43,63,82,103,124,143,163,183,202,222,243,264,284,303,324,343,364,382,403,423,442,462,483,503,524,543,563,584,603,623,643,663,682,703,723,743,763,783,803,822,843,863,882,903,923,944,964,982,1004,1024,1043,1063,1083,1103,1123,1143,1164,1182,1203],"xSR":741.5,"ySR":449.15000000000003,"xT1":424.9,"yT1":0,"xT2":1058.1,"yT2":0,"toosoon":0,"cond_shown":"equaldotanddens","ratio_trial":750,"smaller_num":"3","larger_num":"4","correct_side":2,"subjID":"marianacardenassabogal29","gender":"1","age":"11","school":"6"},{"start_time":1551794875812,"click_time":1551794877320,"finger_time":1551794876720,"fix_duration":491.9335986511597,"trial":14,"RT":908,"MT":600,"sideResp":2,"stimulus":"img/900/equaldotanddens/R/6_Ratio_900_L_9_R_10.png","xmouse":[746,746,746,746,746,746,746,746,746,746,746,746,746,746,746,746,746,746,746,746,746,746,746,746,746,746,746,746,746,746,746,746,746,744,743,742,742,742,742,742,742,742,742,750,761,878,925,949,960,971,974,978,980,984,1001,1034,1077,1132,1185,1222,1225,1226,1231,1236,1239,1233,1229,1228,1228,1228,1227,1227,1223,1215,1199,1151],"ymouse":[480,480,480,480,480,480,480,480,480,480,480,480,480,480,480,480,480,480,480,480,480,480,480,480,480,480,480,480,480,480,480,480,480,480,480,480,480,480,480,480,480,480,480,469,457,357,314,291,278,261,258,255,253,249,232,215,197,178,158,136,129,123,115,105,89,48,41,38,38,38,38,38,38,38,38,38],"timestamp_mouse":[9,28,48,67,89,108,128,149,169,188,208,228,249,267,289,308,328,348,368,388,408,428,448,468,488,508,529,548,568,588,607,628,648,668,688,707,728,747,767,787,808,828,847,868,889,908,928,949,968,988,1007,1028,1049,1068,1088,1109,1128,1149,1168,1188,1208,1228,1248,1268,1287,1309,1328,1348,1368,1388,1408,1428,1447,1469,1489,1508],"xSR":741.5,"ySR":449.15000000000003,"xT1":424.9,"yT1":0,"xT2":1058.1,"yT2":0,"toosoon":0,"cond_shown":"equaldotanddens","ratio_trial":900,"smaller_num":"9","larger_num":"10","correct_side":2,"subjID":"marianacardenassabogal29","gender":"1","age":"11","school":"6"},{"start_time":1551794896512,"click_time":1551794897580,"finger_time":1551794897181,"fix_duration":250,"trial":15,"RT":669,"MT":399,"sideResp":2,"stimulus":"img/750/equaldotsize/R/11_Ratio_750_L_12_R_16.png","xmouse":[782,782,782,782,782,782,782,782,782,782,782,782,782,782,782,782,782,782,782,782,782,782,782,782,782,782,782,782,782,782,786,805,824,850,932,973,1001,1018,1026,1026,1026,1025,1024,1024,1024,1025,1027,1030,1031,1041,1051,1056,1063,1071],"ymouse":[490,490,490,490,490,490,490,490,490,490,490,490,490,490,490,490,490,490,490,490,490,490,490,490,490,490,490,490,490,490,486,479,469,455,406,372,338,302,265,213,195,182,177,177,164,157,150,147,143,130,122,117,106,98],"timestamp_mouse":[8,28,48,67,88,109,128,148,168,189,209,228,248,268,289,308,328,348,367,388,408,429,448,469,488,508,529,548,568,588,609,628,649,669,689,708,728,749,769,789,808,828,848,868,889,909,928,949,968,989,1008,1028,1048,1068],"xSR":741.5,"ySR":449.15000000000003,"xT1":424.9,"yT1":0,"xT2":1058.1,"yT2":0,"toosoon":0,"cond_shown":"equaldotsize","ratio_trial":750,"smaller_num":"12","larger_num":"16","correct_side":2,"subjID":"marianacardenassabogal29","gender":"1","age":"11","school":"6"},{"start_time":1551794898939,"click_time":1551794899940,"finger_time":1551794899600,"fix_duration":497.41943680842394,"trial":16,"RT":661,"MT":340,"sideResp":2,"stimulus":"img/250/equaldotsize/R/10_Ratio_250_L_4_R_16.png","xmouse":[789,789,789,789,789,789,789,789,789,789,789,789,789,789,789,789,789,789,789,789,789,789,789,789,789,789,789,789,789,789,789,789,799,859,898,934,972,1001,1023,1024,1024,1024,1024,1023,1022,1022,1022,1022,1022,1043,1066],"ymouse":[509,509,509,509,509,509,509,509,509,509,509,509,509,509,509,509,509,509,509,509,509,509,509,509,509,509,509,509,509,509,509,505,493,429,376,298,224,166,94,80,78,76,72,68,58,56,55,55,54,48,42],"timestamp_mouse":[4,21,41,61,82,101,122,140,161,182,200,222,242,262,282,301,321,342,361,380,401,422,441,462,481,502,520,542,561,581,601,622,641,661,681,702,721,742,762,780,801,821,841,861,880,902,921,942,962,981,1001],"xSR":741.5,"ySR":449.15000000000003,"xT1":424.9,"yT1":0,"xT2":1058.1,"yT2":0,"toosoon":0,"cond_shown":"equaldotsize","ratio_trial":250,"smaller_num":"4","larger_num":"16","correct_side":2,"subjID":"marianacardenassabogal29","gender":"1","age":"11","school":"6"},{"start_time":1551794906852,"click_time":1551794907740,"finger_time":1551794907400,"fix_duration":412.79172582740443,"trial":17,"RT":548,"MT":340,"sideResp":2,"stimulus":"img/900/equaldotanddens/R/15_Ratio_900_L_9_R_10.png","xmouse":[793,793,793,793,793,793,793,793,793,793,793,793,793,793,793,793,793,793,793,793,793,793,793,795,797,800,802,806,810,813,820,825,837,847,855,864,876,885,935,973,994,1011,1023,1052,1060],"ymouse":[473,473,473,473,473,473,473,473,473,473,473,473,473,473,473,473,473,473,473,473,473,473,473,472,469,465,458,443,433,423,405,389,361,338,324,312,293,276,199,145,108,83,70,51,47],"timestamp_mouse":[9,28,49,68,88,109,129,147,168,188,209,228,248,268,288,308,328,348,368,389,408,428,448,468,488,508,529,548,568,588,608,629,649,668,688,708,729,748,768,788,808,829,849,868,888],"xSR":741.5,"ySR":449.15000000000003,"xT1":424.9,"yT1":0,"xT2":1058.1,"yT2":0,"toosoon":0,"cond_shown":"equaldotanddens","ratio_trial":900,"smaller_num":"9","larger_num":"10","correct_side":2,"subjID":"marianacardenassabogal29","gender":"1","age":"11","school":"6"},{"start_time":1551794909291,"click_time":1551794910200,"finger_time":1551794909880,"fix_duration":749.5241436288486,"trial":18,"RT":589,"MT":320,"sideResp":1,"stimulus":"img/750/equaldotsize/L/13_Ratio_750_L_8_R_6.png","xmouse":[789,789,789,789,789,789,789,789,789,789,789,789,789,789,789,790,792,792,793,793,793,793,793,793,793,793,793,793,793,793,793,793,791,789,788,783,738,705,682,658,639,600,574,558,538,511],"ymouse":[471,471,471,471,471,471,471,471,471,471,471,471,471,471,468,465,455,453,453,453,453,453,453,453,453,453,453,453,450,446,434,426,419,416,414,411,404,400,392,378,358,272,187,130,81,32],"timestamp_mouse":[10,29,49,69,89,109,129,149,169,189,209,230,249,269,289,310,329,349,369,388,409,430,449,469,488,510,530,550,569,589,610,630,649,668,688,709,729,749,770,789,808,829,849,870,889,909],"xSR":741.5,"ySR":449.15000000000003,"xT1":424.9,"yT1":0,"xT2":1058.1,"yT2":0,"toosoon":0,"cond_shown":"equaldotsize","ratio_trial":750,"smaller_num":"6","larger_num":"8","correct_side":1,"subjID":"marianacardenassabogal29","gender":"1","age":"11","school":"6"},{"start_time":1551794912654,"click_time":1551794914500,"finger_time":1551794913581,"fix_duration":1354.244268404317,"trial":19,"RT":927,"MT":919,"sideResp":2,"stimulus":"img/750/randomdotsizeEA/L/14_Ratio_750_L_8_R_6.png","xmouse":[802,802,802,802,802,802,802,802,802,802,802,802,802,802,802,802,802,802,802,802,802,802,802,802,802,802,802,802,802,802,802,802,802,802,802,802,802,802,802,802,802,802,802,809,823,839,856,880,934,956,971,978,979,979,978,978,978,985,999,1013,1024,1033,1042,1045,1054,1063,1074,1079,1083,1087,1097,1120,1195,1238,1251,1251,1251,1251,1251,1251,1251,1251,1251,1251,1251,1251,1251,1251,1251,1251,1251,1251,1104],"ymouse":[516,516,516,516,516,516,516,516,516,516,516,516,516,516,516,516,516,516,516,516,516,516,516,516,516,516,516,516,516,516,516,516,516,516,516,516,516,516,516,516,516,516,516,514,508,499,485,462,397,364,343,320,301,270,260,256,253,246,242,234,226,216,202,198,193,191,189,188,184,178,174,155,92,47,21,21,21,21,21,21,21,21,21,21,21,21,21,21,21,21,21,21,31],"timestamp_mouse":[7,26,46,65,87,106,126,146,167,186,206,226,246,266,286,307,326,346,366,386,407,426,446,466,487,506,526,545,566,586,606,626,646,666,687,706,726,746,767,787,805,827,846,867,885,907,927,946,966,985,1006,1027,1047,1066,1086,1106,1125,1147,1166,1186,1206,1226,1247,1266,1286,1307,1326,1346,1366,1386,1406,1426,1447,1466,1487,1507,1526,1546,1566,1587,1606,1627,1646,1667,1686,1706,1726,1747,1767,1787,1806,1826,1846],"xSR":741.5,"ySR":449.15000000000003,"xT1":424.9,"yT1":0,"xT2":1058.1,"yT2":0,"toosoon":0,"cond_shown":"randomdotsizeEA","ratio_trial":750,"smaller_num":"6","larger_num":"8","correct_side":1,"subjID":"marianacardenassabogal29","gender":"1","age":"11","school":"6"},{"start_time":1551794942613,"click_time":1551794943400,"finger_time":1551794943140,"fix_duration":251.29873702778383,"trial":20,"RT":527,"MT":260,"sideResp":2,"stimulus":"img/250/equaldotanddens/R/12_Ratio_250_L_5_R_20.png","xmouse":[783,783,783,783,783,783,783,783,783,783,783,783,783,783,783,783,783,783,784,784,784,784,784,785,788,809,834,856,889,981,1030,1063,1082,1094,1109,1110,1110,1110,1103,1094],"ymouse":[488,488,488,488,488,488,488,488,488,488,488,488,488,488,488,488,488,484,483,483,482,481,480,478,474,461,447,441,431,389,352,323,302,282,240,185,152,127,108,91],"timestamp_mouse":[7,27,48,67,87,107,128,148,166,188,208,228,248,268,286,307,327,348,366,387,407,427,447,467,487,507,527,547,567,587,607,627,648,667,688,707,727,747,767,787],"xSR":741.5,"ySR":449.15000000000003,"xT1":424.9,"yT1":0,"xT2":1058.1,"yT2":0,"toosoon":0,"cond_shown":"equaldotanddens","ratio_trial":250,"smaller_num":"5","larger_num":"20","correct_side":2,"subjID":"marianacardenassabogal29","gender":"1","age":"11","school":"6"},{"start_time":1551794949256,"click_time":1551794950560,"finger_time":1551794950020,"fix_duration":1135.5479775923682,"trial":21,"RT":764,"MT":540,"sideResp":1,"stimulus":"img/500/randomdotsizeEA/R/2_Ratio_500_L_3_R_6.png","xmouse":[826,826,826,826,826,826,826,826,826,826,826,826,826,826,826,826,826,826,826,826,826,826,826,826,826,826,827,827,827,827,827,827,827,827,827,826,825,819,770,713,656,598,484,426,392,358,331,325,325,325,324,341,341,341,341,341,341,341,341,341,341,341,341,341,341,502],"ymouse":[486,486,485,485,485,485,485,485,485,485,485,485,485,485,485,485,485,485,485,485,485,485,485,485,485,485,484,483,478,477,477,477,477,477,477,477,475,469,446,420,395,361,250,161,102,53,21,14,14,14,14,5,5,5,5,5,5,5,5,5,5,5,5,5,5,9],"timestamp_mouse":[3,24,43,64,84,104,125,144,164,183,204,224,244,264,284,304,324,345,364,384,405,424,444,464,484,504,524,545,565,583,605,624,643,665,685,703,725,744,764,784,804,824,845,864,883,904,924,944,965,984,1004,1025,1045,1065,1083,1104,1124,1145,1164,1183,1204,1224,1244,1265,1284,1304],"xSR":741.5,"ySR":449.15000000000003,"xT1":424.9,"yT1":0,"xT2":1058.1,"yT2":0,"toosoon":0,"cond_shown":"randomdotsizeEA","ratio_trial":500,"smaller_num":"3","larger_num":"6","correct_side":2,"subjID":"marianacardenassabogal29","gender":"1","age":"11","school":"6"},{"start_time":1551794956006,"click_time":1551794957340,"finger_time":1551794956520,"fix_duration":585.2411088049439,"trial":22,"RT":514,"MT":820,"sideResp":1,"stimulus":"img/750/equaldotanddens/L/9_Ratio_750_L_4_R_3.png","xmouse":[789,789,789,789,790,786,781,779,779,779,779,779,779,779,778,778,778,779,780,781,784,788,793,796,805,806,806,807,807,808,809,809,810,811,815,827,834,843,856,881,888,891,892,892,881,872,855,826,802,772,761,753,747,741,723,700,676,644,616,593,577,577,577,577,563,528,502],"ymouse":[479,479,479,479,480,480,480,480,480,480,480,480,480,480,480,480,480,478,477,475,472,467,464,461,450,448,448,447,447,446,445,444,443,441,436,420,406,389,373,352,342,329,316,301,230,215,186,148,116,83,74,70,67,67,64,61,58,49,41,37,34,34,34,34,32,29,28],"timestamp_mouse":[14,35,54,73,93,114,134,153,174,194,214,234,255,273,293,314,334,355,374,393,414,434,453,473,494,514,533,553,574,594,614,633,654,674,694,713,734,754,775,795,813,834,855,874,893,914,934,955,974,995,1014,1035,1055,1073,1095,1114,1134,1154,1173,1193,1214,1234,1253,1273,1294,1313,1334],"xSR":741.5,"ySR":449.15000000000003,"xT1":424.9,"yT1":0,"xT2":1058.1,"yT2":0,"toosoon":0,"cond_shown":"equaldotanddens","ratio_trial":750,"smaller_num":"3","larger_num":"4","correct_side":1,"subjID":"marianacardenassabogal29","gender":"1","age":"11","school":"6"},{"start_time":1551794959308,"click_time":1551794960801,"finger_time":1551794960240,"fix_duration":607.3880406037274,"trial":23,"RT":932,"MT":561,"sideResp":1,"stimulus":"img/750/randomdotsizeEA/R/3_Ratio_750_L_15_R_20.png","xmouse":[782,782,782,782,782,782,782,782,782,782,782,782,782,782,782,782,782,782,782,782,782,782,782,782,782,782,782,782,782,782,782,782,782,782,782,782,782,782,782,782,782,782,782,782,782,784,787,790,797,805,805,805,800,794,786,774,765,755,748,748,748,748,748,748,748,748,748,748,748,748,748,748,748,479,469],"ymouse":[533,533,533,533,533,533,533,533,533,533,533,533,533,533,533,533,533,533,533,533,533,533,533,533,533,533,533,533,533,533,533,533,533,533,533,533,533,533,533,533,531,516,499,484,462,450,432,408,367,226,177,130,112,95,77,51,33,16,4,4,4,4,4,4,4,4,4,4,4,4,4,4,4,0,9],"timestamp_mouse":[15,31,52,72,91,112,132,153,171,193,212,232,252,271,293,312,332,351,372,392,411,431,453,473,491,512,532,552,572,593,613,633,652,671,691,712,733,751,771,793,812,832,851,873,892,911,932,951,973,993,1012,1032,1052,1071,1092,1112,1133,1152,1173,1192,1212,1232,1253,1273,1293,1311,1331,1352,1372,1393,1412,1433,1452,1471,1492],"xSR":741.5,"ySR":449.15000000000003,"xT1":424.9,"yT1":0,"xT2":1058.1,"yT2":0,"toosoon":0,"cond_shown":"randomdotsizeEA","ratio_trial":750,"smaller_num":"15","larger_num":"20","correct_side":2,"subjID":"marianacardenassabogal29","gender":"1","age":"11","school":"6"},{"start_time":1551794963922,"click_time":1551794965701,"finger_time":1551794964320,"fix_duration":660.4005319476378,"trial":24,"RT":398,"MT":1381,"sideResp":2,"stimulus":"img/750/equaldotanddens/R/15_Ratio_750_L_9_R_12.png","xmouse":[788,787,784,778,775,775,775,775,775,775,775,775,773,769,767,763,758,754,745,736,730,727,725,723,704,689,676,669,667,667,667,667,667,679,700,734,762,782,799,799,799,799,799,799,799,799,799,799,800,819,863,887,899,902,902,902,902,902,902,916,930,945,962,976,987,988,989,992,1012,1040,1059,1074,1084,1088,1094,1094,1085,1077,1058,1054,1050,1050,1053,1056,1061,1063,1064,1066,1075],"ymouse":[467,481,491,499,504,504,504,504,504,504,504,504,504,504,504,505,510,519,539,545,546,546,546,546,530,521,514,510,508,508,508,508,508,496,485,475,467,464,461,461,461,461,461,461,461,461,461,461,461,454,440,438,438,438,438,438,437,437,433,414,403,393,382,376,374,374,374,371,358,353,349,344,337,325,277,249,227,207,174,160,141,130,121,112,104,103,103,102,98],"timestamp_mouse":[17,37,59,79,97,117,139,158,178,198,218,238,257,277,298,318,337,358,377,398,418,438,458,477,497,518,537,557,578,598,619,637,657,679,698,718,739,758,778,798,817,837,858,878,898,918,938,957,977,998,1018,1038,1058,1078,1098,1119,1139,1159,1178,1198,1218,1238,1257,1278,1298,1318,1339,1359,1379,1398,1417,1438,1458,1478,1498,1518,1538,1558,1579,1598,1618,1637,1658,1678,1698,1717,1738,1758,1779],"xSR":741.5,"ySR":449.15000000000003,"xT1":424.9,"yT1":0,"xT2":1058.1,"yT2":0,"toosoon":0,"cond_shown":"equaldotanddens","ratio_trial":750,"smaller_num":"9","larger_num":"12","correct_side":2,"subjID":"marianacardenassabogal29","gender":"1","age":"11","school":"6"},{"start_time":1551794976276,"click_time":1551794977120,"finger_time":1551794977081,"fix_duration":695.3042050282922,"trial":25,"RT":805,"MT":39,"sideResp":2,"stimulus":"img/500/equaldotanddens/R/6_Ratio_500_L_9_R_18.png","xmouse":[794,794,794,794,794,794,794,794,794,794,794,794,794,794,794,794,794,794,794,794,794,794,794,794,794,794,794,794,794,794,794,794,794,795,804,812,813,814,819,831,863,997,1141],"ymouse":[502,502,502,502,502,502,502,502,502,502,502,502,502,502,502,502,502,502,502,502,502,502,502,502,502,502,502,502,502,502,502,502,502,501,501,501,501,501,494,470,411,204,36],"timestamp_mouse":[16,29,43,64,85,103,125,143,165,185,203,225,245,263,284,304,324,343,365,383,404,424,444,463,483,505,524,543,564,585,603,625,645,663,685,705,724,743,764,785,805,824,844],"xSR":741.5,"ySR":449.15000000000003,"xT1":424.9,"yT1":0,"xT2":1058.1,"yT2":0,"toosoon":0,"cond_shown":"equaldotanddens","ratio_trial":500,"smaller_num":"9","larger_num":"18","correct_side":2,"subjID":"marianacardenassabogal29","gender":"1","age":"11","school":"6"},{"start_time":1551794980252,"click_time":1551794981501,"finger_time":1551794981081,"fix_duration":252.99071722637302,"trial":26,"RT":829,"MT":420,"sideResp":2,"stimulus":"img/750/equaldotsize/R/2_Ratio_750_L_6_R_8.png","xmouse":[799,799,799,799,799,799,799,799,799,799,799,799,799,799,799,799,799,799,799,799,799,799,799,799,799,799,799,799,799,799,799,799,799,799,799,799,799,802,811,818,830,846,864,894,924,948,974,1015,1023,1023,1023,1023,1023,1023,1023,1023,1023,1023,1023,1023,1023,1023,1078],"ymouse":[538,538,538,538,538,538,538,538,538,538,538,538,538,538,538,538,538,538,538,538,538,538,538,538,538,538,538,538,538,538,538,538,538,538,538,538,538,531,517,495,457,395,340,258,184,135,92,18,1,1,1,1,1,1,1,1,1,1,1,1,1,1,3],"timestamp_mouse":[8,29,48,67,87,108,128,148,168,188,207,227,248,267,289,307,327,348,369,387,408,428,448,468,489,507,529,548,567,589,607,628,647,667,687,708,729,748,768,787,809,829,848,868,888,909,927,948,969,988,1009,1028,1048,1067,1087,1109,1129,1149,1169,1188,1208,1229,1249],"xSR":741.5,"ySR":449.15000000000003,"xT1":424.9,"yT1":0,"xT2":1058.1,"yT2":0,"toosoon":0,"cond_shown":"equaldotsize","ratio_trial":750,"smaller_num":"6","larger_num":"8","correct_side":2,"subjID":"marianacardenassabogal29","gender":"1","age":"11","school":"6"},{"start_time":1551794983545,"click_time":1551794984680,"finger_time":1551794984419,"fix_duration":1103.443695310836,"trial":27,"RT":874,"MT":261,"sideResp":1,"stimulus":"img/500/randomdotsizeEA/L/7_Ratio_500_L_10_R_5.png","xmouse":[805,805,805,805,805,805,805,805,805,805,805,805,805,805,805,805,805,805,805,805,805,805,805,805,805,805,805,805,805,805,805,805,805,805,805,805,805,805,805,805,805,807,812,814,816,816,817,818,820,821,823,823,810,771,711,628,514],"ymouse":[477,477,477,476,476,476,475,475,475,475,475,475,475,475,475,475,475,475,475,475,475,475,475,475,475,475,475,475,475,475,475,475,475,475,475,475,475,475,475,475,471,466,452,446,443,441,440,438,433,428,420,408,357,295,230,143,24],"timestamp_mouse":[15,35,54,75,95,115,135,155,175,195,214,235,256,276,294,315,336,355,374,395,415,434,455,475,494,514,536,556,575,594,615,636,654,675,695,715,734,755,776,794,816,836,854,874,894,916,936,955,975,995,1014,1036,1056,1075,1096,1115,1135],"xSR":741.5,"ySR":449.15000000000003,"xT1":424.9,"yT1":0,"xT2":1058.1,"yT2":0,"toosoon":0,"cond_shown":"randomdotsizeEA","ratio_trial":500,"smaller_num":"5","larger_num":"10","correct_side":1,"subjID":"marianacardenassabogal29","gender":"1","age":"11","school":"6"},{"start_time":1551795005895,"click_time":1551795007361,"finger_time":1551795006660,"fix_duration":814.4128493105121,"trial":28,"RT":765,"MT":701,"sideResp":2,"stimulus":"img/750/randomdotsizeEA/L/14_Ratio_750_L_8_R_6.png","xmouse":[777,777,777,777,777,777,777,777,777,777,777,777,777,777,777,777,777,777,777,777,777,777,777,777,777,777,777,777,777,777,777,777,777,779,785,807,815,822,830,842,862,932,955,979,996,1014,1021,1031,1044,1049,1051,1050,1050,1050,1054,1070,1140,1201,1243,1259,1259,1259,1259,1259,1259,1259,1259,1259,1259,1259,1259,1259,1259,1132],"ymouse":[518,518,518,518,518,518,518,518,518,518,518,518,518,518,518,518,518,518,518,518,518,518,518,518,518,518,518,518,518,518,518,518,518,518,512,490,471,452,438,420,406,361,344,330,318,303,289,271,242,220,201,192,192,192,191,191,154,101,53,0,0,0,0,0,0,0,0,0,0,0,0,0,0,13],"timestamp_mouse":[5,28,44,65,84,104,126,144,165,185,205,224,245,265,285,305,326,345,365,386,404,425,446,465,485,505,526,546,564,585,605,625,644,665,685,705,724,746,765,785,805,825,845,866,884,905,926,945,966,984,1005,1024,1045,1065,1085,1106,1125,1145,1164,1185,1205,1225,1245,1265,1286,1305,1326,1344,1365,1386,1406,1425,1446,1466],"xSR":741.5,"ySR":449.15000000000003,"xT1":424.9,"yT1":0,"xT2":1058.1,"yT2":0,"toosoon":0,"cond_shown":"randomdotsizeEA","ratio_trial":750,"smaller_num":"6","larger_num":"8","correct_side":1,"subjID":"marianacardenassabogal29","gender":"1","age":"11","school":"6"},{"start_time":1551795016032,"click_time":1551795017100,"finger_time":1551795016700,"fix_duration":990.769445517132,"trial":29,"RT":668,"MT":400,"sideResp":1,"stimulus":"img/250/equaldotsize/L/7_Ratio_250_L_8_R_2.png","xmouse":[796,796,796,796,796,796,796,796,796,796,796,796,796,796,796,796,794,791,786,785,785,785,785,785,785,785,785,785,785,785,781,776,766,736,711,693,678,669,651,645,637,631,622,605,579,568,553,542,527,523,518,513,506,494],"ymouse":[501,501,501,501,501,501,501,501,501,501,501,501,501,501,501,500,496,491,484,484,484,484,484,484,484,483,483,483,483,483,481,476,462,426,397,376,350,327,281,263,243,224,204,178,146,136,128,121,115,113,110,106,100,89],"timestamp_mouse":[8,29,47,69,87,108,127,148,167,188,207,228,247,268,287,308,327,348,368,387,408,429,448,469,487,507,528,548,568,587,609,628,648,668,689,708,728,749,768,788,807,829,847,867,888,908,929,947,968,988,1008,1029,1048,1068],"xSR":741.5,"ySR":449.15000000000003,"xT1":424.9,"yT1":0,"xT2":1058.1,"yT2":0,"toosoon":0,"cond_shown":"equaldotsize","ratio_trial":250,"smaller_num":"2","larger_num":"8","correct_side":1,"subjID":"marianacardenassabogal29","gender":"1","age":"11","school":"6"},{"start_time":1551795018918,"click_time":1551795024020,"finger_time":1551795023600,"fix_duration":896.0297431156047,"trial":30,"RT":4682,"MT":420,"sideResp":2,"stimulus":"img/900/randomdotsizeEA/L/4_Ratio_900_L_20_R_18.png","xmouse":[793,793,793,793,793,793,793,793,793,793,793,793,793,793,793,793,793,793,793,793,793,793,793,793,793,793,793,793,793,793,793,793,793,793,793,793,793,793,793,793,793,793,793,793,793,793,793,793,793,793,793,793,793,793,793,793,793,793,793,793,793,793,793,793,793,793,793,793,793,793,793,793,793,793,793,793,793,793,793,793,793,793,793,793,793,793,793,793,793,793,793,793,793,793,793,793,793,793,793,793,793,793,793,793,793,793,793,793,793,793,793,793,793,793,793,793,793,793,793,793,793,793,793,793,793,793,793,793,793,793,793,793,793,793,793,793,793,793,793,793,793,793,793,793,793,793,793,793,793,793,793,793,793,793,793,793,793,793,793,793,793,793,793,793,793,793,793,793,793,793,793,793,793,793,793,793,793,793,793,793,793,793,793,793,793,793,793,793,793,793,793,793,793,793,793,793,793,793,793,793,793,793,793,793,793,793,793,793,793,793,793,793,793,793,793,793,793,793,793,792,786,781,779,779,779,775,770,766,763,758,758,758,757,758,799,839,884,932,970,1015,1038,1064,1096,1122,1155,1170,1182,1188,1191,1194,1194,1194,1190,1182,1169,1125],"ymouse":[490,490,490,490,490,490,490,490,490,490,490,490,490,490,490,490,490,490,490,490,490,490,490,490,490,490,490,490,490,490,490,490,490,490,490,490,490,490,490,490,490,490,490,490,490,490,490,490,490,490,490,490,490,490,490,490,490,490,490,490,490,490,490,490,490,490,490,490,490,490,490,490,490,490,490,490,490,490,490,490,490,490,490,490,490,490,490,490,490,490,490,490,490,490,490,490,490,490,490,490,490,490,490,490,490,490,490,490,490,490,490,490,490,490,490,490,490,490,490,490,490,490,490,490,490,490,490,490,490,490,490,490,490,490,490,490,490,490,490,490,490,490,490,490,490,490,490,490,490,490,490,490,490,490,490,490,490,490,490,490,490,490,490,490,490,490,490,490,490,490,490,490,490,490,490,490,490,490,490,490,490,490,490,490,490,490,490,490,490,490,490,490,490,490,490,490,490,490,490,490,490,490,490,490,490,490,490,490,490,490,490,490,490,490,490,490,490,490,490,490,490,490,490,490,490,490,488,485,483,481,481,481,481,475,431,398,370,343,320,288,261,239,218,198,153,125,99,74,55,39,37,35,33,31,30,24],"timestamp_mouse":[4,21,41,61,82,102,121,142,161,181,201,221,241,263,281,302,321,343,363,381,401,422,442,461,482,501,521,542,562,581,602,621,641,661,681,701,721,742,761,781,802,822,842,863,881,901,921,941,963,981,1001,1023,1042,1062,1082,1102,1122,1142,1161,1181,1201,1221,1243,1261,1281,1303,1322,1342,1362,1382,1401,1423,1441,1462,1481,1501,1521,1541,1562,1581,1601,1623,1641,1661,1683,1701,1723,1741,1761,1781,1801,1823,1841,1861,1882,1903,1921,1943,1961,1981,2001,2022,2041,2062,2082,2101,2122,2142,2162,2182,2202,2221,2242,2263,2282,2301,2323,2341,2362,2381,2401,2422,2442,2461,2482,2503,2521,2542,2562,2583,2601,2621,2643,2661,2682,2701,2723,2742,2761,2782,2801,2822,2843,2862,2883,2902,2921,2942,2961,2981,3001,3022,3042,3062,3081,3102,3123,3143,3161,3181,3202,3222,3241,3262,3282,3301,3323,3342,3361,3381,3401,3421,3442,3463,3482,3503,3523,3542,3561,3583,3601,3621,3642,3662,3681,3701,3721,3743,3761,3781,3802,3821,3842,3863,3882,3902,3921,3941,3963,3981,4001,4022,4042,4062,4082,4101,4123,4142,4161,4182,4202,4222,4242,4262,4282,4301,4322,4341,4361,4381,4401,4422,4442,4462,4481,4501,4521,4541,4561,4581,4601,4621,4641,4661,4682,4702,4722,4742,4761,4782,4802,4822,4842,4862,4882,4902,4922,4943,4962,4982,5001,5021,5041,5062,5082,5102],"xSR":741.5,"ySR":449.15000000000003,"xT1":424.9,"yT1":0,"xT2":1058.1,"yT2":0,"toosoon":0,"cond_shown":"randomdotsizeEA","ratio_trial":900,"smaller_num":"18","larger_num":"20","correct_side":1,"subjID":"marianacardenassabogal29","gender":"1","age":"11","school":"6"},{"start_time":1551795026606,"click_time":1551795027721,"finger_time":1551795027281,"fix_duration":1324.758200853809,"trial":31,"RT":675,"MT":440,"sideResp":2,"stimulus":"img/500/equaldotanddens/R/14_Ratio_500_L_5_R_10.png","xmouse":[813,814,807,792,788,788,788,788,788,788,788,788,788,788,788,788,788,788,788,788,788,788,788,788,788,788,788,788,788,788,788,797,840,922,1142,1276,1482,1482,1482,1482,1482,1482,1570,1548,1548,1548,1548,1548,1548,1548,1548,1548,1269,1242,1181,1142],"ymouse":[511,511,511,508,507,507,507,507,507,507,507,507,507,507,507,507,507,507,507,507,507,507,507,507,507,507,507,507,507,507,507,498,471,427,337,286,203,203,203,203,203,203,15,2,2,2,2,2,2,2,2,2,4,14,29,35],"timestamp_mouse":[15,35,53,73,94,114,134,154,173,194,215,233,255,273,294,314,335,353,373,393,415,434,453,474,495,514,533,555,574,593,614,633,653,675,693,714,734,753,773,794,813,834,855,875,895,914,935,953,975,995,1013,1033,1054,1073,1094,1115],"xSR":741.5,"ySR":449.15000000000003,"xT1":424.9,"yT1":0,"xT2":1058.1,"yT2":0,"toosoon":0,"cond_shown":"equaldotanddens","ratio_trial":500,"smaller_num":"5","larger_num":"10","correct_side":2,"subjID":"marianacardenassabogal29","gender":"1","age":"11","school":"6"},{"start_time":1551795030244,"click_time":1551795033020,"finger_time":1551795031019,"fix_duration":1103.1633811612494,"trial":32,"RT":775,"MT":2001,"sideResp":2,"stimulus":"img/900/randomdotsizeEA/R/13_Ratio_900_L_18_R_20.png","xmouse":[820,818,817,815,815,815,815,815,815,815,815,815,815,815,815,815,815,815,815,815,815,815,815,815,815,815,815,815,815,815,815,815,815,815,815,815,819,826,844,844,844,844,844,844,844,844,844,844,844,844,844,844,844,844,844,844,844,844,844,844,844,844,844,844,844,844,844,844,844,844,844,844,844,844,844,844,844,844,844,844,844,844,844,844,844,844,844,844,844,844,844,844,844,844,844,844,844,844,844,844,844,844,844,844,844,844,844,844,844,844,844,844,844,844,844,844,844,864,923,941,947,943,933,935,935,935,982,993,993,993,993,993,995,1000,1003,1007,1013,1041,1063],"ymouse":[477,477,477,477,477,477,477,477,477,477,477,477,477,477,477,477,477,477,477,477,477,477,477,477,477,477,477,477,477,477,477,477,477,477,477,474,470,467,466,467,467,467,467,467,467,467,467,467,467,467,467,467,467,467,467,467,467,467,467,467,467,467,467,467,467,467,467,467,467,467,467,467,467,467,467,467,467,467,467,467,467,467,467,467,467,467,467,467,467,467,467,467,467,467,467,467,467,467,467,467,467,467,467,467,467,467,467,467,467,467,467,467,467,467,467,467,467,456,381,270,150,75,11,6,6,6,0,2,2,2,2,2,2,4,5,6,9,17,19],"timestamp_mouse":[15,36,57,76,95,115,136,155,176,196,217,236,256,275,296,316,336,356,375,396,417,435,455,477,495,515,535,555,576,596,615,635,657,675,696,717,735,755,775,795,815,835,856,877,895,916,935,956,976,997,1017,1036,1055,1076,1095,1116,1135,1156,1176,1196,1215,1235,1257,1276,1295,1316,1336,1356,1375,1395,1415,1435,1456,1476,1496,1515,1536,1557,1575,1595,1616,1635,1656,1676,1696,1716,1735,1755,1776,1796,1815,1835,1857,1875,1895,1917,1936,1956,1976,1996,2016,2035,2056,2076,2096,2116,2136,2156,2175,2195,2215,2235,2256,2276,2295,2315,2335,2356,2376,2395,2415,2436,2456,2476,2497,2515,2535,2556,2577,2595,2615,2637,2655,2675,2695,2716,2735,2756,2775],"xSR":741.5,"ySR":449.15000000000003,"xT1":424.9,"yT1":0,"xT2":1058.1,"yT2":0,"toosoon":0,"cond_shown":"randomdotsizeEA","ratio_trial":900,"smaller_num":"18","larger_num":"20","correct_side":2,"subjID":"marianacardenassabogal29","gender":"1","age":"11","school":"6"},{"start_time":1551795034451,"click_time":1551795035700,"finger_time":1551795035199,"fix_duration":250,"trial":33,"RT":748,"MT":501,"sideResp":1,"stimulus":"img/750/equaldotanddens/L/1_Ratio_750_L_20_R_15.png","xmouse":[798,798,798,798,798,798,798,798,798,798,798,798,798,798,798,799,799,799,799,799,799,799,799,799,799,799,799,799,799,799,799,799,796,782,769,765,758,746,715,693,651,623,604,577,572,568,565,558,552,550,547,540,533,511,505,502,492,483,483,483,483,483,481],"ymouse":[475,475,475,475,475,475,475,475,475,475,475,476,476,476,476,476,476,476,476,476,476,476,476,476,476,476,476,476,476,476,476,476,476,476,469,463,456,439,397,376,347,326,312,267,257,247,237,213,199,188,180,165,156,129,122,118,108,101,101,101,101,101,98],"timestamp_mouse":[8,33,49,68,88,108,129,148,169,188,208,229,250,268,289,308,329,348,368,389,409,429,449,469,488,509,528,550,568,588,608,629,648,668,689,709,728,748,768,788,808,828,849,868,888,909,928,949,969,989,1008,1028,1048,1069,1088,1110,1128,1149,1168,1188,1208,1229,1249],"xSR":741.5,"ySR":449.15000000000003,"xT1":424.9,"yT1":0,"xT2":1058.1,"yT2":0,"toosoon":0,"cond_shown":"equaldotanddens","ratio_trial":750,"smaller_num":"15","larger_num":"20","correct_side":1,"subjID":"marianacardenassabogal29","gender":"1","age":"11","school":"6"},{"start_time":1551795037801,"click_time":1551795039579,"finger_time":1551795039140,"fix_duration":779.7580633444811,"trial":34,"RT":1339,"MT":439,"sideResp":1,"stimulus":"img/750/equaldotanddens/L/10_Ratio_750_L_4_R_3.png","xmouse":[789,789,789,789,789,789,789,789,789,789,789,789,789,789,789,789,789,789,789,789,789,789,789,789,789,789,789,789,789,789,789,789,789,789,789,789,789,789,789,789,789,789,789,789,789,789,789,789,789,789,789,789,789,789,789,789,789,789,789,789,789,789,789,789,789,790,780,759,743,725,698,688,677,665,653,634,624,611,599,582,566,545,543,539,531,522,508,504,503,503],"ymouse":[466,466,466,466,466,466,466,466,466,466,466,466,466,466,466,466,466,466,466,466,466,466,466,466,466,466,466,466,466,466,466,466,466,466,466,466,466,466,467,467,468,468,468,468,468,468,468,468,468,468,468,468,468,468,468,468,468,468,468,468,468,468,468,468,468,468,457,434,418,401,363,346,330,315,301,277,264,241,221,199,182,163,160,152,140,127,108,102,100,98],"timestamp_mouse":[0,21,39,58,79,99,118,140,158,178,199,220,238,258,278,298,318,338,360,378,398,419,439,458,479,498,519,538,559,578,598,618,638,658,678,699,718,739,758,779,799,819,838,860,878,899,919,938,960,978,999,1020,1038,1058,1079,1098,1118,1139,1160,1179,1199,1218,1239,1258,1278,1298,1318,1339,1358,1378,1399,1418,1438,1459,1479,1499,1519,1538,1559,1578,1599,1619,1639,1658,1679,1699,1718,1739,1758,1778],"xSR":741.5,"ySR":449.15000000000003,"xT1":424.9,"yT1":0,"xT2":1058.1,"yT2":0,"toosoon":0,"cond_shown":"equaldotanddens","ratio_trial":750,"smaller_num":"3","larger_num":"4","correct_side":1,"subjID":"marianacardenassabogal29","gender":"1","age":"11","school":"6"},{"start_time":1551795041031,"click_time":1551795042240,"finger_time":1551795041880,"fix_duration":250,"trial":35,"RT":849,"MT":360,"sideResp":2,"stimulus":"img/900/equaldotsize/L/10_Ratio_900_L_20_R_18.png","xmouse":[792,792,792,792,792,792,792,792,792,792,792,792,792,792,792,792,792,792,792,792,792,792,792,792,792,792,792,792,792,792,792,792,792,792,792,792,793,793,794,797,805,814,828,840,854,856,859,865,872,881,883,886,890,914,956,989,1016,1037,1061,1069,1079],"ymouse":[478,478,478,478,478,478,478,478,478,478,478,478,478,478,478,478,478,478,479,479,479,479,479,479,479,479,479,479,479,479,479,479,479,479,479,479,479,477,476,469,461,453,444,435,416,409,400,387,368,335,322,308,296,265,231,199,178,161,125,107,92],"timestamp_mouse":[8,28,48,68,88,108,129,150,168,189,210,229,250,268,289,310,328,348,368,388,409,428,449,469,488,509,529,548,569,588,609,628,648,668,688,708,729,748,769,788,808,828,849,868,888,909,928,948,969,988,1009,1030,1049,1069,1089,1108,1128,1148,1169,1189,1209],"xSR":741.5,"ySR":449.15000000000003,"xT1":424.9,"yT1":0,"xT2":1058.1,"yT2":0,"toosoon":0,"cond_shown":"equaldotsize","ratio_trial":900,"smaller_num":"18","larger_num":"20","correct_side":1,"subjID":"marianacardenassabogal29","gender":"1","age":"11","school":"6"},{"start_time":1551795044406,"click_time":1551795045880,"finger_time":1551795045460,"fix_duration":645.1041316432974,"trial":36,"RT":1054,"MT":420,"sideResp":2,"stimulus":"img/900/equaldotanddens/R/11_Ratio_900_L_18_R_20.png","xmouse":[761,761,761,761,761,761,761,761,761,761,761,761,761,761,761,761,761,761,761,761,761,761,761,761,761,761,761,761,761,761,761,761,761,761,761,761,761,761,760,759,755,755,758,762,768,779,783,785,786,786,788,799,818,845,883,902,913,923,935,949,975,982,986,987,987,987,987,988,992,1001,1017,1025,1041,1061],"ymouse":[529,529,529,529,529,529,529,529,529,529,529,529,529,529,529,529,529,529,529,529,529,529,529,529,529,529,529,528,528,528,528,528,528,528,528,528,528,528,526,522,514,510,504,499,498,490,485,483,483,482,475,462,428,381,316,284,265,241,215,182,109,86,72,68,68,68,68,66,63,60,55,55,55,55],"timestamp_mouse":[14,34,53,73,93,115,133,154,174,194,215,233,254,274,294,314,334,353,374,394,414,434,454,473,493,513,535,553,573,594,614,633,654,675,694,714,735,753,773,793,814,835,853,873,894,913,934,954,975,995,1013,1034,1054,1073,1094,1114,1133,1153,1173,1194,1214,1233,1254,1274,1294,1315,1334,1354,1373,1394,1413,1433,1455,1474],"xSR":741.5,"ySR":449.15000000000003,"xT1":424.9,"yT1":0,"xT2":1058.1,"yT2":0,"toosoon":0,"cond_shown":"equaldotanddens","ratio_trial":900,"smaller_num":"18","larger_num":"20","correct_side":2,"subjID":"marianacardenassabogal29","gender":"1","age":"11","school":"6"},{"start_time":1551795047170,"click_time":1551795048280,"finger_time":1551795048020,"fix_duration":250,"trial":37,"RT":850,"MT":260,"sideResp":2,"stimulus":"img/900/equaldotanddens/R/13_Ratio_900_L_18_R_20.png","xmouse":[789,789,789,789,789,789,789,789,789,789,789,789,789,789,789,789,789,789,789,789,789,789,789,789,789,789,789,789,789,789,789,789,789,789,789,789,789,789,789,788,790,809,847,861,873,885,905,918,946,964,987,1008,1052,1080,1097,1110],"ymouse":[514,514,514,514,514,514,514,514,514,514,514,514,514,514,514,514,514,514,514,514,514,514,514,514,514,514,514,514,514,514,514,514,514,514,514,514,514,514,514,514,503,468,404,378,358,341,314,299,270,252,232,210,164,127,104,84],"timestamp_mouse":[11,31,51,69,90,109,130,149,169,191,209,230,249,269,290,309,330,351,369,390,411,430,449,469,489,511,531,549,569,590,611,629,649,670,689,709,730,749,769,790,810,830,850,870,890,909,930,950,970,989,1009,1030,1050,1069,1091,1110],"xSR":741.5,"ySR":449.15000000000003,"xT1":424.9,"yT1":0,"xT2":1058.1,"yT2":0,"toosoon":0,"cond_shown":"equaldotanddens","ratio_trial":900,"smaller_num":"18","larger_num":"20","correct_side":2,"subjID":"marianacardenassabogal29","gender":"1","age":"11","school":"6"},{"start_time":1551795049471,"click_time":1551795050540,"finger_time":1551795050400,"fix_duration":250,"trial":38,"RT":929,"MT":140,"sideResp":2,"stimulus":"img/250/randomdotsizeEA/L/2_Ratio_250_L_16_R_4.png","xmouse":[791,791,791,791,791,791,791,791,791,791,791,791,791,791,791,791,791,791,791,791,791,791,791,791,791,791,791,791,791,791,791,791,791,791,791,791,791,791,791,791,791,797,801,805,812,824,842,891,919,951,988,1064,1098,1135],"ymouse":[531,531,531,531,531,531,531,531,531,531,531,531,531,531,531,531,531,531,531,531,531,531,531,531,531,531,531,531,531,531,531,531,531,531,531,531,531,531,531,531,531,527,524,521,515,503,483,428,400,363,308,206,157,97],"timestamp_mouse":[9,29,49,69,88,108,128,149,169,189,209,228,248,269,289,309,328,350,369,388,410,428,448,470,488,510,528,548,570,589,609,628,648,670,688,709,728,750,768,790,808,829,848,869,889,910,929,948,969,990,1009,1029,1048,1069],"xSR":741.5,"ySR":449.15000000000003,"xT1":424.9,"yT1":0,"xT2":1058.1,"yT2":0,"toosoon":0,"cond_shown":"randomdotsizeEA","ratio_trial":250,"smaller_num":"4","larger_num":"16","correct_side":1,"subjID":"marianacardenassabogal29","gender":"1","age":"11","school":"6"},{"start_time":1551795053476,"click_time":1551795054940,"finger_time":1551795054360,"fix_duration":1354.1700763731433,"trial":39,"RT":884,"MT":580,"sideResp":2,"stimulus":"img/250/equaldotsize/R/6_Ratio_250_L_6_R_24.png","xmouse":[802,802,802,802,802,802,802,802,802,802,802,802,802,802,802,802,802,802,802,802,802,802,802,802,802,802,802,802,802,802,802,802,802,802,802,802,802,802,802,802,802,802,802,808,881,1011,1125,1204,1205,1205,1204,1212,1261,1311,1338,1353,1362,1347,1347,1347,1347,1347,1347,1347,1347,1214,1198,1196,1196,1196,1196,1192,1181,1155],"ymouse":[502,502,502,502,502,502,502,502,502,502,502,502,502,502,502,502,502,502,502,502,502,502,502,502,502,502,502,502,502,502,502,502,502,502,502,502,502,502,502,502,502,499,464,460,432,387,355,315,310,308,308,302,272,224,174,124,33,6,6,6,6,6,6,6,6,5,19,25,28,28,28,31,34,41],"timestamp_mouse":[3,23,44,63,83,103,124,144,163,183,205,224,243,264,283,304,325,344,363,385,403,424,444,463,484,504,523,543,564,585,603,624,643,663,685,703,724,743,765,784,805,823,844,864,884,904,923,944,963,984,1005,1024,1044,1064,1085,1104,1124,1144,1165,1183,1204,1225,1243,1263,1283,1303,1324,1344,1365,1384,1403,1425,1443,1463],"xSR":741.5,"ySR":449.15000000000003,"xT1":424.9,"yT1":0,"xT2":1058.1,"yT2":0,"toosoon":0,"cond_shown":"equaldotsize","ratio_trial":250,"smaller_num":"6","larger_num":"24","correct_side":2,"subjID":"marianacardenassabogal29","gender":"1","age":"11","school":"6"},{"start_time":1551795061747,"click_time":1551795063080,"finger_time":1551795062519,"fix_duration":607.3471783024701,"trial":40,"RT":772,"MT":561,"sideResp":1,"stimulus":"img/900/equaldotanddens/L/8_Ratio_900_L_20_R_18.png","xmouse":[806,806,806,806,806,806,806,806,806,806,806,806,806,806,806,806,806,806,806,806,806,806,806,806,806,806,806,806,806,806,806,806,806,806,806,806,807,836,866,882,893,900,915,926,940,961,991,1030,1041,1041,1038,1027,998,980,956,930,899,841,800,727,681,644,608,564,548,534,522],"ymouse":[489,489,489,489,489,489,489,489,489,489,489,489,489,489,489,489,489,489,489,489,489,489,489,489,489,489,489,489,489,489,489,489,489,489,489,489,489,474,461,451,441,431,406,390,370,345,312,229,198,187,175,159,127,115,102,86,74,65,60,60,63,73,83,93,94,94,92],"timestamp_mouse":[12,34,54,72,94,112,132,153,172,193,213,232,253,274,293,313,334,353,372,394,412,432,452,474,492,514,533,552,572,592,614,632,653,672,694,713,733,753,772,793,812,832,853,873,893,912,934,954,972,993,1012,1032,1053,1073,1093,1112,1133,1153,1173,1193,1213,1233,1253,1273,1292,1313,1333],"xSR":741.5,"ySR":449.15000000000003,"xT1":424.9,"yT1":0,"xT2":1058.1,"yT2":0,"toosoon":0,"cond_shown":"equaldotanddens","ratio_trial":900,"smaller_num":"18","larger_num":"20","correct_side":1,"subjID":"marianacardenassabogal29","gender":"1","age":"11","school":"6"},{"start_time":1551795065283,"click_time":1551795066181,"finger_time":1551795065999,"fix_duration":1242.291628904882,"trial":41,"RT":716,"MT":182,"sideResp":2,"stimulus":"img/500/equaldotsize/R/12_Ratio_500_L_1_R_2.png","xmouse":[792,792,792,792,792,792,792,792,792,792,792,792,792,792,792,792,792,792,792,792,792,792,792,792,792,792,792,792,792,792,794,799,801,802,805,811,851,894,956,1018,1064,1106,1115,1126,1139],"ymouse":[487,487,487,487,487,487,487,487,487,487,487,487,487,487,487,487,487,487,487,487,487,487,487,487,487,487,487,487,487,487,485,479,474,467,458,445,399,362,303,251,211,159,136,117,98],"timestamp_mouse":[21,36,57,77,96,117,137,156,176,197,218,236,257,276,296,317,337,356,377,397,417,437,457,477,497,516,538,557,577,597,616,636,657,677,696,716,737,757,777,798,817,837,856,877,898],"xSR":741.5,"ySR":449.15000000000003,"xT1":424.9,"yT1":0,"xT2":1058.1,"yT2":0,"toosoon":0,"cond_shown":"equaldotsize","ratio_trial":500,"smaller_num":"1","larger_num":"2","correct_side":2,"subjID":"marianacardenassabogal29","gender":"1","age":"11","school":"6"},{"start_time":1551795067573,"click_time":1551795069180,"finger_time":1551795068360,"fix_duration":250,"trial":42,"RT":787,"MT":820,"sideResp":2,"stimulus":"img/250/randomdotsizeEA/R/10_Ratio_250_L_4_R_16.png","xmouse":[828,828,828,828,828,828,828,828,828,828,828,828,828,828,828,828,828,828,828,828,828,828,828,828,828,828,828,828,828,828,828,828,828,828,828,828,828,822,806,784,756,717,714,711,710,710,704,695,688,679,664,633,620,611,607,606,608,622,643,676,733,879,961,1032,1086,1131,1179,1194,1204,1214,1224,1231,1231,1231,1231,1231,1220,1210,1186,1167,1151],"ymouse":[514,514,514,514,514,514,514,514,514,514,514,514,514,514,514,514,514,514,514,514,514,514,514,514,514,514,514,514,514,514,514,514,514,514,514,514,514,506,483,449,410,356,351,347,346,345,339,324,311,295,272,226,208,198,193,190,184,180,175,170,164,145,132,122,114,107,91,82,75,69,64,57,55,54,54,53,51,50,48,48,48],"timestamp_mouse":[7,29,47,66,87,107,126,147,167,186,206,227,248,266,286,306,328,348,367,387,408,426,446,466,487,507,527,546,566,587,606,628,646,668,686,707,726,746,767,787,807,827,847,866,887,908,927,947,967,986,1007,1026,1046,1067,1087,1107,1127,1147,1166,1188,1207,1227,1247,1266,1287,1307,1328,1347,1367,1387,1406,1426,1447,1467,1488,1507,1527,1547,1567,1587,1607],"xSR":741.5,"ySR":449.15000000000003,"xT1":424.9,"yT1":0,"xT2":1058.1,"yT2":0,"toosoon":0,"cond_shown":"randomdotsizeEA","ratio_trial":250,"smaller_num":"4","larger_num":"16","correct_side":2,"subjID":"marianacardenassabogal29","gender":"1","age":"11","school":"6"},{"start_time":1551795070994,"click_time":1551795072100,"finger_time":1551795071740,"fix_duration":814.2935022919199,"trial":43,"RT":746,"MT":360,"sideResp":2,"stimulus":"img/500/equaldotsize/R/6_Ratio_500_L_9_R_18.png","xmouse":[817,817,817,817,817,817,817,817,817,817,817,817,817,817,817,817,817,817,817,817,817,817,817,817,817,817,817,817,817,817,817,817,817,817,817,817,818,848,893,955,1088,1132,1172,1198,1209,1213,1215,1215,1215,1215,1215,1212,1201,1183,1162,1125],"ymouse":[506,506,506,506,506,506,506,506,506,506,506,506,506,506,506,506,506,506,506,506,506,506,506,506,506,506,506,506,506,506,506,506,506,506,506,506,493,453,388,313,175,131,91,59,45,34,29,28,26,25,24,22,20,19,19,25],"timestamp_mouse":[12,25,46,66,87,105,125,147,165,185,206,225,246,267,286,306,325,346,365,385,407,425,445,467,485,505,525,546,566,586,606,625,646,665,686,705,725,746,766,786,806,826,846,865,886,906,925,946,966,986,1006,1026,1047,1066,1085,1106],"xSR":741.5,"ySR":449.15000000000003,"xT1":424.9,"yT1":0,"xT2":1058.1,"yT2":0,"toosoon":0,"cond_shown":"equaldotsize","ratio_trial":500,"smaller_num":"9","larger_num":"18","correct_side":2,"subjID":"marianacardenassabogal29","gender":"1","age":"11","school":"6"},{"start_time":1551795073863,"click_time":1551795074800,"finger_time":1551795074580,"fix_duration":662.2070005819602,"trial":44,"RT":717,"MT":220,"sideResp":1,"stimulus":"img/900/equaldotanddens/L/2_Ratio_900_L_20_R_18.png","xmouse":[775,775,775,775,775,775,775,775,775,775,775,775,775,775,775,775,776,776,776,776,776,776,776,776,776,776,776,776,776,776,776,776,776,770,760,746,735,706,689,675,660,638,593,566,547,535,515],"ymouse":[482,482,482,482,482,482,482,482,482,482,482,482,482,482,482,482,482,482,482,482,482,482,482,482,482,482,482,482,482,482,482,482,482,473,457,431,403,331,300,274,250,207,127,95,76,63,47],"timestamp_mouse":[17,38,57,78,97,116,137,157,176,196,217,236,257,278,297,317,337,357,376,397,418,436,456,476,497,517,537,557,578,597,617,637,656,676,696,717,737,757,776,797,816,837,858,877,896,918,937],"xSR":741.5,"ySR":449.15000000000003,"xT1":424.9,"yT1":0,"xT2":1058.1,"yT2":0,"toosoon":0,"cond_shown":"equaldotanddens","ratio_trial":900,"smaller_num":"18","larger_num":"20","correct_side":1,"subjID":"marianacardenassabogal29","gender":"1","age":"11","school":"6"},{"start_time":1551795077515,"click_time":1551795078519,"finger_time":1551795078199,"fix_duration":795.75875135745,"trial":45,"RT":684,"MT":320,"sideResp":2,"stimulus":"img/500/equaldotsize/R/14_Ratio_500_L_5_R_10.png","xmouse":[788,788,788,788,788,788,788,788,788,788,788,788,788,788,788,788,788,788,788,788,788,788,788,788,788,788,788,788,788,788,788,788,793,802,857,898,945,993,1033,1068,1105,1112,1114,1114,1114,1115,1115,1115,1113,1111,1107],"ymouse":[477,477,477,477,477,477,477,477,477,477,477,477,477,477,477,477,477,477,477,477,477,477,477,477,477,477,477,477,477,477,477,477,474,465,426,401,374,348,323,292,239,220,199,177,145,136,131,124,114,107,97],"timestamp_mouse":[4,25,44,64,84,105,125,144,166,185,204,225,244,264,284,305,324,344,365,385,405,424,446,465,485,504,524,544,564,584,604,624,644,665,684,704,724,744,764,784,804,825,846,865,885,905,924,945,965,984,1004],"xSR":741.5,"ySR":449.15000000000003,"xT1":424.9,"yT1":0,"xT2":1058.1,"yT2":0,"toosoon":0,"cond_shown":"equaldotsize","ratio_trial":500,"smaller_num":"5","larger_num":"10","correct_side":2,"subjID":"marianacardenassabogal29","gender":"1","age":"11","school":"6"},{"start_time":1551795080270,"click_time":1551795081200,"finger_time":1551795080980,"fix_duration":848.6851570977116,"trial":46,"RT":710,"MT":220,"sideResp":1,"stimulus":"img/250/equaldotanddens/L/14_Ratio_250_L_12_R_3.png","xmouse":[806,806,806,806,806,806,806,806,806,806,806,806,806,806,806,806,806,806,806,806,806,806,806,806,806,806,806,806,806,806,806,806,805,797,785,761,728,659,636,618,603,578,561,548,537,527,521],"ymouse":[509,509,509,509,509,509,509,509,509,509,509,509,509,509,509,509,509,509,509,509,509,509,509,509,509,509,509,509,509,509,509,509,499,477,450,401,338,255,226,198,174,134,112,99,87,78,73],"timestamp_mouse":[9,31,50,70,89,109,129,150,169,189,210,229,250,269,289,310,330,349,369,389,409,430,449,470,489,509,529,549,569,590,610,630,649,670,690,710,729,749,769,789,809,830,850,870,889,910,930],"xSR":741.5,"ySR":449.15000000000003,"xT1":424.9,"yT1":0,"xT2":1058.1,"yT2":0,"toosoon":0,"cond_shown":"equaldotanddens","ratio_trial":250,"smaller_num":"3","larger_num":"12","correct_side":1,"subjID":"marianacardenassabogal29","gender":"1","age":"11","school":"6"},{"start_time":1551795083724,"click_time":1551795084921,"finger_time":1551795084519,"fix_duration":1244.1935711368553,"trial":47,"RT":795,"MT":402,"sideResp":1,"stimulus":"img/500/randomdotsizeEA/L/8_Ratio_500_L_8_R_4.png","xmouse":[826,826,826,824,821,819,813,811,811,811,811,811,809,805,801,799,798,795,792,789,789,789,789,789,789,789,789,789,789,789,789,789,789,789,789,789,789,789,786,773,759,735,706,664,653,642,631,621,611,606,599,586,574,554,549,544,537,530,527,520],"ymouse":[529,529,529,528,526,523,519,518,518,518,518,518,516,508,500,494,490,485,478,471,471,471,471,471,471,471,471,471,471,471,471,471,471,471,471,471,471,471,464,431,404,355,297,225,202,179,160,143,129,123,116,108,102,92,90,88,85,82,80,78],"timestamp_mouse":[15,35,55,76,96,115,135,155,175,195,215,235,255,275,295,315,336,355,375,395,416,435,455,476,495,517,537,555,575,595,615,635,656,676,695,715,736,755,776,795,815,835,857,876,895,916,935,955,976,996,1015,1035,1056,1076,1095,1117,1135,1156,1176,1197],"xSR":741.5,"ySR":449.15000000000003,"xT1":424.9,"yT1":0,"xT2":1058.1,"yT2":0,"toosoon":0,"cond_shown":"randomdotsizeEA","ratio_trial":500,"smaller_num":"4","larger_num":"8","correct_side":1,"subjID":"marianacardenassabogal29","gender":"1","age":"11","school":"6"},{"start_time":1551795087066,"click_time":1551795088720,"finger_time":1551795087839,"fix_duration":325.21720812909484,"trial":48,"RT":773,"MT":881,"sideResp":1,"stimulus":"img/900/equaldotanddens/R/7_Ratio_900_L_9_R_10.png","xmouse":[772,772,772,772,772,772,772,772,772,772,772,772,772,772,772,772,772,772,772,772,772,772,772,772,772,772,772,772,772,772,772,772,772,772,772,772,779,801,812,817,822,830,837,844,850,858,871,877,883,890,900,961,1014,1014,1014,1014,1014,1014,1014,1014,1014,1014,1014,1014,1014,1014,830,783,762,742,722,702,646,629,618,614,613,611,608,591,569,544,501],"ymouse":[471,471,471,471,471,471,471,471,471,471,471,471,471,471,471,471,471,471,468,468,468,468,468,468,468,468,468,468,468,468,468,468,468,468,468,468,461,451,444,439,434,423,405,390,376,357,323,307,293,276,254,118,22,22,22,22,22,22,22,22,22,22,22,22,22,22,14,34,43,50,55,58,61,61,61,61,60,60,59,56,49,41,29],"timestamp_mouse":[13,35,54,73,93,113,133,154,174,193,214,234,254,273,293,313,333,353,373,393,413,433,453,474,494,513,534,553,573,593,614,634,653,673,693,713,733,753,773,794,813,834,854,873,894,915,934,954,974,994,1013,1033,1053,1074,1093,1114,1134,1155,1173,1193,1213,1234,1254,1273,1295,1313,1334,1353,1374,1393,1413,1434,1454,1474,1494,1515,1535,1554,1573,1595,1613,1633,1654],"xSR":741.5,"ySR":449.15000000000003,"xT1":424.9,"yT1":0,"xT2":1058.1,"yT2":0,"toosoon":0,"cond_shown":"equaldotanddens","ratio_trial":900,"smaller_num":"9","larger_num":"10","correct_side":2,"subjID":"marianacardenassabogal29","gender":"1","age":"11","school":"6"},{"start_time":1551795095031,"click_time":1551795096100,"finger_time":1551795095799,"fix_duration":691.9318869616799,"trial":49,"RT":768,"MT":301,"sideResp":2,"stimulus":"img/900/randomdotsizeEA/L/10_Ratio_900_L_20_R_18.png","xmouse":[786,786,786,786,786,786,786,786,786,786,786,786,786,786,786,786,786,786,786,786,786,786,786,786,786,786,786,786,786,786,786,786,786,786,786,786,786,791,817,836,852,869,882,927,960,981,995,1008,1024,1028,1033,1039,1045,1077],"ymouse":[479,479,479,479,479,479,479,479,479,479,479,479,479,479,479,479,479,479,479,479,479,479,479,479,479,479,479,479,479,479,479,479,479,479,479,479,479,470,430,402,373,346,322,249,207,180,160,146,125,118,112,108,104,95],"timestamp_mouse":[8,29,50,69,89,110,129,148,168,188,209,228,248,269,289,308,328,348,368,389,408,428,449,468,488,510,528,548,568,589,610,629,648,668,689,708,730,748,768,788,809,829,849,869,888,909,929,948,969,989,1009,1029,1049,1069],"xSR":741.5,"ySR":449.15000000000003,"xT1":424.9,"yT1":0,"xT2":1058.1,"yT2":0,"toosoon":0,"cond_shown":"randomdotsizeEA","ratio_trial":900,"smaller_num":"18","larger_num":"20","correct_side":1,"subjID":"marianacardenassabogal29","gender":"1","age":"11","school":"6"},{"start_time":1551795097883,"click_time":1551795099420,"finger_time":1551795098499,"fix_duration":703.063635612942,"trial":50,"RT":616,"MT":921,"sideResp":2,"stimulus":"img/750/equaldotsize/R/4_Ratio_750_L_15_R_20.png","xmouse":[797,797,797,797,797,797,797,797,797,797,797,797,797,797,797,797,797,797,797,797,797,797,797,798,799,803,807,813,823,839,868,1030,1108,1173,1230,1274,1314,1321,1325,1331,1346,1354,1354,1354,1350,1329,1319,1306,1289,1271,1220,1163,1119,1076,1035,994,994,906,892,885,869,847,834,824,814,809,807,807,808,810,816,861,892,936,982,1021,1079],"ymouse":[512,513,513,513,513,513,513,513,513,513,513,513,513,513,513,513,513,511,511,510,510,510,510,508,508,506,506,504,502,500,494,452,422,391,357,303,214,191,172,151,115,92,81,73,67,51,47,42,35,28,15,5,0,0,0,0,0,2,6,9,17,29,36,40,48,53,65,67,68,69,70,72,72,72,72,72,72],"timestamp_mouse":[22,37,56,76,96,117,136,157,176,196,218,236,257,278,297,317,337,357,377,397,416,436,456,478,496,517,536,556,576,596,616,637,657,676,697,717,737,757,776,796,817,837,856,877,896,917,937,957,978,996,1017,1036,1057,1078,1096,1118,1136,1157,1176,1196,1217,1236,1256,1276,1296,1316,1336,1356,1376,1396,1416,1437,1457,1477,1496,1517,1537],"xSR":741.5,"ySR":449.15000000000003,"xT1":424.9,"yT1":0,"xT2":1058.1,"yT2":0,"toosoon":0,"cond_shown":"equaldotsize","ratio_trial":750,"smaller_num":"15","larger_num":"20","correct_side":2,"subjID":"marianacardenassabogal29","gender":"1","age":"11","school":"6"},{"start_time":1551795102018,"click_time":1551795102980,"finger_time":1551795102759,"fix_duration":1337.5986630359225,"trial":51,"RT":741,"MT":221,"sideResp":1,"stimulus":"img/750/equaldotsize/L/14_Ratio_750_L_8_R_6.png","xmouse":[759,759,759,759,759,759,759,759,759,759,759,759,759,759,759,759,759,759,759,759,759,759,759,759,759,759,759,759,759,759,759,759,759,759,759,759,758,755,750,741,699,663,632,607,574,561,548,535,524],"ymouse":[466,466,466,466,466,466,466,466,466,466,466,466,466,466,466,466,466,466,466,466,466,466,466,466,466,466,466,466,466,466,466,466,466,466,466,466,457,435,405,367,260,204,162,131,85,67,49,31,17],"timestamp_mouse":[3,23,42,61,81,101,122,141,161,181,201,221,241,262,281,302,321,341,361,381,401,422,441,462,481,501,521,541,561,581,601,621,642,661,681,701,721,741,762,781,802,822,841,861,882,902,921,942,962],"xSR":741.5,"ySR":449.15000000000003,"xT1":424.9,"yT1":0,"xT2":1058.1,"yT2":0,"toosoon":0,"cond_shown":"equaldotsize","ratio_trial":750,"smaller_num":"6","larger_num":"8","correct_side":1,"subjID":"marianacardenassabogal29","gender":"1","age":"11","school":"6"},{"start_time":1551795104096,"click_time":1551795105059,"finger_time":1551795104900,"fix_duration":254.31663786762792,"trial":52,"RT":804,"MT":159,"sideResp":1,"stimulus":"img/750/equaldotsize/L/6_Ratio_750_L_24_R_18.png","xmouse":[801,801,801,801,801,801,801,801,801,801,801,801,801,801,801,801,801,801,801,801,801,801,801,801,801,798,795,795,795,795,795,795,795,795,795,795,795,793,786,779,762,755,739,725,703,661,560,527,509],"ymouse":[515,515,515,515,515,515,515,515,515,514,514,514,514,514,514,514,514,514,514,514,514,514,514,514,513,508,505,504,504,504,504,504,504,504,504,504,504,500,492,482,448,429,391,357,305,238,113,77,56],"timestamp_mouse":[4,23,43,64,83,103,124,144,163,184,203,223,243,264,283,304,324,343,364,384,404,423,444,464,483,504,523,544,563,583,603,623,643,663,685,704,723,743,763,784,804,823,844,864,883,904,923,944,963],"xSR":741.5,"ySR":449.15000000000003,"xT1":424.9,"yT1":0,"xT2":1058.1,"yT2":0,"toosoon":0,"cond_shown":"equaldotsize","ratio_trial":750,"smaller_num":"18","larger_num":"24","correct_side":1,"subjID":"marianacardenassabogal29","gender":"1","age":"11","school":"6"},{"start_time":1551795106359,"click_time":1551795107459,"finger_time":1551795107100,"fix_duration":339.5444090930025,"trial":53,"RT":741,"MT":359,"sideResp":1,"stimulus":"img/750/equaldotsize/L/8_Ratio_750_L_4_R_3.png","xmouse":[793,793,793,793,793,793,793,793,793,793,793,793,793,793,793,793,793,793,793,793,793,793,793,793,793,793,793,793,793,793,793,793,793,793,793,793,793,783,771,756,735,703,654,639,628,621,617,600,579,568,562,558,550,542,529,515],"ymouse":[462,462,462,462,462,462,462,462,462,462,462,462,462,462,462,462,462,462,462,462,462,462,462,462,462,462,462,462,462,462,462,462,462,462,462,462,461,428,386,351,310,261,209,194,182,174,170,150,126,114,107,102,93,85,75,66],"timestamp_mouse":[1,21,40,60,80,100,120,140,160,180,200,220,240,260,280,300,320,340,360,381,401,420,441,460,480,501,520,541,560,580,602,621,641,661,680,700,720,741,760,780,801,820,841,860,880,900,921,941,961,980,1000,1020,1041,1060,1080,1100],"xSR":741.5,"ySR":449.15000000000003,"xT1":424.9,"yT1":0,"xT2":1058.1,"yT2":0,"toosoon":0,"cond_shown":"equaldotsize","ratio_trial":750,"smaller_num":"3","larger_num":"4","correct_side":1,"subjID":"marianacardenassabogal29","gender":"1","age":"11","school":"6"},{"start_time":1551795108709,"click_time":1551795109819,"finger_time":1551795109240,"fix_duration":448.92013680577537,"trial":54,"RT":531,"MT":579,"sideResp":2,"stimulus":"img/250/equaldotanddens/R/12_Ratio_250_L_5_R_20.png","xmouse":[778,778,778,778,778,779,779,779,779,779,779,779,779,779,779,779,779,779,779,779,779,780,785,788,793,823,845,872,898,962,996,1007,1016,1027,1039,1041,1041,1043,1045,1048,1056,1059,1063,1068,1078,1089,1101,1111,1116,1129,1139,1144,1147,1151,1152,1155],"ymouse":[497,497,497,497,497,497,497,497,497,497,497,497,497,497,497,497,497,497,497,497,497,497,497,497,497,495,495,492,487,464,440,429,414,393,356,342,333,325,315,303,250,226,205,192,179,169,162,156,153,143,135,129,124,115,108,90],"timestamp_mouse":[13,30,52,70,90,111,132,150,170,191,210,230,252,271,291,311,331,350,371,391,411,430,451,470,490,511,531,551,571,591,611,630,650,670,691,710,730,750,770,791,810,830,851,870,891,911,931,950,970,991,1010,1031,1050,1070,1090,1110],"xSR":741.5,"ySR":449.15000000000003,"xT1":424.9,"yT1":0,"xT2":1058.1,"yT2":0,"toosoon":0,"cond_shown":"equaldotanddens","ratio_trial":250,"smaller_num":"5","larger_num":"20","correct_side":2,"subjID":"marianacardenassabogal29","gender":"1","age":"11","school":"6"},{"start_time":1551795113571,"click_time":1551795115259,"finger_time":1551795114519,"fix_duration":311.6979782749486,"trial":55,"RT":948,"MT":740,"sideResp":1,"stimulus":"img/500/randomdotsizeEA/L/8_Ratio_500_L_8_R_4.png","xmouse":[809,809,809,809,809,809,809,809,809,809,809,809,809,809,809,809,809,809,809,809,809,809,809,809,809,809,809,809,809,809,809,809,809,809,809,809,809,809,809,809,809,809,809,815,818,825,834,845,846,846,846,840,836,836,834,834,835,835,835,835,830,805,787,769,757,753,752,751,751,754,761,764,769,769,769,764,697,621,578,556,545,537,534,529,519],"ymouse":[493,493,493,493,493,493,493,493,493,493,493,493,493,493,493,493,493,493,493,493,493,493,493,493,493,493,493,493,493,493,493,493,493,493,493,493,493,493,493,493,493,493,493,485,480,468,454,412,395,383,368,334,321,312,308,304,300,290,285,277,261,228,213,203,199,197,197,196,196,196,194,194,192,192,192,191,169,128,102,88,80,75,73,72,69],"timestamp_mouse":[9,28,50,69,89,108,128,148,168,189,208,228,248,269,288,308,329,349,369,388,409,428,449,468,488,508,528,548,570,589,608,628,648,670,688,709,728,748,768,788,808,828,849,868,888,908,929,948,969,990,1008,1029,1049,1068,1089,1109,1128,1149,1168,1189,1208,1229,1248,1269,1288,1308,1329,1349,1368,1388,1410,1429,1449,1469,1488,1508,1529,1548,1568,1589,1608,1629,1648,1668,1688],"xSR":741.5,"ySR":449.15000000000003,"xT1":424.9,"yT1":0,"xT2":1058.1,"yT2":0,"toosoon":0,"cond_shown":"randomdotsizeEA","ratio_trial":500,"smaller_num":"4","larger_num":"8","correct_side":1,"subjID":"marianacardenassabogal29","gender":"1","age":"11","school":"6"},{"start_time":1551795121150,"click_time":1551795122520,"finger_time":1551795121960,"fix_duration":250,"trial":56,"RT":810,"MT":560,"sideResp":2,"stimulus":"img/500/randomdotsizeEA/R/3_Ratio_500_L_10_R_20.png","xmouse":[809,808,808,808,808,808,808,808,808,808,808,808,808,808,808,808,808,808,808,808,807,805,803,796,796,796,796,796,796,796,796,796,796,796,796,796,796,798,820,836,846,852,854,854,854,854,854,854,848,844,844,843,843,866,907,973,1048,1159,1179,1187,1189,1189,1189,1187,1184,1178,1170,1161,1146],"ymouse":[498,498,498,498,498,498,498,498,498,498,498,498,498,498,498,498,498,498,498,498,498,498,498,494,494,494,494,494,494,494,494,494,494,494,493,492,491,490,477,468,452,439,436,436,436,436,433,423,408,401,400,400,400,392,380,356,325,277,273,273,273,273,273,250,223,194,164,140,98],"timestamp_mouse":[10,30,49,70,89,109,129,150,169,189,209,229,250,269,291,309,330,350,369,390,410,430,450,470,489,509,531,549,569,590,609,629,649,670,690,710,730,751,769,789,810,831,849,870,889,909,929,950,971,990,1010,1029,1049,1069,1090,1110,1130,1150,1170,1189,1209,1231,1250,1269,1290,1310,1330,1349,1370],"xSR":741.5,"ySR":449.15000000000003,"xT1":424.9,"yT1":0,"xT2":1058.1,"yT2":0,"toosoon":0,"cond_shown":"randomdotsizeEA","ratio_trial":500,"smaller_num":"10","larger_num":"20","correct_side":2,"subjID":"marianacardenassabogal29","gender":"1","age":"11","school":"6"},{"start_time":1551795124553,"click_time":1551795125701,"finger_time":1551795125259,"fix_duration":1013.7596533866653,"trial":57,"RT":706,"MT":442,"sideResp":2,"stimulus":"img/250/randomdotsizeEA/R/12_Ratio_250_L_5_R_20.png","xmouse":[802,802,802,802,802,802,802,802,802,802,802,802,802,802,802,802,802,802,802,802,802,802,802,802,802,802,802,802,802,802,802,802,802,803,819,860,901,976,1022,1049,1072,1099,1174,1202,1224,1234,1236,1239,1242,1242,1237,1231,1220,1215,1202,1179,1159,1121],"ymouse":[488,488,488,488,488,488,488,488,488,488,488,488,488,488,488,488,488,488,488,488,488,488,488,488,488,488,488,488,488,488,488,488,488,488,476,453,424,378,347,329,312,292,237,212,187,167,155,137,125,113,107,99,94,93,91,88,84,74],"timestamp_mouse":[7,27,47,67,86,106,126,147,166,186,206,227,246,266,286,307,327,347,366,386,406,426,447,466,487,507,526,546,566,586,608,626,647,667,687,706,726,747,766,786,806,826,847,867,888,906,928,948,966,986,1007,1026,1047,1067,1087,1107,1126,1147],"xSR":741.5,"ySR":449.15000000000003,"xT1":424.9,"yT1":0,"xT2":1058.1,"yT2":0,"toosoon":0,"cond_shown":"randomdotsizeEA","ratio_trial":250,"smaller_num":"5","larger_num":"20","correct_side":2,"subjID":"marianacardenassabogal29","gender":"1","age":"11","school":"6"},{"start_time":1551795127251,"click_time":1551795128400,"finger_time":1551795128020,"fix_duration":750.0769325211223,"trial":58,"RT":769,"MT":380,"sideResp":1,"stimulus":"img/750/randomdotsizeEA/L/14_Ratio_750_L_8_R_6.png","xmouse":[803,803,803,803,803,803,803,803,803,803,803,803,803,803,803,803,803,803,803,803,803,803,803,803,803,803,803,803,803,803,803,803,803,803,803,803,803,800,792,775,752,733,697,682,674,663,644,608,593,579,568,561,557,556,551,546,534,523],"ymouse":[484,484,484,484,484,484,484,484,484,484,484,484,484,484,484,484,484,484,484,484,484,484,484,484,484,484,484,484,484,484,484,484,484,484,484,484,484,472,443,396,339,298,236,216,206,191,171,129,113,98,83,74,70,67,63,58,52,47],"timestamp_mouse":[8,28,48,70,88,108,128,149,168,189,208,229,249,270,288,309,328,348,370,389,409,428,448,468,488,509,529,548,568,590,608,629,649,668,689,709,729,749,769,788,809,829,849,868,888,909,928,949,968,988,1009,1029,1050,1069,1088,1108,1128,1149],"xSR":741.5,"ySR":449.15000000000003,"xT1":424.9,"yT1":0,"xT2":1058.1,"yT2":0,"toosoon":0,"cond_shown":"randomdotsizeEA","ratio_trial":750,"smaller_num":"6","larger_num":"8","correct_side":1,"subjID":"marianacardenassabogal29","gender":"1","age":"11","school":"6"},{"start_time":1551795134014,"click_time":1551795135079,"finger_time":1551795134800,"fix_duration":571.0459435806939,"trial":59,"RT":786,"MT":279,"sideResp":2,"stimulus":"img/500/equaldotanddens/R/3_Ratio_500_L_10_R_20.png","xmouse":[803,803,803,803,803,803,803,803,803,803,803,803,803,803,803,803,803,803,803,803,803,803,803,803,803,803,803,803,803,803,803,803,803,804,806,812,812,812,812,822,828,837,846,853,879,924,950,968,984,996,1005,1018,1040,1059],"ymouse":[503,503,503,503,503,503,503,503,503,503,503,503,503,503,503,503,503,503,503,503,503,503,503,503,503,503,503,503,503,503,503,503,503,491,483,457,457,456,456,449,446,442,438,433,413,350,300,252,212,177,164,144,119,97],"timestamp_mouse":[5,25,46,66,85,106,125,146,165,185,207,225,245,267,285,305,325,345,365,385,405,426,447,467,486,505,526,546,565,585,605,625,646,666,685,706,726,745,765,786,805,826,846,866,885,905,925,945,966,986,1006,1025,1046,1065],"xSR":741.5,"ySR":449.15000000000003,"xT1":424.9,"yT1":0,"xT2":1058.1,"yT2":0,"toosoon":0,"cond_shown":"equaldotanddens","ratio_trial":500,"smaller_num":"10","larger_num":"20","correct_side":2,"subjID":"marianacardenassabogal29","gender":"1","age":"11","school":"6"},{"start_time":1551795137449,"click_time":1551795138438,"finger_time":1551795138039,"fix_duration":1469.2995924919628,"trial":60,"RT":590,"MT":399,"sideResp":2,"stimulus":"img/250/equaldotsize/R/10_Ratio_250_L_4_R_16.png","xmouse":[783,783,783,783,783,783,783,783,783,783,783,783,783,783,783,783,784,784,784,784,784,784,784,784,784,790,795,808,839,851,865,880,898,961,980,998,1010,1029,1037,1045,1053,1060,1069,1090,1096,1102,1103,1104,1109,1112],"ymouse":[494,494,494,494,494,494,494,494,494,494,494,494,494,494,494,494,495,495,495,495,495,495,495,495,495,487,482,472,453,444,432,419,398,317,289,266,246,212,200,187,174,163,152,126,116,109,108,105,101,98],"timestamp_mouse":[10,31,49,69,90,109,129,149,170,189,210,230,249,269,290,311,329,350,369,390,410,431,450,470,490,509,531,549,569,590,609,630,649,670,690,710,729,750,770,789,810,830,850,870,890,911,930,950,970,989],"xSR":741.5,"ySR":449.15000000000003,"xT1":424.9,"yT1":0,"xT2":1058.1,"yT2":0,"toosoon":0,"cond_shown":"equaldotsize","ratio_trial":250,"smaller_num":"4","larger_num":"16","correct_side":2,"subjID":"marianacardenassabogal29","gender":"1","age":"11","school":"6"},{"start_time":1551795144560,"click_time":1551795145759,"finger_time":1551795145278,"fix_duration":881.0361836008898,"trial":61,"RT":718,"MT":481,"sideResp":2,"stimulus":"img/250/equaldotanddens/R/9_Ratio_250_L_3_R_12.png","xmouse":[747,747,747,747,747,754,757,773,777,779,779,779,779,779,779,779,779,779,779,779,779,779,779,779,779,779,779,779,779,779,779,779,779,787,813,864,992,1059,1091,1127,1169,1213,1306,1330,1341,1341,1341,1341,1341,1341,1341,1341,1341,1341,1341,1341,1341,1184,1171,1155],"ymouse":[532,532,532,532,532,531,529,524,523,523,523,523,523,523,523,523,523,523,523,523,523,523,523,523,523,523,523,523,523,523,523,523,523,518,505,483,380,318,278,233,182,134,43,18,3,3,3,3,3,3,3,3,3,3,3,3,3,2,8,14],"timestamp_mouse":[20,40,59,78,99,120,138,159,178,200,219,239,258,278,298,318,339,358,379,400,418,439,460,478,500,518,539,559,579,599,619,638,659,679,699,718,739,758,778,799,820,840,859,880,900,919,940,959,978,999,1018,1040,1059,1079,1099,1119,1140,1160,1179,1199],"xSR":741.5,"ySR":449.15000000000003,"xT1":424.9,"yT1":0,"xT2":1058.1,"yT2":0,"toosoon":0,"cond_shown":"equaldotanddens","ratio_trial":250,"smaller_num":"3","larger_num":"12","correct_side":2,"subjID":"marianacardenassabogal29","gender":"1","age":"11","school":"6"},{"start_time":1551795147024,"click_time":1551795148100,"finger_time":1551795147879,"fix_duration":365.32090164989427,"trial":62,"RT":855,"MT":221,"sideResp":2,"stimulus":"img/750/equaldotanddens/R/7_Ratio_750_L_3_R_4.png","xmouse":[786,786,786,786,786,786,786,786,786,786,786,786,786,786,786,786,786,786,786,786,786,786,786,786,786,786,786,786,786,786,786,786,786,786,786,786,786,786,789,794,800,815,845,933,982,1049,1081,1096,1112,1116,1118,1118,1120,1128],"ymouse":[486,486,486,486,486,486,486,486,486,486,486,486,486,486,486,486,486,486,486,486,486,486,486,486,486,486,486,486,486,486,486,486,486,486,486,486,486,486,483,477,469,454,432,360,312,235,191,165,132,118,114,108,100,78],"timestamp_mouse":[16,34,55,74,94,114,135,154,174,194,215,236,254,274,296,315,335,354,376,394,416,435,455,474,496,514,534,554,574,595,616,634,654,674,696,714,734,755,776,794,816,836,855,876,895,915,934,954,975,996,1014,1035,1056,1076],"xSR":741.5,"ySR":449.15000000000003,"xT1":424.9,"yT1":0,"xT2":1058.1,"yT2":0,"toosoon":0,"cond_shown":"equaldotanddens","ratio_trial":750,"smaller_num":"3","larger_num":"4","correct_side":2,"subjID":"marianacardenassabogal29","gender":"1","age":"11","school":"6"},{"start_time":1551795150451,"click_time":1551795151679,"finger_time":1551795151058,"fix_duration":1431.2282253133824,"trial":63,"RT":607,"MT":621,"sideResp":2,"stimulus":"img/500/equaldotsize/R/1_Ratio_500_L_9_R_18.png","xmouse":[791,791,791,791,791,791,791,791,791,791,791,791,791,791,791,791,791,791,791,791,791,791,796,809,820,825,828,834,837,841,850,862,892,923,942,950,953,955,964,974,987,1003,1018,1045,1051,1069,1085,1106,1109,1110,1110,1110,1109,1109,1111,1113,1116,1129,1137,1138,1140,1141],"ymouse":[493,493,493,493,493,493,493,493,493,493,493,493,493,493,493,493,493,493,493,493,493,493,491,483,476,474,472,470,468,465,458,449,426,401,378,361,351,336,324,312,297,280,267,243,235,221,207,189,184,181,180,179,177,176,160,151,142,122,114,109,104,98],"timestamp_mouse":[9,29,48,69,88,107,129,147,168,187,208,228,249,268,288,308,328,347,368,387,409,428,448,468,488,507,527,548,568,589,607,627,649,667,687,708,727,748,768,788,807,828,849,868,887,907,928,949,968,988,1007,1028,1049,1068,1087,1107,1127,1149,1168,1187,1208,1227],"xSR":741.5,"ySR":449.15000000000003,"xT1":424.9,"yT1":0,"xT2":1058.1,"yT2":0,"toosoon":0,"cond_shown":"equaldotsize","ratio_trial":500,"smaller_num":"9","larger_num":"18","correct_side":2,"subjID":"marianacardenassabogal29","gender":"1","age":"11","school":"6"},{"start_time":1551795153551,"click_time":1551795154679,"finger_time":1551795154258,"fix_duration":531.6532668540683,"trial":64,"RT":707,"MT":421,"sideResp":1,"stimulus":"img/900/randomdotsizeEA/L/8_Ratio_900_L_20_R_18.png","xmouse":[773,773,773,773,773,773,773,773,773,773,773,773,773,773,773,773,773,773,773,773,784,801,818,820,820,820,820,820,820,820,820,821,822,824,824,824,824,820,790,771,739,710,682,612,577,556,543,527,521,512,501,489,474,471,468,463,458],"ymouse":[497,497,497,497,497,497,497,497,497,497,497,497,497,497,497,497,497,497,497,497,488,477,463,460,458,458,458,458,458,458,458,457,455,450,450,447,446,440,425,415,397,379,358,299,270,249,234,209,203,189,174,158,129,120,110,100,93],"timestamp_mouse":[7,27,49,69,88,107,128,147,167,189,207,227,249,267,287,308,329,348,367,3