[{"start_time":1551793970353,"click_time":1551793973646,"finger_time":1551793970685,"fix_duration":565.1806823917217,"trial":0,"RT":332,"MT":2961,"sideResp":1,"stimulus":[],"xmouse":[829,829,829,829,828,828,828,827,826,825,823,823,822,822,825,833,881,912,980,1011,1081,1100,1101,1109,1129,1151,1166,1166,1166,1166,1166,1157,1143,1125,1107,1087,996,942,909,854,812,748,735,732,739,755,764,764,764,765,765,765,765,765,765,767,786,792,795,796,796,796,796,796,796,796,796,796,796,796,796,797,798,798,798,798,796,796,796,796,796,795,795,795,795,795,795,795,796,797,798,799,800,800,800,800,800,800,800,800,800,800,800,800,799,798,798,798,798,798,798,798,798,798,797,794,792,791,791,791,791,793,797,803,807,815,827,828,830,830,830,830,830,818,788,735,619,584,569,568,568,568,568,568,568,573,588,634,651,654,654,654,658,662,667,671,682,691,704,708,710,687,583,538,503],"ymouse":[523,523,523,523,523,523,523,523,523,523,523,523,521,507,485,456,364,313,253,239,219,218,218,216,210,199,178,173,172,172,172,171,166,158,155,155,162,173,183,215,249,383,470,539,571,586,587,587,587,587,591,593,593,593,594,594,578,564,550,540,534,534,534,534,534,534,534,534,534,534,533,530,528,526,526,526,525,525,525,525,525,522,520,519,519,519,519,517,516,512,501,496,489,488,488,488,488,488,488,488,488,488,490,492,495,497,497,497,497,497,497,497,497,497,497,499,500,500,500,500,500,500,499,495,491,486,475,471,469,469,469,469,465,461,452,441,422,413,404,404,404,404,404,404,404,404,404,409,412,413,413,413,421,427,433,435,437,435,414,403,347,283,126,77,39],"timestamp_mouse":[13,33,53,73,93,113,133,153,174,193,212,234,253,273,292,312,332,352,373,393,413,433,452,473,493,512,532,553,572,592,613,633,653,672,692,713,732,754,772,792,813,833,853,873,892,913,932,952,972,993,1013,1033,1053,1072,1094,1113,1133,1152,1172,1193,1214,1232,1253,1274,1292,1313,1333,1352,1372,1392,1413,1432,1452,1473,1492,1512,1533,1554,1573,1593,1612,1634,1654,1672,1692,1714,1732,1754,1773,1792,1813,1832,1853,1872,1892,1912,1932,1953,1972,1993,2014,2033,2053,2073,2092,2112,2132,2154,2173,2194,2214,2233,2254,2272,2294,2312,2332,2354,2373,2392,2413,2433,2453,2473,2492,2512,2532,2552,2573,2593,2614,2633,2653,2674,2692,2713,2732,2752,2774,2793,2814,2833,2852,2873,2893,2913,2933,2954,2973,2994,3013,3033,3053,3074,3092,3113,3133,3152,3173,3193,3212,3233,3253,3273,3293],"xSR":741.5,"ySR":481,"xT1":424.9,"yT1":0,"xT2":1058.1,"yT2":0,"toosoon":0,"cond_shown":"Incongruent","ratio_trial":200,"L_num":7,"L_den":15,"R_num":4,"R_den":6,"correct_side":2,"subjID":"marianacardenassabogal29","gender":"1","age":"11","school":"6","test":{"fix_dur":[250,1500],"timestim":1000,"targets_dim":[100,100],"targets_relative_coord":[0.3,0.7],"size_stim":[880,420],"start_dim":[100,100],"size_start":[300,300],"size_fix":60,"samplingrate":20,"img_types":["Congruent","Incongruent"],"ratios":[100,200,300],"rep_conds":19,"nTrials":120,"trials_to_rest":500,"Trials_order":[33,119,47,74,91,73,98,70,6,21,35,78,103,105,7,28,116,90,54,44,71,17,27,3,42,63,96,117,43,86,68,108,4,100,60,11,72,118,109,37,85,106,104,99,89,65,12,56,115,76,59,114,24,9,62,10,69,20,39,92,32,23,111,87,57,34,53,18,79,75,36,41,51,93,50,14,84,95,46,83,67,94,31,97,29,2,88,64,107,52,102,30,19,13,49,25,38,22,40,101,82,0,5,48,112,61,58,55,16,81,1,110,26,66,113,80,8,15,77,45],"cond_shown":["Incongruent","Incongruent","Incongruent","Congruent","Incongruent","Incongruent","Congruent","Congruent","Congruent","Incongruent","Incongruent","Congruent","Incongruent","Incongruent","Incongruent","Congruent","Congruent","Congruent","Congruent","Congruent","Incongruent","Incongruent","Incongruent","Incongruent","Congruent","Incongruent","Congruent","Incongruent","Incongruent","Congruent","Congruent","Congruent","Congruent","Congruent","Congruent","Incongruent","Congruent","Congruent","Incongruent","Incongruent","Incongruent","Congruent","Congruent","Incongruent","Incongruent","Incongruent","Congruent","Congruent","Incongruent","Congruent","Incongruent","Congruent","Congruent","Incongruent","Congruent","Congruent","Incongruent","Congruent","Incongruent","Congruent","Congruent","Incongruent","Incongruent","Incongruent","Incongruent","Congruent","Incongruent","Congruent","Incongruent","Incongruent","Congruent","Incongruent","Incongruent","Incongruent","Congruent","Congruent","Congruent","Incongruent","Congruent","Incongruent","Incongruent","Congruent","Incongruent","Incongruent","Incongruent","Congruent","Congruent","Congruent","Incongruent","Congruent","Congruent","Congruent","Incongruent","Incongruent","Incongruent","Incongruent","Congruent","Congruent","Congruent","Incongruent","Congruent","Congruent","Incongruent","Congruent","Congruent","Incongruent","Congruent","Incongruent","Congruent","Incongruent","Incongruent","Congruent","Congruent","Congruent","Incongruent","Congruent","Congruent","Incongruent","Incongruent","Incongruent"],"ratio_trial":[200,300,300,200,100,100,200,300,100,200,300,100,100,200,100,300,200,100,100,200,300,300,200,200,100,200,100,200,100,200,200,100,300,300,100,300,100,300,100,100,100,300,200,200,300,300,100,200,100,300,300,100,100,200,200,300,200,200,200,200,200,300,200,200,200,300,300,100,100,200,100,300,200,200,200,200,100,300,300,300,100,300,100,100,300,200,300,300,300,300,100,100,100,100,100,100,200,300,300,300,300,100,300,100,300,100,300,100,300,200,100,200,200,100,300,200,200,200,300,200],"left_num":[7,4,4,7,2,9,3,12,7,3,13,7,9,7,6,12,13,10,3,3,7,8,1,7,15,4,3,7,3,5,8,2,5,1,4,13,2,5,6,8,10,20,12,7,4,4,7,6,9,1,4,2,4,1,13,2,7,9,4,3,8,4,6,1,7,24,2,12,1,3,2,13,1,6,4,5,8,8,12,13,3,2,10,13,4,16,20,2,8,11,2,3,3,3,10,2,14,5,4,2,1,11,8,1,3,11,4,8,24,4,1,8,20,7,4,7,14,7,2,14],"right_num":[4,8,8,2,6,14,14,2,9,11,12,9,6,14,11,2,14,3,2,7,8,14,3,6,13,1,2,12,4,14,2,11,6,6,6,12,11,7,13,6,9,9,6,12,8,2,15,7,14,11,2,6,15,2,14,10,14,13,6,14,2,8,3,3,12,2,6,13,8,1,11,12,3,3,3,14,2,9,2,12,7,12,8,6,2,12,13,10,14,1,6,2,7,7,9,6,6,7,1,6,8,4,14,3,2,9,2,1,2,6,8,7,9,15,8,18,6,8,6,6],"left_den":[15,5,5,21,4,15,10,24,14,4,26,14,18,10,10,24,26,25,6,10,10,10,2,15,25,30,6,10,6,10,15,5,25,5,8,26,5,25,10,16,25,25,20,10,5,20,14,12,15,5,20,5,10,3,26,20,10,30,5,10,15,5,20,2,10,30,4,30,2,10,5,26,2,20,10,10,16,10,24,26,9,10,25,26,20,20,25,20,10,22,5,6,9,9,25,4,28,25,10,4,30,22,10,2,6,22,5,20,30,5,2,15,25,14,5,15,28,10,4,30],"right_den":[6,16,16,15,15,28,28,10,15,20,15,15,10,28,22,10,20,10,5,14,20,28,10,9,26,3,5,24,10,20,6,22,12,12,10,15,22,14,26,10,18,18,15,24,16,4,25,10,28,22,4,12,30,15,20,25,28,26,10,28,6,16,6,10,24,4,30,26,20,2,22,15,10,6,15,20,5,18,10,15,30,24,16,10,4,20,26,25,28,5,12,5,30,30,18,15,20,14,10,30,24,10,28,5,10,15,4,2,4,10,20,21,15,25,16,27,20,16,30,9],"correct_side":[2,1,1,1,1,1,2,1,2,1,2,2,2,1,1,1,2,1,1,2,1,1,1,2,1,2,1,1,1,2,1,2,2,2,2,2,2,2,1,2,2,1,1,1,1,2,2,2,1,2,2,2,2,1,2,2,1,2,1,2,1,1,2,1,1,1,1,2,1,2,2,2,1,2,1,2,1,1,1,2,1,2,2,2,2,1,1,2,1,1,2,1,1,1,2,1,1,2,1,1,2,1,1,2,1,2,1,2,1,1,1,1,1,2,1,2,1,1,1,2],"img_shown":["img2/200/Incongruent/R/I_Dist_200_LN_7_LD_15_RN_4_RD_6_1.png","img2/300/Incongruent/L/I_Dist_300_LN_4_LD_5_RN_8_RD_16_0.png","img2/300/Incongruent/L/I_Dist_300_LN_4_LD_5_RN_8_RD_16_0.png","img2/200/Congruent/L/C_Dist_200_LN_7_LD_21_RN_2_RD_15_0.png","img2/100/Incongruent/L/I_Dist_100_LN_2_LD_4_RN_6_RD_15_0.png","img2/100/Incongruent/L/I_Dist_100_LN_9_LD_15_RN_14_RD_28_0.png","img2/200/Congruent/R/C_Dist_200_LN_3_LD_10_RN_14_RD_28_1.png","img2/300/Congruent/L/C_Dist_300_LN_12_LD_24_RN_2_RD_10_0.png","img2/100/Congruent/R/C_Dist_100_LN_7_LD_14_RN_9_RD_15_1.png","img2/200/Incongruent/L/I_Dist_200_LN_3_LD_4_RN_11_RD_20_0.png","img2/300/Incongruent/R/I_Dist_300_LN_13_LD_26_RN_12_RD_15_1.png","img2/100/Congruent/R/C_Dist_100_LN_7_LD_14_RN_9_RD_15_1.png","img2/100/Incongruent/R/I_Dist_100_LN_9_LD_18_RN_6_RD_10_1.png","img2/200/Incongruent/L/I_Dist_200_LN_7_LD_10_RN_14_RD_28_0.png","img2/100/Incongruent/L/I_Dist_100_LN_6_LD_10_RN_11_RD_22_0.png","img2/300/Congruent/L/C_Dist_300_LN_12_LD_24_RN_2_RD_10_0.png","img2/200/Congruent/R/C_Dist_200_LN_13_LD_26_RN_14_RD_20_1.png","img2/100/Congruent/L/C_Dist_100_LN_10_LD_25_RN_3_RD_10_0.png","img2/100/Congruent/L/C_Dist_100_LN_3_LD_6_RN_2_RD_5_0.png","img2/200/Congruent/R/C_Dist_200_LN_3_LD_10_RN_7_RD_14_1.png","img2/300/Incongruent/L/I_Dist_300_LN_7_LD_10_RN_8_RD_20_0.png","img2/300/Incongruent/L/I_Dist_300_LN_8_LD_10_RN_14_RD_28_0.png","img2/200/Incongruent/L/I_Dist_200_LN_1_LD_2_RN_3_RD_10_0.png","img2/200/Incongruent/R/I_Dist_200_LN_7_LD_15_RN_6_RD_9_1.png","img2/100/Congruent/L/C_Dist_100_LN_15_LD_25_RN_13_RD_26_0.png","img2/200/Incongruent/R/I_Dist_200_LN_4_LD_30_RN_1_RD_3_1.png","img2/100/Congruent/L/C_Dist_100_LN_3_LD_6_RN_2_RD_5_0.png","img2/200/Incongruent/L/I_Dist_200_LN_7_LD_10_RN_12_RD_24_0.png","img2/100/Incongruent/L/I_Dist_100_LN_3_LD_6_RN_4_RD_10_0.png","img2/200/Congruent/R/C_Dist_200_LN_5_LD_10_RN_14_RD_20_1.png","img2/200/Congruent/L/C_Dist_200_LN_8_LD_15_RN_2_RD_6_0.png","img2/100/Congruent/R/C_Dist_100_LN_2_LD_5_RN_11_RD_22_1.png","img2/300/Congruent/R/C_Dist_300_LN_5_LD_25_RN_6_RD_12_1.png","img2/300/Congruent/R/C_Dist_300_LN_1_LD_5_RN_6_RD_12_1.png","img2/100/Congruent/R/C_Dist_100_LN_4_LD_8_RN_6_RD_10_1.png","img2/300/Incongruent/R/I_Dist_300_LN_13_LD_26_RN_12_RD_15_1.png","img2/100/Congruent/R/C_Dist_100_LN_2_LD_5_RN_11_RD_22_1.png","img2/300/Congruent/R/C_Dist_300_LN_5_LD_25_RN_7_RD_14_1.png","img2/100/Incongruent/L/I_Dist_100_LN_6_LD_10_RN_13_RD_26_0.png","img2/100/Incongruent/R/I_Dist_100_LN_8_LD_16_RN_6_RD_10_1.png","img2/100/Incongruent/R/I_Dist_100_LN_10_LD_25_RN_9_RD_18_1.png","img2/300/Congruent/L/C_Dist_300_LN_20_LD_25_RN_9_RD_18_0.png","img2/200/Congruent/L/C_Dist_200_LN_12_LD_20_RN_6_RD_15_0.png","img2/200/Incongruent/L/I_Dist_200_LN_7_LD_10_RN_12_RD_24_0.png","img2/300/Incongruent/L/I_Dist_300_LN_4_LD_5_RN_8_RD_16_0.png","img2/300/Incongruent/R/I_Dist_300_LN_4_LD_20_RN_2_RD_4_1.png","img2/100/Congruent/R/C_Dist_100_LN_7_LD_14_RN_15_RD_25_1.png","img2/200/Congruent/R/C_Dist_200_LN_6_LD_12_RN_7_RD_10_1.png","img2/100/Incongruent/L/I_Dist_100_LN_9_LD_15_RN_14_RD_28_0.png","img2/300/Congruent/R/C_Dist_300_LN_1_LD_5_RN_11_RD_22_1.png","img2/300/Incongruent/R/I_Dist_300_LN_4_LD_20_RN_2_RD_4_1.png","img2/100/Congruent/R/C_Dist_100_LN_2_LD_5_RN_6_RD_12_1.png","img2/100/Congruent/R/C_Dist_100_LN_4_LD_10_RN_15_RD_30_1.png","img2/200/Incongruent/L/I_Dist_200_LN_1_LD_3_RN_2_RD_15_0.png","img2/200/Congruent/R/C_Dist_200_LN_13_LD_26_RN_14_RD_20_1.png","img2/300/Congruent/R/C_Dist_300_LN_2_LD_20_RN_10_RD_25_1.png","img2/200/Incongruent/L/I_Dist_200_LN_7_LD_10_RN_14_RD_28_0.png","img2/200/Congruent/R/C_Dist_200_LN_9_LD_30_RN_13_RD_26_1.png","img2/200/Incongruent/L/I_Dist_200_LN_4_LD_5_RN_6_RD_10_0.png","img2/200/Congruent/R/C_Dist_200_LN_3_LD_10_RN_14_RD_28_1.png","img2/200/Congruent/L/C_Dist_200_LN_8_LD_15_RN_2_RD_6_0.png","img2/300/Incongruent/L/I_Dist_300_LN_4_LD_5_RN_8_RD_16_0.png","img2/200/Incongruent/R/I_Dist_200_LN_6_LD_20_RN_3_RD_6_1.png","img2/200/Incongruent/L/I_Dist_200_LN_1_LD_2_RN_3_RD_10_0.png","img2/200/Incongruent/L/I_Dist_200_LN_7_LD_10_RN_12_RD_24_0.png","img2/300/Congruent/L/C_Dist_300_LN_24_LD_30_RN_2_RD_4_0.png","img2/300/Incongruent/L/I_Dist_300_LN_2_LD_4_RN_6_RD_30_0.png","img2/100/Congruent/R/C_Dist_100_LN_12_LD_30_RN_13_RD_26_1.png","img2/100/Incongruent/L/I_Dist_100_LN_1_LD_2_RN_8_RD_20_0.png","img2/200/Incongruent/R/I_Dist_200_LN_3_LD_10_RN_1_RD_2_1.png","img2/100/Congruent/R/C_Dist_100_LN_2_LD_5_RN_11_RD_22_1.png","img2/300/Incongruent/R/I_Dist_300_LN_13_LD_26_RN_12_RD_15_1.png","img2/200/Incongruent/L/I_Dist_200_LN_1_LD_2_RN_3_RD_10_0.png","img2/200/Incongruent/R/I_Dist_200_LN_6_LD_20_RN_3_RD_6_1.png","img2/200/Congruent/L/C_Dist_200_LN_4_LD_10_RN_3_RD_15_0.png","img2/200/Congruent/R/C_Dist_200_LN_5_LD_10_RN_14_RD_20_1.png","img2/100/Congruent/L/C_Dist_100_LN_8_LD_16_RN_2_RD_5_0.png","img2/300/Incongruent/L/I_Dist_300_LN_8_LD_10_RN_9_RD_18_0.png","img2/300/Congruent/L/C_Dist_300_LN_12_LD_24_RN_2_RD_10_0.png","img2/300/Incongruent/R/I_Dist_300_LN_13_LD_26_RN_12_RD_15_1.png","img2/100/Incongruent/L/I_Dist_100_LN_3_LD_9_RN_7_RD_30_0.png","img2/300/Congruent/R/C_Dist_300_LN_2_LD_10_RN_12_RD_24_1.png","img2/100/Incongruent/R/I_Dist_100_LN_10_LD_25_RN_8_RD_16_1.png","img2/100/Incongruent/R/I_Dist_100_LN_13_LD_26_RN_6_RD_10_1.png","img2/300/Incongruent/R/I_Dist_300_LN_4_LD_20_RN_2_RD_4_1.png","img2/200/Congruent/L/C_Dist_200_LN_16_LD_20_RN_12_RD_20_0.png","img2/300/Congruent/L/C_Dist_300_LN_20_LD_25_RN_13_RD_26_0.png","img2/300/Congruent/R/C_Dist_300_LN_2_LD_20_RN_10_RD_25_1.png","img2/300/Incongruent/L/I_Dist_300_LN_8_LD_10_RN_14_RD_28_0.png","img2/300/Congruent/L/C_Dist_300_LN_11_LD_22_RN_1_RD_5_0.png","img2/100/Congruent/R/C_Dist_100_LN_2_LD_5_RN_6_RD_12_1.png","img2/100/Congruent/L/C_Dist_100_LN_3_LD_6_RN_2_RD_5_0.png","img2/100/Incongruent/L/I_Dist_100_LN_3_LD_9_RN_7_RD_30_0.png","img2/100/Incongruent/L/I_Dist_100_LN_3_LD_9_RN_7_RD_30_0.png","img2/100/Incongruent/R/I_Dist_100_LN_10_LD_25_RN_9_RD_18_1.png","img2/100/Incongruent/L/I_Dist_100_LN_2_LD_4_RN_6_RD_15_0.png","img2/200/Congruent/L/C_Dist_200_LN_14_LD_28_RN_6_RD_20_0.png","img2/300/Congruent/R/C_Dist_300_LN_5_LD_25_RN_7_RD_14_1.png","img2/300/Congruent/L/C_Dist_300_LN_4_LD_10_RN_1_RD_10_0.png","img2/300/Incongruent/L/I_Dist_300_LN_2_LD_4_RN_6_RD_30_0.png","img2/300/Congruent/R/C_Dist_300_LN_1_LD_30_RN_8_RD_24_1.png","img2/100/Congruent/L/C_Dist_100_LN_11_LD_22_RN_4_RD_10_0.png","img2/300/Incongruent/L/I_Dist_300_LN_8_LD_10_RN_14_RD_28_0.png","img2/100/Congruent/R/C_Dist_100_LN_1_LD_2_RN_3_RD_5_1.png","img2/300/Congruent/L/C_Dist_300_LN_3_LD_6_RN_2_RD_10_0.png","img2/100/Incongruent/R/I_Dist_100_LN_11_LD_22_RN_9_RD_15_1.png","img2/300/Congruent/L/C_Dist_300_LN_4_LD_5_RN_2_RD_4_0.png","img2/100/Incongruent/R/I_Dist_100_LN_8_LD_20_RN_1_RD_2_1.png","img2/300/Congruent/L/C_Dist_300_LN_24_LD_30_RN_2_RD_4_0.png","img2/200/Incongruent/L/I_Dist_200_LN_4_LD_5_RN_6_RD_10_0.png","img2/100/Incongruent/L/I_Dist_100_LN_1_LD_2_RN_8_RD_20_0.png","img2/200/Congruent/L/C_Dist_200_LN_8_LD_15_RN_7_RD_21_0.png","img2/200/Congruent/L/C_Dist_200_LN_20_LD_25_RN_9_RD_15_0.png","img2/100/Congruent/R/C_Dist_100_LN_7_LD_14_RN_15_RD_25_1.png","img2/300/Incongruent/L/I_Dist_300_LN_4_LD_5_RN_8_RD_16_0.png","img2/200/Congruent/R/C_Dist_200_LN_7_LD_15_RN_18_RD_27_1.png","img2/200/Congruent/L/C_Dist_200_LN_14_LD_28_RN_6_RD_20_0.png","img2/200/Incongruent/L/I_Dist_200_LN_7_LD_10_RN_8_RD_16_0.png","img2/300/Incongruent/L/I_Dist_300_LN_2_LD_4_RN_6_RD_30_0.png","img2/200/Incongruent/R/I_Dist_200_LN_14_LD_30_RN_6_RD_9_1.png"],"dist100_C":[["C_Dist_100_LN_10_LD_25_RN_3_RD_10_0.png","C_Dist_100_LN_11_LD_22_RN_4_RD_10_0.png","C_Dist_100_LN_11_LD_22_RN_6_RD_15_0.png","C_Dist_100_LN_15_LD_25_RN_13_RD_26_0.png","C_Dist_100_LN_3_LD_6_RN_2_RD_5_0.png","C_Dist_100_LN_6_LD_20_RN_5_RD_25_0.png","C_Dist_100_LN_8_LD_16_RN_2_RD_5_0.png","C_Dist_100_LN_9_LD_15_RN_8_RD_16_0.png"],["C_Dist_100_LN_1_LD_2_RN_18_RD_30_1.png","C_Dist_100_LN_1_LD_2_RN_3_RD_5_1.png","C_Dist_100_LN_12_LD_30_RN_13_RD_26_1.png","C_Dist_100_LN_2_LD_5_RN_11_RD_22_1.png","C_Dist_100_LN_2_LD_5_RN_6_RD_12_1.png","C_Dist_100_LN_3_LD_20_RN_4_RD_16_1.png","C_Dist_100_LN_4_LD_10_RN_15_RD_30_1.png","C_Dist_100_LN_4_LD_8_RN_6_RD_10_1.png","C_Dist_100_LN_6_LD_12_RN_15_RD_25_1.png","C_Dist_100_LN_7_LD_14_RN_15_RD_25_1.png","C_Dist_100_LN_7_LD_14_RN_9_RD_15_1.png"]],"dist100_I":[["I_Dist_100_LN_1_LD_2_RN_8_RD_20_0.png","I_Dist_100_LN_2_LD_4_RN_6_RD_15_0.png","I_Dist_100_LN_2_LD_4_RN_8_RD_20_0.png","I_Dist_100_LN_3_LD_5_RN_11_RD_22_0.png","I_Dist_100_LN_3_LD_5_RN_8_RD_16_0.png","I_Dist_100_LN_3_LD_6_RN_4_RD_10_0.png","I_Dist_100_LN_3_LD_9_RN_7_RD_30_0.png","I_Dist_100_LN_4_LD_8_RN_8_RD_20_0.png","I_Dist_100_LN_6_LD_10_RN_11_RD_22_0.png","I_Dist_100_LN_6_LD_10_RN_13_RD_26_0.png","I_Dist_100_LN_6_LD_10_RN_7_RD_14_0.png","I_Dist_100_LN_9_LD_10_RN_20_RD_25_0.png","I_Dist_100_LN_9_LD_15_RN_13_RD_26_0.png","I_Dist_100_LN_9_LD_15_RN_14_RD_28_0.png"],["I_Dist_100_LN_10_LD_25_RN_8_RD_16_1.png","I_Dist_100_LN_10_LD_25_RN_9_RD_18_1.png","I_Dist_100_LN_11_LD_22_RN_9_RD_15_1.png","I_Dist_100_LN_12_LD_24_RN_9_RD_15_1.png","I_Dist_100_LN_12_LD_30_RN_2_RD_4_1.png","I_Dist_100_LN_13_LD_26_RN_12_RD_20_1.png","I_Dist_100_LN_13_LD_26_RN_6_RD_10_1.png","I_Dist_100_LN_17_LD_30_RN_10_RD_15_1.png","I_Dist_100_LN_6_LD_12_RN_3_RD_5_1.png","I_Dist_100_LN_8_LD_16_RN_6_RD_10_1.png","I_Dist_100_LN_8_LD_20_RN_1_RD_2_1.png","I_Dist_100_LN_9_LD_18_RN_6_RD_10_1.png"]],"dist100_S":[["E_Dist_100_LN_2_LD_12_RN_2_RD_30_0.png","E_Dist_100_LN_6_LD_10_RN_6_RD_12_0.png"],["E_Dist_100_LN_6_LD_12_RN_6_RD_10_1.png"]],"dist200_C":[["C_Dist_200_LN_11_LD_22_RN_3_RD_10_0.png","C_Dist_200_LN_12_LD_15_RN_6_RD_10_0.png","C_Dist_200_LN_12_LD_20_RN_6_RD_15_0.png","C_Dist_200_LN_14_LD_28_RN_6_RD_20_0.png","C_Dist_200_LN_15_LD_25_RN_4_RD_10_0.png","C_Dist_200_LN_16_LD_20_RN_12_RD_20_0.png","C_Dist_200_LN_16_LD_30_RN_9_RD_27_0.png","C_Dist_200_LN_20_LD_25_RN_9_RD_15_0.png","C_Dist_200_LN_21_LD_30_RN_2_RD_4_0.png","C_Dist_200_LN_4_LD_10_RN_3_RD_15_0.png","C_Dist_200_LN_4_LD_8_RN_3_RD_10_0.png","C_Dist_200_LN_6_LD_15_RN_3_RD_15_0.png","C_Dist_200_LN_7_LD_21_RN_2_RD_15_0.png","C_Dist_200_LN_8_LD_15_RN_2_RD_6_0.png","C_Dist_200_LN_8_LD_15_RN_3_RD_9_0.png","C_Dist_200_LN_8_LD_15_RN_7_RD_21_0.png","C_Dist_200_LN_9_LD_20_RN_4_RD_16_0.png"],["C_Dist_200_LN_1_LD_2_RN_21_RD_30_1.png","C_Dist_200_LN_13_LD_26_RN_14_RD_20_1.png","C_Dist_200_LN_3_LD_10_RN_11_RD_22_1.png","C_Dist_200_LN_3_LD_10_RN_14_RD_28_1.png","C_Dist_200_LN_3_LD_10_RN_7_RD_14_1.png","C_Dist_200_LN_3_LD_12_RN_9_RD_20_1.png","C_Dist_200_LN_3_LD_6_RN_14_RD_20_1.png","C_Dist_200_LN_5_LD_10_RN_14_RD_20_1.png","C_Dist_200_LN_6_LD_12_RN_7_RD_10_1.png","C_Dist_200_LN_6_LD_20_RN_11_RD_22_1.png","C_Dist_200_LN_7_LD_15_RN_18_RD_27_1.png","C_Dist_200_LN_9_LD_30_RN_13_RD_26_1.png"]],"dist200_I":[["I_Dist_200_LN_1_LD_2_RN_3_RD_10_0.png","I_Dist_200_LN_1_LD_3_RN_2_RD_15_0.png","I_Dist_200_LN_3_LD_4_RN_11_RD_20_0.png","I_Dist_200_LN_4_LD_5_RN_6_RD_10_0.png","I_Dist_200_LN_4_LD_6_RN_14_RD_30_0.png","I_Dist_200_LN_7_LD_10_RN_12_RD_24_0.png","I_Dist_200_LN_7_LD_10_RN_14_RD_28_0.png","I_Dist_200_LN_7_LD_10_RN_8_RD_16_0.png"],["I_Dist_200_LN_11_LD_20_RN_3_RD_4_1.png","I_Dist_200_LN_14_LD_30_RN_12_RD_18_1.png","I_Dist_200_LN_14_LD_30_RN_6_RD_9_1.png","I_Dist_200_LN_3_LD_10_RN_1_RD_2_1.png","I_Dist_200_LN_4_LD_30_RN_1_RD_3_1.png","I_Dist_200_LN_6_LD_20_RN_3_RD_6_1.png","I_Dist_200_LN_7_LD_15_RN_4_RD_6_1.png","I_Dist_200_LN_7_LD_15_RN_6_RD_9_1.png","I_Dist_200_LN_9_LD_15_RN_8_RD_10_1.png"]],"dist200_S":[["E_Dist_200_LN_3_LD_6_RN_3_RD_10_0.png"],["E_Dist_200_LN_3_LD_10_RN_3_RD_6_1.png"]],"dist300_C":[["C_Dist_300_LN_11_LD_22_RN_1_RD_5_0.png","C_Dist_300_LN_11_LD_22_RN_2_RD_10_0.png","C_Dist_300_LN_11_LD_22_RN_4_RD_20_0.png","C_Dist_300_LN_12_LD_24_RN_2_RD_10_0.png","C_Dist_300_LN_18_LD_20_RN_9_RD_15_0.png","C_Dist_300_LN_20_LD_25_RN_13_RD_26_0.png","C_Dist_300_LN_20_LD_25_RN_14_RD_28_0.png","C_Dist_300_LN_20_LD_25_RN_5_RD_10_0.png","C_Dist_300_LN_20_LD_25_RN_8_RD_16_0.png","C_Dist_300_LN_20_LD_25_RN_9_RD_18_0.png","C_Dist_300_LN_24_LD_30_RN_2_RD_4_0.png","C_Dist_300_LN_24_LD_30_RN_8_RD_16_0.png","C_Dist_300_LN_3_LD_6_RN_2_RD_10_0.png","C_Dist_300_LN_4_LD_10_RN_1_RD_10_0.png","C_Dist_300_LN_4_LD_5_RN_2_RD_4_0.png","C_Dist_300_LN_8_LD_16_RN_1_RD_5_0.png","C_Dist_300_LN_9_LD_10_RN_3_RD_5_0.png"],["C_Dist_300_LN_1_LD_20_RN_7_RD_20_1.png","C_Dist_300_LN_1_LD_3_RN_19_RD_30_1.png","C_Dist_300_LN_1_LD_30_RN_8_RD_24_1.png","C_Dist_300_LN_1_LD_5_RN_11_RD_22_1.png","C_Dist_300_LN_1_LD_5_RN_3_RD_6_1.png","C_Dist_300_LN_1_LD_5_RN_6_RD_12_1.png","C_Dist_300_LN_2_LD_10_RN_12_RD_24_1.png","C_Dist_300_LN_2_LD_20_RN_10_RD_25_1.png","C_Dist_300_LN_3_LD_12_RN_11_RD_20_1.png","C_Dist_300_LN_3_LD_6_RN_4_RD_5_1.png","C_Dist_300_LN_4_LD_20_RN_13_RD_26_1.png","C_Dist_300_LN_5_LD_25_RN_6_RD_12_1.png","C_Dist_300_LN_5_LD_25_RN_7_RD_14_1.png","C_Dist_300_LN_7_LD_14_RN_20_RD_25_1.png","C_Dist_300_LN_8_LD_15_RN_10_RD_12_1.png"]],"dist300_I":[["I_Dist_300_LN_1_LD_2_RN_2_RD_10_0.png","I_Dist_300_LN_1_LD_2_RN_3_RD_15_0.png","I_Dist_300_LN_2_LD_4_RN_6_RD_30_0.png","I_Dist_300_LN_3_LD_6_RN_4_RD_20_0.png","I_Dist_300_LN_4_LD_5_RN_6_RD_12_0.png","I_Dist_300_LN_4_LD_5_RN_8_RD_16_0.png","I_Dist_300_LN_7_LD_10_RN_8_RD_20_0.png","I_Dist_300_LN_8_LD_10_RN_14_RD_28_0.png","I_Dist_300_LN_8_LD_10_RN_9_RD_18_0.png"],["I_Dist_300_LN_13_LD_26_RN_12_RD_15_1.png","I_Dist_300_LN_4_LD_20_RN_2_RD_4_1.png"]],"dist300_S":[["E_Dist_300_LN_9_LD_12_RN_9_RD_20_0.png"],["E_Dist_300_LN_18_LD_30_RN_18_RD_20_1.png","E_Dist_300_LN_3_LD_10_RN_3_RD_5_1.png","E_Dist_300_LN_9_LD_20_RN_9_RD_12_1.png"]],"dist500_C":[["C_Dist_500_LN_10_LD_13_RN_7_RD_26_0.png","C_Dist_500_LN_10_LD_15_RN_4_RD_24_0.png","C_Dist_500_LN_12_LD_16_RN_3_RD_12_0.png","C_Dist_500_LN_12_LD_18_RN_4_RD_24_0.png","C_Dist_500_LN_15_LD_18_RN_5_RD_15_0.png","C_Dist_500_LN_15_LD_20_RN_1_RD_4_0.png","C_Dist_500_LN_18_LD_27_RN_1_RD_6_0.png","C_Dist_500_LN_20_LD_24_RN_1_RD_3_0.png","C_Dist_500_LN_20_LD_24_RN_3_RD_9_0.png","C_Dist_500_LN_20_LD_24_RN_7_RD_21_0.png","C_Dist_500_LN_20_LD_28_RN_3_RD_14_0.png","C_Dist_500_LN_21_LD_28_RN_6_RD_24_0.png","C_Dist_500_LN_22_LD_28_RN_2_RD_7_0.png","C_Dist_500_LN_25_LD_30_RN_9_RD_27_0.png","C_Dist_500_LN_4_LD_6_RN_1_RD_6_0.png","C_Dist_500_LN_5_LD_6_RN_2_RD_6_0.png","C_Dist_500_LN_6_LD_9_RN_1_RD_6_0.png","C_Dist_500_LN_7_LD_10_RN_1_RD_5_0.png","C_Dist_500_LN_8_LD_12_RN_1_RD_6_0.png","C_Dist_500_LN_8_LD_12_RN_4_RD_24_0.png"],["C_Dist_500_LN_1_LD_4_RN_12_RD_16_1.png","C_Dist_500_LN_1_LD_4_RN_9_RD_12_1.png","C_Dist_500_LN_1_LD_9_RN_11_RD_18_1.png","C_Dist_500_LN_10_LD_24_RN_22_RD_24_1.png","C_Dist_500_LN_2_LD_12_RN_10_RD_15_1.png","C_Dist_500_LN_2_LD_12_RN_12_RD_18_1.png","C_Dist_500_LN_2_LD_12_RN_4_RD_6_1.png","C_Dist_500_LN_2_LD_24_RN_7_RD_12_1.png","C_Dist_500_LN_2_LD_5_RN_18_RD_20_1.png","C_Dist_500_LN_2_LD_5_RN_9_RD_10_1.png","C_Dist_500_LN_2_LD_8_RN_12_RD_16_1.png","C_Dist_500_LN_2_LD_8_RN_21_RD_28_1.png","C_Dist_500_LN_3_LD_10_RN_4_RD_5_1.png","C_Dist_500_LN_3_LD_12_RN_15_RD_20_1.png","C_Dist_500_LN_3_LD_30_RN_6_RD_10_1.png","C_Dist_500_LN_3_LD_8_RN_14_RD_16_1.png","C_Dist_500_LN_4_LD_16_RN_15_RD_20_1.png","C_Dist_500_LN_4_LD_24_RN_12_RD_18_1.png","C_Dist_500_LN_5_LD_14_RN_6_RD_7_1.png","C_Dist_500_LN_7_LD_21_RN_20_RD_24_1.png","C_Dist_500_LN_7_LD_28_RN_12_RD_16_1.png","C_Dist_500_LN_7_LD_28_RN_9_RD_12_1.png","C_Dist_500_LN_9_LD_27_RN_20_RD_24_1.png"]],"dist500_I":[["I_Dist_500_LN_2_LD_3_RN_4_RD_24_0.png","I_Dist_500_LN_5_LD_6_RN_6_RD_18_0.png","I_Dist_500_LN_7_LD_8_RN_9_RD_24_0.png"],["I_Dist_500_LN_7_LD_21_RN_5_RD_6_1.png"]],"dist500_S":[["E_Dist_500_LN_6_LD_8_RN_6_RD_24_0.png"],["E_Dist_500_LN_2_LD_12_RN_2_RD_3_1.png","E_Dist_500_LN_6_LD_24_RN_6_RD_8_1.png"]]}},{"start_time":1551793981137,"click_time":1551793982146,"finger_time":1551793981365,"fix_duration":250,"trial":1,"RT":228,"MT":781,"sideResp":2,"stimulus":[],"xmouse":[785,785,785,785,785,785,785,785,789,796,820,880,950,974,991,1007,1019,1025,1027,1032,1034,1035,1031,1024,1021,1019,1019,1018,1018,1018,1019,1030,1049,1060,1069,1085,1103,1131,1184,1188,1189,1189,1189,1189,1189,1189,1189,1189,1179,1164,1151],"ymouse":[492,492,492,492,492,492,492,492,491,487,475,451,414,402,388,375,364,348,337,319,307,289,267,259,255,253,249,243,230,225,219,208,196,192,186,178,168,152,110,93,85,84,84,84,84,84,84,83,83,83,83],"timestamp_mouse":[8,29,48,68,88,110,129,148,169,189,210,228,248,269,289,308,330,349,369,389,409,428,449,469,490,508,529,549,568,589,610,628,649,670,689,709,730,748,769,788,809,829,849,868,888,909,929,949,968,988,1009],"xSR":741.5,"ySR":449.15000000000003,"xT1":424.9,"yT1":0,"xT2":1058.1,"yT2":0,"toosoon":0,"cond_shown":"Incongruent","ratio_trial":300,"L_num":4,"L_den":5,"R_num":8,"R_den":16,"correct_side":1,"subjID":"marianacardenassabogal29","gender":"1","school":"6","age":"11"},{"start_time":1551793990859,"click_time":1551793991746,"finger_time":1551793991386,"fix_duration":1032.9121200670904,"trial":2,"RT":527,"MT":360,"sideResp":2,"stimulus":[],"xmouse":[800,800,800,800,800,800,800,800,800,800,800,800,800,800,800,800,800,800,800,800,800,800,800,800,812,835,906,946,990,1043,1089,1145,1170,1191,1207,1215,1215,1218,1218,1218,1218,1210,1194,1170,1139],"ymouse":[518,518,518,518,518,518,518,518,518,518,518,518,518,518,518,518,518,518,518,518,518,518,518,518,510,497,448,416,372,318,258,164,133,112,101,96,96,96,96,96,96,94,92,89,83],"timestamp_mouse":[7,28,46,66,86,107,126,148,168,188,207,227,248,266,287,306,328,346,368,386,408,427,446,467,488,506,527,547,567,586,608,627,646,667,687,706,727,746,767,786,808,827,847,867,887],"xSR":741.5,"ySR":449.15000000000003,"xT1":424.9,"yT1":0,"xT2":1058.1,"yT2":0,"toosoon":0,"cond_shown":"Incongruent","ratio_trial":300,"L_num":4,"L_den":5,"R_num":8,"R_den":16,"correct_side":1,"subjID":"marianacardenassabogal29","gender":"1","school":"6","age":"11"},{"start_time":1551793994074,"click_time":1551793996606,"finger_time":1551793996506,"fix_duration":667.5711932194505,"trial":3,"RT":2432,"MT":100,"sideResp":1,"stimulus":[],"xmouse":[809,811,812,813,813,813,813,813,813,813,813,813,813,815,816,818,818,818,818,819,820,822,822,822,823,823,823,825,826,827,827,827,827,827,827,827,827,827,827,829,830,830,830,830,830,830,830,830,830,830,830,830,830,830,830,830,830,830,830,830,830,830,830,830,830,830,830,830,830,830,830,830,830,830,830,830,830,830,830,830,830,830,830,830,830,830,830,830,830,830,830,830,830,830,830,830,830,830,830,830,830,830,830,830,830,830,830,830,830,830,830,830,830,830,830,830,830,830,830,830,820,724,654,595,544,526,520],"ymouse":[491,491,491,491,491,491,491,491,491,491,491,491,491,491,491,491,491,491,491,491,491,491,491,491,491,491,491,491,491,491,491,491,491,491,491,491,491,491,491,491,491,491,491,491,491,491,491,491,491,491,491,491,491,491,491,491,491,491,491,491,491,491,491,491,491,491,491,491,491,491,491,491,491,491,491,491,491,491,491,491,491,491,491,491,491,491,491,491,491,491,491,491,491,491,491,491,491,491,491,491,491,491,491,491,491,491,491,491,491,491,491,491,491,491,491,491,491,491,491,489,477,376,273,186,122,89,76],"timestamp_mouse":[17,32,51,72,91,111,132,152,172,193,212,231,252,271,292,312,332,351,371,392,412,433,452,471,492,513,531,551,573,592,612,632,651,672,693,711,731,752,772,792,812,832,852,871,893,911,931,952,971,992,1013,1033,1052,1072,1093,1112,1132,1151,1173,1193,1212,1232,1252,1273,1291,1312,1332,1351,1372,1392,1411,1433,1453,1473,1491,1512,1533,1553,1571,1591,1612,1631,1652,1671,1692,1712,1731,1753,1771,1791,1812,1833,1851,1873,1891,1912,1932,1951,1972,1992,2011,2031,2051,2072,2091,2113,2132,2152,2172,2193,2211,2231,2252,2272,2293,2312,2332,2352,2372,2392,2412,2432,2452,2472,2491,2512,2532],"xSR":741.5,"ySR":449.15000000000003,"xT1":424.9,"yT1":0,"xT2":1058.1,"yT2":0,"toosoon":0,"cond_shown":"Congruent","ratio_trial":200,"L_num":7,"L_den":21,"R_num":2,"R_den":15,"correct_side":1,"subjID":"marianacardenassabogal29","gender":"1","school":"6","age":"11"},{"start_time":1551793998286,"click_time":1551793998627,"finger_time":1551793998566,"fix_duration":918.7930878786838,"trial":4,"RT":280,"MT":61,"sideResp":1,"stimulus":[],"xmouse":[797,797,797,797,797,797,797,797,797,797,797,797,797,793,768,633,547,505],"ymouse":[490,490,490,490,490,490,490,490,490,490,490,490,490,472,418,221,91,9],"timestamp_mouse":[0,21,39,59,79,101,119,139,160,180,200,219,240,259,280,299,320,341],"xSR":741.5,"ySR":449.15000000000003,"xT1":424.9,"yT1":0,"xT2":1058.1,"yT2":0,"toosoon":0,"cond_shown":"Incongruent","ratio_trial":100,"L_num":2,"L_den":4,"R_num":6,"R_den":15,"correct_side":1,"subjID":"marianacardenassabogal29","gender":"1","school":"6","age":"11"},{"start_time":1551794000659,"click_time":1551794002905,"finger_time":1551794002726,"fix_duration":1131.208450662298,"trial":5,"RT":2067,"MT":179,"sideResp":2,"stimulus":[],"xmouse":[781,781,781,781,781,781,781,781,781,781,781,781,781,781,781,781,781,781,781,781,781,781,781,781,781,781,781,781,781,781,781,781,781,781,781,781,781,781,781,781,781,781,781,781,781,781,781,781,781,781,781,781,781,781,781,781,781,781,781,781,781,781,781,781,781,781,781,781,781,781,781,781,781,781,781,781,781,781,781,781,781,781,781,781,781,781,781,781,781,781,781,781,781,781,781,781,781,781,781,781,781,782,804,844,891,960,1026,1042,1054,1061,1064,1076,1092],"ymouse":[491,491,491,491,491,491,491,491,491,491,491,491,491,491,491,491,491,491,491,491,491,491,491,491,491,491,491,491,491,491,491,491,491,491,491,491,491,491,491,491,491,491,491,491,491,491,491,491,491,491,491,491,491,491,491,491,491,491,491,491,491,491,491,491,491,491,491,491,491,491,491,491,491,491,491,491,491,491,491,491,491,491,491,491,491,491,491,491,491,491,491,491,491,491,491,491,491,491,491,491,491,490,480,456,424,344,207,165,140,130,122,103,87],"timestamp_mouse":[6,28,46,68,86,107,128,147,166,186,208,228,247,267,287,306,327,346,368,387,407,428,446,466,487,506,526,548,566,587,607,627,647,666,688,706,728,747,767,787,807,827,848,867,887,907,926,948,968,986,1006,1028,1047,1066,1087,1108,1126,1147,1167,1187,1208,1226,1246,1266,1286,1307,1327,1346,1367,1387,1407,1427,1447,1466,1486,1508,1526,1548,1567,1586,1607,1626,1648,1667,1687,1707,1727,1747,1766,1788,1808,1826,1846,1868,1886,1906,1927,1946,1967,1986,2006,2027,2047,2067,2086,2106,2127,2147,2166,2187,2207,2227,2246],"xSR":741.5,"ySR":449.15000000000003,"xT1":424.9,"yT1":0,"xT2":1058.1,"yT2":0,"toosoon":0,"cond_shown":"Incongruent","ratio_trial":100,"L_num":9,"L_den":15,"R_num":14,"R_den":28,"correct_side":1,"subjID":"marianacardenassabogal29","gender":"1","school":"6","age":"11"},{"start_time":1551794008839,"click_time":1551794011986,"finger_time":1551794010946,"fix_duration":252.6266213008289,"trial":6,"RT":2107,"MT":1040,"sideResp":2,"stimulus":[],"xmouse":[829,829,829,829,829,829,829,829,829,829,829,829,829,829,829,829,829,829,829,829,829,829,829,829,829,829,829,829,829,829,829,829,829,829,829,829,829,829,829,829,829,829,829,829,829,829,829,829,829,829,829,829,829,829,829,829,829,829,829,829,829,829,829,829,829,829,829,829,829,829,829,829,829,829,829,829,829,829,829,829,829,829,829,829,829,829,829,826,822,815,808,807,806,806,806,806,806,806,809,811,813,814,821,824,836,852,863,874,882,900,919,939,972,981,987,990,993,1005,1017,1024,1024,1030,1059,1077,1094,1117,1125,1129,1133,1136,1137,1142,1148,1169,1185,1206,1229,1242,1267,1270,1271,1271,1271,1271,1271,1271,1271,1274,1277,1279,1281,1283,1285,1285,1278,1246,1179,1126],"ymouse":[523,523,523,523,523,523,523,523,523,523,523,523,523,523,523,523,523,523,523,523,523,523,523,523,523,523,523,523,523,523,523,523,523,523,523,523,523,523,523,523,523,523,523,523,523,523,523,523,523,523,523,523,523,523,523,523,523,523,523,523,523,523,523,523,523,523,523,523,523,523,523,523,523,523,523,523,523,523,523,523,523,523,523,523,523,522,519,504,495,487,480,480,480,480,480,480,480,484,489,489,489,489,484,479,465,455,446,429,419,393,367,343,307,296,289,283,280,270,265,263,262,258,241,232,227,224,224,224,224,226,226,228,228,229,229,229,227,226,218,218,217,217,217,217,217,217,215,208,202,194,189,185,180,177,169,146,93,32],"timestamp_mouse":[6,26,46,67,87,106,126,147,167,187,206,226,248,266,286,307,326,346,368,387,406,427,448,466,488,507,527,546,567,586,607,627,646,666,686,706,727,748,768,786,806,828,847,867,888,907,927,948,968,986,1006,1027,1047,1066,1086,1108,1126,1147,1168,1188,1206,1227,1246,1268,1288,1306,1327,1348,1366,1387,1407,1427,1446,1467,1487,1506,1527,1546,1566,1587,1607,1626,1647,1666,1688,1708,1726,1746,1768,1788,1806,1827,1847,1867,1886,1906,1926,1946,1966,1987,2007,2027,2046,2066,2087,2107,2127,2147,2166,2187,2207,2227,2247,2266,2288,2307,2326,2347,2367,2387,2407,2427,2447,2466,2487,2506,2528,2547,2568,2587,2606,2627,2647,2666,2687,2707,2726,2747,2767,2786,2806,2828,2847,2867,2886,2907,2928,2947,2968,2987,3008,3028,3047,3067,3087,3107,3126,3147],"xSR":741.5,"ySR":449.15000000000003,"xT1":424.9,"yT1":0,"xT2":1058.1,"yT2":0,"toosoon":0,"cond_shown":"Congruent","ratio_trial":200,"L_num":3,"L_den":10,"R_num":14,"R_den":28,"correct_side":2,"subjID":"marianacardenassabogal29","gender":"1","school":"6","age":"11"},{"start_time":1551794021826,"click_time":1551794022506,"finger_time":1551794021866,"fix_duration":279.09489842507406,"trial":7,"RT":40,"MT":640,"sideResp":1,"stimulus":[],"xmouse":[809,816,823,841,846,849,850,850,852,856,863,870,872,873,876,879,882,890,912,921,928,934,943,962,981,999,1020,1035,1034,1023,997,937,841,582,456],"ymouse":[476,450,424,391,387,385,385,384,382,380,374,364,355,341,335,326,316,302,270,252,236,219,206,195,182,163,138,120,114,114,114,114,110,75,65],"timestamp_mouse":[1,20,40,60,79,99,121,140,160,180,200,220,240,260,279,300,321,340,360,380,401,420,439,460,479,500,520,539,560,580,600,620,639,659,680],"xSR":741.5,"ySR":449.15000000000003,"xT1":424.9,"yT1":0,"xT2":1058.1,"yT2":0,"toosoon":0,"cond_shown":"Congruent","ratio_trial":300,"L_num":12,"L_den":24,"R_num":2,"R_den":10,"correct_side":1,"subjID":"marianacardenassabogal29","gender":"1","school":"6","age":"11"},{"start_time":1551794023957,"click_time":1551794026066,"finger_time":1551794025745,"fix_duration":550.9668095838595,"trial":8,"RT":1788,"MT":321,"sideResp":1,"stimulus":[],"xmouse":[759,759,759,759,759,759,759,759,759,759,759,759,759,759,759,759,759,759,759,759,759,759,759,759,759,759,759,759,759,759,759,759,759,759,759,759,759,759,759,759,759,759,759,759,759,759,759,759,759,759,759,759,759,759,759,759,759,759,759,759,759,759,759,759,759,759,759,759,759,759,759,759,759,759,759,759,759,759,759,759,759,759,759,759,759,759,759,759,759,752,736,667,639,621,608,596,589,576,566,556,549,546,544,534,523,514],"ymouse":[487,487,487,487,487,487,487,487,487,487,487,487,487,487,487,487,487,487,487,487,487,487,487,487,487,487,487,487,487,487,487,487,487,487,487,487,487,487,487,487,487,487,487,487,487,487,487,487,487,487,487,487,487,487,487,487,487,487,487,487,487,487,487,487,487,487,487,487,487,487,487,487,487,487,487,487,487,487,487,487,487,487,487,487,487,487,487,487,474,448,415,298,259,234,215,199,190,168,156,147,140,135,132,118,106,98],"timestamp_mouse":[9,29,49,69,89,110,128,149,169,189,209,228,249,270,290,309,328,349,370,389,409,429,448,469,488,509,530,549,568,589,609,629,649,668,689,708,729,749,770,790,809,829,849,868,889,908,928,949,969,989,1009,1029,1048,1069,1088,1109,1129,1148,1169,1189,1208,1229,1248,1269,1289,1309,1329,1348,1370,1390,1409,1428,1450,1468,1490,1509,1529,1548,1568,1589,1609,1628,1650,1668,1688,1709,1728,1750,1768,1788,1810,1828,1849,1870,1889,1909,1928,1948,1969,1989,2008,2029,2049,2070,2089,2109],"xSR":741.5,"ySR":449.15000000000003,"xT1":424.9,"yT1":0,"xT2":1058.1,"yT2":0,"toosoon":0,"cond_shown":"Congruent","ratio_trial":100,"L_num":7,"L_den":14,"R_num":9,"R_den":15,"correct_side":2,"subjID":"marianacardenassabogal29","gender":"1","school":"6","age":"11"},{"start_time":1551794027378,"click_time":1551794028665,"finger_time":1551794028125,"fix_duration":250,"trial":9,"RT":747,"MT":540,"sideResp":2,"stimulus":[],"xmouse":[831,831,831,831,831,831,831,831,831,831,831,831,831,831,831,831,831,831,831,831,831,831,831,831,831,831,831,831,831,831,831,831,831,831,831,831,837,847,862,893,923,975,991,1003,1010,1016,1018,1020,1021,1022,1022,1024,1024,1024,1026,1028,1038,1047,1061,1071,1093,1106,1119,1132,1144],"ymouse":[485,485,485,485,485,485,485,485,485,485,485,485,485,485,485,485,485,485,485,485,485,485,485,485,485,485,485,485,485,485,485,485,485,485,485,485,476,467,456,426,401,354,335,321,307,296,293,291,289,288,287,285,285,284,283,280,269,256,230,210,175,154,130,104,74],"timestamp_mouse":[9,27,49,69,88,107,128,147,168,188,207,229,247,268,288,308,327,348,369,388,407,427,448,467,489,508,527,547,569,588,607,627,647,669,688,707,727,747,768,788,808,827,848,868,887,908,928,948,968,988,1007,1027,1049,1068,1087,1108,1128,1148,1168,1187,1208,1227,1248,1267,1287],"xSR":741.5,"ySR":449.15000000000003,"xT1":424.9,"yT1":0,"xT2":1058.1,"yT2":0,"toosoon":0,"cond_shown":"Incongruent","ratio_trial":200,"L_num":3,"L_den":4,"R_num":11,"R_den":20,"correct_side":1,"subjID":"marianacardenassabogal29","gender":"1","school":"6","age":"11"},{"start_time":1551794030078,"click_time":1551794031465,"finger_time":1551794031207,"fix_duration":250,"trial":10,"RT":1129,"MT":258,"sideResp":2,"stimulus":[],"xmouse":[795,795,795,795,795,795,795,795,795,795,795,795,795,795,795,795,795,795,795,795,795,795,795,795,795,795,795,795,795,795,795,795,795,795,795,795,795,795,795,795,795,795,795,795,795,795,795,795,795,795,795,795,795,795,799,825,847,879,912,943,986,1004,1016,1024,1033,1046,1052,1061,1068,1072],"ymouse":[478,478,478,478,478,478,478,478,478,478,478,478,478,478,478,478,478,478,478,478,478,478,478,478,478,478,478,478,478,478,478,478,478,478,478,478,478,478,478,478,478,478,478,478,478,478,478,478,478,478,478,478,478,479,476,453,436,408,380,355,319,294,275,250,209,159,142,119,102,93],"timestamp_mouse":[13,27,47,69,87,107,128,147,168,187,207,229,247,268,288,309,327,347,369,388,408,427,448,467,488,508,529,547,567,589,607,627,648,667,688,708,728,748,768,789,807,827,847,869,887,907,929,948,967,987,1009,1027,1047,1068,1087,1107,1129,1148,1168,1188,1208,1227,1248,1268,1289,1308,1327,1348,1368,1387],"xSR":741.5,"ySR":449.15000000000003,"xT1":424.9,"yT1":0,"xT2":1058.1,"yT2":0,"toosoon":0,"cond_shown":"Incongruent","ratio_trial":300,"L_num":13,"L_den":26,"R_num":12,"R_den":15,"correct_side":2,"subjID":"marianacardenassabogal29","gender":"1","school":"6","age":"11"},{"start_time":1551794039980,"click_time":1551794040886,"finger_time":1551794040686,"fix_duration":912.9923740595416,"trial":11,"RT":706,"MT":200,"sideResp":2,"stimulus":[],"xmouse":[791,791,791,791,791,791,791,791,791,791,791,791,791,791,791,791,791,791,791,791,791,791,791,791,791,791,791,791,791,791,792,794,800,807,820,854,880,904,929,942,961,975,993,1016,1034,1059],"ymouse":[496,496,496,496,496,496,496,496,496,496,496,496,496,496,496,496,496,496,496,496,496,496,496,496,496,497,497,496,495,495,493,490,484,474,458,416,373,328,274,213,165,149,137,124,117,94],"timestamp_mouse":[5,25,47,66,85,105,127,146,166,187,205,225,247,265,285,306,325,345,367,386,405,426,447,465,486,507,525,545,565,586,605,627,645,666,687,706,726,745,766,786,806,826,847,865,885,906],"xSR":741.5,"ySR":449.15000000000003,"xT1":424.9,"yT1":0,"xT2":1058.1,"yT2":0,"toosoon":0,"cond_shown":"Congruent","ratio_trial":100,"L_num":7,"L_den":14,"R_num":9,"R_den":15,"correct_side":2,"subjID":"marianacardenassabogal29","gender":"1","school":"6","age":"11"},{"start_time":1551794042537,"click_time":1551794044745,"finger_time":1551794044105,"fix_duration":250,"trial":12,"RT":1568,"MT":640,"sideResp":2,"stimulus":[],"xmouse":[774,774,774,774,774,774,774,774,774,774,774,774,774,774,774,774,774,774,774,774,774,774,774,774,774,774,774,774,774,774,774,774,774,774,774,774,774,774,774,774,774,774,774,774,774,774,774,774,774,774,774,774,774,774,774,774,774,774,774,774,774,774,774,774,774,774,774,774,774,774,774,774,774,774,774,774,776,812,892,991,1099,1228,1295,1344,1349,1351,1353,1354,1353,1350,1344,1333,1317,1269,1269,1269,1269,1269,1212,1200,1190,1187,1187,1185,1183,1181,1180,1174,1169,1164,1152],"ymouse":[485,485,485,485,485,485,485,485,485,485,485,485,485,485,485,485,485,485,485,485,485,485,485,485,485,485,485,485,485,485,485,485,485,485,485,485,485,485,485,485,485,485,485,485,485,485,485,485,485,485,485,485,485,485,485,485,485,485,485,485,485,485,485,485,485,485,485,485,485,485,485,485,485,485,485,485,485,478,448,409,358,261,203,141,118,98,80,54,42,33,28,21,16,1,1,1,1,1,8,16,23,26,27,27,28,28,28,28,28,29,31],"timestamp_mouse":[10,29,49,69,88,110,128,149,168,188,208,230,248,269,288,308,328,349,368,388,408,429,448,470,490,508,529,550,568,588,610,630,648,669,689,710,730,748,768,790,808,830,848,868,888,909,929,948,969,988,1008,1029,1049,1069,1089,1110,1129,1149,1169,1188,1208,1228,1248,1268,1289,1309,1328,1350,1369,1389,1409,1430,1448,1469,1489,1508,1529,1549,1568,1590,1608,1628,1648,1669,1688,1709,1729,1749,1768,1788,1809,1828,1848,1868,1890,1910,1928,1948,1968,1989,2009,2028,2049,2068,2089,2108,2130,2148,2168,2189,2208],"xSR":741.5,"ySR":449.15000000000003,"xT1":424.9,"yT1":0,"xT2":1058.1,"yT2":0,"toosoon":0,"cond_shown":"Incongruent","ratio_trial":100,"L_num":9,"L_den":18,"R_num":6,"R_den":10,"correct_side":2,"subjID":"marianacardenassabogal29","gender":"1","school":"6","age":"11"},{"start_time":1551794047539,"click_time":1551794049346,"finger_time":1551794048986,"fix_duration":251.03005400828303,"trial":13,"RT":1447,"MT":360,"sideResp":1,"stimulus":[],"xmouse":[822,822,822,822,822,822,822,822,822,822,822,822,822,822,822,822,822,822,822,822,822,822,822,822,822,822,822,822,822,822,822,822,822,822,822,822,822,822,822,822,822,822,822,822,822,822,822,822,822,822,822,822,822,822,822,822,822,822,822,822,822,822,822,822,822,822,822,822,822,822,822,822,807,742,661,661,661,661,661,661,661,661,661,661,661,661,661,661,365,399,435],"ymouse":[456,456,456,456,456,456,456,456,456,456,456,456,456,456,456,456,456,456,456,456,456,456,456,456,456,456,456,456,456,456,456,456,456,456,456,456,456,456,456,456,456,456,456,456,456,456,456,456,456,456,456,456,456,456,456,456,456,456,456,456,456,456,456,456,456,456,456,456,456,456,456,456,411,227,49,49,49,49,49,49,49,49,49,49,49,49,49,49,11,27,48],"timestamp_mouse":[8,27,47,67,87,107,127,146,166,187,206,226,248,267,288,306,326,347,366,388,408,426,446,467,487,506,527,547,566,587,608,628,646,666,688,706,726,746,768,787,807,828,847,866,886,908,927,947,966,986,1006,1027,1046,1068,1087,1107,1128,1146,1167,1186,1206,1227,1246,1267,1286,1308,1328,1346,1366,1386,1408,1426,1447,1468,1487,1507,1526,1547,1566,1586,1607,1626,1647,1667,1688,1707,1727,1748,1767,1786,1807],"xSR":741.5,"ySR":449.15000000000003,"xT1":424.9,"yT1":0,"xT2":1058.1,"yT2":0,"toosoon":0,"cond_shown":"Incongruent","ratio_trial":200,"L_num":7,"L_den":10,"R_num":14,"R_den":28,"correct_side":1,"subjID":"marianacardenassabogal29","gender":"1","school":"6","age":"11"},{"start_time":1551794051647,"click_time":1551794053346,"finger_time":1551794052947,"fix_duration":1379.212342096562,"trial":14,"RT":1300,"MT":399,"sideResp":1,"stimulus":[],"xmouse":[790,790,790,790,790,790,790,790,790,790,790,790,790,790,790,790,790,790,790,790,790,790,790,790,790,790,790,790,790,790,790,790,790,790,790,790,790,790,790,790,790,790,790,790,790,790,790,790,790,790,790,790,790,790,790,790,790,790,790,790,790,790,783,763,724,711,684,651,612,612,612,612,612,612,612,612,612,612,612,612,612,612,612,612,466],"ymouse":[520,520,520,520,520,520,520,520,520,520,520,520,520,520,520,520,520,520,520,520,520,520,520,520,520,520,520,520,520,520,520,520,520,520,520,520,520,520,520,520,520,520,520,520,520,520,520,520,520,520,520,520,520,520,520,520,520,520,520,520,520,517,500,460,407,385,284,152,38,38,38,38,38,38,38,38,38,38,38,38,38,38,38,38,4],"timestamp_mouse":[19,39,58,80,98,118,139,160,178,198,218,238,259,278,300,318,339,358,378,399,418,438,458,478,498,518,539,560,578,598,618,639,660,678,699,718,738,758,780,798,818,838,859,879,898,918,938,958,978,999,1020,1038,1059,1079,1098,1118,1138,1159,1179,1199,1219,1239,1259,1278,1300,1318,1339,1358,1378,1398,1418,1439,1458,1479,1500,1520,1539,1559,1578,1599,1620,1639,1660,1679,1699],"xSR":741.5,"ySR":449.15000000000003,"xT1":424.9,"yT1":0,"xT2":1058.1,"yT2":0,"toosoon":0,"cond_shown":"Incongruent","ratio_trial":100,"L_num":6,"L_den":10,"R_num":11,"R_den":22,"correct_side":1,"subjID":"marianacardenassabogal29","gender":"1","school":"6","age":"11"},{"start_time":1551794054766,"click_time":1551794055305,"finger_time":1551794055126,"fix_duration":280.22769374679325,"trial":15,"RT":360,"MT":179,"sideResp":1,"stimulus":[],"xmouse":[812,812,812,812,812,812,812,812,812,812,812,812,812,812,811,810,790,735,715,647,611,605,601,593,572,541,509],"ymouse":[502,502,502,502,502,502,502,502,502,502,502,502,502,502,502,500,459,360,326,232,180,166,153,136,96,45,6],"timestamp_mouse":[25,40,59,79,100,121,140,160,180,200,220,239,259,281,299,319,339,360,379,399,419,440,460,479,500,519,539],"xSR":741.5,"ySR":449.15000000000003,"xT1":424.9,"yT1":0,"xT2":1058.1,"yT2":0,"toosoon":0,"cond_shown":"Congruent","ratio_trial":300,"L_num":12,"L_den":24,"R_num":2,"R_den":10,"correct_side":1,"subjID":"marianacardenassabogal29","gender":"1","school":"6","age":"11"},{"start_time":1551794057754,"click_time":1551794059766,"finger_time":1551794059365,"fix_duration":1168.5969855788055,"trial":16,"RT":1611,"MT":401,"sideResp":1,"stimulus":[],"xmouse":[806,806,806,806,806,806,806,806,806,806,806,806,806,806,806,806,806,806,806,806,806,806,806,806,806,806,806,806,806,806,806,806,806,806,806,806,806,806,806,806,806,806,806,806,806,806,806,806,806,806,806,806,806,806,806,806,806,806,806,806,806,806,806,806,806,806,806,806,806,806,806,806,806,806,806,806,806,806,801,796,764,719,711,711,711,711,711,711,711,711,711,709,697,677,649,626,597,587,566,533,478],"ymouse":[477,477,477,477,477,477,477,477,477,477,477,477,477,477,477,477,477,477,477,477,477,477,477,477,477,477,477,477,477,477,477,477,477,477,477,477,477,477,477,477,477,477,477,477,477,477,477,477,477,477,477,477,477,477,477,477,477,477,477,477,477,477,477,477,477,477,477,477,477,477,477,477,477,477,477,477,477,477,469,460,414,374,369,369,369,369,369,369,369,369,369,368,359,340,312,288,234,195,156,114,59],"timestamp_mouse":[12,32,51,72,91,111,131,151,172,191,211,231,251,272,291,311,331,351,373,392,411,432,451,471,491,511,532,552,572,592,611,631,652,672,691,711,733,752,772,792,811,831,852,872,892,912,932,951,971,991,1011,1031,1053,1071,1092,1111,1131,1151,1171,1191,1213,1231,1251,1272,1292,1312,1331,1351,1372,1393,1411,1432,1451,1471,1493,1513,1532,1551,1573,1592,1611,1631,1652,1673,1691,1711,1732,1752,1773,1792,1811,1832,1851,1872,1892,1912,1931,1952,1971,1993,2011],"xSR":741.5,"ySR":449.15000000000003,"xT1":424.9,"yT1":0,"xT2":1058.1,"yT2":0,"toosoon":0,"cond_shown":"Congruent","ratio_trial":200,"L_num":13,"L_den":26,"R_num":14,"R_den":20,"correct_side":2,"subjID":"marianacardenassabogal29","gender":"1","school":"6","age":"11"},{"start_time":1551794065184,"click_time":1551794067486,"finger_time":1551794066907,"fix_duration":858.5435275896997,"trial":17,"RT":1723,"MT":579,"sideResp":2,"stimulus":[],"xmouse":[793,793,793,793,793,793,793,793,793,793,793,793,793,793,793,793,793,793,792,792,790,789,789,787,786,786,786,786,786,786,786,786,786,786,786,786,786,786,786,786,786,786,786,786,786,786,786,786,786,786,786,786,786,786,786,786,786,786,786,786,786,786,786,786,786,786,786,786,786,786,786,786,786,786,786,786,786,786,786,786,786,786,786,786,786,829,900,976,1030,1052,1052,1053,1057,1065,1086,1142,1161,1169,1180,1190,1201,1213,1215,1215,1215,1215,1215,1215,1215,1215,1215,1215,1215,1215,1215,1107],"ymouse":[493,493,493,493,493,493,493,493,493,493,493,493,493,493,493,493,493,493,493,493,493,493,493,492,492,492,492,492,492,492,492,492,492,492,492,492,492,492,492,492,492,492,492,492,492,492,492,492,492,492,492,492,492,492,492,492,492,492,492,492,492,492,492,492,492,492,492,492,492,492,492,492,492,492,492,492,492,492,492,492,492,492,492,492,492,477,444,407,384,371,369,366,357,340,316,253,198,174,148,134,115,88,70,25,3,3,3,3,3,3,3,3,3,3,3,2],"timestamp_mouse":[5,25,41,62,81,101,123,142,163,182,202,223,242,261,281,302,321,341,362,381,401,422,442,461,483,502,521,542,563,581,601,622,642,661,682,702,722,741,761,782,803,822,842,861,882,901,921,941,963,981,1001,1021,1041,1062,1082,1101,1121,1141,1161,1182,1201,1221,1241,1262,1281,1301,1321,1341,1361,1381,1403,1421,1441,1461,1481,1502,1521,1541,1563,1582,1601,1622,1641,1662,1682,1701,1723,1741,1763,1781,1802,1821,1842,1861,1882,1902,1922,1941,1962,1981,2002,2021,2043,2061,2081,2102,2122,2141,2161,2183,2202,2222,2242,2262,2281,2302],"xSR":741.5,"ySR":449.15000000000003,"xT1":424.9,"yT1":0,"xT2":1058.1,"yT2":0,"toosoon":0,"cond_shown":"Congruent","ratio_trial":100,"L_num":10,"L_den":25,"R_num":3,"R_den":10,"correct_side":1,"subjID":"marianacardenassabogal29","gender":"1","school":"6","age":"11"},{"start_time":1551794069058,"click_time":1551794070326,"finger_time":1551794069407,"fix_duration":532.0649705934876,"trial":18,"RT":349,"MT":919,"sideResp":1,"stimulus":[],"xmouse":[814,814,814,814,814,814,814,814,814,814,814,814,814,814,813,803,783,743,726,710,701,698,698,698,698,697,690,684,675,664,656,631,624,622,616,615,614,614,612,609,601,592,576,571,569,565,565,565,565,564,564,616,664,715,786,807,809,809,809,791,755,610,525,477],"ymouse":[488,488,488,488,488,488,488,488,488,488,488,488,488,488,488,483,469,429,397,368,350,333,328,324,320,308,286,274,257,241,231,209,205,202,197,196,194,193,190,182,169,159,142,138,136,135,135,135,135,135,135,206,271,335,407,418,420,420,399,352,281,133,72,43],"timestamp_mouse":[10,29,47,68,87,107,127,149,167,187,207,227,247,268,289,307,327,349,367,388,407,428,448,467,487,508,528,548,568,587,608,628,647,667,688,708,728,747,769,788,807,828,848,869,888,908,928,948,967,988,1008,1027,1047,1067,1088,1108,1128,1148,1168,1188,1209,1228,1247,1268],"xSR":741.5,"ySR":449.15000000000003,"xT1":424.9,"yT1":0,"xT2":1058.1,"yT2":0,"toosoon":0,"cond_shown":"Congruent","ratio_trial":100,"L_num":3,"L_den":6,"R_num":2,"R_den":5,"correct_side":1,"subjID":"marianacardenassabogal29","gender":"1","school":"6","age":"11"},{"start_time":1551794072497,"click_time":1551794074806,"finger_time":1551794074306,"fix_duration":1110.4111898173755,"trial":19,"RT":1809,"MT":500,"sideResp":1,"stimulus":[],"xmouse":[817,817,817,817,817,817,817,817,817,817,817,817,817,817,817,817,817,817,817,817,817,817,817,817,817,817,817,817,817,817,817,817,817,817,817,817,817,817,817,817,817,817,817,817,817,817,817,817,817,817,817,817,817,817,817,817,817,817,817,817,817,817,817,817,817,817,817,817,817,817,817,817,817,817,817,817,817,817,817,817,817,817,817,817,817,817,817,817,813,791,757,720,688,677,665,658,652,648,645,637,631,621,597,568,502,485,482,480,477,455,443,436,434,434,434,434],"ymouse":[485,485,485,485,485,485,485,485,485,485,485,485,485,485,485,485,485,485,485,485,485,485,485,485,485,485,485,485,485,485,485,485,485,485,485,485,485,485,485,485,485,485,485,485,485,485,485,485,485,485,485,485,485,485,485,485,485,485,485,485,485,485,485,485,485,485,485,485,485,485,485,485,485,485,485,485,485,485,485,485,485,485,485,485,485,485,485,485,481,450,393,341,290,270,242,229,221,216,212,202,197,190,178,166,147,141,139,137,133,117,110,104,101,101,100,99],"timestamp_mouse":[9,29,49,68,88,109,129,148,169,190,209,229,249,269,288,308,329,348,369,389,409,428,449,468,489,508,529,548,569,590,608,628,650,670,690,708,728,749,769,789,808,828,849,870,888,909,930,948,968,989,1009,1029,1049,1070,1090,1108,1129,1149,1168,1189,1209,1229,1249,1269,1289,1309,1328,1348,1370,1388,1408,1430,1448,1469,1490,1508,1529,1550,1568,1589,1610,1628,1650,1668,1688,1709,1728,1748,1770,1788,1809,1828,1849,1869,1889,1909,1930,1948,1969,1988,2009,2028,2048,2069,2089,2109,2129,2148,2168,2188,2209,2229,2249,2269,2288,2309],"xSR":741.5,"ySR":449.15000000000003,"xT1":424.9,"yT1":0,"xT2":1058.1,"yT2":0,"toosoon":0,"cond_shown":"Congruent","ratio_trial":200,"L_num":3,"L_den":10,"R_num":7,"R_den":14,"correct_side":2,"subjID":"marianacardenassabogal29","gender":"1","school":"6","age":"11"},{"start_time":1551794076429,"click_time":1551794089606,"finger_time":1551794088925,"fix_duration":383.20356293146864,"trial":20,"RT":12496,"MT":681,"sideResp":2,"stimulus":[],"xmouse":[769,769,769,769,769,769,769,769,769,769,769,769,769,769,769,769,769,769,769,769,769,769,769,769,769,769,769,769,769,769,769,769,769,769,769,769,769,769,769,769,769,769,769,769,769,769,769,769,769,769,769,769,769,769,769,769,769,769,769,769,769,769,769,769,769,769,769,769,769,769,769,769,769,769,769,769,769,769,769,769,769,769,769,769,769,769,769,769,769,769,769,769,769,769,769,769,769,769,769,769,769,769,769,769,769,769,769,769,769,769,769,769,769,769,769,769,769,769,769,769,769,769,769,769,769,769,769,769,769,769,769,769,769,769,769,769,769,769,769,769,769,769,769,769,769,769,769,769,769,769,769,769,769,769,769,769,769,769,769,769,769,769,769,769,769,769,769,769,769,769,769,769,769,769,769,769,769,769,769,769,769,769,769,769,769,769,769,769,769,769,769,769,769,769,769,769,769,769,769,769,769,769,769,769,769,769,769,769,769,769,769,769,769,769,769,769,769,769,769,769,769,769,769,769,769,769,769,769,769,769,769,769,769,769,769,769,769,769,769,769,769,769,769,769,769,769,769,769,769,769,769,769,769,769,769,769,769,769,769,769,769,769,769,769,769,769,769,769,769,769,769,769,769,769,769,769,769,769,769,769,769,769,769,769,769,769,769,769,769,769,769,769,769,769,769,769,769,769,769,769,769,769,769,769,769,769,769,769,769,769,769,769,769,769,769,769,769,769,769,769,769,769,769,769,769,769,769,769,769,769,769,769,769,769,769,769,769,769,769,769,769,769,769,769,769,769,769,769,769,769,769,769,769,769,769,769,769,769,769,769,769,769,769,769,769,769,769,769,769,769,769,769,769,769,769,769,769,769,769,769,769,769,769,769,769,770,770,771,771,771,771,771,771,771,771,771,771,771,771,771,771,771,771,771,771,771,771,771,771,771,771,771,771,771,771,771,771,771,771,771,771,771,771,771,771,771,772,773,773,773,773,773,773,773,773,773,773,773,773,773,773,773,773,773,773,773,773,773,773,773,773,773,773,773,773,773,773,773,773,773,773,773,773,773,773,773,773,773,773,773,773,773,773,773,773,773,773,773,773,773,773,773,773,773,773,773,773,773,773,773,773,773,773,773,773,773,773,773,773,773,773,773,773,773,773,773,773,773,773,773,773,773,773,773,773,773,773,773,773,773,773,773,773,773,773,773,773,773,773,773,773,773,773,773,773,773,773,773,773,773,773,773,773,773,773,773,773,773,773,773,773,773,773,773,773,773,773,773,773,773,773,773,773,773,773,773,773,773,773,773,773,773,773,773,773,773,773,773,773,773,773,773,773,773,773,773,773,773,773,773,773,773,773,773,773,773,773,773,773,773,773,773,773,773,773,773,773,773,773,773,773,773,773,773,773,773,773,773,773,773,773,773,778,786,792,799,807,811,813,815,820,825,837,845,856,878,895,922,932,947,965,985,1027,1054,1088,1099,1125,1151,1166,1178,1189,1196,1203,1203,1203,1203,1200,1168,1149],"ymouse":[477,477,477,477,477,477,477,477,477,477,477,477,477,477,477,477,477,477,477,477,477,477,477,477,477,477,477,477,477,477,477,477,477,477,477,477,477,477,477,477,477,477,477,477,477,477,477,477,477,477,477,477,477,477,477,477,477,477,477,477,477,477,477,477,477,477,477,477,477,477,477,477,477,477,477,477,477,477,477,477,477,477,477,477,477,477,477,477,477,477,477,477,477,477,477,477,477,477,477,477,477,477,477,477,477,477,477,477,477,477,477,477,477,477,477,477,477,477,477,477,477,477,477,477,477,477,477,477,477,477,477,477,477,477,477,477,477,477,477,477,477,477,477,477,477,477,477,477,477,477,477,477,477,477,477,477,477,477,477,477,477,477,477,477,477,477,477,477,477,477,477,477,477,477,477,477,477,477,477,477,477,477,477,477,477,477,477,477,477,477,477,477,477,477,477,477,477,477,477,477,477,477,477,477,477,477,477,477,477,477,477,477,477,477,477,477,477,477,477,477,477,477,477,477,477,477,477,477,477,477,477,477,477,477,477,477,477,477,477,477,477,477,477,477,477,477,477,477,477,477,477,477,477,477,477,477,477,477,477,477,477,477,477,477,477,477,477,477,477,477,477,477,477,477,477,477,477,477,477,477,477,477,477,477,477,477,477,477,477,477,477,477,477,477,477,477,477,477,477,477,477,477,477,477,477,477,477,477,477,477,477,477,477,477,477,477,477,477,477,477,477,477,477,477,477,477,477,477,477,477,477,477,477,477,477,477,477,477,477,477,477,477,477,477,477,477,477,477,477,477,477,477,477,477,477,477,477,477,477,477,477,477,477,477,477,477,477,477,477,477,477,477,477,477,477,477,477,477,477,477,477,477,477,477,477,477,477,477,477,477,477,477,477,477,477,477,477,477,477,477,477,477,477,477,477,477,477,477,477,477,477,477,477,477,477,477,477,477,477,477,477,477,477,477,477,477,476,476,476,476,476,476,476,476,476,476,476,476,476,476,476,476,476,476,476,476,476,476,476,476,476,476,476,476,476,476,476,476,476,476,476,476,476,476,476,476,476,476,476,476,476,476,476,476,476,476,476,476,476,476,476,476,476,476,476,476,476,476,476,476,476,476,476,476,476,476,476,476,476,476,476,476,476,476,476,476,476,476,476,476,476,476,476,476,476,476,476,476,476,476,476,476,476,476,476,476,476,476,476,476,476,476,476,476,476,476,476,476,476,476,476,476,476,476,476,476,476,476,476,476,476,476,476,476,476,476,476,476,476,476,476,476,476,476,476,476,476,476,476,476,476,476,476,476,476,476,476,476,476,476,476,476,476,476,476,476,476,476,476,476,476,476,476,476,476,476,476,476,476,476,476,476,476,476,476,476,476,476,476,476,476,476,476,476,476,476,476,476,476,476,476,476,469,460,447,426,407,379,368,355,344,327,300,283,262,234,214,194,188,182,176,171,160,154,144,141,133,123,116,111,105,99,93,92,92,92,91,86,84],"timestamp_mouse":[16,37,56,77,96,117,138,156,177,196,217,238,256,277,298,316,338,356,376,398,416,436,457,477,498,517,537,557,576,597,616,637,658,676,697,716,736,757,778,797,817,836,857,878,897,917,938,956,976,997,1018,1037,1056,1076,1097,1117,1136,1157,1176,1196,1216,1236,1256,1277,1297,1316,1337,1358,1377,1396,1417,1438,1456,1476,1496,1517,1536,1557,1578,1597,1616,1638,1657,1677,1697,1717,1736,1756,1776,1797,1817,1838,1857,1876,1896,1917,1938,1956,1976,1996,2016,2037,2058,2076,2097,2117,2137,2157,2177,2196,2218,2236,2256,2276,2296,2317,2337,2356,2376,2396,2416,2437,2458,2476,2496,2516,2536,2556,2576,2596,2618,2637,2657,2677,2696,2717,2737,2757,2777,2797,2816,2837,2856,2876,2896,2917,2936,2956,2976,2997,3018,3037,3057,3077,3098,3116,3138,3157,3177,3197,3218,3236,3256,3276,3297,3317,3338,3356,3376,3396,3416,3437,3456,3476,3496,3518,3536,3557,3577,3596,3616,3637,3656,3676,3696,3717,3736,3756,3776,3796,3816,3837,3856,3877,3896,3917,3936,3957,3978,3997,4017,4036,4058,4077,4096,4117,4136,4157,4176,4196,4217,4236,4257,4276,4297,4316,4338,4357,4376,4398,4416,4438,4456,4476,4497,4518,4536,4557,4577,4596,4617,4637,4658,4676,4696,4717,4737,4756,4777,4798,4816,4838,4857,4876,4897,4917,4936,4956,4976,4996,5017,5036,5057,5076,5097,5116,5137,5157,5176,5197,5216,5237,5257,5277,5298,5317,5336,5356,5376,5397,5416,5436,5456,5477,5497,5517,5537,5556,5576,5598,5617,5637,5656,5677,5696,5717,5737,5756,5776,5796,5816,5837,5856,5878,5896,5917,5936,5956,5977,5997,6016,6037,6058,6077,6096,6116,6136,6158,6177,6198,6216,6236,6257,6276,6297,6318,6336,6356,6376,6397,6416,6436,6458,6478,6497,6517,6538,6557,6577,6597,6617,6636,6657,6676,6696,6716,6736,6757,6776,6798,6816,6837,6856,6877,6897,6916,6936,6957,6977,6996,7016,7036,7057,7076,7098,7117,7137,7156,7178,7196,7216,7236,7257,7277,7297,7318,7337,7356,7376,7396,7416,7437,7457,7476,7496,7518,7537,7557,7576,7596,7616,7636,7657,7677,7696,7717,7737,7756,7776,7797,7818,7836,7856,7876,7897,7917,7936,7956,7976,7996,8017,8037,8057,8076,8098,8116,8136,8157,8176,8196,8216,8236,8258,8277,8297,8316,8337,8356,8377,8397,8416,8436,8456,8476,8497,8517,8537,8557,8576,8598,8617,8636,8657,8677,8696,8716,8737,8756,8777,8796,8816,8837,8856,8878,8896,8916,8936,8956,8976,8998,9017,9036,9057,9077,9096,9116,9136,9156,9176,9196,9216,9236,9256,9278,9297,9316,9337,9357,9376,9396,9416,9437,9456,9476,9498,9517,9536,9557,9577,9596,9616,9636,9656,9676,9697,9716,9736,9757,9777,9797,9817,9836,9856,9878,9897,9916,9937,9957,9977,9996,10017,10036,10056,10076,10097,10116,10136,10156,10176,10197,10217,10236,10256,10278,10296,10316,10336,10357,10376,10398,10416,10436,10456,10477,10496,10517,10537,10557,10577,10596,10617,10637,10656,10676,10697,10717,10737,10757,10776,10796,10818,10837,10857,10878,10896,10916,10937,10957,10977,10996,11016,11037,11057,11076,11097,11117,11138,11156,11178,11197,11217,11237,11257,11277,11296,11316,11337,11358,11376,11398,11417,11437,11457,11478,11496,11516,11537,11556,11576,11597,11618,11637,11657,11677,11696,11716,11736,11756,11777,11798,11818,11837,11856,11877,11898,11916,11937,11956,11977,11998,12016,12037,12058,12078,12098,12116,12137,12157,12176,12196,12218,12237,12258,12276,12297,12316,12337,12356,12376,12397,12418,12438,12456,12476,12496,12518,12536,12557,12576,12597,12617,12638,12657,12676,12697,12718,12737,12757,12777,12797,12818,12836,12857,12877,12898,12917,12936,12957,12977,12997,13016,13036,13057,13076,13098,13117,13136,13157,13177],"xSR":741.5,"ySR":449.15000000000003,"xT1":424.9,"yT1":0,"xT2":1058.1,"yT2":0,"toosoon":0,"cond_shown":"Incongruent","ratio_trial":300,"L_num":7,"L_den":10,"R_num":8,"R_den":20,"correct_side":1,"subjID":"marianacardenassabogal29","gender":"1","school":"6","age":"11"},{"start_time":1551794099878,"click_time":1551794102027,"finger_time":1551794101906,"fix_duration":692.8056888583064,"trial":21,"RT":2028,"MT":121,"sideResp":2,"stimulus":[],"xmouse":[767,767,767,767,767,767,767,767,767,767,767,767,767,767,767,767,767,767,767,767,767,767,767,767,767,767,767,767,767,767,767,767,767,767,767,767,767,767,767,767,767,767,767,767,767,767,767,767,767,767,767,767,767,767,767,767,767,767,767,767,767,767,767,767,767,767,767,767,767,767,767,767,767,767,767,767,767,767,767,767,767,767,767,767,767,767,767,767,767,767,767,767,767,767,767,767,767,767,767,770,789,922,982,1030,1066,1087,1102,1117],"ymouse":[513,513,513,513,513,513,513,513,513,513,513,513,513,513,513,513,513,513,513,513,513,513,513,513,513,513,513,513,513,513,513,513,513,513,513,513,513,513,513,513,513,513,513,513,513,513,513,513,513,513,513,513,513,513,513,513,513,513,513,513,513,513,513,513,513,513,513,513,513,513,513,513,513,513,513,513,513,513,513,513,513,513,513,513,513,513,513,513,513,513,513,513,513,513,513,513,513,513,513,505,472,302,241,201,171,138,109,71],"timestamp_mouse":[13,27,47,67,88,108,129,147,167,187,207,227,248,267,288,307,327,348,367,388,408,428,447,468,488,507,527,547,567,587,608,628,647,668,688,707,727,747,767,788,807,827,847,867,888,908,927,947,968,988,1007,1028,1047,1067,1087,1107,1127,1147,1167,1187,1208,1228,1247,1267,1287,1307,1328,1347,1367,1387,1407,1428,1447,1467,1488,1508,1528,1548,1567,1588,1607,1627,1647,1667,1687,1708,1727,1747,1768,1787,1808,1827,1847,1868,1888,1908,1928,1948,1968,1987,2007,2028,2048,2067,2087,2108,2128,2148],"xSR":741.5,"ySR":449.15000000000003,"xT1":424.9,"yT1":0,"xT2":1058.1,"yT2":0,"toosoon":0,"cond_shown":"Incongruent","ratio_trial":300,"L_num":8,"L_den":10,"R_num":14,"R_den":28,"correct_side":1,"subjID":"marianacardenassabogal29","gender":"1","school":"6","age":"11"},{"start_time":1551794103484,"click_time":1551794104985,"finger_time":1551794104705,"fix_duration":298.5329542739834,"trial":22,"RT":1221,"MT":280,"sideResp":1,"stimulus":[],"xmouse":[809,809,809,809,809,809,809,809,809,809,809,809,809,809,809,809,809,809,809,809,809,809,809,809,809,809,809,809,809,809,809,809,809,809,809,809,809,809,809,809,809,809,809,809,809,809,809,809,809,809,809,809,809,809,809,809,809,809,809,806,789,755,712,681,655,639,628,615,591,564,537,531,531,529,526,522],"ymouse":[515,515,515,515,515,515,515,515,515,515,515,515,515,515,515,515,515,515,515,515,515,515,515,515,515,515,515,515,515,515,515,515,515,515,515,515,515,515,515,515,515,515,515,515,515,515,515,515,515,515,515,515,515,515,515,515,515,515,515,512,478,392,317,269,233,207,188,169,139,109,89,85,85,83,79,75],"timestamp_mouse":[4,23,42,61,82,101,121,141,161,181,201,221,241,262,281,301,322,341,361,381,401,421,441,461,482,501,521,541,562,581,602,621,641,661,681,702,722,741,762,781,801,822,841,861,881,901,921,941,961,982,1001,1021,1041,1062,1082,1101,1122,1142,1161,1181,1201,1221,1242,1262,1282,1302,1321,1342,1361,1382,1402,1421,1441,1461,1481,1501],"xSR":741.5,"ySR":449.15000000000003,"xT1":424.9,"yT1":0,"xT2":1058.1,"yT2":0,"toosoon":0,"cond_shown":"Incongruent","ratio_trial":200,"L_num":1,"L_den":2,"R_num":3,"R_den":10,"correct_side":1,"subjID":"marianacardenassabogal29","gender":"1","school":"6","age":"11"},{"start_time":1551794106277,"click_time":1551794107005,"finger_time":1551794106946,"fix_duration":250,"trial":23,"RT":669,"MT":59,"sideResp":1,"stimulus":[],"xmouse":[786,786,786,786,786,786,786,786,786,786,786,786,786,786,786,786,786,786,786,786,786,786,786,786,786,786,786,786,786,786,785,776,760,671,606,506,479],"ymouse":[522,522,522,522,522,522,522,522,522,522,522,522,522,522,522,522,522,522,522,522,522,522,522,522,522,522,522,522,522,522,522,510,483,334,239,109,77],"timestamp_mouse":[8,28,48,68,88,108,129,148,169,189,208,228,249,268,289,308,329,349,369,388,408,428,449,468,488,508,528,548,569,589,608,629,648,669,689,709,728],"xSR":741.5,"ySR":449.15000000000003,"xT1":424.9,"yT1":0,"xT2":1058.1,"yT2":0,"toosoon":0,"cond_shown":"Incongruent","ratio_trial":200,"L_num":7,"L_den":15,"R_num":6,"R_den":9,"correct_side":2,"subjID":"marianacardenassabogal29","gender":"1","school":"6","age":"11"},{"start_time":1551794108476,"click_time":1551794110505,"finger_time":1551794110145,"fix_duration":350.0949791188692,"trial":24,"RT":1669,"MT":360,"sideResp":2,"stimulus":[],"xmouse":[774,774,774,774,774,774,774,774,774,774,774,774,774,774,774,774,774,774,774,774,774,774,774,774,774,774,774,774,774,774,774,774,774,774,774,774,774,774,774,774,774,774,774,774,774,774,774,774,774,774,774,774,774,774,774,774,774,774,774,774,774,774,774,774,774,774,774,774,774,774,774,774,774,774,774,774,774,774,774,774,774,779,807,846,872,907,915,921,933,945,983,1004,1018,1027,1029,1032,1039,1049,1064,1085,1097,1103],"ymouse":[488,488,488,488,488,488,488,488,488,488,488,488,488,488,488,488,488,488,488,488,488,488,488,488,488,488,488,488,488,488,488,488,488,488,488,488,488,488,488,488,488,488,488,488,488,488,488,488,488,488,488,488,488,488,488,488,488,488,488,488,488,488,488,488,488,488,488,488,488,488,488,488,488,488,488,488,488,488,488,488,488,485,464,401,358,297,282,265,249,235,192,172,161,152,149,145,138,130,120,107,100,97],"timestamp_mouse":[10,29,49,69,89,109,129,149,170,191,209,230,249,270,289,310,329,349,369,390,409,429,449,469,489,509,529,549,570,589,609,629,650,670,689,709,729,749,769,789,809,830,849,869,890,909,929,949,969,989,1010,1029,1049,1069,1090,1109,1130,1150,1169,1189,1209,1229,1249,1269,1290,1309,1329,1349,1369,1389,1409,1429,1449,1469,1490,1510,1529,1549,1569,1589,1610,1630,1650,1669,1689,1709,1730,1749,1769,1790,1809,1829,1850,1869,1889,1910,1929,1950,1970,1989,2009,2029],"xSR":741.5,"ySR":449.15000000000003,"xT1":424.9,"yT1":0,"xT2":1058.1,"yT2":0,"toosoon":0,"cond_shown":"Congruent","ratio_trial":100,"L_num":15,"L_den":25,"R_num":13,"R_den":26,"correct_side":1,"subjID":"marianacardenassabogal29","gender":"1","school":"6","age":"11"},{"start_time":1551794112916,"click_time":1551794114006,"finger_time":1551794113625,"fix_duration":1270.5942262666692,"trial":25,"RT":709,"MT":381,"sideResp":2,"stimulus":[],"xmouse":[748,748,748,748,748,748,748,748,748,748,748,748,748,748,748,748,748,748,748,748,748,748,748,748,748,748,748,748,748,748,748,748,748,751,781,836,897,971,1113,1161,1196,1200,1202,1202,1202,1202,1202,1202,1202,1202,1202,1202,1202,1202,1115],"ymouse":[489,489,489,489,489,489,489,489,489,489,489,489,489,489,489,489,489,489,489,489,489,489,489,489,489,489,489,489,489,489,489,489,489,489,466,426,354,270,127,69,24,20,10,0,0,0,0,0,0,0,0,0,0,0,3],"timestamp_mouse":[9,31,49,70,90,110,129,149,169,190,209,230,249,269,289,309,329,349,370,390,410,429,449,469,489,510,529,550,569,589,609,630,649,670,689,709,730,749,770,789,809,829,849,870,889,909,930,951,970,990,1010,1029,1049,1070,1089],"xSR":741.5,"ySR":449.15000000000003,"xT1":424.9,"yT1":0,"xT2":1058.1,"yT2":0,"toosoon":0,"cond_shown":"Incongruent","ratio_trial":200,"L_num":4,"L_den":30,"R_num":1,"R_den":3,"correct_side":2,"subjID":"marianacardenassabogal29","gender":"1","school":"6","age":"11"},{"start_time":1551794128672,"click_time":1551794131185,"finger_time":1551794130165,"fix_duration":1285.7845953997248,"trial":26,"RT":1493,"MT":1020,"sideResp":2,"stimulus":[],"xmouse":[795,795,795,795,795,795,795,795,795,795,795,795,795,795,795,795,795,795,795,795,795,797,798,799,799,799,799,799,799,799,799,799,799,799,799,799,799,799,799,799,799,799,799,799,799,799,799,799,799,799,799,799,799,799,799,799,799,799,799,799,799,799,799,799,799,799,799,799,799,799,799,796,789,758,739,721,719,718,718,718,732,740,746,757,770,772,772,772,772,772,774,775,776,776,776,776,776,776,777,779,793,829,865,878,921,943,945,946,950,960,990,1003,1022,1036,1047,1069,1078,1096,1118,1134,1143,1145,1146,1147,1149,1150],"ymouse":[501,501,501,501,501,501,501,501,501,501,501,501,501,501,501,501,501,501,501,501,501,499,497,497,497,497,497,497,497,497,497,497,497,497,497,497,497,497,497,497,497,497,497,497,497,497,497,497,497,497,497,497,497,497,497,497,497,497,497,497,497,497,497,497,497,497,497,497,497,497,497,498,502,513,516,520,521,522,522,523,513,508,507,507,507,507,507,507,507,507,504,498,497,497,497,497,497,497,496,494,479,438,412,405,373,360,358,354,348,335,296,274,239,221,206,190,186,176,160,146,138,135,133,132,121,96],"timestamp_mouse":[18,33,53,74,94,113,134,153,173,194,213,235,253,273,293,314,333,353,373,393,414,434,453,473,493,513,534,553,574,593,613,634,653,673,693,713,733,753,774,794,813,833,853,873,893,913,935,953,973,993,1014,1033,1054,1074,1094,1113,1133,1154,1173,1194,1213,1233,1253,1274,1293,1313,1333,1353,1374,1393,1414,1434,1454,1474,1493,1514,1534,1553,1573,1593,1614,1633,1653,1673,1694,1714,1733,1753,1774,1793,1813,1833,1853,1874,1893,1914,1933,1953,1974,1993,2013,2033,2053,2074,2093,2114,2134,2154,2173,2193,2214,2233,2253,2273,2294,2314,2333,2353,2373,2394,2414,2434,2453,2473,2493,2513],"xSR":741.5,"ySR":449.15000000000003,"xT1":424.9,"yT1":0,"xT2":1058.1,"yT2":0,"toosoon":0,"cond_shown":"Congruent","ratio_trial":100,"L_num":3,"L_den":6,"R_num":2,"R_den":5,"correct_side":1,"subjID":"marianacardenassabogal29","gender":"1","school":"6","age":"11"},{"start_time":1551794132505,"click_time":1551794133445,"finger_time":1551794133125,"fix_duration":399.26795383766057,"trial":27,"RT":620,"MT":320,"sideResp":1,"stimulus":[],"xmouse":[762,762,762,762,762,762,762,762,762,762,762,762,762,762,762,762,762,762,762,762,762,762,762,762,762,762,762,762,762,762,763,763,763,757,750,735,728,724,720,702,691,678,667,645,599,558,524,495],"ymouse":[513,513,513,513,513,513,513,513,513,513,513,513,513,513,513,513,513,513,513,513,513,513,513,513,513,513,513,513,513,513,476,441,373,308,283,252,239,232,225,208,199,189,180,168,148,131,113,95],"timestamp_mouse":[0,24,41,60,81,100,121,141,161,180,200,221,241,260,280,301,320,340,360,380,401,420,441,460,481,500,521,541,560,580,601,620,640,660,681,700,720,740,761,781,801,821,841,861,881,900,920,940],"xSR":741.5,"ySR":449.15000000000003,"xT1":424.9,"yT1":0,"xT2":1058.1,"yT2":0,"toosoon":0,"cond_shown":"Incongruent","ratio_trial":200,"L_num":7,"L_den":10,"R_num":12,"R_den":24,"correct_side":1,"subjID":"marianacardenassabogal29","gender":"1","school":"6","age":"11"},{"start_time":1551794136441,"click_time":1551794138085,"finger_time":1551794137445,"fix_duration":654.8187879283543,"trial":28,"RT":1004,"MT":640,"sideResp":1,"stimulus":[],"xmouse":[794,794,794,794,794,794,794,794,794,794,794,794,794,794,794,794,794,794,794,794,794,794,794,794,794,794,794,794,794,794,794,794,794,794,794,794,794,794,794,794,794,794,794,794,794,794,794,794,790,784,767,745,690,680,677,676,672,670,656,651,649,649,648,644,638,629,623,606,594,582,574,569,565,556,552,545,543,542,538,534,531,527,513],"ymouse":[502,502,502,502,502,502,502,502,502,502,502,502,502,502,502,502,502,502,502,502,502,502,502,502,502,502,502,502,502,502,502,502,502,502,502,502,502,502,502,502,502,502,502,502,502,502,502,502,489,473,442,409,334,323,319,316,306,296,263,253,248,245,241,231,223,213,203,179,167,154,148,143,135,119,115,110,109,108,105,103,102,101,97],"timestamp_mouse":[4,24,45,64,84,104,124,144,164,184,204,224,245,264,284,304,324,344,365,385,404,424,445,465,484,504,524,544,564,584,605,624,645,664,684,704,724,744,764,784,805,824,844,864,884,906,925,944,964,984,1004,1025,1045,1064,1085,1105,1124,1145,1164,1184,1205,1225,1244,1264,1284,1305,1324,1344,1364,1385,1404,1425,1444,1464,1485,1504,1524,1545,1564,1585,1604,1624,1644],"xSR":741.5,"ySR":449.15000000000003,"xT1":424.9,"yT1":0,"xT2":1058.1,"yT2":0,"toosoon":0,"cond_shown":"Incongruent","ratio_trial":100,"L_num":3,"L_den":6,"R_num":4,"R_den":10,"correct_side":1,"subjID":"marianacardenassabogal29","gender":"1","school":"6","age":"11"},{"start_time":1551794139506,"click_time":1551794141965,"finger_time":1551794141665,"fix_duration":259.24435041453233,"trial":29,"RT":2159,"MT":300,"sideResp":1,"stimulus":[],"xmouse":[818,818,818,819,819,819,819,819,819,819,819,819,819,819,819,819,819,819,819,819,819,819,819,819,819,819,819,819,819,819,819,819,819,819,819,819,819,819,819,819,819,819,819,819,819,819,819,819,819,819,819,819,819,819,819,819,819,819,819,819,819,819,819,819,819,819,819,819,819,819,819,819,819,819,819,819,819,819,819,819,819,819,819,819,819,819,819,819,819,802,788,784,783,783,783,783,783,783,783,783,783,783,783,783,782,775,769,739,633,578,548,548,548,548,548,548,548,548,548,548,548,548,454],"ymouse":[472,472,472,472,472,472,472,472,472,472,472,472,472,472,472,472,472,472,472,472,472,472,472,472,472,472,472,472,472,472,472,472,472,472,472,472,472,472,472,472,472,472,472,472,472,472,472,472,472,472,472,472,472,472,472,472,472,472,472,472,472,472,472,472,472,472,472,472,472,472,472,472,472,472,472,472,472,472,472,472,472,472,472,472,472,472,472,472,472,472,472,472,472,472,472,472,472,472,472,472,472,472,472,472,472,469,461,420,241,112,43,43,43,43,43,43,43,43,43,43,43,43,18],"timestamp_mouse":[19,39,59,79,99,119,140,159,179,200,219,240,259,279,299,319,339,359,380,399,419,439,459,479,499,519,539,559,579,599,619,640,659,679,699,719,739,760,779,800,819,839,859,879,900,919,939,959,980,999,1019,1040,1059,1080,1099,1119,1139,1159,1179,1199,1220,1239,1260,1279,1299,1320,1339,1360,1379,1399,1419,1439,1460,1480,1499,1520,1539,1559,1580,1599,1619,1640,1659,1679,1700,1719,1740,1760,1779,1799,1819,1839,1859,1879,1899,1919,1939,1960,1979,1999,2019,2039,2060,2079,2100,2119,2140,2159,2179,2199,2219,2239,2260,2279,2299,2319,2339,2360,2380,2400,2419,2440,2459],"xSR":741.5,"ySR":449.15000000000003,"xT1":424.9,"yT1":0,"xT2":1058.1,"yT2":0,"toosoon":0,"cond_shown":"Congruent","ratio_trial":200,"L_num":5,"L_den":10,"R_num":14,"R_den":20,"correct_side":2,"subjID":"marianacardenassabogal29","gender":"1","school":"6","age":"11"},{"start_time":1551794143535,"click_time":1551794144486,"finger_time":1551794144406,"fix_duration":250,"trial":30,"RT":871,"MT":80,"sideResp":2,"stimulus":[],"xmouse":[793,793,793,793,793,793,793,793,793,793,793,793,793,793,793,793,793,793,793,793,793,793,793,793,793,793,793,793,793,793,793,793,793,793,793,793,793,793,793,793,794,799,821,964,1047,1107,1141,1156],"ymouse":[479,479,479,479,479,479,479,479,479,479,479,479,479,479,479,479,479,479,479,479,479,479,479,479,479,479,479,479,479,479,479,479,479,479,479,479,479,479,479,479,478,473,450,322,230,155,113,82],"timestamp_mouse":[10,30,51,70,91,110,130,150,170,190,210,230,250,270,291,310,330,350,370,390,411,430,450,470,490,510,530,550,570,590,610,631,650,670,690,710,730,751,770,791,810,830,850,871,890,910,930,951],"xSR":741.5,"ySR":449.15000000000003,"xT1":424.9,"yT1":0,"xT2":1058.1,"yT2":0,"toosoon":0,"cond_shown":"Congruent","ratio_trial":200,"L_num":8,"L_den":15,"R_num":2,"R_den":6,"correct_side":1,"subjID":"marianacardenassabogal29","gender":"1","school":"6","age":"11"},{"start_time":1551794146942,"click_time":1551794147966,"finger_time":1551794147585,"fix_duration":1193.7904246381706,"trial":31,"RT":643,"MT":381,"sideResp":2,"stimulus":[],"xmouse":[800,800,800,800,800,800,800,800,800,800,800,800,800,800,800,800,800,800,800,800,800,800,800,800,800,800,800,800,800,800,800,802,867,929,1001,1068,1118,1149,1206,1245,1256,1268,1277,1279,1280,1280,1280,1280,1270,1225,1169,1115],"ymouse":[483,483,483,483,483,483,483,483,483,483,483,483,483,483,483,483,483,483,483,483,483,483,483,483,483,483,483,483,483,483,483,483,449,412,368,328,290,258,167,91,72,47,16,9,2,0,0,0,0,4,18,33],"timestamp_mouse":[3,24,43,64,84,103,123,143,163,183,203,223,244,263,283,304,323,343,363,384,404,423,444,463,483,504,523,543,563,583,603,624,643,664,684,703,724,743,763,783,803,823,844,863,884,903,923,944,963,983,1004,1024],"xSR":741.5,"ySR":449.15000000000003,"xT1":424.9,"yT1":0,"xT2":1058.1,"yT2":0,"toosoon":0,"cond_shown":"Congruent","ratio_trial":100,"L_num":2,"L_den":5,"R_num":11,"R_den":22,"correct_side":2,"subjID":"marianacardenassabogal29","gender":"1","school":"6","age":"11"},{"start_time":1551794149539,"click_time":1551794152285,"finger_time":1551794151145,"fix_duration":431.2306495948123,"trial":32,"RT":1606,"MT":1140,"sideResp":1,"stimulus":[],"xmouse":[786,786,786,786,786,786,786,786,786,786,786,786,786,786,786,786,786,786,786,786,786,786,786,786,786,786,786,786,786,786,786,786,786,786,786,786,786,786,786,786,786,786,786,786,786,786,786,786,786,786,786,786,786,786,786,786,786,786,786,786,786,786,786,786,786,786,786,786,786,786,786,786,786,786,786,786,786,786,796,839,915,1049,1209,1264,1296,1300,1300,1299,1290,1282,1269,1249,1240,1240,1240,1240,1240,1240,1240,1240,1240,1240,1240,1240,1240,1240,1239,1224,1214,1205,1188,1173,1132,1108,1082,1053,1030,978,943,905,844,795,693,650,621,602,588,582,580,579,571,559,556,556,555,552,541,520],"ymouse":[500,500,500,500,500,500,500,500,500,500,500,500,500,500,500,500,500,500,500,500,500,500,500,500,500,500,500,500,500,500,500,500,500,500,500,500,500,500,500,500,500,500,500,500,500,500,500,500,500,500,500,500,500,500,500,500,500,500,500,500,500,500,500,500,500,500,500,500,500,500,500,500,500,500,500,500,500,500,496,491,480,448,323,237,181,164,155,150,129,118,102,86,82,82,82,82,82,82,82,82,82,82,82,82,82,82,82,94,104,115,136,148,174,185,193,198,199,190,173,157,130,110,65,48,35,31,29,29,29,29,34,42,44,44,45,46,51,53],"timestamp_mouse":[7,27,51,67,87,107,126,147,166,187,207,226,246,267,287,307,327,346,367,386,407,427,446,466,486,506,528,546,566,586,607,626,646,666,686,706,727,746,766,786,806,826,847,867,886,907,926,947,966,986,1006,1027,1046,1066,1086,1107,1126,1146,1167,1187,1206,1226,1247,1267,1286,1306,1327,1346,1366,1386,1405,1425,1445,1467,1487,1505,1525,1547,1566,1585,1606,1626,1646,1666,1687,1706,1727,1746,1765,1786,1807,1825,1846,1867,1887,1906,1926,1946,1966,1985,2007,2026,2046,2065,2087,2106,2126,2146,2165,2186,2207,2226,2246,2266,2285,2306,2326,2346,2366,2385,2406,2425,2446,2467,2487,2506,2526,2547,2566,2586,2607,2625,2646,2666,2687,2707,2727,2746],"xSR":741.5,"ySR":449.15000000000003,"xT1":424.9,"yT1":0,"xT2":1058.1,"yT2":0,"toosoon":0,"cond_shown":"Congruent","ratio_trial":300,"L_num":5,"L_den":25,"R_num":6,"R_den":12,"correct_side":2,"subjID":"marianacardenassabogal29","gender":"1","school":"6","age":"11"},{"start_time":1551794153518,"click_time":1551794155586,"finger_time":1551794155204,"fix_duration":250,"trial":33,"RT":1686,"MT":382,"sideResp":2,"stimulus":[],"xmouse":[789,789,789,789,789,789,789,789,789,789,789,789,790,793,802,807,809,809,809,809,809,809,809,809,809,809,809,809,809,809,809,809,808,803,803,803,803,803,803,803,803,803,803,803,803,803,803,803,803,803,803,803,803,803,803,803,803,803,803,803,803,803,803,803,803,803,803,803,803,803,803,803,803,803,803,803,803,803,803,803,803,803,803,812,850,883,905,917,926,930,931,931,931,932,932,932,932,939,1004,1050,1102,1112,1133,1146],"ymouse":[499,499,499,499,499,499,499,499,499,499,499,499,499,496,485,478,473,473,473,473,473,473,473,473,473,473,473,473,473,473,473,473,472,477,477,477,477,477,477,477,477,477,477,477,477,477,477,477,477,477,477,477,477,477,477,477,477,477,477,477,477,477,477,477,477,477,477,477,477,477,477,477,477,477,477,477,477,477,477,477,477,477,477,472,435,397,368,345,292,269,250,229,200,188,188,188,188,185,161,141,118,113,102,90],"timestamp_mouse":[8,27,47,66,87,107,128,148,166,187,208,228,247,268,287,306,327,347,368,388,406,428,446,466,488,507,527,546,568,588,608,626,646,667,687,707,726,748,767,786,807,826,847,866,887,907,927,946,968,988,1007,1026,1048,1066,1086,1108,1128,1148,1167,1188,1208,1226,1247,1268,1287,1306,1327,1348,1366,1386,1407,1428,1448,1467,1486,1508,1526,1547,1568,1587,1607,1628,1647,1668,1686,1706,1727,1747,1767,1788,1808,1826,1847,1867,1886,1907,1928,1947,1967,1988,2006,2027,2046,2068],"xSR":741.5,"ySR":449.15000000000003,"xT1":424.9,"yT1":0,"xT2":1058.1,"yT2":0,"toosoon":0,"cond_shown":"Congruent","ratio_trial":300,"L_num":1,"L_den":5,"R_num":6,"R_den":12,"correct_side":2,"subjID":"marianacardenassabogal29","gender":"1","school":"6","age":"11"},{"start_time":1551794159832,"click_time":1551794171746,"finger_time":1551794164905,"fix_duration":1425.4926174251693,"trial":34,"RT":5073,"MT":6841,"sideResp":1,"stimulus":[],"xmouse":[820,820,820,820,820,820,820,820,820,820,820,820,820,820,820,820,820,820,820,820,820,820,820,820,820,820,820,820,820,820,820,820,820,820,820,820,820,820,820,820,820,820,820,820,820,820,820,820,820,820,820,820,820,820,820,820,820,820,820,820,820,820,820,820,820,820,820,820,820,820,820,820,820,820,820,820,820,820,820,820,820,820,820,820,820,820,820,820,820,820,820,820,820,820,820,820,820,820,820,820,820,820,820,820,820,820,820,820,820,820,820,820,820,820,820,820,820,820,820,820,820,820,820,820,820,820,820,820,820,820,820,820,820,820,820,820,820,820,820,820,820,820,820,820,820,820,820,820,820,820,820,820,820,820,820,820,820,820,820,820,820,820,820,820,820,820,820,820,820,820,820,820,820,820,820,820,820,820,820,820,820,820,820,820,820,820,820,820,820,820,820,820,820,820,820,820,820,820,820,820,820,820,820,820,820,820,820,820,820,820,820,820,823,825,825,825,825,825,825,825,825,825,825,825,825,825,825,825,825,825,825,825,825,825,825,825,827,836,839,839,839,839,839,839,839,839,839,839,839,836,832,828,820,808,807,806,806,790,776,761,742,722,696,691,687,681,666,643,634,624,621,620,619,619,619,619,619,619,619,619,619,619,619,619,622,633,647,651,651,651,651,651,653,656,658,658,659,659,661,671,683,697,718,725,730,737,747,765,775,784,792,798,808,816,828,843,877,926,954,982,1004,1023,1063,1086,1110,1153,1166,1171,1169,1167,1166,1166,1166,1166,1166,1166,1166,1166,1166,1166,1166,1166,1166,1166,1166,1166,1166,1166,1166,1166,1166,1166,1166,1166,1166,1166,1166,1166,1166,1166,1166,1166,1166,1166,1166,1166,1166,1166,1166,1166,1166,1166,1166,1166,1166,1166,1166,1166,1166,1166,1166,1166,1166,1166,1166,1166,1166,1166,1166,1166,1166,1166,1166,1166,1166,1166,1166,1166,1166,1166,1166,1166,1166,1166,1166,1166,1166,1166,1166,1166,1166,1166,1166,1166,1166,1166,1166,1166,1166,1166,1166,1166,1166,1166,1166,1166,1166,1166,1166,1166,1166,1166,1166,1166,1166,1166,1166,1166,1166,1166,1166,1166,1166,1166,1166,1166,1166,1166,1166,1166,1166,1166,1166,1166,1166,1166,1166,1166,1166,1166,1166,1166,1166,1166,1166,1166,1166,1166,1166,1166,1166,1166,1166,1166,1166,1166,1166,1166,1166,1166,1166,1166,1166,1166,1166,1166,1166,1166,1166,1166,1166,1166,1166,1166,1166,1166,1166,1166,1166,1166,1166,1166,1166,1166,1166,1166,1166,1166,1166,1166,1166,1168,1173,1183,1185,1185,1185,1185,1185,1185,1184,1183,1181,1180,1177,1168,1160,1146,1143,1139,1137,1137,1137,1137,1137,1137,1137,1137,1137,1137,1137,1137,1137,1137,1137,1137,1137,1137,1137,1137,1137,1137,1137,1137,1137,1137,1137,1137,1137,1137,1137,1136,1131,1131,1130,1129,1129,1129,1129,1129,1129,1129,1129,1129,1112,1102,1057,1025,998,994,992,987,956,928,887,800,739,681,582,565,560,558,550,538,506,484],"ymouse":[472,472,472,472,472,472,472,472,472,472,472,472,472,472,472,472,472,472,472,472,472,472,472,472,472,472,472,472,472,472,472,472,472,472,472,472,472,472,472,472,472,472,472,472,472,472,472,472,472,472,472,472,472,472,472,472,472,472,472,472,472,472,472,472,472,472,472,472,472,472,472,472,472,472,472,472,472,472,472,472,472,472,472,472,472,472,472,472,472,472,472,472,472,472,472,472,472,472,472,472,472,472,472,472,472,472,472,472,472,472,472,472,472,472,472,472,472,472,472,472,472,472,472,472,472,472,472,472,472,472,472,472,472,472,472,472,472,472,472,472,472,472,472,472,472,472,472,472,472,472,472,472,472,472,472,472,472,472,472,472,472,472,472,472,472,472,472,472,472,472,472,472,472,472,472,472,472,472,472,472,472,472,472,472,472,472,472,472,472,472,472,472,472,472,472,472,472,472,472,472,472,472,472,472,472,472,472,472,472,472,472,475,480,482,482,482,482,482,482,482,482,482,482,482,482,482,482,482,482,482,482,482,482,482,482,482,482,482,482,482,482,482,482,482,482,482,482,482,482,479,474,463,453,434,431,429,425,396,376,360,340,323,303,298,293,285,264,232,218,205,198,194,193,193,193,193,193,193,193,193,193,193,193,191,189,186,182,182,182,182,182,182,182,182,182,182,182,182,185,202,223,245,273,283,291,299,311,321,322,324,325,326,328,331,333,335,345,358,363,367,368,368,368,360,346,311,290,256,246,244,244,244,244,244,244,244,244,244,244,244,244,244,244,244,244,244,244,244,244,244,244,244,244,244,244,244,244,244,244,244,244,244,244,244,244,244,244,244,244,244,244,244,244,244,244,244,244,244,244,244,244,244,244,244,244,244,244,244,244,244,244,244,244,244,244,244,244,244,244,244,244,244,244,244,244,244,244,244,244,244,244,244,244,244,244,244,244,244,244,244,244,244,244,244,244,244,244,244,244,244,244,244,244,244,244,244,244,244,244,244,244,244,244,244,244,244,244,244,244,244,244,244,244,244,244,244,244,244,244,244,244,244,244,244,244,244,244,244,244,244,244,244,244,244,244,244,244,244,244,244,244,244,244,244,244,244,244,244,244,244,244,244,244,244,244,244,244,244,244,244,244,244,244,244,244,244,244,244,244,244,244,241,237,224,221,218,217,217,216,216,216,216,217,219,221,231,239,253,256,257,258,258,258,258,258,258,258,258,258,258,258,258,258,258,258,258,258,258,258,258,258,258,258,258,258,258,258,258,258,258,258,263,294,308,318,321,321,321,321,321,321,321,321,321,322,322,322,322,322,322,322,322,320,315,310,295,271,239,178,162,154,149,135,127,108,95],"timestamp_mouse":[13,33,52,73,94,113,134,153,172,193,214,233,252,274,293,312,332,354,373,393,414,432,452,473,494,512,533,553,572,593,614,632,654,674,693,713,733,752,773,792,814,832,852,873,893,913,934,953,973,994,1014,1033,1053,1073,1093,1112,1134,1153,1172,1193,1213,1234,1253,1274,1292,1314,1334,1353,1373,1394,1414,1432,1453,1474,1492,1514,1534,1552,1573,1593,1613,1634,1653,1673,1694,1712,1732,1753,1772,1793,1814,1834,1853,1873,1893,1913,1934,1954,1972,1993,2013,2034,2052,2073,2094,2113,2133,2152,2172,2194,2213,2233,2253,2273,2292,2314,2333,2354,2374,2393,2414,2433,2453,2472,2492,2513,2534,2552,2573,2593,2614,2633,2654,2673,2693,2713,2733,2753,2772,2792,2812,2834,2853,2874,2892,2914,2933,2952,2972,2993,3013,3034,3052,3072,3092,3114,3133,3154,3173,3194,3214,3232,3253,3272,3293,3314,3333,3354,3373,3394,3413,3432,3453,3473,3492,3512,3533,3554,3573,3593,3614,3634,3654,3673,3694,3713,3733,3753,3774,3793,3814,3833,3853,3874,3894,3913,3932,3953,3974,3992,4012,4034,4053,4073,4092,4114,4133,4152,4174,4194,4213,4233,4253,4272,4294,4314,4332,4353,4374,4393,4413,4432,4453,4473,4492,4514,4533,4552,4572,4594,4612,4634,4652,4672,4694,4712,4733,4753,4774,4792,4814,4833,4854,4872,4894,4914,4932,4952,4973,4994,5012,5033,5053,5073,5093,5112,5133,5154,5173,5192,5214,5233,5253,5273,5294,5313,5333,5353,5373,5394,5413,5433,5454,5473,5493,5514,5533,5553,5573,5594,5613,5633,5654,5673,5693,5712,5733,5753,5774,5793,5812,5833,5854,5873,5893,5914,5933,5953,5973,5993,6013,6033,6054,6073,6093,6112,6132,6154,6173,6192,6213,6234,6253,6274,6293,6313,6332,6353,6373,6393,6413,6433,6453,6473,6492,6513,6533,6553,6573,6594,6612,6633,6653,6672,6693,6714,6733,6754,6773,6793,6813,6833,6854,6873,6893,6913,6934,6954,6973,6993,7012,7034,7054,7074,7094,7112,7134,7153,7172,7193,7213,7233,7252,7274,7293,7314,7334,7353,7372,7394,7413,7433,7454,7473,7493,7514,7533,7554,7574,7593,7612,7632,7653,7673,7694,7713,7733,7753,7773,7793,7813,7833,7854,7872,7893,7913,7932,7954,7974,7992,8013,8033,8054,8073,8094,8113,8134,8154,8174,8192,8212,8232,8254,8274,8292,8313,8332,8352,8372,8393,8413,8433,8454,8474,8493,8512,8533,8554,8572,8593,8612,8634,8653,8673,8693,8712,8732,8754,8773,8793,8814,8833,8854,8873,8893,8913,8933,8952,8973,8993,9013,9033,9054,9074,9094,9113,9134,9154,9173,9193,9213,9233,9254,9273,9292,9313,9334,9353,9372,9393,9412,9433,9454,9473,9492,9513,9533,9554,9572,9592,9614,9634,9653,9673,9694,9713,9733,9754,9772,9794,9814,9833,9853,9874,9893,9913,9932,9954,9972,9994,10012,10033,10053,10074,10094,10113,10133,10154,10173,10192,10212,10233,10253,10272,10293,10313,10333,10353,10373,10393,10412,10433,10454,10473,10492,10514,10533,10553,10572,10592,10613,10633,10654,10673,10693,10713,10732,10752,10772,10792,10813,10833,10853,10872,10892,10913,10933,10953,10974,10993,11014,11033,11053,11074,11094,11114,11133,11154,11174,11193,11213,11233,11253,11273,11292,11312,11333,11352,11374,11393,11414,11433,11454,11473,11494,11513,11532,11553,11573,11593,11613,11633,11653,11673,11693,11714,11733,11753,11773,11793,11814,11833,11853,11874,11893,11914],"xSR":741.5,"ySR":449.15000000000003,"xT1":424.9,"yT1":0,"xT2":1058.1,"yT2":0,"toosoon":0,"cond_shown":"Congruent","ratio_trial":100,"L_num":4,"L_den":8,"R_num":6,"R_den":10,"correct_side":2,"subjID":"marianacardenassabogal29","gender":"1","school":"6","age":"11"},{"start_time":1551794175775,"click_time":1551794177705,"finger_time":1551794177204,"fix_duration":688.5145407138544,"trial":35,"RT":1429,"MT":501,"sideResp":1,"stimulus":[],"xmouse":[777,777,777,777,777,777,777,777,777,777,777,777,777,777,777,777,777,777,777,777,777,777,777,777,777,777,777,777,777,777,777,777,777,777,777,777,777,777,777,777,777,777,777,777,777,777,777,777,777,777,777,777,777,777,777,777,777,777,777,777,777,777,777,777,777,777,777,777,777,777,785,787,785,779,770,758,730,719,708,701,686,679,671,662,648,636,565,536,519,497,487,486,486,489,496,506,524],"ymouse":[510,510,510,510,510,510,510,510,510,510,510,510,510,510,510,510,510,510,510,510,510,510,510,510,510,510,510,510,510,510,510,510,510,510,510,510,510,510,510,510,510,510,510,510,510,510,510,510,510,510,510,510,510,510,510,510,510,510,510,510,510,510,510,510,510,510,510,510,510,509,457,439,425,416,404,388,362,353,339,327,307,298,290,280,271,262,211,186,169,150,142,132,128,122,113,105,93],"timestamp_mouse":[19,30,50,69,91,110,131,149,171,190,209,229,250,270,290,310,330,350,371,391,410,430,451,471,489,509,530,550,571,591,610,630,651,669,691,711,729,751,770,789,810,831,850,871,889,911,929,950,971,991,1010,1030,1051,1069,1090,1110,1129,1149,1170,1191,1209,1229,1250,1271,1291,1311,1329,1349,1371,1391,1410,1429,1451,1470,1490,1510,1529,1550,1571,1590,1610,1630,1651,1670,1689,1709,1729,1750,1771,1789,1810,1830,1849,1869,1891,1910,1929],"xSR":741.5,"ySR":449.15000000000003,"xT1":424.9,"yT1":0,"xT2":1058.1,"yT2":0,"toosoon":0,"cond_shown":"Incongruent","ratio_trial":300,"L_num":13,"L_den":26,"R_num":12,"R_den":15,"correct_side":2,"subjID":"marianacardenassabogal29","gender":"1","school":"6","age":"11"},{"start_time":1551794180272,"click_time":1551794182064,"finger_time":1551794181564,"fix_duration":1267.3370154024337,"trial":36,"RT":1292,"MT":500,"sideResp":2,"stimulus":[],"xmouse":[777,777,777,777,777,777,777,777,777,777,777,777,777,777,777,777,777,777,777,777,777,777,777,777,777,777,777,777,777,777,777,777,777,777,777,777,777,777,777,777,777,777,777,777,777,777,777,777,777,777,777,777,777,777,777,777,777,777,785,791,805,820,823,826,836,864,884,896,902,906,908,914,919,929,938,955,961,967,971,974,981,986,993,1002,1013,1017,1022,1035,1053,1073],"ymouse":[490,490,490,490,490,490,490,490,490,490,490,490,490,490,490,490,490,490,490,490,490,490,490,490,490,490,490,490,490,490,490,490,490,490,490,490,490,490,490,490,490,490,490,490,490,490,490,490,490,490,490,490,490,490,490,490,490,490,485,482,474,463,458,453,436,389,336,311,293,280,270,256,244,223,207,163,149,138,130,126,118,112,106,100,96,94,92,90,87,85],"timestamp_mouse":[18,34,53,73,93,112,132,152,173,193,212,234,253,272,293,313,332,354,373,393,414,434,453,474,493,514,533,553,574,593,613,633,652,674,693,712,733,753,774,793,812,833,854,872,894,914,934,953,973,994,1014,1032,1053,1074,1093,1114,1132,1152,1174,1194,1214,1232,1252,1274,1292,1314,1333,1354,1374,1394,1414,1432,1453,1473,1493,1514,1533,1552,1572,1592,1613,1633,1654,1674,1692,1713,1733,1753,1773,1792],"xSR":741.5,"ySR":449.15000000000003,"xT1":424.9,"yT1":0,"xT2":1058.1,"yT2":0,"toosoon":0,"cond_shown":"Congruent","ratio_trial":100,"L_num":2,"L_den":5,"R_num":11,"R_den":22,"correct_side":2,"subjID":"marianacardenassabogal29","gender":"1","school":"6","age":"11"},{"start_time":1551794188778,"click_time":1551794193784,"finger_time":1551794190684,"fix_duration":1372.2415160316682,"trial":37,"RT":1906,"MT":3100,"sideResp":2,"stimulus":[],"xmouse":[769,769,769,769,769,769,769,769,769,769,769,769,769,769,769,769,769,769,769,769,769,769,769,769,769,769,769,769,769,769,769,769,769,769,769,769,769,769,769,769,769,769,769,769,769,769,769,769,769,769,769,769,769,769,769,769,769,769,769,769,769,769,769,769,769,769,769,769,769,769,769,769,769,769,769,769,769,769,769,769,769,769,769,769,769,769,769,769,769,769,769,769,768,764,750,733,686,660,654,643,642,642,641,640,639,634,631,628,622,617,616,616,616,616,616,616,616,616,616,616,616,616,616,616,616,616,615,615,615,615,617,619,621,622,623,626,636,637,642,644,652,657,664,671,675,678,683,687,692,706,718,742,752,762,773,793,811,834,840,852,853,853,858,863,872,890,892,893,893,893,893,893,893,893,893,895,900,902,903,908,912,915,915,915,915,915,915,915,915,915,915,915,915,915,915,915,915,915,915,915,915,915,915,915,915,915,915,915,915,915,915,915,915,915,915,915,915,915,915,915,915,915,915,915,915,915,915,915,915,915,915,915,915,915,915,915,920,961,978,1009,1021,1021,1021,1021,1021,1021,1021,1025,1034,1057,1067],"ymouse":[512,512,512,512,512,512,512,512,512,512,512,512,512,512,512,512,512,512,512,512,512,512,512,512,512,512,512,512,512,512,512,512,512,512,512,512,512,512,512,512,512,512,512,512,512,512,512,512,512,512,512,512,512,512,512,512,512,512,512,512,512,512,512,512,512,512,512,512,512,512,512,512,512,512,512,512,512,512,512,512,512,512,512,512,512,512,512,512,512,512,512,512,512,511,494,469,403,367,357,340,337,336,334,331,328,319,312,308,298,291,289,289,289,289,289,289,289,289,289,289,289,289,289,289,286,278,274,270,270,268,264,263,262,261,260,259,251,251,248,246,242,239,236,232,229,226,221,217,212,202,193,181,177,174,169,163,159,154,153,151,151,151,148,145,141,136,135,135,135,135,135,135,135,135,135,134,132,131,130,128,125,124,124,124,124,124,124,124,124,124,124,124,124,124,124,124,124,124,124,124,124,124,124,124,124,124,124,124,124,124,124,124,124,124,124,124,124,124,124,124,124,124,124,124,124,124,124,124,124,124,124,124,124,124,124,124,120,101,94,85,81,81,81,81,81,81,81,79,73,61,57],"timestamp_mouse":[6,27,47,67,87,106,126,147,167,186,207,227,247,268,287,307,327,347,367,387,407,427,446,466,488,506,526,547,567,586,607,628,647,667,687,707,728,747,766,786,806,827,846,867,888,908,926,947,967,987,1008,1026,1047,1067,1088,1106,1127,1147,1168,1188,1208,1226,1246,1267,1287,1306,1326,1347,1367,1387,1408,1427,1447,1468,1486,1506,1527,1546,1568,1586,1606,1627,1647,1666,1688,1707,1727,1747,1768,1787,1807,1826,1847,1866,1888,1906,1926,1946,1968,1986,2007,2027,2046,2067,2086,2107,2128,2148,2167,2187,2206,2227,2248,2268,2286,2307,2327,2347,2367,2388,2408,2427,2447,2466,2486,2508,2527,2547,2567,2587,2608,2628,2648,2666,2687,2707,2727,2747,2767,2787,2807,2827,2848,2867,2887,2908,2927,2947,2968,2986,3007,3027,3047,3066,3087,3107,3127,3146,3166,3186,3208,3227,3247,3266,3287,3308,3328,3346,3367,3387,3408,3427,3447,3467,3487,3507,3527,3547,3566,3587,3607,3627,3647,3668,3687,3707,3726,3746,3767,3787,3808,3827,3846,3866,3886,3906,3926,3946,3967,3987,4006,4028,4046,4067,4087,4108,4127,4147,4167,4187,4206,4227,4246,4267,4288,4307,4327,4348,4368,4386,4408,4427,4447,4467,4487,4508,4527,4546,4566,4587,4608,4627,4647,4668,4687,4707,4727,4746,4766,4787,4807,4827,4847,4867,4887,4906,4926,4947,4966,4987,5006],"xSR":741.5,"ySR":449.15000000000003,"xT1":424.9,"yT1":0,"xT2":1058.1,"yT2":0,"toosoon":0,"cond_shown":"Congruent","ratio_trial":300,"L_num":5,"L_den":25,"R_num":7,"R_den":14,"correct_side":2,"subjID":"marianacardenassabogal29","gender":"1","school":"6","age":"11"},{"start_time":1551794206335,"click_time":1551794207385,"finger_time":1551794206905,"fix_duration":1127.7196658847663,"trial":38,"RT":570,"MT":480,"sideResp":1,"stimulus":[],"xmouse":[803,803,803,803,803,803,803,803,803,803,803,803,803,803,803,803,803,803,803,803,803,803,803,803,803,803,801,787,685,644,609,594,566,558,546,531,514,492,489,489,489,488,488,488,488,488,488,495,499,500,500,500,499],"ymouse":[496,496,496,496,496,496,496,496,496,496,496,496,496,496,496,496,496,496,496,496,496,496,496,496,496,496,496,466,314,276,243,222,186,178,169,160,148,136,134,134,134,132,129,127,125,123,120,111,108,104,103,102,99],"timestamp_mouse":[10,31,50,71,89,109,131,150,169,190,210,231,251,269,290,310,330,350,371,389,411,431,449,470,490,509,530,550,570,591,610,629,650,670,690,709,730,751,770,790,810,830,850,869,890,910,930,950,969,991,1010,1030,1050],"xSR":741.5,"ySR":449.15000000000003,"xT1":424.9,"yT1":0,"xT2":1058.1,"yT2":0,"toosoon":0,"cond_shown":"Incongruent","ratio_trial":100,"L_num":6,"L_den":10,"R_num":13,"R_den":26,"correct_side":1,"subjID":"marianacardenassabogal29","gender":"1","school":"6","age":"11"},{"start_time":1551794209538,"click_time":1551794211084,"finger_time":1551794210624,"fix_duration":693.0400541532617,"trial":39,"RT":1086,"MT":460,"sideResp":2,"stimulus":[],"xmouse":[834,834,834,834,834,834,834,834,834,834,834,834,834,834,834,834,834,834,834,834,834,834,834,834,834,834,834,834,834,834,834,834,834,834,834,834,834,834,834,834,834,834,834,834,834,834,834,834,834,834,834,834,834,837,843,851,866,907,929,953,981,994,1021,1033,1046,1054,1064,1072,1081,1086,1093,1098,1105,1114,1118,1123,1128,1134],"ymouse":[535,535,535,535,535,535,535,535,535,535,535,535,535,535,535,535,535,535,535,535,535,535,535,535,535,535,535,535,535,535,535,535,535,535,535,535,535,535,535,535,535,535,535,535,535,535,535,535,535,535,535,535,535,535,528,522,513,478,448,426,399,387,360,351,338,327,313,301,282,271,251,232,211,169,152,134,115,95],"timestamp_mouse":[7,27,46,67,88,106,127,148,168,187,206,227,248,267,286,307,327,348,366,387,407,426,446,467,487,507,527,547,568,588,607,627,648,667,687,707,726,748,767,786,808,828,847,866,887,907,927,946,967,987,1006,1028,1047,1067,1086,1107,1128,1147,1168,1188,1207,1227,1247,1267,1286,1307,1327,1346,1367,1386,1407,1426,1447,1467,1488,1506,1526,1546],"xSR":741.5,"ySR":449.15000000000003,"xT1":424.9,"yT1":0,"xT2":1058.1,"yT2":0,"toosoon":0,"cond_shown":"Incongruent","ratio_trial":100,"L_num":8,"L_den":16,"R_num":6,"R_den":10,"correct_side":2,"subjID":"marianacardenassabogal29","gender":"1","school":"6","age":"11"},{"start_time":1551794213558,"click_time":1551794215585,"finger_time":1551794215224,"fix_duration":973.0991833858634,"trial":40,"RT":1666,"MT":361,"sideResp":2,"stimulus":[],"xmouse":[803,803,803,803,803,803,803,803,803,803,803,803,803,803,803,803,803,803,803,803,803,803,803,803,803,803,803,803,803,803,803,803,803,803,803,803,803,803,803,803,803,803,803,803,803,803,803,803,803,803,803,803,803,803,803,803,803,803,803,803,803,803,803,803,803,803,803,803,803,803,803,803,803,803,803,803,803,803,803,802,804,827,836,844,856,872,906,920,943,948,969,994,1008,1022,1038,1050,1059,1061,1061,1064,1069,1080],"ymouse":[505,505,505,505,505,505,505,505,505,505,505,505,505,505,505,505,505,505,505,505,505,505,505,505,505,505,505,505,505,505,505,505,505,505,505,505,505,505,505,505,505,505,505,505,505,505,505,505,505,505,505,505,505,505,505,505,505,505,505,505,505,505,505,505,505,505,505,505,505,505,505,505,505,505,505,505,505,505,505,502,495,463,451,435,406,368,288,262,223,213,187,167,159,149,137,130,122,120,118,114,108,95],"timestamp_mouse":[7,28,48,67,86,107,126,147,167,187,206,226,246,266,287,308,327,346,366,388,406,427,446,466,486,507,527,546,566,587,606,626,647,667,687,707,727,746,767,788,806,827,847,867,887,906,926,947,968,986,1007,1027,1046,1067,1086,1107,1127,1148,1166,1186,1206,1227,1246,1267,1286,1307,1326,1347,1366,1387,1407,1426,1446,1466,1487,1507,1526,1547,1567,1588,1607,1626,1646,1666,1686,1706,1727,1747,1766,1786,1806,1826,1847,1866,1887,1907,1927,1947,1966,1987,2006,2026],"xSR":741.5,"ySR":449.15000000000003,"xT1":424.9,"yT1":0,"xT2":1058.1,"yT2":0,"toosoon":0,"cond_shown":"Incongruent","ratio_trial":100,"L_num":10,"L_den":25,"R_num":9,"R_den":18,"correct_side":2,"subjID":"marianacardenassabogal29","gender":"1","school":"6","age":"11"},{"start_time":1551794217533,"click_time":1551794219204,"finger_time":1551794218705,"fix_duration":827.4504598618291,"trial":41,"RT":1172,"MT":499,"sideResp":2,"stimulus":[],"xmouse":[802,802,802,802,802,802,802,802,802,802,802,802,802,802,802,802,802,802,802,802,802,802,802,802,802,802,802,802,802,802,802,802,802,8