[{"start_time":1551891514346,"click_time":1551891518895,"finger_time":1551891514355,"fix_duration":308.87438256838794,"trial":0,"RT":9,"MT":4540,"sideResp":1,"stimulus":[],"xmouse":[797,797,797,797,797,797,797,797,797,797,797,797,797,797,797,797,797,797,797,797,797,797,797,797,797,797,797,797,797,798,799,799,799,799,799,799,799,799,798,795,793,792,788,784,784,783,783,783,783,783,783,783,783,783,783,783,783,783,783,783,783,783,783,783,783,784,784,784,784,784,784,784,785,786,786,786,786,786,786,786,786,786,786,786,786,786,786,786,786,786,786,786,786,786,786,786,787,787,789,790,791,792,792,794,795,795,796,796,796,795,791,787,779,775,787,816,841,842,842,853,869,880,883,887,887,887,882,864,806,769,734,700,657,615,607,605,605,609,639,666,706,757,847,897,953,962,970,974,980,981,982,982,982,984,984,984,987,991,999,1004,1012,1020,1033,1074,1093,1110,1132,1158,1191,1191,1191,1191,1191,1191,1191,1191,1191,1191,1191,1191,1234,1213,1186,1133,1077,1067,1063,1063,1072,1080,1095,1109,1125,1155,1160,1157,1131,1077,1004,783,645,509,388,148,94,72,64,64,64,71,82,94,103,116,125,132,148,168,207,225,242,270,281,314,358,380,403,427],"ymouse":[489,489,489,489,489,489,489,489,489,489,489,489,489,489,489,489,489,489,489,489,489,489,489,489,490,490,491,493,502,507,511,519,522,532,533,536,540,546,553,564,569,575,586,599,604,606,608,608,609,611,614,616,620,632,646,650,651,651,651,651,651,651,651,651,649,647,647,646,646,643,641,637,633,629,629,629,629,628,627,625,625,624,624,624,624,624,624,624,624,624,624,624,624,624,624,622,622,621,620,618,618,617,617,614,613,611,609,607,599,594,586,577,558,517,464,397,331,331,331,318,314,332,341,349,349,350,343,324,283,261,242,223,202,180,173,169,165,157,140,127,105,72,10,0,0,0,0,2,3,3,3,3,4,12,20,32,49,71,128,169,221,278,339,501,563,625,691,766,841,841,841,841,841,841,841,841,841,841,841,841,875,854,823,763,694,674,660,651,636,630,621,613,601,529,475,409,327,229,118,0,0,0,0,0,0,0,1,3,13,26,41,56,64,70,72,73,76,78,81,82,82,82,82,82,82,82,82,86],"timestamp_mouse":[8,28,49,69,89,108,128,148,168,189,209,228,249,268,287,309,327,347,368,389,407,428,447,468,488,508,529,547,569,588,609,627,648,669,688,708,729,748,767,789,808,828,849,869,888,908,927,948,968,988,1007,1029,1048,1067,1088,1107,1129,1149,1167,1188,1208,1229,1249,1267,1289,1308,1328,1349,1368,1388,1407,1428,1448,1468,1488,1509,1528,1549,1568,1588,1607,1629,1647,1669,1688,1707,1728,1747,1769,1787,1807,1829,1847,1869,1889,1908,1928,1949,1969,1988,2007,2028,2048,2067,2088,2108,2128,2148,2168,2189,2207,2228,2248,2268,2289,2308,2329,2347,2369,2388,2408,2427,2448,2468,2488,2509,2528,2547,2567,2588,2609,2628,2648,2668,2687,2709,2729,2748,2768,2788,2809,2829,2848,2868,2888,2908,2928,2948,2968,2987,3008,3029,3049,3068,3087,3109,3129,3148,3168,3187,3208,3228,3248,3268,3288,3307,3327,3349,3370,3387,3409,3429,3449,3468,3487,3507,3528,3548,3568,3589,3608,3628,3648,3668,3689,3708,3729,3749,3768,3788,3807,3828,3849,3867,3888,3908,3929,3948,3967,3988,4008,4028,4049,4068,4088,4108,4128,4148,4170,4188,4207,4227,4247,4267,4288,4308,4329,4348,4368,4387,4407,4427,4448,4469,4489,4508,4529,4548],"xSR":741.5,"ySR":449.15000000000003,"xT1":424.9,"yT1":0,"xT2":1058.1,"yT2":0,"toosoon":0,"cond_shown":"Congruent","ratio_trial":200,"L_num":7,"L_den":15,"R_num":18,"R_den":27,"correct_side":2,"subjID":"MarianaFernandez16","gender":"1","age":"11","school":"6","test":{"fix_dur":[250,1500],"timestim":1000,"targets_dim":[100,100],"targets_relative_coord":[0.3,0.7],"size_stim":[880,420],"start_dim":[100,100],"size_start":[300,300],"size_fix":60,"samplingrate":20,"img_types":["Congruent","Incongruent"],"ratios":[100,200,300],"rep_conds":19,"nTrials":120,"trials_to_rest":500,"Trials_order":[14,38,91,72,65,61,93,117,101,29,9,113,22,56,20,3,52,116,73,2,51,90,85,55,80,23,104,111,34,94,81,100,49,5,82,50,59,106,57,75,83,10,99,30,112,74,79,33,45,40,89,42,39,102,37,15,6,67,119,7,77,69,87,8,95,115,47,76,48,28,118,84,92,105,64,78,44,36,43,97,110,18,41,4,31,11,71,25,96,70,68,24,58,35,109,53,60,62,32,88,108,13,103,16,19,114,66,86,98,26,46,54,12,27,63,1,0,107,21,17],"cond_shown":["Congruent","Congruent","Incongruent","Congruent","Incongruent","Incongruent","Incongruent","Incongruent","Incongruent","Incongruent","Incongruent","Incongruent","Congruent","Congruent","Congruent","Incongruent","Congruent","Congruent","Incongruent","Congruent","Incongruent","Congruent","Incongruent","Incongruent","Congruent","Incongruent","Congruent","Incongruent","Congruent","Congruent","Incongruent","Congruent","Incongruent","Incongruent","Congruent","Congruent","Incongruent","Congruent","Incongruent","Incongruent","Incongruent","Congruent","Incongruent","Congruent","Congruent","Congruent","Incongruent","Incongruent","Incongruent","Congruent","Incongruent","Congruent","Incongruent","Congruent","Incongruent","Incongruent","Congruent","Incongruent","Incongruent","Incongruent","Incongruent","Incongruent","Incongruent","Congruent","Incongruent","Incongruent","Incongruent","Congruent","Congruent","Congruent","Congruent","Congruent","Congruent","Incongruent","Congruent","Congruent","Congruent","Congruent","Incongruent","Incongruent","Congruent","Congruent","Incongruent","Congruent","Incongruent","Incongruent","Incongruent","Incongruent","Congruent","Congruent","Congruent","Congruent","Congruent","Incongruent","Incongruent","Incongruent","Congruent","Congruent","Congruent","Congruent","Congruent","Incongruent","Incongruent","Congruent","Incongruent","Congruent","Congruent","Congruent","Congruent","Congruent","Congruent","Congruent","Congruent","Incongruent","Incongruent","Incongruent","Congruent","Incongruent","Incongruent","Incongruent"],"ratio_trial":[200,200,100,100,300,100,200,200,300,300,200,300,300,200,200,200,300,200,100,200,200,100,100,100,200,300,200,200,300,300,200,300,100,300,300,200,300,300,200,200,300,300,200,100,300,200,100,200,200,300,300,100,200,100,100,200,100,100,300,100,300,200,200,200,300,100,300,300,100,300,300,100,200,200,300,100,200,100,100,100,200,100,300,300,100,300,300,100,100,300,200,100,300,300,100,300,100,200,200,300,100,100,100,300,100,100,100,200,200,200,300,100,100,200,200,100,100,300,200,300],"left_num":[7,4,13,1,3,2,4,11,1,4,4,13,2,13,8,7,11,12,12,3,7,3,4,10,1,4,9,7,11,11,7,5,8,13,1,3,4,24,7,14,4,4,6,15,5,1,10,11,4,20,4,2,7,2,12,9,10,3,1,17,13,4,3,7,8,3,4,20,3,4,20,9,14,3,1,11,3,2,6,6,4,2,13,18,10,13,8,17,6,20,16,8,4,1,6,13,6,6,16,9,7,2,3,7,4,11,1,3,8,8,3,11,3,7,7,3,10,7,7,4],"right_num":[18,3,12,18,4,8,6,3,2,6,1,12,10,14,3,8,2,6,9,7,6,4,8,9,21,6,4,6,1,2,4,6,6,12,19,14,6,2,4,6,8,1,3,13,7,21,8,3,6,14,6,11,6,11,9,8,3,11,2,10,12,14,11,2,14,7,2,14,4,13,9,8,6,1,3,6,14,6,13,7,3,6,12,9,9,12,9,10,5,14,9,2,13,2,13,12,15,3,9,3,15,6,7,20,8,6,3,11,7,2,2,6,2,6,14,4,3,8,8,6],"left_den":[15,10,26,2,6,4,5,20,2,5,30,26,20,26,15,10,22,15,24,10,15,20,8,25,2,5,20,15,22,22,15,25,16,26,3,6,5,30,15,30,5,10,20,25,25,2,25,20,5,25,5,5,15,5,24,15,25,5,2,30,26,6,4,21,10,9,20,25,20,20,25,15,28,10,5,22,10,5,10,10,8,5,26,20,25,26,10,30,20,25,30,16,20,2,10,26,12,15,30,10,14,4,9,14,8,22,2,10,15,15,6,22,6,15,10,6,25,10,10,5],"right_den":[27,15,20,30,20,20,10,4,10,12,3,15,25,20,9,16,10,10,15,14,9,16,20,18,30,12,16,9,5,10,6,12,10,15,30,20,12,4,6,9,16,10,6,26,14,30,16,4,10,28,12,22,9,22,15,10,10,22,10,15,15,30,20,15,28,30,4,28,16,26,18,16,20,2,6,15,28,12,26,14,10,12,15,15,18,15,18,15,25,28,27,5,26,10,26,15,25,15,27,5,25,15,30,25,20,15,5,22,21,6,10,15,5,9,28,10,10,20,16,12],"correct_side":[2,1,2,2,1,1,1,2,1,1,2,2,2,2,1,1,1,1,2,2,2,2,1,2,2,1,1,2,1,1,2,2,2,2,2,2,1,1,2,2,1,1,2,1,2,2,2,2,1,1,1,2,2,2,2,2,1,1,1,2,2,1,1,1,1,1,2,1,2,2,1,1,1,2,2,1,2,2,1,1,1,2,2,1,2,2,1,2,1,1,1,1,2,1,1,2,2,1,1,1,2,1,1,2,1,1,2,2,1,1,1,1,1,2,1,1,1,1,1,1],"img_shown":["img2/200/Congruent/R/C_Dist_200_LN_7_LD_15_RN_18_RD_27_1.png","img2/200/Congruent/L/C_Dist_200_LN_4_LD_10_RN_3_RD_15_0.png","img2/100/Incongruent/R/I_Dist_100_LN_13_LD_26_RN_12_RD_20_1.png","img2/100/Congruent/R/C_Dist_100_LN_1_LD_2_RN_18_RD_30_1.png","img2/300/Incongruent/L/I_Dist_300_LN_3_LD_6_RN_4_RD_20_0.png","img2/100/Incongruent/L/I_Dist_100_LN_2_LD_4_RN_8_RD_20_0.png","img2/200/Incongruent/L/I_Dist_200_LN_4_LD_5_RN_6_RD_10_0.png","img2/200/Incongruent/R/I_Dist_200_LN_11_LD_20_RN_3_RD_4_1.png","img2/300/Incongruent/L/I_Dist_300_LN_1_LD_2_RN_2_RD_10_0.png","img2/300/Incongruent/L/I_Dist_300_LN_4_LD_5_RN_6_RD_12_0.png","img2/200/Incongruent/R/I_Dist_200_LN_4_LD_30_RN_1_RD_3_1.png","img2/300/Incongruent/R/I_Dist_300_LN_13_LD_26_RN_12_RD_15_1.png","img2/300/Congruent/R/C_Dist_300_LN_2_LD_20_RN_10_RD_25_1.png","img2/200/Congruent/R/C_Dist_200_LN_13_LD_26_RN_14_RD_20_1.png","img2/200/Congruent/L/C_Dist_200_LN_8_LD_15_RN_3_RD_9_0.png","img2/200/Incongruent/L/I_Dist_200_LN_7_LD_10_RN_8_RD_16_0.png","img2/300/Congruent/L/C_Dist_300_LN_11_LD_22_RN_2_RD_10_0.png","img2/200/Congruent/L/C_Dist_200_LN_12_LD_15_RN_6_RD_10_0.png","img2/100/Incongruent/R/I_Dist_100_LN_12_LD_24_RN_9_RD_15_1.png","img2/200/Congruent/R/C_Dist_200_LN_3_LD_10_RN_7_RD_14_1.png","img2/200/Incongruent/R/I_Dist_200_LN_7_LD_15_RN_6_RD_9_1.png","img2/100/Congruent/R/C_Dist_100_LN_3_LD_20_RN_4_RD_16_1.png","img2/100/Incongruent/L/I_Dist_100_LN_4_LD_8_RN_8_RD_20_0.png","img2/100/Incongruent/R/I_Dist_100_LN_10_LD_25_RN_9_RD_18_1.png","img2/200/Congruent/R/C_Dist_200_LN_1_LD_2_RN_21_RD_30_1.png","img2/300/Incongruent/L/I_Dist_300_LN_4_LD_5_RN_6_RD_12_0.png","img2/200/Congruent/L/C_Dist_200_LN_9_LD_20_RN_4_RD_16_0.png","img2/200/Incongruent/R/I_Dist_200_LN_7_LD_15_RN_6_RD_9_1.png","img2/300/Congruent/L/C_Dist_300_LN_11_LD_22_RN_1_RD_5_0.png","img2/300/Congruent/L/C_Dist_300_LN_11_LD_22_RN_2_RD_10_0.png","img2/200/Incongruent/R/I_Dist_200_LN_7_LD_15_RN_4_RD_6_1.png","img2/300/Congruent/R/C_Dist_300_LN_5_LD_25_RN_6_RD_12_1.png","img2/100/Incongruent/R/I_Dist_100_LN_8_LD_16_RN_6_RD_10_1.png","img2/300/Incongruent/R/I_Dist_300_LN_13_LD_26_RN_12_RD_15_1.png","img2/300/Congruent/R/C_Dist_300_LN_1_LD_3_RN_19_RD_30_1.png","img2/200/Congruent/R/C_Dist_200_LN_3_LD_6_RN_14_RD_20_1.png","img2/300/Incongruent/L/I_Dist_300_LN_4_LD_5_RN_6_RD_12_0.png","img2/300/Congruent/L/C_Dist_300_LN_24_LD_30_RN_2_RD_4_0.png","img2/200/Incongruent/R/I_Dist_200_LN_7_LD_15_RN_4_RD_6_1.png","img2/200/Incongruent/R/I_Dist_200_LN_14_LD_30_RN_6_RD_9_1.png","img2/300/Incongruent/L/I_Dist_300_LN_4_LD_5_RN_8_RD_16_0.png","img2/300/Congruent/L/C_Dist_300_LN_4_LD_10_RN_1_RD_10_0.png","img2/200/Incongruent/R/I_Dist_200_LN_6_LD_20_RN_3_RD_6_1.png","img2/100/Congruent/L/C_Dist_100_LN_15_LD_25_RN_13_RD_26_0.png","img2/300/Congruent/R/C_Dist_300_LN_5_LD_25_RN_7_RD_14_1.png","img2/200/Congruent/R/C_Dist_200_LN_1_LD_2_RN_21_RD_30_1.png","img2/100/Incongruent/R/I_Dist_100_LN_10_LD_25_RN_8_RD_16_1.png","img2/200/Incongruent/R/I_Dist_200_LN_11_LD_20_RN_3_RD_4_1.png","img2/200/Incongruent/L/I_Dist_200_LN_4_LD_5_RN_6_RD_10_0.png","img2/300/Congruent/L/C_Dist_300_LN_20_LD_25_RN_14_RD_28_0.png","img2/300/Incongruent/L/I_Dist_300_LN_4_LD_5_RN_6_RD_12_0.png","img2/100/Congruent/R/C_Dist_100_LN_2_LD_5_RN_11_RD_22_1.png","img2/200/Incongruent/R/I_Dist_200_LN_7_LD_15_RN_6_RD_9_1.png","img2/100/Congruent/R/C_Dist_100_LN_2_LD_5_RN_11_RD_22_1.png","img2/100/Incongruent/R/I_Dist_100_LN_12_LD_24_RN_9_RD_15_1.png","img2/200/Incongruent/R/I_Dist_200_LN_9_LD_15_RN_8_RD_10_1.png","img2/100/Congruent/L/C_Dist_100_LN_10_LD_25_RN_3_RD_10_0.png","img2/100/Incongruent/L/I_Dist_100_LN_3_LD_5_RN_11_RD_22_0.png","img2/300/Incongruent/L/I_Dist_300_LN_1_LD_2_RN_2_RD_10_0.png","img2/100/Incongruent/R/I_Dist_100_LN_17_LD_30_RN_10_RD_15_1.png","img2/300/Incongruent/R/I_Dist_300_LN_13_LD_26_RN_12_RD_15_1.png","img2/200/Incongruent/L/I_Dist_200_LN_4_LD_6_RN_14_RD_30_0.png","img2/200/Incongruent/L/I_Dist_200_LN_3_LD_4_RN_11_RD_20_0.png","img2/200/Congruent/L/C_Dist_200_LN_7_LD_21_RN_2_RD_15_0.png","img2/300/Incongruent/L/I_Dist_300_LN_8_LD_10_RN_14_RD_28_0.png","img2/100/Incongruent/L/I_Dist_100_LN_3_LD_9_RN_7_RD_30_0.png","img2/300/Incongruent/R/I_Dist_300_LN_4_LD_20_RN_2_RD_4_1.png","img2/300/Congruent/L/C_Dist_300_LN_20_LD_25_RN_14_RD_28_0.png","img2/100/Congruent/R/C_Dist_100_LN_3_LD_20_RN_4_RD_16_1.png","img2/300/Congruent/R/C_Dist_300_LN_4_LD_20_RN_13_RD_26_1.png","img2/300/Congruent/L/C_Dist_300_LN_20_LD_25_RN_9_RD_18_0.png","img2/100/Congruent/L/C_Dist_100_LN_9_LD_15_RN_8_RD_16_0.png","img2/200/Congruent/L/C_Dist_200_LN_14_LD_28_RN_6_RD_20_0.png","img2/200/Incongruent/R/I_Dist_200_LN_3_LD_10_RN_1_RD_2_1.png","img2/300/Congruent/R/C_Dist_300_LN_1_LD_5_RN_3_RD_6_1.png","img2/100/Congruent/L/C_Dist_100_LN_11_LD_22_RN_6_RD_15_0.png","img2/200/Congruent/R/C_Dist_200_LN_3_LD_10_RN_14_RD_28_1.png","img2/100/Congruent/R/C_Dist_100_LN_2_LD_5_RN_6_RD_12_1.png","img2/100/Incongruent/L/I_Dist_100_LN_6_LD_10_RN_13_RD_26_0.png","img2/100/Incongruent/L/I_Dist_100_LN_6_LD_10_RN_7_RD_14_0.png","img2/200/Congruent/L/C_Dist_200_LN_4_LD_8_RN_3_RD_10_0.png","img2/100/Congruent/R/C_Dist_100_LN_2_LD_5_RN_6_RD_12_1.png","img2/300/Incongruent/R/I_Dist_300_LN_13_LD_26_RN_12_RD_15_1.png","img2/300/Congruent/L/C_Dist_300_LN_18_LD_20_RN_9_RD_15_0.png","img2/100/Incongruent/R/I_Dist_100_LN_10_LD_25_RN_9_RD_18_1.png","img2/300/Incongruent/R/I_Dist_300_LN_13_LD_26_RN_12_RD_15_1.png","img2/300/Incongruent/L/I_Dist_300_LN_8_LD_10_RN_9_RD_18_0.png","img2/100/Incongruent/R/I_Dist_100_LN_17_LD_30_RN_10_RD_15_1.png","img2/100/Congruent/L/C_Dist_100_LN_6_LD_20_RN_5_RD_25_0.png","img2/300/Congruent/L/C_Dist_300_LN_20_LD_25_RN_14_RD_28_0.png","img2/200/Congruent/L/C_Dist_200_LN_16_LD_30_RN_9_RD_27_0.png","img2/100/Congruent/L/C_Dist_100_LN_8_LD_16_RN_2_RD_5_0.png","img2/300/Congruent/R/C_Dist_300_LN_4_LD_20_RN_13_RD_26_1.png","img2/300/Incongruent/L/I_Dist_300_LN_1_LD_2_RN_2_RD_10_0.png","img2/100/Incongruent/L/I_Dist_100_LN_6_LD_10_RN_13_RD_26_0.png","img2/300/Incongruent/R/I_Dist_300_LN_13_LD_26_RN_12_RD_15_1.png","img2/100/Congruent/R/C_Dist_100_LN_6_LD_12_RN_15_RD_25_1.png","img2/200/Congruent/L/C_Dist_200_LN_6_LD_15_RN_3_RD_15_0.png","img2/200/Congruent/L/C_Dist_200_LN_16_LD_30_RN_9_RD_27_0.png","img2/300/Congruent/L/C_Dist_300_LN_9_LD_10_RN_3_RD_5_0.png","img2/100/Congruent/R/C_Dist_100_LN_7_LD_14_RN_15_RD_25_1.png","img2/100/Incongruent/L/I_Dist_100_LN_2_LD_4_RN_6_RD_15_0.png","img2/100/Incongruent/L/I_Dist_100_LN_3_LD_9_RN_7_RD_30_0.png","img2/300/Congruent/R/C_Dist_300_LN_7_LD_14_RN_20_RD_25_1.png","img2/100/Incongruent/L/I_Dist_100_LN_4_LD_8_RN_8_RD_20_0.png","img2/100/Congruent/L/C_Dist_100_LN_11_LD_22_RN_6_RD_15_0.png","img2/100/Congruent/R/C_Dist_100_LN_1_LD_2_RN_3_RD_5_1.png","img2/200/Congruent/R/C_Dist_200_LN_3_LD_10_RN_11_RD_22_1.png","img2/200/Congruent/L/C_Dist_200_LN_8_LD_15_RN_7_RD_21_0.png","img2/200/Congruent/L/C_Dist_200_LN_8_LD_15_RN_2_RD_6_0.png","img2/300/Congruent/L/C_Dist_300_LN_3_LD_6_RN_2_RD_10_0.png","img2/100/Congruent/L/C_Dist_100_LN_11_LD_22_RN_6_RD_15_0.png","img2/100/Congruent/L/C_Dist_100_LN_3_LD_6_RN_2_RD_5_0.png","img2/200/Incongruent/R/I_Dist_200_LN_7_LD_15_RN_6_RD_9_1.png","img2/200/Incongruent/L/I_Dist_200_LN_7_LD_10_RN_14_RD_28_0.png","img2/100/Incongruent/L/I_Dist_100_LN_3_LD_6_RN_4_RD_10_0.png","img2/100/Congruent/L/C_Dist_100_LN_10_LD_25_RN_3_RD_10_0.png","img2/300/Incongruent/L/I_Dist_300_LN_7_LD_10_RN_8_RD_20_0.png","img2/200/Incongruent/L/I_Dist_200_LN_7_LD_10_RN_8_RD_16_0.png","img2/300/Incongruent/L/I_Dist_300_LN_4_LD_5_RN_6_RD_12_0.png"],"dist100_C":[["C_Dist_100_LN_10_LD_25_RN_3_RD_10_0.png","C_Dist_100_LN_11_LD_22_RN_4_RD_10_0.png","C_Dist_100_LN_11_LD_22_RN_6_RD_15_0.png","C_Dist_100_LN_15_LD_25_RN_13_RD_26_0.png","C_Dist_100_LN_3_LD_6_RN_2_RD_5_0.png","C_Dist_100_LN_6_LD_20_RN_5_RD_25_0.png","C_Dist_100_LN_8_LD_16_RN_2_RD_5_0.png","C_Dist_100_LN_9_LD_15_RN_8_RD_16_0.png"],["C_Dist_100_LN_1_LD_2_RN_18_RD_30_1.png","C_Dist_100_LN_1_LD_2_RN_3_RD_5_1.png","C_Dist_100_LN_12_LD_30_RN_13_RD_26_1.png","C_Dist_100_LN_2_LD_5_RN_11_RD_22_1.png","C_Dist_100_LN_2_LD_5_RN_6_RD_12_1.png","C_Dist_100_LN_3_LD_20_RN_4_RD_16_1.png","C_Dist_100_LN_4_LD_10_RN_15_RD_30_1.png","C_Dist_100_LN_4_LD_8_RN_6_RD_10_1.png","C_Dist_100_LN_6_LD_12_RN_15_RD_25_1.png","C_Dist_100_LN_7_LD_14_RN_15_RD_25_1.png","C_Dist_100_LN_7_LD_14_RN_9_RD_15_1.png"]],"dist100_I":[["I_Dist_100_LN_1_LD_2_RN_8_RD_20_0.png","I_Dist_100_LN_2_LD_4_RN_6_RD_15_0.png","I_Dist_100_LN_2_LD_4_RN_8_RD_20_0.png","I_Dist_100_LN_3_LD_5_RN_11_RD_22_0.png","I_Dist_100_LN_3_LD_5_RN_8_RD_16_0.png","I_Dist_100_LN_3_LD_6_RN_4_RD_10_0.png","I_Dist_100_LN_3_LD_9_RN_7_RD_30_0.png","I_Dist_100_LN_4_LD_8_RN_8_RD_20_0.png","I_Dist_100_LN_6_LD_10_RN_11_RD_22_0.png","I_Dist_100_LN_6_LD_10_RN_13_RD_26_0.png","I_Dist_100_LN_6_LD_10_RN_7_RD_14_0.png","I_Dist_100_LN_9_LD_10_RN_20_RD_25_0.png","I_Dist_100_LN_9_LD_15_RN_13_RD_26_0.png","I_Dist_100_LN_9_LD_15_RN_14_RD_28_0.png"],["I_Dist_100_LN_10_LD_25_RN_8_RD_16_1.png","I_Dist_100_LN_10_LD_25_RN_9_RD_18_1.png","I_Dist_100_LN_11_LD_22_RN_9_RD_15_1.png","I_Dist_100_LN_12_LD_24_RN_9_RD_15_1.png","I_Dist_100_LN_12_LD_30_RN_2_RD_4_1.png","I_Dist_100_LN_13_LD_26_RN_12_RD_20_1.png","I_Dist_100_LN_13_LD_26_RN_6_RD_10_1.png","I_Dist_100_LN_17_LD_30_RN_10_RD_15_1.png","I_Dist_100_LN_6_LD_12_RN_3_RD_5_1.png","I_Dist_100_LN_8_LD_16_RN_6_RD_10_1.png","I_Dist_100_LN_8_LD_20_RN_1_RD_2_1.png","I_Dist_100_LN_9_LD_18_RN_6_RD_10_1.png"]],"dist100_S":[["E_Dist_100_LN_2_LD_12_RN_2_RD_30_0.png","E_Dist_100_LN_6_LD_10_RN_6_RD_12_0.png"],["E_Dist_100_LN_6_LD_12_RN_6_RD_10_1.png"]],"dist200_C":[["C_Dist_200_LN_11_LD_22_RN_3_RD_10_0.png","C_Dist_200_LN_12_LD_15_RN_6_RD_10_0.png","C_Dist_200_LN_12_LD_20_RN_6_RD_15_0.png","C_Dist_200_LN_14_LD_28_RN_6_RD_20_0.png","C_Dist_200_LN_15_LD_25_RN_4_RD_10_0.png","C_Dist_200_LN_16_LD_20_RN_12_RD_20_0.png","C_Dist_200_LN_16_LD_30_RN_9_RD_27_0.png","C_Dist_200_LN_20_LD_25_RN_9_RD_15_0.png","C_Dist_200_LN_21_LD_30_RN_2_RD_4_0.png","C_Dist_200_LN_4_LD_10_RN_3_RD_15_0.png","C_Dist_200_LN_4_LD_8_RN_3_RD_10_0.png","C_Dist_200_LN_6_LD_15_RN_3_RD_15_0.png","C_Dist_200_LN_7_LD_21_RN_2_RD_15_0.png","C_Dist_200_LN_8_LD_15_RN_2_RD_6_0.png","C_Dist_200_LN_8_LD_15_RN_3_RD_9_0.png","C_Dist_200_LN_8_LD_15_RN_7_RD_21_0.png","C_Dist_200_LN_9_LD_20_RN_4_RD_16_0.png"],["C_Dist_200_LN_1_LD_2_RN_21_RD_30_1.png","C_Dist_200_LN_13_LD_26_RN_14_RD_20_1.png","C_Dist_200_LN_3_LD_10_RN_11_RD_22_1.png","C_Dist_200_LN_3_LD_10_RN_14_RD_28_1.png","C_Dist_200_LN_3_LD_10_RN_7_RD_14_1.png","C_Dist_200_LN_3_LD_12_RN_9_RD_20_1.png","C_Dist_200_LN_3_LD_6_RN_14_RD_20_1.png","C_Dist_200_LN_5_LD_10_RN_14_RD_20_1.png","C_Dist_200_LN_6_LD_12_RN_7_RD_10_1.png","C_Dist_200_LN_6_LD_20_RN_11_RD_22_1.png","C_Dist_200_LN_7_LD_15_RN_18_RD_27_1.png","C_Dist_200_LN_9_LD_30_RN_13_RD_26_1.png"]],"dist200_I":[["I_Dist_200_LN_1_LD_2_RN_3_RD_10_0.png","I_Dist_200_LN_1_LD_3_RN_2_RD_15_0.png","I_Dist_200_LN_3_LD_4_RN_11_RD_20_0.png","I_Dist_200_LN_4_LD_5_RN_6_RD_10_0.png","I_Dist_200_LN_4_LD_6_RN_14_RD_30_0.png","I_Dist_200_LN_7_LD_10_RN_12_RD_24_0.png","I_Dist_200_LN_7_LD_10_RN_14_RD_28_0.png","I_Dist_200_LN_7_LD_10_RN_8_RD_16_0.png"],["I_Dist_200_LN_11_LD_20_RN_3_RD_4_1.png","I_Dist_200_LN_14_LD_30_RN_12_RD_18_1.png","I_Dist_200_LN_14_LD_30_RN_6_RD_9_1.png","I_Dist_200_LN_3_LD_10_RN_1_RD_2_1.png","I_Dist_200_LN_4_LD_30_RN_1_RD_3_1.png","I_Dist_200_LN_6_LD_20_RN_3_RD_6_1.png","I_Dist_200_LN_7_LD_15_RN_4_RD_6_1.png","I_Dist_200_LN_7_LD_15_RN_6_RD_9_1.png","I_Dist_200_LN_9_LD_15_RN_8_RD_10_1.png"]],"dist200_S":[["E_Dist_200_LN_3_LD_6_RN_3_RD_10_0.png"],["E_Dist_200_LN_3_LD_10_RN_3_RD_6_1.png"]],"dist300_C":[["C_Dist_300_LN_11_LD_22_RN_1_RD_5_0.png","C_Dist_300_LN_11_LD_22_RN_2_RD_10_0.png","C_Dist_300_LN_11_LD_22_RN_4_RD_20_0.png","C_Dist_300_LN_12_LD_24_RN_2_RD_10_0.png","C_Dist_300_LN_18_LD_20_RN_9_RD_15_0.png","C_Dist_300_LN_20_LD_25_RN_13_RD_26_0.png","C_Dist_300_LN_20_LD_25_RN_14_RD_28_0.png","C_Dist_300_LN_20_LD_25_RN_5_RD_10_0.png","C_Dist_300_LN_20_LD_25_RN_8_RD_16_0.png","C_Dist_300_LN_20_LD_25_RN_9_RD_18_0.png","C_Dist_300_LN_24_LD_30_RN_2_RD_4_0.png","C_Dist_300_LN_24_LD_30_RN_8_RD_16_0.png","C_Dist_300_LN_3_LD_6_RN_2_RD_10_0.png","C_Dist_300_LN_4_LD_10_RN_1_RD_10_0.png","C_Dist_300_LN_4_LD_5_RN_2_RD_4_0.png","C_Dist_300_LN_8_LD_16_RN_1_RD_5_0.png","C_Dist_300_LN_9_LD_10_RN_3_RD_5_0.png"],["C_Dist_300_LN_1_LD_20_RN_7_RD_20_1.png","C_Dist_300_LN_1_LD_3_RN_19_RD_30_1.png","C_Dist_300_LN_1_LD_30_RN_8_RD_24_1.png","C_Dist_300_LN_1_LD_5_RN_11_RD_22_1.png","C_Dist_300_LN_1_LD_5_RN_3_RD_6_1.png","C_Dist_300_LN_1_LD_5_RN_6_RD_12_1.png","C_Dist_300_LN_2_LD_10_RN_12_RD_24_1.png","C_Dist_300_LN_2_LD_20_RN_10_RD_25_1.png","C_Dist_300_LN_3_LD_12_RN_11_RD_20_1.png","C_Dist_300_LN_3_LD_6_RN_4_RD_5_1.png","C_Dist_300_LN_4_LD_20_RN_13_RD_26_1.png","C_Dist_300_LN_5_LD_25_RN_6_RD_12_1.png","C_Dist_300_LN_5_LD_25_RN_7_RD_14_1.png","C_Dist_300_LN_7_LD_14_RN_20_RD_25_1.png","C_Dist_300_LN_8_LD_15_RN_10_RD_12_1.png"]],"dist300_I":[["I_Dist_300_LN_1_LD_2_RN_2_RD_10_0.png","I_Dist_300_LN_1_LD_2_RN_3_RD_15_0.png","I_Dist_300_LN_2_LD_4_RN_6_RD_30_0.png","I_Dist_300_LN_3_LD_6_RN_4_RD_20_0.png","I_Dist_300_LN_4_LD_5_RN_6_RD_12_0.png","I_Dist_300_LN_4_LD_5_RN_8_RD_16_0.png","I_Dist_300_LN_7_LD_10_RN_8_RD_20_0.png","I_Dist_300_LN_8_LD_10_RN_14_RD_28_0.png","I_Dist_300_LN_8_LD_10_RN_9_RD_18_0.png"],["I_Dist_300_LN_13_LD_26_RN_12_RD_15_1.png","I_Dist_300_LN_4_LD_20_RN_2_RD_4_1.png"]],"dist300_S":[["E_Dist_300_LN_9_LD_12_RN_9_RD_20_0.png"],["E_Dist_300_LN_18_LD_30_RN_18_RD_20_1.png","E_Dist_300_LN_3_LD_10_RN_3_RD_5_1.png","E_Dist_300_LN_9_LD_20_RN_9_RD_12_1.png"]],"dist500_C":[["C_Dist_500_LN_10_LD_13_RN_7_RD_26_0.png","C_Dist_500_LN_10_LD_15_RN_4_RD_24_0.png","C_Dist_500_LN_12_LD_16_RN_3_RD_12_0.png","C_Dist_500_LN_12_LD_18_RN_4_RD_24_0.png","C_Dist_500_LN_15_LD_18_RN_5_RD_15_0.png","C_Dist_500_LN_15_LD_20_RN_1_RD_4_0.png","C_Dist_500_LN_18_LD_27_RN_1_RD_6_0.png","C_Dist_500_LN_20_LD_24_RN_1_RD_3_0.png","C_Dist_500_LN_20_LD_24_RN_3_RD_9_0.png","C_Dist_500_LN_20_LD_24_RN_7_RD_21_0.png","C_Dist_500_LN_20_LD_28_RN_3_RD_14_0.png","C_Dist_500_LN_21_LD_28_RN_6_RD_24_0.png","C_Dist_500_LN_22_LD_28_RN_2_RD_7_0.png","C_Dist_500_LN_25_LD_30_RN_9_RD_27_0.png","C_Dist_500_LN_4_LD_6_RN_1_RD_6_0.png","C_Dist_500_LN_5_LD_6_RN_2_RD_6_0.png","C_Dist_500_LN_6_LD_9_RN_1_RD_6_0.png","C_Dist_500_LN_7_LD_10_RN_1_RD_5_0.png","C_Dist_500_LN_8_LD_12_RN_1_RD_6_0.png","C_Dist_500_LN_8_LD_12_RN_4_RD_24_0.png"],["C_Dist_500_LN_1_LD_4_RN_12_RD_16_1.png","C_Dist_500_LN_1_LD_4_RN_9_RD_12_1.png","C_Dist_500_LN_1_LD_9_RN_11_RD_18_1.png","C_Dist_500_LN_10_LD_24_RN_22_RD_24_1.png","C_Dist_500_LN_2_LD_12_RN_10_RD_15_1.png","C_Dist_500_LN_2_LD_12_RN_12_RD_18_1.png","C_Dist_500_LN_2_LD_12_RN_4_RD_6_1.png","C_Dist_500_LN_2_LD_24_RN_7_RD_12_1.png","C_Dist_500_LN_2_LD_5_RN_18_RD_20_1.png","C_Dist_500_LN_2_LD_5_RN_9_RD_10_1.png","C_Dist_500_LN_2_LD_8_RN_12_RD_16_1.png","C_Dist_500_LN_2_LD_8_RN_21_RD_28_1.png","C_Dist_500_LN_3_LD_10_RN_4_RD_5_1.png","C_Dist_500_LN_3_LD_12_RN_15_RD_20_1.png","C_Dist_500_LN_3_LD_30_RN_6_RD_10_1.png","C_Dist_500_LN_3_LD_8_RN_14_RD_16_1.png","C_Dist_500_LN_4_LD_16_RN_15_RD_20_1.png","C_Dist_500_LN_4_LD_24_RN_12_RD_18_1.png","C_Dist_500_LN_5_LD_14_RN_6_RD_7_1.png","C_Dist_500_LN_7_LD_21_RN_20_RD_24_1.png","C_Dist_500_LN_7_LD_28_RN_12_RD_16_1.png","C_Dist_500_LN_7_LD_28_RN_9_RD_12_1.png","C_Dist_500_LN_9_LD_27_RN_20_RD_24_1.png"]],"dist500_I":[["I_Dist_500_LN_2_LD_3_RN_4_RD_24_0.png","I_Dist_500_LN_5_LD_6_RN_6_RD_18_0.png","I_Dist_500_LN_7_LD_8_RN_9_RD_24_0.png"],["I_Dist_500_LN_7_LD_21_RN_5_RD_6_1.png"]],"dist500_S":[["E_Dist_500_LN_6_LD_8_RN_6_RD_24_0.png"],["E_Dist_500_LN_2_LD_12_RN_2_RD_3_1.png","E_Dist_500_LN_6_LD_24_RN_6_RD_8_1.png"]]}},{"start_time":1551891520101,"click_time":1551891527215,"finger_time":1551891520214,"fix_duration":265.99625081405634,"trial":1,"RT":113,"MT":7001,"sideResp":2,"stimulus":[],"xmouse":[817,822,822,834,839,843,843,843,843,838,819,809,802,796,792,790,790,792,793,794,795,795,795,795,795,795,795,795,795,795,794,794,794,794,794,794,794,794,794,794,794,794,794,794,794,795,795,795,795,795,795,793,788,780,779,779,779,779,780,782,785,785,785,786,786,787,787,787,786,785,784,784,784,784,786,789,790,791,791,791,791,788,784,778,774,774,803,853,916,986,986,986,986,986,986,986,986,986,986,986,986,986,986,986,986,986,986,986,986,986,986,986,986,986,986,986,986,986,986,986,986,986,986,986,986,986,986,986,986,986,986,986,986,986,986,986,986,986,986,986,986,986,986,986,986,986,986,986,986,986,986,986,986,986,986,986,986,986,986,986,986,986,986,986,986,986,986,986,986,986,986,986,986,986,986,986,986,986,986,986,986,986,986,986,986,986,986,986,986,986,986,986,986,986,986,986,986,986,986,986,986,986,986,986,986,986,986,986,986,986,986,986,986,986,986,986,986,986,986,986,986,986,986,986,986,986,986,986,986,986,986,986,986,986,986,986,986,986,986,986,986,986,986,986,986,986,986,986,986,986,986,986,986,986,986,986,986,986,986,986,986,986,986,986,986,986,986,986,986,986,986,986,986,986,986,986,986,986,986,986,986,986,986,986,986,986,986,986,986,986,986,986,986,986,986,986,986,986,986,986,986,986,986,986,986,986,986,986,986,986,1319,1337,1370,1445,1469,1539,1539,1539,1539,1539,1539,1539,1539,1539,1539,1539,1577,1570,1559,1552,1501,1481,1460,1435,1413,1384,1381,1378,1373,1367,1346,1329,1317,1306,1295,1290,1276,1262,1249,1241,1226,1213,1199,1185,1166,1145],"ymouse":[630,630,630,638,641,644,644,644,644,641,635,632,631,631,631,631,632,633,633,633,633,633,633,633,633,633,635,637,638,639,640,640,640,640,640,640,640,642,644,647,655,658,661,665,668,670,670,670,670,670,665,659,648,631,628,622,617,615,615,615,615,615,615,615,615,618,622,625,627,628,629,629,629,627,626,626,626,626,626,628,634,638,643,647,656,668,714,752,797,841,841,841,841,841,841,841,841,841,841,841,841,841,841,841,841,841,841,841,841,841,841,841,841,841,841,841,841,841,841,841,841,841,841,841,841,841,841,841,841,841,841,841,841,841,841,841,841,841,841,841,841,841,841,841,841,841,841,841,841,841,841,841,841,841,841,841,841,841,841,841,841,841,841,841,841,841,841,841,841,841,841,841,841,841,841,841,841,841,841,841,841,841,841,841,841,841,841,841,841,841,841,841,841,841,841,841,841,841,841,841,841,841,841,841,841,841,841,841,841,841,841,841,841,841,841,841,841,841,841,841,841,841,841,841,841,841,841,841,841,841,841,841,841,841,841,841,841,841,841,841,841,841,841,841,841,841,841,841,841,841,841,841,841,841,841,841,841,841,841,841,841,841,841,841,841,841,841,841,841,841,841,841,841,841,841,841,841,841,841,841,841,841,841,841,841,841,841,841,841,841,841,841,841,841,841,841,841,841,841,841,841,841,841,841,841,841,841,841,841,841,882,865,833,752,719,607,607,607,607,607,607,607,607,607,607,607,16,11,6,4,0,0,0,0,0,0,0,3,7,14,32,40,46,51,53,53,53,50,44,42,35,32,28,25,23,23],"timestamp_mouse":[20,48,53,73,92,113,133,153,174,193,213,234,254,273,293,314,333,353,372,394,414,433,453,472,493,513,533,553,572,593,612,633,654,673,694,712,733,753,773,793,813,833,853,873,893,913,933,953,974,994,1013,1032,1053,1072,1093,1112,1133,1152,1174,1194,1213,1232,1253,1273,1293,1313,1332,1353,1372,1392,1414,1434,1453,1474,1492,1514,1532,1552,1574,1593,1613,1632,1653,1674,1693,1712,1734,1753,1772,1793,1813,1833,1852,1874,1894,1913,1932,1953,1974,1992,2014,2033,2053,2073,2094,2113,2133,2153,2173,2193,2213,2232,2252,2273,2294,2313,2333,2353,2373,2394,2413,2433,2453,2473,2494,2512,2533,2554,2573,2593,2613,2633,2654,2673,2692,2714,2733,2753,2773,2793,2814,2833,2853,2872,2893,2913,2932,2953,2972,2993,3013,3033,3053,3074,3094,3113,3133,3153,3172,3193,3213,3233,3253,3274,3293,3313,3334,3353,3373,3394,3413,3433,3452,3473,3493,3513,3533,3553,3572,3593,3614,3633,3653,3673,3693,3712,3732,3753,3774,3794,3812,3833,3853,3873,3893,3912,3933,3953,3973,3992,4012,4033,4053,4074,4093,4113,4132,4153,4174,4193,4213,4233,4253,4273,4292,4314,4334,4353,4373,4393,4413,4434,4453,4473,4492,4514,4534,4553,4574,4592,4614,4633,4653,4673,4693,4714,4732,4753,4774,4792,4812,4833,4852,4873,4894,4913,4934,4954,4973,4994,5013,5034,5052,5072,5093,5113,5134,5153,5172,5193,5213,5233,5253,5273,5294,5313,5333,5352,5372,5393,5413,5433,5453,5472,5493,5513,5532,5553,5573,5593,5613,5633,5654,5673,5693,5712,5732,5753,5773,5793,5813,5833,5854,5873,5893,5913,5933,5954,5974,5993,6014,6032,6053,6074,6093,6113,6134,6153,6173,6193,6214,6232,6252,6272,6293,6313,6334,6353,6373,6392,6413,6432,6453,6474,6493,6512,6532,6552,6573,6594,6613,6633,6653,6673,6693,6714,6732,6752,6774,6794,6813,6832,6853,6873,6894,6914,6933,6954,6973,6993,7013,7032,7054,7074,7093,7113],"xSR":741.5,"ySR":573.95,"xT1":424.9,"yT1":0,"xT2":1058.1,"yT2":0,"toosoon":0,"cond_shown":"Congruent","ratio_trial":200,"L_num":4,"L_den":10,"R_num":3,"R_den":15,"correct_side":1,"subjID":"MarianaFernandez16","gender":"1","school":"6","age":"11"},{"start_time":1551891531339,"click_time":1551891560334,"finger_time":1551891533714,"fix_duration":1444.8961498867511,"trial":2,"RT":2375,"MT":26620,"sideResp":2,"stimulus":[],"xmouse":[794,794,794,794,794,794,794,794,794,794,794,794,794,794,794,794,794,794,794,794,794,794,794,794,794,794,794,794,794,794,794,794,794,794,794,794,794,794,794,794,794,794,794,794,794,794,794,794,794,794,794,794,794,794,794,794,794,794,794,794,794,794,794,794,794,794,794,794,794,794,794,794,794,794,794,793,793,793,792,792,789,786,784,779,778,778,778,778,778,778,778,778,778,778,778,778,778,778,778,777,777,776,775,774,773,773,772,772,772,772,772,772,772,772,772,772,774,784,854,928,1012,1102,1184,1375,1441,1500,1552,1552,1552,1552,1552,1552,1552,1552,1552,1552,1552,1552,1552,1552,1552,1552,1552,1552,1552,1552,1552,1552,1552,1552,1552,1552,1552,1552,1552,1552,1552,1552,1552,1552,1552,1552,1552,1552,1552,1552,1552,1552,1552,1552,1552,1552,1552,1552,1552,1552,1552,1552,1552,1552,1552,1552,1552,1552,1552,1552,1552,1552,1552,1552,1552,1552,1552,1552,1552,1552,1552,1552,1552,1552,1552,1552,1552,1552,1552,1552,1552,1552,1552,1552,1552,1552,1552,1552,1552,1552,1552,1552,1552,1552,1552,1552,1552,1552,1552,1552,1552,1552,1552,1552,1552,1552,1552,1552,1552,1552,1552,1552,1552,1552,1552,1552,1552,1552,1552,1552,1552,1552,1552,1552,1552,1552,1552,1552,1552,1552,1552,1552,1552,1552,1552,1552,1552,1552,1552,1552,1552,1552,1552,1552,1552,1552,1552,1552,1552,1552,1552,1552,1552,1552,1552,1552,1552,1552,1552,1552,1552,1552,1552,1552,1552,1552,1552,1552,1552,1552,1552,1552,1552,1552,1552,1552,1552,1552,1552,1552,1552,1552,1552,1552,1552,1552,1552,1552,1552,1552,1552,1552,1552,1552,1552,1552,1552,1552,1552,1552,1552,1552,1552,1552,1552,1552,1552,1552,1552,1552,1552,1552,1552,1552,1552,1552,1552,1552,1552,1552,1552,1552,1552,1552,1552,1552,1552,1552,1552,1552,1552,1552,1552,1552,1552,1552,1552,1552,1552,1552,1552,1552,1552,1552,1552,1552,1552,1552,1552,1552,1552,1552,1552,1552,1552,1552,1552,1552,1552,1552,1552,1552,1552,1552,1552,1552,1552,1552,1552,1552,1552,1552,1552,1552,1552,1552,1552,1552,1552,1552,1552,1552,1552,1552,1552,1552,1552,1552,1552,1552,1552,1552,1552,1552,1552,1552,1552,1552,1552,1552,1552,1552,1552,1552,1552,1552,1552,1552,1552,1552,1552,1552,1552,1552,1552,1552,1552,1552,1552,1552,1552,1552,1552,1552,1552,1552,1552,1552,1552,1552,1552,1552,1552,1552,1552,1552,1552,1552,1552,1552,1552,1552,1552,1552,1552,1552,1552,1552,1552,1552,1552,1552,1552,1552,1552,1552,1552,1552,1552,1552,1552,1552,1552,1552,1552,1552,1552,1552,1552,1552,1552,1552,1552,1552,1552,1552,1552,1552,1552,1552,1552,1552,1552,1552,1552,1552,1552,1552,1552,1552,1552,1552,1552,1552,1552,1552,1552,1552,1552,1552,1552,1552,1552,1552,1552,1552,1552,1552,1552,1552,1552,1552,1552,1552,1552,1552,1552,1552,1552,1552,1552,1552,1552,1552,1552,1552,1552,1552,1552,1552,1552,1552,1552,1552,1552,1552,1552,1552,1552,1552,1552,1552,1552,1552,1552,1552,1552,1552,1552,1552,1552,1552,1552,1552,1552,1552,1552,1552,1552,1552,1552,1552,1552,1552,1552,1552,1552,1552,1552,1552,1552,1552,1552,1552,1552,1552,1552,1552,1552,1552,1552,1552,1552,1552,1552,1552,1552,1552,1552,1552,1552,1552,1552,1552,1552,1552,1552,1552,1552,1552,1552,1552,1552,1552,1552,1552,1552,1552,1552,1552,1552,1552,1552,1552,1552,1552,1552,1552,1552,1552,1552,1552,1552,1552,1552,1552,1552,1552,1552,1552,1552,1552,1552,1552,1552,1552,1552,1552,1552,1552,1552,1552,1552,1552,1552,1552,1552,1552,1552,1552,1552,1552,1552,1552,1552,1552,1552,1552,1552,1552,1552,1552,1552,1552,1552,1552,1552,1552,1552,1552,1552,1552,1552,1552,1552,1552,1552,1552,1552,1552,1552,1552,1552,1552,1552,1552,1552,1552,1552,1552,1552,1552,1552,1552,1552,1552,1552,1552,1552,1552,1552,1552,1552,1552,1552,1552,1552,1552,1552,1552,1552,1552,1552,1552,1552,1552,1552,1552,1552,1552,1552,1552,1552,1552,1552,1552,1552,1552,1552,1552,1552,1552,1552,1552,1552,1552,1552,1552,1552,1552,1552,1552,1552,1552,1552,1552,1552,1552,1552,1552,1552,1552,1552,1552,1552,1552,1552,1552,1552,1552,1552,1552,1552,1552,1552,1552,1552,1552,1552,1552,1552,1552,1552,1552,1552,1552,1552,1552,1552,1552,1552,1552,1552,1552,1552,1552,1552,1552,1552,1552,1552,1552,1552,1552,1552,1552,1552,1552,1552,1552,1552,1552,1552,1552,1552,1552,1552,1552,1552,1552,1552,1552,1552,1552,1552,1552,1552,1552,1552,1552,1552,1552,1552,1552,1552,1552,1552,1552,1552,1552,1552,1552,1552,1552,1552,1552,1552,1552,1552,1552,1552,1552,1552,1552,1552,1552,1552,1552,1552,1552,1552,1552,1552,1552,1552,1552,1552,1552,1552,1552,1552,1552,1552,1552,1552,1552,1552,1552,1552,1552,1552,1552,1552,1552,1552,1552,1552,1552,1552,1552,1552,1552,1552,1552,1552,1552,1552,1552,1552,1552,1552,1552,1552,1552,1552,1552,1552,1552,1552,1552,1552,1552,1552,1552,1552,1552,1552,1552,1552,1552,1552,1552,1552,1552,1552,1552,1552,1552,1552,1552,1552,1552,1552,1552,1552,1552,1552,1552,1552,1552,1552,1552,1552,1552,1552,1552,1552,1552,1552,1552,1552,1552,1552,1552,1552,1552,1552,1552,1552,1552,1552,1552,1552,1552,1552,1552,1552,1552,1552,1552,1552,1552,1552,1552,1552,1552,1552,1552,1552,1552,1552,1552,1552,1552,1552,1552,1552,1552,1552,1552,1552,1552,1552,1552,1552,1552,1552,1552,1552,1552,1552,1552,1552,1552,1552,1552,1552,1552,1552,1552,1552,1552,1552,1552,1552,1552,1552,1552,1552,1552,1552,1552,1552,1552,1552,1552,1552,1552,1552,1552,1552,1552,1552,1552,1552,1552,1552,1552,1552,1552,1552,1552,1552,1552,1552,1552,1552,1552,1552,1552,1552,1552,1552,1552,1552,1552,1552,1552,1552,1552,1552,1552,1552,1552,1552,1552,1552,1552,1552,1552,1552,1552,1552,1552,1552,1552,1552,1552,1552,1552,1552,1552,1552,1552,1552,1552,1552,1552,1552,1552,1552,1552,1552,1552,1552,1552,1552,1552,1552,1552,1552,1552,1552,1552,1552,1552,1552,1552,1552,1552,1552,1552,1552,1552,1552,1552,1552,1552,1552,1552,1552,1552,1552,1552,1552,1552,1552,1552,1552,1552,1552,1552,1552,1552,1552,1552,1552,1552,1552,1552,1552,1552,1552,1552,1552,1552,1552,1552,1552,1552,1552,1552,1552,1552,1552,1552,1552,1552,1552,1552,1552,1552,1552,1552,1552,1552,1552,1552,1552,1552,1552,1552,1552,1552,1552,1552,1552,1552,1552,1552,1552,1552,1552,1552,1552,1552,1552,1552,1552,1552,1552,1552,1552,1552,1552,1552,1552,1552,1552,1552,1552,1552,1552,1552,1552,1552,1552,1552,1552,1552,1552,1552,1552,1552,1552,1552,1552,1552,1552,1552,1552,1552,1552,1552,1552,1552,1552,1552,1552,1552,1552,1552,1552,1552,1552,1552,1552,1552,1552,1552,1552,1552,1552,1552,1552,1552,1552,1552,1552,1552,1552,1552,1552,1552,1552,1552,1552,1552,1552,1552,1552,1552,1552,1552,1552,1552,1552,1552,1552,1552,1552,1552,1552,1552,1552,1552,1552,1552,1552,1552,1552,1552,1552,1552,1552,1552,1552,1552,1552,1552,1552,1552,1552,1552,1552,1552,1552,1552,1552,1552,1552,1552,1552,1552,1552,1552,1552,1552,1552,1552,1552,1552,1552,1552,1552,1552,1552,1552,1503,1400,1219,1069,1073,1073,1073,1073,1073,1073,1073,1073,1073,1086,1086,1074,1063,1042,990,878,814,760,726,700,677,667,661,654,653,670,686,708,739,760,769,769,770,770,771,770,768,765,763,762,761,761,761,760,758,757,757,757,757,757,757,757,757,757,757,757,757,757,757,757,757,757,757,760,763,781,783,785,785,785,792,802,817,836,859,907,920,930,939,950,975,985,995,1004,1014,1058,1072,1081,1086,1090,1097,1103,1109,1115,1118,1121,1123,1123,1124,1124,1124,1124,1124,1123,1123,1122,1122,1121,1120,1114,1094,1089],"ymouse":[630,630,630,630,630,630,630,630,630,630,630,630,630,630,630,630,630,630,630,630,630,630,630,630,630,630,630,630,630,630,630,630,630,630,630,630,630,630,630,630,630,630,630,630,630,630,630,630,630,630,630,630,630,630,630,630,630,630,630,630,630,630,630,630,630,630,630,630,630,630,630,630,630,630,630,627,626,625,624,624,624,625,627,631,632,632,632,632,632,632,632,632,632,632,632,632,632,632,632,632,632,632,632,630,624,621,618,617,617,617,617,617,617,617,617,616,616,617,626,638,663,689,721,795,816,841,867,867,867,867,867,867,867,867,867,867,867,867,867,867,867,867,867,867,867,867,867,867,867,867,867,867,867,867,867,867,867,867,867,867,867,867,867,867,867,867,867,867,867,867,867,867,867,867,867,867,867,867,867,867,867,867,867,867,867,867,867,867,867,867,867,867,867,867,867,867,867,867,867,867,867,867,867,867,867,867,867,867,867,867,867,867,867,867,867,867,867,867,867,867,867,867,867,867,867,867,867,867,867,867,867,867,867,867,867,867,867,867,867,867,867,867,867,867,867,867,867,867,867,867,867,867,867,867,867,867,867,867,867,867,867,867,867,867,867,867,867,867,867,867,867,867,867,867,867,867,867,867,867,867,867,867,867,867,867,867,867,867,867,867,867,867,867,867,867,867,867,867,867,867,867,867,867,867,867,867,867,867,867,867,867,867,867,867,867,867,867,867,867,867,867,867,867,867,867,867,867,867,867,867,867,867,867,867,867,867,867,867,867,867,867,867,867,867,867,867,867,867,867,867,867,867,867,867,867,867,867,867,867,867,867,867,867,867,867,867,867,867,867,867,867,867,867,867,867,867,867,867,867,867,867,867,867,867,867,867,867,867,867,867,867,867,867,867,867,867,867,867,867,867,867,867,867,867,867,867,867,867,867,867,867,867,867,867,867,867,867,867,867,867,867,867,867,867,867,867,867,867,867,867,867,867,867,867,867,867,867,867,867,867,867,867,867,867,867,867,867,867,867,867,867,867,867,867,867,867,867,867,867,867,867,867,867,867,867,867,867,867,867,867,867,867,867,867,867,867,867,867,867,867,867,867,867,867,867,867,867,867,867,867,867,867,867,867,867,867,867,867,867,867,867,867,867,867,867,867,867,867,867,867,867,867,867,867,867,867,867,867,867,867,867,867,867,867,867,867,867,867,867,867,867,867,867,867,867,867,867,867,867,867,867,867,867,867,867,867,867,867,867,867,867,867,867,867,867,867,867,867,867,867,867,867,867,867,867,867,867,867,867,867,867,867,867,867,867,867,867,867,867,867,867,867,867,867,867,867,867,867,867,867,867,867,867,867,867,867,867,867,867,867,867,867,867,867,867,867,867,867,867,867,867,867,867,867,867,867,867,867,867,867,867,867,867,867,867,867,867,867,867,867,867,867,867,867,867,867,867,867,867,867,867,867,867,867,867,867,867,867,867,867,867,867,867,867,867,867,867,867,867,867,867,867,867,867,867,867,867,867,867,867,867,867,867,867,867,867,867,867,867,867,867,867,867,867,867,867,867,867,867,867,867,867,867,867,867,867,867,867,867,867,867,867,867,867,867,867,867,867,867,867,867,867,867,867,867,867,867,867,867,867,867,867,867,867,867,867,867,867,867,867,867,867,867,867,867,867,867,867,867,867,867,867,867,867,867,867,867,867,867,867,867,867,867,867,867,867,867,867,867,867,867,867,867,867,867,867,867,867,867,867,867,867,867,867,867,867,867,867,867,867,867,867,867,867,867,867,867,867,867,867,867,867,867,867,867,867,867,867,867,867,867,867,867,867,867,867,867,867,867,867,867,867,867,867,867,867,867,867,867,867,867,867,867,867,867,867,867,867,867,867,867,867,867,867,867,867,867,867,867,867,867,867,867,867,867,867,867,867,867,867,867,867,867,867,867,867,867,867,867,867,867,867,867,867,867,867,867,867,867,867,867,867,867,867,867,867,867,867,867,867,867,867,867,867,867,867,867,867,867,867,867,867,867,867,867,867,867,867,867,867,867,867,867,867,867,867,867,867,867,867,867,867,867,867,867,867,867,867,867,867,867,867,867,867,867,867,867,867,867,867,867,867,867,867,867,867,867,867,867,867,867,867,867,867,867,867,867,867,867,867,867,867,867,867,867,867,867,867,867,867,867,867,867,867,867,867,867,867,867,867,867,867,867,867,867,867,867,867,867,867,867,867,867,867,867,867,867,867,867,867,867,867,867,867,867,867,867,867,867,867,867,867,867,867,867,867,867,867,867,867,867,867,867,867,867,867,867,867,867,867,867,867,867,867,867,867,867,867,867,867,867,867,867,867,867,867,867,867,867,867,867,867,867,867,867,867,867,867,867,867,867,867,867,867,867,867,867,867,867,867,867,867,867,867,867,867,867,867,867,867,867,867,867,867,867,867,867,867,867,867,867,867,867,867,867,867,867,867,867,867,867,867,867,867,867,867,867,867,867,867,867,867,867,867,867,867,867,867,867,867,867,867,867,867,867,867,867,867,867,867,867,867,867,867,867,867,867,867,867,867,867,867,867,867,867,867,867,867,867,867,867,867,867,867,867,867,867,867,867,867,867,867,867,867,867,867,867,867,867,867,867,867,867,867,867,867,867,867,867,867,867,867,867,867,867,867,867,867,867,867,867,867,867,867,867,867,867,867,867,867,867,867,867,867,867,867,867,867,867,867,867,867,867,867,867,867,867,867,867,867,867,867,867,867,867,867,867,867,867,867,867,867,867,867,867,867,867,867,867,867,867,867,867,867,867,867,867,867,867,867,867,867,867,867,867,867,867,867,867,867,867,867,867,867,867,867,867,867,867,867,867,867,867,867,867,867,867,867,867,867,867,867,867,867,867,867,867,867,867,867,867,867,867,867,867,867,867,867,867,867,867,867,867,867,867,867,867,867,867,867,867,867,867,867,867,867,867,867,867,867,867,867,867,867,867,867,867,867,867,867,867,867,867,867,867,867,867,867,867,867,867,867,867,867,864,825,794,760,798,798,798,798,798,798,798,798,798,874,825,782,726,671,573,452,413,390,378,373,377,389,408,432,458,518,539,559,578,589,592,592,592,592,592,590,590,590,594,600,606,613,614,616,616,616,616,616,616,616,616,616,616,616,616,616,616,616,616,616,616,616,616,621,623,633,633,633,633,633,625,608,585,565,541,489,473,458,445,430,395,381,366,353,334,279,263,252,244,237,224,215,207,198,195,187,183,182,177,175,165,159,153,148,145,145,145,143,142,138,103,77],"timestamp_mouse":[14,39,55,76,96,114,136,155,175,195,215,235,255,274,296,316,335,356,375,395,416,436,455,475,494,516,536,554,576,595,616,635,655,675,694,716,735,755,776,794,816,835,855,875,896,916,934,956,975,995,1016,1035,1055,1075,1096,1115,1135,1154,1175,1195,1214,1235,1255,1275,1296,1316,1334,1355,1375,1395,1415,1435,1456,1476,1494,1514,1536,1555,1574,1594,1616,1634,1656,1675,1695,1716,1734,1756,1775,1794,1816,1834,1855,1876,1894,1916,1934,1956,1975,1995,2016,2036,2055,2075,2095,2116,2136,2154,2175,2195,2215,2234,2256,2275,2295,2315,2335,2356,2375,2395,2415,2435,2455,2475,2495,2515,2535,2555,2575,2596,2616,2635,2655,2675,2695,2716,2734,2756,2775,2795,2815,2834,2856,2875,2895,2914,2935,2955,2975,2995,3015,3035,3055,3075,3095,3116,3135,3156,3175,3195,3215,3235,3254,3275,3295,3315,3335,3355,3376,3396,3415,3434,3456,3475,3495,3516,3534,3556,3575,3594,3616,3636,3654,3676,3695,3715,3735,3755,3775,3795,3815,3835,3854,3875,3895,3915,3936,3955,3974,3994,4015,4034,4055,4076,4094,4115,4134,4154,4175,4195,4216,4235,4255,4275,4294,4315,4336,4354,4376,4394,4415,4434,4455,4476,4495,4515,4534,4556,4575,4595,4614,4636,4656,4675,4695,4714,4736,4756,4776,4794,4814,4835,4856,4875,4895,4916,4936,4956,4975,4995,5014,5035,5055,5076,5094,5114,5135,5156,5175,5196,5215,5236,5254,5276,5294,5315,5334,5356,5375,5396,5415,5436,5454,5475,5494,5516,5535,5554,5575,5595,5616,5635,5654,5675,5694,5714,5735,5756,5775,5796,5815,5835,5855,5875,5896,5915,5934,5954,5976,5995,6015,6034,6055,6075,6095,6114,6135,6155,6175,6195,6215,6235,6254,6275,6294,6315,6335,6355,6375,6395,6415,6435,6455,6474,6496,6515,6535,6554,6575,6595,6615,6634,6656,6675,6694,6714,6736,6754,6775,6796,6816,6835,6854,6875,6895,6915,6935,6955,6975,6996,7014,7035,7054,7076,7095,7116,7136,7155,7175,7195,7216,7235,7255,7275,7295,7315,7335,7355,7375,7395,7415,7435,7455,7476,7495,7516,7536,7554,7575,7596,7614,7634,7656,7675,7695,7714,7735,7755,7775,7796,7814,7835,7855,7876,7895,7914,7936,7955,7975,7995,8014,8036,8054,8076,8095,8116,8135,8156,8176,8194,8214,8235,8255,8276,8295,8315,8335,8356,8374,8395,8416,8436,8455,8475,8494,8515,8535,8554,8575,8595,8616,8636,8655,8675,8695,8716,8735,8755,8775,8796,8816,8835,8854,8875,8896,8915,8935,8956,8976,8995,9015,9036,9055,9076,9096,9115,9135,9155,9175,9195,9215,9235,9255,9275,9295,9315,9335,9354,9376,9395,9415,9434,9455,9475,9495,9515,9536,9555,9574,9596,9615,9635,9655,9674,9695,9715,9734,9755,9775,9794,9815,9835,9855,9875,9895,9916,9935,9955,9975,9994,10015,10035,10054,10076,10095,10116,10135,10155,10176,10194,10214,10235,10255,10275,10295,10315,10334,10355,10376,10395,10415,10435,10454,10475,10495,10515,10535,10554,10576,10595,10615,10635,10655,10675,10696,10714,10735,10756,10775,10795,10814,10835,10854,10875,10894,10915,10935,10954,10974,10996,11016,11035,11055,11075,11094,11116,11135,11154,11174,11195,11216,11235,11255,11274,11295,11316,11335,11354,11376,11394,11414,11434,11455,11475,11496,11514,11535,11556,11575,11594,11614,11635,11656,11676,11695,11714,11736,11756,11775,11794,11814,11835,11855,11876,11894,11915,11936,11954,11975,11995,12016,12034,12055,12076,12094,12114,12135,12156,12175,12195,12216,12234,12255,12275,12294,12315,12335,12355,12375,12395,12415,12435,12456,12476,12494,12514,12535,12555,12575,12594,12615,12635,12654,12675,12696,12715,12735,12754,12774,12795,12815,12835,12854,12876,12896,12914,12936,12955,12975,12996,13016,13035,13055,13076,13095,13115,13135,13156,13175,13195,13215,13236,13254,13276,13294,13315,13335,13354,13376,13395,13415,13436,13455,13475,13494,13515,13535,13555,13576,13594,13614,13635,13654,13674,13694,13715,13735,13756,13775,13794,13815,13835,13855,13875,13894,13916,13934,13955,13976,13996,14015,14036,14055,14075,14094,14116,14135,14155,14176,14196,14214,14236,14256,14275,14295,14315,14335,14356,14375,14395,14415,14435,14455,14474,14495,14516,14535,14555,14574,14594,14615,14636,14656,14676,14695,14715,14735,14754,14775,14795,14815,14835,14855,14874,14894,14915,14935,14956,14976,14995,15014,15035,15056,15076,15094,15115,15135,15155,15176,15194,15216,15234,15254,15274,15295,15315,15335,15355,15376,15395,15415,15436,15454,15476,15495,15515,15535,15555,15574,15594,15615,15635,15654,15676,15695,15715,15735,15755,15775,15794,15815,15835,15854,15875,15896,15915,15936,15955,15975,15996,16015,16035,16056,16075,16094,16114,16135,16156,16175,16194,16214,16236,16255,16276,16295,16315,16335,16356,16375,16395,16415,16435,16455,16474,16494,16515,16536,16555,16575,16595,16614,16635,16656,16675,16694,16715,16736,16755,16775,16796,16814,16835,16855,16875,16895,16914,16936,16956,16976,16994,17016,17035,17055,17074,17094,17115,17136,17155,17176,17194,17215,17235,17256,17275,17296,17315,17336,17354,17376,17396,17414,17434,17455,17475,17494,17516,17535,17554,17574,17595,17615,17635,17655,17676,17695,17716,17735,17755,17776,17795,17815,17836,17854,17875,17894,17914,17935,17955,17975,17995,18015,18035,18055,18076,18095,18114,18135,18156,18175,18196,18215,18235,18255,18274,18295,18315,18336,18355,18375,18396,18414,18435,18456,18475,18495,18516,18535,18556,18576,18595,18614,18636,18656,18675,18695,18715,18736,18755,18775,18794,18816,18835,18855,18874,18894,18915,18934,18955,18975,18996,19015,19035,19054,19075,19095,19115,19134,19156,19176,19194,19215,19236,19255,19275,19294,19314,19335,19354,19376,19395,19415,19435,19454,19476,19495,19515,19535,19554,19576,19596,19615,19634,19654,19676,19695,19716,19735,19755,19774,19795,19815,19835,19854,19875,19896,19914,19935,19955,19975,19995,20015,20036,20054,20076,20094,20115,20136,20154,20176,20195,20215,20235,20256,20276,20295,20314,20334,20355,20374,20394,20415,20435,20456,20475,20495,20516,20534,20555,20575,20596,20616,20635,20655,20675,20695,20715,20735,20754,20775,20795,20815,20834,20855,20875,20895,20915,20934,20955,20976,20996,21016,21035,21054,21075,21096,21115,21134,21156,21175,21195,21215,21235,21255,21275,21296,21315,21335,21354,21376,21395,21415,21434,21456,21475,21495,21516,21536,21554,21576,21596,21615,21636,21656,21675,21696,21715,21736,21755,21775,21794,21816,21835,21856,21874,21895,21915,21934,21955,21975,21996,22015,22035,22056,22075,22095,22116,22135,22154,22175,22194,22215,22235,22255,22276,22295,22315,22335,22355,22375,22395,22415,22434,22455,22475,22502,22515,22536,22556,22575,22594,22615,22636,22655,22674,22695,22716,22736,22755,22775,22796,22814,22836,22855,22874,22895,22915,22936,22954,22974,22996,23016,23034,23056,23075,23095,23115,23134,23155,23175,23196,23214,23234,23255,23275,23295,23316,23335,23356,23375,23395,23416,23436,23456,23475,23495,23515,23535,23554,23575,23595,23614,23634,23655,23675,23695,23715,23734,23754,23776,23796,23815,23835,23855,23875,23895,23915,23935,23954,23975,23995,24014,24035,24054,24076,24096,24114,24135,24156,24175,24196,24216,24234,24256,24275,24295,24316,24334,24356,24376,24394,24416,24435,24454,24475,24495,24514,24536,24554,24575,24595,24615,24636,24654,24676,24696,24715,24735,24754,24775,24796,24815,24835,24856,24875,24896,24915,24936,24954,24975,24995,25015,25036,25054,25076,25095,25115,25136,25155,25176,25194,25214,25234,25256,25275,25294,25315,25334,25355,25375,25395,25414,25435,25455,25475,25494,25516,25535,25554,25575,25595,25615,25634,25655,25675,25695,25714,25735,25755,25775,25796,25814,25835,25855,25875,25895,25916,25935,25956,25975,25995,26014,26035,26056,26074,26095,26115,26135,26156,26175,26194,26215,26235,26256,26274,26294,26315,26335,26354,26374,26394,26415,26434,26456,26475,26495,26515,26536,26555,26574,26595,26614,26634,26656,26675,26695,26716,26736,26756,26775,26794,26814,26834,26855,26875,26896,26915,26936,26956,26975,26994,27014,27035,27056,27074,27096,27115,27136,27156,27175,27196,27214,27235,27256,27275,27296,27315,27336,27356,27375,27395,27415,27434,27455,27475,27495,27516,27536,27555,27574,27595,27616,27635,27655,27675,27696,27714,27736,27755,27776,27794,27816,27835,27855,27875,27895,27915,27935,27955,27976,27995,28015,28034,28056,28075,28095,28116,28136,28155,28175,28194,28215,28236,28256,28275,28294,28315,28335,28356,28375,28394,28414,28436,28456,28475,28495,28515,28536,28554,28574,28596,28614,28636,28655,28675,28695,28715,28735,28756,28775,28795,28815,28835,28856,28874,28895,28916,28934,28955,28974,28995],"xSR":741.5,"ySR":573.95,"xT1":424.9,"yT1":0,"xT2":1058.1,"yT2":0,"toosoon":0,"cond_shown":"Incongruent","ratio_trial":100,"L_num":13,"L_den":26,"R_num":12,"R_den":20,"correct_side":2,"subjID":"MarianaFernandez16","gender":"1","school":"6","age":"11"},{"start_time":1551891565602,"click_time":1551891567033,"finger_time":1551891566434,"fix_duration":1387.9706052451343,"trial":3,"RT":832,"MT":599,"sideResp":2,"stimulus":[],"xmouse":[794,794,794,794,794,794,794,794,794,794,794,794,794,794,794,794,794,794,794,794,794,794,794,794,794,794,794,794,794,794,794,794,794,794,794,794,794,794,794,794,794,809,826,855,894,949,1048,1068,1088,1112,1114,1114,1114,1114,1114,1114,1112,1110,1106,1100,1091,1084,1077,1072,1065,1061,1061,1062,1064,1066,1071,1073],"ymouse":[620,620,620,620,620,620,620,620,620,620,620,620,620,620,620,620,620,620,620,620,620,620,620,620,620,620,620,620,620,620,620,620,620,620,620,620,620,620,620,619,614,571,532,472,408,339,250,240,227,215,213,212,212,210,208,202,198,195,190,181,169,160,146,138,118,108,106,104,103,102,100,99],"timestamp_mouse":[12,35,53,73,91,112,132,153,173,192,212,233,253,271,292,311,332,353,373,392,412,431,451,473,492,511,533,553,573,591,613,632,651,671,693,713,732,753,773,791,811,832,853,872,891,911,933,952,973,993,1012,1031,1052,1073,1093,1112,1131,1153,1173,1192,1212,1232,1252,1272,1293,1312,1333,1352,1372,1392,1411,1431],"xSR":741.5,"ySR":573.95,"xT1":424.9,"yT1":0,"xT2":1058.1,"yT2":0,"toosoon":0,"cond_shown":"Congruent","ratio_trial":100,"L_num":1,"L_den":2,"R_num":18,"R_den":30,"correct_side":2,"subjID":"MarianaFernandez16","gender":"1","school":"6","age":"11"},{"start_time":1551891572876,"click_time":1551891575014,"finger_time":1551891574395,"fix_duration":739.0536174732581,"trial":4,"RT":1519,"MT":619,"sideResp":1,"stimulus":[],"xmouse":[784,784,784,784,784,784,784,784,784,784,784,784,784,784,784,784,784,784,784,784,784,784,784,784,784,784,784,784,784,784,784,784,784,784,784,784,784,784,784,784,784,784,784,784,784,784,784,784,784,784,784,784,784,784,784,784,784,784,784,784,784,784,784,784,784,784,784,784,784,784,784,784,784,784,782,779,763,681,646,571,489,411,254,200,172,170,172,201,222,243,256,261,270,282,296,308,315,323,327,330,337,344,362,370,375,395,404,456],"ymouse":[629,629,629,629,629,629,629,629,629,629,629,629,629,629,629,629,629,629,629,629,629,629,629,629,629,629,629,629,629,629,629,629,629,629,629,629,629,629,629,629,629,629,629,629,629,629,629,629,629,629,629,629,629,629,629,629,629,629,629,629,629,629,629,629,629,629,629,629,629,629,629,629,629,629,606,583,498,342,288,230,166,99,0,0,0,0,0,6,15,24,30,33,38,45,53,60,64,67,67,67,67,67,67,67,67,67,67,67],"timestamp_mouse":[1,18,38,59,78,100,118,138,159,178,198,219,239,259,279,298,319,339,360,378,399,420,438,458,479,500,518,538,560,578,600,618,638,659,678,700,718,739,758,779,798,819,839,858,878,898,919,939,959,978,998,1019,1038,1059,1078,1100,1120,1139,1159,1178,1199,1219,1238,1258,1280,1298,1318,1339,1358,1378,1399,1418,1440,1458,1479,1498,1519,1538,1560,1578,1599,1620,1638,1659,1679,1699,1719,1739,1759,1780,1799,1819,1838,1858,1880,1899,1919,1940,1958,1979,2000,2019,2038,2059,2079,2098,2119,2138],"xSR":741.5,"ySR":573.95,"xT1":424.9,"yT1":0,"xT2":1058.1,"yT2":0,"toosoon":0,"cond_shown":"Incongruent","ratio_trial":300,"L_num":3,"L_den":6,"R_num":4,"R_den":20,"correct_side":1,"subjID":"MarianaFernandez16","gender":"1","school":"6","age":"11"},{"start_time":1551891577565,"click_time":1551891579055,"finger_time":1551891578835,"fix_duration":588.6549288718135,"trial":5,"RT":1270,"MT":220,"sideResp":2,"stimulus":[],"xmouse":[790,790,790,790,790,790,790,790,790,790,790,790,790,790,790,790,790,790,790,790,790,790,790,790,790,790,790,790,790,790,790,790,790,790,790,790,790,790,790,790,790,790,790,790,790,790,790,790,790,790,790,790,790,790,790,790,790,790,790,790,790,791,795,824,862,911,964,1053,1074,1083,1089,1094,1104,1110,1115],"ymouse":[629,629,629,629,629,629,629,629,629,629,629,629,629,629,629,629,629,629,629,629,629,629,629,629,629,629,629,629,629,629,629,629,629,629,629,629,629,629,629,629,629,629,629,629,629,629,629,629,629,629,629,629,629,629,629,629,629,629,629,629,629,623,617,556,487,401,310,175,147,133,127,125,120,107,97],"timestamp_mouse":[10,33,50,70,90,111,129,149,169,189,209,229,250,269,289,310,330,350,371,389,411,430,451,470,489,510,529,549,571,590,610,631,650,669,690,709,730,750,770,790,809,831,851,870,889,910,930,951,971,990,1009,1031,1049,1070,1090,1110,1131,1151,1170,1189,1211,1230,1249,1270,1290,1310,1330,1350,1369,1390,1409,1430,1450,1469,1489],"xSR":741.5,"ySR":573.95,"xT1":424.9,"yT1":0,"xT2":1058.1,"yT2":0,"toosoon":0,"cond_shown":"Incongruent","ratio_trial":100,"L_num":2,"L_den":4,"R_num":8,"R_den":20,"correct_side":1,"subjID":"MarianaFernandez16","gender":"1","school":"6","age":"11"},{"start_time":1551891587679,"click_time":1551891589895,"finger_time":1551891589215,"fix_duration":623.7672504391094,"trial":6,"RT":1536,"MT":680,"sideResp":1,"stimulus":[],"xmouse":[787,787,787,787,787,787,787,787,787,787,787,787,787,787,787,787,787,787,787,787,787,787,787,787,787,787,787,787,787,787,787,787,787,787,787,787,787,787,787,787,787,787,787,787,787,787,787,787,787,787,787,787,787,787,787,787,787,787,787,787,787,787,787,787,787,787,787,787,787,787,787,787,787,787,781,774,711,676,646,624,610,593,588,584,583,583,596,599,600,600,599,587,577,559,536,511,493,492,492,492,492,495,500,504,504,504,503,494,480,467,464],"ymouse":[616,616,616,616,616,616,616,616,616,616,616,616,616,616,616,616,616,616,616,616,616,616,616,616,616,616,616,616,616,616,616,616,616,616,616,616,616,616,616,616,616,616,616,616,616,616,616,616,616,616,616,616,616,616,616,616,616,616,616,616,616,616,616,616,616,616,616,616,616,616,616,616,616,616,614,605,538,505,478,455,435,400,382,358,337,319,272,253,236,216,200,173,162,155,148,144,138,137,136,136,136,133,133,130,129,126,116,109,104,100,98],"timestamp_mouse":[17,43,56,76,100,116,135,156,175,195,217,235,255,277,295,317,335,356,375,395,416,437,455,475,496,515,536,555,577,595,615,636,656,676,695,716,735,755,776,797,816,836,857,876,896,915,936,957,975,996,1016,1037,1055,1075,1096,1115,1135,1157,1175,1197,1216,1236,1255,1275,1296,1315,1335,1356,1377,1395,1416,1436,1455,1476,1496,1515,1536,1555,1577,1596,1616,1636,1655,1677,1695,1716,1735,1755,1775,1796,1815,1835,1856,1876,1895,1915,1935,1955,1976,1996,2015,2036,2055,2077,2095,2115,2135,2157,2175,2195,2215],"xSR":741.5,"ySR":573.95,"xT1":424.9,"yT1":0,"xT2":1058.1,"yT2":0,"toosoon":0,"cond_shown":"Incongruent","ratio_trial":200,"L_num":4,"L_den":5,"R_num":6,"R_den":10,"correct_side":1,"subjID":"MarianaFernandez16","gender":"1","school":"6","age":"11"},{"start_time":1551891593167,"click_time":1551891594314,"finger_time":1551891593855,"fix_duration":1310.9030068965217,"trial":7,"RT":688,"MT":459,"sideResp":2,"stimulus":[],"xmouse":[803,803,803,803,803,803,803,803,803,803,803,803,803,803,803,803,803,803,803,803,803,803,803,803,803,803,803,803,803,803,803,803,801,803,808,815,825,863,892,924,961,993,1024,1034,1034,1030,1028,1028,1028,1028,1028,1030,1032,1034,1036,1041,1047,1068],"ymouse":[629,629,629,629,629,629,629,629,629,629,629,629,629,629,629,629,629,629,629,629,629,629,629,629,629,629,629,629,629,629,629,629,616,591,559,520,484,381,330,277,224,166,0,0,0,0,0,0,0,0,2,5,7,8,10,17,24,41],"timestamp_mouse":[9,33,47,68,88,108,127,147,167,189,209,229,249,267,289,308,328,348,368,389,407,428,447,467,487,508,527,547,568,588,608,629,647,668,688,707,728,747,768,788,807,828,847,867,887,907,927,948,967,987,1008,1027,1047,1068,1089,1108,1129,1147],"xSR":741.5,"ySR":573.95,"xT1":424.9,"yT1":0,"xT2":1058.1,"yT2":0,"toosoon":0,"cond_shown":"Incongruent","ratio_trial":200,"L_num":11,"L_den":20,"R_num":3,"R_den":4,"correct_side":2,"subjID":"MarianaFernandez16","gender":"1","school":"6","age":"11"},{"start_time":1551891599407,"click_time":1551891600875,"finger_time":1551891600734,"fix_duration":891.8270193812458,"trial":8,"RT":1327,"MT":141,"sideResp":1,"stimulus":[],"xmouse":[811,811,811,811,811,811,811,811,811,811,811,811,811,811,811,811,811,811,811,811,811,811,811,811,811,811,811,811,811,811,811,811,811,811,811,811,811,811,811,811,811,811,811,811,811,811,811,811,811,811,811,811,811,811,811,811,811,811,811,811,811,811,811,800,789,762,684,626,559,503,453,440,442,456],"ymouse":[633,633,633,633,633,633,633,633,633,633,633,633,633,633,633,633,633,633,633,633,633,633,633,633,633,633,633,633,633,633,633,633,633,633,633,633,633,633,633,633,633,633,633,633,633,633,633,633,633,633,633,633,633,633,633,633,633,633,633,633,633,633,633,624,617,593,514,456,388,316,209,131,103,72],"timestamp_mouse":[12,38,48,68,88,107,128,148,168,187,208,227,248,268,288,307,327,347,368,388,407,427,448,468,488,507,527,547,568,589,607,628,649,669,688,709,727,748,768,788,809,827,849,869,887,907,927,948,969,988,1007,1028,1048,1068,1087,1107,1128,1149,1169,1187,1209,1228,1248,1268,1289,1308,1327,1347,1368,1388,1407,1428,1447,1468],"xSR":741.5,"ySR":573.95,"xT1":424.9,"yT1":0,"xT2":1058.1,"yT2":0,"toosoon":0,"cond_shown":"Incongruent","ratio_trial":300,"L_num":1,"L_den":2,"R_num":2,"R_den":10,"correct_side":1,"subjID":"MarianaFernandez16","gender":"1","school":"6","age":"11"},{"start_time":1551891607767,"click_time":1551891609135,"finger_time":1551891608595,"fix_duration":250,"trial":9,"RT":828,"MT":540,"sideResp":1,"stimulus":[],"xmouse":[794,794,794,794,794,794,794,794,794,794,794,794,794,794,794,794,794,794,794,794,794,794,794,794,794,794,794,794,794,794,794,794,794,794,794,794,794,794,794,794,792,780,740,721,710,706,704,704,704,703,703,701,692,685,673,659,651,649,645,640,635,626,616,615,610,597,583,538,511],"ymouse":[620,620,620,620,620,620,620,620,620,620,620,620,620,620,620,620,620,620,620,620,620,620,620,620,620,620,620,620,620,620,620,620,620,620,620,620,620,620,620,611,594,516,375,310,254,224,202,184,181,179,179,176,162,154,147,142,138,137,132,126,121,116,113,113,113,111,109,100,93],"timestamp_mouse":[8,37,48,68,88,107,129,147,168,188,209,228,247,268,287,308,327,347,367,387,409,429,448,469,489,508,529,547,567,588,609,628,647,669,688,707,728,748,768,788,808,828,848,867,887,908,927,947,967,988,1007,1028,1047,1069,1087,1109,1129,1147,1167,1188,1208,1228,1247,1268,1288,1308,1328,1347,1368],"xSR":741.5,"ySR":573.95,"xT1":424.9,"yT1":0,"xT2":1058.1,"yT2":0,"toosoon":0,"cond_shown":"Incongruent","ratio_trial":300,"L_num":4,"L_den":5,"R_num":6,"R_den":12,"correct_side":1,"subjID":"MarianaFernandez16","gender":"1","school":"6","age":"11"},{"start_time":1551891613480,"click_time":1551891618414,"finger_time":1551891616015,"fix_duration":924.8354806385399,"trial":10,"RT":2535,"MT":2399,"sideResp":1,"stimulus":[],"xmouse":[779,779,779,779,779,779,779,779,779,779,779,779,779,779,779,779,779,779,779,779,779,779,779,779,779,779,779,779,779,779,779,779,779,779,779,779,779,779,779,779,779,779,779,779,779,779,779,779,779,779,779,779,779,779,779,779,779,779,779,779,779,779,779,779,779,779,779,779,779,779,779,779,779,779,779,779,779,779,779,779,779,779,779,779,779,779,779,779,779,779,779,779,779,779,779,779,779,779,779,779,780,789,795,798,800,800,800,800,800,800,799,795,794,792,792,792,792,792,792,792,791,791,790,789,789,789,793,795,797,798,800,803,805,808,810,813,821,824,827,829,831,831,831,831,831,831,827,824,820,817,812,803,800,797,795,791,791,791,795,799,803,807,807,808,808,808,808,808,807,806,805,799,797,795,794,790,787,786,786,786,786,786,786,786,786,786,786,786,786,786,786,786,786,785,785,785,785,784,782,782,782,780,779,778,776,773,760,755,753,751,751,751,751,751,751,751,751,756,762,764,765,765,767,773,786,829,861,860,846,821,792,731,705,683,666,650,618,603,583,567,556,540,522,507,500,499,493],"ymouse":[615,615,615,615,615,615,615,615,615,615,615,615,615,615,615,615,615,615,615,615,615,615,615,615,615,615,615,615,615,615,615,615,615,615,615,615,615,615,615,615,615,615,615,615,615,615,615,615,615,615,615,615,615,615,615,615,615,615,615,615,615,615,615,615,615,615,615,615,615,615,615,615,615,615,615,615,615,615,615,615,615,615,615,615,615,615,615,615,615,615,615,615,615,615,615,615,615,615,615,615,616,618,619,619,620,620,620,620,620,620,620,620,620,620,620,620,620,620,620,620,620,625,631,637,646,657,690,703,715,726,736,756,765,773,781,789,807,812,816,819,821,822,822,822,822,822,818,813,809,805,799,788,782,778,772,762,751,745,735,725,713,703,700,696,692,687,678,675,673,668,666,657,653,648,646,641,635,631,629,627,625,623,622,621,621,621,620,620,620,620,616,612,609,608,608,608,608,608,608,608,608,610,610,611,611,612,614,614,614,614,614,614,614,614,614,614,618,633,641,643,644,644,644,625,598,535,473,455,433,405,370,304,283,267,253,240,214,204,189,177,166,144,127,114,107,103,82],"timestamp_mouse":[14,34,55,74,96,114,134,154,174,194,215,234,254,274,295,315,335,354,376,396,415,434,454,475,494,516,534,556,574,595,614,635,654,674,694,715,735,754,774,796,814,836,856,875,895,915,936,956,975,995,1016,1034,1054,1074,1096,1115,1136,1155,1175,1195,1215,1235,1255,1275,1296,1314,1334,1356,1375,1395,1414,1435,1454,1474,1495,1515,1534,1555,1574,1594,1615,1634,1656,1674,1695,1714,1734,1755,1776,1795,1815,1836,1854,1874,1895,1914,1935,1956,1975,1995,2015,2034,2054,2075,2094,2114,2134,2154,2175,2194,2215,2235,2255,2275,2295,2315,2336,2354,2376,2394,2414,2435,2456,2476,2494,2514,2535,2554,2576,2596,2615,2635,2656,2674,2695,2714,2734,2755,2774,2794,2816,2835,2854,2874,2894,2915,2934,2955,2974,2996,3015,3034,3055,3075,3094,3114,3134,3154,3175,3195,3214,3234,3255,3274,3295,3315,3334,3354,3375,3395,3414,3434,3455,3476,3494,3515,3534,3556,3574,3594,3615,3634,3656,3675,3695,3714,3735,3756,3775,3795,3814,3834,3856,3874,3894,3914,3935,3954,3975,3995,4015,4035,4054,4075,4096,4116,4135,4155,4174,4195,4214,4234,4255,4275,4294,4314,4334,4355,4376,4394,4415,4435,4455,4475,4494,4514,4535,4554,4574,4595,4615,4634,4654,4675,4694,4714,4734,4755,4775,4794,4815,4835,4855,4875,4894,4915,4934],"xSR":741.5,"ySR":573.95,"xT1":424.9,"yT1":0,"xT2":1058.1,"yT2":0,"toosoon":0,"cond_shown":"Incongruent","ratio_trial":200,"L_num":4,"L_den":30,"R_num":1,"R_den":3,"correct_side":2,"subjID":"MarianaFernandez16","gender":"1","school":"6","age":"11"},{"start_time":1551891658703,"click_time":1551891660313,"finger_time":1551891659513,"fix_duration":1447.7580753028637,"trial":11,"RT":810,"MT":800,"sideResp":2,"stimulus":[],"xmouse":[775,775,775,775,775,775,775,775,775,775,775,775,775,775,775,775,775,775,775,775,775,775,775,775,775,775,775,775,775,775,775,775,775,775,775,775,775,775,785,809,946,994,1021,1036,1047,1061,1070,1078,1085,1091,1095,1095,1095,1095,1093,1090,1090,1087,1084,1082,1081,1081,1081,1080,1080,1080,1080,1080,1078,1076,1072,1071,1069,1066,1061,1058,1058,1058,1058,1058,1060],"ymouse":[611,611,611,611,611,611,611,611,611,611,611,611,611,611,611,611,611,611,611,611,611,611,611,611,611,611,611,611,611,611,611,611,611,611,611,611,611,611,608,602,566,549,532,517,498,469,452,433,413,391,348,325,309,295,273,204,184,166,153,146,144,143,142,142,142,142,142,142,139,134,121,115,110,106,100,93,92,90,89,89,87],"timestamp_mouse":[11,44,50,70,90,111,130,151,172,192,211,232,250,271,291,312,330,350,370,390,412,430,452,471,491,511,530,550,571,591,611,632,650,671,691,710,730,751,772,791,810,830,852,871,890,910,930,951,970,991,1012,1030,1051,1072,1092,1110,1130,1152,1171,1192,1211,1230,1250,1271,1290,1310,1330,1350,1371,1391,1411,1432,1450,1470,1490,1510,1532,1551,1572,1591,1610],"xSR":741.5,"ySR":573.95,"xT1":424.9,"yT1":0,"xT2":1058.1,"yT2":0,"toosoon":0,"cond_shown":"Incongruent","ratio_trial":300,"L_num":13,"L_den":26,"R_num":12,"R_den":15,"correct_side":2,"subjID":"MarianaFernandez16","gender":"1","school":"6","age":"11"},{"start_time":1551891664495,"click_time":1551891667034,"finger_time":1551891665974,"fix_duration":1180.4663953765892,"trial":12,"RT":1479,"MT":1060,"sideResp":1,"stimulus":[],"xmouse":[787,787,787,787,787,787,787,787,787,787,787,787,787,787,787,787,787,787,787,787,787,787,787,787,787,787,787,787,787,787,787,787,787,787,787,787,787,787,787,787,787,787,787,787,787,787,787,787,787,787,787,787,787,787,787,787,787,787,787,787,787,787,787,787,787,787,787,787,787,787,789,793,800,803,817,829,840,840,841,843,845,846,846,846,846,846,846,846,846,846,846,845,841,825,816,702,618,527,453,426,401,396,395,391,388,375,370,367,365,363,363,363,363,363,363,372,378,386,393,398,403,406,409,412,413,423,425],"ymouse":[625,625,625,625,625,625,625,625,625,625,625,625,625,625,625,625,625,625,625,625,625,625,625,625,625,625,625,625,625,625,625,625,625,625,625,625,625,625,625,625,625,625,625,625,625,625,625,625,625,625,625,625,625,625,625,625,625,625,625,625,625,625,625,625,625,625,625,625,625,622,611,597,581,570,541,521,495,491,488,484,463,458,455,453,453,453,453,453,453,453,453,453,453,453,451,405,382,343,318,315,311,309,308,297,282,237,216,199,180,165,145,138,132,129,126,116,110,106,102,99,96,95,94,93,93,92,92],"timestamp_mouse":[18,39,66,79,98,120,138,159,179,199,219,239,259,278,299,319,338,360,379,400,418,440,459,480,499,519,538,559,579,598,618,638,658,680,699,718,739,760,778,799,818,839,860,878,900,920,939,959,979,998,1019,1039,1058,1080,1099,1119,1140,1159,1180,1198,1219,1240,1258,1280,1298,1318,1340,1360,1379,1398,1418,1440,1458,1479,1500,1519,1539,1558,1580,1599,1619,1639,1659,1678,1699,1719,1738,1758,1778,1800,1818,1839,1859,1880,1898,1918,1938,1959,1980,1999,2019,2039,2059,2079,2098,2118,2140,2159,2178,2199,2219,2238,2258,2280,2299,2318,2339,2360,2379,2399,2419,2440,2458,2478,2499,2519,2539],"xSR":741.5,"ySR":573.95,"xT1":424.9,"yT1":0,"xT2":1058.1,"yT2":0,"toosoon":0,"cond_shown":"Congruent","ratio_trial":300,"L_num":2,"L_den":20,"R_num":10,"R_den":25,"correct_side":2,"subjID":"MarianaFernandez16","gender":"1","school":"6","age":"11"},{"start_time":1551891672237,"click_time":1551891673173,"finger_time":1551891672855,"fix_duration":1462.615123621021,"trial":13,"RT":618,"MT":318,"sideResp":2,"stimulus":[],"xmouse":[793,793,793,793,793,793,793,793,793,793,793,793,793,793,793,793,793,793,793,793,793,793,793,793,793,793,794,794,797,807,816,830,844,874,943,981,990,1003,1021,1035,1041,1042,1046,1052,1054,1056,1059],"ymouse":[607,607,607,607,607,607,607,607,607,607,607,607,607,607,607,607,607,607,607,607,607,607,607,607,607,606,604,602,596,579,562,537,500,433,303,232,216,193,168,154,148,141,130,116,108,101,91],"timestamp_mouse":[17,37,57,77,96,117,138,157,176,197,217,236,256,276,298,316,336,358,377,397,417,437,456,476,498,516,536,556,576,597,618,637,658,676,696,716,736,757,776,796,816,837,858,877,897,916,936],"xSR":741.5,"ySR":573.95,"xT1":424.9,"yT1":0,"xT2":1058.1,"yT2":0,"toosoon":0,"cond_shown":"Congruent","ratio_trial":200,"L_num":13,"L_den":26,"R_num":14,"R_den":20,"correct_side":2,"subjID":"MarianaFernandez16","gender":"1","school":"6","age":"11"},{"start_time":1551891678570,"click_time":1551891680613,"finger_time":1551891680013,"fix_duration":1333.4723057401247,"trial":14,"RT":1443,"MT":600,"sideResp":1,"stimulus":[],"xmouse":[786,786,786,786,786,786,786,786,786,786,786,786,786,786,786,786,786,786,786,786,786,786,786,786,786,786,786,786,786,786,786,786,786,786,786,786,786,786,786,786,786,786,786,786,786,786,786,786,786,786,786,786,786,786,786,786,786,786,786,786,786,786,786,786,786,786,786,786,786,786,787,786,775,761,745,724,695,640,632,629,626,623,603,589,576,565,557,551,551,553,553,553,552,552,551,551,549,544,541,535,532,528,514],"ymouse":[607,607,607,607,607,607,607,607,607,607,607,607,607,607,607,607,607,607,607,607,607,607,607,607,607,607,607,607,607,607,607,607,607,607,607,607,607,607,607,607,607,607,607,607,607,607,607,607,607,607,607,607,607,607,607,607,607,607,607,607,607,607,607,607,607,607,607,607,607,607,604,592,500,460,434,407,387,362,358,355,352,348,320,301,282,264,245,205,185,171,165,161,155,154,151,149,143,134,128,121,116,109,94],"timestamp_mouse":[9,24,43,65,83,103,125,143,164,183,203,225,243,264,283,305,323,343,364,383,404,423,443,464,483,504,523,545,564,583,605,623,644,663,685,703,724,745,765,784,803,824,844,864,883,904,924,944,963,985,1004,1023,1045,1063,1084,1105,1123,1143,1163,1185,1203,1223,1243,1265,1283,1303,1323,1344,1363,1383,1404,1424,1443,1464,1483,1503,1523,1543,1564,1583,1603,1623,1643,1664,1683,1703,1723,1744,1765,1784,1805,1823,1843,1863,1883,1904,1925,1943,1965,1984,2003,2023,2043],"xSR":741.5,"ySR":573.95,"xT1":424.9,"yT1":0,"xT2":1058.1,"yT2":0,"toosoon":0,"cond_shown":"Congruent","ratio_trial":200,"L_num":8,"L_den":15,"R_num":3,"R_den":9,"correct_side":1,"subjID":"MarianaFernandez16","gender":"1","school":"6","age":"11"},{"start_time":1551891682555,"click_time":1551891683893,"finger_time":1551891683395,"fix_duration":560.2105667742521,"trial":15,"RT":840,"MT":498,"sideResp":2,"stimulus":[],"xmouse":[796,796,796,796,796,796,796,796,796,796,796,796,796,796,796,796,796,796,796,796,796,796,796,796,796,796,796,796,796,796,796,796,796,796,796,796,797,802,808,815,829,833,865,888,913,939,963,1000,1011,1023,1037,1040,1052,1052,1053,1054,1054,1054,1054,1054,1054,1054,1054,1054,1055,1056,1059],"ymouse":[630,630,630,630,630,630,630,630,630,630,630,630,630,630,630,630,630,630,630,630,630,630,630,630,630,630,630,630,630,630,630,630,630,630,630,630,627,620,613,602,579,572,510,456,384,325,273,210,184,159,121,109,71,66,64,62,61,61,61,61,61,61,61,61,61,61,61],"timestamp_mouse":[20,39,59,78,99,120,138,158,179,198,219,238,259,280,298,318,339,360,379,400,419,439,460,479,499,520,538,560,578,599,619,640,659,679,698,720,739,759,778,799,820,840,858,882,898,920,940,959,978,998,1018,1039,1058,1080,1100,1118,1138,1159,1179,1199,1220,1239,1259,1279,1298,1319,1338],"xSR":741.5,"ySR":573.95,"xT1":424.9,"yT1":0,"xT2":1058.1,"yT2":0,"toosoon":0,"cond_shown":"Incongruent","ratio_trial":200,"L_num":7,"L_den":10,"R_num":8,"R_den":16,"correct_side":1,"subjID":"MarianaFernandez16","gender":"1","school":"6","age":"11"},{"start_time":1551891686080,"click_time":1551891687213,"finger_time":1551891686813,"fix_duration":1064.0156932141986,"trial":16,"RT":733,"MT":400,"sideResp":1,"stimulus":[],"xmouse":[790,790,790,790,790,790,790,790,790,790,790,790,790,790,790,789,787,787,787,787,787,787,787,787,787,787,787,787,787,787,787,787,787,785,780,772,734,698,653,608,573,552,549,551,556,562,570,572,573,573,573,569,564,555,544,527,473],"ymouse":[647,647,647,647,647,647,647,647,647,647,647,647,647,647,646,644,636,635,635,635,635,635,635,635,635,635,635,635,635,635,635,635,635,633,629,621,557,491,411,326,250,184,135,118,105,95,76,72,66,62,58,53,50,49,46,45,44],"timestamp_mouse":[14,33,53,75,93,113,133,153,174,193,214,233,254,273,294,313,333,354,374,394,415,434,455,473,495,514,534,553,574,595,614,634,654,673,695,714,733,754,773,793,814,833,855,873,894,915,934,955,973,993,1014,1034,1054,1074,1094,1115,1133],"xSR":741.5,"ySR":573.95,"xT1":424.9,"yT1":0,"xT2":1058.1,"yT2":0,"toosoon":0,"cond_shown":"Congruent","ratio_trial":300,"L_num":11,"L_den":22,"R_num":2,"R_den":10,"correct_side":1,"subjID":"MarianaFernandez16","gender":"1","school":"6","age":"11"},{"start_time":1551891699666,"click_time":1551891700813,"finger_time":1551891700413,"fix_duration":851.7600319680447,"trial":17,"RT":747,"MT":400,"sideResp":1,"stimulus":[],"xmouse":[804,804,804,804,804,804,804,803,802,802,801,800,795,793,788,785,783,775,770,767,765,765,765,765,765,765,765,765,765,765,765,765,765,765,764,763,763,763,761,761,747,731,687,673,672,672,672,670,646,622,596,571,541,536,534,527,518,487],"ymouse":[649,649,649,649,649,649,648,648,647,647,647,647,647,646,642,640,638,631,628,626,626,626,626,626,626,626,626,626,626,626,626,626,626,625,622,606,580,455,351,248,135,19,0,0,0,0,0,0,0,0,0,0,0,0,0,0,0,8],"timestamp_mouse":[9,28,63,68,88,107,127,148,168,187,207,228,248,268,288,307,327,347,367,387,409,427,448,468,487,509,527,547,568,587,608,627,649,668,688,709,727,747,767,787,807,827,847,867,887,908,928,948,967,987,1007,1028,1047,1068,1088,1108,1129,1147],"xSR":741.5,"ySR":573.95,"xT1":424.9,"yT1":0,"xT2":1058.1,"yT2":0,"toosoon":0,"cond_shown":"Congruent","ratio_trial":200,"L_num":12,"L_den":15,"R_num":6,"R_den":10,"correct_side":1,"subjID":"MarianaFernandez16","gender":"1","school":"6","age":"11"},{"start_time":1551891703377,"click_time":1551891705153,"finger_time":1551891704995,"fix_duration":462.4841159980736,"trial":18,"RT":1618,"MT":158,"sideResp":2,"stimulus":[],"xmouse":[800,800,800,800,800,799,798,797,797,797,797,797,797,797,797,797,797,797,797,797,797,797,797,797,797,797,797,797,797,797,797,797,797,797,797,797,797,797,797,797,797,797,797,797,797,797,797,797,797,797,797,797,797,797,797,797,797,797,797,797,797,797,797,797,797,797,797,797,797,797,797,797,797,797,797,797,797,797,798,803,844,914,937,960,989,1024,1047,1070,1072],"ymouse":[628,628,628,628,628,628,628,628,628,628,628,628,628,628,628,628,628,628,628,628,628,628,628,628,628,628,628,628,628,628,628,628,628,628,628,628,628,628,628,628,628,628,628,628,628,628,628,628,628,628,628,628,628,628,628,628,628,628,628,628,628,628,628,628,628,628,628,628,628,628,628,628,628,628,628,628,628,628,619,609,556,469,422,365,308,249,202,115,93],"timestamp_mouse":[17,38,56,77,97,116,137,157,177,197,216,236,257,278,297,317,338,356,376,396,417,436,457,476,497,516,537,557,578,596,616,636,657,677,696,716,738,756,776,798,818,836,858,876,897,918,937,957,976,997,1018,1036,1057,1078,1096,1118,1138,1156,1176,1197,1216,1237,1257,1276,1297,1316,1337,1356,1378,1398,1416,1438,1456,1476,1497,1518,1537,1558,1576,1597,1618,1636,1656,1676,1698,1716,1737,1757,1776],"xSR":741.5,"ySR":573.95,"xT1":424.9,"yT1":0,"xT2":1058.1,"yT2":0,"toosoon":0,"cond_shown":"Incongruent","ratio_trial":100,"L_num":12,"L_den":24,"R_num":9,"R_den":15,"correct_side":2,"subjID":"MarianaFernandez16","gender":"1","school":"6","age":"11"},{"start_time":1551891710746,"click_time":1551891712554,"finger_time":1551891711654,"fix_duration":250,"trial":19,"RT":908,"MT":900,"sideResp":2,"stimulus":[],"xmouse":[802,802,802,802,802,802,802,802,802,802,802,802,802,802,802,802,802,802,802,802,802,802,802,802,802,802,802,802,802,802,802,802,802,802,802,802,802,802,802,802,802,802,802,802,818,845,887,923,945,946,932,924,907,874,874,879,883,888,897,904,914,923,935,959,964,970,978,987,1000,1001,1001,1001,1001,1001,1002,1007,1010,1012,1015,1019,1025,1039,1044,1045,1046,1046,1046,1046,1050,1054,1060],"ymouse":[635,635,635,635,635,635,635,635,632,629,627,626,625,625,625,625,625,625,625,625,625,625,625,625,625,625,625,625,625,625,625,625,625,625,625,625,625,625,625,625,625,625,625,620,607,589,558,520,453,414,333,303,238,76,56,40,29,23,17,15,12,9,7,0,0,0,0,0,0,0,0,0,0,0,0,0,0,0,1,4,6,11,14,15,15,15,15,15,16,18,19],"timestamp_mouse":[8,40,48,68,89,107,129,148,167,189,208,228,248,269,287,308,329,348,367,389,407,427,448,467,488,507,529,548,569,587,607,629,647,668,689,707,728,747,768,787,808,827,848,867,888,908,927,948,968,989,1009,1027,1047,1068,1087,1107,1127,1147,1167,1188,1209,1227,1247,1267,1287,1307,1327,1347,1367,1387,1409,1429,1448,1468,1488,1508,1528,1547,1568,1588,1608,1629,1649,1668,1689,1708,1727,1748,1769,1788,1807],"xSR":741.5,"ySR":573.95,"xT1":424.9,"yT1":0,"xT2":1058.1,"yT2":0,"toosoon":0,"cond_shown":"Congruent","ratio_trial":200,"L_num":3,"L_den":10,"R_num":7,"R_den":14,"correct_side":2,"subjID":"MarianaFernandez16","gender":"1","school":"6","age":"11"},{"start_time":1551891715093,"click_time":1551891716814,"finger_time":1551891716414,"fix_duration":438.3502057642753,"trial":20,"RT":1321,"MT":400,"sideResp":2,"stimulus":[],"xmouse":[777,777,777,777,777,777,777,777,777,777,777,777,777,777,778,778,780,783,785,789,792,797,799,800,802,802,802,802,802,802,802,802,802,802,802,802,802,802,802,802,802,802,802,802,802,802,802,802,802,802,802,802,802,802,802,802,802,802,802,802,802,802,802,807,811,826,856,870,886,902,915,936,947,958,965,978,995,1002,1007,1013,1017,1029,1034,1041,1048,1054,1065],"ymouse":[629,629,629,629,629,629,629,629,629,629,629,629,629,628,628,628,628,628,628,630,632,636,636,637,638,638,638,638,638,638,638,638,638,638,638,638,638,638,638,638,638,638,638,638,638,638,638,638,638,638,638,638,638,638,638,638,638,638,638,638,638,638,638,634,629,609,554,519,481,446,411,348,310,272,246,217,188,178,171,163,156,141,135,125,113,103,66],"timestamp_mouse":[9,21,48,62,81,101,121,142,161,181,201,221,242,262,282,301,321,341,362,381,401,421,442,461,481,501,521,541,562,581,602,621,642,662,682,701,723,742,761,782,801,821,842,863,882,902,921,941,962,982,1001,1022,1042,1062,1081,1102,1122,1142,1162,1181,1201,1222,1242,1262,1282,1301,1321,1341,1361,1382,1401,1421,1441,1461,1482,1501,1521,1541,1561,1581,1602,1621,1643,1661,1681,1702,1721],"xSR":741.5,"ySR":573.95,"xT1":424.9,"yT1":0,"xT2":1058.1,"yT2":0,"toosoon":0,"cond_shown":"Incongruent","ratio_trial":200,"L_num":7,"L_den":15,"R_num":6,"R_den":9,"correct_side":2,"subjID":"MarianaFernandez16","gender":"1","school":"6","age":"11"},{"start_time":1551891719854,"click_time":1551891721914,"finger_time":1551891721314,"fix_duration":638.2815502480581,"trial":21,"RT":1460,"MT":600,"sideResp":2,"stimulus":[],"xmouse":[791,791,791,791,791,791,791,791,791,791,791,791,791,791,791,791,791,791,791,791,791,791,791,791,791,791,791,791,791,791,791,791,791,791,791,791,791,791,791,791,791,791,791,791,791,791,791,791,791,791,791,791,791,791,791,791,791,791,791,791,791,791,791,791,791,791,791,791,793,799,804,813,823,857,876,892,910,925,944,950,952,954,957,967,972,980,986,990,1000,1006,1011,1015,1018,1022,1026,1030,1035,1043,1045,1046,1048,1051,1056,1066],"ymouse":[611,611,611,611,611,611,611,611,611,611,611,611,611,611,611,611,611,611,611,611,611,611,611,611,611,611,611,611,611,611,611,611,611,611,611,611,611,611,611,611,611,611,611,611,611,611,611,611,611,611,611,611,611,611,611,611,611,611,611,611,611,611,611,611,611,611,611,611,611,610,608,605,599,580,565,550,530,509,460,444,427,408,387,321,283,233,177,121,4,0,0,0,0,0,0,0,0,0,0,0,0,0,0,7],"timestamp_mouse":[8,20,43,61,81,101,122,140,160,180,200,220,241,261,280,300,320,340,361,381,400,420,440,460,481,500,520,541,560,581,600,622,641,660,680,700,720,740,760,780,800,820,841,860,880,901,920,940,962,980,1001,1021,1041,1061,1081,1101,1121,1141,1161,1180,1200,1220,1241,1261,1282,1301,1321,1340,1360,1381,1400,1421,1442,1460,1480,1500,1521,1541,1560,1580,1601,1621,1640,1660,1680,1701,1721,1741,1761,1780,1800,1820,1841,1860,1880,1901,1920,1940,1960,1980,2000,2020,2041,2060],"xSR":741.5,"ySR":573.95,"xT1":424.9,"yT1":0,"xT2":1058.1,"yT2":0,"toosoon":0,"cond_shown":"Congruent","ratio_trial":100,"L_num":3,"L_den":20,"R_num":4,"R_den":16,"correct_side":2,"subjID":"MarianaFernandez16","gender":"1","school":"6","age":"11"},{"start_time":1551891726571,"click_time":1551891728535,"finger_time":1551891728334,"fix_duration":1254.5687446192985,"trial":22,"RT":1763,"MT":201,"sideResp":2,"stimulus":[],"xmouse":[790,790,790,790,790,790,790,790,790,790,790,790,790,790,790,790,790,790,790,790,790,790,790,790,790,790,790,790,790,790,790,790,790,790,790,790,790,790,790,790,790,790,790,790,790,790,790,790,790,790,790,790,790,790,790,790,790,790,790,790,790,790,790,790,790,790,790,790,790,790,790,790,790,790,790,790,790,790,790,790,790,790,790,790,790,791,795,811,859,885,902,923,983,1005,1028,1047,1070,1109,1125],"ymouse":[609,609,609,609,609,609,609,609,609,609,609,609,609,609,609,609,609,609,609,609,609,609,609,609,609,609,609,609,609,609,609,609,609,609,609,609,609,609,609,609,609,609,609,609,609,609,609,609,609,609,609,609,609,609,609,609,609,609,609,609,609,609,609,609,609,609,609,609,609,609,609,609,609,609,609,609,609,609,609,609,609,609,609,609,609,609,608,597,562,535,507,466,341,295,253,219,175,101,73],"timestamp_mouse":[9,24,43,64,83,103,123,143,163,184,204,223,244,263,283,303,323,344,364,384,404,423,444,463,483,504,523,543,563,584,603,624,643,664,683,703,723,743,764,784,803,823,844,864,883,903,924,943,963,984,1003,1023,1045,1064,1083,1103,1123,1144,1164,1184,1204,1223,1243,1264,1284,1303,1324,1343,1363,1383,1403,1424,1445,1464,1484,1504,1523,1543,1563,1583,1603,1624,1644,1664,1683,1704,1724,1743,1763,1783,1803,1823,1843,1863,1883,1904,1925,1943,1964],"xSR":741.5,"ySR":573.95,"xT1":424.9,"yT1":0,"xT2":1058.1,"yT2":0,"toosoon":0,"cond_shown":"Incongruent","ratio_trial":100,"L_num":4,"L_den":8,"R_num":8,"R_den":20,"correct_side":1,"subjID":"MarianaFernandez16","gender":"1","school":"6","age":"11"},{"start_time":1551891733153,"click_time":1551891746614,"finger_time":1551891744115,"fix_duration":1256.8004293466568,"trial":23,"RT":10962,"MT":2499,"sideResp":2,"stimulus":[],"xmouse":[790,790,790,790,790,790,790,790,790,790,790,790,790,790,790,790,790,790,790,790,790,790,790,790,790,790,790,790,790,790,790,790,790,790,790,790,790,790,790,790,790,790,790,790,790,790,790,790,790,790,790,790,790,790,790,790,790,790,790,790,790,790,790,790,790,790,790,790,790,790,790,790,790,790,790,790,790,790,790,790,790,790,790,790,790,790,790,790,790,790,790,790,790,790,790,790,790,790,790,790,790,790,790,790,790,790,790,790,790,790,790,790,790,790,790,790,790,790,790,790,790,790,790,790,790,790,790,790,790,790,790,790,790,790,790,790,790,790,790,790,790,790,790,790,790,790,790,790,790,790,790,790,790,790,790,790,790,790,790,790,790,790,790,790,790,790,790,790,790,790,790,790,790,790,790,790,790,790,790,790,790,790,790,790,790,790,790,790,790,790,790,790,790,790,790,790,790,790,790,790,790,790,790,790,790,790,790,790,790,790,790,790,790,790,790,790,790,790,790,790,790,790,790,790,790,790,790,790,790,790,790,790,790,790,790,790,790,790,790,790,790,790,790,790,790,790,790,790,790,790,790,790,790,790,790,790,790,790,790,790,790,790,790,790,790,790,790,790,790,790,790,790,790,790,790,790,790,790,790,790,790,790,790,790,790,790,790,790,790,790,790,790,790,790,790,790,790,790,790,790,790,790,790,790,790,790,790,790,790,790,790,790,790,790,790,790,790,790,790,790,790,790,790,790,790,790,790,790,790,790,790,789,788,788,788,788,788,788,788,788,788,788,788,788,788,788,788,788,788,787,786,785,784,783,782,780,780,780,779,779,778,778,778,778,778,778,778,778,778,778,778,778,778,778,778,778,778,778,778,778,778,778,779,781,781,783,784,784,787,788,789,790,791,793,793,793,794,794,794,794,795,795,795,795,794,789,783,777,768,759,752,751,751,755,758,763,767,772,778,778,779,779,779,779,779,779,779,779,779,779,779,779,779,779,779,779,779,779,779,779,779,779,779,779,779,779,779,779,779,779,779,779,781,781,781,781,781,781,781,781,781,781,781,781,781,781,781,781,781,781,781,781,781,781,781,781,782,783,784,785,785,786,786,788,788,788,788,788,788,788,788,788,788,788,788,788,788,788,788,788,788,788,788,788,788,788,788,788,788,788,788,788,788,789,789,792,792,792,792,792,792,792,792,792,792,792,792,792,792,792,792,792,792,792,792,792,792,792,792,792,792,792,792,792,792,793,791,789,783,781,779,777,777,777,777,778,779,780,781,783,784,787,788,799,802,805,807,808,809,809,809,810,810,811,811,811,811,811,801,784,764,740,711,668,663,662,662,678,726,772,834,906,976,1097,1117,1125,1125,1114,1052,1001,938,881,814,681,656,649,651,678,753,779,779,779,779,779,779,779,779,830,837,838,838,838,838,822,810,795,785,782,795,815,832,855,880,963,991,1013,1024,1029,1029,1030,1030,1030,1032,1039,1042,1042,1008,967,831,760,692,630,627,650,706,777,848,910,990,1011,1029,1045,1064,1086,1098,1110,1120,1125,1127,1121,1115,1111,1108,1101],"ymouse":[663,663,663,663,663,663,663,663,663,663,663,663,663,663,663,663,663,663,663,663,663,663,663,663,663,663,663,663,663,663,663,663,663,663,663,663,663,663,663,663,663,663,663,663,663,663,663,663,663,663,663,663,663,663,663,663,663,663,663,663,663,663,663,663,663,663,663,663,663,663,663,663,663,663,663,663,663,663,663,663,663,663,663,663,663,663,663,663,663,663,663,663,663,663,663,663,663,663,663,663,663,663,663,663,663,663,663,663,663,663,663,663,663,663,663,663,663,663,663,663,663,663,663,663,663,663,663,663,663,663,663,663,663,663,663,663,663,663,663,663,663,663,663,663,663,663,663,663,663,663,663,663,663,663,663,663,663,663,663,663,663,663,663,663,663,663,663,663,663,663,663,663,663,663,663,663,663,663,663,663,663,663,663,663,663,663,663,663,663,663,663,663,663,663,663,663,663,663,663,663,663,663,663,663,663,663,663,663,663,663,663,663,663,663,663,663,663,663,663,663,663,663,663,663,663,663,663,663,663,663,663,663,663,663,663,663,663,663,663,663,663,663,663,663,663,663,663,663,663,663,663,663,663,663,663,663,663,663,663,663,663,663,663,663,663,663,663,663,663,663,663,663,663,663,663,663,663,663,663,663,663,663,663,663,663,663,663,663,663,663,663,663,663,663,663,663,663,663,663,663,663,663,663,663,663,663,663,663,663,663,663,663,663,663,663,663,663,663,663,663,663,663,663,663,663,663,663,663,663,663,663,663,662,662,662,661,661,661,661,661,661,657,656,653,652,651,650,648,647,644,643,641,638,632,629,625,622,618,615,613,611,609,608,606,606,606,606,606,606,606,606,606,606,606,606,606,606,606,606,606,606,605,605,605,605,605,605,606,606,607,608,609,610,613,614,615,616,617,617,618,619,620,621,623,624,624,624,624,622,614,603,596,591,585,585,585,585,585,586,587,588,589,592,594,594,595,595,595,595,595,595,595,595,595,595,595,595,595,595,595,595,595,596,596,596,596,596,596,596,596,596,596,596,596,596,596,596,596,596,596,596,596,596,596,596,596,596,596,596,596,596,596,596,596,596,596,596,596,597,597,597,597,597,598,598,598,598,598,598,598,598,598,598,598,598,598,598,598,598,598,598,598,598,598,598,598,598,598,598,598,598,598,598,598,598,598,598,598,598,598,598,598,598,598,598,598,598,598,598,598,598,598,598,598,598,598,598,598,598,598,598,598,598,598,598,595,588,577,553,540,525,510,495,468,461,456,452,449,442,438,432,422,417,392,384,378,372,370,365,365,363,361,359,353,350,347,346,345,344,344,344,344,344,344,343,342,337,328,302,283,265,251,242,248,255,264,275,287,332,361,394,428,457,513,530,549,576,636,773,837,837,837,837,837,837,837,837,875,857,849,844,838,828,783,757,722,677,619,474,401,339,299,278,258,253,245,240,236,230,214,202,188,173,127,66,4,0,0,0,0,0,0,0,68,137,200,252,295,327,328,326,318,300,262,241,221,206,194,183,162,148,133,112,89],"timestamp_mouse":[8,34,41,61,82,102,121,142,161,182,202,222,242,263,282,302,321,341,361,383,402,422,441,461,482,501,521,543,561,581,601,621,641,662,681,701,721,743,761,782,801,822,842,863,881,901,921,941,961,982,1001,1022,1041,1061,1081,1103,1121,1142,1161,1181,1202,1222,1241,1263,1281,1302,1322,1342,1362,1382,1401,1422,1442,1462,1482,1501,1521,1542,1561,1581,1601,1623,1641,1662,1682,1702,1722,1742,1762,1781,1801,1821,1842,1861,1883,1902,1922,1942,1961,1982,2002,2022,2042,2061,2081,2102,2122,2142,2162,2182,2201,2222,2242,2262,2283,2302,2322,2342,2361,2382,2402,2421,2441,2461,2482,2501,2522,2541,2562,2581,2601,2621,2642,2661,2683,2702,2722,2742,2762,2781,2801,2821,2842,2862,2881,2901,2922,2941,2961,2982,3001,3021,3042,3061,3081,3101,3122,3141,3162,3181,3202,3222,3241,3262,3281,3301,3322,3342,3361,3382,3401,3421,3442,3461,3482,3501,3522,3543,3562,3582,3601,3622,3641,3661,3683,3702,3721,3741,3762,3781,3802,3821,3841,3863,3881,3901,3921,3943,3962,3982,4002,4022,4041,4062,4081,4102,4122,4141,4161,4182,4202,4222,4241,4261,4282,4301,4322,4343,4362,4382,4401,4421,4442,4462,4482,4502,4521,4542,4562,4581,4602,4623,4642,4662,4681,4702,4722,4742,4761,4782,4801,4822,4841,4862,4882,4901,4921,4942,4962,4981,5002,5022,5042,5062,5082,5102,5121,5141,5162,5182,5201,5221,5242,5262,5283,5302,5322,5342,5361,5382,5402,5421,5442,5463,5481,5501,5522,5543,5561,5582,5602,5622,5643,5661,5682,5702,5721,5742,5761,5781,5801,5821,5842,5862,5882,5902,5921,5942,5962,5982,6001,6023,6042,6062,6081,6101,6121,6141,6162,6182,6201,6222,6241,6262,6281,6301,6322,6341,6361,6381,6403,6422,6441,6462,6481,6503,6522,6541,6562,6581,6601,6622,6641,6661,6682,6703,6721,6743,6762,6783,6801,6821,6842,6861,6882,6901,6921,6942,6961,6981,7001,7021,7042,7061,7081,7102,7121,7142,7161,7181,7203,7221,7241,7262,7282,7301,7323,7341,7361,7382,7401,7421,7441,7461,7482,7502,7521,7541,7561,7581,7601,7621,7642,7662,7681,7701,7723,7741,7761,7781,7802,7821,7843,7861,7881,7902,7922,7941,7963,7981,8001,8021,8042,8061,8082,8102,8122,8141,8161,8182,8201,8222,8241,8261,8281,8301,8321,8342,8361,8381,8402,8423,8441,8461,8482,8502,8522,8541,8561,8583,8601,8621,8641,8662,8681,8701,8722,8741,8762,8781,8801,8822,8843,8861,8881,8901,8921,8942,8961,8981,9001,9021,9043,9061,9082,9101,9122,9141,9161,9182,9201,9223,9242,9262,9282,9301,9322,9341,9361,9381,9401,9422,9443,9463,9482,9502,9521,9541,9561,9581,9601,9621,9643,9662,9681,9701,9721,9741,9761,9782,9801,9823,9842,9861,9882,9902,9923,9941,9962,9982,10001,10021,10041,10062,10083,10102,10121,10141,10161,10181,10201,10221,10241,10261,10281,10301,10323,10341,10362,10381,10401,10422,10442,10461,10482,10502,10522,10541,10561,10583,10602,10622,10642,10661,10681,10701,10721,10741,10762,10781,10802,10821,10842,10861,10882,10903,10921,10942,10962,10981,11001,11022,11041,11062,11081,11101,11121,11141,11161,11181,11201,11221,11242,11262,11282,11301,11322,11341,11361,11382,11402,11422,11442,11461,11481,11501,11522,11542,11561,11581,11602,11621,11642,11661,11682,11701,11723,11741,11761,11781,11801,11821,11842,11861,11881,11901,11922,11942,11961,11981,12002,12021,12042,12061,12082,12101,12122,12142,12161,12182,12202,12221,12242,12261,12281,12302,12322,12341,12361,12382,12401,12421,12442,12461,12481,12502,12521,12542,12561,12582,12601,12622,12642,12661,12682,12701,12722,12742,12761,12782,12802,12822,12841,12861,12881,12902,12921,12942,12962,12981,13001,13021,13042,13061,13081,13101,13122,13142,13162,13181,13201,13221,13241,13262,13281,13303,13321,13341,13361,13382,13402,13422,13441,13461],"xSR":741.5,"ySR":573.95,"xT1":424.9,"yT1":0,"xT2":1058.1,"yT2":0,"toosoon":0,"cond_shown":"Incongruent","ratio_trial":100,"L_num":10,"L_den":25,"R_num":9,"R_den":18,"correct_side":2,"subjID":"MarianaFernandez16","gender":"1","school":"6","age":"11"},{"start_time":1551891749865,"click_time":1551891751414,"finger_time":1551891750835,"fix_duration":450.0373541439191,"trial":24,"RT":970,"MT":579,"sideResp":2,"stimulus":[],"xmouse":[823,824,825,828,829,830,830,830,830,830,830,830,830,830,830,830,830,830,830,830,830,830,830,830,830,830,830,830,830,830,830,830,830,830,830,830,829,828,828,828,828,828,828,828,828,828,827,828,843,854,865,873,879,886,893,898,903,920,928,939,949,955,965,973,984,997,1011,1017,1023,1026,1030,1035,1039,1047,1048,1052,1057,1065],"ymouse":[631,631,632,634,634,634,634,634,634,634,634,634,634,634,634,634,634,634,634,634,634,634,634,634,634,634,634,634,634,634,634,634,634,634,634,634,634,635,635,635,635,635,635,635,635,635,635,627,610,603,596,578,525,424,382,351,314,252,226,202,182,164,128,112,97,87,77,75,73,72,71,71,70,69,69,69,69,69],"timestamp_mouse":[10,30,49,69,90,110,130,151,169,190,209,230,249,269,289,310,329,349,370,390,410,429,449,469,491,510,530,551,570,590,609,629,649,669,689,709,731,750,769,789,809,829,849,869,889,909,930,949,970,989,1009,1029,1049,1069,1089,1109,1129,1149,1170,1189,1210,1229,1249,1269,1290,1309,1329,1349,1370,1389,1410,1429,1449,1469,1489,1510,1530,1549],"xSR":741.5,"ySR":573.95,"xT1":424.9,"yT1":0,"xT2":1058.1,"yT2":0,"toosoon":0,"cond_shown":"Congruent","ratio_trial":200,"L_num":1,"L_den":2,"R_num":21,"R_den":30,"correct_side":2,"subjID":"MarianaFernandez16","gender":"1","school":"6","age":"11"},{"start_time":1551891753884,"click_time":1551891755134,"finger_time":1551891754695,"fix_duration":469.4223031466854,"trial":25,"RT":811,"MT":439,"sideResp":1,"stimulus":[],"xmouse":[789,789,789,789,789,789,789,789,789,789,789,789,789,789,789,789,789,789,789,789,789,789,789,789,789,789,789,789,789,789,789,789,789,789,789,789,789,789,786,777,756,668,624,587,555,523,483,472,461,451,441,433,430,427,426,426,426,426,432,438,448,461,462],"ymouse":[624,624,614,608,601,600,596,596,596,596,596,596,596,596,596,596,596,596,596,596,596,596,596,596,596,596,596,596,596,596,596,596,596,596,596,596,596,596,593,584,558,454,400,357,318,275,208,187,170,154,140,124,119,116,114,112,109,108,105,104,102,100,99],"timestamp_mouse":[10,31,50,71,90,110,130,151,170,190,211,230,250,271,290,310,330,350,370,390,411,430,450,471,490,510,530,551,570,590,610,632,651,670,690,711,730,750,770,790,811,830,850,870,891,910,930,950,970,991,1012,1030,1050,1071,1091,1111,1130,1151,1170,1191,1210,1230,1250],"xSR":741.5,"ySR":573.95,"xT1":424.9,"yT1":0,"xT2":1058.1,"yT2":0,"toosoon":0,"cond_shown":"Incongruent","ratio_trial":300,"L_num":4,"L_den":5,"R_num":6,"R_den":12,"correct_side":1,"subjID":"MarianaFernandez16","gender":"1","school":"6","age":"11"},{"start_time":1551891759862,"click_time":1551891762015,"finger_time":1551891761335,"fix_duration":327.5375832608807,"trial":26,"RT":1473,"MT":680,"sideResp":1,"stimulus":[],"xmouse":[801,801,801,801,801,800,800,799,799,799,799,799,799,799,799,799,799,799,799,799,799,799,799,799,799,799,799,799,799,799,799,799,799,799,799,799,799,799,799,799,799,799,799,799,799,799,799,799,799,799,799,799,799,799,799,799,799,799,799,799,799,799,799,799,799,799,799,799,799,799,799,799,788,761,712,640,553,424,338,321,313,309,308,308,308,308,308,308,308,310,318,330,363,376,385,389,393,396,398,401,405,407,413,415,417,419,421,428],"ymouse":[632,632,632,632,630,629,628,628,628,628,628,628,628,628,628,628,628,628,628,628,628,628,628,628,628,628,628,628,628,628,628,628,628,628,628,628,628,628,628,628,628,628,628,628,628,628,628,628,628,628,628,628,628,628,628,628,628,628,628,628,628,628,628,628,628,628,628,628,628,628,628,626,601,551,478,378,263,89,0,0,0,0,0,0,0,0,0,0,0,0,0,1,18,27,33,37,40,45,46,48,51,52,55,56,57,58,58,60],"timestamp_mouse":[14,35,53,72,92,113,134,152,173,192,213,233,252,272,293,312,332,353,372,392,412,432,452,473,493,512,533,552,572,592,612,632,652,672,692,713,732,752,773,794,812,833,852,873,893,912,933,954,972,993,1013,1034,1052,1073,1093,1113,1133,1152,1173,1192,1212,1233,1252,1272,1292,1313,1332,1352,1373,1393,1414,1432,1452,1473,1492,1512,1532,1552,1572,1592,1612,1633,1653,1672,1692,1712,1732,1753,1773,1792,1813,1834,1853,1872,1894,1913,1933,1952,1973,1993,2012,2033,2052,2072,2092,2112,2132,2153],"xSR":741.5,"ySR":573.95,"xT1":424.9,"yT1":0,"xT2":1058.1,"yT2":0,"toosoon":0,"cond_shown":"Congruent","ratio_trial":200,"L_num":9,"L_den":20,"R_num":4,"R_den":16,"correct_side":1,"subjID":"MarianaFernandez16","gender":"1","school":"6","age":"11"},{"start_time":1551891765128,"click_time":1551891766314,"finger_time":1551891766075,"fix_duration":591.2036561338545,"trial":27,"RT":947,"MT":239,"sideResp":2,"stimulus":[],"xmouse":[775,775,775,775,775,775,775,775,775,775,775,775,775,775,775,775,775,775,775,775,775,775,775,775,775,775,775,775,775,775,775,775,775,775,775,775,775,775,775,775,775,775,777,783,800,815,835,852,875,961,1002,1041,1088,1107,1129,1133,1136,1136,1136,1120],"ymouse":[637,637,637,637,637,637,637,637,637,637,637,637,637,637,637,637,637,637,637,637,637,637,637,637,637,637,637,637,637,637,637,637,637,637,637,637,637,637,637,637,637,637,633,627,611,598,580,560,535,473,446,417,375,350,290,255,215,172,131,49],"timestamp_mouse":[10,36,47,67,88,106,127,147,168,186,207,227,247,266,287,307,326,346,367,387,406,428,447,466,486,506,527,547,567,587,606,627,646,666,686,706,726,746,766,787,808,826,846,866,886,907,926,947,967,986,1006,1027,1046,1067,1086,1106,1127,1148,1167,1186],"xSR":741.5,"ySR":573.95,"xT1":424.9,"yT1":0,"xT2":1058.1,"yT2":0,"toosoon":0,"cond_shown":"Incongruent","ratio_trial":200,"L_num":7,"L_den":15,"R_num":6,"R_den":9,"correct_side":2,"subjID":"MarianaFernandez16","gender":"1","school":"6","age":"11"},{"start_time":1551891768499,"click_time":1551891770396,"finger_time":1551891770194,"fix_duration":283.0548384045788,"trial":28,"RT":1695,"MT":202,"sideResp":1,"stimulus":[],"xmouse":[800,799,798,798,798,797,796,796,796,796,796,796,796,796,796,796,796,796,796,796,796,796,796,796,796,796,796,796,796,796,796,796,796,796,796,796,796,796,796,796,796,796,796,796,796,796,796,796,796,796,796,796,796,796,796,796,796,796,796,796,796,796,796,796,796,796,796,801,804,806,807,807,807,807,807,807,807,807,807,806,803,779,765,755,744,731,724,716,706,693,656,626,590,545,485],"ymouse":[651,647,643,642,641,638,637,635,634,634,634,633,633,633,633,633,633,633,633,633,633,633,633,633,633,633,633,633,633,633,633,633,633,633,633,633,633,633,633,633,633,633,633,633,633,633,633,633,633,633,633,633,633,633,633,633,633,633,633,633,633,633,633,633,633,633,631,629,626,625,624,624,624,624,624,624,624,624,624,624,624,612,595,578,550,500,478,460,438,414,346,293,224,149,70],"timestamp_mouse":[15,46,55,76,95,115,135,155,175,195,215,235,255,275,296,316,336,356,376,396,415,435,455,476,495,516,536,555,576,595,615,635,655,676,695,716,735,755,776,796,816,836,857,876,896,915,935,957,976,995,1015,1036,1055,1076,1096,1115,1136,1156,1177,1196,1216,1235,1255,1275,1296,1315,1336,1357,1376,1395,1417,1436,1456,1475,1496,1515,1536,1555,1576,1596,1615,1636,1655,1676,1695,1716,1736,1756,1775,1796,1815,1835,1855,1875,1896],"xSR":741.5,"ySR":573.95,"xT1":424.9,"yT1":0,"xT2":1058.1,"yT2":0,"toosoon":0,"cond_shown":"Congruent","ratio_trial":300,"L_num":11,"L_den":22,"R_num":1,"R_den":5,"correct_side":1,"subjID":"MarianaFernandez16","gender":"1","school":"6","age":"11"},{"start_time":1551891776541,"click_time":1551891778674,"finger_time":1551891778034,"fix_duration":1205.566398659782,"trial":29,"RT":1493,"MT":640,"sideResp":1,"stimulus":[],"xmouse":[832,832,832,832,832,832,832,832,832,832,832,832,832,832,832,832,832,832,832,832,832,832,832,832,832,832,832,832,832,832,832,832,832,832,832,832,832,832,832,832,832,832,832,832,832,831,830,829,828,827,827,827,827,827,827,828,829,830,830,830,830,831,831,827,823,816,811,804,797,796,794,792,790,781,773,762,749,732,693,682,665,642,613,565,554,552,552,553,553,552,549,545,542,519,500,478,454,424,398,396,397,406,409,413,417,424,432],"ymouse":[645,645,645,645,645,645,645,645,645,645,645,645,645,645,645,645,645,645,645,645,645,645,645,645,645,645,645,645,645,645,645,645,645,645,645,645,645,645,645,645,645,645,645,645,645,646,646,646,646,646,646,646,646,646,646,646,646,646,646,646,646,646,644,635,629,621,615,609,603,601,599,595,591,579,566,547,520,493,447,433,416,381,321,173,137,119,116,115,115,111,108,105,105,105,105,105,105,102,91,74,57,40,37,36,36,36,36],"timestamp_mouse":[19,37,53,72,94,113,132,152,173,194,213,233,252,272,292,313,334,353,372,394,413,433,454,473,492,513,534,554,572,593,612,633,654,673,692,712,732,752,772,794,813,832,854,872,892,912,933,952,972,993,1014,1032,1052,1072,1092,1112,1132,1152,1172,1192,1212,1232,1254,1272,1292,1313,1332,1353,1372,1392,1412,1433,1453,1473,1493,1512,1532,1553,1572,1592,1612,1633,1653,1672,1693,1714,1734,1753,1772,1794,1812,1833,1853,1873,1893,1912,1932,1952,1972,1993,2012,2034,2053,2072,2092,2112,2132],"xSR":741.5,"ySR":573.95,"xT1":424.9,"yT1":0,"xT2":1058.1,"yT2":0,"toosoon":0,"cond_shown":"Congruent","ratio_trial":300,"L_num":11,"L_den":2