[{"start_time":1551901244566,"click_time":1551901254100,"finger_time":1551901244580,"fix_duration":1222.9398956042262,"trial":0,"RT":14,"MT":9520,"sideResp":2,"stimulus":"img/250/equaldotsize/L/14_Ratio_250_L_12_R_3.png","xmouse":[781,781,781,781,781,781,781,781,781,781,781,781,781,781,781,781,781,781,781,781,781,781,781,781,781,781,781,781,781,781,781,781,781,781,781,781,781,781,781,781,781,781,781,781,781,781,781,781,781,781,782,783,784,785,787,789,793,796,797,797,797,797,797,797,797,797,797,797,797,797,797,797,797,797,797,797,797,797,797,797,797,797,797,797,797,797,797,797,797,797,797,797,797,797,797,797,797,797,797,797,797,797,797,797,797,797,797,797,797,797,797,797,797,797,797,797,797,797,797,797,797,797,797,797,797,797,797,797,797,797,797,797,797,797,797,797,797,797,797,797,797,797,793,791,788,788,788,788,788,788,788,788,788,788,788,788,788,788,788,788,788,788,788,788,788,788,788,788,788,788,788,788,789,791,792,797,805,805,805,805,805,801,799,797,796,796,796,796,790,789,791,794,798,799,799,800,804,809,811,812,812,812,808,803,796,789,775,773,773,773,773,775,779,785,794,803,817,823,827,825,824,816,809,804,800,794,788,787,786,786,791,820,828,831,831,831,824,818,805,799,796,786,781,781,781,788,791,792,795,797,797,796,793,788,785,783,780,780,780,780,780,780,780,780,780,780,780,780,780,780,780,780,780,780,780,780,780,780,780,780,780,780,780,780,780,780,780,780,780,780,780,780,780,780,780,780,780,780,780,780,780,780,780,780,780,780,780,780,780,780,780,780,780,783,793,804,835,851,874,884,895,915,927,937,943,944,944,944,944,944,940,910,885,856,831,812,791,780,774,772,770,770,770,770,770,770,770,770,773,774,778,779,779,779,779,779,779,779,779,779,779,779,779,779,779,779,779,779,779,779,779,779,779,779,779,779,779,779,779,779,779,779,779,779,779,779,779,779,779,779,779,779,779,779,779,779,779,779,779,779,779,779,779,779,779,779,779,779,779,779,779,779,779,779,779,779,779,779,779,779,779,779,779,779,779,779,779,779,779,779,779,779,779,779,779,779,779,779,779,779,779,779,779,779,779,779,779,779,779,779,779,779,779,779,780,785,786,792,800,811,852,880,900,922,945,987,1000,1015,1034,1048,1063,1081,1091,1101,1108,1116,1118],"ymouse":[535,535,535,535,535,535,535,535,535,535,535,535,535,535,535,535,535,535,535,535,535,535,535,535,535,535,535,535,535,535,535,535,535,535,535,535,535,535,535,535,535,535,536,540,545,551,557,559,561,564,568,572,574,577,580,585,596,604,605,605,605,605,607,610,612,614,614,614,614,614,614,614,614,614,614,614,614,614,614,614,614,614,614,614,614,614,614,614,614,614,614,614,614,614,614,614,614,614,614,614,614,614,614,614,614,614,614,614,614,614,614,614,614,614,614,614,614,614,614,614,614,614,614,614,614,614,614,614,614,614,614,614,614,614,614,614,614,614,614,614,614,614,614,614,614,614,614,614,614,614,614,614,614,614,614,614,614,614,614,614,614,614,614,614,614,614,614,614,614,614,615,615,615,617,618,623,633,636,642,644,645,645,645,645,645,645,644,643,637,631,618,610,606,606,606,606,606,609,613,615,619,621,624,625,625,625,626,626,626,626,625,617,615,615,615,615,621,627,635,638,641,641,641,641,638,633,626,624,622,619,617,613,614,619,626,633,638,638,638,636,634,622,614,608,605,601,601,601,604,606,609,609,611,611,612,612,612,612,612,610,608,608,608,608,608,608,608,608,608,608,608,608,608,608,608,608,608,608,608,608,608,608,608,608,608,608,608,608,608,608,608,608,608,608,608,608,608,608,608,608,608,608,608,608,608,608,608,608,608,608,608,608,605,600,588,572,531,510,481,467,459,448,447,447,447,447,447,447,447,447,451,483,508,529,551,567,584,600,607,614,618,619,619,619,619,619,619,620,621,621,621,621,621,621,621,621,621,621,621,621,621,621,621,621,621,621,621,621,621,621,621,621,621,621,621,621,621,621,621,621,621,621,621,621,621,621,621,621,621,621,621,621,621,621,621,621,621,621,621,621,621,621,621,621,621,621,621,621,621,621,621,621,621,621,621,621,621,621,621,621,621,621,621,621,621,621,621,621,621,621,621,621,621,621,621,621,621,621,621,621,621,621,621,621,621,621,621,621,621,621,621,621,621,621,621,616,612,605,589,568,502,469,442,411,379,325,306,287,261,246,232,195,171,148,130,100,86],"timestamp_mouse":[13,34,54,75,94,115,133,154,173,193,215,234,254,273,293,314,334,354,375,395,414,433,453,475,495,514,535,554,575,594,614,633,654,674,694,713,734,755,774,794,815,835,854,875,894,915,934,954,975,994,1014,1034,1054,1074,1095,1114,1134,1154,1174,1195,1214,1233,1255,1274,1293,1314,1335,1355,1373,1394,1415,1434,1453,1474,1494,1515,1534,1555,1575,1594,1615,1634,1655,1674,1694,1714,1734,1755,1773,1795,1813,1834,1854,1875,1894,1913,1935,1953,1974,1994,2015,2035,2055,2074,2093,2114,2135,2154,2175,2193,2214,2233,2253,2273,2293,2314,2334,2353,2374,2394,2413,2434,2454,2474,2495,2513,2533,2553,2575,2594,2614,2634,2654,2673,2695,2714,2734,2754,2775,2794,2814,2834,2854,2875,2894,2914,2934,2954,2974,2995,3014,3033,3054,3073,3095,3114,3134,3154,3173,3194,3213,3234,3255,3274,3293,3315,3335,3354,3374,3394,3415,3434,3455,3475,3495,3513,3534,3555,3574,3594,3614,3634,3653,3673,3694,3715,3734,3754,3775,3794,3815,3835,3854,3873,3894,3914,3934,3953,3974,3994,4015,4033,4054,4074,4094,4115,4133,4155,4174,4194,4214,4234,4255,4274,4293,4313,4335,4355,4373,4394,4414,4433,4454,4473,4495,4514,4534,4554,4574,4595,4613,4634,4654,4674,4693,4715,4734,4755,4773,4795,4814,4833,4853,4874,4894,4915,4934,4953,4975,4993,5015,5034,5054,5074,5095,5114,5134,5155,5174,5194,5213,5235,5254,5274,5294,5313,5335,5354,5374,5394,5414,5435,5455,5475,5495,5514,5534,5555,5575,5595,5614,5635,5655,5674,5695,5714,5734,5753,5774,5794,5815,5833,5855,5874,5894,5915,5934,5953,5974,5995,6014,6035,6054,6073,6094,6113,6133,6154,6174,6194,6215,6234,6254,6274,6293,6314,6334,6354,6375,6395,6414,6434,6455,6473,6494,6515,6534,6553,6574,6594,6614,6635,6655,6674,6693,6714,6734,6755,6775,6794,6814,6835,6855,6874,6895,6915,6934,6954,6975,6994,7015,7035,7054,7074,7094,7115,7134,7154,7175,7193,7213,7235,7253,7275,7293,7314,7334,7355,7375,7393,7414,7435,7455,7473,7494,7514,7534,7554,7574,7595,7615,7634,7655,7674,7693,7715,7735,7754,7773,7795,7814,7834,7855,7875,7893,7914,7934,7953,7974,7993,8014,8035,8054,8075,8094,8115,8134,8154,8174,8194,8213,8235,8255,8274,8295,8315,8334,8355,8374,8395,8415,8435,8454,8473,8494,8514,8533,8554,8575,8595,8613,8635,8655,8674,8694,8714,8734,8755,8774,8794,8814,8834,8855,8874,8895,8914,8934,8954,8974,8994,9014,9035,9055,9073,9093,9115,9133,9155,9175,9194,9215,9234,9255,9275,9295,9315,9334,9354,9374,9395,9414,9435,9455,9474,9495,9515,9533],"xSR":741.5,"ySR":481,"xT1":424.9,"yT1":0,"xT2":1058.1,"yT2":0,"toosoon":0,"cond_shown":"equaldotsize","ratio_trial":250,"smaller_num":"3","larger_num":"12","correct_side":1,"subjID":"MarianaRozoSarmiento13","gender":"1","age":"11","school":"6","test":{"fix_dur":[250,1500],"timestim":300,"targets_dim":[100,100],"targets_relative_coord":[0.3,0.7],"size_stim":[880,420],"start_dim":[100,100],"size_start":[300,300],"size_fix":60,"samplingrate":20,"img_types":["equaldotsize","equaldotanddens","randomdotsizeEA"],"ratios":[250,500,750,900],"rep_conds":9,"nTrials":120,"trials_to_rest":500,"Trials_order":[36,55,81,44,15,63,113,77,67,51,119,80,114,59,90,71,93,74,89,48,30,8,31,27,88,3,33,98,12,47,73,68,58,107,79,100,19,34,104,9,14,6,86,61,87,39,115,53,69,28,24,78,82,41,37,20,5,111,16,46,43,91,102,85,70,11,35,32,76,38,22,25,106,84,75,62,26,2,66,56,18,7,50,92,10,65,4,49,52,97,101,118,99,72,21,64,23,1,17,0,29,117,116,103,40,112,96,95,45,60,83,42,94,13,110,108,109,105,54,57],"cond_shown":["equaldotsize","equaldotanddens","equaldotsize","randomdotsizeEA","equaldotsize","equaldotsize","randomdotsizeEA","randomdotsizeEA","equaldotanddens","equaldotsize","randomdotsizeEA","randomdotsizeEA","equaldotsize","randomdotsizeEA","equaldotsize","randomdotsizeEA","equaldotsize","randomdotsizeEA","randomdotsizeEA","equaldotsize","equaldotsize","randomdotsizeEA","equaldotanddens","equaldotsize","equaldotanddens","equaldotsize","equaldotsize","randomdotsizeEA","equaldotsize","randomdotsizeEA","equaldotanddens","randomdotsizeEA","equaldotanddens","randomdotsizeEA","equaldotanddens","equaldotanddens","equaldotanddens","equaldotanddens","randomdotsizeEA","equaldotsize","randomdotsizeEA","equaldotsize","randomdotsizeEA","equaldotanddens","equaldotsize","equaldotsize","equaldotanddens","randomdotsizeEA","equaldotsize","equaldotanddens","equaldotsize","equaldotsize","equaldotanddens","randomdotsizeEA","equaldotanddens","randomdotsizeEA","randomdotsizeEA","equaldotsize","equaldotanddens","equaldotanddens","equaldotanddens","equaldotanddens","equaldotsize","equaldotanddens","equaldotanddens","randomdotsizeEA","randomdotsizeEA","randomdotsizeEA","equaldotanddens","randomdotsizeEA","equaldotanddens","equaldotanddens","equaldotanddens","equaldotsize","equaldotsize","randomdotsizeEA","randomdotsizeEA","randomdotsizeEA","equaldotsize","randomdotsizeEA","equaldotsize","equaldotanddens","randomdotsizeEA","randomdotsizeEA","equaldotanddens","randomdotsizeEA","equaldotanddens","equaldotanddens","equaldotanddens","equaldotanddens","randomdotsizeEA","equaldotanddens","equaldotsize","equaldotsize","equaldotsize","equaldotanddens","randomdotsizeEA","equaldotanddens","randomdotsizeEA","equaldotsize","randomdotsizeEA","equaldotsize","randomdotsizeEA","equaldotanddens","equaldotanddens","equaldotanddens","equaldotsize","randomdotsizeEA","equaldotsize","equaldotsize","randomdotsizeEA","equaldotsize","equaldotanddens","equaldotanddens","randomdotsizeEA","equaldotsize","equaldotanddens","equaldotsize","equaldotsize","equaldotsize"],"ratio_trial":[250,750,900,750,500,500,500,500,750,500,900,750,750,900,750,900,900,250,500,250,750,750,750,500,500,500,900,250,250,900,250,750,900,900,750,500,750,900,750,900,250,750,250,250,500,500,750,500,900,500,250,750,900,500,250,750,500,500,500,900,750,750,750,250,900,900,900,750,500,250,900,250,900,250,500,250,250,250,750,750,750,750,250,750,900,500,500,250,500,250,500,900,500,250,900,500,900,250,500,250,500,900,750,750,500,500,250,900,900,250,900,750,900,250,250,250,250,900,750,900],"smaller_num":["3","15","18","3","6","4","6","2","3","9","18","6","6","9","3","9","9","4","1","3","3","9","6","5","2","1","18","3","6","18","6","15","18","9","3","10","18","9","15","18","4","18","4","6","9","9","18","5","18","4","3","18","18","9","2","6","3","2","5","18","15","6","18","5","9","18","18","6","1","3","9","2","18","2","9","2","4","5","12","3","15","15","3","15","9","3","1","4","2","5","9","9","10","3","18","3","9","3","1","6","2","18","6","6","9","4","3","9","18","2","18","6","18","2","6","4","3","18","15","18"],"larger_num":["12","20","20","4","12","8","12","4","4","18","20","8","8","10","4","10","10","16","2","12","4","12","8","10","4","2","20","12","24","20","24","20","20","10","4","20","24","10","20","20","16","24","16","24","18","18","24","10","20","8","12","24","20","18","8","8","6","4","10","20","20","8","24","20","10","20","20","8","2","12","10","8","20","8","18","8","16","20","16","4","20","20","12","20","10","6","2","16","4","20","18","10","20","12","20","6","10","12","2","24","4","20","8","8","18","8","12","10","20","8","20","8","20","8","24","16","12","20","20","20"],"correct_side":[1,2,2,2,1,1,1,1,1,2,1,1,2,1,1,1,2,1,2,1,1,2,1,1,1,2,1,1,1,1,2,2,1,2,1,2,1,2,1,2,2,1,2,2,2,2,1,2,2,1,1,1,1,2,2,2,2,1,2,1,2,1,1,2,2,1,1,1,2,2,2,2,2,1,2,1,1,2,2,2,2,2,2,2,2,2,2,2,2,2,2,2,2,2,1,2,2,1,2,1,1,1,2,1,2,1,1,1,1,1,1,1,1,1,1,2,1,1,1,1],"img_shown":["img/250/equaldotsize/L/14_Ratio_250_L_12_R_3.png","img/750/equaldotanddens/R/3_Ratio_750_L_15_R_20.png","img/900/equaldotsize/R/12_Ratio_900_L_18_R_20.png","img/750/randomdotsizeEA/R/12_Ratio_750_L_3_R_4.png","img/500/equaldotsize/L/13_Ratio_500_L_12_R_6.png","img/500/equaldotsize/L/8_Ratio_500_L_8_R_4.png","img/500/randomdotsizeEA/L/13_Ratio_500_L_12_R_6.png","img/500/randomdotsizeEA/L/10_Ratio_500_L_4_R_2.png","img/750/equaldotanddens/L/9_Ratio_750_L_4_R_3.png","img/500/equaldotsize/R/1_Ratio_500_L_9_R_18.png","img/900/randomdotsizeEA/L/4_Ratio_900_L_20_R_18.png","img/750/randomdotsizeEA/L/13_Ratio_750_L_8_R_6.png","img/750/equaldotsize/R/2_Ratio_750_L_6_R_8.png","img/900/randomdotsizeEA/L/1_Ratio_900_L_10_R_9.png","img/750/equaldotsize/L/10_Ratio_750_L_4_R_3.png","img/900/randomdotsizeEA/L/1_Ratio_900_L_10_R_9.png","img/900/equaldotsize/R/15_Ratio_900_L_9_R_10.png","img/250/randomdotsizeEA/L/2_Ratio_250_L_16_R_4.png","img/500/randomdotsizeEA/R/12_Ratio_500_L_1_R_2.png","img/250/equaldotsize/L/14_Ratio_250_L_12_R_3.png","img/750/equaldotsize/L/8_Ratio_750_L_4_R_3.png","img/750/randomdotsizeEA/R/15_Ratio_750_L_9_R_12.png","img/750/equaldotanddens/L/13_Ratio_750_L_8_R_6.png","img/500/equaldotsize/L/7_Ratio_500_L_10_R_5.png","img/500/equaldotanddens/L/5_Ratio_500_L_4_R_2.png","img/500/equaldotsize/R/15_Ratio_500_L_1_R_2.png","img/900/equaldotsize/L/10_Ratio_900_L_20_R_18.png","img/250/randomdotsizeEA/L/15_Ratio_250_L_12_R_3.png","img/250/equaldotsize/L/5_Ratio_250_L_24_R_6.png","img/900/randomdotsizeEA/L/8_Ratio_900_L_20_R_18.png","img/250/equaldotanddens/R/6_Ratio_250_L_6_R_24.png","img/750/randomdotsizeEA/R/5_Ratio_750_L_15_R_20.png","img/900/equaldotanddens/L/8_Ratio_900_L_20_R_18.png","img/900/randomdotsizeEA/R/15_Ratio_900_L_9_R_10.png","img/750/equaldotanddens/L/10_Ratio_750_L_4_R_3.png","img/500/equaldotanddens/R/3_Ratio_500_L_10_R_20.png","img/750/equaldotanddens/L/6_Ratio_750_L_24_R_18.png","img/900/equaldotanddens/R/7_Ratio_900_L_9_R_10.png","img/750/randomdotsizeEA/L/1_Ratio_750_L_20_R_15.png","img/900/equaldotsize/R/11_Ratio_900_L_18_R_20.png","img/250/randomdotsizeEA/R/10_Ratio_250_L_4_R_16.png","img/750/equaldotsize/L/6_Ratio_750_L_24_R_18.png","img/250/randomdotsizeEA/R/10_Ratio_250_L_4_R_16.png","img/250/equaldotanddens/R/6_Ratio_250_L_6_R_24.png","img/500/equaldotsize/R/1_Ratio_500_L_9_R_18.png","img/500/equaldotsize/R/1_Ratio_500_L_9_R_18.png","img/750/equaldotanddens/L/6_Ratio_750_L_24_R_18.png","img/500/randomdotsizeEA/R/14_Ratio_500_L_5_R_10.png","img/900/equaldotsize/R/11_Ratio_900_L_18_R_20.png","img/500/equaldotanddens/L/8_Ratio_500_L_8_R_4.png","img/250/equaldotsize/L/14_Ratio_250_L_12_R_3.png","img/750/equaldotsize/L/6_Ratio_750_L_24_R_18.png","img/900/equaldotanddens/L/10_Ratio_900_L_20_R_18.png","img/500/randomdotsizeEA/R/6_Ratio_500_L_9_R_18.png","img/250/equaldotanddens/R/13_Ratio_250_L_2_R_8.png","img/750/randomdotsizeEA/R/2_Ratio_750_L_6_R_8.png","img/500/randomdotsizeEA/R/2_Ratio_500_L_3_R_6.png","img/500/equaldotsize/L/10_Ratio_500_L_4_R_2.png","img/500/equaldotanddens/R/14_Ratio_500_L_5_R_10.png","img/900/equaldotanddens/L/8_Ratio_900_L_20_R_18.png","img/750/equaldotanddens/R/5_Ratio_750_L_15_R_20.png","img/750/equaldotanddens/L/14_Ratio_750_L_8_R_6.png","img/750/equaldotsize/L/6_Ratio_750_L_24_R_18.png","img/250/equaldotanddens/R/12_Ratio_250_L_5_R_20.png","img/900/equaldotanddens/R/5_Ratio_900_L_9_R_10.png","img/900/randomdotsizeEA/L/10_Ratio_900_L_20_R_18.png","img/900/randomdotsizeEA/L/10_Ratio_900_L_20_R_18.png","img/750/randomdotsizeEA/L/13_Ratio_750_L_8_R_6.png","img/500/equaldotanddens/R/12_Ratio_500_L_1_R_2.png","img/250/randomdotsizeEA/R/9_Ratio_250_L_3_R_12.png","img/900/equaldotanddens/R/6_Ratio_900_L_9_R_10.png","img/250/equaldotanddens/R/13_Ratio_250_L_2_R_8.png","img/900/equaldotanddens/R/12_Ratio_900_L_18_R_20.png","img/250/equaldotsize/L/1_Ratio_250_L_8_R_2.png","img/500/equaldotsize/R/6_Ratio_500_L_9_R_18.png","img/250/randomdotsizeEA/L/1_Ratio_250_L_8_R_2.png","img/250/randomdotsizeEA/L/2_Ratio_250_L_16_R_4.png","img/250/randomdotsizeEA/R/12_Ratio_250_L_5_R_20.png","img/750/equaldotsize/R/11_Ratio_750_L_12_R_16.png","img/750/randomdotsizeEA/R/7_Ratio_750_L_3_R_4.png","img/750/equaldotsize/R/4_Ratio_750_L_15_R_20.png","img/750/equaldotanddens/R/4_Ratio_750_L_15_R_20.png","img/250/randomdotsizeEA/R/4_Ratio_250_L_3_R_12.png","img/750/randomdotsizeEA/R/5_Ratio_750_L_15_R_20.png","img/900/equaldotanddens/R/7_Ratio_900_L_9_R_10.png","img/500/randomdotsizeEA/R/2_Ratio_500_L_3_R_6.png","img/500/equaldotanddens/R/15_Ratio_500_L_1_R_2.png","img/250/equaldotanddens/R/10_Ratio_250_L_4_R_16.png","img/500/equaldotanddens/R/9_Ratio_500_L_2_R_4.png","img/250/equaldotanddens/R/12_Ratio_250_L_5_R_20.png","img/500/randomdotsizeEA/R/1_Ratio_500_L_9_R_18.png","img/900/equaldotanddens/R/7_Ratio_900_L_9_R_10.png","img/500/equaldotsize/R/3_Ratio_500_L_10_R_20.png","img/250/equaldotsize/R/4_Ratio_250_L_3_R_12.png","img/900/equaldotsize/L/2_Ratio_900_L_20_R_18.png","img/500/equaldotanddens/R/2_Ratio_500_L_3_R_6.png","img/900/randomdotsizeEA/R/5_Ratio_900_L_9_R_10.png","img/250/equaldotanddens/L/15_Ratio_250_L_12_R_3.png","img/500/randomdotsizeEA/R/15_Ratio_500_L_1_R_2.png","img/250/equaldotsize/L/5_Ratio_250_L_24_R_6.png","img/500/randomdotsizeEA/L/10_Ratio_500_L_4_R_2.png","img/900/equaldotsize/L/2_Ratio_900_L_20_R_18.png","img/750/randomdotsizeEA/R/2_Ratio_750_L_6_R_8.png","img/750/equaldotanddens/L/14_Ratio_750_L_8_R_6.png","img/500/equaldotanddens/R/1_Ratio_500_L_9_R_18.png","img/500/equaldotanddens/L/8_Ratio_500_L_8_R_4.png","img/250/equaldotsize/L/15_Ratio_250_L_12_R_3.png","img/900/randomdotsizeEA/L/1_Ratio_900_L_10_R_9.png","img/900/equaldotsize/L/10_Ratio_900_L_20_R_18.png","img/250/equaldotsize/L/1_Ratio_250_L_8_R_2.png","img/900/randomdotsizeEA/L/8_Ratio_900_L_20_R_18.png","img/750/equaldotsize/L/14_Ratio_750_L_8_R_6.png","img/900/equaldotanddens/L/10_Ratio_900_L_20_R_18.png","img/250/equaldotanddens/L/1_Ratio_250_L_8_R_2.png","img/250/randomdotsizeEA/L/5_Ratio_250_L_24_R_6.png","img/250/equaldotsize/R/10_Ratio_250_L_4_R_16.png","img/250/equaldotanddens/L/15_Ratio_250_L_12_R_3.png","img/900/equaldotsize/L/10_Ratio_900_L_20_R_18.png","img/750/equaldotsize/L/1_Ratio_750_L_20_R_15.png","img/900/equaldotsize/L/2_Ratio_900_L_20_R_18.png"],"Rat0":[["12_Ratio_0_L_9_R_0.png","13_Ratio_0_L_6_R_0.png","5_Ratio_0_L_2_R_0.png","6_Ratio_0_L_4_R_0.png","8_Ratio_0_L_6_R_0.png"],["1_Ratio_0_L_0_R_17.png","10_Ratio_0_L_0_R_22.png","11_Ratio_0_L_0_R_1.png","14_Ratio_0_L_0_R_24.png","15_Ratio_0_L_0_R_4.png","2_Ratio_0_L_0_R_5.png","3_Ratio_0_L_0_R_17.png","4_Ratio_0_L_0_R_7.png","7_Ratio_0_L_0_R_19.png","9_Ratio_0_L_0_R_15.png"]],"Rat250":[["1_Ratio_250_L_8_R_2.png","14_Ratio_250_L_12_R_3.png","15_Ratio_250_L_12_R_3.png","2_Ratio_250_L_16_R_4.png","3_Ratio_250_L_8_R_2.png","5_Ratio_250_L_24_R_6.png","7_Ratio_250_L_8_R_2.png"],["10_Ratio_250_L_4_R_16.png","11_Ratio_250_L_3_R_12.png","12_Ratio_250_L_5_R_20.png","13_Ratio_250_L_2_R_8.png","4_Ratio_250_L_3_R_12.png","6_Ratio_250_L_6_R_24.png","8_Ratio_250_L_1_R_4.png","9_Ratio_250_L_3_R_12.png"]],"Rat500":[["10_Ratio_500_L_4_R_2.png","11_Ratio_500_L_12_R_6.png","13_Ratio_500_L_12_R_6.png","4_Ratio_500_L_18_R_9.png","5_Ratio_500_L_4_R_2.png","7_Ratio_500_L_10_R_5.png","8_Ratio_500_L_8_R_4.png"],["1_Ratio_500_L_9_R_18.png","12_Ratio_500_L_1_R_2.png","14_Ratio_500_L_5_R_10.png","15_Ratio_500_L_1_R_2.png","2_Ratio_500_L_3_R_6.png","3_Ratio_500_L_10_R_20.png","6_Ratio_500_L_9_R_18.png","9_Ratio_500_L_2_R_4.png"]],"Rat750":[["1_Ratio_750_L_20_R_15.png","10_Ratio_750_L_4_R_3.png","13_Ratio_750_L_8_R_6.png","14_Ratio_750_L_8_R_6.png","6_Ratio_750_L_24_R_18.png","8_Ratio_750_L_4_R_3.png","9_Ratio_750_L_4_R_3.png"],["11_Ratio_750_L_12_R_16.png","12_Ratio_750_L_3_R_4.png","15_Ratio_750_L_9_R_12.png","2_Ratio_750_L_6_R_8.png","3_Ratio_750_L_15_R_20.png","4_Ratio_750_L_15_R_20.png","5_Ratio_750_L_15_R_20.png","7_Ratio_750_L_3_R_4.png"]],"Rat900":[["1_Ratio_900_L_10_R_9.png","10_Ratio_900_L_20_R_18.png","2_Ratio_900_L_20_R_18.png","4_Ratio_900_L_20_R_18.png","8_Ratio_900_L_20_R_18.png"],["11_Ratio_900_L_18_R_20.png","12_Ratio_900_L_18_R_20.png","13_Ratio_900_L_18_R_20.png","14_Ratio_900_L_18_R_20.png","15_Ratio_900_L_9_R_10.png","3_Ratio_900_L_9_R_10.png","5_Ratio_900_L_9_R_10.png","6_Ratio_900_L_9_R_10.png","7_Ratio_900_L_9_R_10.png","9_Ratio_900_L_18_R_20.png"]],"Rat1000":[["10_Ratio_1000_L_16_R_16.png","11_Ratio_1000_L_6_R_6.png","12_Ratio_1000_L_14_R_14.png","13_Ratio_1000_L_20_R_20.png","15_Ratio_1000_L_15_R_15.png","2_Ratio_1000_L_17_R_17.png","4_Ratio_1000_L_9_R_9.png","5_Ratio_1000_L_6_R_6.png","6_Ratio_1000_L_19_R_19.png","8_Ratio_1000_L_14_R_14.png","9_Ratio_1000_L_25_R_25.png"],["1_Ratio_1000_L_1_R_1.png","14_Ratio_1000_L_17_R_17.png","3_Ratio_1000_L_17_R_17.png","7_Ratio_1000_L_6_R_6.png"]]}},{"start_time":1551901256101,"click_time":1551901259241,"finger_time":1551901257841,"fix_duration":600.7307505056656,"trial":1,"RT":1740,"MT":1400,"sideResp":2,"stimulus":"img/750/equaldotanddens/R/3_Ratio_750_L_15_R_20.png","xmouse":[784,784,784,784,784,784,784,784,784,784,784,784,784,784,784,784,784,784,784,784,784,784,784,784,784,784,784,784,784,784,784,784,784,784,784,784,784,784,784,784,784,784,784,784,784,784,784,784,784,784,784,784,784,784,784,784,784,784,784,784,784,784,784,784,784,784,784,784,784,784,784,784,784,784,784,784,784,784,784,784,784,784,784,783,774,762,747,727,707,682,673,661,647,641,638,638,638,638,636,635,633,631,631,631,631,631,631,631,631,632,637,644,663,700,718,735,751,764,769,766,763,759,757,757,759,762,764,765,768,774,774,774,774,775,776,776,776,777,779,782,784,784,786,789,812,835,862,889,910,948,974,1022,1046,1066,1089,1097,1102],"ymouse":[630,630,630,630,630,630,630,630,630,630,630,630,630,630,630,630,630,630,630,630,630,630,630,630,630,630,630,630,630,630,630,630,630,630,630,630,630,630,630,630,630,630,630,630,630,630,630,630,630,630,630,630,630,630,630,630,630,630,630,630,630,630,630,630,630,630,630,630,630,630,630,630,630,630,630,630,630,630,630,630,630,630,629,622,602,576,542,500,459,399,376,350,312,292,248,229,215,203,185,180,179,177,177,177,177,177,177,178,183,192,204,220,256,307,329,358,387,418,443,492,517,545,557,566,578,585,589,593,596,601,602,602,602,602,602,602,601,599,594,586,583,582,577,570,540,515,490,464,435,374,323,233,199,174,132,114,91],"timestamp_mouse":[21,49,60,79,99,118,140,158,179,200,220,238,260,280,300,319,339,358,378,400,419,438,459,480,499,519,540,558,579,599,620,640,659,680,699,719,740,759,779,800,818,839,858,880,899,919,938,960,978,1000,1020,1039,1060,1078,1100,1120,1138,1158,1180,1200,1219,1239,1260,1279,1300,1318,1340,1360,1380,1399,1420,1440,1458,1479,1500,1520,1539,1560,1579,1599,1618,1638,1659,1679,1699,1720,1740,1759,1779,1800,1819,1838,1859,1879,1899,1920,1939,1958,1979,1999,2019,2039,2060,2079,2098,2119,2140,2159,2179,2198,2220,2239,2259,2280,2299,2318,2339,2359,2378,2398,2419,2439,2460,2478,2498,2519,2538,2559,2579,2599,2618,2638,2660,2678,2699,2719,2739,2758,2778,2799,2820,2840,2859,2879,2899,2920,2939,2959,2979,2999,3019,3040,3058,3078,3100,3119,3140],"xSR":741.5,"ySR":573.95,"xT1":424.9,"yT1":0,"xT2":1058.1,"yT2":0,"toosoon":0,"cond_shown":"equaldotanddens","ratio_trial":750,"smaller_num":"15","larger_num":"20","correct_side":2,"subjID":"MarianaRozoSarmiento13","gender":"1","age":"11","school":"6"},{"start_time":1551901260479,"click_time":1551901262460,"finger_time":1551901262160,"fix_duration":297.54308212849025,"trial":2,"RT":1681,"MT":300,"sideResp":2,"stimulus":"img/900/equaldotsize/R/12_Ratio_900_L_18_R_20.png","xmouse":[774,774,774,774,774,774,774,774,774,774,774,774,774,774,774,774,774,774,774,774,774,774,774,774,774,774,774,774,774,774,774,774,774,774,774,774,774,774,774,774,774,774,774,774,774,774,774,774,774,774,774,774,774,774,774,774,774,774,774,774,774,774,774,774,774,774,774,774,774,774,774,774,774,774,774,774,774,774,774,774,774,779,785,795,811,832,874,902,937,954,964,980,984,988,993,1002,1030,1046,1057,1061],"ymouse":[619,619,619,619,619,619,619,619,619,619,619,619,619,619,619,619,619,619,619,619,619,619,619,619,619,619,619,619,619,619,619,619,619,619,619,619,619,619,619,619,619,619,619,619,619,619,619,619,619,619,619,619,619,619,619,619,619,619,619,619,619,619,619,619,619,619,619,619,619,619,619,619,619,619,619,619,619,619,619,619,619,611,600,586,567,538,445,385,318,281,253,181,156,133,113,100,75,66,61,59],"timestamp_mouse":[9,20,49,61,81,101,120,141,160,180,201,222,241,262,281,302,320,340,360,382,400,420,442,461,481,502,522,541,561,580,600,621,641,662,680,702,720,742,762,780,801,821,842,860,882,900,922,942,962,982,1000,1020,1040,1061,1082,1101,1121,1142,1160,1180,1201,1220,1242,1262,1280,1300,1321,1341,1360,1382,1402,1420,1442,1462,1480,1500,1521,1540,1562,1580,1601,1621,1641,1660,1681,1701,1721,1742,1761,1780,1801,1821,1842,1860,1881,1902,1922,1940,1961,1981],"xSR":741.5,"ySR":573.95,"xT1":424.9,"yT1":0,"xT2":1058.1,"yT2":0,"toosoon":0,"cond_shown":"equaldotsize","ratio_trial":900,"smaller_num":"18","larger_num":"20","correct_side":2,"subjID":"MarianaRozoSarmiento13","gender":"1","age":"11","school":"6"},{"start_time":1551901264682,"click_time":1551901267500,"finger_time":1551901267099,"fix_duration":1479.532002064272,"trial":3,"RT":2417,"MT":401,"sideResp":2,"stimulus":"img/750/randomdotsizeEA/R/12_Ratio_750_L_3_R_4.png","xmouse":[778,778,778,778,779,780,780,780,780,780,780,780,780,780,780,780,780,780,780,780,780,780,780,780,780,780,780,780,780,780,780,780,780,780,780,780,780,780,780,780,780,780,780,780,780,780,780,780,780,780,780,780,780,780,780,780,780,780,780,780,780,780,780,780,780,780,780,780,780,780,780,780,780,780,780,780,780,780,780,780,780,780,780,780,780,780,780,780,780,780,780,780,780,780,780,780,780,780,780,780,780,780,780,780,780,780,780,780,780,780,780,780,780,780,780,782,796,810,822,835,879,903,924,944,963,1006,1026,1041,1045,1045,1045,1045,1045,1045,1044,1044,1044,1046,1051,1055,1060],"ymouse":[638,638,638,638,636,634,634,634,633,633,632,632,632,632,632,632,632,632,632,632,632,632,632,632,632,632,632,632,632,632,632,632,632,632,632,632,632,632,632,632,632,632,632,632,632,632,632,632,632,632,632,632,632,632,632,632,632,632,632,632,632,632,632,632,632,632,632,632,632,632,632,632,632,632,632,632,632,632,632,632,632,632,632,632,632,632,632,632,632,632,632,632,632,632,632,632,632,632,632,632,632,632,632,632,632,632,632,632,632,632,632,632,632,632,632,630,617,607,595,578,520,490,461,434,405,331,287,253,231,218,204,201,190,178,166,142,130,118,109,98,79],"timestamp_mouse":[19,39,66,78,98,118,138,159,178,198,218,239,259,278,297,317,338,358,379,397,419,437,458,478,498,518,538,558,577,599,618,637,658,678,698,717,739,758,779,797,819,839,859,878,899,919,938,959,979,997,1018,1039,1058,1078,1099,1117,1139,1157,1177,1198,1219,1239,1259,1279,1298,1319,1339,1358,1378,1399,1417,1438,1459,1478,1498,1518,1538,1559,1578,1598,1619,1638,1658,1679,1699,1717,1738,1759,1779,1797,1819,1837,1859,1879,1898,1918,1939,1957,1979,1998,2018,2038,2058,2077,2099,2118,2139,2157,2179,2199,2219,2239,2258,2278,2299,2318,2338,2358,2378,2398,2417,2438,2458,2478,2497,2517,2538,2558,2579,2597,2617,2638,2658,2678,2698,2719,2737,2758,2779,2798,2817],"xSR":741.5,"ySR":573.95,"xT1":424.9,"yT1":0,"xT2":1058.1,"yT2":0,"toosoon":0,"cond_shown":"randomdotsizeEA","ratio_trial":750,"smaller_num":"3","larger_num":"4","correct_side":2,"subjID":"MarianaRozoSarmiento13","gender":"1","age":"11","school":"6"},{"start_time":1551901271436,"click_time":1551901272859,"finger_time":1551901272339,"fix_duration":1255.6546453701542,"trial":4,"RT":903,"MT":520,"sideResp":1,"stimulus":"img/500/equaldotsize/L/13_Ratio_500_L_12_R_6.png","xmouse":[794,794,794,794,794,794,794,794,794,794,794,794,794,794,794,794,794,794,794,794,794,794,794,794,794,794,794,794,794,794,794,794,794,794,794,794,794,794,794,794,794,794,794,794,794,794,791,785,771,756,739,722,703,663,648,636,625,604,598,595,593,590,588,576,573,570,565,561,548,541,532,523],"ymouse":[633,633,633,633,633,633,633,633,633,633,633,633,633,633,633,633,633,633,633,633,633,633,633,633,633,633,633,633,633,633,633,633,633,633,633,633,633,633,633,633,633,633,633,616,605,573,548,523,459,420,386,352,318,238,207,181,160,134,125,118,112,109,105,89,85,82,79,75,67,62,59,55],"timestamp_mouse":[9,32,43,63,85,104,125,144,165,184,205,224,244,264,283,303,324,345,364,385,404,425,443,464,485,505,524,544,564,585,605,625,645,664,684,704,724,743,765,784,804,824,845,864,883,903,925,944,965,984,1004,1024,1043,1064,1085,1104,1124,1145,1163,1183,1205,1224,1243,1263,1284,1304,1325,1345,1364,1384,1404,1423],"xSR":741.5,"ySR":573.95,"xT1":424.9,"yT1":0,"xT2":1058.1,"yT2":0,"toosoon":0,"cond_shown":"equaldotsize","ratio_trial":500,"smaller_num":"6","larger_num":"12","correct_side":1,"subjID":"MarianaRozoSarmiento13","gender":"1","age":"11","school":"6"},{"start_time":1551901274845,"click_time":1551901276880,"finger_time":1551901275500,"fix_duration":1364.8259025947111,"trial":5,"RT":655,"MT":1380,"sideResp":1,"stimulus":"img/500/equaldotsize/L/8_Ratio_500_L_8_R_4.png","xmouse":[811,811,811,811,811,811,811,811,811,811,811,811,811,811,811,811,811,811,811,811,811,811,811,811,811,811,811,809,801,790,781,753,734,727,727,727,725,725,725,728,736,746,760,789,804,823,829,833,835,836,837,842,842,843,841,834,832,832,831,830,827,826,826,825,824,822,818,817,816,815,814,813,813,813,813,813,813,813,813,812,809,801,793,770,754,741,726,719,709,697,688,671,660,648,636,620,576,553,530,512,494],"ymouse":[637,637,637,637,637,637,637,637,637,637,637,637,637,637,637,637,637,637,637,637,637,637,637,637,637,637,637,637,640,646,654,691,704,715,718,718,718,718,716,711,697,676,645,601,584,560,551,546,545,545,545,546,547,558,565,574,578,580,581,583,585,586,586,586,586,586,587,588,588,589,591,592,592,592,592,592,592,592,592,592,589,575,562,533,512,495,466,448,427,403,380,353,326,302,276,250,195,171,141,117,98],"timestamp_mouse":[37,55,74,95,116,135,155,176,195,216,235,255,275,296,315,335,356,376,395,416,436,456,476,496,516,534,555,574,596,616,635,655,675,695,715,736,756,775,794,815,836,854,875,894,915,936,955,976,995,1015,1035,1055,1075,1095,1114,1136,1154,1175,1195,1216,1236,1255,1275,1295,1315,1334,1355,1376,1396,1416,1435,1454,1474,1494,1516,1535,1555,1576,1595,1616,1635,1654,1675,1696,1714,1735,1756,1776,1795,1815,1835,1855,1876,1895,1914,1935,1954,1975,1995,2015,2035],"xSR":741.5,"ySR":573.95,"xT1":424.9,"yT1":0,"xT2":1058.1,"yT2":0,"toosoon":0,"cond_shown":"equaldotsize","ratio_trial":500,"smaller_num":"4","larger_num":"8","correct_side":1,"subjID":"MarianaRozoSarmiento13","gender":"1","age":"11","school":"6"},{"start_time":1551901277991,"click_time":1551901280081,"finger_time":1551901279760,"fix_duration":250,"trial":6,"RT":1769,"MT":321,"sideResp":1,"stimulus":"img/500/randomdotsizeEA/L/13_Ratio_500_L_12_R_6.png","xmouse":[799,799,799,799,799,799,799,799,799,799,799,799,799,799,799,799,799,799,799,799,799,799,799,799,799,799,799,799,799,799,799,799,799,799,799,799,799,799,799,799,799,799,799,799,799,799,799,799,799,799,799,799,799,799,799,799,799,799,799,799,799,799,799,799,799,799,799,799,799,799,799,799,799,799,799,799,799,799,799,799,799,799,799,799,799,797,790,780,773,744,727,714,700,690,680,653,636,624,615,601,562,544,533,523,511],"ymouse":[641,641,641,641,641,641,641,641,641,641,641,641,641,641,641,641,641,641,641,641,641,641,641,641,641,641,641,641,641,641,641,641,641,641,641,641,641,641,641,641,641,641,641,641,641,641,641,641,641,641,641,641,641,641,641,641,641,641,641,641,641,641,641,641,641,641,641,641,641,641,641,641,641,641,641,641,641,641,641,641,641,641,641,641,638,625,610,588,568,510,473,442,411,383,357,302,269,248,227,201,152,128,111,100,85],"timestamp_mouse":[9,38,48,70,90,110,129,150,168,188,209,228,249,270,288,308,329,349,368,390,408,428,449,468,490,508,529,548,569,589,608,629,648,669,688,709,729,749,769,789,809,828,849,870,889,908,929,949,969,989,1009,1028,1049,1069,1090,1108,1128,1149,1168,1190,1209,1228,1250,1269,1290,1310,1330,1348,1369,1389,1409,1429,1449,1469,1490,1509,1528,1549,1568,1589,1608,1629,1650,1668,1690,1708,1729,1748,1769,1790,1809,1829,1850,1870,1889,1908,1930,1949,1969,1989,2009,2028,2049,2069,2090],"xSR":741.5,"ySR":573.95,"xT1":424.9,"yT1":0,"xT2":1058.1,"yT2":0,"toosoon":0,"cond_shown":"randomdotsizeEA","ratio_trial":500,"smaller_num":"6","larger_num":"12","correct_side":1,"subjID":"MarianaRozoSarmiento13","gender":"1","age":"11","school":"6"},{"start_time":1551901283244,"click_time":1551901284781,"finger_time":1551901284500,"fix_duration":1022.3296666946721,"trial":7,"RT":1256,"MT":281,"sideResp":1,"stimulus":"img/500/randomdotsizeEA/L/10_Ratio_500_L_4_R_2.png","xmouse":[792,792,792,792,792,792,792,792,792,792,792,792,792,792,792,792,792,792,792,792,792,792,792,792,792,792,792,792,792,792,792,792,792,792,792,792,792,792,792,792,792,792,792,792,792,792,792,792,792,792,792,792,792,792,792,792,792,792,785,782,777,776,771,767,752,740,716,702,687,671,650,627,575,552,529,515,502],"ymouse":[615,615,615,615,615,615,615,615,615,615,615,615,615,615,615,615,615,615,615,615,615,615,615,615,615,615,615,615,615,615,615,615,615,615,615,615,615,615,615,615,615,615,615,615,615,615,615,615,615,615,615,615,615,615,615,615,615,615,606,602,591,582,555,528,478,447,394,373,354,330,303,271,204,174,136,112,88],"timestamp_mouse":[17,36,56,76,97,116,137,157,177,195,217,237,256,276,297,316,337,356,375,396,417,435,457,476,496,516,535,557,575,596,616,636,655,676,695,716,735,757,776,795,816,836,856,875,896,915,937,956,977,995,1016,1035,1056,1077,1097,1116,1136,1155,1175,1196,1217,1236,1256,1276,1296,1315,1337,1356,1377,1396,1416,1436,1455,1476,1496,1516,1537],"xSR":741.5,"ySR":573.95,"xT1":424.9,"yT1":0,"xT2":1058.1,"yT2":0,"toosoon":0,"cond_shown":"randomdotsizeEA","ratio_trial":500,"smaller_num":"2","larger_num":"4","correct_side":1,"subjID":"MarianaRozoSarmiento13","gender":"1","age":"11","school":"6"},{"start_time":1551901285695,"click_time":1551901287960,"finger_time":1551901287481,"fix_duration":313.25894383676734,"trial":8,"RT":1786,"MT":479,"sideResp":1,"stimulus":"img/750/equaldotanddens/L/9_Ratio_750_L_4_R_3.png","xmouse":[785,785,785,785,785,785,785,785,785,785,785,785,785,785,785,785,785,785,785,785,785,785,785,785,785,785,785,785,785,785,785,785,785,785,785,785,785,785,785,785,785,785,785,785,785,785,785,785,785,785,785,785,785,785,785,785,785,785,785,785,785,785,785,785,785,785,785,785,785,785,785,785,785,785,785,785,785,785,785,785,785,785,785,785,785,785,781,774,767,750,735,723,711,690,681,664,657,648,638,617,606,599,599,599,594,584,569,551,538,532,523,519,518,516],"ymouse":[646,646,646,646,646,646,646,646,646,646,646,646,646,646,646,646,646,646,646,646,646,646,646,646,646,646,646,646,646,646,646,646,646,646,646,646,646,646,646,646,646,646,646,646,646,646,646,646,646,646,646,646,646,646,646,646,646,646,646,646,646,646,646,646,646,646,646,646,646,646,646,646,646,646,646,646,646,646,646,646,646,646,646,646,645,636,625,610,592,548,519,488,457,414,393,356,338,320,299,257,238,231,230,230,227,216,197,175,156,148,129,110,106,98],"timestamp_mouse":[5,36,45,64,86,105,126,144,166,184,205,225,246,265,284,305,325,344,365,386,405,425,444,465,484,505,526,545,565,586,605,624,646,665,685,705,726,746,766,785,805,824,844,866,886,905,925,945,966,986,1004,1025,1046,1066,1085,1105,1126,1145,1164,1185,1204,1226,1245,1266,1286,1305,1325,1344,1366,1384,1406,1425,1446,1465,1486,1504,1526,1546,1566,1584,1606,1626,1646,1666,1684,1706,1725,1745,1765,1786,1805,1825,1844,1865,1885,1905,1925,1945,1964,1986,2005,2025,2045,2065,2086,2105,2125,2145,2165,2186,2204,2225,2244,2265],"xSR":741.5,"ySR":573.95,"xT1":424.9,"yT1":0,"xT2":1058.1,"yT2":0,"toosoon":0,"cond_shown":"equaldotanddens","ratio_trial":750,"smaller_num":"3","larger_num":"4","correct_side":1,"subjID":"MarianaRozoSarmiento13","gender":"1","age":"11","school":"6"},{"start_time":1551901289970,"click_time":1551901291600,"finger_time":1551901290941,"fix_duration":1129.3929859774287,"trial":9,"RT":971,"MT":659,"sideResp":2,"stimulus":"img/500/equaldotsize/R/1_Ratio_500_L_9_R_18.png","xmouse":[784,784,784,784,784,784,784,784,784,784,784,784,784,784,784,784,784,784,784,784,784,784,784,784,784,784,784,784,784,784,784,784,784,784,784,784,784,784,784,784,784,786,792,793,794,795,796,796,804,851,886,938,941,941,941,941,946,948,952,957,958,958,959,963,977,992,1013,1019,1021,1021,1021,1021,1022,1024,1031,1041,1043,1044,1045,1047,1051,1059],"ymouse":[624,624,624,624,624,624,624,624,624,624,624,624,624,624,624,624,624,624,624,624,624,624,624,624,624,624,624,624,624,624,624,624,624,624,624,624,624,624,624,624,624,624,619,618,618,620,619,603,544,356,216,91,71,65,65,65,65,64,62,57,53,53,53,55,65,74,75,73,72,71,71,71,71,70,67,63,62,62,62,63,69,69],"timestamp_mouse":[12,43,51,70,91,111,130,151,169,189,210,230,250,269,291,310,329,350,370,390,409,431,450,469,489,511,529,551,570,589,611,631,649,670,691,709,730,749,771,790,810,830,850,869,890,910,930,950,971,990,1012,1030,1050,1070,1091,1111,1130,1151,1171,1190,1210,1229,1249,1270,1291,1309,1330,1350,1369,1390,1410,1430,1451,1470,1491,1510,1530,1550,1571,1591,1611,1630],"xSR":741.5,"ySR":573.95,"xT1":424.9,"yT1":0,"xT2":1058.1,"yT2":0,"toosoon":0,"cond_shown":"equaldotsize","ratio_trial":500,"smaller_num":"9","larger_num":"18","correct_side":2,"subjID":"MarianaRozoSarmiento13","gender":"1","age":"11","school":"6"},{"start_time":1551901293953,"click_time":1551901295800,"finger_time":1551901295481,"fix_duration":1252.3695457199492,"trial":10,"RT":1528,"MT":319,"sideResp":2,"stimulus":"img/900/randomdotsizeEA/L/4_Ratio_900_L_20_R_18.png","xmouse":[786,786,786,786,786,786,786,786,786,786,786,786,786,786,786,786,786,786,786,786,786,786,786,786,786,786,786,786,786,786,786,786,786,786,786,786,786,786,786,786,786,786,786,786,786,786,786,786,786,786,786,786,786,786,786,786,786,786,786,786,786,786,786,786,786,786,786,786,786,786,786,786,786,789,794,802,837,855,873,889,917,940,994,1019,1040,1060,1079,1114,1126,1136,1136,1136,1133],"ymouse":[623,623,623,623,623,623,623,623,623,623,623,623,623,623,623,623,623,623,623,623,623,623,623,623,623,623,623,623,623,623,623,623,623,623,623,623,623,623,623,623,623,623,623,623,623,623,623,623,623,623,623,623,623,623,623,623,623,623,623,623,623,623,623,623,623,623,623,623,623,623,623,623,623,619,614,600,564,540,515,494,457,433,368,338,309,284,255,207,181,154,137,121,95],"timestamp_mouse":[11,27,48,68,87,108,127,147,167,188,208,227,248,267,287,307,327,347,367,388,407,427,446,467,488,506,527,547,568,588,607,627,647,668,688,708,728,747,768,786,808,827,847,867,887,908,927,948,968,988,1007,1028,1048,1068,1087,1108,1127,1148,1168,1187,1207,1228,1247,1268,1288,1307,1327,1347,1368,1388,1408,1427,1448,1467,1488,1507,1528,1547,1568,1587,1607,1627,1647,1667,1687,1708,1726,1747,1767,1787,1807,1827,1847],"xSR":741.5,"ySR":573.95,"xT1":424.9,"yT1":0,"xT2":1058.1,"yT2":0,"toosoon":0,"cond_shown":"randomdotsizeEA","ratio_trial":900,"smaller_num":"18","larger_num":"20","correct_side":1,"subjID":"MarianaRozoSarmiento13","gender":"1","age":"11","school":"6"},{"start_time":1551901298118,"click_time":1551901299540,"finger_time":1551901299040,"fix_duration":1416.2717867044798,"trial":11,"RT":922,"MT":500,"sideResp":1,"stimulus":"img/750/randomdotsizeEA/L/13_Ratio_750_L_8_R_6.png","xmouse":[784,784,784,784,784,784,784,784,784,784,784,784,784,784,784,784,784,784,784,784,784,784,784,784,784,784,784,784,784,784,784,784,784,784,784,784,784,784,784,784,784,784,784,784,775,765,753,745,726,718,707,692,668,660,644,636,629,620,616,604,596,588,579,557,548,543,540,536,532,531,528,524],"ymouse":[641,641,641,641,641,641,641,641,641,641,641,641,641,641,641,641,641,641,641,641,641,641,641,641,641,641,641,641,641,641,641,641,641,641,641,641,641,641,641,641,641,641,640,638,610,587,563,535,471,433,392,353,295,266,210,185,164,148,141,125,115,96,80,47,39,39,38,37,32,31,31,31],"timestamp_mouse":[10,34,42,63,83,102,122,143,163,183,202,222,243,262,283,302,323,343,363,383,402,423,442,464,483,502,522,542,562,582,602,623,642,663,681,702,722,742,762,782,802,822,842,862,883,902,922,942,962,982,1002,1023,1041,1062,1082,1103,1121,1142,1163,1182,1202,1223,1242,1262,1282,1302,1322,1342,1362,1382,1402,1422],"xSR":741.5,"ySR":573.95,"xT1":424.9,"yT1":0,"xT2":1058.1,"yT2":0,"toosoon":0,"cond_shown":"randomdotsizeEA","ratio_trial":750,"smaller_num":"6","larger_num":"8","correct_side":1,"subjID":"MarianaRozoSarmiento13","gender":"1","age":"11","school":"6"},{"start_time":1551901300722,"click_time":1551901302100,"finger_time":1551901301621,"fix_duration":401.0257202680958,"trial":12,"RT":899,"MT":479,"sideResp":2,"stimulus":"img/750/equaldotsize/R/2_Ratio_750_L_6_R_8.png","xmouse":[805,805,805,805,805,805,804,801,800,799,798,797,797,797,797,797,797,797,797,797,797,797,797,797,797,797,797,797,797,797,797,797,797,797,797,797,797,797,797,797,797,800,816,827,842,859,875,888,914,927,933,942,947,958,965,970,975,979,984,989,996,1003,1017,1021,1025,1027,1028,1046,1064],"ymouse":[636,636,636,636,636,636,636,635,633,631,631,630,630,630,630,630,630,630,630,630,630,630,630,630,630,630,630,630,630,630,630,630,630,630,630,630,630,630,630,630,629,626,604,585,566,539,510,477,419,388,353,304,278,243,227,212,201,175,162,146,133,116,100,94,92,90,89,80,75],"timestamp_mouse":[18,37,59,78,98,118,138,159,178,198,219,238,259,279,298,317,338,358,379,399,418,438,459,478,498,518,539,558,578,598,619,638,658,678,699,717,738,758,779,798,818,838,859,878,899,918,938,959,978,998,1018,1038,1058,1079,1098,1118,1139,1158,1177,1198,1218,1238,1258,1277,1298,1319,1338,1358,1377],"xSR":741.5,"ySR":573.95,"xT1":424.9,"yT1":0,"xT2":1058.1,"yT2":0,"toosoon":0,"cond_shown":"equaldotsize","ratio_trial":750,"smaller_num":"6","larger_num":"8","correct_side":2,"subjID":"MarianaRozoSarmiento13","gender":"1","age":"11","school":"6"},{"start_time":1551901303212,"click_time":1551901304780,"finger_time":1551901304301,"fix_duration":250,"trial":13,"RT":1089,"MT":479,"sideResp":1,"stimulus":"img/900/randomdotsizeEA/L/1_Ratio_900_L_10_R_9.png","xmouse":[797,797,797,797,797,797,797,797,797,797,797,797,797,797,797,797,797,797,797,797,797,797,797,797,797,797,797,797,797,797,797,797,797,797,797,797,797,797,797,797,797,797,797,797,797,797,797,797,797,797,797,797,797,783,759,733,707,674,630,609,595,585,581,578,572,569,567,567,565,564,562,561,557,543,530,523,520,519,516],"ymouse":[625,625,625,625,625,625,625,625,625,625,625,625,625,625,625,625,625,625,625,625,625,625,625,625,625,625,625,625,625,625,625,625,625,625,625,625,625,625,625,625,625,625,625,625,625,625,625,625,625,625,625,625,622,595,560,523,493,451,392,365,339,316,298,279,256,251,247,243,233,226,217,205,190,154,137,124,114,104,88],"timestamp_mouse":[10,34,48,69,88,108,128,149,169,189,208,227,249,269,288,309,328,348,369,389,409,428,448,469,488,509,529,549,569,588,608,629,649,669,689,708,729,749,768,788,809,829,848,868,888,908,929,949,969,989,1009,1027,1048,1068,1089,1108,1129,1148,1168,1188,1208,1228,1247,1269,1288,1308,1329,1349,1368,1388,1408,1428,1449,1468,1487,1508,1528,1548,1568],"xSR":741.5,"ySR":573.95,"xT1":424.9,"yT1":0,"xT2":1058.1,"yT2":0,"toosoon":0,"cond_shown":"randomdotsizeEA","ratio_trial":900,"smaller_num":"9","larger_num":"10","correct_side":1,"subjID":"MarianaRozoSarmiento13","gender":"1","age":"11","school":"6"},{"start_time":1551901306550,"click_time":1551901308161,"finger_time":1551901307781,"fix_duration":847.7334302422597,"trial":14,"RT":1231,"MT":380,"sideResp":1,"stimulus":"img/750/equaldotsize/L/10_Ratio_750_L_4_R_3.png","xmouse":[770,770,770,770,770,770,770,770,770,770,770,770,770,770,770,770,770,770,770,770,770,770,770,770,770,770,770,770,770,770,770,770,770,770,770,770,770,770,770,770,770,770,770,770,770,770,770,770,770,770,770,770,770,770,770,770,770,769,769,765,762,750,744,740,736,726,700,683,664,646,629,609,592,587,577,570,556,545,539,530,520],"ymouse":[635,635,635,635,635,635,635,635,635,635,635,635,635,635,635,635,635,635,635,635,635,635,635,635,635,635,635,635,635,635,635,635,635,635,635,635,635,635,635,635,635,635,635,635,635,635,635,635,635,635,635,635,635,635,635,634,628,623,616,601,581,502,474,451,426,396,321,287,253,214,180,136,95,82,71,62,57,57,57,57,59],"timestamp_mouse":[10,30,51,71,91,110,130,150,170,190,209,230,250,270,290,310,331,349,371,390,411,431,450,471,489,510,531,550,571,591,609,631,651,670,691,710,729,750,770,790,811,830,851,871,891,911,930,950,971,991,1010,1031,1050,1071,1091,1110,1130,1150,1171,1189,1211,1231,1250,1270,1290,1311,1330,1350,1370,1390,1409,1429,1450,1471,1491,1510,1530,1550,1571,1590,1611],"xSR":741.5,"ySR":573.95,"xT1":424.9,"yT1":0,"xT2":1058.1,"yT2":0,"toosoon":0,"cond_shown":"equaldotsize","ratio_trial":750,"smaller_num":"3","larger_num":"4","correct_side":1,"subjID":"MarianaRozoSarmiento13","gender":"1","age":"11","school":"6"},{"start_time":1551901309253,"click_time":1551901313980,"finger_time":1551901312560,"fix_duration":250,"trial":15,"RT":3307,"MT":1420,"sideResp":1,"stimulus":"img/900/randomdotsizeEA/L/1_Ratio_900_L_10_R_9.png","xmouse":[791,791,791,791,791,791,791,791,791,791,791,791,791,791,791,791,791,791,791,791,791,791,791,791,791,791,791,791,791,791,791,791,791,791,791,791,791,791,791,791,791,791,791,791,791,791,791,791,791,791,791,791,796,799,808,808,811,811,812,812,812,812,812,812,812,812,812,812,812,812,812,812,812,810,807,797,784,779,775,774,772,771,770,769,769,769,775,776,778,779,779,779,779,779,779,779,779,779,780,780,780,780,780,780,780,780,780,780,780,780,780,780,780,780,780,780,780,780,780,780,780,780,780,780,780,780,780,780,780,780,780,780,780,780,780,780,780,780,780,780,780,780,780,780,780,780,780,780,780,780,780,780,780,780,780,781,781,781,781,781,781,781,773,760,744,732,732,732,732,732,732,732,732,732,732,732,732,732,732,732,732,732,732,732,732,732,732,734,736,738,740,742,746,751,755,761,764,764,764,764,765,773,775,777,779,780,782,783,783,783,783,783,783,783,783,783,783,783,783,783,783,774,746,728,712,683,639,622,605,590,575,548,539,529,522,517,508],"ymouse":[633,633,633,633,633,633,633,633,633,633,633,633,633,633,633,633,633,633,633,633,633,633,633,633,633,633,633,633,633,633,633,633,633,633,633,633,633,633,633,633,633,633,633,633,633,633,633,633,633,633,633,633,620,614,596,592,583,582,582,581,580,580,580,580,580,580,580,580,580,580,580,580,580,580,580,586,595,600,604,608,612,619,622,626,629,632,637,637,637,637,637,637,637,637,637,637,637,636,635,633,633,633,633,633,633,633,633,633,633,633,633,633,633,633,633,633,633,633,633,633,633,633,633,633,633,633,633,633,633,633,633,633,633,633,633,633,633,633,633,633,633,633,633,633,633,633,633,633,633,633,633,633,633,633,632,627,607,593,584,579,579,579,593,621,653,685,689,689,689,689,689,689,689,689,689,689,689,689,689,689,689,689,689,689,689,689,689,689,687,686,686,683,679,673,665,655,652,651,651,651,650,645,643,640,638,635,629,629,628,628,628,628,628,628,628,628,628,628,626,624,614,598,564,545,521,472,393,359,323,289,252,195,172,148,130,118,97],"timestamp_mouse":[11,42,48,67,87,108,127,146,168,188,207,227,247,267,287,308,328,347,368,386,408,427,447,468,487,508,528,547,567,587,608,627,647,668,687,707,727,747,767,788,807,827,848,867,887,907,927,947,967,987,1008,1027,1047,1067,1088,1107,1127,1147,1167,1188,1206,1228,1248,1267,1287,1307,1328,1348,1367,1388,1407,1428,1447,1467,1488,1507,1527,1547,1567,1587,1608,1627,1648,1667,1688,1707,1726,1747,1767,1788,1807,1827,1848,1868,1887,1907,1927,1948,1967,1987,2008,2027,2047,2067,2088,2107,2127,2148,2167,2187,2208,2228,2248,2267,2288,2307,2327,2348,2368,2388,2408,2428,2448,2468,2488,2507,2528,2548,2567,2588,2606,2628,2648,2668,2688,2707,2728,2747,2767,2788,2807,2827,2848,2867,2887,2908,2928,2947,2967,2988,3007,3028,3047,3067,3087,3108,3127,3147,3168,3187,3207,3228,3247,3267,3288,3307,3328,3347,3367,3386,3407,3428,3447,3467,3487,3507,3528,3548,3567,3588,3607,3628,3647,3667,3687,3708,3728,3747,3767,3787,3808,3827,3848,3867,3887,3907,3927,3947,3967,3987,4008,4027,4048,4068,4087,4107,4127,4148,4167,4188,4207,4227,4248,4267,4288,4307,4327,4346,4367,4388,4407,4426,4447,4467,4487,4507,4527,4548,4566,4588,4608,4626,4647,4668,4687,4707,4727],"xSR":741.5,"ySR":573.95,"xT1":424.9,"yT1":0,"xT2":1058.1,"yT2":0,"toosoon":0,"cond_shown":"randomdotsizeEA","ratio_trial":900,"smaller_num":"9","larger_num":"10","correct_side":1,"subjID":"MarianaRozoSarmiento13","gender":"1","age":"11","school":"6"},{"start_time":1551901315052,"click_time":1551901316460,"finger_time":1551901316061,"fix_duration":250,"trial":16,"RT":1009,"MT":399,"sideResp":2,"stimulus":"img/900/equaldotsize/R/15_Ratio_900_L_9_R_10.png","xmouse":[790,790,790,790,790,790,790,790,790,790,790,790,790,790,790,790,790,790,790,790,790,790,790,790,790,790,790,790,790,790,790,790,790,790,790,790,790,790,790,790,790,790,790,790,790,790,791,795,801,820,845,908,944,976,1010,1036,1086,1100,1106,1109,1112,1115,1115,1115,1115,1115,1115,1115,1115,1115,1111],"ymouse":[649,649,649,649,648,648,648,648,648,648,648,648,648,648,648,648,648,648,648,648,648,648,648,648,648,648,648,648,648,648,648,648,648,648,648,648,648,648,648,648,648,648,648,648,648,648,648,641,628,606,576,509,468,422,377,342,262,238,222,214,206,191,186,179,167,157,132,123,115,102,88],"timestamp_mouse":[9,41,49,69,89,109,129,149,169,188,208,228,249,268,289,307,329,349,368,389,409,427,449,469,489,508,528,547,568,589,609,628,649,668,688,709,728,748,768,789,809,828,848,869,889,909,928,948,968,988,1009,1028,1049,1068,1088,1108,1128,1148,1168,1189,1208,1230,1249,1268,1287,1309,1328,1349,1368,1388,1408],"xSR":741.5,"ySR":573.95,"xT1":424.9,"yT1":0,"xT2":1058.1,"yT2":0,"toosoon":0,"cond_shown":"equaldotsize","ratio_trial":900,"smaller_num":"9","larger_num":"10","correct_side":2,"subjID":"MarianaRozoSarmiento13","gender":"1","age":"11","school":"6"},{"start_time":1551901317715,"click_time":1551901319041,"finger_time":1551901318720,"fix_duration":493.7310855499294,"trial":17,"RT":1005,"MT":321,"sideResp":1,"stimulus":"img/250/randomdotsizeEA/L/2_Ratio_250_L_16_R_4.png","xmouse":[768,768,768,768,768,768,768,768,768,768,768,768,768,768,768,768,768,768,768,768,768,768,768,768,768,768,768,768,768,768,768,768,768,768,768,768,768,768,768,768,768,768,768,768,768,768,768,768,764,756,742,718,694,642,622,602,587,573,550,547,543,542,540,535,534,530,524],"ymouse":[618,618,618,618,618,618,618,618,618,618,618,618,618,618,618,618,618,618,618,618,618,618,618,618,618,618,618,618,618,618,618,618,618,618,618,618,618,618,618,618,618,618,618,618,618,618,618,616,599,578,552,515,481,385,338,296,260,226,169,149,132,120,111,101,97,90,84],"timestamp_mouse":[9,25,45,65,85,105,126,146,166,186,205,226,257,265,285,306,325,345,365,386,405,425,445,465,485,506,526,546,566,585,606,625,645,666,685,705,725,745,766,785,805,825,844,865,885,905,926,945,965,985,1005,1025,1046,1065,1086,1105,1126,1145,1165,1185,1205,1225,1246,1265,1285,1305,1326],"xSR":741.5,"ySR":573.95,"xT1":424.9,"yT1":0,"xT2":1058.1,"yT2":0,"toosoon":0,"cond_shown":"randomdotsizeEA","ratio_trial":250,"smaller_num":"4","larger_num":"16","correct_side":1,"subjID":"MarianaRozoSarmiento13","gender":"1","age":"11","school":"6"},{"start_time":1551901321085,"click_time":1551901322581,"finger_time":1551901322081,"fix_duration":1204.4535924603701,"trial":18,"RT":996,"MT":500,"sideResp":2,"stimulus":"img/500/randomdotsizeEA/R/12_Ratio_500_L_1_R_2.png","xmouse":[801,801,801,801,801,801,801,801,801,801,801,801,801,801,801,801,801,801,801,801,801,801,801,801,801,801,801,801,801,801,801,801,801,801,801,801,801,801,801,801,801,801,801,801,801,805,814,825,840,856,898,919,924,930,934,948,958,966,975,983,1008,1016,1022,1030,1037,1052,1053,1055,1057,1059,1063,1063,1067,1069,1073],"ymouse":[636,636,636,636,636,636,636,636,636,636,636,636,636,636,636,636,636,636,636,636,636,636,636,636,636,636,636,636,636,636,636,636,636,636,636,636,636,636,636,636,636,636,636,636,636,625,611,593,574,552,493,447,422,399,380,341,318,297,276,256,195,177,163,154,147,135,133,129,125,120,112,110,107,105,99],"timestamp_mouse":[16,35,55,76,96,116,136,156,174,196,216,235,256,275,295,315,335,356,376,395,416,435,456,475,496,516,536,555,576,595,615,635,656,676,695,715,736,756,775,795,815,836,854,876,896,915,935,956,976,995,1014,1034,1055,1076,1095,1115,1135,1155,1175,1195,1215,1235,1255,1276,1294,1315,1336,1355,1375,1395,1415,1435,1455,1475,1496],"xSR":741.5,"ySR":573.95,"xT1":424.9,"yT1":0,"xT2":1058.1,"yT2":0,"toosoon":0,"cond_shown":"randomdotsizeEA","ratio_trial":500,"smaller_num":"1","larger_num":"2","correct_side":2,"subjID":"MarianaRozoSarmiento13","gender":"1","age":"11","school":"6"},{"start_time":1551901324904,"click_time":1551901325900,"finger_time":1551901325641,"fix_duration":1482.0045939166466,"trial":19,"RT":737,"MT":259,"sideResp":1,"stimulus":"img/250/equaldotsize/L/14_Ratio_250_L_12_R_3.png","xmouse":[787,787,791,791,791,791,791,791,791,791,791,791,791,791,791,791,791,791,791,791,791,791,791,791,791,791,791,791,791,791,791,791,791,791,782,775,765,753,739,703,675,653,626,600,561,546,533,518,505,473],"ymouse":[631,631,630,630,630,630,630,630,630,630,630,630,630,630,630,630,630,630,630,630,630,630,630,630,630,630,630,630,630,630,630,630,629,624,602,581,561,537,511,445,384,342,300,265,216,197,178,161,142,99],"timestamp_mouse":[33,37,56,76,96,117,136,155,176,196,216,236,257,277,296,316,336,356,376,397,417,437,457,476,495,517,536,555,576,596,617,636,656,676,696,716,737,757,776,797,816,836,857,876,896,917,936,956,976,996],"xSR":741.5,"ySR":573.95,"xT1":424.9,"yT1":0,"xT2":1058.1,"yT2":0,"toosoon":0,"cond_shown":"equaldotsize","ratio_trial":250,"smaller_num":"3","larger_num":"12","correct_side":1,"subjID":"MarianaRozoSarmiento13","gender":"1","age":"11","school":"6"},{"start_time":1551901327706,"click_time":1551901329240,"finger_time":1551901328900,"fix_duration":865.2648274690163,"trial":20,"RT":1194,"MT":340,"sideResp":1,"stimulus":"img/750/equaldotsize/L/8_Ratio_750_L_4_R_3.png","xmouse":[768,768,768,768,768,768,768,768,768,768,768,768,768,768,768,768,768,768,768,768,768,768,768,768,768,768,768,768,768,768,768,768,768,768,768,768,768,768,768,768,768,768,768,768,767,764,762,759,757,754,754,754,754,754,754,754,754,753,751,740,731,710,695,680,642,618,592,567,548,533,527,526,523,517,507,500,494],"ymouse":[636,636,636,636,636,636,636,636,636,636,636,636,636,636,636,636,636,636,636,636,636,636,636,636,636,636,636,636,636,636,636,636,636,636,636,636,636,636,636,636,636,636,636,635,625,617,610,601,590,584,584,584,584,584,584,584,584,582,578,555,536,486,447,405,317,280,248,218,194,169,152,141,131,124,114,108,99],"timestamp_mouse":[15,34,55,75,95,114,135,155,175,194,214,235,255,274,294,314,334,354,375,394,414,434,455,474,512,515,534,554,574,594,614,635,654,673,694,714,734,753,775,794,814,834,855,875,894,914,934,953,974,994,1014,1034,1054,1074,1095,1115,1135,1153,1175,1194,1214,1234,1255,1274,1294,1314,1334,1354,1375,1395,1415,1434,1455,1474,1494,1514,1534],"xSR":741.5,"ySR":573.95,"xT1":424.9,"yT1":0,"xT2":1058.1,"yT2":0,"toosoon":0,"cond_shown":"equaldotsize","ratio_trial":750,"smaller_num":"3","larger_num":"4","correct_side":1,"subjID":"MarianaRozoSarmiento13","gender":"1","age":"11","school":"6"},{"start_time":1551901332127,"click_time":1551901333840,"finger_time":1551901333300,"fix_duration":604.3398023803244,"trial":21,"RT":1173,"MT":540,"sideResp":2,"stimulus":"img/750/randomdotsizeEA/R/15_Ratio_750_L_9_R_12.png","xmouse":[790,790,790,790,790,790,790,790,790,790,790,790,790,790,790,790,790,790,790,790,790,790,790,790,790,790,790,790,790,790,790,790,790,790,790,790,790,790,790,790,790,790,790,790,790,790,790,790,790,790,790,790,790,790,792,795,801,811,845,881,900,923,946,984,993,996,1002,1009,1030,1037,1053,1067,1078,1085,1086,1086,1086,1086,1086,1086,1088,1089,1094,1099,1102,1105],"ymouse":[620,620,620,620,620,620,620,620,620,620,620,620,620,620,620,620,620,620,620,620,620,620,620,620,620,620,620,620,620,620,620,620,620,620,620,620,620,620,620,620,620,620,620,620,620,620,620,620,620,620,620,620,620,620,618,611,602,588,544,495,463,434,407,343,313,288,262,244,219,210,199,188,180,170,169,169,169,167,157,152,142,135,126,112,105,96],"timestamp_mouse":[13,38,54,73,94,114,132,153,174,192,214,234,254,273,294,313,334,353,373,393,414,433,453,474,493,513,534,554,572,594,613,632,654,673,692,714,734,754,773,793,814,834,853,873,893,914,933,954,973,994,1014,1033,1053,1073,1093,1113,1133,1153,1173,1193,1213,1233,1254,1273,1293,1314,1334,1353,1373,1393,1413,1432,1453,1473,1493,1513,1533,1553,1573,1593,1613,1633,1653,1674,1692,1713],"xSR":741.5,"ySR":573.95,"xT1":424.9,"yT1":0,"xT2":1058.1,"yT2":0,"toosoon":0,"cond_shown":"randomdotsizeEA","ratio_trial":750,"smaller_num":"9","larger_num":"12","correct_side":2,"subjID":"MarianaRozoSarmiento13","gender":"1","age":"11","school":"6"},{"start_time":1551901335618,"click_time":1551901336720,"finger_time":1551901336401,"fix_duration":957.6589022862227,"trial":22,"RT":783,"MT":319,"sideResp":1,"stimulus":"img/750/equaldotanddens/L/13_Ratio_750_L_8_R_6.png","xmouse":[793,793,793,793,793,793,793,793,793,793,793,793,793,793,793,793,793,793,793,793,793,793,793,793,793,793,793,793,793,793,793,793,793,793,793,793,793,791,789,768,758,746,734,704,687,666,653,639,606,588,567,556,549,542,532,524],"ymouse":[629,629,629,629,629,629,629,629,629,629,629,629,629,629,629,629,629,629,629,629,629,629,629,629,629,629,629,629,629,629,629,629,629,629,629,629,626,615,599,552,531,505,474,409,370,314,285,254,203,179,152,131,115,102,84,75],"timestamp_mouse":[11,35,42,62,83,102,123,142,163,182,203,221,242,261,283,302,323,343,363,382,401,422,442,462,482,503,522,543,562,582,603,623,642,663,681,703,722,743,761,783,802,822,842,863,881,902,922,942,963,981,1003,1023,1042,1061,1082,1102],"xSR":741.5,"ySR":573.95,"xT1":424.9,"yT1":0,"xT2":1058.1,"yT2":0,"toosoon":0,"cond_shown":"equaldotanddens","ratio_trial":750,"smaller_num":"6","larger_num":"8","correct_side":1,"subjID":"MarianaRozoSarmiento13","gender":"1","age":"11","school":"6"},{"start_time":1551901338617,"click_time":1551901339740,"finger_time":1551901339420,"fix_duration":1175.9221047808364,"trial":23,"RT":803,"MT":320,"sideResp":1,"stimulus":"img/500/equaldotsize/L/7_Ratio_500_L_10_R_5.png","xmouse":[778,778,778,778,778,778,778,778,778,778,778,778,778,778,778,778,778,778,778,778,778,778,778,778,778,778,778,778,778,778,778,778,778,778,778,778,778,779,779,766,751,731,712,688,613,592,583,576,568,563,558,554,549,544,526,518,511],"ymouse":[627,627,627,627,627,627,627,627,627,627,627,627,627,627,627,627,627,627,627,627,627,627,627,627,627,627,627,627,627,627,627,627,627,627,627,627,627,627,621,574,540,498,459,419,311,284,265,250,223,210,197,188,177,167,132,108,95],"timestamp_mouse":[5,33,44,63,83,103,123,143,164,184,203,224,244,262,284,303,322,344,364,383,403,424,444,463,483,504,524,544,563,584,604,622,644,663,684,703,724,743,763,784,803,823,843,863,883,903,923,943,964,982,1003,1023,1043,1063,1083,1103,1123],"xSR":741.5,"ySR":573.95,"xT1":424.9,"yT1":0,"xT2":1058.1,"yT2":0,"toosoon":0,"cond_shown":"equaldotsize","ratio_trial":500,"smaller_num":"5","larger_num":"10","correct_side":1,"subjID":"MarianaRozoSarmiento13","gender":"1","age":"11","school":"6"},{"start_time":1551901343029,"click_time":1551901344300,"finger_time":1551901343820,"fix_duration":1007.3353865739124,"trial":24,"RT":791,"MT":480,"sideResp":1,"stimulus":"img/500/equaldotanddens/L/5_Ratio_500_L_4_R_2.png","xmouse":[796,796,796,796,796,796,796,796,796,796,796,796,796,796,796,796,796,796,796,796,796,796,796,796,796,796,796,796,796,796,796,796,796,796,796,796,796,792,777,763,745,730,696,681,661,638,626,614,594,590,586,579,570,560,559,556,555,549,545,540,537,531,527,512],"ymouse":[640,640,640,640,640,640,640,640,640,640,640,640,640,640,640,640,640,640,640,640,640,640,640,640,640,640,640,640,640,640,640,640,640,640,640,638,632,621,588,561,535,506,430,397,357,309,285,259,193,165,148,127,114,104,102,100,98,95,95,95,93,91,85,72],"timestamp_mouse":[11,32,52,72,92,110,131,151,172,190,211,231,252,271,292,312,332,351,371,392,411,432,452,471,490,511,531,552,571,591,612,631,651,671,691,711,732,751,771,791,811,831,852,870,890,911,931,951,972,991,1011,1032,1051,1071,1091,1111,1132,1152,1171,1190,1211,1231,1252,1270],"xSR":741.5,"ySR":573.95,"xT1":424.9,"yT1":0,"xT2":1058.1,"yT2":0,"toosoon":0,"cond_shown":"equaldotanddens","ratio_trial":500,"smaller_num":"2","larger_num":"4","correct_side":1,"subjID":"MarianaRozoSarmiento13","gender":"1","age":"11","school":"6"},{"start_time":1551901345508,"click_time":1551901346800,"finger_time":1551901346300,"fix_duration":285.38868331491585,"trial":25,"RT":792,"MT":500,"sideResp":2,"stimulus":"img/500/equaldotsize/R/15_Ratio_500_L_1_R_2.png","xmouse":[807,807,807,807,807,807,807,807,807,807,807,807,807,807,807,807,807,807,807,807,807,805,803,801,800,800,800,800,800,800,800,800,800,800,800,800,800,806,817,853,874,913,939,965,1007,1027,1041,1057,1075,1102,1107,1110,1110,1110,1112,1117,1123,1129,1136,1145,1147,1147,1147,1147,1147],"ymouse":[628,628,628,628,628,628,628,628,628,628,628,628,628,628,628,628,628,628,628,628,628,628,627,626,626,626,626,626,626,626,626,626,626,626,625,621,613,602,585,539,507,455,421,383,327,303,281,260,238,193,179,174,171,170,164,159,151,142,135,125,122,117,112,105,91],"timestamp_mouse":[13,38,52,72,93,112,132,152,172,192,213,233,252,271,293,313,331,352,373,393,413,433,451,472,492,512,533,552,573,592,612,632,652,672,691,711,732,752,773,792,812,832,852,873,892,912,931,952,972,992,1013,1033,1053,1072,1091,1112,1132,1152,1173,1192,1212,1232,1253,1273,1292],"xSR":741.5,"ySR":573.95,"xT1":424.9,"yT1":0,"xT2":1058.1,"yT2":0,"toosoon":0,"cond_shown":"equaldotsize","ratio_trial":500,"smaller_num":"1","larger_num":"2","correct_side":2,"subjID":"MarianaRozoSarmiento13","gender":"1","age":"11","school":"6"},{"start_time":1551901347934,"click_time":1551901349100,"finger_time":1551901348801,"fix_duration":250,"trial":26,"RT":867,"MT":299,"sideResp":1,"stimulus":"img/900/equaldotsize/L/10_Ratio_900_L_20_R_18.png","xmouse":[782,782,782,782,782,782,782,782,782,782,782,782,782,782,782,782,782,782,782,782,782,782,782,782,782,782,782,782,782,782,782,782,782,782,782,782,782,782,782,782,782,782,779,756,736,716,694,679,659,649,631,618,604,589,578,565,549,530,521],"ymouse":[604,604,604,604,604,605,607,609,612,615,617,623,624,625,625,625,625,625,625,625,625,625,625,625,625,625,625,625,625,625,625,625,625,625,625,625,625,625,625,625,625,618,596,524,482,438,396,362,308,280,237,206,179,141,122,106,84,69,65],"timestamp_mouse":[10,29,47,67,86,106,127,147,166,186,206,227,246,266,286,306,326,346,366,387,406,426,446,466,486,506,526,546,566,587,606,626,647,666,686,706,726,745,767,787,806,825,846,867,887,907,926,946,966,986,1006,1025,1046,1067,1087,1107,1126,1147,1166],"xSR":741.5,"ySR":573.95,"xT1":424.9,"yT1":0,"xT2":1058.1,"yT2":0,"toosoon":0,"cond_shown":"equaldotsize","ratio_trial":900,"smaller_num":"18","larger_num":"20","correct_side":1,"subjID":"MarianaRozoSarmiento13","gender":"1","age":"11","school":"6"},{"start_time":1551901350497,"click_time":1551901351540,"finger_time":1551901351180,"fix_duration":553.6250052353889,"trial":27,"RT":683,"MT":360,"sideResp":1,"stimulus":"img/250/randomdotsizeEA/L/15_Ratio_250_L_12_R_3.png","xmouse":[791,791,791,791,791,791,791,791,791,791,791,791,791,791,791,791,791,791,791,791,791,791,791,791,791,791,791,791,791,791,791,788,785,780,774,753,733,708,679,622,605,597,586,578,560,550,546,542,538,535,530,528,524],"ymouse":[628,628,628,628,628,628,628,628,628,628,628,628,628,628,628,628,628,628,628,628,628,628,628,628,628,628,628,628,628,628,628,622,610,590,567,495,451,403,338,240,203,173,141,123,88,77,73,67,62,56,47,45,43],"timestamp_mouse":[10,33,42,64,83,104,123,143,163,184,204,223,243,262,284,303,323,344,363,383,404,423,444,464,483,503,524,543,563,583,602,623,643,663,683,703,723,744,763,784,803,823,843,862,884,903,924,944,964,983,1003,1023,1043],"xSR":741.5,"ySR":573.95,"xT1":424.9,"yT1":0,"xT2":1058.1,"yT2":0,"toosoon":0,"cond_shown":"randomdotsizeEA","ratio_trial":250,"smaller_num":"3","larger_num":"12","correct_side":1,"subjID":"MarianaRozoSarmiento13","gender":"1","age":"11","school":"6"},{"start_time":1551901352989,"click_time":1551901353779,"finger_time":1551901353580,"fix_duration":647.2640971053977,"trial":28,"RT":591,"MT":199,"sideResp":1,"stimulus":"img/250/equaldotsize/L/5_Ratio_250_L_24_R_6.png","xmouse":[783,783,783,783,783,783,783,783,783,783,783,783,783,783,783,783,783,783,783,783,783,783,783,783,783,783,783,783,781,744,724,704,689,667,647,603,579,538,503,470],"ymouse":[613,613,613,613,613,613,613,613,613,613,613,613,613,613,613,613,613,613,613,613,613,613,613,613,613,613,613,613,603,530,486,442,400,356,312,233,196,144,111,81],"timestamp_mouse":[10,38,50,70,90,110,130,151,170,190,212,230,250,270,291,311,331,350,370,390,410,430,450,471,490,511,530,550,570,591,610,630,650,670,690,710,730,750,770,790],"xSR":741.5,"ySR":573.95,"xT1":424.9,"yT1":0,"xT2":1058.1,"yT2":0,"toosoon":0,"cond_shown":"equaldotsize","ratio_trial":250,"smaller_num":"6","larger_num":"24","correct_side":1,"subjID":"MarianaRozoSarmiento13","gender":"1","age":"11","school":"6"},{"start_time":1551901356139,"click_time":1551901357699,"finger_time":1551901357379,"fix_duration":1177.6320884985905,"trial":29,"RT":1240,"MT":320,"sideResp":2,"stimulus":"img/900/randomdotsizeEA/L/8_Ratio_900_L_20_R_18.png","xmouse":[791,791,791,791,791,791,791,791,791,791,791,791,791,791,791,791,791,791,791,791,791,791,791,791,791,791,791,791,791,791,791,791,791,791,791,791,791,791,791,791,791,791,791,791,791,791,791,791,791,791,791,791,791,791,791,791,791,791,791,791,803,821,843,883,899,912,928,943,977,1002,1015,1032,1049,1082,1089,1093,1098,1100,1107],"ymouse":[631,631,631,631,631,631,631,631,631,631,631,631,631,631,631,631,631,631,631,631,631,631,631,631,631,631,631,631,631,631,631,631,631,631,631,631,631,631,631,631,631,631,631,631,631,631,631,631,631,631,631,631,631,631,631,631,631,631,631,630,614,592,574,532,511,492,473,453,407,361,323,289,255,202,181,159,141,124,89],"timestamp_mouse":[1,20,43,60,80,100,120,141,160,181,200,220,240,260,280,301,320,341,360,380,401,421,440,460,480,501,520,540,560,581,600,621,640,660,680,700,720,740,761,780,800,820,840,860,881,901,920,940,960,981,1000,1020,1040,1060,1080,1101,1120,1140,1160,1180,1200,1221,1240,1260,1281,1300,1320,1340,1360,1380,1400,1420,1441,1460,1481,1500,1520,1540,1560],"xSR":741.5,"ySR":573.95,"xT1":424.9,"yT1":0,"xT2":1058.1,"yT2":0,"toosoon":0,"cond_shown":"randomdotsizeEA","ratio_trial":900,"smaller_num":"18","larger_num":"20","correct_side":1,"subjID":"MarianaRozoSarmiento13","gender":"1","age":"11","school":"6"},{"start_time":1551901360352,"click_time":1551901361519,"finger_time":1551901360999,"fix_duration":250,"trial":30,"RT":647,"MT":520,"sideResp":2,"stimulus":"img/250/equaldotanddens/R/6_Ratio_250_L_6_R_24.png","xmouse":[782,782,782,782,782,782,782,782,782,782,782,782,782,782,782,782,782,782,782,782,782,782,782,782,782,782,782,782,782,789,802,830,902,936,962,984,1000,1011,1016,1020,1020,1020,1013,1013,1013,1014,1015,1021,1022,1023,1024,1027,1031,1032,1035,1037,1039,1052,1059],"ymouse":[642,642,642,642,642,642,642,642,642,642,642,642,642,642,642,642,642,642,642,642,642,642,642,642,642,642,642,642,642,632,615,590,536,507,473,433,389,303,267,252,233,212,167,150,138,126,114,95,93,89,86,83,80,79,78,77,74,74,74],"timestamp_mouse":[10,30,47,67,88,107,127,148,167,187,207,227,248,267,288,307,328,347,367,387,407,427,447,468,487,507,527,547,567,589,608,627,647,667,687,707,728,747,768,787,807,827,847,868,887,907,927,947,967,987,1007,1027,1047,1068,1087,1107,1127,1147,1167],"xSR":741.5,"ySR":573.95,"xT1":424.9,"yT1":0,"xT2":1058.1,"yT2":0,"toosoon":0,"cond_shown":"equaldotanddens","ratio_trial":250,"smaller_num":"6","larger_num":"24","correct_side":2,"subjID":"MarianaRozoSarmiento13","gender":"1","age":"11","school":"6"},{"start_time":1551901363443,"click_time":1551901365040,"finger_time":1551901364499,"fix_duration":1263.715282017315,"trial":31,"RT":1056,"MT":541,"sideResp":2,"stimulus":"img/750/randomdotsizeEA/R/5_Ratio_750_L_15_R_20.png","xmouse":[763,763,763,763,763,763,763,763,763,763,763,763,763,763,763,763,763,763,763,763,763,763,763,763,763,763,763,763,763,763,763,763,763,763,763,763,763,763,763,763,763,763,763,763,763,763,763,764,766,771,777,784,805,823,836,855,877,917,935,956,982,1006,1035,1039,1042,1046,1052,1067,1075,1078,1081,1083,1084,1084,1085,1085,1086,1088,1089,1089],"ymouse":[632,632,632,632,632,632,632,632,632,632,632,632,632,632,632,632,632,632,632,632,632,632,632,632,632,632,632,632,632,632,632,632,632,632,632,632,632,632,632,632,632,632,632,632,632,632,632,631,627,620,611,601,572,548,531,516,500,460,436,409,372,340,282,255,227,209,194,169,158,148,137,128,121,120,117,114,110,106,102,99],"timestamp_mouse":[22,39,56,76,96,116,136,156,176,196,217,237,256,276,296,316,337,356,376,396,416,437,456,476,496,516,536,557,576,596,617,636,656,676,697,716,736,756,776,797,817,836,856,877,896,916,936,956,976,996,1017,1037,1056,1077,1096,1116,1137,1156,1176,1196,1217,1236,1256,1276,1296,1316,1336,1357,1376,1396,1416,1436,1456,1477,1496,1517,1536,1556,1576,1597],"xSR":741.5,"ySR":573.95,"xT1":424.9,"yT1":0,"xT2":1058.1,"yT2":0,"toosoon":0,"cond_shown":"randomdotsizeEA","ratio_trial":750,"smaller_num":"15","larger_num":"20","correct_side":2,"subjID":"MarianaRozoSarmiento13","gender":"1","age":"11","school":"6"},{"start_time":1551901367571,"click_time":1551901369119,"finger_time":1551901368519,"fix_duration":250,"trial":32,"RT":948,"MT":600,"sideResp":1,"stimulus":"img/900/equaldotanddens/L/8_Ratio_900_L_20_R_18.png","xmouse":[786,786,786,786,786,786,786,786,786,786,786,786,786,786,786,786,786,786,786,786,786,786,786,786,786,786,786,786,786,786,786,786,786,786,786,786,786,786,786,786,786,784,783,781,779,776,771,767,761,757,742,730,715,695,679,666,649,634,615,597,587,579,577,575,572,570,563,559,554,551,546,537,534,531,531,530,527,521],"ymouse":[653,651,651,651,651,651,651,651,651,651,651,651,651,651,651,651,651,651,651,651,651,651,651,651,651,651,651,651,651,651,651,651,651,651,651,651,651,651,651,650,648,639,636,632,627,616,586,555,527,495,424,393,356,320,288,259,216,180,151,129,118,111,110,107,104,102,97,96,93,93,93,92,91,89,89,89,88,84],"timestamp_mouse":[11,40,48,68,88,109,129,148,169,189,209,229,248,268,288,308,328,348,369,388,410,428,449,468,489,508,528,549,569,589,608,628,648,668,688,708,728,749,768,789,808,828,848,868,888,908,928,948,968,989,1009,1028,1047,1068,1088,1108,1128,1148,1168,1188,1209,1228,1249,1268,1288,1308,1328,1348,1368,1389,1408,1428,1448,1469,1488,1508,1528,1548],"xSR":741.5,"ySR":573.95,"xT1":424.9,"yT1":0,"xT2":1058.1,"yT2":0,"toosoon":0,"cond_shown":"equaldotanddens","ratio_trial":900,"smaller_num":"18","larger_num":"20","correct_side":1,"subjID":"MarianaRozoSarmiento13","gender":"1","age":"11","school":"6"},{"start_time":1551901371211,"click_time":1551901372699,"finger_time":1551901372360,"fix_duration":1351.79104689925,"trial":33,"RT":1149,"MT":339,"sideResp":2,"stimulus":"img/900/randomdotsizeEA/R/15_Ratio_900_L_9_R_10.png","xmouse":[807,807,807,807,807,807,807,807,807,807,807,807,807,807,807,807,807,807,807,807,807,807,807,807,807,807,807,807,807,807,807,807,807,807,807,807,807,807,807,807,807,807,807,807,807,807,807,807,807,807,808,809,813,817,818,820,824,829,835,849,857,873,894,915,944,969,989,1005,1023,1060,1074,1082,1088,1092,1096],"ymouse":[619,619,619,619,619,619,619,619,619,619,619,619,619,619,619,619,619,619,619,619,619,619,619,619,619,619,619,619,619,619,619,619,619,619,619,619,619,619,619,619,619,619,619,619,619,619,619,619,619,619,619,619,614,607,593,588,578,567,554,520,500,476,446,414,354,316,291,267,243,192,168,142,117,104,97],"timestamp_mouse":[8,36,49,68,89,108,128,148,169,188,208,229,248,268,289,308,329,349,368,389,409,428,448,468,488,509,529,548,569,588,609,629,648,668,688,708,728,748,768,788,809,828,848,868,889,909,928,948,968,988,1009,1029,1048,1068,1089,1108,1128,1149,1168,1188,1209,1230,1248,1268,1288,1308,1329,1348,1368,1389,1408,1428,1449,1469,1488],"xSR":741.5,"ySR":573.95,"xT1":424.9,"yT1":0,"xT2":1058.1,"yT2":0,"toosoon":0,"cond_shown":"randomdotsizeEA","ratio_trial":900,"smaller_num":"9","larger_num":"10","correct_side":2,"subjID":"MarianaRozoSarmiento13","gender":"1","age":"11","school":"6"},{"start_time":1551901374933,"click_time":1551901375999,"finger_time":1551901375699,"fix_duration":1252.244733462684,"trial":34,"RT":766,"MT":300,"sideResp":1,"stimulus":"img/750/equaldotanddens/L/10_Ratio_750_L_4_R_3.png","xmouse":[786,786,786,786,786,786,786,786,786,786,786,786,786,786,786,786,786,786,786,786,786,786,786,786,786,786,786,786,786,786,786,786,786,786,786,786,786,778,751,736,702,675,623,599,584,570,558,548,529,519,516,512,509,504],"ymouse":[622,622,622,622,622,622,622,622,622,622,622,622,622,622,622,622,622,622,622,622,622,622,622,622,622,622,622,622,622,622,622,622,622,622,622,621,617,593,528,497,445,408,338,301,265,236,210,184,140,122,115,110,106,92],"timestamp_mouse":[8,31,46,66,86,106,126,146,166,186,207,226,247,266,286,306,326,347,366,386,406,426,446,467,487,507,526,547,567,587,606,627,648,667,686,706,727,747,766,787,806,826,847,867,887,906,927,946,966,987,1006,1026,1046,1066],"xSR":741.5,"ySR":573.95,"xT1":424.9,"yT1":0,"xT2":1058.1,"yT2":0,"toosoon":0,"cond_shown":"equaldotanddens","ratio_trial":750,"smaller_num":"3","larger_num":"4","correct_side":1,"subjID":"MarianaRozoSarmiento13","gender":"1","age":"11","school":"6"},{"start_time":1551901376952,"click_time":1551901378181,"finger_time":1551901377720,"fix_duration":250,"trial":35,"RT":768,"MT":461,"sideResp":2,"stimulus":"img/500/equaldotanddens/R/3_Ratio_500_L_10_R_20.png","xmouse":[800,800,800,800,800,800,800,800,800,800,800,800,800,800,800,800,800,800,800,800,800,800,800,800,800,800,800,800,800,800,800,800,800,800,800,800,800,800,807,822,841,864,904,918,936,956,977,1015,1021,1034,1039,1044,1048,1048,1048,1048,1048,1048,1050,1054,1057,1061],"ymouse":[614,614,614,614,614,614,614,614,614,614,614,614,614,614,614,614,614,614,614,614,614,614,614,614,614,614,614,614,614,614,614,614,614,614,614,614,613,602,561,530,498,466,375,321,265,224,192,115,103,75,68,61,53,53,53,53,54,58,59,60,61,66],"timestamp_mouse":[7,30,47,67,87,107,128,147,167,187,207,227,247,267,288,307,328,347,368,388,407,428,448,468,488,507,527,548,568,588,608,627,648,667,687,707,728,747,768,787,808,827,847,868,888,909,928,947,967,987,1007,1027,1048,1067,1088,1108,1127,1148,1168,1188,1207,1229],"xSR":741.5,"ySR":573.95,"xT1":424.9,"yT1":0,"xT2":1058.1,"yT2":0,"toosoon":0,"cond_shown":"equaldotanddens","ratio_trial":500,"smaller_num":"10","larger_num":"20","correct_side":2,"subjID":"MarianaRozoSarmiento13","gender":"1","age":"11","school":"6"},{"start_time":1551901380142,"click_time":1551901381099,"finger_time":1551901380899,"fix_duration":921.8983800664248,"trial":36,"RT":757,"MT":200,"sideResp":1,"stimulus":"img/750/equaldotanddens/L/6_Ratio_750_L_24_R_18.png","xmouse":[791,791,791,791,791,791,791,791,791,791,791,791,791,791,791,791,791,791,791,791,791,791,791,791,791,791,791,791,791,791,791,791,791,791,791,787,776,746,715,692,666,644,600,581,563,532,508,487],"ymouse":[629,629,629,629,629,629,629,629,629,629,629,629,629,629,629,629,629,629,629,629,629,629,629,629,629,629,629,629,629,629,629,629,629,629,622,609,586,540,503,469,437,397,316,277,235,183,141,94],"timestamp_mouse":[17,37,57,77,97,118,137,158,177,197,217,238,257,277,298,318,337,358,378,397,417,437,458,477,497,517,537,557,577,597,617,637,657,677,698,719,737,757,777,798,818,837,857,877,897,918,938,957],"xSR":741.5,"ySR":573.95,"xT1":424.9,"yT1":0,"xT2":1058.1,"yT2":0,"toosoon":0,"cond_shown":"equaldotanddens","ratio_trial":750,"smaller_num":"18","larger_num":"24","correct_side":1,"subjID":"MarianaRozoSarmiento13","gender":"1","age":"11","school":"6"},{"start_time":1551901382251,"click_time":1551901383759,"finger_time":1551901383419,"fix_duration":250,"trial":37,"RT":1168,"MT":340,"sideResp":1,"stimulus":"img/900/equaldotanddens/R/7_Ratio_900_L_9_R_10.png","xmouse":[768,768,768,768,768,768,768,768,768,768,768,768,768,768,768,768,768,768,768,768,768,768,768,768,768,768,768,768,768,768,768,768,768,768,768,768,768,768,768,768,768,768,768,768,768,768,768,768,768,768,768,768,768,768,768,768,768,754,744,739,734,729,719,704,695,680,664,635,622,612,602,589,557,539,532,524],"ymouse":[621,621,621,623,623,623,623,623,623,623,623,623,623,623,623,623,623,623,623,623,623,623,623,623,623,623,623,623,623,623,623,623,623,623,623,623,623,623,623,623,623,623,623,623,623,623,623,623,623,623,623,623,623,623,623,623,613,580,560,542,527,511,486,458,435,408,382,314,283,255,224,190,118,75,59,50],"timestamp_mouse":[9,39,48,69,88,108,129,148,169,189,208,228,248,269,288,308,329,349,369,388,409,429,448,469,488,508,529,550,569,589,608,629,649,668,689,709,729,748,769,788,809,828,848,868,888,909,929,949,968,988,1008,1029,1049,1068,1089,1109,1128,1148,1168,1188,1209,1229,1248,1268,1288,1309,1328,1349,1368,1388,1408,1428,1449,1468,1488,1508],"xSR":741.5,"ySR":573.95,"xT1":424.9,"yT1":0,"xT2":1058.1,"yT2":0,"toosoon":0,"cond_shown":"equaldotanddens","ratio_trial":900,"smaller_num":"9","larger_num":"10","correct_side":2,"subjID":"MarianaRozoSarmiento13","gender":"1","age":"11","school":"6"},{"start_time":1551901384851,"click_time":1551901386601,"finger_time":1551901386299,"fix_duration":250,"trial":38,"RT":1448,"MT":302,"sideResp":2,"stimulus":"img/750/randomdotsizeEA/L/1_Ratio_750_L_20_R_15.png","xmouse":[787,787,787,787,787,788,788,788,788,788,788,788,788,788,788,788,788,788,788,788,788,788,788,788,788,788,788,788,788,788,788,788,788,788,788,788,788,788,788,788,788,788,788,788,788,788,788,788,788,788,788,788,788,788,788,788,788,788,788,788,788,788,788,788,788,788,788,786,786,786,786,786,801,813,829,850,880,957,993,1016,1035,1047,1066,1070,1071,1071,1073,1083],"ymouse":[628,628,628,632,635,639,639,639,639,639,639,639,639,639,639,639,639,639,639,639,639,639,639,639,639,639,639,639,639,639,639,639,639,639,639,639,639,639,639,639,639,639,639,639,639,639,639,639,639,639,639,639,639,639,639,639,639,639,639,639,639,639,639,636,633,630,626,614,610,607,603,598,563,539,515,488,455,379,341,309,282,256,194,181,169,155,138,88],"timestamp_mouse":[10,33,48,68,89,108,128,148,168,189,208,229,248,269,289,308,330,349,368,388,408,428,448,469,488,508,528,548,568,588,608,629,648,669,689,709,728,748,768,788,808,829,848,869,888,910,929,949,969,989,1008,1029,1049,1068,1088,1108,1128,1148,1168,1188,1209,1228,1248,1269,1289,1309,1328,1350,1368,1388,1408,1429,1448,1468,1488,1508,1528,1548,1569,1588,1608,1628,1648,1669,1688,1709,1729,1749],"xSR":741.5,"ySR":573.95,"xT1":424.9,"yT1":0,"xT2":1058.1,"yT2":0,"toosoon":0,"cond_shown":"randomdotsizeEA","ratio_trial":750,"smaller_num":"15","larger_num":"20","correct_side":1,"subjID":"MarianaRozoSarmiento13","gender":"1","age":"11","school":"6"},{"start_time":1551901387651,"click_time":1551901389360,"finger_time":1551901389039,"fix_duration":250,"trial":39,"RT":1388,"MT":321,"sideResp":2,"stimulus":"img/900/equaldotsize/R/11_Ratio_900_L_18_R_20.png","xmouse":[774,775,775,777,777,777,777,777,777,777,778,778,778,778,778,778,778,778,778,778,778,778,778,778,778,778,778,778,778,778,778,778,778,778,778,778,778,778,778,778,778,778,778,778,778,778,778,778,778,778,778,778,778,778,778,778,778,778,778,778,778,780,781,784,786,787,792,804,814,827,843,861,905,929,977,1014,1054,1110,1123,1129,1135,1137,1140,1139,1136,1135],"ymouse":[651,650,648,647,647,647,647,647,647,647,647,647,647,647,647,647,647,647,647,647,647,647,647,647,647,647,647,647,647,647,647,647,647,647,647,647,647,647,647,647,647,647,647,647,647,647,647,647,647,647,647,647,647,647,647,647,647,647,647,645,642,638,631,627,623,619,612,594,580,561,542,517,458,426,379,350,317,252,221,190,165,146,126,118,105,98],"timestamp_mouse":[9,28,48,68,88,109,128,148,169,188,208,229,249,268,288,308,328,348,369,389,408,428,449,469,488,508,529,548,570,588,608,628,648,669,689,709,728,749,768,789,808,828,849,868,888,909,929,949,970,989,1009,1028,1048,1069,1089,1108,1129,1148,1169,1188,1208,1229,1248,1270,1289,1308,1328,1348,1368,1388,1409,1429,1448,1469,1489,1508,1528,1548,1568,1588,1608,1629,1648,1668,1688,1708],"xSR":741.5,"ySR":573.95,"xT1":424.9,"yT1":0,"xT2":1058.1,"yT2":0,"toosoon":0,"cond_shown":"equaldotsize","ratio_trial":900,"smaller_num":"18","larger_num":"20","correct_side":2,"subjID":"MarianaRozoSarmiento13","gender":"1","age":"11","school":"6"},{"start_time":1551901390794,"click_time":1551901392181,"finger_time":1551901391820,"fix_duration":493.19733246016926,"trial":40,"RT":1026,"MT":361,"sideResp":2,"stimulus":"img/250/randomdotsizeEA/R/10_Ratio_250_L_4_R_16.png","xmouse":[777,777,777,777,777,777,778,779,779,779,779,779,779,779,779,779,779,779,779,779,779,779,779,779,779,779,779,779,779,779,779,779,779,779,779,779,779,779,779,779,779,779,779,779,779,779,779,780,781,787,813,837,865,900,944,1071,1117,1170,1182,1184,1184,1182,1182,1182,1182,1182,1179,1177,1172,1156],"ymouse":[629,629,629,629,629,630,630,631,632,632,632,632,632,632,632,632,632,632,632,632,632,632,632,632,632,632,632,632,632,632,632,632,632,632,632,632,632,632,632,632,632,632,632,632,632,632,632,632,630,619,586,563,538,505,460,319,273,218,189,162,121,107,95,83,71,50,45,44,44,44],"timestamp_mouse":[9,26,46,65,85,107,126,146,165,185,205,225,245,265,285,305,325,345,365,386,406,425,445,465,485,505,526,545,566,585,606,626,645,666,686,706,726,746,765,785,805,826,846,866,886,907,925,945,966,986,1006,1026,1045,1065,1086,1105,1125,1145,1165,1185,1205,1226,1246,1265,1286,1305,1325,1346,1366,1386],"xSR":741.5,"ySR":573.95,"xT1":424.9,"yT1":0,"xT2":1058.1,"yT2":0,"toosoon":0,"cond_shown":"randomdotsizeEA","ratio_trial":250,"smaller_num":"4","larger_num":"16","correct_side":2,"subjID":"MarianaRozoSarmiento13","gender":"1","age":"11","school":"6"},{"start_time":1551901393350,"click_time":1551901394939,"finger_time":1551901394299,"fix_duration":250,"trial":41,"RT":949,"MT":640,"sideResp":1,"stimulus":"img/750/equaldotsize/L/6_Ratio_750_L_24_R_18.png","xmouse":[773,773,773,773,773,773,773,773,773,773,773,773,773,773,773,773,773,773,773,773,773,773,773,773,773,773,773,773,773,773,773,773,773,773,773,773,773,773,773,773,773,773,773,773,773,773,769,740,724,686,652,605,505,482,470,458,446,416,414,411,410,410,410,410,410,410,410,410,410,410,410,410,410,410,411,411,415,421,423,428],"ymouse":[621,621,621,621,621,621,621,621,621,621,621,621,621,621,621,621,621,621,621,621,621,621,621,621,621,621,621,621,621,621,621,621,621,621,621,621,621,621,621,621,621,621,621,621,621,614,605,555,531,483,438,371,253,223,200,176,150,83,75,58,54,52,52,52,52,52,52,52,52,52,52,52,52,52,52,53,56,63,64,65],"timestamp_mouse":[11,33,50,69,89,109,129,149,169,189,210,229,249,269,289,310,329,349,369,390,409,429,449,469,489,509,530,549,570,589,610,629,649,669,689,710,729,749,769,790,809,830,849,869,890,909,930,949,970,989,1009,1030,1050,1070,1089,1109,1130,1149,1170,1189,1209,1230,1250,1269,1289,1309,1330,1348,1369,1390,1409,1429,1450,1470,1489,1509,1530,1550,1570,1589],"xSR":741.5,"ySR":573.95,"xT1":424.9,"yT1":0,"xT2":1058.1,"yT2":0,"toosoon":0,"cond_shown":"equaldotsize","ratio_trial":750,"smaller_num":"18","larger_num":"24","correct_side":1,"subjID":"MarianaRozoSarmiento13","gender":"1","age":"11","school":"6"},{"start_time":1551901397078,"click_time":1551901398299,"finger_time":1551901397839,"fix_duration":1195.5960230939277,"trial":42,"RT":761,"MT":460,"sideResp":2,"stimulus":"img/250/randomdotsizeEA/R/10_Ratio_250_L_4_R_16.png","xmouse":[782,782,782,782,782,782,782,782,782,782,782,782,782,782,782,782,782,782,782,782,782,782,782,782,782,782,782,782,782,782,782,782,782,781,777,776,776,777,782,786,797,830,853,891,909,927,977,1007,1036,1063,1083,1099,1104,1105,1106,1106,1106,1106,1106,1106,1106,1106],"ymouse":[627,627,627,627,627,627,627,627,627,627,627,627,627,627,627,627,627,627,627,627,627,627,627,627,627,627,627,627,627,627,627,627,626,619,612,610,596,577,554,524,488,427,400,363,336,312,262,241,218,197,182,158,145,138,131,124,118,117,116,111,102,81],"timestamp_mouse":[9,33,41,62,81,102,122,141,162,181,202,221,242,262,281,301,321,341,362,381,401,421,442,461,481,502,522,541,562,582,601,621,642,661,681,701,721,741,761,782,801,821,841,861,881,901,922,941,961,981,1002,1021,1042,1061,1081,1101,1121,1141,1161,1181,1202,1221],"xSR":741.5,"ySR":573.95,"xT1":424.9,"yT1":0,"xT2":1058.1,"yT2":0,"toosoon":0,"cond_shown":"randomdotsizeEA","ratio_trial":250,"smaller_num":"4","larger_num":"16","correct_side":2,"subjID":"MarianaRozoSarmiento13","gender":"1","age":"11","school":"6"},{"start_time":1551901400066,"click_time":1551901401119,"finger_time":1551901400680,"fix_duration":1006.725744704464,"trial":43,"RT":614,"MT":439,"sideResp":2,"stimulus":"img/250/equaldotanddens/R/6_Ratio_250_L_6_R_24.png","xmouse":[773,773,773,773,773,773,773,773,773,773,775,775,776,776,777,778,778,778,779,779,779,780,780,780,780,783,791,799,812,832,852,893,914,918,925,930,943,947,951,955,958,972,984,988,1003,1012,1045,1066,1084,1096,1109,1135,1136],"ymouse":[643,643,643,643,643,643,643,643,643,643,643,643,643,643,643,643,642,642,642,641,641,641,641,639,638,635,621,608,593,574,552,498,447,412,379,356,315,290,271,246,228,199,189,186,185,182,167,160,153,143,132,104,95],"timestamp_mouse":[13,35,53,74,93,113,133,153,173,193,213,233,253,274,293,315,333,353,374,394,413,433,453,473,494,514,533,554,574,593,614,633,654,673,693,713,734,753,773,793,813,833,853,873,893,913,933,954,973,993,1014,1033,1053],"xSR":741.5,"ySR":573.95,"xT1":424.9,"yT1":0,"xT2":1058.1,"yT2":0,"toosoon":0,"cond_shown":"equaldotanddens","ratio_trial":250,"smaller_num":"6","larger_num":"24","correct_side":2,"subjID":"MarianaRozoSarmiento13","gender":"1","age":"11","school":"6"},{"start_time":1551901402314,"click_time":1551901403359,"finger_time":1551901403039,"fix_duration":393.17002480593044,"trial":44,"RT":725,"MT":320,"sideResp":2,"stimulus":"img/500/equaldotsize/R/1_Ratio_500_L_9_R_18.png","xmouse":[772,772,772,772,772,772,774,774,774,774,774,774,774,774,774,774,774,774,774,774,774,774,774,774,774,774,774,774,774,774,774,774,774,775,783,795,816,844,876,943,986,1013,1033,1053,1071,1076,1080,1083,1086,1087,1090,1094,1097],"ymouse":[628,628,628,628,628,628,628,628,628,628,628,628,628,628,628,628,628,628,628,628,628,628,628,628,628,628,628,628,628,628,628,628,627,624,612,598,571,536,494,405,338,294,249,208,168,158,149,141,136,120,113,102,96],"timestamp_mouse":[10,31,45,65,86,105,125,145,166,185,206,226,246,267,285,306,325,345,366,385,406,426,446,465,485,506,525,546,566,585,605,626,645,665,685,706,725,745,766,785,805,826,845,865,885,906,925,945,965,985,1005,1026,1045],"xSR":741.5,"ySR":573.95,"xT1":424.9,"yT1":0,"xT2":1058.1,"yT2":0,"toosoon":0,"cond_shown":"equaldotsize","ratio_trial":500,"smaller_num":"9","larger_num":"18","correct_side":2,"subjID":"MarianaRozoSarmiento13","gender":"1","age":"11","school":"6"},{"start_time":1551901404842,"click_time":1551901405780,"finger_time":1551901405379,"fix_duration":780.7709147708645,"trial":45,"RT":537,"MT":401,"sideResp":2,"stimulus":"img/500/equaldotsize/R/1_Ratio_500_L_9_R_18.png","xmouse":[778,778,778,778,778,779,779,779,779,779,779,779,779,779,779,779,779,779,779,779,779,779,785,788,804,823,851,935,976,1006,1035,1054,1083,1092,1101,1104,1107,1110,1113,1115,1117,1118,1121,1123,1124,1124,1125],"ymouse":[648,647,647,647,647,647,645,644,643,643,643,643,643,643,643,643,643,643,643,643,643,642,634,630,609,590,557,483,441,411,376,335,255,231,207,195,184,167,161,154,149,140,121,114,107,102,99],"timestamp_mouse":[17,38,57,77,98,117,137,158,177,197,217,237,257,277,298,317,338,358,378,398,417,437,457,477,497,517,537,558,577,597,617,637,657,678,697,717,737,758,778,797,817,837,857,877,898,917,937],"xSR":741.5,"ySR":573.95,"xT1":424.9,"yT1":0,"xT2":1058.1,"yT2":0,"toosoon":0,"cond_shown":"equaldotsize","ratio_trial":500,"smaller_num":"9","larger_num":"18","correct_side":2,"subjID":"MarianaRozoSarmiento13","gender":"1","age":"11","school":"6"},{"start_time":1551901407494,"click_time":1551901408459,"finger_time":1551901408059,"fix_duration":974.9952034905932,"trial":46,"RT":565,"MT":400,"sideResp":1,"stimulus":"img/750/equaldotanddens/L/6_Ratio_750_L_24_R_18.png","xmouse":[804,804,804,804,804,804,804,804,804,804,804,804,804,804,804,804,804,804,804,804,804,804,804,804,802,801,799,790,784,780,756,738,694,653,628,603,596,588,584,578,574,570,561,555,548,536,529,521,514],"ymouse":[630,630,630,630,630,630,630,630,630,630,630,630,630,630,630,630,630,630,630,630,630,630,630,630,629,620,608,587,554,524,447,406,341,300,275,257,248,240,233,226,218,213,201,190,177,144,123,103,85],"timestamp_mouse":[10,36,45,65,85,105,125,145,165,186,205,226,245,265,286,305,325,346,365,386,405,425,445,465,485,506,525,546,565,585,605,626,645,665,685,705,725,746,766,785,805,826,845,866,885,906,925,946,965],"xSR":741.5,"ySR":573.95,"xT1":424.9,"yT1":0,"xT2":1058.1,"yT2":0,"toosoon":0,"cond_shown":"equaldotanddens","ratio_trial":750,"smaller_num":"18","larger_num":"24","correct_side":1,"subjID":"MarianaRozoSarmiento13","gender":"1","age":"11","school":"6"},{"start_time":1551901409907,"click_time":1551901410820,"finger_time":1551901410440,"fix_duration":687.8538138186311,"trial":47,"RT":533,"MT":380,"sideResp":2,"stimulus":"img/500/randomdotsizeEA/R/14_Ratio_500_L_5_R_10.png","xmouse":[776,776,776,776,776,776,776,776,776,776,776,776,776,776,776,776,776,776,776,776,776,776,776,778,779,787,797,814,832,874,895,918,935,956,1003,1026,1047,1065,1084,1116,1122,1123,1124,1126,1127,1127],"ymouse":[626,626,626,626,626,626,626,626,626,626,626,626,626,626,626,626,626,626,626,626,626,626,626,623,611,591,563,524,480,416,389,341,307,275,232,207,180,158,141,123,114,109,107,106,100,95],"timestamp_mouse":[13,36,52,73,92,113,132,152,173,192,213,233,252,273,293,312,333,353,372,393,412,432,454,472,492,512,532,552,572,592,613,632,652,672,692,712,732,752,772,793,812,832,853,872,893,913],"xSR":741.5,"ySR":573.95,"xT1":424.9,"yT1":0,"xT2":1058.1,"yT2":0,"toosoon":0,"cond_shown":"randomdotsizeEA","ratio_trial":500,"smaller_num":"5","larger_num":"10","correct_side":2,"subjID":"MarianaRozoSarmiento13","gender":"1","age":"11","school":"6"},{"start_time":1551901412667,"click_time":1551901414300,"finger_time":1551901414040,"fix_duration":1066.2992123809674,"trial":48,"RT":1373,"MT":260,"sideResp":1,"stimulus":"img/900/equaldotsize/R/11_Ratio_900_L_18_R_20.png","xmouse":[796,796,796,796,796,796,796,796,795,795,795,795,795,795,795,795,795,795,795,795,795,795,795,795,795,795,794,794,794,794,794,794,794,794,794,794,794,794,794,794,794,794,794,794,794,794,794,794,794,794,794,794,794,794,794,794,794,794,793,792,791,789,788,788,788,788,787,782,775,763,751,714,678,669,645,633,599,581,563,550,537,507],"ymouse":[634,634,634,634,634,634,634,634,634,634,634,634,634,634,634,634,634,634,634,634,633,630,628,627,624,621,617,614,613,611,608,606,606,606,606,606,606,606,606,606,606,606,606,606,606,606,606,606,606,606,607,608,608,609,609,609,609,609,609,608,608,605,604,604,604,602,597,588,570,546,517,432,348,326,265,234,164,142,120,101,85,51],"timestamp_mouse":[12,34,52,72,92,113,132,152,173,193,212,232,253,273,292,313,333,354,373,394,413,432,453,474,493,512,533,554,574,592,613,633,653,673,693,713,734,754,772,793,813,833,854,873,892,913,933,953,974,992,1013,1033,1054,1073,1092,1113,1132,1153,1173,1193,1212,1232,1253,1273,1293,1314,1334,1354,1372,1393,1412,1432,1452,1474,1492,1512,1534,1553,1572,1594,1613,1633],"xSR":741.5,"ySR":573.95,"xT1":424.9,"yT1":0,"xT2":1058.1,"yT2":0,"toosoon":0,"cond_shown":"equaldotsize","ratio_trial":900,"smaller_num":"18","larger_num":"20","correct_side":2,"subjID":"MarianaRozoSarmiento13","gender":"1","age":"11","school":"6"},{"start_time":1551901415955,"click_time":1551901417121,"finger_time":1551901416740,"fix_duration":814.9708441016645,"trial":49,"RT":785,"MT":381,"sideResp":1,"stimulus":"img/500/equaldotanddens/L/8_Ratio_500_L_8_R_4.png","xmouse":[786,786,786,786,786,786,786,786,786,786,786,786,786,786,786,786,786,786,786,786,786,786,786,786,786,786,786,786,786,786,786,786,786,786,786,786,786,782,772,753,723,706,652,625,600,583,574,567,567,567,567,567,563,557,554,548,540,527,521],"ymouse":[623,623,623,623,623,623,623,623,623,623,623,623,623,623,623,623,623,623,623,623,623,623,623,623,623,623,623,623,623,623,623,623,623,623,623,623,623,615,601,569,520,486,401,354,305,266,238,201,187,175,155,141,118,113,111,107,100,82,79],"timestamp_mouse":[9,26,46,65,85,104,125,146,165,185,205,225,244,266,285,305,326,344,364,386,404,426,445,465,485,505,525,544,566,585,606,624,645,665,684,705,725,745,764,785,806,824,844,865,884,904,924,945,965,984,1005,1024,1045,1065,1084,1104,1124,1145,1166],"xSR":741.5,"ySR":573.95,"xT1":424.9,"yT1":0,"xT2":1058.1,"yT2":0,"toosoon":0,"cond_shown":"equaldotanddens","ratio_trial":500,"smaller_num":"4","larger_num":"8","correct_side":1,"subjID":"MarianaRozoSarmiento13","gender":"1","age":"11","school":"6"},{"start_time":1551901418551,"click_time":1551901419380,"finger_time":1551901419100,"fix_duration":548.7703778361753,"trial":50,"RT":549,"MT":280,"sideResp":1,"stimulus":"img/250/equaldotsize/L/14_Ratio_250_L_12_R_3.png","xmouse":[798,798,798,798,798,798,798,798,798,798,798,798,798,798,798,797,797,797,797,797,797,797,797,797,797,796,793,764,743,719,679,623,601,574,548,530,517,511,503,496,490,490],"ymouse":[622,622,622,622,622,622,622,622,622,622,622,622,622,622,622,622,622,622,622,622,622,622,622,622,622,622,615,559,523,486,421,332,287,245,208,186,166,157,144,123,101,93],"timestamp_mouse":[10,34,50,69,89,110,130,149,170,190,209,230,248,269,289,310,330,348,368,390,408,429,450,468,489,508,528,549,569,589,609,629,649,668,689,708,729,748,769,788,808,828],"xSR":741.5,"ySR":573.95,"xT1":424.9,"yT1":0,"xT2":1058.1,"yT2":0,"toosoon":0,"cond_shown":"equaldotsize","ratio_trial":250,"smaller_num":"3","larger_num":"12","correct_side":1,"subjID":"MarianaRozoSarmiento13","gender":"1","age":"11","school":"6"},{"start_time":1551901420998,"click_time":1551901422932,"finger_time":1551901422580,"fix_duration":815.9010467395365,"trial":51,"RT":1582,"MT":352,"sideResp":1,"stimulus":"img/750/equaldotsize/L/6_Ratio_750_L_24_R_18.png","xmouse":[785,785,785,785,785,785,785,785,785,785,785,785,785,785,785,785,785,785,785,785,785,785,785,785,785,785,785,785,785,785,785,785,785,785,785,785,785,785,785,785,785,785,785,785,785,785,785,785,785,785,785,785,785,785,785,785,785,785,785,785,785,785,785,785,785,785,785,785,785,785,785,785,785,785,785,784,781,778,770,731,713,699,689,675,662,632,626,624,620,611,603,596,590,582,573,541,519],"ymouse":[608,608,608,608,608,608,608,608,608,608,608,608,608,608,608,608,608,608,608,608,608,608,608,608,608,608,608,608,608,608,608,608,608,608,608,608,608,608,608,608,608,608,608,608,608,608,608,608,608,608,608,608,608,608,608,608,608,608,608,608,608,608,608,608,608,608,608,608,608,608,608,608,608,608,608,603,596,587,574,526,501,478,454,423,389,312,276,246,224,173,152,137,126,117,108,90,80],"timestamp_mouse":[9,32,42,62,82,101,122,141,163,181,203,223,243,261,282,301,323,342,362,383,402,423,441,463,483,502,522,541,562,582,601,623,641,661,683,701,721,742,761,782,803,821,843,862,882,902,922,941,963,981,1001,1023,1042,1061,1082,1101,1122,1141,1161,1182,1202,1223,1242,1261,1281,1302,1322,1341,1361,1382,1402,1423,1442,1462,1482,1501,1521,1542,1563,1582,1602,1622,1642,1663,1681,1701,1722,1742,1762,1782,1802,1821,1842,1863,1882,1902,1933],"xSR":741.5,"ySR":573.95,"xT1":424.9,"yT1":0,"xT2":1058.1,"yT2":0,"toosoon":0,"cond_shown":"equaldotsize","ratio_trial":750,"smaller_num":"18","larger_num":"24","correct_side":1,"subjID":"MarianaRozoSarmiento13","gender":"1","age":"11","school":"6"},{"start_time":1551901424979,"click_time":1551901426320,"finger_time":1551901425981,"fix_duration":1277.9506532611829,"trial":52,"RT":1002,"MT":339,"sideResp":1,"stimulus":"img/900/equaldotanddens/L/10_Ratio_900_L_20_R_18.png","xmouse":[792,792,792,792,792,792,792,792,792,792,792,792,792,792,792,792,792,792,792,792,792,792,792,792,792,792,792,792,792,792,792,792,792,792,792,792,792,792,792,792,792,792,792,792,792,792,792,792,792,792,769,752,732,705,675,644,590,571,561,552,550,545,541,534,531,527,526,524],"ymouse":[613,613,613,613,613,613,613,613,613,613,613,613,613,613,613,613,613,613,613,613,613,613,613,613,613,613,613,613,613,613,613,613,613,613,613,613,613,613,613,613,613,613,613,613,613,613,613,613,613,611,562,528,484,435,387,344,277,253,239,220,207,176,156,140,129,113,102,90],"timestamp_mouse":[10,35,40,61,82,100,120,141,160,180,200,220,240,262,281,300,322,341,360,381,401,421,442,462,481,501,522,541,561,581,602,622,640,662,680,700,720,741,761,780,800,821,840,861,882,901,921,941,960,980,1002,1020,1041,1060,1080,1101,1121,1141,1161,1180,1200,1222,1241,1262,1280,1301,1320,1341],"xSR":741.5,"ySR":573.95,"xT1":424.9,"yT1":0,"xT2":1058.1,"yT2":0,"toosoon":0,"cond_shown":"equaldotanddens","ratio_trial":900,"smaller_num":"18","larger_num":"20","correct_side":1,"subjID":"MarianaRozoSarmiento13","gender":"1","age":"11","school":"6"},{"start_time":1551901429611,"click_time":1551901430780,"finger_time":1551901430480,"fix_duration":989.13913675441,"trial":53,"RT":869,"MT":300,"sideResp":2,"stimulus":"img/500/randomdotsizeEA/R/6_Ratio_500_L_9_R_18.png","xmouse":[803,803,803,803,803,803,803,803,803,803,803,803,803,803,803,803,803,803,803,803,803,803,803,803,803,803,803,803,803,803,803,803,803,803,803,803,803,803,803,803,803,808,817,849,862,875,879,890,915,962,983,999,1012,1025,1037,1046,1053,1058,1060],"ymouse":[626,626,626,626,626,626,626,626,626,626,626,626,626,626,626,626,626,626,626,626,626,626,626,626,626,626,626,626,626,626,626,626,626,626,626,626,626,626,626,626,624,613,590,544,506,467,424,380,329,270,241,214,186,140,119,98,80,68,61],"timestamp_mouse":[8,34,49,68,89,108,130,148,168,190,208,229,249,268,289,309,328,348,368,389,408,429,450,468,488,508,529,549,568,589,609,630,649,668,688,710,728,748,769,788,809,828,849,869,888,909,928,949,969,989,1009,1028,1050,1069,1088,1109,1130,1149,1168],"xSR":741.5,"ySR":573.95,"xT1":424.9,"yT1":0,"xT2":1058.1,"yT2":0,"toosoon":0,"cond_shown":"randomdotsizeEA","ratio_trial":500,"smaller_num":"9","larger_num":"18","correct_side":2,"subjID":"MarianaRozoSarmiento13","gender":"1","age":"11","school":"6"},{"start_time":1551901432292,"click_time":1551901433220,"finger_time":1551901432940,"fix_duration":890.4777846039651,"trial":54,"RT":648,"MT":280,"sideResp":2,"stimulus":"img/250/equaldotanddens/R/13_Ratio_250_L_2_R_8.png","xmouse":[796,796,796,796,796,796,796,796,796,796,796,796,796,796,796,796,796,796,796,796,796,796,796,796,796,796,796,796,796,796,800,807,834,855,872,901,920,944,971,992,1025,1037,1047,1055,1061,1061,1062],"ymouse":[611,611,611,611,611,611,611,611,611,611,611,611,611,611,611,611,611,611,611,611,611,611,611,611,611,611,611,611,611,611,605,598,559,530,498,431,399,369,339,312,262,233,208,179,122,102,88],"timestamp_mouse":[12,39,48,67,89,107,127,148,169,189,208,227,248,269,288,308,329,347,368,387,407,428,449,468,488,507,528,549,569,588,608,627,648,667,687,708,727,749,769,788,808,828,847,869,888,908,928],"xSR":741.5,"ySR":573.95,"xT1":424.9,"yT1":0,"xT2":1058.1,"yT2":0,"toosoon":0,"cond_shown":"equaldotanddens","ratio_trial":250,"smaller_num":"2","larger_num":"8","correct_side":2,"subjID":"MarianaRozoSarmiento13","gender":"1","age":"11","school":"6"},{"start_time":1551901435830,"click_time":1551901437221,"finger_time":1551901436560,"fix_duration":409.59857341530113,"trial":55,"RT":730,"MT":661,"sideResp":2,"stimulus":"img/750/randomdotsizeEA/R/2_Ratio_750_L_6_R_8.png","xmouse":[779,779,779,779,779,779,779,779,779,779,779,779,779,779,779,779,779,779,779,779,779,779,779,779,779,779,779,779,779,779,779,779,779,783,794,815,823,882,905,929,951,968,1015,1040,1056,1067,1075,1088,1105,1109,1109,1111,1111,1115,1115,1115,1115,1115,1115,1115,1115,1115,1116,1116,1116,1116,1116,1116,1116,1116],"ymouse":[639,638,636,636,636,636,636,636,636,636,636,636,636,636,636,636,636,636,636,636,636,636,636,636,636,636,636,636,636,636,636,636,634,624,608,580,568,501,469,432,392,351,289,266,245,224,203,171,152,146,142,134,127,116,115,115,115,115,115,115,114,112,110,109,107,105,103,102,101,99],"timestamp_mouse":[11,31,49,70,90,111,130,150,170,189,211,230,251,269,290,310,330,351,370,389,409,431,449,471,491,509,530,551,571,589,610,630,651,670,690,709,730,750,769,789,809,830,850,869,889,910,930,949,970,989,1011,1029,1050,1071,1089,1111,1131,1151,1171,1190,1209,1230,1250,1271,1290,1309,1330,1351,1370,1391],"xSR":741.5,"ySR":573.95,"xT1":424.9,"yT1":0,"xT2":1058.1,"yT2":0,"toosoon":0,"cond_shown":"randomdotsizeEA","ratio_trial":750,"smaller_num":"6","larger_num":"8","correct_side":2,"subjID":"MarianaRozoSarmiento13","gender":"1","age":"11","school":"6"},{"start_time":1551901439026,"click_time":1551901440500,"finger_time":1551901440200,"fix_duration":1046.7272584428379,"trial":56,"RT":1174,"MT":300,"sideResp":2,"stimulus":"img/500/randomdotsizeEA/R/2_Ratio_500_L_3_R_6.png","xmouse":[806,806,806,806,806,806,806,806,806,806,806,805,805,804,804,804,804,804,804,804,804,804,804,804,804,804,804,804,804,804,804,804,804,804,8