[{"start_time":1551801353051,"click_time":1551801369644,"finger_time":1551801353064,"fix_duration":1002.8752152963654,"trial":0,"RT":13,"MT":16580,"sideResp":2,"stimulus":"img/250/equaldotanddens/L/5_Ratio_250_L_24_R_6.png","xmouse":[835,835,835,835,835,835,835,835,835,835,835,835,835,835,835,835,835,835,835,835,835,835,835,835,835,835,835,835,835,835,835,835,835,835,837,837,837,837,837,837,837,837,837,838,838,838,837,836,835,833,830,828,827,826,823,822,821,820,819,816,813,809,806,803,800,800,800,800,800,799,797,796,796,796,796,796,796,796,796,796,796,796,796,796,796,796,796,796,796,796,796,796,796,796,796,796,796,796,796,796,796,796,796,796,796,796,796,796,796,796,796,796,796,796,796,796,796,796,796,796,796,796,796,796,796,796,796,796,796,796,796,796,796,796,796,796,796,796,796,796,796,796,796,796,796,796,796,796,796,796,796,796,796,796,796,796,796,796,796,796,796,796,796,796,796,796,796,796,796,796,796,796,796,796,796,796,796,796,796,796,796,796,796,796,796,796,796,796,794,794,794,794,794,794,794,794,794,794,794,794,794,794,794,794,794,794,794,794,794,794,794,794,794,794,794,794,794,794,794,794,794,794,794,794,794,794,794,794,794,794,794,794,794,794,794,794,794,794,794,794,794,794,794,794,794,794,794,794,794,794,794,794,794,794,794,794,794,794,794,794,794,794,794,794,794,794,794,794,794,794,794,794,794,794,794,794,794,794,794,794,794,794,794,794,794,794,794,794,794,794,794,794,794,794,794,794,794,794,794,794,794,794,794,794,794,794,794,794,794,794,794,794,794,794,794,794,794,794,794,794,794,794,794,794,794,794,794,794,794,794,794,794,794,794,794,794,794,794,794,794,794,794,794,794,794,794,794,794,794,794,794,794,794,794,794,794,794,794,794,794,794,794,794,794,794,794,794,794,794,794,794,794,794,794,794,794,794,794,794,794,794,794,794,794,794,794,794,794,794,794,794,794,794,794,794,794,794,791,789,789,786,786,786,786,795,833,846,853,855,855,851,846,837,819,796,748,734,729,729,729,733,744,752,757,761,763,763,763,763,763,763,764,767,768,769,772,772,772,772,772,772,772,772,772,772,772,772,772,772,772,772,772,772,772,772,772,772,772,772,772,772,772,772,772,772,772,772,772,772,772,772,772,772,772,772,772,772,772,772,772,772,772,772,772,772,772,772,772,772,772,772,772,772,772,772,772,772,772,772,772,772,772,772,772,772,772,772,772,772,772,772,772,772,772,772,772,772,772,772,772,772,772,772,772,772,772,772,772,772,772,772,772,772,772,772,772,772,772,772,772,772,772,772,772,772,772,772,772,772,772,772,772,772,772,772,772,772,772,772,772,772,772,772,772,772,772,772,772,772,772,772,772,772,772,772,772,772,772,772,772,772,772,772,772,772,772,772,772,772,772,772,772,772,772,772,772,772,772,772,772,772,772,772,772,772,772,772,772,772,772,772,772,772,772,772,772,772,772,772,772,772,772,772,772,772,772,772,772,772,772,772,772,772,772,772,772,772,772,772,772,772,772,772,772,772,772,772,772,772,772,772,772,772,772,772,772,772,772,772,772,772,772,772,772,772,772,772,772,772,772,772,772,772,772,772,772,772,772,772,772,772,772,772,772,772,772,772,772,772,772,772,772,772,772,772,772,772,772,772,772,772,772,772,772,772,772,772,772,772,772,772,772,772,772,772,772,772,772,772,772,772,772,772,772,772,772,772,772,772,772,772,772,772,772,772,772,772,772,772,772,772,772,772,772,772,772,772,772,772,772,772,772,772,772,772,772,772,772,772,772,772,772,772,772,772,772,772,772,772,772,772,772,772,772,772,772,772,772,772,772,772,772,772,772,772,772,772,772,772,772,772,772,772,772,772,772,772,772,772,772,772,772,772,772,772,772,772,772,772,772,772,772,772,772,780,795,831,867,899,940,996,1000,1000,1000,1004,1011,1035,1049,1057,1063],"ymouse":[570,570,570,570,570,570,570,570,570,570,570,570,570,570,570,570,570,570,570,570,570,570,570,570,570,570,570,570,570,570,570,570,570,570,558,548,542,538,535,533,532,531,530,528,524,522,520,519,519,518,518,517,517,516,516,515,515,515,515,515,515,515,516,516,517,517,517,517,517,517,517,517,517,517,517,517,517,517,517,517,517,517,517,517,517,517,517,517,517,517,517,517,517,517,517,517,517,517,517,517,517,517,517,517,517,517,517,517,517,517,517,517,517,517,517,517,517,517,517,517,517,517,517,517,517,517,517,517,517,517,517,517,517,517,517,517,517,517,517,517,517,517,517,517,517,517,517,517,517,517,517,517,517,517,517,517,517,517,517,517,517,517,517,517,517,517,517,517,517,517,517,517,517,517,517,517,517,517,517,517,517,517,517,517,517,517,517,517,519,519,519,519,519,519,519,519,519,519,519,519,519,519,519,519,519,519,519,519,519,519,519,519,519,519,519,519,519,519,519,519,519,519,519,519,519,519,519,519,519,519,519,519,519,519,519,519,519,519,519,519,519,519,519,519,519,519,519,519,519,519,519,519,519,519,519,519,519,519,519,519,519,519,519,519,519,519,519,519,519,519,519,519,519,519,519,519,519,519,519,519,519,519,519,519,519,519,519,519,519,519,519,519,519,519,519,519,519,519,519,519,519,519,519,519,519,519,519,519,519,519,519,519,519,519,519,519,519,519,519,519,519,519,519,519,519,519,519,519,519,519,519,519,519,519,519,519,519,519,519,519,519,519,519,519,519,519,519,519,519,519,519,519,519,519,519,519,519,519,519,519,519,519,519,519,519,519,519,519,519,519,519,519,519,519,519,519,519,519,519,519,519,519,519,519,519,519,519,519,519,519,519,519,519,519,519,519,519,519,519,519,527,529,530,531,531,521,512,505,501,500,497,496,496,497,504,519,525,528,528,528,527,521,517,513,511,511,511,511,511,511,511,511,512,513,514,516,516,516,516,516,516,516,516,516,516,516,516,516,516,516,516,516,516,516,516,516,516,516,516,516,516,516,516,516,516,516,516,516,516,516,516,516,516,516,516,516,516,516,516,516,516,516,516,516,516,516,516,516,516,516,516,516,516,516,516,516,516,516,516,516,516,516,516,516,516,516,516,516,516,516,516,516,516,516,516,516,516,516,516,516,516,516,516,516,516,516,516,516,516,516,516,516,516,516,516,516,516,516,516,516,516,516,516,516,516,516,516,516,516,516,516,516,516,516,516,516,516,516,516,516,516,516,516,516,516,516,516,516,516,516,516,516,516,516,516,516,516,516,516,516,516,516,516,516,516,516,516,516,516,516,516,516,516,516,516,516,516,516,516,516,516,516,516,516,516,516,516,516,516,516,516,516,516,516,516,516,516,516,516,516,516,516,516,516,516,516,516,516,516,516,516,516,516,516,516,516,516,516,516,516,516,516,516,516,516,516,516,516,516,516,516,516,516,516,516,516,516,516,516,516,516,516,516,516,516,516,516,516,516,516,516,516,516,516,516,516,516,516,516,516,516,516,516,516,516,516,516,516,516,516,516,516,516,516,516,516,516,516,516,516,516,516,516,516,516,516,516,516,516,516,516,516,516,516,516,516,516,516,516,516,516,516,516,516,516,516,516,516,516,516,516,516,516,516,516,516,516,516,516,516,516,516,516,516,516,516,516,516,516,516,516,516,516,516,516,516,516,516,516,516,516,516,516,516,516,516,516,516,516,516,516,516,516,516,516,516,516,516,516,516,516,516,516,516,516,516,516,516,516,516,516,516,516,516,516,516,516,516,516,516,516,516,516,516,516,516,516,516,516,516,516,516,516,516,515,511,500,480,454,399,289,236,184,155,131,114,93,86,81,76],"timestamp_mouse":[12,34,53,74,93,114,133,153,173,194,214,232,252,274,292,313,334,352,374,393,413,434,453,474,494,513,533,553,574,593,613,633,653,674,693,713,733,754,774,793,813,834,854,873,893,914,933,954,974,993,1013,1034,1054,1073,1093,1113,1133,1153,1174,1193,1214,1232,1253,1274,1293,1314,1334,1353,1373,1394,1413,1434,1453,1473,1493,1514,1533,1553,1573,1593,1613,1633,1653,1673,1693,1714,1732,1754,1773,1793,1813,1833,1853,1874,1893,1913,1934,1953,1973,1993,2013,2033,2053,2073,2093,2114,2132,2154,2173,2193,2214,2233,2254,2272,2293,2312,2333,2353,2374,2393,2413,2433,2454,2473,2493,2514,2534,2554,2573,2593,2614,2634,2653,2673,2693,2714,2734,2752,2773,2793,2813,2833,2854,2874,2893,2914,2933,2953,2974,2992,3013,3033,3053,3073,3093,3113,3134,3152,3173,3193,3213,3234,3253,3272,3293,3313,3333,3354,3373,3393,3413,3433,3453,3473,3493,3513,3533,3552,3573,3593,3614,3632,3653,3673,3693,3712,3733,3753,3774,3793,3813,3833,3854,3874,3893,3912,3933,3953,3974,3993,4013,4034,4054,4074,4092,4113,4134,4154,4173,4193,4213,4234,4252,4273,4293,4313,4334,4354,4374,4393,4413,4433,4453,4473,4493,4513,4534,4554,4572,4593,4613,4633,4653,4673,4693,4713,4734,4754,4773,4793,4814,4834,4853,4873,4893,4912,4933,4954,4972,4993,5013,5034,5054,5072,5094,5112,5134,5154,5173,5193,5213,5234,5253,5272,5294,5313,5333,5353,5374,5393,5413,5433,5452,5473,5493,5513,5534,5553,5573,5593,5613,5633,5654,5673,5693,5714,5733,5753,5774,5793,5813,5833,5853,5874,5893,5913,5933,5953,5972,5993,6014,6034,6054,6073,6094,6113,6133,6152,6173,6194,6213,6233,6253,6272,6294,6313,6334,6353,6374,6393,6413,6434,6453,6473,6494,6513,6534,6553,6573,6594,6614,6633,6653,6674,6694,6713,6734,6754,6773,6793,6814,6834,6854,6874,6894,6914,6933,6954,6973,6993,7013,7033,7053,7073,7093,7113,7134,7153,7173,7193,7212,7234,7254,7273,7293,7313,7333,7353,7373,7393,7414,7432,7454,7473,7493,7513,7533,7552,7572,7592,7613,7633,7653,7673,7693,7713,7734,7753,7773,7793,7813,7834,7853,7873,7893,7914,7933,7954,7973,7993,8013,8033,8054,8074,8093,8113,8133,8153,8173,8194,8213,8232,8253,8273,8292,8313,8334,8353,8374,8394,8414,8434,8454,8473,8494,8513,8533,8553,8574,8594,8613,8633,8653,8673,8694,8713,8733,8752,8773,8794,8813,8833,8852,8873,8893,8913,8933,8952,8972,8993,9013,9033,9054,9073,9093,9113,9133,9153,9173,9193,9213,9233,9253,9272,9293,9313,9333,9353,9373,9392,9412,9433,9453,9472,9493,9513,9534,9552,9574,9593,9613,9632,9654,9672,9693,9713,9733,9752,9774,9793,9812,9833,9853,9872,9894,9913,9933,9953,9974,9993,10012,10034,10052,10073,10093,10112,10134,10152,10174,10194,10213,10233,10253,10274,10293,10313,10333,10353,10374,10394,10414,10433,10453,10473,10493,10513,10534,10553,10573,10593,10612,10633,10653,10672,10694,10713,10734,10752,10773,10793,10813,10832,10853,10874,10894,10912,10934,10954,10974,10994,11014,11033,11053,11074,11094,11113,11134,11153,11174,11193,11214,11233,11253,11274,11293,11312,11334,11353,11373,11394,11414,11433,11453,11474,11493,11513,11534,11553,11573,11594,11613,11632,11653,11674,11692,11713,11733,11752,11774,11794,11813,11834,11854,11873,11894,11914,11933,11952,11974,11994,12013,12033,12054,12073,12093,12112,12134,12153,12173,12194,12214,12233,12253,12274,12293,12313,12334,12354,12374,12392,12413,12434,12454,12473,12493,12514,12534,12554,12572,12594,12614,12633,12653,12674,12693,12714,12734,12753,12774,12793,12813,12833,12853,12874,12894,12914,12934,12953,12973,12993,13013,13034,13053,13074,13094,13112,13134,13153,13174,13194,13213,13233,13254,13272,13294,13313,13332,13352,13373,13394,13412,13433,13453,13474,13494,13513,13532,13554,13574,13592,13613,13634,13653,13674,13694,13713,13734,13752,13773,13793,13813,13834,13853,13874,13893,13912,13934,13954,13974,13994,14013,14034,14054,14073,14094,14113,14134,14154,14174,14192,14214,14234,14254,14274,14293,14313,14333,14353,14374,14394,14414,14434,14453,14474,14493,14514,14534,14554,14574,14593,14613,14634,14653,14674,14693,14714,14734,14754,14773,14793,14814,14834,14854,14873,14893,14914,14933,14953,14974,14993,15014,15034,15052,15073,15093,15113,15134,15154,15172,15193,15214,15232,15253,15274,15293,15313,15334,15352,15373,15393,15414,15433,15453,15474,15493,15513,15534,15554,15573,15593,15614,15633,15654,15674,15694,15712,15733,15753,15772,15794,15814,15834,15854,15874,15894,15913,15934,15952,15974,15994,16014,16033,16053,16074,16094,16114,16133,16153,16173,16193,16214,16234,16253,16274,16293,16312,16334,16353,16373,16393,16414,16433,16452,16473,16493,16514,16533,16553,16572,16593],"xSR":741.5,"ySR":501.8,"xT1":424.9,"yT1":0,"xT2":1058.1,"yT2":0,"toosoon":0,"cond_shown":"equaldotanddens","ratio_trial":250,"smaller_num":"6","larger_num":"24","correct_side":1,"subjID":"MarianGarzon26","gender":"1","age":"11","school":"6","test":{"fix_dur":[250,1500],"timestim":300,"targets_dim":[100,100],"targets_relative_coord":[0.3,0.7],"size_stim":[880,420],"start_dim":[100,100],"size_start":[300,300],"size_fix":60,"samplingrate":20,"img_types":["equaldotsize","equaldotanddens","randomdotsizeEA"],"ratios":[250,500,750,900],"rep_conds":9,"nTrials":120,"trials_to_rest":500,"Trials_order":[37,39,71,6,2,116,63,13,83,27,72,102,50,94,33,11,59,74,44,51,68,95,17,12,25,41,114,8,18,110,49,84,55,4,81,57,31,35,1,28,29,60,70,69,52,15,86,80,45,91,34,61,115,3,112,97,46,82,21,22,76,103,62,9,79,89,111,90,73,16,96,118,107,23,77,20,54,19,67,78,30,85,43,66,99,40,10,36,88,93,100,98,105,53,104,117,14,7,92,48,0,108,38,26,5,101,75,119,56,106,113,65,64,58,47,24,87,109,42,32],"cond_shown":["equaldotanddens","equaldotsize","randomdotsizeEA","equaldotsize","randomdotsizeEA","randomdotsizeEA","equaldotsize","equaldotanddens","randomdotsizeEA","equaldotsize","equaldotsize","equaldotsize","randomdotsizeEA","equaldotanddens","equaldotsize","randomdotsizeEA","randomdotsizeEA","randomdotsizeEA","randomdotsizeEA","equaldotsize","randomdotsizeEA","randomdotsizeEA","randomdotsizeEA","equaldotsize","equaldotanddens","randomdotsizeEA","equaldotsize","randomdotsizeEA","equaldotsize","randomdotsizeEA","equaldotanddens","equaldotsize","equaldotanddens","equaldotanddens","equaldotsize","equaldotsize","equaldotanddens","randomdotsizeEA","equaldotanddens","equaldotanddens","randomdotsizeEA","equaldotsize","equaldotanddens","equaldotsize","equaldotanddens","equaldotsize","randomdotsizeEA","randomdotsizeEA","equaldotsize","equaldotanddens","equaldotanddens","equaldotanddens","equaldotanddens","equaldotsize","equaldotanddens","equaldotanddens","equaldotanddens","equaldotanddens","equaldotsize","equaldotanddens","equaldotanddens","equaldotanddens","randomdotsizeEA","equaldotsize","equaldotanddens","randomdotsizeEA","equaldotsize","equaldotsize","equaldotanddens","equaldotanddens","equaldotsize","equaldotanddens","randomdotsizeEA","randomdotsizeEA","randomdotsizeEA","randomdotsizeEA","equaldotsize","equaldotanddens","equaldotanddens","equaldotsize","equaldotsize","equaldotanddens","equaldotanddens","equaldotsize","equaldotsize","equaldotanddens","equaldotanddens","equaldotsize","equaldotanddens","equaldotsize","equaldotanddens","randomdotsizeEA","equaldotsize","randomdotsizeEA","randomdotsizeEA","equaldotsize","randomdotsizeEA","equaldotanddens","randomdotsizeEA","equaldotsize","equaldotsize","equaldotsize","randomdotsizeEA","randomdotsizeEA","randomdotsizeEA","randomdotsizeEA","equaldotsize","randomdotsizeEA","randomdotsizeEA","equaldotanddens","randomdotsizeEA","randomdotsizeEA","equaldotanddens","equaldotanddens","randomdotsizeEA","equaldotsize","equaldotsize","equaldotanddens","equaldotsize","randomdotsizeEA"],"ratio_trial":[250,500,900,750,250,750,500,250,900,500,250,750,250,900,900,900,900,250,750,500,750,900,500,250,250,500,750,750,750,250,250,250,750,500,900,900,750,900,250,500,500,250,900,900,500,500,250,750,900,750,900,250,750,500,500,250,900,900,900,900,500,750,250,900,750,500,500,750,250,500,250,900,900,900,500,750,750,750,750,750,750,250,750,750,500,500,900,250,500,900,500,250,900,500,750,900,250,750,750,250,250,250,250,250,500,500,500,900,750,900,500,500,500,900,900,250,500,250,750,750],"smaller_num":["6","6","18","6","3","3","9","3","18","2","3","6","6","18","9","18","9","2","3","2","3","18","9","3","6","5","18","3","15","3","4","2","15","1","18","18","6","9","3","2","6","6","18","18","1","10","3","3","18","15","18","6","3","6","3","2","9","18","18","18","9","3","2","18","15","2","6","9","3","2","4","9","18","18","6","3","3","15","15","3","9","5","6","6","2","9","18","4","6","9","9","3","18","9","18","18","2","3","15","2","1","2","2","3","2","2","5","9","3","9","9","1","10","18","9","3","6","3","15","6"],"larger_num":["24","12","20","8","12","4","18","12","20","4","12","8","24","20","10","20","10","8","4","4","4","20","18","12","24","10","24","4","20","12","16","8","20","2","20","20","8","10","12","4","12","24","20","20","2","20","12","4","20","20","20","24","4","12","6","8","10","20","20","20","18","4","8","20","20","4","12","12","12","4","16","10","20","20","12","4","4","20","20","4","12","20","8","8","4","18","20","16","12","10","18","12","20","18","24","20","8","4","20","8","4","8","8","12","4","4","10","10","4","10","18","2","20","20","10","12","12","12","20","8"],"correct_side":[1,1,1,1,1,1,2,1,1,1,2,1,1,1,2,1,1,1,1,1,1,1,2,1,2,1,1,1,1,2,2,2,2,2,1,2,1,1,1,1,1,1,1,2,2,2,1,2,2,2,2,2,2,1,2,1,2,2,1,1,2,2,1,2,2,1,1,2,2,1,2,2,2,1,1,1,1,2,2,1,2,2,1,2,1,2,2,1,1,2,2,2,1,2,1,2,1,1,2,1,2,1,1,2,2,2,2,2,1,2,2,2,2,2,2,2,1,1,2,1],"img_shown":["img/250/equaldotanddens/L/5_Ratio_250_L_24_R_6.png","img/500/equaldotsize/L/11_Ratio_500_L_12_R_6.png","img/900/randomdotsizeEA/L/10_Ratio_900_L_20_R_18.png","img/750/equaldotsize/L/14_Ratio_750_L_8_R_6.png","img/250/randomdotsizeEA/L/15_Ratio_250_L_12_R_3.png","img/750/randomdotsizeEA/L/9_Ratio_750_L_4_R_3.png","img/500/equaldotsize/R/1_Ratio_500_L_9_R_18.png","img/250/equaldotanddens/L/14_Ratio_250_L_12_R_3.png","img/900/randomdotsizeEA/L/2_Ratio_900_L_20_R_18.png","img/500/equaldotsize/L/5_Ratio_500_L_4_R_2.png","img/250/equaldotsize/R/11_Ratio_250_L_3_R_12.png","img/750/equaldotsize/L/14_Ratio_750_L_8_R_6.png","img/250/randomdotsizeEA/L/5_Ratio_250_L_24_R_6.png","img/900/equaldotanddens/L/10_Ratio_900_L_20_R_18.png","img/900/equaldotsize/R/7_Ratio_900_L_9_R_10.png","img/900/randomdotsizeEA/L/10_Ratio_900_L_20_R_18.png","img/900/randomdotsizeEA/L/1_Ratio_900_L_10_R_9.png","img/250/randomdotsizeEA/L/1_Ratio_250_L_8_R_2.png","img/750/randomdotsizeEA/L/10_Ratio_750_L_4_R_3.png","img/500/equaldotsize/L/10_Ratio_500_L_4_R_2.png","img/750/randomdotsizeEA/L/8_Ratio_750_L_4_R_3.png","img/900/randomdotsizeEA/L/10_Ratio_900_L_20_R_18.png","img/500/randomdotsizeEA/R/1_Ratio_500_L_9_R_18.png","img/250/equaldotsize/L/15_Ratio_250_L_12_R_3.png","img/250/equaldotanddens/R/6_Ratio_250_L_6_R_24.png","img/500/randomdotsizeEA/L/7_Ratio_500_L_10_R_5.png","img/750/equaldotsize/L/6_Ratio_750_L_24_R_18.png","img/750/randomdotsizeEA/L/10_Ratio_750_L_4_R_3.png","img/750/equaldotsize/L/1_Ratio_750_L_20_R_15.png","img/250/randomdotsizeEA/R/9_Ratio_250_L_3_R_12.png","img/250/equaldotanddens/R/10_Ratio_250_L_4_R_16.png","img/250/equaldotsize/R/13_Ratio_250_L_2_R_8.png","img/750/equaldotanddens/R/5_Ratio_750_L_15_R_20.png","img/500/equaldotanddens/R/12_Ratio_500_L_1_R_2.png","img/900/equaldotsize/L/4_Ratio_900_L_20_R_18.png","img/900/equaldotsize/R/9_Ratio_900_L_18_R_20.png","img/750/equaldotanddens/L/13_Ratio_750_L_8_R_6.png","img/900/randomdotsizeEA/L/1_Ratio_900_L_10_R_9.png","img/250/equaldotanddens/L/14_Ratio_250_L_12_R_3.png","img/500/equaldotanddens/L/10_Ratio_500_L_4_R_2.png","img/500/randomdotsizeEA/L/13_Ratio_500_L_12_R_6.png","img/250/equaldotsize/L/5_Ratio_250_L_24_R_6.png","img/900/equaldotanddens/L/4_Ratio_900_L_20_R_18.png","img/900/equaldotsize/R/9_Ratio_900_L_18_R_20.png","img/500/equaldotanddens/R/12_Ratio_500_L_1_R_2.png","img/500/equaldotsize/R/3_Ratio_500_L_10_R_20.png","img/250/randomdotsizeEA/L/15_Ratio_250_L_12_R_3.png","img/750/randomdotsizeEA/R/7_Ratio_750_L_3_R_4.png","img/900/equaldotsize/R/13_Ratio_900_L_18_R_20.png","img/750/equaldotanddens/R/5_Ratio_750_L_15_R_20.png","img/900/equaldotanddens/R/11_Ratio_900_L_18_R_20.png","img/250/equaldotanddens/R/6_Ratio_250_L_6_R_24.png","img/750/equaldotanddens/R/7_Ratio_750_L_3_R_4.png","img/500/equaldotsize/L/11_Ratio_500_L_12_R_6.png","img/500/equaldotanddens/R/2_Ratio_500_L_3_R_6.png","img/250/equaldotanddens/L/7_Ratio_250_L_8_R_2.png","img/900/equaldotanddens/R/3_Ratio_900_L_9_R_10.png","img/900/equaldotanddens/R/11_Ratio_900_L_18_R_20.png","img/900/equaldotsize/L/4_Ratio_900_L_20_R_18.png","img/900/equaldotanddens/L/8_Ratio_900_L_20_R_18.png","img/500/equaldotanddens/R/1_Ratio_500_L_9_R_18.png","img/750/equaldotanddens/R/12_Ratio_750_L_3_R_4.png","img/250/randomdotsizeEA/L/7_Ratio_250_L_8_R_2.png","img/900/equaldotsize/R/13_Ratio_900_L_18_R_20.png","img/750/equaldotanddens/R/5_Ratio_750_L_15_R_20.png","img/500/randomdotsizeEA/L/5_Ratio_500_L_4_R_2.png","img/500/equaldotsize/L/13_Ratio_500_L_12_R_6.png","img/750/equaldotsize/R/15_Ratio_750_L_9_R_12.png","img/250/equaldotanddens/R/9_Ratio_250_L_3_R_12.png","img/500/equaldotanddens/L/10_Ratio_500_L_4_R_2.png","img/250/equaldotsize/R/10_Ratio_250_L_4_R_16.png","img/900/equaldotanddens/R/5_Ratio_900_L_9_R_10.png","img/900/randomdotsizeEA/R/11_Ratio_900_L_18_R_20.png","img/900/randomdotsizeEA/L/10_Ratio_900_L_20_R_18.png","img/500/randomdotsizeEA/L/13_Ratio_500_L_12_R_6.png","img/750/randomdotsizeEA/L/8_Ratio_750_L_4_R_3.png","img/750/equaldotsize/L/9_Ratio_750_L_4_R_3.png","img/750/equaldotanddens/R/3_Ratio_750_L_15_R_20.png","img/750/equaldotanddens/R/5_Ratio_750_L_15_R_20.png","img/750/equaldotsize/L/9_Ratio_750_L_4_R_3.png","img/750/equaldotsize/R/15_Ratio_750_L_9_R_12.png","img/250/equaldotanddens/R/12_Ratio_250_L_5_R_20.png","img/750/equaldotanddens/L/13_Ratio_750_L_8_R_6.png","img/750/equaldotsize/R/2_Ratio_750_L_6_R_8.png","img/500/equaldotsize/L/5_Ratio_500_L_4_R_2.png","img/500/equaldotanddens/R/1_Ratio_500_L_9_R_18.png","img/900/equaldotanddens/R/12_Ratio_900_L_18_R_20.png","img/250/equaldotsize/L/2_Ratio_250_L_16_R_4.png","img/500/equaldotanddens/L/13_Ratio_500_L_12_R_6.png","img/900/equaldotsize/R/7_Ratio_900_L_9_R_10.png","img/500/equaldotanddens/R/1_Ratio_500_L_9_R_18.png","img/250/randomdotsizeEA/R/11_Ratio_250_L_3_R_12.png","img/900/equaldotsize/L/4_Ratio_900_L_20_R_18.png","img/500/randomdotsizeEA/R/6_Ratio_500_L_9_R_18.png","img/750/randomdotsizeEA/L/6_Ratio_750_L_24_R_18.png","img/900/equaldotsize/R/9_Ratio_900_L_18_R_20.png","img/250/randomdotsizeEA/L/3_Ratio_250_L_8_R_2.png","img/750/equaldotanddens/L/9_Ratio_750_L_4_R_3.png","img/750/randomdotsizeEA/R/3_Ratio_750_L_15_R_20.png","img/250/equaldotsize/L/1_Ratio_250_L_8_R_2.png","img/250/equaldotsize/R/8_Ratio_250_L_1_R_4.png","img/250/equaldotsize/L/3_Ratio_250_L_8_R_2.png","img/250/randomdotsizeEA/L/3_Ratio_250_L_8_R_2.png","img/250/randomdotsizeEA/R/9_Ratio_250_L_3_R_12.png","img/500/randomdotsizeEA/R/9_Ratio_500_L_2_R_4.png","img/500/randomdotsizeEA/R/9_Ratio_500_L_2_R_4.png","img/500/equaldotsize/R/14_Ratio_500_L_5_R_10.png","img/900/randomdotsizeEA/R/5_Ratio_900_L_9_R_10.png","img/750/randomdotsizeEA/L/10_Ratio_750_L_4_R_3.png","img/900/equaldotanddens/R/7_Ratio_900_L_9_R_10.png","img/500/randomdotsizeEA/R/6_Ratio_500_L_9_R_18.png","img/500/randomdotsizeEA/R/15_Ratio_500_L_1_R_2.png","img/500/equaldotanddens/R/3_Ratio_500_L_10_R_20.png","img/900/equaldotanddens/R/11_Ratio_900_L_18_R_20.png","img/900/randomdotsizeEA/R/7_Ratio_900_L_9_R_10.png","img/250/equaldotsize/R/9_Ratio_250_L_3_R_12.png","img/500/equaldotsize/L/11_Ratio_500_L_12_R_6.png","img/250/equaldotanddens/L/15_Ratio_250_L_12_R_3.png","img/750/equaldotsize/R/4_Ratio_750_L_15_R_20.png","img/750/randomdotsizeEA/L/13_Ratio_750_L_8_R_6.png"],"Rat0":[["12_Ratio_0_L_9_R_0.png","13_Ratio_0_L_6_R_0.png","5_Ratio_0_L_2_R_0.png","6_Ratio_0_L_4_R_0.png","8_Ratio_0_L_6_R_0.png"],["1_Ratio_0_L_0_R_17.png","10_Ratio_0_L_0_R_22.png","11_Ratio_0_L_0_R_1.png","14_Ratio_0_L_0_R_24.png","15_Ratio_0_L_0_R_4.png","2_Ratio_0_L_0_R_5.png","3_Ratio_0_L_0_R_17.png","4_Ratio_0_L_0_R_7.png","7_Ratio_0_L_0_R_19.png","9_Ratio_0_L_0_R_15.png"]],"Rat250":[["1_Ratio_250_L_8_R_2.png","14_Ratio_250_L_12_R_3.png","15_Ratio_250_L_12_R_3.png","2_Ratio_250_L_16_R_4.png","3_Ratio_250_L_8_R_2.png","5_Ratio_250_L_24_R_6.png","7_Ratio_250_L_8_R_2.png"],["10_Ratio_250_L_4_R_16.png","11_Ratio_250_L_3_R_12.png","12_Ratio_250_L_5_R_20.png","13_Ratio_250_L_2_R_8.png","4_Ratio_250_L_3_R_12.png","6_Ratio_250_L_6_R_24.png","8_Ratio_250_L_1_R_4.png","9_Ratio_250_L_3_R_12.png"]],"Rat500":[["10_Ratio_500_L_4_R_2.png","11_Ratio_500_L_12_R_6.png","13_Ratio_500_L_12_R_6.png","4_Ratio_500_L_18_R_9.png","5_Ratio_500_L_4_R_2.png","7_Ratio_500_L_10_R_5.png","8_Ratio_500_L_8_R_4.png"],["1_Ratio_500_L_9_R_18.png","12_Ratio_500_L_1_R_2.png","14_Ratio_500_L_5_R_10.png","15_Ratio_500_L_1_R_2.png","2_Ratio_500_L_3_R_6.png","3_Ratio_500_L_10_R_20.png","6_Ratio_500_L_9_R_18.png","9_Ratio_500_L_2_R_4.png"]],"Rat750":[["1_Ratio_750_L_20_R_15.png","10_Ratio_750_L_4_R_3.png","13_Ratio_750_L_8_R_6.png","14_Ratio_750_L_8_R_6.png","6_Ratio_750_L_24_R_18.png","8_Ratio_750_L_4_R_3.png","9_Ratio_750_L_4_R_3.png"],["11_Ratio_750_L_12_R_16.png","12_Ratio_750_L_3_R_4.png","15_Ratio_750_L_9_R_12.png","2_Ratio_750_L_6_R_8.png","3_Ratio_750_L_15_R_20.png","4_Ratio_750_L_15_R_20.png","5_Ratio_750_L_15_R_20.png","7_Ratio_750_L_3_R_4.png"]],"Rat900":[["1_Ratio_900_L_10_R_9.png","10_Ratio_900_L_20_R_18.png","2_Ratio_900_L_20_R_18.png","4_Ratio_900_L_20_R_18.png","8_Ratio_900_L_20_R_18.png"],["11_Ratio_900_L_18_R_20.png","12_Ratio_900_L_18_R_20.png","13_Ratio_900_L_18_R_20.png","14_Ratio_900_L_18_R_20.png","15_Ratio_900_L_9_R_10.png","3_Ratio_900_L_9_R_10.png","5_Ratio_900_L_9_R_10.png","6_Ratio_900_L_9_R_10.png","7_Ratio_900_L_9_R_10.png","9_Ratio_900_L_18_R_20.png"]],"Rat1000":[["10_Ratio_1000_L_16_R_16.png","11_Ratio_1000_L_6_R_6.png","12_Ratio_1000_L_14_R_14.png","13_Ratio_1000_L_20_R_20.png","15_Ratio_1000_L_15_R_15.png","2_Ratio_1000_L_17_R_17.png","4_Ratio_1000_L_9_R_9.png","5_Ratio_1000_L_6_R_6.png","6_Ratio_1000_L_19_R_19.png","8_Ratio_1000_L_14_R_14.png","9_Ratio_1000_L_25_R_25.png"],["1_Ratio_1000_L_1_R_1.png","14_Ratio_1000_L_17_R_17.png","3_Ratio_1000_L_17_R_17.png","7_Ratio_1000_L_6_R_6.png"]]}},{"start_time":1551801372186,"click_time":1551801377665,"finger_time":1551801377185,"fix_duration":1319.1805176371306,"trial":1,"RT":4999,"MT":480,"sideResp":1,"stimulus":"img/500/equaldotsize/L/11_Ratio_500_L_12_R_6.png","xmouse":[766,766,766,766,766,766,766,766,766,766,766,769,772,774,777,777,777,777,777,777,777,777,777,777,777,777,777,777,777,777,777,777,777,777,777,777,777,777,777,777,777,777,777,777,777,777,777,777,777,777,777,777,777,777,777,777,777,777,777,777,777,777,777,777,777,777,777,777,777,777,777,777,777,777,777,777,777,777,777,777,777,777,777,777,777,777,777,777,777,777,777,777,777,777,777,777,777,777,777,777,777,777,777,777,777,777,777,777,777,777,777,777,777,777,777,777,777,777,777,777,777,777,777,777,777,777,777,777,777,777,777,777,777,777,777,777,777,777,777,777,777,777,777,777,777,777,777,777,777,777,777,777,777,777,777,777,777,777,777,777,777,777,777,777,777,777,777,777,777,777,777,777,777,777,777,777,777,777,777,777,777,777,777,777,777,777,777,777,777,777,777,777,777,777,777,777,777,777,777,777,777,777,777,777,777,777,777,777,777,777,777,777,777,777,777,777,777,777,777,777,777,777,777,777,777,777,777,777,777,777,777,777,777,777,777,777,777,777,777,777,777,777,777,777,777,777,777,778,774,752,711,690,678,672,667,665,664,664,664,663,639,615,580,540,504,448,446,443,443,443,443,443,446,460],"ymouse":[512,512,512,512,512,512,512,512,512,512,512,513,514,514,514,514,514,514,514,514,514,514,514,514,514,514,514,514,514,514,514,514,514,514,514,514,514,514,514,514,514,514,514,514,514,514,514,514,514,514,514,514,514,514,514,514,514,514,514,514,514,514,514,514,514,514,514,514,514,514,514,514,514,514,514,514,514,514,514,514,514,514,514,514,514,514,514,514,514,514,514,514,514,514,514,514,514,514,514,514,514,514,514,514,514,514,514,514,514,514,514,514,514,514,514,514,514,514,514,514,514,514,514,514,514,514,514,514,514,514,514,514,514,514,514,514,514,514,514,514,514,514,514,514,514,514,514,514,514,514,514,514,514,514,514,514,514,514,514,514,514,514,514,514,514,514,514,514,514,514,514,514,514,514,514,514,514,514,514,514,514,514,514,514,514,514,514,514,514,514,514,514,514,514,514,514,514,514,514,514,514,514,514,514,514,514,514,514,514,514,514,514,514,514,514,514,514,514,514,514,514,514,514,514,514,514,514,514,514,514,514,514,514,514,514,514,514,514,514,514,514,514,514,514,514,514,514,504,475,402,305,265,244,230,209,203,198,196,196,196,188,184,174,158,142,112,110,107,107,107,107,105,103,97],"timestamp_mouse":[36,38,58,77,98,119,138,159,179,198,218,238,258,278,298,319,339,358,378,397,418,439,457,478,498,518,539,558,578,598,617,638,658,678,698,718,739,759,779,799,818,838,858,878,898,918,938,958,978,998,1019,1038,1058,1078,1098,1118,1138,1158,1178,1198,1217,1237,1258,1278,1299,1319,1337,1358,1379,1398,1418,1438,1459,1478,1498,1517,1538,1557,1578,1599,1617,1638,1659,1679,1698,1719,1739,1758,1778,1798,1818,1838,1858,1879,1898,1917,1938,1957,1979,1997,2017,2039,2058,2078,2098,2117,2138,2158,2178,2198,2218,2239,2258,2278,2298,2319,2339,2358,2378,2398,2419,2438,2458,2479,2498,2518,2538,2558,2578,2598,2617,2639,2657,2678,2697,2718,2738,2758,2778,2798,2817,2839,2859,2879,2899,2918,2938,2957,2978,2998,3019,3039,3058,3078,3099,3117,3138,3158,3178,3199,3218,3239,3258,3279,3298,3319,3339,3358,3379,3399,3418,3438,3457,3478,3498,3517,3538,3558,3579,3598,3618,3637,3659,3678,3698,3718,3738,3759,3778,3798,3818,3838,3859,3878,3899,3919,3937,3958,3979,3998,4018,4039,4058,4079,4099,4119,4138,4158,4179,4199,4218,4237,4259,4279,4298,4318,4338,4359,4378,4399,4419,4439,4458,4479,4499,4519,4539,4558,4578,4599,4619,4639,4659,4679,4697,4719,4738,4759,4778,4798,4818,4837,4859,4878,4898,4919,4938,4958,4979,4999,5017,5037,5058,5078,5099,5118,5137,5158,5178,5198,5218,5238,5258,5278,5299,5318,5339,5359,5379,5399,5418,5438,5459,5478],"xSR":741.5,"ySR":469.95,"xT1":424.9,"yT1":0,"xT2":1058.1,"yT2":0,"toosoon":0,"cond_shown":"equaldotsize","ratio_trial":500,"smaller_num":"6","larger_num":"12","correct_side":1,"subjID":"MarianGarzon26","gender":"1","age":"11","school":"6"},{"start_time":1551801378974,"click_time":1551801380484,"finger_time":1551801380204,"fix_duration":629.1463011849418,"trial":2,"RT":1230,"MT":280,"sideResp":1,"stimulus":"img/900/randomdotsizeEA/L/10_Ratio_900_L_20_R_18.png","xmouse":[767,767,767,767,767,767,767,767,767,767,767,767,767,767,767,767,767,767,767,767,767,767,767,767,767,767,767,767,767,767,767,767,767,767,767,767,767,767,767,767,767,767,767,767,767,767,767,767,767,767,767,767,767,767,767,767,767,767,767,767,766,725,696,664,634,607,572,566,562,559,556,549,542,537,528,522],"ymouse":[541,541,541,541,541,541,541,541,541,541,541,541,541,541,541,541,541,541,541,541,541,541,541,541,541,541,541,541,541,541,541,541,541,541,541,541,541,541,541,541,541,541,541,541,541,541,541,541,541,541,541,541,541,541,541,541,541,541,540,531,509,395,333,277,226,176,112,98,89,82,79,70,65,61,56,53],"timestamp_mouse":[22,43,51,70,90,111,131,150,170,190,211,230,251,270,291,310,330,350,371,389,410,431,451,471,490,511,530,550,570,590,610,631,650,670,689,710,730,750,771,789,809,831,850,870,890,909,930,949,971,991,1010,1030,1050,1069,1091,1110,1129,1151,1170,1191,1210,1230,1250,1270,1290,1309,1330,1350,1370,1390,1411,1429,1449,1469,1490,1510],"xSR":741.5,"ySR":469.95,"xT1":424.9,"yT1":0,"xT2":1058.1,"yT2":0,"toosoon":0,"cond_shown":"randomdotsizeEA","ratio_trial":900,"smaller_num":"18","larger_num":"20","correct_side":1,"subjID":"MarianGarzon26","gender":"1","age":"11","school":"6"},{"start_time":1551801382308,"click_time":1551801383965,"finger_time":1551801383704,"fix_duration":1002.7581686427507,"trial":3,"RT":1396,"MT":261,"sideResp":1,"stimulus":"img/750/equaldotsize/L/14_Ratio_750_L_8_R_6.png","xmouse":[767,767,767,767,767,767,767,767,767,767,767,767,767,767,767,767,767,767,767,767,767,767,767,767,767,767,767,767,767,767,767,767,767,767,767,767,767,767,767,767,767,767,767,767,767,767,767,767,767,767,767,767,767,767,767,767,767,767,767,767,767,767,767,767,767,767,767,767,763,757,724,698,664,638,587,575,565,562,557,553,541,533,524],"ymouse":[493,493,493,493,493,493,493,493,493,493,493,493,493,493,493,493,493,493,493,493,493,493,493,493,493,493,493,493,493,493,493,493,493,493,493,493,493,493,493,493,493,493,493,493,493,493,493,493,493,493,493,493,493,493,493,493,493,493,493,493,493,493,493,493,493,493,493,490,482,467,406,361,298,243,160,140,123,120,111,103,82,70,58],"timestamp_mouse":[17,36,56,76,96,117,137,156,176,196,216,236,257,276,296,316,337,356,377,395,417,436,456,476,496,517,537,557,575,597,615,637,656,675,696,717,737,757,776,795,817,836,856,876,896,916,936,957,977,996,1016,1037,1057,1077,1096,1116,1136,1157,1175,1196,1217,1237,1256,1277,1295,1316,1335,1356,1376,1396,1416,1436,1456,1476,1497,1515,1536,1556,1575,1597,1616,1637,1657],"xSR":741.5,"ySR":469.95,"xT1":424.9,"yT1":0,"xT2":1058.1,"yT2":0,"toosoon":0,"cond_shown":"equaldotsize","ratio_trial":750,"smaller_num":"6","larger_num":"8","correct_side":1,"subjID":"MarianGarzon26","gender":"1","age":"11","school":"6"},{"start_time":1551801384855,"click_time":1551801385964,"finger_time":1551801385644,"fix_duration":250,"trial":4,"RT":789,"MT":320,"sideResp":1,"stimulus":"img/250/randomdotsizeEA/L/15_Ratio_250_L_12_R_3.png","xmouse":[764,764,764,764,764,764,764,764,764,764,764,764,764,764,764,764,764,764,764,764,764,764,764,764,764,764,764,764,764,764,764,764,764,764,764,764,764,764,763,743,718,695,683,636,614,602,594,587,584,584,584,584,581,564,545,522],"ymouse":[482,482,482,482,482,482,482,482,482,482,482,482,482,482,482,482,482,482,482,482,482,482,482,482,482,482,482,482,482,482,482,482,482,482,482,482,482,482,474,442,395,343,305,199,162,141,128,119,115,115,115,115,114,106,99,91],"timestamp_mouse":[10,31,50,69,89,108,129,149,169,189,209,229,249,270,290,310,329,349,369,389,410,429,449,468,489,510,529,550,570,588,609,629,649,670,690,710,729,749,768,789,809,829,849,869,889,909,929,950,969,989,1010,1029,1050,1068,1090,1109],"xSR":741.5,"ySR":469.95,"xT1":424.9,"yT1":0,"xT2":1058.1,"yT2":0,"toosoon":0,"cond_shown":"randomdotsizeEA","ratio_trial":250,"smaller_num":"3","larger_num":"12","correct_side":1,"subjID":"MarianGarzon26","gender":"1","age":"11","school":"6"},{"start_time":1551801387534,"click_time":1551801388884,"finger_time":1551801388524,"fix_duration":848.0188653552558,"trial":5,"RT":990,"MT":360,"sideResp":1,"stimulus":"img/750/randomdotsizeEA/L/9_Ratio_750_L_4_R_3.png","xmouse":[783,783,783,783,783,783,783,783,783,783,783,783,783,783,783,783,783,783,783,783,783,783,783,783,783,783,783,783,783,783,783,783,783,783,783,783,783,783,783,783,783,783,783,783,777,773,767,756,743,702,670,637,611,592,563,557,549,542,537,525,520,514,506,498,482,482,482,482],"ymouse":[534,534,534,534,534,534,534,534,534,534,534,534,534,534,534,534,534,534,534,534,534,534,534,534,534,534,534,534,534,534,534,534,534,534,534,534,534,534,534,534,534,534,534,531,516,507,496,484,470,432,407,384,364,351,326,317,308,298,289,265,253,238,221,202,155,136,115,94],"timestamp_mouse":[10,30,49,85,91,111,130,150,170,191,210,230,249,270,291,310,330,349,370,391,410,430,451,470,490,511,530,551,570,589,611,631,650,671,691,709,729,750,770,790,811,829,850,871,890,910,930,951,970,989,1011,1030,1051,1070,1090,1110,1130,1150,1171,1190,1210,1230,1250,1270,1290,1311,1329,1350],"xSR":741.5,"ySR":469.95,"xT1":424.9,"yT1":0,"xT2":1058.1,"yT2":0,"toosoon":0,"cond_shown":"randomdotsizeEA","ratio_trial":750,"smaller_num":"3","larger_num":"4","correct_side":1,"subjID":"MarianGarzon26","gender":"1","age":"11","school":"6"},{"start_time":1551801391340,"click_time":1551801392705,"finger_time":1551801392344,"fix_duration":1215.0394975660333,"trial":6,"RT":1004,"MT":361,"sideResp":2,"stimulus":"img/500/equaldotsize/R/1_Ratio_500_L_9_R_18.png","xmouse":[799,799,799,799,799,799,799,799,799,799,799,799,799,799,799,799,799,799,799,799,799,799,799,799,799,799,799,799,799,799,799,799,799,799,799,799,799,799,799,799,799,799,799,799,799,799,799,799,799,803,856,907,926,978,1019,1029,1034,1035,1035,1036,1038,1041,1041,1041,1042,1043,1049,1054,1061],"ymouse":[552,552,552,552,552,552,552,552,552,552,552,552,552,552,552,552,552,552,552,552,552,552,552,552,552,552,552,552,552,552,552,552,552,552,552,552,552,552,552,552,552,552,552,552,552,552,552,552,547,533,438,359,332,253,185,168,157,147,140,129,109,98,93,90,89,89,89,89,89],"timestamp_mouse":[8,31,43,64,85,103,123,143,163,184,204,224,244,264,284,304,324,345,364,385,404,424,445,465,484,503,525,544,564,584,605,623,644,664,684,705,725,743,764,783,804,823,845,863,884,904,924,944,965,985,1004,1025,1043,1065,1085,1104,1124,1145,1165,1184,1205,1225,1245,1264,1285,1304,1324,1344,1365],"xSR":741.5,"ySR":469.95,"xT1":424.9,"yT1":0,"xT2":1058.1,"yT2":0,"toosoon":0,"cond_shown":"equaldotsize","ratio_trial":500,"smaller_num":"9","larger_num":"18","correct_side":2,"subjID":"MarianGarzon26","gender":"1","age":"11","school":"6"},{"start_time":1551801394641,"click_time":1551801395744,"finger_time":1551801395223,"fix_duration":615.941264882196,"trial":7,"RT":582,"MT":521,"sideResp":1,"stimulus":"img/250/equaldotanddens/L/14_Ratio_250_L_12_R_3.png","xmouse":[781,781,781,781,781,781,781,781,781,781,781,781,781,781,781,781,781,781,781,781,781,781,781,781,781,781,781,778,772,753,707,676,650,628,606,571,558,550,545,536,521,515,511,510,508,504,504,502,500,498,492,489,485,483,478,472],"ymouse":[487,487,487,487,487,487,487,487,487,487,487,487,487,487,487,487,487,487,487,487,487,487,487,487,487,487,487,485,472,441,374,337,307,284,266,237,230,225,222,219,214,211,209,207,205,199,195,193,190,185,171,158,144,132,107,89],"timestamp_mouse":[8,23,47,63,84,104,123,143,162,183,204,223,242,264,282,303,323,342,363,383,403,424,443,463,483,503,523,543,563,582,603,623,643,663,682,703,723,743,762,784,804,824,843,863,883,903,923,943,963,984,1003,1023,1043,1063,1084,1102],"xSR":741.5,"ySR":469.95,"xT1":424.9,"yT1":0,"xT2":1058.1,"yT2":0,"toosoon":0,"cond_shown":"equaldotanddens","ratio_trial":250,"smaller_num":"3","larger_num":"12","correct_side":1,"subjID":"MarianGarzon26","gender":"1","age":"11","school":"6"},{"start_time":1551801397432,"click_time":1551801398884,"finger_time":1551801398824,"fix_duration":586.0701368253885,"trial":8,"RT":1392,"MT":60,"sideResp":2,"stimulus":"img/900/randomdotsizeEA/L/2_Ratio_900_L_20_R_18.png","xmouse":[776,776,776,776,776,776,776,776,776,776,776,776,776,776,776,776,776,776,776,776,776,776,776,776,776,776,776,776,776,776,776,776,776,776,776,776,776,776,776,776,776,776,776,776,776,776,776,776,776,776,776,776,776,776,776,776,776,776,776,776,776,776,776,776,776,776,776,776,783,807,933,1000,1072],"ymouse":[495,495,495,495,495,495,495,495,495,495,495,495,495,495,495,495,495,495,495,495,495,495,495,495,495,495,495,495,495,495,495,495,495,495,495,495,495,495,495,495,495,495,495,495,495,495,495,495,495,495,495,495,495,495,495,495,495,495,495,495,495,495,495,495,495,495,495,495,479,444,265,170,79],"timestamp_mouse":[12,43,52,72,92,112,132,153,172,193,212,232,252,272,293,312,331,352,372,392,412,432,453,473,491,512,531,552,573,592,612,633,653,673,693,712,733,751,773,793,812,831,852,872,891,912,933,952,973,992,1012,1032,1052,1072,1091,1112,1133,1152,1173,1192,1211,1232,1251,1273,1291,1313,1333,1352,1372,1392,1413,1432,1451],"xSR":741.5,"ySR":469.95,"xT1":424.9,"yT1":0,"xT2":1058.1,"yT2":0,"toosoon":0,"cond_shown":"randomdotsizeEA","ratio_trial":900,"smaller_num":"18","larger_num":"20","correct_side":1,"subjID":"MarianGarzon26","gender":"1","age":"11","school":"6"},{"start_time":1551801401768,"click_time":1551801403765,"finger_time":1551801402784,"fix_duration":483.93023440498393,"trial":9,"RT":1016,"MT":981,"sideResp":1,"stimulus":"img/500/equaldotsize/L/5_Ratio_500_L_4_R_2.png","xmouse":[781,781,781,781,781,781,781,781,781,781,781,781,781,781,781,781,781,781,781,781,781,781,781,781,781,781,781,781,781,781,781,781,781,781,781,781,781,781,781,781,781,781,781,781,781,781,781,781,781,781,773,762,753,746,742,734,730,727,724,718,714,708,695,649,609,528,481,451,435,413,410,408,408,408,408,408,410,416,425,440,442,443,443,443,447,452,459,464,470,478,482,483,484,484,484,484,484,484,484,484],"ymouse":[527,527,527,527,527,527,527,527,527,527,527,527,527,527,527,527,527,527,527,527,527,527,527,527,527,527,527,527,527,527,527,527,527,527,527,527,527,527,527,527,527,527,527,527,527,527,527,527,527,522,468,427,394,349,332,313,308,304,301,299,298,295,290,272,257,228,213,197,184,157,150,141,136,132,129,129,129,129,129,129,129,128,128,128,127,125,124,123,122,119,117,116,113,111,108,107,106,105,103,98],"timestamp_mouse":[20,43,56,77,95,117,136,156,176,196,216,236,256,275,297,316,337,356,376,396,416,436,456,476,496,516,537,555,577,596,616,636,656,677,697,717,735,757,777,797,817,837,856,876,896,916,936,956,977,996,1016,1036,1056,1077,1095,1117,1137,1157,1177,1195,1216,1236,1256,1277,1296,1316,1336,1356,1377,1396,1416,1436,1456,1475,1495,1516,1536,1556,1576,1596,1616,1636,1657,1676,1697,1717,1737,1756,1776,1795,1817,1836,1857,1876,1895,1916,1937,1956,1976,1997],"xSR":741.5,"ySR":469.95,"xT1":424.9,"yT1":0,"xT2":1058.1,"yT2":0,"toosoon":0,"cond_shown":"equaldotsize","ratio_trial":500,"smaller_num":"2","larger_num":"4","correct_side":1,"subjID":"MarianGarzon26","gender":"1","age":"11","school":"6"},{"start_time":1551801405916,"click_time":1551801406785,"finger_time":1551801406564,"fix_duration":1211.952151349957,"trial":10,"RT":648,"MT":221,"sideResp":2,"stimulus":"img/250/equaldotsize/R/11_Ratio_250_L_3_R_12.png","xmouse":[797,797,797,797,797,797,797,797,797,797,797,797,797,797,797,797,797,797,797,797,797,797,797,797,797,797,797,797,797,797,804,812,858,888,916,931,943,966,974,983,1000,1020,1096,1141],"ymouse":[523,523,523,523,523,523,523,523,523,523,523,523,523,523,523,523,523,523,523,523,523,523,523,523,523,523,523,523,523,523,521,515,474,435,389,345,301,235,216,197,177,159,119,95],"timestamp_mouse":[8,31,48,69,87,108,128,147,169,189,209,228,247,269,287,308,328,348,368,387,408,429,447,468,488,509,528,548,569,588,608,627,648,668,688,707,729,748,769,788,809,829,848,869],"xSR":741.5,"ySR":469.95,"xT1":424.9,"yT1":0,"xT2":1058.1,"yT2":0,"toosoon":0,"cond_shown":"equaldotsize","ratio_trial":250,"smaller_num":"3","larger_num":"12","correct_side":2,"subjID":"MarianGarzon26","gender":"1","age":"11","school":"6"},{"start_time":1551801409782,"click_time":1551801410844,"finger_time":1551801410464,"fix_duration":1256.422213865468,"trial":11,"RT":682,"MT":380,"sideResp":1,"stimulus":"img/750/equaldotsize/L/14_Ratio_750_L_8_R_6.png","xmouse":[790,790,790,790,790,790,790,790,790,790,790,790,790,790,790,790,790,790,790,790,790,790,790,790,790,790,790,790,790,790,790,790,787,769,744,641,563,478,406,360,330,328,328,327,327,327,328,328,328,328,328,403,423,441],"ymouse":[507,507,507,507,507,507,507,507,507,507,507,507,507,507,507,507,507,507,507,507,507,507,507,507,507,507,507,507,507,507,507,507,506,487,463,328,234,151,91,49,15,10,8,8,6,1,0,0,0,0,0,3,15,30],"timestamp_mouse":[9,33,42,62,82,102,122,142,162,183,203,223,242,261,282,302,322,343,363,382,402,422,442,463,481,503,522,543,563,582,603,622,642,662,682,702,729,743,763,782,802,822,841,862,882,902,923,943,962,983,1001,1022,1041,1062],"xSR":741.5,"ySR":469.95,"xT1":424.9,"yT1":0,"xT2":1058.1,"yT2":0,"toosoon":0,"cond_shown":"equaldotsize","ratio_trial":750,"smaller_num":"6","larger_num":"8","correct_side":1,"subjID":"MarianGarzon26","gender":"1","age":"11","school":"6"},{"start_time":1551801412047,"click_time":1551801412884,"finger_time":1551801412645,"fix_duration":442.1972621702856,"trial":12,"RT":598,"MT":239,"sideResp":1,"stimulus":"img/250/randomdotsizeEA/L/5_Ratio_250_L_24_R_6.png","xmouse":[809,809,809,809,809,809,809,809,809,809,809,809,809,809,809,809,809,809,809,809,809,809,809,809,809,810,802,789,771,744,705,632,606,579,557,545,537,536,535,532,526,506],"ymouse":[536,536,536,536,536,536,536,536,536,536,536,536,536,536,536,536,536,536,536,536,536,536,536,536,536,535,518,500,475,441,393,296,251,205,166,144,120,119,118,110,98,63],"timestamp_mouse":[17,38,57,77,97,116,137,156,177,197,218,237,257,276,298,318,337,358,377,397,417,437,457,476,497,518,537,558,577,598,617,637,658,677,697,717,737,757,777,797,818,837],"xSR":741.5,"ySR":469.95,"xT1":424.9,"yT1":0,"xT2":1058.1,"yT2":0,"toosoon":0,"cond_shown":"randomdotsizeEA","ratio_trial":250,"smaller_num":"6","larger_num":"24","correct_side":1,"subjID":"MarianGarzon26","gender":"1","age":"11","school":"6"},{"start_time":1551801414496,"click_time":1551801415685,"finger_time":1551801414844,"fix_duration":649.8995935129693,"trial":13,"RT":348,"MT":841,"sideResp":1,"stimulus":"img/900/equaldotanddens/L/10_Ratio_900_L_20_R_18.png","xmouse":[760,760,760,760,760,760,760,760,760,760,760,760,760,760,760,760,757,752,745,733,727,722,716,712,704,698,691,682,671,643,628,616,606,600,591,587,585,583,581,578,575,571,568,564,560,560,560,560,560,560,560,560,560,560,557,551,544,536,528,519],"ymouse":[480,480,480,480,480,480,480,480,480,480,480,480,480,480,480,480,475,465,455,430,419,407,397,389,369,356,339,321,300,253,232,212,195,184,161,154,147,141,136,126,120,113,107,100,96,96,96,96,96,96,96,96,96,96,94,93,92,91,90,88],"timestamp_mouse":[8,36,48,68,88,108,128,149,167,189,208,228,250,269,290,309,329,348,368,388,408,429,448,469,488,508,528,548,568,588,608,628,649,668,688,708,729,748,769,788,809,828,849,868,888,908,928,948,969,990,1009,1028,1049,1068,1088,1108,1128,1148,1168,1189],"xSR":741.5,"ySR":469.95,"xT1":424.9,"yT1":0,"xT2":1058.1,"yT2":0,"toosoon":0,"cond_shown":"equaldotanddens","ratio_trial":900,"smaller_num":"18","larger_num":"20","correct_side":1,"subjID":"MarianGarzon26","gender":"1","age":"11","school":"6"},{"start_time":1551801418463,"click_time":1551801419546,"finger_time":1551801419124,"fix_duration":1277.7557369895733,"trial":14,"RT":661,"MT":422,"sideResp":2,"stimulus":"img/900/equaldotsize/R/7_Ratio_900_L_9_R_10.png","xmouse":[764,764,764,764,764,764,764,764,764,764,764,764,764,764,764,764,764,764,764,764,764,764,764,764,764,764,764,764,764,764,764,765,784,801,831,875,955,979,989,997,1000,1003,1007,1011,1024,1033,1043,1045,1045,1045,1045,1045,1045,1058,1066],"ymouse":[502,502,502,502,502,502,502,502,502,502,502,502,502,502,502,502,502,502,502,502,502,502,502,502,502,502,502,502,502,502,502,501,482,457,420,369,254,212,189,175,168,163,157,151,137,125,109,107,107,107,107,107,106,101,96],"timestamp_mouse":[8,35,42,61,83,101,121,142,162,183,201,221,241,261,281,301,322,341,362,382,401,422,443,461,481,501,521,541,562,581,602,621,641,661,682,701,722,741,761,781,801,821,841,861,881,902,922,941,962,981,1001,1021,1041,1063,1082],"xSR":741.5,"ySR":469.95,"xT1":424.9,"yT1":0,"xT2":1058.1,"yT2":0,"toosoon":0,"cond_shown":"equaldotsize","ratio_trial":900,"smaller_num":"9","larger_num":"10","correct_side":2,"subjID":"MarianGarzon26","gender":"1","age":"11","school":"6"},{"start_time":1551801421545,"click_time":1551801422685,"finger_time":1551801422264,"fix_duration":839.991551564411,"trial":15,"RT":719,"MT":421,"sideResp":1,"stimulus":"img/900/randomdotsizeEA/L/10_Ratio_900_L_20_R_18.png","xmouse":[796,796,796,796,796,796,796,796,796,796,796,796,796,796,796,796,796,796,796,796,796,796,796,796,796,796,796,796,796,796,796,796,796,796,796,784,773,731,656,623,595,575,561,533,522,512,504,500,498,498,498,498,498,500,500,501,501,501],"ymouse":[493,493,493,493,493,493,493,493,493,493,493,493,493,493,493,493,493,493,493,493,493,493,493,493,493,493,493,493,493,493,493,493,493,493,493,478,461,411,343,318,295,278,263,227,210,190,168,151,132,130,129,128,126,118,115,110,105,99],"timestamp_mouse":[1,19,40,59,80,99,119,140,161,179,200,219,241,259,280,300,320,339,360,380,399,419,439,460,480,500,520,540,560,580,599,619,641,661,679,700,719,740,759,780,799,820,840,859,879,900,920,939,960,979,999,1019,1040,1060,1079,1100,1119,1140],"xSR":741.5,"ySR":469.95,"xT1":424.9,"yT1":0,"xT2":1058.1,"yT2":0,"toosoon":0,"cond_shown":"randomdotsizeEA","ratio_trial":900,"smaller_num":"18","larger_num":"20","correct_side":1,"subjID":"MarianGarzon26","gender":"1","age":"11","school":"6"},{"start_time":1551801424289,"click_time":1551801425084,"finger_time":1551801424864,"fix_duration":762.7776577547461,"trial":16,"RT":575,"MT":220,"sideResp":1,"stimulus":"img/900/randomdotsizeEA/L/1_Ratio_900_L_10_R_9.png","xmouse":[789,789,789,789,789,789,789,789,789,789,789,789,789,789,789,789,789,789,789,790,790,790,789,789,788,784,779,769,755,739,665,623,586,562,547,534,532,528,525,517],"ymouse":[505,505,505,505,505,505,505,505,505,505,505,505,505,505,505,505,505,505,505,504,500,498,496,495,494,488,482,471,452,430,336,279,229,193,162,131,124,116,108,93],"timestamp_mouse":[17,36,56,76,95,115,137,156,176,197,215,237,256,276,295,315,335,355,375,395,415,435,456,475,495,515,535,555,575,595,616,635,655,675,695,716,736,756,775,795],"xSR":741.5,"ySR":469.95,"xT1":424.9,"yT1":0,"xT2":1058.1,"yT2":0,"toosoon":0,"cond_shown":"randomdotsizeEA","ratio_trial":900,"smaller_num":"9","larger_num":"10","correct_side":1,"subjID":"MarianGarzon26","gender":"1","age":"11","school":"6"},{"start_time":1551801426759,"click_time":1551801427406,"finger_time":1551801427265,"fix_duration":1011.5246115082073,"trial":17,"RT":506,"MT":141,"sideResp":1,"stimulus":"img/250/randomdotsizeEA/L/1_Ratio_250_L_8_R_2.png","xmouse":[826,826,826,826,826,826,826,826,826,826,826,826,826,826,826,826,826,826,826,826,826,826,825,812,788,761,729,655,622,589,561,541,509],"ymouse":[555,555,555,555,555,555,555,555,555,555,555,555,555,555,555,555,555,555,555,555,555,555,550,532,500,459,403,280,221,170,127,99,54],"timestamp_mouse":[8,33,45,66,86,106,125,145,166,186,206,226,245,267,286,306,326,345,366,385,405,425,446,466,486,506,526,546,565,585,606,626,646],"xSR":741.5,"ySR":469.95,"xT1":424.9,"yT1":0,"xT2":1058.1,"yT2":0,"toosoon":0,"cond_shown":"randomdotsizeEA","ratio_trial":250,"smaller_num":"2","larger_num":"8","correct_side":1,"subjID":"MarianGarzon26","gender":"1","age":"11","school":"6"},{"start_time":1551801429011,"click_time":1551801430164,"finger_time":1551801429744,"fix_duration":403.01825078226705,"trial":18,"RT":733,"MT":420,"sideResp":2,"stimulus":"img/750/randomdotsizeEA/L/10_Ratio_750_L_4_R_3.png","xmouse":[785,785,785,785,785,785,785,785,785,785,785,785,785,785,785,785,785,785,785,785,785,785,785,785,785,785,785,785,785,785,785,785,785,785,785,786,798,831,892,964,1064,1087,1093,1100,1105,1111,1113,1115,1116,1116,1117,1116,1113,1112,1110,1107,1105,1103],"ymouse":[475,475,475,475,475,475,475,475,475,475,475,475,475,475,475,475,475,475,475,475,475,475,475,475,475,475,475,475,475,475,475,475,475,475,475,475,465,440,392,333,262,245,239,232,226,216,211,205,201,195,179,172,160,153,143,121,107,93],"timestamp_mouse":[14,41,53,73,94,113,134,153,173,193,214,233,254,273,293,313,333,353,373,394,414,433,454,473,493,513,533,554,575,593,613,634,653,674,693,713,733,753,773,793,813,834,853,873,894,913,933,953,975,993,1014,1033,1053,1073,1093,1113,1133,1153],"xSR":741.5,"ySR":469.95,"xT1":424.9,"yT1":0,"xT2":1058.1,"yT2":0,"toosoon":0,"cond_shown":"randomdotsizeEA","ratio_trial":750,"smaller_num":"3","larger_num":"4","correct_side":1,"subjID":"MarianGarzon26","gender":"1","age":"11","school":"6"},{"start_time":1551801432208,"click_time":1551801432984,"finger_time":1551801432906,"fix_duration":1241.3213669942324,"trial":19,"RT":698,"MT":78,"sideResp":1,"stimulus":"img/500/equaldotsize/L/10_Ratio_500_L_4_R_2.png","xmouse":[782,782,782,782,782,782,782,782,782,782,782,782,782,782,782,782,782,782,782,782,782,782,782,782,782,782,782,782,782,782,782,782,783,778,747,638,576,516,464],"ymouse":[505,505,505,505,505,505,505,505,505,505,505,505,505,505,505,505,505,505,505,505,505,505,505,505,505,505,505,505,505,505,505,505,500,484,433,295,227,160,98],"timestamp_mouse":[16,36,57,76,97,117,136,157,178,197,216,236,256,277,298,317,337,358,376,397,417,437,457,476,496,516,537,556,577,596,616,636,657,676,698,716,736,756,776],"xSR":741.5,"ySR":469.95,"xT1":424.9,"yT1":0,"xT2":1058.1,"yT2":0,"toosoon":0,"cond_shown":"equaldotsize","ratio_trial":500,"smaller_num":"2","larger_num":"4","correct_side":1,"subjID":"MarianGarzon26","gender":"1","age":"11","school":"6"},{"start_time":1551801436417,"click_time":1551801439425,"finger_time":1551801439024,"fix_duration":250,"trial":20,"RT":2607,"MT":401,"sideResp":1,"stimulus":"img/750/randomdotsizeEA/L/8_Ratio_750_L_4_R_3.png","xmouse":[763,763,763,763,763,763,763,763,763,763,763,763,763,763,763,763,763,763,763,763,763,763,763,763,763,763,763,763,763,763,763,763,763,763,763,763,763,763,763,763,763,763,763,763,763,763,763,763,763,763,763,763,763,763,763,763,763,763,763,763,763,763,763,763,763,763,763,763,763,763,763,763,763,763,763,763,763,763,763,763,763,763,763,763,763,763,763,763,763,763,763,763,763,763,763,763,763,763,763,763,763,763,763,763,763,763,763,763,763,763,763,763,763,763,763,763,763,763,763,763,763,763,763,763,763,763,763,763,762,758,741,690,669,656,649,646,644,641,637,630,621,601,588,573,557,539,520,518,516,514,510],"ymouse":[497,497,497,497,497,497,497,497,497,497,497,497,497,497,497,497,497,497,497,497,497,497,497,497,497,497,497,497,497,497,497,497,497,497,497,497,497,497,497,497,497,497,497,497,497,497,497,497,497,497,497,497,497,497,497,497,497,497,497,497,497,497,497,497,497,497,497,497,497,497,497,497,497,497,497,497,497,497,497,497,497,497,497,497,497,497,497,497,497,497,497,497,497,497,497,497,497,497,497,497,497,497,497,497,497,497,497,497,497,497,497,497,497,497,497,497,497,497,497,497,497,497,497,497,497,497,497,497,495,491,474,438,422,411,401,396,388,378,365,348,330,291,263,228,195,163,121,113,107,102,95],"timestamp_mouse":[9,38,47,68,87,108,128,147,167,187,207,227,247,267,289,307,327,348,369,387,407,428,447,469,487,507,527,547,567,587,607,627,647,668,687,708,728,748,768,788,807,827,847,867,887,909,928,949,968,987,1007,1028,1047,1067,1087,1107,1128,1147,1168,1187,1207,1228,1247,1267,1287,1308,1328,1347,1368,1388,1408,1427,1448,1468,1488,1508,1528,1547,1567,1588,1607,1628,1647,1668,1688,1708,1728,1747,1768,1788,1809,1828,1847,1868,1887,1907,1927,1947,1968,1989,2007,2028,2048,2068,2087,2107,2127,2147,2167,2188,2208,2228,2248,2268,2287,2307,2327,2347,2367,2388,2408,2427,2447,2467,2487,2507,2528,2547,2567,2587,2607,2627,2647,2667,2688,2707,2727,2747,2768,2787,2807,2828,2847,2867,2888,2908,2927,2948,2967,2988,3008],"xSR":741.5,"ySR":469.95,"xT1":424.9,"yT1":0,"xT2":1058.1,"yT2":0,"toosoon":0,"cond_shown":"randomdotsizeEA","ratio_trial":750,"smaller_num":"3","larger_num":"4","correct_side":1,"subjID":"MarianGarzon26","gender":"1","age":"11","school":"6"},{"start_time":1551801441286,"click_time":1551801442344,"finger_time":1551801442084,"fix_duration":1279.8071084450003,"trial":21,"RT":798,"MT":260,"sideResp":1,"stimulus":"img/900/randomdotsizeEA/L/10_Ratio_900_L_20_R_18.png","xmouse":[773,773,773,773,773,773,773,773,773,773,773,773,773,773,773,773,773,773,773,773,773,773,773,773,773,773,773,773,773,773,773,773,773,773,773,773,773,772,759,743,719,685,615,542,526,517,511,505,496,494,490,482,472,452],"ymouse":[541,541,541,541,541,541,541,541,541,541,541,541,541,541,541,541,541,541,541,541,541,541,541,541,541,541,541,541,541,541,541,541,541,541,541,541,541,541,525,505,478,440,374,272,241,219,200,183,163,158,150,136,121,94],"timestamp_mouse":[1,18,41,58,79,98,118,138,158,179,198,219,239,258,278,298,319,339,358,378,399,419,438,458,479,499,519,539,558,578,598,618,638,658,680,699,719,738,758,778,798,818,839,859,878,898,919,938,958,979,998,1019,1038,1058],"xSR":741.5,"ySR":469.95,"xT1":424.9,"yT1":0,"xT2":1058.1,"yT2":0,"toosoon":0,"cond_shown":"randomdotsizeEA","ratio_trial":900,"smaller_num":"18","larger_num":"20","correct_side":1,"subjID":"MarianGarzon26","gender":"1","age":"11","school":"6"},{"start_time":1551801446080,"click_time":1551801447504,"finger_time":1551801447045,"fix_duration":1395.895419673336,"trial":22,"RT":965,"MT":459,"sideResp":2,"stimulus":"img/500/randomdotsizeEA/R/1_Ratio_500_L_9_R_18.png","xmouse":[783,783,783,783,783,783,783,783,783,783,783,783,783,783,783,783,783,783,783,783,783,783,783,783,783,783,783,783,783,783,783,783,783,783,783,783,783,783,783,783,783,783,782,782,785,793,805,821,842,899,919,935,946,956,968,970,973,977,987,1004,1013,1019,1029,1038,1060,1069,1076,1081,1085,1089,1091,1092],"ymouse":[516,516,516,516,516,516,516,516,516,516,516,516,516,516,516,516,516,516,516,516,516,516,516,516,516,516,516,516,516,516,516,516,516,516,516,516,516,516,516,516,516,516,516,514,503,492,482,470,459,423,408,393,376,355,315,301,288,278,266,250,240,232,216,198,157,141,128,120,115,107,103,99],"timestamp_mouse":[13,36,44,64,84,104,125,144,164,184,205,225,245,264,285,304,324,345,365,386,405,424,445,464,485,504,525,545,565,584,604,625,644,665,686,704,724,745,765,785,804,825,844,864,884,905,924,945,965,984,1004,1024,1045,1065,1084,1105,1124,1145,1165,1184,1205,1224,1244,1264,1284,1304,1324,1344,1365,1384,1404,1424],"xSR":741.5,"ySR":469.95,"xT1":424.9,"yT1":0,"xT2":1058.1,"yT2":0,"toosoon":0,"cond_shown":"randomdotsizeEA","ratio_trial":500,"smaller_num":"9","larger_num":"18","correct_side":2,"subjID":"MarianGarzon26","gender":"1","age":"11","school":"6"},{"start_time":1551801449388,"click_time":1551801450825,"finger_time":1551801450164,"fix_duration":1082.706907944649,"trial":23,"RT":776,"MT":661,"sideResp":1,"stimulus":"img/250/equaldotsize/L/15_Ratio_250_L_12_R_3.png","xmouse":[809,809,809,809,809,809,809,809,809,809,809,809,809,809,809,809,809,809,809,809,809,809,809,809,809,809,809,809,809,809,809,809,809,809,809,800,790,765,713,688,671,661,657,645,642,639,638,637,636,636,634,632,623,604,597,589,584,578,563,555,545,540,534,521,518,515,510,507,501,499,497,495],"ymouse":[558,558,558,558,558,558,558,558,558,558,558,558,558,558,558,558,558,558,558,558,558,558,558,558,558,558,558,558,558,558,558,558,558,558,558,559,554,546,526,514,505,498,493,469,458,446,433,419,402,371,354,341,318,290,279,267,258,245,220,206,193,183,172,149,142,135,125,120,109,105,101,97],"timestamp_mouse":[16,42,56,76,98,116,138,156,177,196,217,236,256,276,296,317,337,356,377,396,416,437,457,476,497,517,536,557,577,596,616,636,656,676,698,716,737,756,776,796,816,838,857,876,897,917,937,957,976,996,1017,1036,1056,1076,1096,1116,1137,1157,1176,1196,1216,1237,1256,1276,1296,1316,1337,1356,1376,1396,1416,1437],"xSR":741.5,"ySR":469.95,"xT1":424.9,"yT1":0,"xT2":1058.1,"yT2":0,"toosoon":0,"cond_shown":"equaldotsize","ratio_trial":250,"smaller_num":"3","larger_num":"12","correct_side":1,"subjID":"MarianGarzon26","gender":"1","age":"11","school":"6"},{"start_time":1551801452281,"click_time":1551801453366,"finger_time":1551801452785,"fix_duration":276.71607895115636,"trial":24,"RT":504,"MT":581,"sideResp":2,"stimulus":"img/250/equaldotanddens/R/6_Ratio_250_L_6_R_24.png","xmouse":[765,765,765,765,765,765,765,765,765,765,765,765,765,765,765,765,765,765,765,765,765,765,765,765,766,786,805,839,863,887,933,951,967,981,992,1006,1018,1025,1032,1046,1049,1049,1049,1049,1049,1049,1049,1049,1049,1049,1049,1049,1049,1051,1059],"ymouse":[485,485,485,485,485,485,485,485,485,485,485,485,485,485,485,485,485,485,485,485,485,485,485,485,485,465,443,404,375,346,292,270,252,233,217,188,168,151,134,107,100,99,99,99,99,99,99,99,99,99,99,99,98,96,92],"timestamp_mouse":[8,23,44,64,83,103,124,143,163,183,203,223,243,263,283,303,323,343,364,383,403,423,443,464,483,504,524,543,563,584,604,624,644,663,684,704,724,743,764,784,803,823,843,864,885,903,923,944,964,984,1005,1023,1044,1063,1084],"xSR":741.5,"ySR":469.95,"xT1":424.9,"yT1":0,"xT2":1058.1,"yT2":0,"toosoon":0,"cond_shown":"equaldotanddens","ratio_trial":250,"smaller_num":"6","larger_num":"24","correct_side":2,"subjID":"MarianGarzon26","gender":"1","age":"11","school":"6"},{"start_time":1551801454866,"click_time":1551801455965,"finger_time":1551801455545,"fix_duration":700.0906843756063,"trial":25,"RT":679,"MT":420,"sideResp":1,"stimulus":"img/500/randomdotsizeEA/L/7_Ratio_500_L_10_R_5.png","xmouse":[803,803,803,803,803,803,803,803,803,803,803,803,803,803,803,803,803,803,803,803,803,803,803,803,803,803,803,803,803,803,803,802,797,784,750,696,633,570,513,487,478,481,493,508,533,542,542,542,541,540,535,532,530,527,524],"ymouse":[484,484,484,484,484,484,484,484,484,484,484,484,484,484,484,484,484,484,484,484,484,484,484,484,484,484,484,484,484,484,484,484,483,466,422,371,340,321,305,292,268,244,217,194,165,148,135,123,116,109,96,90,86,81,78],"timestamp_mouse":[34,38,58,78,99,119,139,158,179,200,219,238,259,278,298,319,338,358,379,398,419,439,459,478,498,519,539,558,578,598,618,638,659,679,700,718,738,758,779,798,818,838,858,879,900,918,938,958,978,998,1018,1038,1058,1078,1099],"xSR":741.5,"ySR":469.95,"xT1":424.9,"yT1":0,"xT2":1058.1,"yT2":0,"toosoon":0,"cond_shown":"randomdotsizeEA","ratio_trial":500,"smaller_num":"5","larger_num":"10","correct_side":1,"subjID":"MarianGarzon26","gender":"1","age":"11","school":"6"},{"start_time":1551801457497,"click_time":1551801459164,"finger_time":1551801458684,"fix_duration":830.0360147254078,"trial":26,"RT":1187,"MT":480,"sideResp":1,"stimulus":"img/750/equaldotsize/L/6_Ratio_750_L_24_R_18.png","xmouse":[817,817,817,817,817,817,817,817,817,817,817,817,817,817,817,817,817,817,817,817,817,817,817,817,817,817,817,817,817,817,817,817,817,817,817,817,817,817,817,817,817,817,817,817,817,817,817,817,817,817,817,817,817,817,817,817,817,817,807,764,708,615,502,403,285,281,282,288,299,312,335,342,350,370,394,398,402,405,409,420,422,423,424,425],"ymouse":[547,547,547,547,547,547,547,547,547,547,547,547,547,547,547,547,547,547,547,547,547,547,547,547,547,547,547,547,547,547,547,547,547,547,547,547,547,547,547,547,547,547,547,547,547,547,547,547,547,547,547,547,547,547,547,547,547,547,527,464,406,338,271,215,121,111,106,98,89,83,72,64,57,44,35,35,34,34,34,38,39,40,40,41],"timestamp_mouse":[8,35,47,68,89,107,128,147,169,188,207,228,247,268,289,308,327,347,368,387,408,428,448,467,487,508,528,547,568,587,608,629,648,667,689,708,728,748,767,787,808,828,849,868,887,907,927,948,967,988,1007,1028,1047,1069,1087,1108,1128,1148,1167,1187,1208,1227,1247,1267,1288,1307,1327,1347,1367,1387,1408,1427,1447,1467,1487,1507,1527,1548,1568,1588,1607,1627,1647,1667],"xSR":741.5,"ySR":469.95,"xT1":424.9,"yT1":0,"xT2":1058.1,"yT2":0,"toosoon":0,"cond_shown":"equaldotsize","ratio_trial":750,"smaller_num":"18","larger_num":"24","correct_side":1,"subjID":"MarianGarzon26","gender":"1","age":"11","school":"6"},{"start_time":1551801461074,"click_time":1551801462125,"finger_time":1551801461824,"fix_duration":807.8165261916768,"trial":27,"RT":750,"MT":301,"sideResp":2,"stimulus":"img/750/randomdotsizeEA/L/10_Ratio_750_L_4_R_3.png","xmouse":[767,767,767,767,767,767,767,767,767,767,767,767,767,767,767,767,767,767,767,767,767,767,767,767,767,767,767,767,767,767,767,767,767,767,767,780,793,807,828,852,879,931,966,976,1000,1013,1034,1042,1052,1060,1065,1082,1092],"ymouse":[495,495,495,495,495,495,495,495,495,495,495,495,495,495,495,495,495,495,495,495,495,495,495,495,495,495,495,495,495,495,495,495,495,495,496,486,473,459,435,406,372,286,237,220,190,174,151,144,138,131,126,103,92],"timestamp_mouse":[19,44,51,71,90,110,130,151,171,191,210,230,251,271,291,311,330,350,371,391,411,431,451,472,492,511,530,551,570,591,610,630,652,671,690,711,731,750,771,791,810,830,850,871,891,910,931,951,971,990,1011,1030,1051],"xSR":741.5,"ySR":469.95,"xT1":424.9,"yT1":0,"xT2":1058.1,"yT2":0,"toosoon":0,"cond_shown":"randomdotsizeEA","ratio_trial":750,"smaller_num":"3","larger_num":"4","correct_side":1,"subjID":"MarianGarzon26","gender":"1","age":"11","school":"6"},{"start_time":1551801463439,"click_time":1551801464625,"finger_time":1551801464304,"fix_duration":252.39912005868737,"trial":28,"RT":865,"MT":321,"sideResp":1,"stimulus":"img/750/equaldotsize/L/1_Ratio_750_L_20_R_15.png","xmouse":[786,786,786,786,786,786,786,786,786,786,786,786,786,786,786,786,786,786,786,786,786,786,786,786,786,786,786,786,786,786,786,786,786,786,786,786,786,786,786,786,786,783,779,740,712,683,655,628,587,571,559,549,542,533,530,526,522,518,511,509],"ymouse":[490,490,490,490,490,490,490,490,490,490,490,490,490,490,490,490,490,490,490,490,490,490,490,490,490,490,490,490,490,490,490,490,490,490,490,490,490,490,490,490,490,484,475,422,390,355,322,291,228,197,174,157,146,133,130,124,118,111,101,97],"timestamp_mouse":[8,32,45,66,85,105,125,146,165,185,206,226,246,266,285,305,325,345,366,385,406,425,447,466,485,505,525,545,566,585,606,626,645,665,685,706,725,746,766,786,806,826,846,865,885,905,925,945,965,985,1006,1026,1045,1065,1085,1105,1125,1146,1165,1186],"xSR":741.5,"ySR":469.95,"xT1":424.9,"yT1":0,"xT2":1058.1,"yT2":0,"toosoon":0,"cond_shown":"equaldotsize","ratio_trial":750,"smaller_num":"15","larger_num":"20","correct_side":1,"subjID":"MarianGarzon26","gender":"1","age":"11","school":"6"},{"start_time":1551801466211,"click_time":1551801467304,"finger_time":1551801467004,"fix_duration":724.9334781389405,"trial":29,"RT":793,"MT":300,"sideResp":2,"stimulus":"img/250/randomdotsizeEA/R/9_Ratio_250_L_3_R_12.png","xmouse":[766,766,766,766,766,766,766,766,766,766,766,766,766,766,766,766,766,766,766,766,766,766,766,766,766,766,766,766,766,766,766,766,766,766,766,766,766,767,769,800,834,865,887,917,950,968,984,997,1008,1021,1031,1042,1056,1069,1093],"ymouse":[490,490,490,490,490,490,490,490,490,490,490,490,490,490,490,490,490,490,490,490,490,490,490,490,490,490,490,490,490,490,490,490,490,490,490,490,490,491,490,448,411,377,351,309,265,244,230,219,210,194,181,167,151,135,95],"timestamp_mouse":[14,42,55,73,93,113,134,153,173,193,215,233,253,273,293,314,334,353,373,394,414,433,453,474,493,513,534,553,573,593,613,635,654,674,693,713,733,753,773,793,814,834,855,874,893,913,933,954,974,993,1013,1035,1053,1073,1093],"xSR":741.5,"ySR":469.95,"xT1":424.9,"yT1":0,"xT2":1058.1,"yT2":0,"toosoon":0,"cond_shown":"randomdotsizeEA","ratio_trial":250,"smaller_num":"3","larger_num":"12","correct_side":2,"subjID":"MarianGarzon26","gender":"1","age":"11","school":"6"},{"start_time":1551801469589,"click_time":1551801470644,"finger_time":1551801470264,"fix_duration":1403.7472749290691,"trial":30,"RT":675,"MT":380,"sideResp":2,"stimulus":"img/250/equaldotanddens/R/10_Ratio_250_L_4_R_16.png","xmouse":[812,812,812,812,812,812,812,812,812,812,812,812,812,812,812,812,812,812,812,812,812,812,812,812,812,812,812,812,812,812,812,811,817,848,876,897,914,918,925,932,949,959,972,997,1013,1032,1051,1057,1061,1067,1074,1089,1093],"ymouse":[493,493,493,493,493,493,493,493,493,493,493,493,493,493,493,493,493,493,493,493,493,493,493,493,493,493,493,493,493,493,493,487,475,437,398,368,325,306,285,267,231,213,196,171,157,141,128,124,121,116,111,100,97],"timestamp_mouse":[16,35,55,75,96,115,136,155,176,195,215,237,255,276,295,316,335,355,375,396,416,436,456,476,495,515,535,555,576,596,616,635,655,675,695,716,735,755,775,795,817,835,855,876,895,916,935,956,975,996,1016,1035,1055],"xSR":741.5,"ySR":469.95,"xT1":424.9,"yT1":0,"xT2":1058.1,"yT2":0,"toosoon":0,"cond_shown":"equaldotanddens","ratio_trial":250,"smaller_num":"4","larger_num":"16","correct_side":2,"subjID":"MarianGarzon26","gender":"1","age":"11","school":"6"},{"start_time":1551801473482,"click_time":1551801474644,"finger_time":1551801474324,"fix_duration":757.2217730823153,"trial":31,"RT":842,"MT":320,"sideResp":2,"stimulus":"img/250/equaldotsize/R/13_Ratio_250_L_2_R_8.png","xmouse":[801,801,801,801,801,801,801,801,801,801,801,801,801,801,801,801,801,801,801,801,801,801,801,801,801,801,801,801,801,801,801,801,801,801,801,801,801,801,801,801,801,811,848,870,891,914,953,999,1020,1034,1045,1052,1063,1068,1071,1075,1077,1083,1086],"ymouse":[492,492,492,492,492,492,492,492,492,492,492,492,492,492,492,492,492,492,492,492,492,492,492,492,492,492,492,492,492,492,492,492,492,492,492,492,492,492,492,492,492,479,446,427,404,376,329,269,241,215,196,181,155,143,135,128,122,108,99],"timestamp_mouse":[9,23,42,62,82,103,122,142,162,183,204,223,243,262,283,302,322,342,363,382,402,422,442,462,482,502,522,543,562,582,603,622,643,663,683,703,722,743,762,783,803,822,842,862,882,903,922,942,962,983,1003,1022,1042,1062,1082,1102,1123,1142,1162],"xSR":741.5,"ySR":469.95,"xT1":424.9,"yT1":0,"xT2":1058.1,"yT2":0,"toosoon":0,"cond_shown":"equaldotsize","ratio_trial":250,"smaller_num":"2","larger_num":"8","correct_side":2,"subjID":"MarianGarzon26","gender":"1","age":"11","school":"6"},{"start_time":1551801475475,"click_time":1551801476884,"finger_time":1551801476204,"fix_duration":250,"trial":32,"RT":729,"MT":680,"sideResp":2,"stimulus":"img/750/equaldotanddens/R/5_Ratio_750_L_15_R_20.png","xmouse":[787,787,787,787,787,787,787,787,787,787,787,787,787,787,787,787,787,787,787,787,787,787,787,787,787,787,787,787,787,787,788,791,800,809,822,836,863,897,912,926,943,963,992,1006,1020,1040,1053,1078,1093,1107,1119,1125,1126,1126,1127,1128,1129,1130,1130,1130,1130,1129,1119,1119,1119,1119,1119,1119,1119,1118,1118],"ymouse":[558,558,558,558,558,558,558,558,558,558,558,558,558,558,558,558,558,558,558,558,558,558,558,558,558,558,558,558,558,552,546,536,518,503,487,472,440,395,370,345,316,288,247,229,213,194,183,162,148,135,124,120,118,118,118,116,113,104,102,100,100,100,100,100,100,100,100,100,100,100,99],"timestamp_mouse":[9,30,50,69,90,109,129,149,169,190,209,229,249,268,289,309,330,348,370,389,410,429,449,469,489,510,530,551,569,590,609,629,649,670,690,709,729,749,770,790,809,829,848,869,889,909,929,949,968,989,1010,1028,1049,1070,1089,1109,1130,1149,1169,1189,1209,1230,1249,1269,1289,1309,1329,1349,1369,1389,1409],"xSR":741.5,"ySR":469.95,"xT1":424.9,"yT1":0,"xT2":1058.1,"yT2":0,"toosoon":0,"cond_shown":"equaldotanddens","ratio_trial":750,"smaller_num":"15","larger_num":"20","correct_side":2,"subjID":"MarianGarzon26","gender":"1","age":"11","school":"6"},{"start_time":1551801478883,"click_time":1551801480744,"finger_time":1551801480545,"fix_duration":1137.0610483807843,"trial":33,"RT":1662,"MT":199,"sideResp":2,"stimulus":"img/500/equaldotanddens/R/12_Ratio_500_L_1_R_2.png","xmouse":[814,814,814,814,814,814,814,814,814,814,814,814,814,814,814,814,814,814,814,814,814,814,814,814,814,814,814,814,814,814,814,814,814,814,814,814,814,814,814,814,814,814,814,814,814,814,814,814,814,814,814,814,814,814,814,814,814,814,814,814,814,814,814,814,814,814,814,814,814,814,814,814,814,814,814,814,814,814,814,814,814,813,816,840,860,898,945,1001,1108,1138,1158,1165,1165,1156],"ymouse":[505,505,505,505,505,505,505,505,505,505,505,505,505,505,505,505,505,505,505,505,505,505,505,505,505,505,505,505,505,505,505,505,505,505,505,505,505,505,505,505,505,505,505,505,505,505,505,505,505,505,505,505,505,505,505,505,505,505,505,505,505,505,505,505,505,505,505,505,505,505,505,505,505,505,505,505,505,505,505,505,505,498,489,459,446,415,381,340,248,209,166,124,65,34],"timestamp_mouse":[8,21,41,61,81,101,121,142,162,182,202,221,242,261,281,301,322,341,362,380,401,421,440,462,481,501,521,541,562,581,601,621,641,662,682,701,721,741,761,781,802,821,841,861,882,901,921,942,961,981,1001,1020,1041,1062,1081,1101,1122,1142,1161,1180,1201,1222,1242,1262,1281,1302,1321,1342,1361,1381,1401,1422,1441,1462,1481,1501,1521,1541,1561,1581,1601,1621,1641,1662,1681,1701,1721,1741,1761,1782,1801,1821,1842,1861],"xSR":741.5,"ySR":469.95,"xT1":424.9,"yT1":0,"xT2":1058.1,"yT2":0,"toosoon":0,"cond_shown":"equaldotanddens","ratio_trial":500,"smaller_num":"1","larger_num":"2","correct_side":2,"subjID":"MarianGarzon26","gender":"1","age":"11","school":"6"},{"start_time":1551801482852,"click_time":1551801484324,"finger_time":1551801483964,"fix_duration":1206.7861028999653,"trial":34,"RT":1112,"MT":360,"sideResp":1,"stimulus":"img/900/equaldotsize/L/4_Ratio_900_L_20_R_18.png","xmouse":[814,814,814,814,814,814,814,814,814,814,814,814,814,814,814,814,814,814,814,814,814,814,814,814,814,814,814,814,814,814,814,814,814,814,814,814,814,814,814,814,814,814,814,814,814,814,814,814,814,814,814,814,814,812,792,776,749,716,669,594,571,552,536,520,503,495,487,477,465,452,450,448,447,447],"ymouse":[497,497,497,497,497,497,497,497,497,497,497,497,497,497,497,497,497,497,497,497,497,497,497,497,497,497,497,497,497,497,497,497,497,497,497,497,497,497,497,497,497,497,497,497,497,497,497,497,497,497,497,497,497,496,475,458,432,402,366,303,283,264,247,226,199,187,174,160,143,122,114,110,106,97],"timestamp_mouse":[13,38,53,72,93,111,132,152,172,192,213,232,253,272,292,312,333,353,373,392,412,433,453,472,492,512,533,553,572,592,611,632,653,673,692,712,732,753,772,792,813,832,852,873,893,912,932,951,973,993,1012,1032,1052,1072,1092,1112,1133,1152,1173,1192,1212,1232,1252,1272,1292,1313,1332,1353,1373,1392,1412,1432,1453,1472],"xSR":741.5,"ySR":469.95,"xT1":424.9,"yT1":0,"xT2":1058.1,"yT2":0,"toosoon":0,"cond_shown":"equaldotsize","ratio_trial":900,"smaller_num":"18","larger_num":"20","correct_side":1,"subjID":"MarianGarzon26","gender":"1","age":"11","school":"6"},{"start_time":1551801485481,"click_time":1551801486725,"finger_time":1551801486304,"fix_duration":255.79049742755188,"trial":35,"RT":823,"MT":421,"sideResp":1,"stimulus":"img/900/equaldotsize/R/9_Ratio_900_L_18_R_20.png","xmouse":[763,763,763,763,763,763,763,763,763,763,763,763,763,763,763,763,763,763,763,763,763,763,763,763,763,763,763,763,763,763,763,763,763,763,763,763,763,763,763,763,763,754,742,723,720,715,711,707,696,690,686,679,661,626,609,588,571,557,541,536,528,525,523],"ymouse":[490,490,490,490,490,490,490,490,490,490,490,490,490,490,490,490,490,490,490,490,490,490,490,490,490,490,490,490,490,490,490,490,490,490,490,490,490,490,490,490,488,468,436,371,344,320,302,288,270,263,259,251,236,212,199,185,172,157,125,114,100,95,92],"timestamp_mouse":[9,34,44,64,83,103,123,144,163,183,204,223,243,264,284,302,324,343,363,384,403,423,443,463,484,503,523,543,563,583,604,623,644,663,683,702,724,744,764,784,803,823,843,863,883,904,923,943,963,983,1003,1023,1043,1063,1084,1103,1124,1143,1163,1183,1203,1223,1244],"xSR":741.5,"ySR":469.95,"xT1":424.9,"yT1":0,"xT2":1058.1,"yT2":0,"toosoon":0,"cond_shown":"equaldotsize","ratio_trial":900,"smaller_num":"18","larger_num":"20","correct_side":2,"subjID":"MarianGarzon26","gender":"1","age":"11","school":"6"},{"start_time":1551801488542,"click_time":1551801489724,"finger_time":1551801489304,"fix_duration":675.0699133103273,"trial":36,"RT":762,"MT":420,"sideResp":1,"stimulus":"img/750/equaldotanddens/L/13_Ratio_750_L_8_R_6.png","xmouse":[787,787,787,782,780,776,775,775,775,775,775,775,775,775,775,775,775,775,775,775,775,775,775,774,773,768,766,766,766,766,766,766,766,766,766,766,765,756,740,725,706,684,683,681,674,665,644,629,619,605,588,546,522,500,483,470,455,452,451,450],"ymouse":[541,541,541,541,541,541,541,541,541,541,541,541,541,541,541,541,541,541,541,541,541,541,541,541,541,541,541,541,541,541,541,541,541,541,541,541,541,539,532,524,515,480,436,386,339,309,267,251,243,235,225,201,187,173,160,147,123,115,106,99],"timestamp_mouse":[8,34,43,63,82,103,123,141,162,183,203,223,243,262,283,302,322,342,362,382,401,422,442,462,482,503,522,542,562,582,602,622,642,663,683,702,722,742,762,782,802,822,842,862,882,902,922,942,963,982,1003,1022,1042,1063,1082,1102,1122,1142,1162,1182],"xSR":741.5,"ySR":469.95,"xT1":424.9,"yT1":0,"xT2":1058.1,"yT2":0,"toosoon":0,"cond_shown":"equaldotanddens","ratio_trial":750,"smaller_num":"6","larger_num":"8","correct_side":1,"subjID":"MarianGarzon26","gender":"1","age":"11","school":"6"},{"start_time":1551801491569,"click_time":1551801493264,"finger_time":1551801492804,"fix_duration":1103.502433353295,"trial":37,"RT":1235,"MT":460,"sideResp":1,"stimulus":"img/900/randomdotsizeEA/L/1_Ratio_900_L_10_R_9.png","xmouse":[744,748,748,750,750,750,750,750,750,750,750,750,750,750,750,750,750,751,751,751,751,751,751,751,751,751,751,751,751,751,751,751,751,751,751,751,751,751,751,751,751,751,751,751,751,751,751,751,751,751,751,751,751,751,751,751,751,751,751,750,746,738,720,713,669,651,636,619,603,569,559,550,543,541,535,533,531,527,526,521,521,520,519,518,515],"ymouse":[528,528,528,528,528,528,528,528,528,528,528,528,528,528,528,528,528,528,528,528,528,528,528,528,528,528,528,528,528,528,528,528,528,528,528,528,528,528,528,528,528,528,528,528,528,528,528,528,528,528,528,528,528,528,528,528,528,528,528,524,514,500,473,463,396,369,345,324,305,269,253,239,222,215,184,172,160,150,140,124,119,114,108,105,97],"timestamp_mouse":[20,44,55,75,95,116,135,155,175,194,215,235,255,275,295,315,335,355,376,396,415,436,455,475,495,516,536,555,575,595,616,636,655,675,695,714,736,755,775,795,815,835,856,876,896,915,936,955,975,995,1016,1035,1055,1076,1095,1115,1136,1155,1175,1195,1215,1235,1256,1275,1295,1315,1335,1356,1375,1395,1416,1435,1455,1475,1494,1515,1535,1555,1575,1596,1616,1635,1656,1675,1695],"xSR":741.5,"ySR":469.95,"xT1":424.9,"yT1":0,"xT2":1058.1,"yT2":0,"toosoon":0,"cond_shown":"randomdotsizeEA","ratio_trial":900,"smaller_num":"9","larger_num":"10","correct_side":1,"subjID":"MarianGarzon26","gender":"1","age":"11","school":"6"},{"start_time":1551801495099,"click_time":1551801496224,"finger_time":1551801495804,"fix_duration":934.2889152940029,"trial":38,"RT":705,"MT":420,"sideResp":1,"stimulus":"img/250/equaldotanddens/L/14_Ratio_250_L_12_R_3.png","xmouse":[768,768,768,768,768,768,768,768,768,768,768,768,768,768,768,768,768,768,768,768,768,768,768,768,768,768,768,768,768,768,768,768,768,762,755,743,735,721,685,662,641,619,590,547,532,521,508,502,493,492,490,489,489,487,487,486,485],"ymouse":[520,520,520,520,520,520,520,520,520,520,520,520,520,520,520,520,520,520,520,520,520,520,520,520,520,520,520,520,520,520,520,520,520,508,487,448,418,385,322,291,267,244,219,186,172,161,145,137,127,125,122,119,115,108,104,101,96],"timestamp_mouse":[10,31,45,65,86,105,126,145,165,186,206,225,245,266,285,305,325,346,365,385,406,426,445,466,486,506,525,546,565,586,606,626,646,666,685,704,725,745,765,785,806,826,845,866,884,905,925,945,966,985,1005,1025,1046,1066,1085,1105,1125],"xSR":741.5,"ySR":469.95,"xT1":424.9,"yT1":0,"xT2":1058.1,"yT2":0,"toosoon":0,"cond_shown":"equaldotanddens","ratio_trial":250,"smaller_num":"3","larger_num":"12","correct_side":1,"subjID":"MarianGarzon26","gender":"1","age":"11","school":"6"},{"start_time":1551801497097,"click_time":1551801498046,"finger_time":1551801497764,"fix_duration":271.96759914592496,"trial":39,"RT":667,"MT":282,"sideResp":1,"stimulus":"img/500/equaldotanddens/L/10_Ratio_500_L_4_R_2.png","xmouse":[819,819,819,819,819,819,819,819,819,819,819,819,819,819,819,819,819,819,819,819,819,819,819,819,818,817,817,815,814,809,801,792,781,772,750,734,721,705,694,675,659,641,620,602,563,541,531,524],"ymouse":[510,510,510,510,510,510,510,510,510,510,510,510,510,510,510,510,510,510,510,510,510,510,510,510,509,509,508,508,507,503,497,485,470,458,435,423,403,381,358,290,248,205,170,137,93,68,52,41],"timestamp_mouse":[7,35,47,66,87,107,127,147,167,187,208,227,248,267,287,308,327,347,368,387,408,427,447,468,487,507,528,547,567,587,607,627,648,667,687,707,728,747,768,787,808,828,848,868,887,907,927,948],"xSR":741.5,"ySR":469.95,"xT1":424.9,"yT1":0,"xT2":1058.1,"yT2":0,"toosoon":0,"cond_shown":"equaldotanddens","ratio_trial":500,"smaller_num":"2","larger_num":"4","correct_side":1,"subjID":"MarianGarzon26","gender":"1","age":"11","school":"6"},{"start_time":1551801500244,"click_time":1551801502345,"finger_time":1551801501665,"fix_duration":1117.9127207681615,"trial":40,"RT":1421,"MT":680,"sideResp":1,"stimulus":"img/500/randomdotsizeEA/L/13_Ratio_500_L_12_R_6.png","xmouse":[820,820,820,820,820,820,820,820,820,820,820,820,820,820,820,820,820,820,820,820,820,820,820,820,820,820,820,820,820,820,820,820,820,820,820,820,820,820,820,820,820,820,820,820,820,820,820,820,820,820,820,820,820,820,820,820,820,820,820,820,820,820,820,820,820,820,820,820,820,818,814,808,792,784,774,765,757,732,720,711,700,693,680,678,678,678,678,678,678,678,678,678,678,678,678,675,666,649,630,601,567,537,512,476,464,455],"ymouse":[486,486,486,486,486,486,486,486,486,486,486,486,486,486,486,486,486,486,486,486,486,486,486,486,486,486,486,486,486,486,486,486,486,486,486,486,486,486,486,486,486,486,486,486,486,486,486,486,486,486,486,486,486,486,486,486,486,486,486,486,486,486,486,486,486,486,486,486,486,481,476,466,443,431,418,407,396,374,362,354,343,336,326,325,324,324,324,324,324,324,324,324,324,324,324,322,312,291,274,251,224,197,169,121,104,90],"timestamp_mouse":[8,20,41,60,80,100,120,140,161,180,200,220,241,260,281,301,321,340,361,380,400,420,440,460,480,500,520,540,560,580,601,620,640,659,681,700,720,740,760,781,800,820,840,860,881,900,921,940,960,981,1001,1021,1041,1060,1080,1100,1121,1141,1161,1181,1201,1220,1240,1260,1280,1300,1320,1340,1360,1380,1400,1421,1440,1460,1480,1500,1520,1540,1560,1580,1600,1620,1640,1660,1680,1701,1720,1741,1760,1781,1800,1820,1841,1860,1880,1900,1920,1940,1960,1980,2000,2020,2040,2060,2081,2100],"xSR":741.5,"ySR":469.95,"xT1":424.9,"yT1":0,"xT2":1058.1,"yT2":0,"toosoon":0,"cond_shown":"randomdotsizeEA","ratio_trial":500,"smaller_num":"6","larger_num":"12","correct_side":1,"subjID":"MarianGarzon26","gender":"1","age":"11","school":"6"},{"start_time":1551801503396,"click_time":1551801504385,"finger_time":1551801504125,"fix_duration":250,"trial":41,"RT":729,"MT":260,"sideResp":1,"stimulus":"img/250/equaldotsize/L/5_Ratio_250_L_24_R_6.png","xmouse":[801,801,801,801,801,801,801,801,801,801,801,801,801,801,801,801,801,801,801,801,801,801,801,801,801,801,801,801,801,801,801,801,801,800,798,775,758,734,698,656,623,591,571,551,518,504,487,466,457,444],"ymouse":[524,524,524,524,524,524,524,524,524,524,524,524,524,524,524,524,524,524,524,524,524,524,524,524,524,524,524,524,524,524,524,524,524,524,524,491,464,429,381,334,313,294,277,259,212,188,166,140,124,95],"timestamp_mouse":[9,38,48,69,88,108,128,147,168,188,208,228,248,268,288,308,328,348,368,388,409,428,448,468,488,508,528,548,568,588,609,629,648,669,689,709,729,749,768,789,808,828,848,868,889,908,928,948,969,989],"xSR":741.5,"ySR":469.95,"xT1":424.9,"yT1":0,"xT2":1058.1,"yT2":0,"toosoon":0,"cond_shown":"equaldotsize","ratio_trial":250,"smaller_num":"6","larger_num":"24","correct_side":1,"subjID":"MarianGarzon26","gender":"1","age":"11","school":"6"},{"start_time":1551801506219,"click_time":1551801507665,"finger_time":1551801506904,"fix_duration":1033.6128750988141,"trial":42,"RT":685,"MT":761,"sideResp":2,"stimulus":"img/900/equaldotanddens/L/4_Ratio_900_L_20_R_18.png","xmouse":[778,778,778,778,778,778,778,778,778,778,778,778,778,778,778,778,778,778,778,778,778,778,778,778,778,778,778,778,778,778,778,778,778,775,765,754,735,723,710,692,682,674,668,664,662,662,662,662,662,662,666,688,731,800,1006,1072,1120,1143,1154,1159,1160,1161,1162,1163,1171,1172,1172,1172,1168,1151,1138,1123,1111],"ymouse":[485,485,485,485,485,485,485,485,485,485,485,485,485,485,485,485,485,485,485,485,485,485,485,485,485,485,485,485,485,485,485,485,485,483,468,450,423,403,381,345,325,310,296,289,284,284,284,284,284,284,283,281,276,269,238,226,208,191,179,163,160,159,156,155,150,149,146,141,135,124,118,109,99],"timestamp_mouse":[9,32,46,66,85,105,126,145,165,186,205,226,244,265,285,305,325,347,366,385,405,426,445,466,486,506,525,545,565,586,606,626,646,666,685,705,725,745,766,785,806,825,845,865,885,905,925,945,965,985,1005,1025,1046,1065,1085,1105,1125,1145,1166,1185,1205,1225,1246,1266,1286,1305,1325,1345,1365,1385,1405,1425,1446],"xSR":741.5,"ySR":469.95,"xT1":424.9,"yT1":0,"xT2":1058.1,"yT2":0,"toosoon":0,"cond_shown":"equaldotanddens","ratio_trial":900,"smaller_num":"18","larger_num":"20","correct_side":1,"subjID":"MarianGarzon26","gender":"1","age":"11","school":"6"},{"start_time":1551801509888,"click_time":1551801511324,"finger_time":1551801510964,"fix_duration":1381.9335308993968,"trial":43,"RT":1076,"MT":360,"sideResp":2,"stimulus":"img/900/equaldotsize/R/9_Ratio_900_L_18_R_20.png","xmouse":[795,795,795,795,795,795,795,795,795,795,795,795,795,795,795,795,795,795,795,795,795,795,795,795,795,795,795,795,795,795,795,795,795,795,795,795,795,795,795,795,795,795,795,795,795,795,795,795,795,795,799,819,841,870,917,1040,1086,1129,1159,1176,1177,1177,1177,1177,1177,1177,1175,1169,1160,1146,1107,1091],"ymouse":[524,524,524,524,524,524,524,524,524,524,524,524,524,524,524,524,524,524,524,524,524,524,524,524,524,524,524,524,524,524,524,524,524,524,524,524,524,524,524,524,524,524,524,524,524,524,524,524,524,524,520,502,485,465,427,324,285,248,216,186,170,169,169,169,169,169,164,154,143,132,104,95],"timestamp_mouse":[33,37,56,76,96,117,136,157,177,197,216,236,256,276,296,316,336,356,376,397,417,437,456,476,496,516,536,557,576,596,616,637,656,677,696,716,736,756,776,796,816,836,856,877,896,916,937,956,976,996,1016,1037,1056,1076,1096,1117,1137,1156,1176,1196,1217,1237,1256,1276,1296,1316,1336,1356,1377,1396,1416,1436],"xSR":741.5,"ySR":469.95,"xT1":424.9,"yT1":0,"xT2":1058.1,"yT2":0,"toosoon":0,"cond_shown":"equaldotsize","ratio_trial":900,"smaller_num":"18","larger_num":"20","correct_side":2,"subjID":"MarianGarzon26","gender":"1","age":"11","school":"6"},{"start_time":1551801514874,"click_time":1551801516024,"finger_time":1551801515565,"fix_duration":1247.7374338839534,"trial":44,"RT":691,"MT":459,"sideResp":2,"stimulus":"img/500/equaldotanddens/R/12_Ratio_500_L_1_R_2.png","xmouse":[757,757,757,757,757,757,757,757,757,757,757,757,757,757,757,757,757,757,757,757,757,757,757,757,757,757,757,757,757,757,757,767,790,812,841,874,905,925,944,976,1023,1084,1165,1181,1190,1193,1194,1195,1195,1195,1195,1192,1186,1179,1171,1164,1160,1151],"ymouse":[471,471,471,471,471,471,471,471,471,471,471,471,471,471,471,471,471,471,471,471,471,471,471,471,471,471,471,471,471,471,471,474,475,473,461,437,402,343,295,248,197,146,67,45,29,23,19,19,19,19,19,19,19,22,24,27,29,33],"timestamp_mouse":[19,34,50,70,91,110,130,151,170,190,211,230,250,271,291,310,329,351,370,390,411,430,450,471,490,511,530,551,570,590,611,630,650,670,691,711,731,750,771,790,811,830,850,870,890,911,931,950,971,990,1010,1030,1050,1071,1090,1110,1130,1150],"xSR":741.5,"ySR":469.95,"xT1":424.9,"yT1":0,"xT2":1058.1,"yT2":0,"toosoon":0,"cond_shown":"equaldotanddens","ratio_trial":500,"smaller_num":"1","larger_num":"2","correct_side":2,"subjID":"MarianGarzon26","gender":"1","age":"11","school":"6"},{"start_time":1551801517267,"click_time":1551801519024,"finger_time":1551801518024,"fix_duration":462.3631014735894,"trial":45,"RT":757,"MT":1000,"sideResp":2,"stimulus":"img/500/equaldotsize/R/3_Ratio_500_L_10_R_20.png","xmouse":[763,763,763,763,763,763,763,763,763,763,763,763,763,763,763,763,763,763,763,763,763,763,763,763,763,763,763,763,763,763,763,763,763,763,765,770,781,845,879,922,980,1043,1137,1158,1167,1171,1173,1176,1176,1176,1176,1176,1168,1166,1161,1160,1159,1158,1157,1157,1155,1155,1155,1155,1155,1155,1155,1154,1152,1151,1149,1147,1144,1144,1144,1144,1144,1144,1144,1144,1144,1144,1144,1144,1144,1143,1141,1136],"ymouse":[552,552,552,552,552,552,552,552,552,552,552,552,552,552,552,552,552,552,552,552,552,552,552,552,552,552,552,552,552,552,552,552,552,552,551,546,535,481,447,411,367,322,250,229,214,199,183,163,154,144,135,127,114,112,110,110,110,110,110,110,110,110,110,110,110,110,110,110,110,109,107,105,104,104,104,104,104,104,104,104,104,104,104,104,104,102,101,95],"timestamp_mouse":[18,40,57,77,97,117,137,158,178,197,217,237,258,277,298,317,338,357,378,398,418,437,458,477,497,517,537,557,577,598,618,637,657,677,698,717,738,757,777,797,818,837,857,877,897,917,937,957,978,997,1018,1037,1057,1077,1097,1117,1138,1157,1177,1198,1217,1238,1258,1277,1297,1317,1338,1358,1378,1397,1417,1437,1457,1478,1497,1517,1537,1558,1578,1597,1617,1636,1657,1677,1697,1717,1738,1756],"xSR":741.5,"ySR":469.95,"xT1":424.9,"yT1":0,"xT2":1058.1,"yT2":0,"toosoon":0,"cond_shown":"equaldotsize","ratio_trial":500,"smaller_num":"10","larger_num":"20","correct_side":2,"subjID":"MarianGarzon26","gender":"1","age":"11","school":"6"},{"start_time":1551801520782,"click_time":1551801521785,"finger_time":1551801521705,"fix_duration":615.5372767898338,"trial":46,"RT":923,"MT":80,"sideResp":1,"stimulus":"img/250/randomdotsizeEA/L/15_Ratio_250_L_12_R_3.png","xmouse":[814,814,814,814,814,814,814,814,814,814,814,814,814,814,814,814,814,814,814,814,814,814,814,814,814,814,814,814,814,814,814,814,814,813,813,813,813,813,813,813,813,813,813,812,800,776,746,662,608,556,498],"ymouse":[548,548,548,548,548,548,548,548,548,548,548,548,548,548,548,548,548,548,548,548,548,548,548,548,548,548,548,548,548,548,548,548,548,547,547,547,547,547,547,547,547,547,547,545,529,502,465,343,259,180,77],"timestamp_mouse":[9,22,42,63,83,102,122,142,162,194,202,222,244,263,282,302,322,342,363,383,402,422,442,462,483,503,522,542,563,582,603,623,642,663,682,702,723,742,763,783,803,822,843,862,882,903,923,942,962,982,1003],"xSR":741.5,"ySR":469.95,"xT1":424.9,"yT1":0,"xT2":1058.1,"yT2":0,"toosoon":0,"cond_shown":"randomdotsizeEA","ratio_trial":250,"smaller_num":"3","larger_num":"12","correct_side":1,"subjID":"MarianGarzon26","gender":"1","age":"11","school":"6"},{"start_time":1551801523355,"click_time":1551801524484,"finger_time":1551801524344,"fix_duration":489.7959449654509,"trial":47,"RT":989,"MT":140,"sideResp":2,"stimulus":"img/750/randomdotsizeEA/R/7_Ratio_750_L_3_R_4.png","xmouse":[755,755,755,755,755,755,755,755,755,755,755,755,755,755,755,755,755,755,755,755,755,755,755,755,755,755,755,755,755,755,755,755,755,755,755,755,755,755,755,755,755,755,755,757,769,781,793,806,816,868,914,966,1017,1060,1103,1117,1126],"ymouse":[531,531,531,531,531,531,531,531,531,531,531,531,531,531,531,531,531,531,531,531,531,531,531,531,531,531,531,531,531,531,531,531,531,531,531,531,531,531,531,531,531,531,531,530,520,512,503,492,478,404,349,289,235,191,136,115,96],"timestamp_mouse":[9,30,50,70,89,109,129,149,169,189,210,230,249,269,290,309,329,349,369,389,409,429,449,469,490,509,530,549,569,590,609,630,649,668,690,710,728,749,769,788,809,830,849,870,890,909,929,949,969,989,1009,1030,1049,1069,1089,1110,1129],"xSR":741.5,"ySR":469.95,"xT1":424.9,"yT1":0,"xT2":1058.1,"yT2":0,"toosoon":0,"cond_shown":"randomdotsizeEA","ratio_trial":750,"smaller_num":"3","larger_num":"4","correct_side":2,"subjID":"MarianGarzon26","gender":"1","age":"11","school":"6"},{"start_time":1551801526435,"click_time":1551801527604,"finger_time":1551801527244,"fix_duration":970.5712119419239,"trial":48,"RT":809,"MT":360,"sideResp":2,"stimulus":"img/900/equaldotsize/R/13_Ratio_900_L_18_R_20.png","xmouse":[825,825,825,825,825,825,825,825,825,825,825,825,825,825,825,825,825,825,825,825,825,825,825,825,825,825,825,825,825,825,825,825,825,825,825,825,825,825,824,825,855,877,914,955,1012,1065,1082,1094,1101,1106,1111,1114,1117,1119,1123,1126,1129,1129,1129],"ymouse":[496,496,496,496,496,496,496,496,496,496,496,496,496,496,496,496,496,496,496,496,496,496,496,496,496,496,496,496,496,496,496,496,496,496,496,496,496,496,493,486,455,430,392,354,309,262,234,212,196,186,166,157,148,139,127,114,107,103,96],"timestamp_mouse":[8,38,49,69,89,109,129,148,169,189,209,229,249,269,290,309,329,350,369,389,410,428,449,469,490,509,530,549,569,589,609,630,648,669,690,709,730,749,770,789,809,830,849,870,890,909,929,949,970,990,1010,1029,1048,1069,1089,1109,1129,1149,1169],"xSR":741.5,"ySR":469.95,"xT1":424.9,"yT1":0,"xT2":1058.1,"yT2":0,"toosoon":0,"cond_shown":"equaldotsize","ratio_trial":900,"smaller_num":"18","larger_num":"20","correct_side":2,"subjID":"MarianGarzon26","gender":"1","age":"11","school":"6"},{"start_time":1551801528695,"click_time":1551801529484,"finger_time":1551801529344,"fix_duration":250,"trial":49,"RT":649,"MT":140,"sideResp":2,"stimulus":"img/750/equaldotanddens/R/5_Ratio_750_L_15_R_20.png","xmouse":[823,823,823,823,823,823,823,823,823,823,823,823,823,823,823,823,823,823,823,823,823,823,823,823,823,823,823,823,823,823,822,825,843,856,873,890,922,1004,1040,1066],"ymouse":[509,509,509,509,509,509,509,509,509,509,509,509,509,509,509,509,509,509,509,509,509,509,509,509,509,509,509,509,509,509,509,504,483,469,448,425,379,215,132,79],"timestamp_mouse":[20,39,50,70,89,108,129,149,169,189,210,229,249,269,289,310,329,349,369,390,409,429,450,468,489,509,529,550,569,589,609,630,649,669,690,709,729,750,769,789],"xSR":741.5,"ySR":469.95,"xT1":424.9,"yT1":0,"xT2":1058.1,"yT2":0,"toosoon":0,"cond_shown":"equaldotanddens","ratio_trial":750,"smaller_num":"15","larger_num":"20","correct_side":2,"subjID":"MarianGarzon26","gender":"1","age":"11","school":"6"},{"start_time":1551801531749,"click_time":1551801532565,"finger_time":1551801532344,"fix_duration":1002.7656890206841,"trial":50,"RT":595,"MT":221,"sideResp":2,"stimulus":"img/900/equaldotanddens/R/11_Ratio_900_L_18_R_20.png","xmouse":[807,807,807,807,807,807,807,807,807,807,807,807,807,807,807,807,807,807,807,807,807,807,807,807,807,807,807,813,824,835,856,868,885,900,952,993,1022,1047,1061,1072,1088],"ymouse":[496,496,496,496,496,496,496,496,496,496,496,496,496,496,496,496,496,496,496,496,496,496,496,496,496,496,495,487,474,460,424,404,378,354,275,212,173,144,125,110,91],"timestamp_mouse":[15,36,55,75,95,115,136,154,176,196,214,235,256,276,296,315,335,355,376,396,416,435,455,476,495,516,536,555,576,595,615,636,655,676,696,716,735,755,776,795,816],"xSR":741.5,"ySR":469.95,"xT1":424.9,"yT1":0,"xT2":1058.1,"yT2":0,"toosoon":0,"cond_shown":"equaldotanddens","ratio_trial":900,"smaller_num":"18","larger_num":"20","correct_side":2,"subjID":"MarianGarzon26","gender":"1","age":"11","school":"6"},{"start_time":1551801533923,"click_time":1551801534744,"finger_time":1551801534384,"fix_duration":457.78258455688956,"trial":51,"RT":461,"MT":360,"sideResp":2,"stimulus":"img/250/equaldotanddens/R/6_Ratio_250_L_6_R_24.png","xmouse":[783,783,783,783,783,783,783,783,783,783,783,783,783,783,783,783,783,783,783,783,783,783,783,791,807,842,881,949,966,984,1002,1020,1039,1043,1050,1058,1069,1087,1089,1090,1095,1099],"ymouse":[471,471,471,471,471,471,471,471,471,471,471,471,471,471,471,471,471,471,471,471,471,471,471,464,453,431,402,344,322,295,269,246,224,218,209,198,182,147,138,127,113,99],"timestamp_mouse":[9,21,41,61,82,101,121,141,161,181,201,221,241,262,281,301,321,341,361,381,402,422,440,461,481,501,520,541,561,581,601,622,640,661,681,702,721,741,762,781,801,821],"xSR":741.5,"ySR":469.95,"xT1":424.9,"yT1":0,"xT2":1058.1,"yT2":0,"toosoon":0,"cond_shown":"equaldotanddens","ratio_trial":250,"smaller_num":"6","larger_num":"24","correct_side":2,"subjID":"MarianGarzon26","gender":"1","age":"11","school":"6"},{"start_time":1551801535787,"click_time":1551801536725,"finger_time":1551801536325,"fix_duration":320.89462767695886,"trial":52,"RT":538,"MT":400,"sideResp":2,"stimulus":"img/750/equaldotanddens/R/7_Ratio_750_L_3_R_4.png","xmouse":[797,797,797,797,797,797,797,797,797,797,797,797,797,797,797,797,797,797,797,797,797,797,797,797,810,834,871,923,1053,1104,1139,1164,1188,1216,1225,1232,1232,1232,1232,1232,1232,1232,1232,1232,1232,1181,1157],"ymouse":[506,506,506,506,506,506,506,506,506,506,506,506,506,506,506,506,506,506,506,506,506,506,506,506,497,480,457,420,319,267,217,168,110,43,21,2,2,2,2,2,2,2,2,2,2,41,84],"timestamp_mouse":[25,38,58,78,99,119,138,158,178,198,218,238,258,278,298,318,338,359,378,398,418,439,458,478,498,519,538,558,578,598,618,638,659,678,698,718,738,759,779,799,818,838,859,878,898,919,938],"xSR":741.5,"ySR":469.95,"xT1":424.9,"yT1":0,"xT2":1058.1,"yT2":0,"toosoon":0,"cond_shown":"equaldotanddens","ratio_trial":750,"smaller_num":"3","larger_num":"4","correct_side":2,"subjID":"MarianGarzon26","gender":"1","age":"11","school":"6"},{"start_time":1551801537818,"click_time":1551801539206,"finger_time":1551801538765,"fix_duration":250,"trial":53,"RT":947,"MT":441,"sideResp":1,"stimulus":"img/500/equaldotsize/L/11_Ratio_500_L_12_R_6.png","xmouse":[756,756,756,756,756,756,757,762,764,765,765,765,765,765,765,765,765,765,765,765,765,765,765,765,765,765,765,765,765,765,765,765,765,766,772,784,797,809,809,809,810,810,810,810,803,792,784,777,773,773,773,773,760,734,725,718,712,696,685,668,668,668,668,593,577,564,555,550,535,520],"ymouse":[488,488,488,488,488,488,488,488,488,488,488,488,488,488,488,488,488,488,488,488,488,488,488,488,488,488,488,488,488,488,488,488,488,488,487,480,474,471,471,471,471,471,471,471,471,471,471,463,438,420,293,193,106,39,26,18,13,5,3,0,0,0,0,15,25,31,34,36,37,40],"timestamp_mouse":[7,30,47,67,87,107,128,147,167,187,208,228,247,267,287,307,327,347,368,388,407,427,447,467,488,507,527,547,568,588,607,627,648,668,688,708,727,747,767,787,808,827,848,868,888,907,928,947,967,987,1007,1027,1048,1067,1087,1108,1128,1147,1167,1188,1208,1228,1248,1267,1287,1307,1327,1348,1367,1388],"xSR":741.5,"ySR":469.95,"xT1":424.9,"yT1":0,"xT2":1058.1,"yT2":0,"toosoon":0,"cond_shown":"equaldotsize","ratio_trial":500,"smaller_num":"6","larger_num":"12","correct_side":1,"subjID":"MarianGarzon26","gender":"1","age":"11","school":"6"},{"start_time":1551801540478,"click_time":1551801541285,"finger_time":1551801541166,"fix_duration":250,"trial":54,"RT":688,"MT":119,"sideResp":2,"stimulus":"img/500/equaldotanddens/R/2_Ratio_500_L_3_R_6.png","xmouse":[798,798,798,798,798,798,798,798,798,798,798,798,797,796,796,796,796,796,796,796,796,796,795,795,794,794,794,794,794,794,794,794,793,794,833,872,941,978,1010,1038,1083],"ymouse":[514,514,514,514,514,514,514,514,514,514,514,515,515,515,515,515,515,515,515,515,515,515,515,515,515,515,515,515,515,515,515,515,515,508,431,355,232,180,143,114,74],"timestamp_mouse":[23,39,47,67,87,107,127,147,167,187,207,227,247,267,287,307,327,347,368,387,407,427,447,468,487,507,527,547,567,587,607,628,647,668,688,707,727,747,767,787,807],"xSR":741.5,"ySR":469.95,"xT1":424.9,"yT1":0,"xT2":1058.1,"yT2":0,"toosoon":0,"cond_shown":"equaldotanddens","ratio_trial":500,"smaller_num":"3","larger_num":"6","correct_side":2,"subjID":"MarianGarzon26","gender":"1","age":"11","school":"6"},{"start_time":1551801544437,"click_time":1551801545246,"finger_time":1551801545006,"fix_duration":250,"trial":55,"RT":569,"MT":240,"sideResp":1,"stimulus":"img/250/equaldotanddens/L/7_Ratio_250_L_8_R_2.png","xmouse":[773,773,773,773,773,773,773,773,773,773,773,773,773,773,773,773,773,773,773,773,773,773,773,773,773,773,770,743,717,678,643,614,574,562,555,550,548,541,536,530,524],"ymouse":[554,554,554,554,554,554,554,554,554,554,554,554,554,554,554,554,554,554,554,554,554,554,554,554,554,552,547,510,474,415,351,291,202,172,152,136,122,95,82,69,60],"timestamp_mouse":[8,33,49,68,89,108,129,148,169,189,208,228,248,269,288,309,328,348,368,389,408,429,449,468,488,508,528,548,569,588,609,628,649,668,688,708,729,749,768,788,809],"xSR":741.5,"ySR":469.95,"xT1":424.9,"yT1":0,"xT2":1058.1,"yT2":0,"toosoon":0,"cond_shown":"equaldotanddens","ratio_trial":250,"smaller_num":"2","larger_num":"8","correct_side":1,"subjID":"MarianGarzon26","gender":"1","age":"11","school":"6"},{"start_time":1551801546911,"click_time":1551801548005,"finger_time":1551801547666,"fix_duration":724.435434751729,"trial":56,"RT":755,"MT":339,"sideResp":2,"stimulus":"img/900/equaldotanddens/R/3_Ratio_900_L_9_R_10.png","xmouse":[786,786,786,786,786,786,786,786,786,786,786,786,786,786,786,786,786,786,786,786,786,786,786,786,786,786,786,786,786,786,786,786,786,786,786,792,800,808,819,845,861,888,909,947,957,960,962,962,968,973,979,987,1003,1046,1071],"ymouse":[494,494,494,494,494,494,494,494,494,494,494,494,494,494,494,494,494,494,494,494,494,494,494,494,494,494,494,494,494,494,494,494,494,494,493,483,473,463,453,429,411,375,345,279,257,243,235,228,208,198,185,171,146,97,73],"timestamp_mouse":[16,38,55,74,94,115,134,154,174,195,214,234,254,274,294,314,334,356,374,395,414,434,454,475,494,514,534,555,574,594,614,634,654,674,694,714,734,755,774,794,815,835,854,874,894,914,934,955,976,994,1014,1034,1054,1075,1094],"xSR":741.5,"ySR":469.95,"xT1":424.9,"yT1":0,"xT2":1058.1,"yT2":0,"toosoon":0,"cond_shown":"equaldotanddens","ratio_trial":900,"smaller_num":"9","larger_num":"10","correct_side":2,"subjID":"MarianGarzon26","gender":"1","age":"11","school":"6"},{"start_time":1551801549273,"click_time":1551801550605,"finger_time":1551801550226,"fix_duration":586.1939315239084,"trial":57,"RT":953,"MT":379,"sideResp":2,"stimulus":"img/900/equaldotanddens/R/11_Ratio_900_L_18_R_20.png","xmouse":[766,766,766,766,766,766,766,766,766,766,766,766,766,766,766,766,766,766,766,766,766,766,766,766,766,766,766,766,766,766,766,766,766,766,766,766,766,766,766,766,766,766,766,766,766,778,812,855,900,937,969,1011,1024,1036,1045,1050,1060,1063,1066,1068,1069,1072,1074,1076,1077,1080,1086],"ymouse":[551,551,551,551,551,551,551,551,551,551,551,551,551,551,551,551,551,551,551,551,551,551,551,551,551,551,551,551,551,551,551,551,551,551,551,551,551,551,551,551,551,551,551,551,551,543,524,500,473,450,427,379,356,324,302,282,247,231,214,201,183,154,141,133,125,115,96],"timestamp_mouse":[13,33,52,72,92,112,132,153,173,193,212,233,252,272,293,312,333,352,372,392,413,433,452,472,493,512,533,553,574,592,613,632,652,672,693,712,733,752,773,793,812,832,852,872,893,913,932,953,972,993,1012,1033,1052,1072,1092,1113,1132,1151,1172,1193,1212,1232,1252,1272,1293,1312,1332],"xSR":741.5,"ySR":469.95,"xT1":424.9,"yT1":0,"xT2":1058.1,"yT2":0,"toosoon":0,"cond_shown":"equaldotanddens","ratio_trial":900,"smaller_num":"18","larger_num":"20","correct_side":2,"subjID":"MarianGarzon26","gender":"1","age":"11","school":"6"},{"start_time":1551801552318,"click_time":1551801553605,"finger_time":1551801553105,"fix_dura