[{"start_time":1551800584753,"click_time":1551800590905,"finger_time":1551800590526,"fix_duration":904.0534232236708,"trial":0,"RT":5773,"MT":379,"sideResp":2,"stimulus":[],"xmouse":[773,773,773,773,773,773,773,773,773,773,773,773,773,773,773,773,773,773,773,773,773,773,773,773,773,773,773,773,773,773,773,773,773,773,773,773,773,773,773,773,773,773,773,773,773,773,773,773,773,773,773,773,773,773,773,773,773,773,773,773,773,773,773,773,773,773,773,773,773,773,773,773,773,773,773,773,773,773,773,773,773,773,773,773,773,773,773,773,773,773,773,773,773,773,773,773,773,773,773,773,773,773,773,773,773,773,773,773,773,773,773,773,773,773,773,773,773,773,773,773,773,773,773,773,773,773,773,773,773,773,773,773,773,773,773,773,773,773,773,773,773,773,773,773,773,773,773,773,773,773,773,773,773,773,773,773,773,773,773,773,773,773,773,773,773,773,773,773,773,773,773,773,773,773,773,773,773,773,773,773,773,773,773,773,773,773,773,773,773,773,773,773,773,773,773,773,773,773,773,773,773,773,773,773,773,773,773,773,773,773,773,773,773,773,773,773,773,773,773,773,773,773,773,773,773,773,773,773,773,773,773,773,773,773,773,773,773,773,773,773,773,773,773,773,773,773,773,773,773,773,773,773,773,773,773,773,773,773,773,773,773,773,773,773,773,773,773,773,773,773,773,773,773,773,773,773,773,773,773,773,773,773,773,773,792,811,825,844,868,912,938,948,966,975,995,1005,1012,1019,1024,1035,1048,1052,1059,1060,1060,1060,1060],"ymouse":[526,526,526,526,526,526,526,526,526,526,526,526,526,526,526,526,526,526,526,526,526,526,526,526,526,526,526,526,526,526,526,526,526,526,526,526,526,526,526,526,526,526,526,526,526,526,526,526,526,526,526,526,526,526,526,526,526,526,526,526,526,526,526,526,526,526,526,526,526,526,526,526,526,526,526,526,526,526,526,526,526,526,526,526,526,526,526,526,526,526,526,526,526,526,526,526,526,526,526,526,526,526,526,526,526,526,526,526,526,526,526,526,526,526,526,526,526,526,526,526,526,526,526,526,526,526,526,526,526,526,526,526,526,526,526,526,526,526,526,526,526,526,526,526,526,526,526,526,526,526,526,526,526,526,526,526,526,526,526,526,526,526,526,526,526,526,526,526,526,526,526,526,526,526,526,526,526,526,526,526,526,526,526,526,526,526,526,526,526,526,526,526,526,526,526,526,526,526,526,526,526,526,526,526,526,526,526,526,526,526,526,526,526,526,526,526,526,526,526,526,526,526,526,526,526,526,526,526,526,526,526,526,526,526,526,526,526,526,526,526,526,526,526,526,526,526,526,526,526,526,526,526,526,526,526,526,526,526,526,526,526,526,526,526,526,526,526,526,526,526,526,526,526,526,526,526,526,526,526,526,526,526,526,526,516,506,493,478,458,405,358,340,302,281,247,232,219,205,194,177,164,159,141,127,108,102,99],"timestamp_mouse":[13,54,73,92,114,132,153,173,193,212,233,254,273,293,312,332,352,372,393,414,433,453,472,492,512,534,554,572,593,613,632,652,673,692,713,733,753,774,793,813,833,853,872,893,912,932,953,972,993,1013,1033,1054,1073,1093,1112,1132,1152,1172,1192,1213,1234,1252,1272,1292,1313,1333,1353,1372,1393,1413,1433,1453,1474,1493,1513,1534,1554,1572,1593,1612,1634,1652,1672,1693,1714,1732,1753,1772,1794,1813,1833,1853,1873,1894,1914,1932,1953,1972,1992,2013,2032,2053,2072,2092,2113,2132,2153,2172,2192,2212,2233,2252,2272,2292,2313,2333,2353,2373,2392,2412,2432,2452,2472,2492,2513,2534,2553,2573,2593,2613,2633,2652,2672,2692,2712,2733,2754,2773,2792,2813,2832,2854,2872,2892,2914,2932,2953,2974,2992,3014,3032,3053,3073,3094,3112,3132,3153,3173,3192,3212,3234,3252,3274,3292,3313,3332,3354,3372,3392,3413,3433,3453,3473,3492,3514,3533,3553,3572,3593,3613,3632,3653,3673,3692,3714,3733,3752,3774,3792,3813,3832,3852,3872,3893,3912,3933,3953,3972,3992,4012,4032,4052,4073,4092,4113,4132,4153,4173,4192,4213,4233,4252,4273,4292,4312,4334,4353,4372,4394,4413,4432,4452,4472,4492,4513,4532,4553,4572,4593,4612,4633,4652,4673,4693,4713,4733,4753,4773,4793,4813,4832,4853,4872,4893,4914,4933,4953,4972,4993,5013,5033,5053,5072,5092,5112,5133,5153,5173,5192,5214,5233,5253,5273,5292,5312,5333,5352,5373,5393,5412,5432,5453,5473,5493,5512,5532,5552,5573,5592,5612,5633,5652,5672,5693,5712,5733,5753,5773,5792,5813,5832,5852,5872,5892,5913,5932,5953,5972,5992,6013,6032,6052,6072,6092,6113,6133,6152],"xSR":741.5,"ySR":501.8,"xT1":424.9,"yT1":0,"xT2":1058.1,"yT2":0,"toosoon":0,"cond_shown":"Congruent","ratio_trial":300,"L_num":5,"L_den":25,"R_num":7,"R_den":14,"correct_side":2,"subjID":"MarianGarzon26","gender":"1","age":"11","school":"6","test":{"fix_dur":[250,1500],"timestim":1000,"targets_dim":[100,100],"targets_relative_coord":[0.3,0.7],"size_stim":[880,420],"start_dim":[100,100],"size_start":[300,300],"size_fix":60,"samplingrate":20,"img_types":["Congruent","Incongruent"],"ratios":[100,200,300],"rep_conds":19,"nTrials":120,"trials_to_rest":500,"Trials_order":[94,62,113,1,28,36,45,20,66,43,41,7,108,24,87,4,115,96,97,76,3,49,35,18,31,21,40,107,82,14,109,81,53,79,60,16,84,100,19,69,61,95,10,90,110,44,77,29,68,89,26,106,25,98,119,118,13,103,50,72,93,2,67,64,46,17,65,47,80,71,39,86,6,0,63,101,32,91,83,12,57,112,33,99,52,38,105,22,55,27,114,15,23,42,117,104,88,70,111,37,116,34,58,54,78,8,74,56,48,73,9,5,75,59,85,30,102,11,92,51],"cond_shown":["Congruent","Congruent","Incongruent","Incongruent","Congruent","Congruent","Incongruent","Congruent","Congruent","Incongruent","Incongruent","Incongruent","Congruent","Congruent","Incongruent","Congruent","Incongruent","Congruent","Incongruent","Congruent","Incongruent","Incongruent","Incongruent","Congruent","Incongruent","Incongruent","Congruent","Incongruent","Congruent","Congruent","Incongruent","Incongruent","Incongruent","Incongruent","Congruent","Congruent","Congruent","Congruent","Incongruent","Incongruent","Incongruent","Incongruent","Congruent","Congruent","Congruent","Congruent","Incongruent","Incongruent","Congruent","Incongruent","Congruent","Congruent","Incongruent","Congruent","Incongruent","Congruent","Incongruent","Incongruent","Congruent","Congruent","Incongruent","Congruent","Incongruent","Congruent","Congruent","Incongruent","Incongruent","Incongruent","Congruent","Incongruent","Incongruent","Congruent","Congruent","Congruent","Incongruent","Incongruent","Congruent","Incongruent","Incongruent","Congruent","Incongruent","Congruent","Incongruent","Incongruent","Congruent","Congruent","Incongruent","Congruent","Incongruent","Incongruent","Congruent","Incongruent","Incongruent","Congruent","Incongruent","Congruent","Congruent","Congruent","Incongruent","Incongruent","Congruent","Congruent","Congruent","Congruent","Congruent","Congruent","Congruent","Congruent","Congruent","Incongruent","Incongruent","Incongruent","Incongruent","Incongruent","Incongruent","Congruent","Congruent","Incongruent","Congruent","Incongruent"],"ratio_trial":[300,200,300,100,300,100,200,200,100,100,300,100,100,100,200,300,100,100,100,300,200,100,300,100,100,200,300,300,300,200,100,200,300,100,100,300,100,300,100,200,100,300,300,100,200,200,300,300,200,300,200,300,100,200,300,300,100,100,200,100,200,200,100,300,300,300,300,300,200,300,200,200,100,100,200,300,200,100,300,100,200,300,200,200,300,200,200,300,100,200,100,200,300,100,200,200,300,300,200,100,200,300,300,100,100,200,200,200,100,100,200,300,200,300,100,100,100,300,200,200],"left_num":[5,8,4,6,3,2,11,3,1,2,13,6,1,11,3,20,6,11,6,12,7,4,4,8,9,7,3,4,2,1,2,3,4,8,3,11,11,2,9,7,9,7,24,15,14,3,4,2,6,13,7,20,17,15,4,1,6,6,1,2,4,8,3,18,1,4,13,13,3,2,7,16,10,15,4,1,4,12,13,7,3,20,1,9,20,7,7,24,1,7,15,11,13,10,3,12,8,1,7,13,3,1,4,15,4,16,3,14,11,6,7,4,4,8,3,1,3,4,5,4],"right_num":[7,7,2,11,4,6,3,14,3,6,12,13,18,6,1,13,7,4,7,2,4,8,6,2,13,4,11,8,12,21,6,11,2,1,4,2,6,12,14,12,20,8,2,13,6,14,2,6,11,12,18,5,10,4,2,6,7,7,21,11,1,2,7,9,11,6,12,12,11,6,12,9,3,13,14,2,3,9,12,9,11,9,3,8,9,18,8,8,8,8,13,3,12,3,1,6,1,11,6,12,14,19,1,13,15,12,9,6,6,11,12,2,1,14,11,18,4,2,14,14],"left_den":[25,15,20,10,6,5,20,10,2,4,26,10,2,22,10,25,10,22,10,24,15,8,5,16,15,15,12,5,10,2,4,4,20,20,20,22,22,10,15,10,10,10,30,25,28,6,20,4,20,26,15,25,30,25,20,5,10,10,2,5,30,15,9,20,5,5,26,26,10,4,10,30,25,25,6,2,10,24,26,14,4,25,2,15,25,15,10,30,2,10,25,20,26,25,10,20,16,5,15,26,10,3,10,25,10,20,12,28,22,10,10,20,30,10,5,2,20,20,10,6],"right_den":[14,21,4,22,5,12,4,28,5,15,15,26,30,15,2,26,14,10,14,10,6,20,12,5,26,6,20,16,24,30,15,20,4,2,16,10,15,24,28,24,25,20,4,26,20,20,4,30,22,15,27,10,15,10,4,12,14,14,30,22,3,6,30,15,22,12,15,15,22,30,24,27,10,26,30,10,15,15,15,15,20,18,10,10,18,27,16,16,20,16,26,4,15,10,2,15,5,22,9,20,28,30,10,26,30,20,20,20,15,22,24,4,3,28,22,30,16,4,20,30],"correct_side":[2,1,2,1,2,2,2,2,2,1,2,1,2,1,2,1,1,1,1,1,2,1,1,1,1,2,2,1,2,2,1,1,2,2,2,1,1,2,1,1,1,1,1,1,1,2,2,1,2,2,2,1,2,1,2,2,1,1,2,2,2,1,1,1,2,1,2,2,2,1,1,1,1,1,1,1,1,2,2,2,1,1,1,2,1,2,1,1,1,1,1,2,2,1,2,1,1,2,2,2,2,2,1,1,2,1,2,1,1,1,1,2,2,1,1,2,2,2,2,1],"img_shown":["img2/300/Congruent/R/C_Dist_300_LN_5_LD_25_RN_7_RD_14_1.png","img2/200/Congruent/L/C_Dist_200_LN_8_LD_15_RN_7_RD_21_0.png","img2/300/Incongruent/R/I_Dist_300_LN_4_LD_20_RN_2_RD_4_1.png","img2/100/Incongruent/L/I_Dist_100_LN_6_LD_10_RN_11_RD_22_0.png","img2/300/Congruent/R/C_Dist_300_LN_3_LD_6_RN_4_RD_5_1.png","img2/100/Congruent/R/C_Dist_100_LN_2_LD_5_RN_6_RD_12_1.png","img2/200/Incongruent/R/I_Dist_200_LN_11_LD_20_RN_3_RD_4_1.png","img2/200/Congruent/R/C_Dist_200_LN_3_LD_10_RN_14_RD_28_1.png","img2/100/Congruent/R/C_Dist_100_LN_1_LD_2_RN_3_RD_5_1.png","img2/100/Incongruent/L/I_Dist_100_LN_2_LD_4_RN_6_RD_15_0.png","img2/300/Incongruent/R/I_Dist_300_LN_13_LD_26_RN_12_RD_15_1.png","img2/100/Incongruent/L/I_Dist_100_LN_6_LD_10_RN_13_RD_26_0.png","img2/100/Congruent/R/C_Dist_100_LN_1_LD_2_RN_18_RD_30_1.png","img2/100/Congruent/L/C_Dist_100_LN_11_LD_22_RN_6_RD_15_0.png","img2/200/Incongruent/R/I_Dist_200_LN_3_LD_10_RN_1_RD_2_1.png","img2/300/Congruent/L/C_Dist_300_LN_20_LD_25_RN_13_RD_26_0.png","img2/100/Incongruent/L/I_Dist_100_LN_6_LD_10_RN_7_RD_14_0.png","img2/100/Congruent/L/C_Dist_100_LN_11_LD_22_RN_4_RD_10_0.png","img2/100/Incongruent/L/I_Dist_100_LN_6_LD_10_RN_7_RD_14_0.png","img2/300/Congruent/L/C_Dist_300_LN_12_LD_24_RN_2_RD_10_0.png","img2/200/Incongruent/R/I_Dist_200_LN_7_LD_15_RN_4_RD_6_1.png","img2/100/Incongruent/L/I_Dist_100_LN_4_LD_8_RN_8_RD_20_0.png","img2/300/Incongruent/L/I_Dist_300_LN_4_LD_5_RN_6_RD_12_0.png","img2/100/Congruent/L/C_Dist_100_LN_8_LD_16_RN_2_RD_5_0.png","img2/100/Incongruent/L/I_Dist_100_LN_9_LD_15_RN_13_RD_26_0.png","img2/200/Incongruent/R/I_Dist_200_LN_7_LD_15_RN_4_RD_6_1.png","img2/300/Congruent/R/C_Dist_300_LN_3_LD_12_RN_11_RD_20_1.png","img2/300/Incongruent/L/I_Dist_300_LN_4_LD_5_RN_8_RD_16_0.png","img2/300/Congruent/R/C_Dist_300_LN_2_LD_10_RN_12_RD_24_1.png","img2/200/Congruent/R/C_Dist_200_LN_1_LD_2_RN_21_RD_30_1.png","img2/100/Incongruent/L/I_Dist_100_LN_2_LD_4_RN_6_RD_15_0.png","img2/200/Incongruent/L/I_Dist_200_LN_3_LD_4_RN_11_RD_20_0.png","img2/300/Incongruent/R/I_Dist_300_LN_4_LD_20_RN_2_RD_4_1.png","img2/100/Incongruent/R/I_Dist_100_LN_8_LD_20_RN_1_RD_2_1.png","img2/100/Congruent/R/C_Dist_100_LN_3_LD_20_RN_4_RD_16_1.png","img2/300/Congruent/L/C_Dist_300_LN_11_LD_22_RN_2_RD_10_0.png","img2/100/Congruent/L/C_Dist_100_LN_11_LD_22_RN_6_RD_15_0.png","img2/300/Congruent/R/C_Dist_300_LN_2_LD_10_RN_12_RD_24_1.png","img2/100/Incongruent/L/I_Dist_100_LN_9_LD_15_RN_14_RD_28_0.png","img2/200/Incongruent/L/I_Dist_200_LN_7_LD_10_RN_12_RD_24_0.png","img2/100/Incongruent/L/I_Dist_100_LN_9_LD_10_RN_20_RD_25_0.png","img2/300/Incongruent/L/I_Dist_300_LN_7_LD_10_RN_8_RD_20_0.png","img2/300/Congruent/L/C_Dist_300_LN_24_LD_30_RN_2_RD_4_0.png","img2/100/Congruent/L/C_Dist_100_LN_15_LD_25_RN_13_RD_26_0.png","img2/200/Congruent/L/C_Dist_200_LN_14_LD_28_RN_6_RD_20_0.png","img2/200/Congruent/R/C_Dist_200_LN_3_LD_6_RN_14_RD_20_1.png","img2/300/Incongruent/R/I_Dist_300_LN_4_LD_20_RN_2_RD_4_1.png","img2/300/Incongruent/L/I_Dist_300_LN_2_LD_4_RN_6_RD_30_0.png","img2/200/Congruent/R/C_Dist_200_LN_6_LD_20_RN_11_RD_22_1.png","img2/300/Incongruent/R/I_Dist_300_LN_13_LD_26_RN_12_RD_15_1.png","img2/200/Congruent/R/C_Dist_200_LN_7_LD_15_RN_18_RD_27_1.png","img2/300/Congruent/L/C_Dist_300_LN_20_LD_25_RN_5_RD_10_0.png","img2/100/Incongruent/R/I_Dist_100_LN_17_LD_30_RN_10_RD_15_1.png","img2/200/Congruent/L/C_Dist_200_LN_15_LD_25_RN_4_RD_10_0.png","img2/300/Incongruent/R/I_Dist_300_LN_4_LD_20_RN_2_RD_4_1.png","img2/300/Congruent/R/C_Dist_300_LN_1_LD_5_RN_6_RD_12_1.png","img2/100/Incongruent/L/I_Dist_100_LN_6_LD_10_RN_7_RD_14_0.png","img2/100/Incongruent/L/I_Dist_100_LN_6_LD_10_RN_7_RD_14_0.png","img2/200/Congruent/R/C_Dist_200_LN_1_LD_2_RN_21_RD_30_1.png","img2/100/Congruent/R/C_Dist_100_LN_2_LD_5_RN_11_RD_22_1.png","img2/200/Incongruent/R/I_Dist_200_LN_4_LD_30_RN_1_RD_3_1.png","img2/200/Congruent/L/C_Dist_200_LN_8_LD_15_RN_2_RD_6_0.png","img2/100/Incongruent/L/I_Dist_100_LN_3_LD_9_RN_7_RD_30_0.png","img2/300/Congruent/L/C_Dist_300_LN_18_LD_20_RN_9_RD_15_0.png","img2/300/Congruent/R/C_Dist_300_LN_1_LD_5_RN_11_RD_22_1.png","img2/300/Incongruent/L/I_Dist_300_LN_4_LD_5_RN_6_RD_12_0.png","img2/300/Incongruent/R/I_Dist_300_LN_13_LD_26_RN_12_RD_15_1.png","img2/300/Incongruent/R/I_Dist_300_LN_13_LD_26_RN_12_RD_15_1.png","img2/200/Congruent/R/C_Dist_200_LN_3_LD_10_RN_11_RD_22_1.png","img2/300/Incongruent/L/I_Dist_300_LN_2_LD_4_RN_6_RD_30_0.png","img2/200/Incongruent/L/I_Dist_200_LN_7_LD_10_RN_12_RD_24_0.png","img2/200/Congruent/L/C_Dist_200_LN_16_LD_30_RN_9_RD_27_0.png","img2/100/Congruent/L/C_Dist_100_LN_10_LD_25_RN_3_RD_10_0.png","img2/100/Congruent/L/C_Dist_100_LN_15_LD_25_RN_13_RD_26_0.png","img2/200/Incongruent/L/I_Dist_200_LN_4_LD_6_RN_14_RD_30_0.png","img2/300/Incongruent/L/I_Dist_300_LN_1_LD_2_RN_2_RD_10_0.png","img2/200/Congruent/L/C_Dist_200_LN_4_LD_10_RN_3_RD_15_0.png","img2/100/Incongruent/R/I_Dist_100_LN_12_LD_24_RN_9_RD_15_1.png","img2/300/Incongruent/R/I_Dist_300_LN_13_LD_26_RN_12_RD_15_1.png","img2/100/Congruent/R/C_Dist_100_LN_7_LD_14_RN_9_RD_15_1.png","img2/200/Incongruent/L/I_Dist_200_LN_3_LD_4_RN_11_RD_20_0.png","img2/300/Congruent/L/C_Dist_300_LN_20_LD_25_RN_9_RD_18_0.png","img2/200/Incongruent/L/I_Dist_200_LN_1_LD_2_RN_3_RD_10_0.png","img2/200/Incongruent/R/I_Dist_200_LN_9_LD_15_RN_8_RD_10_1.png","img2/300/Congruent/L/C_Dist_300_LN_20_LD_25_RN_9_RD_18_0.png","img2/200/Congruent/R/C_Dist_200_LN_7_LD_15_RN_18_RD_27_1.png","img2/200/Incongruent/L/I_Dist_200_LN_7_LD_10_RN_8_RD_16_0.png","img2/300/Congruent/L/C_Dist_300_LN_24_LD_30_RN_8_RD_16_0.png","img2/100/Incongruent/L/I_Dist_100_LN_1_LD_2_RN_8_RD_20_0.png","img2/200/Incongruent/L/I_Dist_200_LN_7_LD_10_RN_8_RD_16_0.png","img2/100/Congruent/L/C_Dist_100_LN_15_LD_25_RN_13_RD_26_0.png","img2/200/Incongruent/R/I_Dist_200_LN_11_LD_20_RN_3_RD_4_1.png","img2/300/Incongruent/R/I_Dist_300_LN_13_LD_26_RN_12_RD_15_1.png","img2/100/Congruent/L/C_Dist_100_LN_10_LD_25_RN_3_RD_10_0.png","img2/200/Incongruent/R/I_Dist_200_LN_3_LD_10_RN_1_RD_2_1.png","img2/200/Congruent/L/C_Dist_200_LN_12_LD_20_RN_6_RD_15_0.png","img2/300/Congruent/L/C_Dist_300_LN_8_LD_16_RN_1_RD_5_0.png","img2/300/Congruent/R/C_Dist_300_LN_1_LD_5_RN_11_RD_22_1.png","img2/200/Incongruent/R/I_Dist_200_LN_7_LD_15_RN_6_RD_9_1.png","img2/100/Incongruent/R/I_Dist_100_LN_13_LD_26_RN_12_RD_20_1.png","img2/200/Congruent/R/C_Dist_200_LN_3_LD_10_RN_14_RD_28_1.png","img2/300/Congruent/R/C_Dist_300_LN_1_LD_3_RN_19_RD_30_1.png","img2/300/Congruent/L/C_Dist_300_LN_4_LD_10_RN_1_RD_10_0.png","img2/100/Congruent/L/C_Dist_100_LN_15_LD_25_RN_13_RD_26_0.png","img2/100/Congruent/R/C_Dist_100_LN_4_LD_10_RN_15_RD_30_1.png","img2/200/Congruent/L/C_Dist_200_LN_16_LD_20_RN_12_RD_20_0.png","img2/200/Congruent/R/C_Dist_200_LN_3_LD_12_RN_9_RD_20_1.png","img2/200/Congruent/L/C_Dist_200_LN_14_LD_28_RN_6_RD_20_0.png","img2/100/Congruent/L/C_Dist_100_LN_11_LD_22_RN_6_RD_15_0.png","img2/100/Incongruent/L/I_Dist_100_LN_6_LD_10_RN_11_RD_22_0.png","img2/200/Incongruent/L/I_Dist_200_LN_7_LD_10_RN_12_RD_24_0.png","img2/300/Incongruent/R/I_Dist_300_LN_4_LD_20_RN_2_RD_4_1.png","img2/200/Incongruent/R/I_Dist_200_LN_4_LD_30_RN_1_RD_3_1.png","img2/300/Incongruent/L/I_Dist_300_LN_8_LD_10_RN_14_RD_28_0.png","img2/100/Incongruent/L/I_Dist_100_LN_3_LD_5_RN_11_RD_22_0.png","img2/100/Congruent/R/C_Dist_100_LN_1_LD_2_RN_18_RD_30_1.png","img2/100/Congruent/R/C_Dist_100_LN_3_LD_20_RN_4_RD_16_1.png","img2/300/Incongruent/R/I_Dist_300_LN_4_LD_20_RN_2_RD_4_1.png","img2/200/Congruent/R/C_Dist_200_LN_5_LD_10_RN_14_RD_20_1.png","img2/200/Incongruent/L/I_Dist_200_LN_4_LD_6_RN_14_RD_30_0.png"],"dist100_C":[["C_Dist_100_LN_10_LD_25_RN_3_RD_10_0.png","C_Dist_100_LN_11_LD_22_RN_4_RD_10_0.png","C_Dist_100_LN_11_LD_22_RN_6_RD_15_0.png","C_Dist_100_LN_15_LD_25_RN_13_RD_26_0.png","C_Dist_100_LN_3_LD_6_RN_2_RD_5_0.png","C_Dist_100_LN_6_LD_20_RN_5_RD_25_0.png","C_Dist_100_LN_8_LD_16_RN_2_RD_5_0.png","C_Dist_100_LN_9_LD_15_RN_8_RD_16_0.png"],["C_Dist_100_LN_1_LD_2_RN_18_RD_30_1.png","C_Dist_100_LN_1_LD_2_RN_3_RD_5_1.png","C_Dist_100_LN_12_LD_30_RN_13_RD_26_1.png","C_Dist_100_LN_2_LD_5_RN_11_RD_22_1.png","C_Dist_100_LN_2_LD_5_RN_6_RD_12_1.png","C_Dist_100_LN_3_LD_20_RN_4_RD_16_1.png","C_Dist_100_LN_4_LD_10_RN_15_RD_30_1.png","C_Dist_100_LN_4_LD_8_RN_6_RD_10_1.png","C_Dist_100_LN_6_LD_12_RN_15_RD_25_1.png","C_Dist_100_LN_7_LD_14_RN_15_RD_25_1.png","C_Dist_100_LN_7_LD_14_RN_9_RD_15_1.png"]],"dist100_I":[["I_Dist_100_LN_1_LD_2_RN_8_RD_20_0.png","I_Dist_100_LN_2_LD_4_RN_6_RD_15_0.png","I_Dist_100_LN_2_LD_4_RN_8_RD_20_0.png","I_Dist_100_LN_3_LD_5_RN_11_RD_22_0.png","I_Dist_100_LN_3_LD_5_RN_8_RD_16_0.png","I_Dist_100_LN_3_LD_6_RN_4_RD_10_0.png","I_Dist_100_LN_3_LD_9_RN_7_RD_30_0.png","I_Dist_100_LN_4_LD_8_RN_8_RD_20_0.png","I_Dist_100_LN_6_LD_10_RN_11_RD_22_0.png","I_Dist_100_LN_6_LD_10_RN_13_RD_26_0.png","I_Dist_100_LN_6_LD_10_RN_7_RD_14_0.png","I_Dist_100_LN_9_LD_10_RN_20_RD_25_0.png","I_Dist_100_LN_9_LD_15_RN_13_RD_26_0.png","I_Dist_100_LN_9_LD_15_RN_14_RD_28_0.png"],["I_Dist_100_LN_10_LD_25_RN_8_RD_16_1.png","I_Dist_100_LN_10_LD_25_RN_9_RD_18_1.png","I_Dist_100_LN_11_LD_22_RN_9_RD_15_1.png","I_Dist_100_LN_12_LD_24_RN_9_RD_15_1.png","I_Dist_100_LN_12_LD_30_RN_2_RD_4_1.png","I_Dist_100_LN_13_LD_26_RN_12_RD_20_1.png","I_Dist_100_LN_13_LD_26_RN_6_RD_10_1.png","I_Dist_100_LN_17_LD_30_RN_10_RD_15_1.png","I_Dist_100_LN_6_LD_12_RN_3_RD_5_1.png","I_Dist_100_LN_8_LD_16_RN_6_RD_10_1.png","I_Dist_100_LN_8_LD_20_RN_1_RD_2_1.png","I_Dist_100_LN_9_LD_18_RN_6_RD_10_1.png"]],"dist100_S":[["E_Dist_100_LN_2_LD_12_RN_2_RD_30_0.png","E_Dist_100_LN_6_LD_10_RN_6_RD_12_0.png"],["E_Dist_100_LN_6_LD_12_RN_6_RD_10_1.png"]],"dist200_C":[["C_Dist_200_LN_11_LD_22_RN_3_RD_10_0.png","C_Dist_200_LN_12_LD_15_RN_6_RD_10_0.png","C_Dist_200_LN_12_LD_20_RN_6_RD_15_0.png","C_Dist_200_LN_14_LD_28_RN_6_RD_20_0.png","C_Dist_200_LN_15_LD_25_RN_4_RD_10_0.png","C_Dist_200_LN_16_LD_20_RN_12_RD_20_0.png","C_Dist_200_LN_16_LD_30_RN_9_RD_27_0.png","C_Dist_200_LN_20_LD_25_RN_9_RD_15_0.png","C_Dist_200_LN_21_LD_30_RN_2_RD_4_0.png","C_Dist_200_LN_4_LD_10_RN_3_RD_15_0.png","C_Dist_200_LN_4_LD_8_RN_3_RD_10_0.png","C_Dist_200_LN_6_LD_15_RN_3_RD_15_0.png","C_Dist_200_LN_7_LD_21_RN_2_RD_15_0.png","C_Dist_200_LN_8_LD_15_RN_2_RD_6_0.png","C_Dist_200_LN_8_LD_15_RN_3_RD_9_0.png","C_Dist_200_LN_8_LD_15_RN_7_RD_21_0.png","C_Dist_200_LN_9_LD_20_RN_4_RD_16_0.png"],["C_Dist_200_LN_1_LD_2_RN_21_RD_30_1.png","C_Dist_200_LN_13_LD_26_RN_14_RD_20_1.png","C_Dist_200_LN_3_LD_10_RN_11_RD_22_1.png","C_Dist_200_LN_3_LD_10_RN_14_RD_28_1.png","C_Dist_200_LN_3_LD_10_RN_7_RD_14_1.png","C_Dist_200_LN_3_LD_12_RN_9_RD_20_1.png","C_Dist_200_LN_3_LD_6_RN_14_RD_20_1.png","C_Dist_200_LN_5_LD_10_RN_14_RD_20_1.png","C_Dist_200_LN_6_LD_12_RN_7_RD_10_1.png","C_Dist_200_LN_6_LD_20_RN_11_RD_22_1.png","C_Dist_200_LN_7_LD_15_RN_18_RD_27_1.png","C_Dist_200_LN_9_LD_30_RN_13_RD_26_1.png"]],"dist200_I":[["I_Dist_200_LN_1_LD_2_RN_3_RD_10_0.png","I_Dist_200_LN_1_LD_3_RN_2_RD_15_0.png","I_Dist_200_LN_3_LD_4_RN_11_RD_20_0.png","I_Dist_200_LN_4_LD_5_RN_6_RD_10_0.png","I_Dist_200_LN_4_LD_6_RN_14_RD_30_0.png","I_Dist_200_LN_7_LD_10_RN_12_RD_24_0.png","I_Dist_200_LN_7_LD_10_RN_14_RD_28_0.png","I_Dist_200_LN_7_LD_10_RN_8_RD_16_0.png"],["I_Dist_200_LN_11_LD_20_RN_3_RD_4_1.png","I_Dist_200_LN_14_LD_30_RN_12_RD_18_1.png","I_Dist_200_LN_14_LD_30_RN_6_RD_9_1.png","I_Dist_200_LN_3_LD_10_RN_1_RD_2_1.png","I_Dist_200_LN_4_LD_30_RN_1_RD_3_1.png","I_Dist_200_LN_6_LD_20_RN_3_RD_6_1.png","I_Dist_200_LN_7_LD_15_RN_4_RD_6_1.png","I_Dist_200_LN_7_LD_15_RN_6_RD_9_1.png","I_Dist_200_LN_9_LD_15_RN_8_RD_10_1.png"]],"dist200_S":[["E_Dist_200_LN_3_LD_6_RN_3_RD_10_0.png"],["E_Dist_200_LN_3_LD_10_RN_3_RD_6_1.png"]],"dist300_C":[["C_Dist_300_LN_11_LD_22_RN_1_RD_5_0.png","C_Dist_300_LN_11_LD_22_RN_2_RD_10_0.png","C_Dist_300_LN_11_LD_22_RN_4_RD_20_0.png","C_Dist_300_LN_12_LD_24_RN_2_RD_10_0.png","C_Dist_300_LN_18_LD_20_RN_9_RD_15_0.png","C_Dist_300_LN_20_LD_25_RN_13_RD_26_0.png","C_Dist_300_LN_20_LD_25_RN_14_RD_28_0.png","C_Dist_300_LN_20_LD_25_RN_5_RD_10_0.png","C_Dist_300_LN_20_LD_25_RN_8_RD_16_0.png","C_Dist_300_LN_20_LD_25_RN_9_RD_18_0.png","C_Dist_300_LN_24_LD_30_RN_2_RD_4_0.png","C_Dist_300_LN_24_LD_30_RN_8_RD_16_0.png","C_Dist_300_LN_3_LD_6_RN_2_RD_10_0.png","C_Dist_300_LN_4_LD_10_RN_1_RD_10_0.png","C_Dist_300_LN_4_LD_5_RN_2_RD_4_0.png","C_Dist_300_LN_8_LD_16_RN_1_RD_5_0.png","C_Dist_300_LN_9_LD_10_RN_3_RD_5_0.png"],["C_Dist_300_LN_1_LD_20_RN_7_RD_20_1.png","C_Dist_300_LN_1_LD_3_RN_19_RD_30_1.png","C_Dist_300_LN_1_LD_30_RN_8_RD_24_1.png","C_Dist_300_LN_1_LD_5_RN_11_RD_22_1.png","C_Dist_300_LN_1_LD_5_RN_3_RD_6_1.png","C_Dist_300_LN_1_LD_5_RN_6_RD_12_1.png","C_Dist_300_LN_2_LD_10_RN_12_RD_24_1.png","C_Dist_300_LN_2_LD_20_RN_10_RD_25_1.png","C_Dist_300_LN_3_LD_12_RN_11_RD_20_1.png","C_Dist_300_LN_3_LD_6_RN_4_RD_5_1.png","C_Dist_300_LN_4_LD_20_RN_13_RD_26_1.png","C_Dist_300_LN_5_LD_25_RN_6_RD_12_1.png","C_Dist_300_LN_5_LD_25_RN_7_RD_14_1.png","C_Dist_300_LN_7_LD_14_RN_20_RD_25_1.png","C_Dist_300_LN_8_LD_15_RN_10_RD_12_1.png"]],"dist300_I":[["I_Dist_300_LN_1_LD_2_RN_2_RD_10_0.png","I_Dist_300_LN_1_LD_2_RN_3_RD_15_0.png","I_Dist_300_LN_2_LD_4_RN_6_RD_30_0.png","I_Dist_300_LN_3_LD_6_RN_4_RD_20_0.png","I_Dist_300_LN_4_LD_5_RN_6_RD_12_0.png","I_Dist_300_LN_4_LD_5_RN_8_RD_16_0.png","I_Dist_300_LN_7_LD_10_RN_8_RD_20_0.png","I_Dist_300_LN_8_LD_10_RN_14_RD_28_0.png","I_Dist_300_LN_8_LD_10_RN_9_RD_18_0.png"],["I_Dist_300_LN_13_LD_26_RN_12_RD_15_1.png","I_Dist_300_LN_4_LD_20_RN_2_RD_4_1.png"]],"dist300_S":[["E_Dist_300_LN_9_LD_12_RN_9_RD_20_0.png"],["E_Dist_300_LN_18_LD_30_RN_18_RD_20_1.png","E_Dist_300_LN_3_LD_10_RN_3_RD_5_1.png","E_Dist_300_LN_9_LD_20_RN_9_RD_12_1.png"]],"dist500_C":[["C_Dist_500_LN_10_LD_13_RN_7_RD_26_0.png","C_Dist_500_LN_10_LD_15_RN_4_RD_24_0.png","C_Dist_500_LN_12_LD_16_RN_3_RD_12_0.png","C_Dist_500_LN_12_LD_18_RN_4_RD_24_0.png","C_Dist_500_LN_15_LD_18_RN_5_RD_15_0.png","C_Dist_500_LN_15_LD_20_RN_1_RD_4_0.png","C_Dist_500_LN_18_LD_27_RN_1_RD_6_0.png","C_Dist_500_LN_20_LD_24_RN_1_RD_3_0.png","C_Dist_500_LN_20_LD_24_RN_3_RD_9_0.png","C_Dist_500_LN_20_LD_24_RN_7_RD_21_0.png","C_Dist_500_LN_20_LD_28_RN_3_RD_14_0.png","C_Dist_500_LN_21_LD_28_RN_6_RD_24_0.png","C_Dist_500_LN_22_LD_28_RN_2_RD_7_0.png","C_Dist_500_LN_25_LD_30_RN_9_RD_27_0.png","C_Dist_500_LN_4_LD_6_RN_1_RD_6_0.png","C_Dist_500_LN_5_LD_6_RN_2_RD_6_0.png","C_Dist_500_LN_6_LD_9_RN_1_RD_6_0.png","C_Dist_500_LN_7_LD_10_RN_1_RD_5_0.png","C_Dist_500_LN_8_LD_12_RN_1_RD_6_0.png","C_Dist_500_LN_8_LD_12_RN_4_RD_24_0.png"],["C_Dist_500_LN_1_LD_4_RN_12_RD_16_1.png","C_Dist_500_LN_1_LD_4_RN_9_RD_12_1.png","C_Dist_500_LN_1_LD_9_RN_11_RD_18_1.png","C_Dist_500_LN_10_LD_24_RN_22_RD_24_1.png","C_Dist_500_LN_2_LD_12_RN_10_RD_15_1.png","C_Dist_500_LN_2_LD_12_RN_12_RD_18_1.png","C_Dist_500_LN_2_LD_12_RN_4_RD_6_1.png","C_Dist_500_LN_2_LD_24_RN_7_RD_12_1.png","C_Dist_500_LN_2_LD_5_RN_18_RD_20_1.png","C_Dist_500_LN_2_LD_5_RN_9_RD_10_1.png","C_Dist_500_LN_2_LD_8_RN_12_RD_16_1.png","C_Dist_500_LN_2_LD_8_RN_21_RD_28_1.png","C_Dist_500_LN_3_LD_10_RN_4_RD_5_1.png","C_Dist_500_LN_3_LD_12_RN_15_RD_20_1.png","C_Dist_500_LN_3_LD_30_RN_6_RD_10_1.png","C_Dist_500_LN_3_LD_8_RN_14_RD_16_1.png","C_Dist_500_LN_4_LD_16_RN_15_RD_20_1.png","C_Dist_500_LN_4_LD_24_RN_12_RD_18_1.png","C_Dist_500_LN_5_LD_14_RN_6_RD_7_1.png","C_Dist_500_LN_7_LD_21_RN_20_RD_24_1.png","C_Dist_500_LN_7_LD_28_RN_12_RD_16_1.png","C_Dist_500_LN_7_LD_28_RN_9_RD_12_1.png","C_Dist_500_LN_9_LD_27_RN_20_RD_24_1.png"]],"dist500_I":[["I_Dist_500_LN_2_LD_3_RN_4_RD_24_0.png","I_Dist_500_LN_5_LD_6_RN_6_RD_18_0.png","I_Dist_500_LN_7_LD_8_RN_9_RD_24_0.png"],["I_Dist_500_LN_7_LD_21_RN_5_RD_6_1.png"]],"dist500_S":[["E_Dist_500_LN_6_LD_8_RN_6_RD_24_0.png"],["E_Dist_500_LN_2_LD_12_RN_2_RD_3_1.png","E_Dist_500_LN_6_LD_24_RN_6_RD_8_1.png"]]}},{"start_time":1551800592077,"click_time":1551800594027,"finger_time":1551800593666,"fix_duration":250,"trial":1,"RT":1589,"MT":361,"sideResp":1,"stimulus":[],"xmouse":[786,784,784,784,784,784,784,784,784,784,784,784,784,784,784,784,784,784,784,784,784,784,784,784,784,784,784,784,784,784,784,784,784,784,784,784,784,784,784,784,784,784,784,784,784,784,784,784,784,784,784,784,784,784,784,784,784,784,784,784,784,784,784,784,784,784,784,784,784,784,784,784,784,784,784,784,784,784,779,762,740,712,682,648,592,568,558,551,545,537,534,530,528,527,526,526,526,523],"ymouse":[478,482,484,485,488,489,489,490,490,491,492,492,492,492,492,492,492,492,492,492,492,492,492,492,492,492,492,492,492,492,492,492,492,492,492,493,493,493,493,493,493,493,493,493,493,493,493,493,493,493,493,493,493,493,493,493,493,493,493,493,493,493,493,493,493,493,493,493,493,493,493,493,493,493,493,493,493,493,473,429,385,339,293,246,188,164,151,137,126,107,100,94,91,88,87,87,87,84],"timestamp_mouse":[9,33,48,68,89,108,128,148,168,190,208,228,248,268,288,308,328,348,368,389,408,428,449,468,489,508,528,548,568,588,608,628,648,669,688,709,728,749,768,789,808,828,848,868,888,908,928,948,968,989,1009,1028,1048,1069,1088,1109,1130,1148,1169,1188,1208,1229,1250,1268,1288,1308,1328,1349,1368,1388,1409,1428,1449,1468,1488,1509,1528,1550,1568,1589,1608,1628,1649,1668,1690,1708,1729,1749,1769,1790,1808,1829,1848,1868,1889,1909,1928,1949],"xSR":741.5,"ySR":469.95,"xT1":424.9,"yT1":0,"xT2":1058.1,"yT2":0,"toosoon":0,"cond_shown":"Congruent","ratio_trial":200,"L_num":8,"L_den":15,"R_num":7,"R_den":21,"correct_side":1,"subjID":"MarianGarzon26","gender":"1","school":"6","age":"11"},{"start_time":1551800595117,"click_time":1551800596686,"finger_time":1551800596486,"fix_duration":250,"trial":2,"RT":1369,"MT":200,"sideResp":2,"stimulus":[],"xmouse":[793,793,793,793,793,793,793,793,793,793,793,793,793,793,793,793,793,793,793,793,793,793,793,793,793,793,793,793,793,793,793,793,793,793,793,793,793,793,793,793,793,793,793,793,793,793,793,793,793,793,793,793,793,793,793,793,793,793,793,793,793,793,793,793,796,800,808,817,839,853,868,888,916,998,1023,1042,1056,1068,1089],"ymouse":[504,504,504,504,504,504,504,504,504,504,504,504,504,504,504,504,504,504,504,504,504,504,504,504,504,504,504,504,504,504,504,504,504,504,504,504,504,505,505,505,505,505,505,505,505,505,505,505,505,505,505,505,505,505,505,505,505,505,505,505,505,505,505,505,502,496,489,481,461,445,425,395,359,257,212,171,138,111,67],"timestamp_mouse":[25,43,50,69,89,108,128,150,168,190,209,228,250,268,288,310,330,348,369,388,409,428,448,470,488,509,528,549,569,588,609,629,649,670,688,709,729,748,769,790,809,828,848,869,889,909,928,948,968,988,1009,1029,1048,1069,1088,1108,1129,1149,1168,1188,1209,1230,1248,1268,1289,1309,1329,1348,1369,1388,1408,1429,1448,1468,1488,1508,1529,1548,1568],"xSR":741.5,"ySR":469.95,"xT1":424.9,"yT1":0,"xT2":1058.1,"yT2":0,"toosoon":0,"cond_shown":"Incongruent","ratio_trial":300,"L_num":4,"L_den":20,"R_num":2,"R_den":4,"correct_side":2,"subjID":"MarianGarzon26","gender":"1","school":"6","age":"11"},{"start_time":1551800598248,"click_time":1551800599965,"finger_time":1551800599665,"fix_duration":861.3720443454987,"trial":3,"RT":1417,"MT":300,"sideResp":1,"stimulus":[],"xmouse":[808,808,808,808,808,808,808,808,808,808,808,808,808,808,808,808,808,808,808,808,808,808,808,808,808,808,808,808,808,808,808,808,808,808,808,808,808,808,808,808,808,808,808,808,808,808,808,808,808,808,808,808,808,808,808,808,808,808,808,808,808,808,808,808,808,808,808,807,799,790,780,766,761,753,727,707,675,662,642,622,596,532,523,510,506,504],"ymouse":[514,514,514,514,514,514,514,514,514,514,514,514,514,514,514,514,514,514,514,514,514,514,514,514,514,514,514,514,514,514,514,514,514,514,514,514,514,514,514,514,514,514,514,514,514,514,514,514,514,514,514,514,514,514,514,514,514,514,514,514,514,514,514,514,514,514,514,505,491,474,456,414,391,367,325,301,268,254,237,217,196,143,133,110,102,97],"timestamp_mouse":[17,37,57,79,97,119,138,158,178,197,217,238,257,278,298,319,339,358,378,398,417,438,457,477,497,518,537,557,577,597,618,638,658,678,698,717,738,759,778,798,818,838,858,877,898,917,937,959,978,997,1018,1037,1058,1079,1099,1118,1138,1157,1177,1197,1217,1238,1257,1277,1298,1318,1337,1358,1377,1398,1417,1438,1457,1477,1498,1519,1537,1558,1579,1598,1617,1639,1659,1678,1698,1717],"xSR":741.5,"ySR":469.95,"xT1":424.9,"yT1":0,"xT2":1058.1,"yT2":0,"toosoon":0,"cond_shown":"Incongruent","ratio_trial":100,"L_num":6,"L_den":10,"R_num":11,"R_den":22,"correct_side":1,"subjID":"MarianGarzon26","gender":"1","school":"6","age":"11"},{"start_time":1551800601123,"click_time":1551800602305,"finger_time":1551800602006,"fix_duration":335.19131573046326,"trial":4,"RT":883,"MT":299,"sideResp":2,"stimulus":[],"xmouse":[760,760,760,760,760,760,760,760,760,760,760,760,760,760,760,760,760,760,760,760,760,760,760,760,760,760,760,760,760,760,760,760,760,760,760,760,760,760,760,760,760,760,773,785,919,1007,1093,1157,1211,1218,1218,1217,1212,1204,1197,1189,1182,1176,1169,1133],"ymouse":[508,508,508,508,508,508,508,508,508,508,508,508,508,508,508,508,508,508,508,508,508,508,508,508,508,508,508,508,508,508,508,508,508,508,508,508,508,508,508,508,508,508,492,478,343,273,201,144,68,43,33,27,21,17,15,12,12,12,12,33],"timestamp_mouse":[8,22,42,63,83,103,122,142,162,183,204,223,242,263,282,303,323,343,364,383,404,424,443,463,483,502,522,543,564,582,603,622,642,662,683,702,722,743,762,784,802,823,842,862,883,902,922,943,963,982,1002,1023,1043,1064,1082,1102,1124,1142,1162,1182],"xSR":741.5,"ySR":469.95,"xT1":424.9,"yT1":0,"xT2":1058.1,"yT2":0,"toosoon":0,"cond_shown":"Congruent","ratio_trial":300,"L_num":3,"L_den":6,"R_num":4,"R_den":5,"correct_side":2,"subjID":"MarianGarzon26","gender":"1","school":"6","age":"11"},{"start_time":1551800604013,"click_time":1551800605625,"finger_time":1551800605185,"fix_duration":946.0744936467905,"trial":5,"RT":1172,"MT":440,"sideResp":1,"stimulus":[],"xmouse":[789,789,789,789,789,789,789,789,789,789,789,789,789,789,789,789,789,789,789,789,789,789,789,789,789,789,789,789,789,789,789,789,789,789,789,789,789,789,789,789,789,789,789,789,789,789,789,789,789,789,789,789,789,789,789,789,789,789,786,739,700,663,639,614,586,571,561,555,553,552,551,551,550,549,548,547,545,542,536,513,507],"ymouse":[501,501,501,501,501,501,501,501,501,501,501,501,501,501,501,501,501,501,501,501,501,501,501,501,501,501,501,501,501,501,501,501,501,501,501,501,501,501,501,501,501,501,501,501,501,501,501,501,501,501,501,501,501,501,501,501,499,490,467,370,324,286,262,233,196,178,163,153,146,139,137,136,133,130,120,119,117,113,110,101,98],"timestamp_mouse":[12,38,52,73,92,114,133,152,173,192,212,232,253,272,292,313,332,352,372,393,412,434,452,473,493,512,532,552,573,594,613,634,653,672,694,712,732,753,772,794,812,833,853,872,892,913,934,952,972,993,1012,1032,1052,1072,1093,1114,1132,1153,1172,1193,1212,1232,1254,1273,1292,1312,1332,1353,1373,1393,1412,1433,1452,1473,1492,1513,1532,1552,1572,1593,1612],"xSR":741.5,"ySR":469.95,"xT1":424.9,"yT1":0,"xT2":1058.1,"yT2":0,"toosoon":0,"cond_shown":"Congruent","ratio_trial":100,"L_num":2,"L_den":5,"R_num":6,"R_den":12,"correct_side":2,"subjID":"MarianGarzon26","gender":"1","school":"6","age":"11"},{"start_time":1551800609227,"click_time":1551800610946,"finger_time":1551800610566,"fix_duration":1060.6655218396074,"trial":6,"RT":1339,"MT":380,"sideResp":2,"stimulus":[],"xmouse":[828,828,828,828,828,828,828,828,828,828,828,828,828,828,828,828,828,828,828,828,828,828,828,828,828,828,828,828,828,828,828,828,828,828,828,828,828,828,828,828,828,828,828,828,828,828,828,828,828,828,828,828,828,828,828,828,828,828,828,828,828,828,828,828,828,837,859,932,1063,1107,1154,1177,1197,1221,1224,1226,1226,1226,1222,1203,1193,1180,1164,1132,1115,1103],"ymouse":[492,492,492,492,492,492,492,492,492,492,492,492,492,492,492,492,492,492,492,492,492,492,492,492,492,492,492,492,492,492,492,492,492,492,492,492,492,492,492,492,492,492,492,492,492,492,492,492,492,492,492,492,492,492,492,492,492,492,492,492,492,492,492,492,492,492,482,449,377,334,277,248,228,199,191,184,180,176,171,154,147,137,127,110,103,97],"timestamp_mouse":[19,38,58,78,98,118,138,158,178,198,218,239,258,278,298,318,338,360,379,398,418,438,459,479,498,518,538,558,578,599,618,640,658,679,699,720,739,760,778,800,820,838,858,879,899,920,939,958,978,999,1019,1039,1058,1079,1099,1120,1138,1158,1178,1199,1218,1239,1259,1279,1299,1319,1339,1359,1379,1398,1418,1438,1460,1480,1498,1519,1539,1558,1578,1599,1619,1639,1660,1680,1698,1719],"xSR":741.5,"ySR":469.95,"xT1":424.9,"yT1":0,"xT2":1058.1,"yT2":0,"toosoon":0,"cond_shown":"Incongruent","ratio_trial":200,"L_num":11,"L_den":20,"R_num":3,"R_den":4,"correct_side":2,"subjID":"MarianGarzon26","gender":"1","school":"6","age":"11"},{"start_time":1551800612326,"click_time":1551800613865,"finger_time":1551800613525,"fix_duration":499.4792536490548,"trial":7,"RT":1199,"MT":340,"sideResp":1,"stimulus":[],"xmouse":[820,820,820,820,820,820,820,820,820,820,820,820,820,820,820,820,820,820,820,820,820,820,820,820,820,820,820,820,820,820,820,820,820,820,820,820,820,820,820,820,820,820,820,820,820,820,820,820,820,820,820,820,820,819,810,801,787,769,750,710,683,660,642,627,598,586,577,566,557,531,515,502,492,487,483,483,483],"ymouse":[543,543,543,543,543,543,543,543,543,543,543,543,543,543,543,543,543,543,543,543,543,543,543,543,543,543,543,543,543,543,543,543,543,543,543,543,543,543,543,543,543,543,543,543,543,543,543,543,543,543,543,543,543,543,533,523,509,494,476,429,400,373,348,327,278,258,238,216,194,159,148,138,131,121,106,101,96],"timestamp_mouse":[32,40,59,80,100,120,140,159,180,200,220,240,259,281,300,319,339,359,379,401,420,439,459,480,500,520,539,559,581,600,619,639,660,679,699,719,740,759,779,799,819,839,859,879,900,919,941,960,980,999,1020,1039,1060,1080,1100,1120,1139,1159,1179,1199,1219,1240,1261,1279,1299,1319,1339,1359,1380,1399,1419,1440,1459,1480,1499,1519,1539],"xSR":741.5,"ySR":469.95,"xT1":424.9,"yT1":0,"xT2":1058.1,"yT2":0,"toosoon":0,"cond_shown":"Congruent","ratio_trial":200,"L_num":3,"L_den":10,"R_num":14,"R_den":28,"correct_side":2,"subjID":"MarianGarzon26","gender":"1","school":"6","age":"11"},{"start_time":1551800616096,"click_time":1551800617686,"finger_time":1551800617526,"fix_duration":347.1765263118305,"trial":8,"RT":1430,"MT":160,"sideResp":2,"stimulus":[],"xmouse":[794,794,794,794,794,794,794,794,794,794,794,794,794,794,794,794,794,794,794,794,794,794,794,794,794,794,794,794,794,794,793,792,792,792,792,792,792,792,792,792,792,792,792,792,792,792,792,792,792,792,792,792,792,792,792,792,792,792,792,792,792,792,792,792,792,792,792,792,792,795,800,821,836,860,884,919,987,1017,1042,1065],"ymouse":[529,529,529,529,529,529,529,530,532,533,533,533,533,534,535,536,537,537,537,538,539,541,542,542,542,542,542,542,542,543,544,547,547,547,547,547,547,547,547,547,547,547,547,547,547,547,547,547,547,547,547,547,547,547,547,547,547,547,547,547,547,547,547,547,547,547,547,547,543,537,519,465,423,356,307,246,140,96,65,37],"timestamp_mouse":[10,33,49,70,91,109,129,149,170,191,210,230,250,270,289,310,330,350,370,389,409,429,450,469,489,510,529,550,570,590,609,629,649,669,691,710,730,751,771,790,810,830,850,869,891,909,930,950,971,989,1010,1029,1050,1069,1090,1109,1129,1150,1169,1190,1211,1230,1249,1269,1289,1310,1329,1349,1369,1390,1410,1430,1451,1470,1490,1509,1530,1549,1571,1590],"xSR":741.5,"ySR":469.95,"xT1":424.9,"yT1":0,"xT2":1058.1,"yT2":0,"toosoon":0,"cond_shown":"Congruent","ratio_trial":100,"L_num":1,"L_den":2,"R_num":3,"R_den":5,"correct_side":2,"subjID":"MarianGarzon26","gender":"1","school":"6","age":"11"},{"start_time":1551800619614,"click_time":1551800621127,"finger_time":1551800620745,"fix_duration":1147.300364698849,"trial":9,"RT":1131,"MT":382,"sideResp":2,"stimulus":[],"xmouse":[785,785,785,785,785,785,785,785,785,785,785,785,785,785,785,785,785,785,785,785,785,785,785,785,785,785,785,785,785,785,785,785,785,785,785,785,785,785,785,785,785,785,785,785,785,785,785,785,785,785,785,785,785,785,788,792,828,847,878,901,938,960,975,981,984,987,1001,1015,1033,1033,1033,1033,1033,1033,1033,1086],"ymouse":[530,530,530,530,530,530,530,530,530,530,530,530,530,530,530,530,530,530,530,530,530,530,530,530,530,530,530,530,530,530,530,530,530,530,530,530,530,530,530,530,530,530,530,530,530,530,530,530,530,530,530,530,530,530,530,523,455,409,351,295,192,140,108,85,68,49,26,13,1,1,1,1,1,1,1,24],"timestamp_mouse":[19,42,52,71,91,112,132,151,171,191,212,232,251,272,291,312,332,352,371,392,411,432,451,472,492,512,531,552,573,592,612,631,651,672,691,711,732,751,771,791,811,831,853,872,892,912,932,951,971,992,1011,1031,1052,1072,1091,1111,1131,1151,1172,1191,1213,1232,1252,1271,1291,1312,1331,1351,1372,1393,1413,1431,1451,1471,1491,1512],"xSR":741.5,"ySR":469.95,"xT1":424.9,"yT1":0,"xT2":1058.1,"yT2":0,"toosoon":0,"cond_shown":"Incongruent","ratio_trial":100,"L_num":2,"L_den":4,"R_num":6,"R_den":15,"correct_side":1,"subjID":"MarianGarzon26","gender":"1","school":"6","age":"11"},{"start_time":1551800626768,"click_time":1551800629765,"finger_time":1551800629486,"fix_duration":561.7539263214491,"trial":10,"RT":2718,"MT":279,"sideResp":2,"stimulus":[],"xmouse":[765,765,765,765,765,765,765,765,765,765,765,765,765,765,765,765,765,765,765,765,765,765,765,765,765,765,765,765,765,765,765,765,765,765,765,765,765,765,765,765,765,765,765,765,765,765,765,765,765,765,765,765,765,765,765,765,765,765,765,765,765,765,765,765,765,765,765,765,765,765,765,765,765,765,765,765,765,765,765,765,765,765,765,765,765,765,765,765,765,765,765,765,765,765,765,765,765,765,767,770,770,770,770,770,770,770,770,770,770,770,770,770,770,770,770,770,770,770,770,770,770,770,770,770,770,770,770,770,770,770,770,770,770,778,791,813,847,898,966,1083,1125,1147,1162,1171,1177,1177,1173,1167,1161,1151],"ymouse":[505,505,505,505,505,505,505,505,505,505,505,505,505,505,505,505,505,505,505,505,505,505,505,505,505,505,505,505,505,505,505,505,505,505,505,505,505,505,505,505,505,505,505,505,505,505,505,505,505,505,505,505,505,505,505,505,505,505,505,505,505,505,505,505,505,505,505,505,505,505,505,505,505,505,505,505,505,505,505,505,505,505,505,505,505,505,505,505,505,505,505,505,505,505,505,505,505,503,502,500,499,499,499,499,499,499,499,499,499,499,499,499,499,499,499,499,499,499,499,499,499,499,499,499,499,499,499,499,499,499,499,499,499,491,481,464,435,390,330,221,179,154,134,118,91,80,68,54,44,31],"timestamp_mouse":[17,45,57,78,97,118,137,157,177,197,218,237,258,278,297,318,337,358,377,398,418,439,458,478,497,518,537,559,578,597,618,637,659,678,697,719,737,757,778,797,818,837,857,878,897,917,938,957,978,998,1017,1037,1059,1078,1099,1117,1138,1157,1177,1197,1217,1238,1257,1277,1297,1317,1339,1358,1377,1399,1418,1437,1458,1477,1497,1517,1537,1558,1577,1598,1619,1637,1659,1677,1697,1718,1737,1758,1779,1798,1817,1839,1857,1878,1897,1917,1938,1957,1978,1998,2017,2038,2059,2077,2097,2118,2137,2157,2177,2198,2217,2238,2257,2278,2297,2317,2338,2358,2378,2399,2418,2437,2458,2477,2498,2517,2537,2558,2577,2598,2618,2637,2658,2679,2698,2718,2737,2758,2778,2797,2817,2838,2857,2878,2897,2917,2938,2958,2977,2997],"xSR":741.5,"ySR":469.95,"xT1":424.9,"yT1":0,"xT2":1058.1,"yT2":0,"toosoon":0,"cond_shown":"Incongruent","ratio_trial":300,"L_num":13,"L_den":26,"R_num":12,"R_den":15,"correct_side":2,"subjID":"MarianGarzon26","gender":"1","school":"6","age":"11"},{"start_time":1551800631971,"click_time":1551800635425,"finger_time":1551800635005,"fix_duration":1183.2145457103845,"trial":11,"RT":3034,"MT":420,"sideResp":1,"stimulus":[],"xmouse":[825,825,825,825,825,825,825,825,825,825,825,825,825,825,825,825,825,825,825,825,825,825,825,825,825,825,825,825,825,825,825,825,825,825,825,825,825,825,825,825,825,825,825,825,825,825,825,825,825,825,825,825,825,825,825,825,825,825,825,825,825,825,825,825,825,825,825,825,825,825,825,825,825,825,825,825,825,825,825,825,825,825,825,825,825,825,825,825,825,825,825,825,825,825,825,825,825,825,825,825,825,825,825,825,825,825,825,825,825,825,825,825,825,825,825,825,825,825,825,825,825,825,825,825,825,825,825,825,825,825,825,825,825,825,825,825,825,825,825,825,825,825,825,825,825,825,825,825,825,822,818,812,805,796,781,743,725,707,696,682,678,672,665,655,643,594,556,526,503,478,467,462,458],"ymouse":[483,483,483,483,483,483,483,483,483,483,483,483,483,483,483,483,483,483,483,483,483,483,483,483,483,483,483,483,483,483,483,483,483,483,483,483,483,483,483,483,483,483,483,483,483,483,483,483,483,483,483,483,483,483,483,483,483,483,483,483,483,483,483,483,483,483,483,483,483,483,483,483,483,483,483,483,483,483,483,483,483,483,483,483,483,483,483,483,483,483,483,483,483,483,483,483,483,483,483,483,483,483,483,483,483,483,483,483,483,483,483,483,483,483,483,483,483,483,483,483,483,483,483,483,483,483,483,483,483,483,483,483,483,483,483,483,483,483,483,483,483,483,483,483,483,483,483,483,483,481,475,468,463,457,449,427,415,404,394,379,372,357,341,320,299,253,230,208,186,145,116,100,84],"timestamp_mouse":[15,41,55,75,96,115,134,155,174,194,215,234,255,275,294,314,335,355,374,395,415,435,454,475,495,514,535,555,575,595,616,634,655,675,694,716,736,754,774,795,814,834,855,875,895,914,934,954,974,994,1014,1034,1056,1075,1094,1114,1134,1154,1175,1194,1215,1234,1254,1275,1295,1315,1336,1354,1374,1394,1415,1434,1454,1474,1494,1514,1534,1555,1575,1594,1614,1634,1654,1676,1694,1715,1734,1754,1776,1794,1815,1835,1854,1874,1894,1915,1935,1954,1975,1994,2014,2034,2054,2074,2094,2114,2134,2154,2174,2195,2214,2235,2254,2275,2294,2315,2335,2355,2374,2394,2414,2435,2456,2475,2494,2516,2535,2555,2574,2594,2615,2635,2654,2676,2694,2716,2734,2755,2774,2794,2814,2835,2855,2875,2895,2916,2935,2955,2975,2995,3014,3034,3054,3074,3094,3114,3135,3154,3175,3195,3214,3235,3254,3275,3294,3315,3335,3355,3375,3394,3413,3434,3453],"xSR":741.5,"ySR":469.95,"xT1":424.9,"yT1":0,"xT2":1058.1,"yT2":0,"toosoon":0,"cond_shown":"Incongruent","ratio_trial":100,"L_num":6,"L_den":10,"R_num":13,"R_den":26,"correct_side":1,"subjID":"MarianGarzon26","gender":"1","school":"6","age":"11"},{"start_time":1551800636470,"click_time":1551800639346,"finger_time":1551800638886,"fix_duration":383.04802922320437,"trial":12,"RT":2416,"MT":460,"sideResp":2,"stimulus":[],"xmouse":[782,782,782,782,782,782,782,782,782,782,782,782,782,782,782,782,782,782,782,782,782,782,782,782,782,782,782,782,782,782,782,782,782,782,782,782,782,782,782,782,782,782,782,782,782,782,782,782,782,782,782,782,782,782,782,782,782,782,782,782,782,782,782,782,782,782,782,782,782,782,782,782,782,782,782,782,782,782,782,782,782,782,782,782,782,782,782,782,782,782,782,782,782,782,782,782,782,782,782,782,782,782,782,782,782,782,782,782,782,782,782,780,780,780,780,784,787,792,803,818,856,875,890,914,936,973,983,993,1002,1010,1024,1029,1037,1044,1050,1055,1055,1055,1055,1058,1061,1065,1070,1078],"ymouse":[569,569,569,569,569,569,569,569,569,569,569,569,569,569,569,569,569,569,569,569,569,569,569,569,569,569,569,569,569,569,569,569,569,569,569,569,569,569,569,569,569,569,569,569,569,569,569,569,569,569,569,569,569,569,569,569,569,569,569,569,569,569,569,569,569,569,569,569,569,569,569,569,569,569,569,569,569,569,569,569,569,569,569,569,569,569,569,569,569,569,569,569,569,569,569,569,569,569,569,569,569,569,569,569,569,569,569,569,569,569,569,569,568,565,564,559,557,553,542,524,464,423,385,327,278,206,186,168,151,140,126,121,117,113,110,108,108,108,108,107,105,103,101,97],"timestamp_mouse":[15,45,54,75,95,114,136,155,176,194,214,235,255,275,296,315,334,356,375,395,415,436,455,474,494,516,534,556,575,595,614,636,654,676,694,716,735,754,776,794,814,835,856,876,894,915,935,955,976,995,1015,1034,1055,1074,1096,1116,1134,1156,1176,1195,1215,1236,1255,1276,1296,1316,1336,1354,1374,1395,1414,1436,1456,1474,1495,1516,1535,1555,1575,1595,1616,1634,1654,1676,1694,1716,1736,1756,1776,1794,1814,1836,1856,1874,1896,1915,1935,1954,1975,1995,2015,2035,2056,2074,2096,2116,2135,2155,2174,2196,2214,2234,2255,2274,2295,2315,2334,2355,2374,2395,2416,2435,2455,2474,2494,2515,2534,2554,2575,2595,2615,2634,2654,2674,2694,2715,2735,2755,2776,2794,2814,2836,2856,2876],"xSR":741.5,"ySR":469.95,"xT1":424.9,"yT1":0,"xT2":1058.1,"yT2":0,"toosoon":0,"cond_shown":"Congruent","ratio_trial":100,"L_num":1,"L_den":2,"R_num":18,"R_den":30,"correct_side":2,"subjID":"MarianGarzon26","gender":"1","school":"6","age":"11"},{"start_time":1551800640938,"click_time":1551800642884,"finger_time":1551800642564,"fix_duration":851.2371363822325,"trial":13,"RT":1626,"MT":320,"sideResp":2,"stimulus":[],"xmouse":[793,793,793,793,793,793,793,793,793,793,793,793,793,793,793,793,793,793,793,793,793,793,793,793,793,793,793,793,793,793,793,793,793,793,793,793,793,793,793,793,793,793,793,793,793,793,793,793,793,793,793,793,793,793,793,793,793,793,793,793,793,793,793,793,793,793,793,793,793,793,793,793,793,793,793,793,795,807,813,821,838,855,895,915,938,959,983,1017,1024,1030,1036,1041,1047,1049,1050,1052,1053,1060],"ymouse":[501,501,501,501,501,501,501,501,501,501,501,501,501,501,501,501,501,501,501,501,501,501,501,501,501,501,501,501,501,501,501,501,501,501,501,501,501,501,501,501,501,501,501,501,501,501,501,501,501,501,501,501,501,501,501,501,501,501,501,501,501,501,501,501,501,501,501,501,501,501,501,501,501,501,501,501,500,494,491,487,478,468,437,420,398,370,332,258,231,211,185,167,133,119,109,99,89,74],"timestamp_mouse":[12,32,47,68,87,106,128,148,167,187,207,228,246,267,288,306,328,347,366,387,406,426,446,467,487,507,527,547,568,586,607,627,647,666,688,706,726,748,767,787,807,827,848,867,886,907,928,948,966,987,1008,1026,1047,1066,1087,1107,1128,1147,1167,1187,1208,1228,1247,1266,1288,1308,1328,1347,1368,1387,1407,1426,1447,1466,1488,1508,1527,1546,1567,1588,1608,1626,1646,1667,1687,1707,1727,1748,1767,1786,1806,1826,1847,1866,1888,1908,1928,1946],"xSR":741.5,"ySR":469.95,"xT1":424.9,"yT1":0,"xT2":1058.1,"yT2":0,"toosoon":0,"cond_shown":"Congruent","ratio_trial":100,"L_num":11,"L_den":22,"R_num":6,"R_den":15,"correct_side":1,"subjID":"MarianGarzon26","gender":"1","school":"6","age":"11"},{"start_time":1551800644168,"click_time":1551800645825,"finger_time":1551800645106,"fix_duration":402.08969954111416,"trial":14,"RT":938,"MT":719,"sideResp":1,"stimulus":[],"xmouse":[802,802,802,802,802,802,802,802,802,802,802,802,802,802,802,802,802,802,802,802,802,802,802,802,802,802,802,802,802,802,802,802,802,802,802,802,802,802,802,802,802,802,802,800,796,789,787,786,784,783,782,782,782,782,782,782,782,782,782,782,782,782,782,782,782,782,767,744,706,664,595,575,557,536,513,460,455,459,468,479,489,501,504],"ymouse":[476,476,476,476,476,476,476,476,476,476,476,476,476,476,476,476,476,476,476,476,476,476,476,476,476,476,476,476,476,476,476,476,476,476,476,476,476,476,476,476,476,476,476,476,474,471,469,468,466,465,465,465,465,465,465,465,465,465,465,465,465,465,465,465,465,465,461,454,443,427,384,365,346,324,296,232,196,174,154,137,122,102,96],"timestamp_mouse":[17,36,57,76,96,117,138,157,176,197,217,237,256,277,298,316,337,357,377,398,417,437,456,476,497,517,538,558,577,598,617,636,657,677,697,718,738,756,777,798,817,837,857,878,898,917,938,958,978,996,1018,1036,1057,1077,1097,1118,1137,1158,1178,1197,1218,1237,1258,1278,1298,1317,1337,1357,1377,1397,1417,1436,1456,1476,1497,1518,1536,1557,1578,1597,1617,1637,1657],"xSR":741.5,"ySR":469.95,"xT1":424.9,"yT1":0,"xT2":1058.1,"yT2":0,"toosoon":0,"cond_shown":"Incongruent","ratio_trial":200,"L_num":3,"L_den":10,"R_num":1,"R_den":2,"correct_side":2,"subjID":"MarianGarzon26","gender":"1","school":"6","age":"11"},{"start_time":1551800648408,"click_time":1551800649966,"finger_time":1551800649844,"fix_duration":301.23690983376315,"trial":15,"RT":1436,"MT":122,"sideResp":1,"stimulus":[],"xmouse":[798,798,798,798,798,798,798,798,798,798,798,798,797,795,792,790,788,786,783,783,783,783,783,783,782,782,782,782,782,782,782,782,782,782,782,782,782,782,782,782,782,782,782,782,782,782,782,782,782,782,782,782,782,782,782,782,782,782,782,782,782,782,782,782,782,782,782,782,782,781,773,744,731,672,559,507,468,439],"ymouse":[529,529,529,529,529,529,529,529,529,529,529,529,529,530,533,534,535,535,536,536,536,536,536,535,530,529,529,529,529,529,529,529,529,529,529,529,529,529,529,529,529,529,529,529,529,529,529,529,529,529,529,529,529,529,529,529,529,529,529,529,529,529,529,529,529,529,529,529,528,517,485,404,378,296,199,160,125,94],"timestamp_mouse":[32,37,56,77,97,116,138,156,177,198,217,238,256,278,297,316,337,356,377,397,417,437,457,476,496,517,536,556,577,598,618,638,657,678,698,716,738,758,777,798,816,838,858,876,897,917,938,957,977,997,1017,1037,1056,1078,1096,1118,1137,1158,1177,1197,1217,1237,1257,1278,1298,1316,1338,1358,1377,1397,1417,1436,1457,1477,1497,1518,1537,1558],"xSR":741.5,"ySR":469.95,"xT1":424.9,"yT1":0,"xT2":1058.1,"yT2":0,"toosoon":0,"cond_shown":"Congruent","ratio_trial":300,"L_num":20,"L_den":25,"R_num":13,"R_den":26,"correct_side":1,"subjID":"MarianGarzon26","gender":"1","school":"6","age":"11"},{"start_time":1551800652997,"click_time":1551800656725,"finger_time":1551800655464,"fix_duration":250,"trial":16,"RT":2467,"MT":1261,"sideResp":1,"stimulus":[],"xmouse":[797,797,797,797,797,797,797,797,797,797,797,797,797,797,797,797,797,797,797,797,797,797,797,797,797,797,797,797,797,797,797,797,797,797,797,797,797,797,797,797,797,797,797,797,797,797,797,797,797,797,797,797,797,797,797,797,797,797,797,797,797,797,797,797,797,797,797,797,797,797,797,797,797,797,797,797,797,797,797,797,797,797,797,797,797,797,797,797,797,797,797,797,797,797,797,797,797,797,797,797,797,797,797,797,797,797,797,797,797,797,797,797,797,797,797,797,797,797,795,791,781,762,750,734,717,701,670,657,645,633,600,588,577,565,553,545,537,536,535,533,531,527,527,525,524,522,522,521,521,520,519,518,518,518,518,518,518,518,518,518,518,518,518,518,518,518,518,518,518,518,518,518,518,518,518,518,518,518,518,518,518,518,518,518,518,517,511],"ymouse":[567,567,567,567,567,567,567,567,567,567,567,567,567,567,567,567,567,567,567,567,567,567,567,567,567,567,567,567,567,567,567,567,567,567,567,567,567,567,567,567,567,567,567,567,567,567,567,567,567,567,567,567,567,567,567,567,567,567,567,567,567,567,567,567,567,567,567,567,567,567,567,567,567,567,567,567,567,567,567,567,567,567,567,567,567,567,567,567,567,567,567,567,567,567,567,567,567,567,567,567,567,567,567,567,567,567,567,567,567,567,567,567,567,567,567,567,567,567,565,561,541,499,470,442,410,386,342,324,308,292,253,237,221,204,187,172,156,151,145,139,132,123,120,118,115,113,111,110,110,109,107,105,105,105,105,105,105,105,105,105,105,105,105,105,105,105,105,105,105,105,105,105,105,105,105,105,105,105,105,105,105,105,105,105,105,103,98],"timestamp_mouse":[9,40,48,68,89,108,127,148,167,189,207,227,249,267,288,307,327,349,367,387,408,428,448,468,489,509,529,548,568,588,609,628,649,667,688,708,728,749,769,787,808,828,847,869,887,909,929,949,968,989,1009,1029,1048,1068,1089,1108,1128,1148,1168,1188,1208,1229,1249,1267,1289,1309,1328,1348,1368,1388,1409,1429,1448,1467,1489,1509,1528,1548,1569,1588,1609,1627,1648,1667,1688,1709,1729,1748,1768,1789,1809,1829,1848,1868,1889,1909,1928,1949,1969,1989,2009,2029,2047,2068,2088,2107,2129,2148,2169,2189,2207,2228,2247,2269,2287,2308,2329,2349,2368,2388,2407,2427,2448,2467,2487,2507,2528,2548,2567,2587,2609,2627,2647,2668,2688,2708,2728,2749,2768,2788,2807,2827,2847,2868,2887,2908,2928,2948,2968,2989,3008,3027,3048,3067,3089,3108,3129,3148,3167,3187,3209,3228,3248,3269,3288,3308,3329,3349,3369,3389,3408,3427,3449,3469,3488,3507,3528,3547,3568,3588,3608,3627,3648,3668,3688,3708,3727],"xSR":741.5,"ySR":469.95,"xT1":424.9,"yT1":0,"xT2":1058.1,"yT2":0,"toosoon":0,"cond_shown":"Incongruent","ratio_trial":100,"L_num":6,"L_den":10,"R_num":7,"R_den":14,"correct_side":1,"subjID":"MarianGarzon26","gender":"1","school":"6","age":"11"},{"start_time":1551800658755,"click_time":1551800662426,"finger_time":1551800662244,"fix_duration":987.156739380396,"trial":17,"RT":3489,"MT":182,"sideResp":1,"stimulus":[],"xmouse":[785,785,785,785,785,785,785,785,785,785,785,785,785,785,785,785,785,785,785,785,785,785,785,785,785,785,785,785,785,785,785,785,785,785,785,785,785,785,785,785,785,785,785,785,785,785,785,785,785,785,785,785,785,785,785,785,785,785,785,785,785,785,785,785,785,785,785,785,785,786,789,791,792,792,792,792,792,792,792,792,792,792,791,791,790,789,788,787,785,785,784,784,784,784,784,784,784,784,784,784,784,784,784,784,784,784,784,784,784,784,784,784,784,784,784,784,784,784,784,784,784,784,784,784,784,784,784,784,784,784,784,784,784,784,784,784,784,784,784,784,784,784,784,784,784,784,784,784,784,784,784,782,780,779,779,779,779,779,779,779,779,779,779,779,779,779,779,779,779,779,779,779,779,781,782,773,747,707,628,574,536,502,472,451],"ymouse":[493,493,493,493,493,493,493,493,493,493,493,493,493,493,493,493,493,493,493,493,493,493,493,493,493,493,493,493,493,493,493,493,493,493,493,493,493,493,493,493,493,493,493,493,493,493,493,493,493,493,493,493,493,493,493,493,493,493,493,493,493,493,493,493,493,493,493,493,493,491,489,487,484,483,483,482,482,482,482,481,480,478,478,478,477,476,475,474,474,474,474,474,474,474,474,474,474,474,474,474,474,474,474,474,474,474,474,474,474,474,474,474,474,474,474,474,474,474,474,474,474,474,474,474,474,474,474,474,474,474,474,474,474,474,474,474,474,474,474,474,474,474,474,474,474,474,474,474,474,474,475,475,476,476,476,476,476,476,476,476,476,476,476,476,476,476,476,476,476,476,476,476,476,474,469,453,426,394,313,248,207,167,134,97],"timestamp_mouse":[23,39,51,71,90,110,129,150,170,190,211,229,250,270,290,311,331,350,370,389,411,430,450,470,489,510,531,551,570,590,611,631,651,670,690,711,730,749,770,791,811,831,849,870,890,909,931,950,971,989,1011,1030,1050,1071,1090,1111,1131,1149,1170,1190,1211,1231,1250,1269,1291,1309,1329,1351,1371,1390,1410,1430,1450,1469,1491,1510,1529,1551,1570,1590,1610,1630,1650,1671,1691,1709,1730,1750,1769,1790,1810,1830,1850,1870,1890,1909,1930,1950,1970,1990,2010,2030,2050,2069,2090,2111,2130,2151,2169,2191,2209,2231,2251,2270,2290,2311,2329,2349,2371,2391,2411,2431,2449,2469,2490,2510,2530,2551,2570,2590,2609,2631,2649,2671,2690,2709,2730,2751,2770,2789,2809,2830,2850,2870,2889,2910,2929,2951,2969,2989,3010,3030,3049,3071,3089,3110,3129,3150,3170,3191,3209,3229,3249,3270,3289,3310,3329,3351,3370,3389,3411,3430,3449,3470,3489,3510,3530,3550,3570,3590,3610,3631,3650,3671],"xSR":741.5,"ySR":469.95,"xT1":424.9,"yT1":0,"xT2":1058.1,"yT2":0,"toosoon":0,"cond_shown":"Congruent","ratio_trial":100,"L_num":11,"L_den":22,"R_num":4,"R_den":10,"correct_side":1,"subjID":"MarianGarzon26","gender":"1","school":"6","age":"11"},{"start_time":1551800666758,"click_time":1551800668745,"finger_time":1551800668245,"fix_duration":1490.3980062932003,"trial":18,"RT":1487,"MT":500,"sideResp":2,"stimulus":[],"xmouse":[802,802,802,802,802,802,802,802,802,802,802,802,802,802,802,802,802,802,802,802,802,802,802,802,802,802,802,802,802,802,802,802,802,802,802,802,802,802,802,802,802,802,802,802,802,802,802,802,802,802,802,802,802,802,802,802,802,802,802,802,802,802,802,802,802,802,802,802,802,802,802,802,805,810,853,870,888,899,911,935,954,969,981,987,999,1000,1000,997,996,996,996,997,999,1001,1015,1021,1032,1038,1048,1073],"ymouse":[554,554,554,554,554,554,554,554,554,554,554,554,554,554,554,554,554,554,554,554,554,554,554,554,554,554,554,554,554,554,554,554,554,554,554,554,554,554,554,554,554,554,554,554,554,554,554,554,554,554,554,554,554,554,554,554,554,554,554,554,554,554,554,554,554,554,554,554,554,554,554,554,551,544,500,482,460,448,432,387,356,330,308,288,252,239,227,215,208,196,187,179,170,161,140,132,123,119,112,99],"timestamp_mouse":[10,35,46,68,88,106,132,147,167,188,207,226,248,267,288,308,328,347,367,387,407,428,447,467,487,507,527,548,567,587,608,628,648,666,687,706,728,748,767,786,808,827,846,867,888,907,926,948,968,987,1006,1028,1047,1068,1087,1107,1126,1147,1166,1188,1208,1228,1247,1267,1288,1307,1328,1347,1367,1387,1408,1428,1447,1467,1487,1507,1527,1547,1567,1586,1607,1626,1647,1668,1686,1706,1727,1747,1767,1788,1806,1826,1847,1867,1887,1906,1927,1947,1966,1987],"xSR":741.5,"ySR":469.95,"xT1":424.9,"yT1":0,"xT2":1058.1,"yT2":0,"toosoon":0,"cond_shown":"Incongruent","ratio_trial":100,"L_num":6,"L_den":10,"R_num":7,"R_den":14,"correct_side":1,"subjID":"MarianGarzon26","gender":"1","school":"6","age":"11"},{"start_time":1551800670325,"click_time":1551800671447,"finger_time":1551800671204,"fix_duration":259.0816801701543,"trial":19,"RT":879,"MT":243,"sideResp":2,"stimulus":[],"xmouse":[776,776,776,776,776,776,776,776,776,776,776,776,776,776,776,776,776,776,776,776,776,776,776,776,776,776,776,776,776,776,776,776,776,776,776,776,776,776,776,776,777,795,825,865,900,961,991,1026,1038,1049,1054,1060,1061,1063,1065,1067],"ymouse":[529,529,529,529,529,529,529,529,529,529,529,529,529,529,529,529,529,529,529,529,529,529,529,529,529,529,529,529,529,529,529,529,529,529,529,529,529,529,529,529,528,515,488,444,401,314,268,211,188,167,154,133,123,112,101,82],"timestamp_mouse":[20,39,60,79,99,120,140,160,181,199,220,240,260,279,301,320,340,360,381,400,420,440,459,479,501,519,540,561,580,601,619,640,661,680,699,720,740,761,779,801,819,841,861,879,900,920,940,960,979,1000,1020,1040,1061,1080,1100,1122],"xSR":741.5,"ySR":469.95,"xT1":424.9,"yT1":0,"xT2":1058.1,"yT2":0,"toosoon":0,"cond_shown":"Congruent","ratio_trial":300,"L_num":12,"L_den":24,"R_num":2,"R_den":10,"correct_side":1,"subjID":"MarianGarzon26","gender":"1","school":"6","age":"11"},{"start_time":1551800674568,"click_time":1551800676465,"finger_time":1551800675785,"fix_duration":361.7378782940401,"trial":20,"RT":1217,"MT":680,"sideResp":1,"stimulus":[],"xmouse":[783,783,783,783,783,783,783,783,783,783,783,783,783,783,783,783,783,783,783,783,783,783,783,783,783,783,783,783,783,783,783,783,783,783,783,783,783,783,783,783,783,783,783,783,783,783,783,783,783,783,783,783,783,783,783,783,783,782,777,762,752,741,716,695,655,639,627,614,601,570,550,532,511,499,492,492,492,492,492,496,498,501,506,508,508,508,508,508,508,508,508,508,508,508,508],"ymouse":[533,533,533,533,533,533,533,533,533,533,533,533,533,533,533,533,533,533,533,533,533,533,533,533,533,533,533,533,533,533,533,533,533,533,533,533,533,533,533,533,533,533,533,533,533,533,533,533,533,533,533,533,533,533,533,533,531,526,511,474,452,432,397,367,317,298,279,261,244,208,194,182,166,157,147,144,140,137,132,124,121,117,112,110,108,107,107,107,107,107,107,107,106,103,98],"timestamp_mouse":[22,45,57,76,97,118,137,157,177,197,218,238,257,277,297,317,338,356,376,397,416,437,458,478,497,518,537,557,578,597,617,636,658,677,697,717,737,757,777,797,817,836,857,877,896,918,936,957,976,997,1018,1038,1057,1076,1096,1117,1136,1158,1176,1196,1217,1236,1257,1278,1297,1316,1337,1358,1377,1398,1416,1438,1456,1477,1497,1516,1537,1557,1577,1597,1616,1637,1657,1676,1698,1718,1737,1757,1777,1797,1816,1836,1857,1877,1896],"xSR":741.5,"ySR":469.95,"xT1":424.9,"yT1":0,"xT2":1058.1,"yT2":0,"toosoon":0,"cond_shown":"Incongruent","ratio_trial":200,"L_num":7,"L_den":15,"R_num":4,"R_den":6,"correct_side":2,"subjID":"MarianGarzon26","gender":"1","school":"6","age":"11"},{"start_time":1551800682125,"click_time":1551800683585,"finger_time":1551800682985,"fix_duration":799.0190662252695,"trial":21,"RT":860,"MT":600,"sideResp":2,"stimulus":[],"xmouse":[782,782,782,782,782,782,782,782,782,782,782,782,782,782,782,782,782,782,782,782,782,782,782,782,782,782,782,782,782,782,782,782,782,782,782,782,782,783,788,791,794,804,825,866,885,901,916,930,949,953,958,962,967,973,973,973,973,973,973,975,978,984,991,1004,1008,1013,1023,1033,1045,1047,1050,1053,1057,1062],"ymouse":[528,528,528,528,528,528,528,528,528,528,528,528,528,528,528,528,528,528,528,528,528,528,528,528,528,528,528,528,528,528,528,528,528,528,528,528,528,528,528,527,524,514,488,453,434,413,390,368,326,308,291,276,261,232,225,221,217,211,202,198,193,184,177,161,152,143,131,120,102,97,91,88,87,85],"timestamp_mouse":[8,20,40,60,80,101,121,139,161,180,200,221,241,260,280,300,321,340,359,381,400,421,440,461,479,501,520,540,560,579,601,620,640,660,679,700,720,739,760,780,800,819,840,860,879,899,919,940,960,981,999,1021,1039,1059,1081,1101,1120,1141,1160,1188,1200,1220,1240,1260,1279,1300,1320,1341,1360,1381,1400,1420,1441,1460],"xSR":741.5,"ySR":469.95,"xT1":424.9,"yT1":0,"xT2":1058.1,"yT2":0,"toosoon":0,"cond_shown":"Incongruent","ratio_trial":100,"L_num":4,"L_den":8,"R_num":8,"R_den":20,"correct_side":1,"subjID":"MarianGarzon26","gender":"1","school":"6","age":"11"},{"start_time":1551800685644,"click_time":1551800686965,"finger_time":1551800686226,"fix_duration":579.684222764075,"trial":22,"RT":582,"MT":739,"sideResp":1,"stimulus":[],"xmouse":[809,809,809,809,809,809,809,809,809,809,809,809,809,809,809,809,809,809,809,809,809,809,809,809,809,807,799,790,762,724,662,596,500,470,456,455,455,456,458,462,469,479,498,507,509,509,509,507,505,503,499,496,492,487,485,484,484,484,483,483,483,483,483,483,483,483,483],"ymouse":[528,528,528,528,528,528,528,528,528,528,528,528,528,528,528,528,528,528,528,528,528,528,528,528,528,529,522,515,484,456,417,380,313,286,263,251,244,235,231,227,220,208,185,176,168,166,163,156,151,147,142,138,130,118,113,112,112,111,110,108,106,105,104,104,104,102,99],"timestamp_mouse":[9,21,41,61,80,100,122,141,160,182,201,222,240,262,281,302,321,341,362,380,401,420,442,460,480,502,522,540,562,582,601,621,641,661,681,700,721,742,762,781,802,821,842,860,881,901,920,941,960,980,1001,1022,1040,1060,1081,1102,1122,1141,1161,1181,1201,1221,1241,1262,1281,1301,1321],"xSR":741.5,"ySR":469.95,"xT1":424.9,"yT1":0,"xT2":1058.1,"yT2":0,"toosoon":0,"cond_shown":"Incongruent","ratio_trial":300,"L_num":4,"L_den":5,"R_num":6,"R_den":12,"correct_side":1,"subjID":"MarianGarzon26","gender":"1","school":"6","age":"11"},{"start_time":1551800689073,"click_time":1551800690306,"finger_time":1551800689804,"fix_duration":1165.2363849104534,"trial":23,"RT":731,"MT":502,"sideResp":2,"stimulus":[],"xmouse":[791,791,791,791,791,791,791,791,791,791,791,791,791,791,791,791,791,791,791,791,791,791,791,791,791,791,791,791,791,791,791,791,791,794,798,807,858,877,890,896,906,913,920,928,935,944,957,961,963,963,964,968,969,971,974,979,1001,1015,1030,1050,1058,1090],"ymouse":[517,517,517,517,517,517,517,517,517,517,517,517,517,517,517,517,517,517,517,517,517,517,517,517,517,517,517,517,517,517,517,517,517,515,510,497,445,425,409,397,372,355,342,325,308,290,252,236,223,212,204,182,172,162,152,140,115,101,86,61,53,14],"timestamp_mouse":[12,31,51,73,92,111,132,151,172,191,213,231,251,272,291,313,333,352,373,392,411,433,453,472,492,512,533,552,571,591,613,631,651,672,691,712,731,752,773,792,813,832,852,871,891,911,931,952,972,991,1012,1032,1051,1072,1092,1111,1132,1151,1172,1191,1212,1233],"xSR":741.5,"ySR":469.95,"xT1":424.9,"yT1":0,"xT2":1058.1,"yT2":0,"toosoon":0,"cond_shown":"Congruent","ratio_trial":100,"L_num":8,"L_den":16,"R_num":2,"R_den":5,"correct_side":1,"subjID":"MarianGarzon26","gender":"1","school":"6","age":"11"},{"start_time":1551800692719,"click_time":1551800693645,"finger_time":1551800693124,"fix_duration":1432.2728479262767,"trial":24,"RT":405,"MT":521,"sideResp":1,"stimulus":[],"xmouse":[768,768,768,768,768,768,768,768,768,768,768,768,768,768,768,768,768,768,768,757,752,751,751,751,749,748,745,730,709,630,572,514,457,410,361,355,355,356,366,375,378,383,390,400,418,424,430],"ymouse":[509,509,509,509,509,509,509,509,509,509,509,509,509,509,509,509,509,508,503,470,453,441,431,423,410,403,390,359,329,248,202,160,124,99,65,59,58,53,47,43,42,41,40,40,39,39,43],"timestamp_mouse":[8,36,45,66,86,106,126,145,166,186,205,227,246,266,285,305,326,346,367,385,405,425,447,467,486,505,526,546,567,586,605,626,646,667,686,705,726,746,767,786,806,825,846,865,886,905,925],"xSR":741.5,"ySR":469.95,"xT1":424.9,"yT1":0,"xT2":1058.1,"yT2":0,"toosoon":0,"cond_shown":"Incongruent","ratio_trial":100,"L_num":9,"L_den":15,"R_num":13,"R_den":26,"correct_side":1,"subjID":"MarianGarzon26","gender":"1","school":"6","age":"11"},{"start_time":1551800694936,"click_time":1551800695945,"finger_time":1551800695505,"fix_duration":469.45638398329925,"trial":25,"RT":569,"MT":440,"sideResp":2,"stimulus":[],"xmouse":[789,789,789,789,789,789,789,789,789,789,789,789,789,789,789,789,789,789,789,789,789,789,789,789,791,791,799,806,831,851,873,901,930,981,1006,1033,1040,1040,1040,1040,1040,1040,1040,1040,1040,1040,1040,1040,1040,1040,1085],"ymouse":[510,510,510,510,510,510,510,510,510,510,510,510,510,510,510,510,510,510,510,510,510,510,510,510,508,505,493,480,433,398,357,306,253,140,78,19,6,6,6,6,6,6,6,6,6,6,6,6,6,6,11],"timestamp_mouse":[10,32,49,68,90,110,129,149,169,189,208,230,248,269,289,310,329,349,369,388,410,428,448,469,488,509,529,548,569,589,608,629,648,669,688,709,730,749,769,789,808,829,849,870,890,909,929,949,970,988,1009],"xSR":741.5,"ySR":469.95,"xT1":424.9,"yT1":0,"xT2":1058.1,"yT2":0,"toosoon":0,"cond_shown":"Incongruent","ratio_trial":200,"L_num":7,"L_den":15,"R_num":4,"R_den":6,"correct_side":2,"subjID":"MarianGarzon26","gender":"1","school":"6","age":"11"},{"start_time":1551800697389,"click_time":1551800699124,"finger_time":1551800698844,"fix_duration":662.0219046517651,"trial":26,"RT":1455,"MT":280,"sideResp":1,"stimulus":[],"xmouse":[830,830,830,830,830,830,830,830,830,830,830,830,830,830,830,830,830,830,830,830,830,830,830,830,830,830,830,830,830,830,830,830,830,830,830,830,830,830,830,830,830,830,830,830,830,830,830,830,830,830,830,830,830,830,830,830,830,830,830,829,829,829,829,829,829,829,829,829,826,820,803,757,742,726,708,686,632,612,598,587,579,561,551,540,531,524,507],"ymouse":[549,549,549,549,549,549,549,549,549,549,549,549,549,549,549,549,549,549,549,549,549,549,549,549,549,549,549,549,549,549,549,549,549,549,549,549,549,549,549,549,549,549,549,549,549,549,549,549,549,549,549,549,549,549,549,549,549,549,549,549,549,549,549,549,549,549,549,549,548,541,525,482,462,436,400,358,274,246,228,210,197,157,144,133,123,115,93],"timestamp_mouse":[23,40,57,76,95,116,136,157,176,196,217,237,255,276,296,316,337,357,376,395,415,436,457,476,495,515,536,556,576,597,615,636,656,676,696,715,735,756,776,797,815,837,857,876,895,917,936,955,977,995,1015,1037,1057,1076,1097,1115,1137,1157,1176,1197,1216,1236,1257,1277,1295,1316,1335,1356,1376,1395,1416,1436,1455,1475,1495,1515,1536,1557,1575,1596,1615,1636,1655,1675,1695,1715,1735],"xSR":741.5,"ySR":469.95,"xT1":424.9,"yT1":0,"xT2":1058.1,"yT2":0,"toosoon":0,"cond_shown":"Congruent","ratio_trial":300,"L_num":3,"L_den":12,"R_num":11,"R_den":20,"correct_side":2,"subjID":"MarianGarzon26","gender":"1","school":"6","age":"11"},{"start_time":1551800700176,"click_time":1551800701285,"finger_time":1551800701205,"fix_duration":250,"trial":27,"RT":1029,"MT":80,"sideResp":2,"stimulus":[],"xmouse":[804,804,804,804,804,804,804,804,804,804,804,804,804,804,804,804,804,804,804,804,804,804,804,804,804,804,804,804,804,804,804,804,804,804,804,804,804,804,804,804,804,804,804,804,804,804,804,804,804,809,816,859,965,1013,1063,1100],"ymouse":[510,510,510,510,510,510,510,510,510,510,510,510,510,510,510,510,510,510,510,510,510,510,510,510,510,510,510,510,510,510,510,510,510,510,510,510,510,510,510,510,510,510,510,510,510,510,510,510,510,496,483,413,256,183,115,65],"timestamp_mouse":[9,32,49,69,88,110,129,150,170,189,209,229,248,269,290,310,329,348,368,389,410,428,448,470,488,510,529,549,569,589,609,629,648,669,688,710,730,749,770,788,808,830,850,868,890,909,929,948,969,989,1009,1029,1050,1068,1089,1108],"xSR":741.5,"ySR":469.95,"xT1":424.9,"yT1":0,"xT2":1058.1,"yT2":0,"toosoon":0,"cond_shown":"Incongruent","ratio_trial":300,"L_num":4,"L_den":5,"R_num":8,"R_den":16,"correct_side":1,"subjID":"MarianGarzon26","gender":"1","school":"6","age":"11"},{"start_time":1551800703617,"click_time":1551800705365,"finger_time":1551800705145,"fix_duration":1170.3165810684882,"trial":28,"RT":1528,"MT":220,"sideResp":2,"stimulus":[],"xmouse":[757,757,757,757,757,757,757,757,757,757,757,757,757,757,757,757,757,757,757,757,757,757,757,757,757,757,757,757,757,757,757,757,757,757,757,757,757,757,757,757,757,757,757,757,757,757,757,757,757,757,757,757,757,757,757,757,757,757,757,757,757,757,757,757,757,757,757,757,757,757,757,757,757,757,762,768,842,929,991,1048,1140,1157,1165,1167,1167,1167,1162,1158],"ymouse":[501,501,501,501,501,501,501,501,501,501,501,501,501,501,501,501,501,501,501,501,501,501,501,501,501,501,501,501,501,501,501,501,501,501,501,501,501,501,501,501,501,501,501,501,501,501,501,501,501,501,501,501,501,501,501,501,501,501,501,501,501,501,501,501,501,501,501,501,501,501,501,501,501,501,500,494,433,359,306,256,175,157,144,134,123,98,77,67],"timestamp_mouse":[8,40,48,67,89,107,128,149,167,189,208,227,248,267,289,308,328,349,368,387,409,429,447,469,489,507,527,549,568,589,607,629,648,667,688,708,728,748,768,788,807,828,848,868,888,909,928,947,969,987,1007,1028,1047,1069,1087,1108,1127,1147,1168,1188,1207,1229,1248,1268,1288,1308,1328,1349,1368,1389,1407,1429,1447,1468,1487,1507,1528,1547,1567,1589,1609,1627,1648,1669,1688,1708,1728,1747],"xSR":741.5,"ySR":469.95,"xT1":424.9,"yT1":0,"xT2":1058.1,"yT2":0,"toosoon":0,"cond_shown":"Congruent","ratio_trial":300,"L_num":2,"L_den":10,"R_num":12,"R_den":24,"correct_side":2,"subjID":"MarianGarzon26","gender":"1","school":"6","age":"11"},{"start_time":1551800706725,"click_time":1551800708305,"finger_time":1551800707605,"fix_duration":257.0705867947283,"trial":29,"RT":880,"MT":700,"sideResp":1,"stimulus":[],"xmouse":[818,818,818,818,818,818,818,818,818,818,818,818,818,818,818,818,818,818,818,818,818,818,818,818,818,818,818,818,818,818,818,818,818,815,811,809,803,801,800,800,799,797,793,787,775,751,694,679,663,650,632,608,599,595,590,585,563,551,543,540,539,536,536,532,530,529,529,529,529,529,529,529,529,529,529,529,529,527,526,523],"ymouse":[533,533,533,533,533,533,533,533,533,533,533,533,533,533,533,533,533,533,533,533,533,533,533,533,533,533,533,533,533,533,533,533,533,530,526,524,518,516,515,514,513,509,501,486,460,419,335,297,257,223,183,146,135,128,122,114,91,82,76,74,74,73,73,72,71,70,70,70,70,70,70,70,70,70,70,70,70,70,70,70],"timestamp_mouse":[1,31,40,60,80,99,119,141,159,181,199,219,239,261,279,300,319,340,359,381,399,421,439,459,480,501,520,539,561,579,600,620,640,660,679,700,719,740,761,781,801,820,839,860,880,899,920,939,961,980,1001,1019,1039,1059,1081,1100,1120,1141,1159,1180,1200,1219,1239,1259,1279,1301,1320,1340,1360,1379,1399,1420,1441,1460,1480,1500,1520,1540,1559,1580],"xSR":741.5,"ySR":469.95,"xT1":424.9,"yT1":0,"xT2":1058.1,"yT2":0,"toosoon":0,"cond_shown":"Congruent","ratio_trial":200,"L_num":1,"L_den":2,"R_num":21,"R_den":30,"correct_side":2,"subjID":"MarianGarzon26","gender":"1","school":"6","age":"11"},{"start_time":1551800710662,"click_time":1551800716625,"finger_time":1551800716005,"fix_duration":1255.0728728573151,"trial":30,"RT":5343,"MT":620,"sideResp":2,"stimulus":[],"xmouse":[766,766,766,766,766,766,766,766,766,766,766,766,766,766,766,766,766,766,766,766,766,766,766,766,766,766,766,766,766,766,766,766,766,766,766,766,766,766,766,766,766,766,766,766,766,766,766,766,766,766,766,766,766,766,766,766,766,766,766,766,766,766,766,766,766,766,766,766,766,766,766,766,766,766,766,766,766,766,766,766,766,766,766,766,766,766,766,766,766,766,766,766,766,766,766,766,766,766,766,766,766,766,766,766,766,766,766,766,766,766,766,766,766,766,766,766,766,766,766,766,766,766,766,766,766,766,766,766,766,766,766,766,766,766,766,766,766,766,766,766,766,766,766,766,766,766,766,766,766,766,766,766,766,766,766,766,766,766,766,766,766,766,766,766,766,766,766,766,766,766,766,766,766,766,766,766,766,766,766,766,766,766,766,766,766,766,766,766,766,766,766,766,766,766,766,766,766,766,766,766,766,766,766,766,766,766,766,766,766,766,766,766,766,766,766,766,766,766,766,766,766,766,766,766,766,766,766,766,766,766,766,766,766,766,766,766,766,766,766,766,766,766,766,766,766,766,766,766,766,766,766,766,766,766,766,766,766,766,766,766,782,798,813,821,824,827,828,830,839,848,880,888,895,901,907,920,931,944,956,967,983,989,997,1009,1020,1035,1039,1041,1042,1043,1047,1049,1050,1051,1051,1051,1053,1057,1063],"ymouse":[528,528,528,528,528,528,528,528,528,528,528,528,528,528,528,528,528,528,528,528,528,528,528,528,528,528,528,528,528,528,528,528,528,528,528,528,528,528,528,528,528,528,528,528,528,528,528,528,528,528,528,528,528,528,528,528,528,528,528,528,528,528,528,528,528,528,528,528,528,528,528,528,528,528,528,528,528,528,528,528,528,528,528,528,528,528,528,528,528,528,528,528,528,528,528,528,528,528,528,528,528,528,528,528,528,528,528,528,528,528,528,528,528,528,528,528,528,528,528,528,528,528,528,528,528,528,528,528,528,528,528,528,528,528,528,528,528,528,528,528,528,528,528,528,528,528,528,528,528,528,528,528,528,528,528,528,528,528,528,528,528,528,528,528,528,528,528,528,528,528,528,528,528,528,528,528,528,528,528,528,528,528,528,528,528,528,528,528,528,528,528,528,528,528,528,528,528,528,528,528,528,528,528,528,528,528,528,528,528,528,528,528,528,528,528,528,528,528,528,528,528,528,528,528,528,528,528,528,528,528,528,528,528,528,528,528,528,528,528,528,528,528,528,528,528,528,528,528,528,528,528,528,528,528,528,528,528,528,528,527,514,506,496,491,488,485,478,466,445,423,374,359,345,329,311,281,267,252,237,225,198,184,167,145,125,95,86,81,76,75,70,68,66,65,65,65,63,60,58],"timestamp_mouse":[10,34,42,63,83,102,123,142,163,183,203,224,243,263,282,304,322,344,363,383,403,422,442,462,483,503,524,542,564,582,602,622,644,663,682,703,722,742,764,782,804,822,842,863,884,903,923,942,963,983,1003,1023,1042,1062,1084,1104,1122,1143,1164,1183,1203,1222,1242,1262,1282,1303,1323,1343,1363,1383,1404,1422,1444,1462,1483,1503,1522,1543,1562,1583,1603,1623,1642,1664,1682,1704,1723,1743,1763,1783,1803,1824,1843,1862,1884,1903,1923,1943,1962,1982,2004,2023,2044,2063,2082,2104,2123,2144,2163,2184,2204,2222,2242,2263,2295,2304,2323,2343,2363,2382,2404,2423,2442,2462,2483,2502,2524,2544,2563,2582,2604,2623,2644,2663,2683,2704,2723,2743,2764,2782,2802,2824,2842,2864,2883,2902,2923,2942,2962,2983,3002,3023,3042,3064,3082,3104,3122,3143,3163,3182,3202,3224,3243,3263,3284,3302,3323,3342,3364,3382,3402,3423,3444,3463,3483,3502,3523,3543,3564,3583,3604,3623,3644,3664,3682,3703,3722,3744,3762,3784,3802,3823,3843,3863,3884,3903,3922,3943,3963,3982,4003,4024,4043,4064,4083,4102,4124,4143,4162,4183,4203,4222,4242,4264,4282,4304,4323,4343,4364,4383,4402,4423,4443,4462,4484,4503,4523,4542,4562,4583,4602,4623,4644,4662,4684,4702,4722,4742,4763,4782,4802,4824,4842,4862,4883,4902,4923,4944,4963,4983,5002,5023,5043,5062,5083,5103,5122,5144,5164,5183,5203,5223,5243,5263,5283,5303,5323,5343,5364,5384,5403,5422,5443,5463,5483,5503,5522,5544,5563,5583,5602,5622,5642,5663,5682,5702,5723,5744,5763,5782,5802,5822,5843,5862,5883,5902,5923,5942,5963],"xSR":741.5,"ySR":469.95,"xT1":424.9,"yT1":0,"xT2":1058.1,"yT2":0,"toosoon":0,"cond_shown":"Incongruent","ratio_trial":100,"L_num":2,"L_den":4,"R_num":6,"R_den":15,"correct_side":1,"subjID":"MarianGarzon26","gender":"1","school":"6","age":"11"},{"start_time":1551800721456,"click_time":1551800722946,"finger_time":1551800722445,"fix_duration":1229.4971059690085,"trial":31,"RT":989,"MT":501,"sideResp":1,"stimulus":[],"xmouse":[799,799,799,799,799,799,799,799,799,799,799,799,799,799,799,799,799,799,799,799,799,799,799,799,799,799,799,799,799,799,799,799,799,799,799,799,799,799,799,799,799,799,799,799,799,799,788,773,756,741,716,703,699,697,695,689,666,649,637,621,582,557,531,511,493,471,466,460,455,452,447,445,443,443,441],"ymouse":[512,512,512,512,512,512,512,512,512,512,512,512,512,512,512,512,512,512,512,512,512,512,512,512,512,512,512,512,512,512,512,512,512,512,512,512,512,512,512,512,512,512,512,512,512,512,510,508,505,503,499,496,493,487,473,455,411,379,357,329,274,247,222,204,187,158,149,139,132,128,118,112,106,102,97],"timestamp_mouse":[9,40,50,70,89,109,128,149,170,189,208,229,248,269,289,308,330,348,370,388,408,429,448,468,490,509,529,549,569,589,608,629,648,669,690,708,728,750,768,789,809,829,849,869,888,909,929,950,970,989,1011,1028,1049,1069,1088,1108,1129,1149,1169,1189,1209,1228,1248,1269,1289,1310,1328,1349,1369,1390,1409,1428,1448,1469,1490],"xSR":741.5,"ySR":469.95,"xT1":424.9,"yT1":0,"xT2":1058.1,"yT2":0,"toosoon":0,"cond_shown":"Incongruent","ratio_trial":200,"L_num":3,"L_den":4,"R_num":11,"R_den":20,"correct_side":1,"subjID":"MarianGarzon26","gender":"1","school":"6","age":"11"},{"start_time":1551800724747,"click_time":1551800726565,"finger_time":1551800726306,"fix_duration":1060.1536094008693,"trial":32,"RT":1559,"MT":259,"sideResp":1,"stimulus":[],"xmouse":[799,799,799,799,799,799,799,799,799,799,799,799,799,799,799,799,799,799,799,799,799,799,799,799,799,799,799,799,799,799,799,799,799,799,799,799,799,799,799,799,799,799,799,799,799,799,799,799,799,799,799,799,799,799,799,799,799,799,799,799,799,799,799,799,799,799,799,799,799,799,799,799,799,799,799,793,772,772,777,767,720,661,637,606,585,569,534,519,508,501,499],"ymouse":[493,493,493,493,493,493,493,493,493,493,493,493,493,493,493,493,493,493,493,493,493,493,493,493,493,493,493,493,493,493,493,493,493,493,493,493,493,493,493,493,493,493,493,493,493,493,493,493,493,493,493,493,493,493,493,493,493,493,493,493,493,493,493,493,493,493,493,493,493,493,493,493,493,493,493,489,472,448,417,386,313,245,220,196,179,163,130,119,110,102,99],"timestamp_mouse":[18,37,57,78,97,117,139,157,177,199,217,237,258,277,298,317,338,357,377,397,419,437,457,478,498,518,539,558,578,598,617,637,658,678,699,717,738,758,777,798,817,838,859,877,897,917,937,958,978,997,1017,1038,1058,1078,1098,1119,1137,1157,1177,1199,1218,1238,1257,1279,1298,1317,1337,1358,1379,1398,1417,1438,1457,1478,1497,1518,1538,1559,1577,1598,1618,1638,1657,1678,1698,1718,1737,1757,1778,1798,1818],"xSR":741.5,"ySR":469.95,"xT1":424.9,"yT1":0,"xT2":1058.1,"yT2":0,"toosoon":0,"cond_shown":"Incongruent","ratio_trial":300,"L_num":4,"L_den":20,"R_num":2,"R_den":4,"correct_side":2,"subjID":"MarianGarzon26","gender":"1","school":"6","age":"11"},{"start_time":1551800728396,"click_time":1551800730046,"finger_time":1551800729585,"fix_duration":1049.9195759750833,"trial":33,"RT":1189,"MT":461,"sideResp":2,"stimulus":[],"xmouse":[815,815,815,815,815,815,815,815,815,815,815,815,815,815,815,815,815,815,815,815,815,815,815,815,815,815,815,815,815,815,815,815,815,815,815,815,815,815,815,815,815,815,815,815,815,815,815,815,815,815,815,815,815,815,815,815,815,816,822,851,874,901,929,955,991,1005,1013,1018,1020,1020,1020,1020,1020,1020,1020,1020,1020,1020,1020,1020,1047,1056,1062],"ymouse":[531,531,531,531,531,531,531,531,531,531,531,531,531,531,531,531,531,531,531,531,531,531,531,531,531,531,531,531,531,531,531,531,531,531,531,531,531,531,531,531,531,531,531,531,531,531,531,531,531,531,531,531,531,531,531,531,531,532,518,438,377,313,248,189,100,55,32,14,1,1,1,1,1,1,1,1,1,1,1,1,14,21,25],"timestamp_mouse":[9,36,49,69,88,109,129,149,168,189,208,228,248,268,288,308,328,348,370,388,408,428,448,468,488,508,528,548,569,589,609,629,649,668,688,710,730,750,769,789,809,829,848,869,889,908,928,949,969,989,1009,1030,1049,1069,1088,1108,1129,1149,1168,1189,1208,1228,1249,1269,1290,1308,1328,1349,1369,1390,1409,1428,1449,1468,1490,1509,1529,1549,1568,1589,1608,1628,1649],"xSR":741.5,"ySR":469.95,"xT1":424.9,"yT1":0,"xT2":1058.1,"yT2":0,"toosoon":0,"cond_shown":"Incongruent","ratio_trial":100,"L_num":8,"L_den":20,"R_num":1,"R_den":2,"correct_side":2,"subjID":"MarianGarzon26","gender":"1","school":"6","age":"11"},{"start_time":1551800732139,"click_time":1551800756325,"finger_time":1551800756244,"fix_duration":1313.6887382349596,"trial":34,"RT":24105,"MT":81,"sideResp":1,"stimulus":[],"xmouse":[770,770,770,770,770,770,770,770,770,770,770,770,770,770,770,770,770,770,770,770,770,770,770,770,770,770,770,770,770,770,770,770,770,770,770,770,770,770,770,770,770,770,770,770,770,770,770,770,770,770,770,770,770,770,770,770,770,770,770,770,770,770,770,770,770,770,770,770,770,770,770,770,770,770,770,770,770,770,770,770,770,770,770,770,770,770,770,770,770,770,770,770,770,770,770,770,770,770,770,770,770,770,770,770,770,770,770,770,770,770,770,770,770,770,770,770,770,770,770,770,770,770,770,770,770,770,770,770,770,770,770,770,770,770,770,770,770,770,770,770,770,770,770,770,770,770,770,770,770,770,770,770,770,770,770,770,770,770,770,770,770,770,770,770,770,770,770,770,770,770,770,770,770,770,770,770,770,770,770,770,770,770,770,770,770,770,770,770,770,770,770,770,770,770,770,770,770,770,770,770,770,770,770,770,770,770,770,770,770,770,770,770,770,770,770,770,770,770,770,770,770,770,770,770,770,770,770,770,770,770,770,770,770,770,770,770,770,770,770,770,770,770,770,770,770,770,770,770,770,770,770,770,770,770,770,770,770,770,770,770,770,770,770,770,770,770,770,770,770,770,770,770,770,770,770,770,770,770,770,770,770,770,770,770,770,770,770,770,770,770,770,770,770,770,770,770,770,770,770,770,770,770,770,770,770,770,770,770,770,770,770,770,770,770,770,770,770,770,770,770,770,770,770,770,770,770,770,770,770,770,770,770,770,770,770,770,770,770,770,770,770,770,770,770,770,770,770,770,770,770,770,770,770,770,770,770,770,770,770,770,770,770,770,770,770,770,770,770,770,770,770,770,770,770,770,770,770,770,770,770,770,770,770,770,770,770,770,770,770,770,770,770,770,770,770,770,770,770,770,770,770,770,770,770,770,770,770,770,770,770,770,770,770,770,770,770,770,770,770,770,770,770,770,770,770,770,770,770,770,770,770,770,770,770,770,770,770,770,770,770,770,770,770,770,770,770,770,770,770,770,770,770,770,770,770,770,770,770,770,770,770,770,770,770,770,770,770,770,770,770,770,770,770,770,770,770,770,770,770,770,770,770,770,770,770,770,770,770,770,770,770,770,770,770,770,770,770,770,770,770,770,770,770,770,770,770,770,770,770,770,770,770,770,770,770,770,770,770,770,770,770,770,770,770,770,770,770,770,770,770,770,770,770,770,770,770,770,770,770,770,770,770,770,770,770,770,770,770,770,770,770,770,770,770,770,770,770,770,770,770,770,770,770,770,770,770,770,770,770,770,770,770,770,770,770,770,770,770,770,770,770,770,770,770,770,770,770,770,770,770,770,770,770,770,770,770,770,770,770,770,770,770,770,770,770,770,770,770,770,770,770,770,770,770,770,770,770,770,770,770,770,770,770,770,770,770,770,770,770,770,770,770,770,770,770,770,770,770,770,770,770,770,770,770,770,770,770,770,770,770,770,770,770,770,770,770,770,770,770,770,770,770,770,770,770,770,770,770,770,770,770,770,770,770,770,770,770,770,770,770,770,770,770,770,770,770,770,770,770,770,770,770,770,770,770,770,770,770,770,770,770,770,770,770,770,770,770,770,770,770,770,770,770,770,770,770,770,770,770,770,770,770,770,770,770,770,770,770,770,770,770,770,770,770,770,770,770,770,770,770,770,770,770,770,770,770,770,770,770,770,770,770,770,770,770,770,770,770,770,770,770,770,770,770,770,770,770,770,770,770,770,770,770,770,770,770,770,770,770,770,770,770,770,770,770,770,770,770,770,770,770,770,770,770,770,770,770,770,770,770,770,770,770,770,770,770,770,770,770,770,770,770,770,770,770,770,770,770,770,770,770,770,770,770,770,770,770,770,770,770,770,770,770,770,770,770,770,770,770,770,770,770,770,770,770,770,770,770,770,770,770,770,770,770,770,770,770,770,770,770,770,770,770,770,770,770,770,770,770,770,770,770,770,770,770,770,770,770,770,770,770,770,770,770,770,770,770,770,770,770,770,770,770,770,770,770,770,770,770,770,770,770,770,770,770,770,770,770,770,770,770,770,770,770,770,770,770,770,770,770,770,770,770,770,770,770,770,770,770,770,770,770,770,770,770,770,770,770,770,770,770,770,770,770,770,770,770,770,770,770,770,770,770,770,770,770,770,770,770,770,770,770,770,770,770,770,770,770,770,770,770,770,770,770,770,770,770,770,770,770,770,770,770,770,770,770,770,770,770,770,770,770,770,770,770,770,770,770,770,770,770,770,770,770,770,770,770,770,770,770,770,770,770,770,770,770,770,770,770,770,770,770,770,770,770,770,770,770,770,770,770,770,770,770,770,770,770,770,770,770,770,770,770,770,770,770,770,770,770,770,770,770,770,770,770,770,770,770,770,770,770,770,770,770,770,770,770,770,770,770,770,770,770,770,770,770,770,770,770,770,770,770,770,770,770,770,770,770,770,770,770,770,770,770,770,770,770,770,770,770,770,770,770,770,770,770,770,770,770,770,770,770,770,770,770,770,770,770,770,770,770,770,770,770,770,770,770,770,770,770,770,770,770,770,770,770,770,770,770,770,770,770,770,770,770,770,770,770,770,770,770,770,770,770,770,770,770,770,770,770,770,770,770,770,770,770,770,770,770,770,770,770,770,770,770,770,770,770,770,770,770,770,770,770,770,770,770,770,770,770,770,770,770,770,770,770,770,770,770,770,770,770,770,770,756,667,619,574,529,473],"ymouse":[528,528,528,528,528,528,528,528,528,528,528,528,528,528,528,528,528,528,528,528,528,528,528,528,528,528,528,528,528,528,528,528,528,528,528,528,528,528,528,528,528,528,528,528,528,528,528,528,528,528,528,528,528,528,528,528,528,528,528,528,528,528,528,528,528,528,528,528,528,528,528,528,528,528,528,528,528,528,528,528,528,528,528,528,528,528,528,528,528,528,528,528,528,528,528,528,528,528,528,528,528,528,528,528,528,528,528,528,528,528,528,528,528,528,528,528,528,528,528,528,528,528,528,528,528,528,528,528,528,528,528,528,528,528,528,528,528,528,528,528,528,528,528,528,528,528,528,528,528,528,528,528,528,528,528,528,528,528,528,528,528,528,528,528,528,528,528,528,528,528,528,528,528,528,528,528,528,528,528,528,528,528,528,528,528,528,528,528,528,528,528,528,528,528,528,528,528,528,528,528,528,528,528,528,528,528,528,528,528,528,528,528,528,528,528,528,528,528,528,528,528,528,528,528,528,528,528,528,528,528,528,528,528,528,528,528,528,528,528,528,528,528,528,528,528,528,528,528,528,528,528,528,528,528,528,528,528,528,528,528,528,528,528,528,528,528,528,528,528,528,528,528,528,528,528,528,528,528,528,528,528,528,528,528,528,528,528,528,528,528,528,528,528,528,528,528,528,528,528,528,528,528,528,528,528,528,528,528,528,528,528,528,528,528,528,528,528,528,528,528,528,528,528,528,528,528,528,528,528,528,528,528,528,528,528,528,528,528,528,528,528,528,528,528,528,528,528,528,528,528,528,528,528,528,528,528,528,528,528,528,528,528,528,528,528,528,528,528,528,528,528,528,528,528,528,528,528,528,528,528,528,528,528,528,528,528,528,528,528,528,528,528,528,528,528,528,528,528,528,528,528,528,528,528,528,528,528,528,528,528,528,528,528,528,528,528,528,528,528,528,528,528,528,528,528,528,528,528,528,528,528,528,528,528,528,528,528,528,528,528,528,528,528,528,528,528,528,528,528,528,528,528,528,528,528,528,528,528,528,528,528,528,528,528,528,528,528,528,528,528,528,528,528,528,528,528,528,528,528,528,528,528,528,528,528,528,528,528,528,528,528,528,528,528,528,528,528,528,528,528,528,528,528,528,528,528,528,528,528,528,528,528,528,528,528,528,528,528,528,528,528,528,528,528,528,528,528,528,528,528,528,528,528,528,528,528,528,528,528,528,528,528,528,528,528,528,528,528,528,528,528,528,528,528,528,528,528,528,528,528,528,528,528,528,528,528,528,528,528,528,528,528,528,528,528,528,528,528,528,528,528,528,528,528,528,528,528,528,528,528,528,528,528,528,528,528,528,528,528,528,528,528,528,528,528,528,528,528,528,528,528,528,528,528,528,528,528,528,528,528,528,528,528,528,528,528,528,528,528,528,528,528,528,528,528,528,528,528,528,528,528,528,528,528,528,528,528,528,528,528,528,528,528,528,528,528,528,528,528,528,528,528,528,528,528,528,528,528,528,528,528,528,528,528,528,528,528,528,528,528,528,528,528,528,528,528,528,528,528,528,528,528,528,528,528,528,528,528,528,528,528,528,528,528,528,528,528,528,528,528,528,528,528,528,528,528,528,528,528,528,528,528,528,528,528,528,528,528,528,528,528,528,528,528,528,528,528,528,528,528,528,528,528,528,528,528,528,528,528,528,528,528,528,528,528,528,528,528,528,528,528,528,528,528,528,528,528,528,528,528,528,528,528,528,528,528,528,528,528,528,528,528,528,528,528,528,528,528,528,528,528,528,528,528,528,528,528,528,528,528,528,528,528,528,528,528,528,528,528,528,528,528,528,528,528,528,528,528,528,528,528,528,528,528,528,528,528,528,528,528,528,528,528,528,528,528,528,528,528,528,528,528,528,528,528,528,528,528,528,528,528,528,528,528,528,528,528,528,528,528,528,528,528,528,528,528,528,528,528,528,528,528,528,528,528,528,528,528,528,528,528,528,528,528,528,528,528,528,528,528,528,528,528,528,528,528,528,528,528,528,528,528,528,528,528,528,528,528,528,528,528,528,528,528,528,528,528,528,528,528,528,528,528,528,528,528,528,528,528,528,528,528,528,528,528,528,528,528,528,528,528,528,528,528,528,528,528,528,528,528,528,528,528,528,528,528,528,528,528,528,528,528,528,528,528,528,528,528,528,528,528,528,528,528,528,528,528,528,528,528,528,528,528,528,528,528,528,528,528,528,528,528,528,528,528,528,528,528,528,528,528,528,528,528,528,528,528,528,528,528,528,528,528,528,528,528,528,528,528,528,528,528,528,528,528,528,528,528,528,528,528,528,528,528,528,528,528,528,528,528,528,528,528,528,528,528,528,528,528,528,528,528,528,528,528,528,528,528,528,528,528,528,528,528,528,528,528,528,528,528,528,528,528,528,528,528,528,528,528,528,528,528,528,528,528,528,528,528,528,528,528,528,528,528,528,528,528,528,528,528,528,528,528,528,528,528,528,528,528,528,528,528,528,528,528,528,528,528,528,528,528,528,528,528,528,528,528,528,528,528,528,528,528,528,528,528,528,528,528,528,528,528,528,528,528,528,528,528,528,528,528,528,528,528,528,528,528,528,528,528,528,528,528,528,528,528,528,528,528,528,528,528,528,528,528,528,528,528,528,528,528,528,528,528,528,528,528,528,528,528,528,528,528,528,528,528,528,528,528,528,528,528,525,519,492,390,320,242,167,78],"timestamp_mouse":[9,35,46,67,85,107,125,145,167,185,207,226,246,267,285,306,325,347,365,386,406,427,445,465,486,507,526,547,566,586,606,625,646,666,685,706,727,745,765,785,805,826,846,865,885,906,927,945,965,985,1006,1026,1046,1067,1085,1106,1127,1145,1165,1187,1206,1225,1246,1267,1287,1305,1327,1345,1366,1386,1406,1425,1447,1467,1485,1505,1526,1545,1567,1586,1605,1626,1646,1666,1686,1705,1726,1746,1766,1785,1805,1825,1847,1865,1887,1906,1926,1945,1966,1986,2005,2025,2046,2066,2087,2106,2126,2146,2165,2186,2205,2225,2245,2266,2286,2305,2325,2346,2366,2385,2405,2426,2446,2465,2485,2505,2525,2545,2567,2585,2605,2625,2645,2666,2686,2705,2727,2746,2766,2787,2806,2826,2847,2865,2885,2905,2926,2946,2965,2985,3005,3026,3046,3065,3085,3107,3126,3145,3165,3187,3207,3227,3246,3267,3286,3305,3325,3347,3366,3386,3406,3425,3446,3466,3486,3506,3526,3546,3566,3586,3605,3626,3645,3665,3686,3706,3725,3746,3766,3787,3806,3826,3845,3865,3885,3906,3925,3946,3966,3986,4006,4025,4046,4066,4087,4107,4125,4146,4166,4185,4207,4225,4245,4266,4287,4305,4325,4347,4365,4386,4405,4425,4447,4465,4485,4506,4525,4546,4565,4585,4605,4626,4646,4665,4686,4705,4726,4746,4765,4787,4806,4826,4847,4865,4885,4906,4925,4946,4965,4986,5006,5025,5047,5065,5085,5107,5126,5146,5165,5187,5205,5227,5246,5265,5286,5306,5325,5346,5365,5386,5405,5426,5446,5466,5486,5505,5526,5545,5566,5587,5606,5626,5646,5667,5687,5705,5726,5747,5766,5786,5807,5825,5846,5866,5885,5906,5925,5946,5965,5986,6007,6027,6045,6066,6085,6107,6125,6147,6167,6185,6205,6225,6247,6266,6285,6306,6327,6346,6365,6385,6406,6426,6446,6466,6486,6505,6525,6545,6566,6585,6605,6627,6646,6665,6686,6706,6727,6747,6766,6786,6805,6826,6847,6865,6887,6907,6925,6946,6965,6985,7007,7026,7046,7066,7087,7105,7126,7147,7165,7185,7207,7227,7246,7266,7286,7306,7325,7345,7366,7387,7405,7426,7446,7466,7486,7505,7526,7546,7565,7585,7606,7625,7647,7667,7686,7705,7727,7745,7765,7786,7807,7825,7847,7867,7886,7905,7926,7946,7965,7986,8005,8025,8047,8066,8085,8106,8126,8147,8166,8187,8205,8225,8247,8266,8285,8307,8326,8346,8365,8387,8407,8425,8447,8467,8486,8506,8526,8547,8565,8586,8607,8627,8646,8665,8685,8707,8727,8746,8766,8785,8807,8826,8846,8865,8886,8907,8926,8945,8967,8987,9006,9026,9047,9067,9086,9106,9127,9147,9167,9186,9205,9227,9247,9266,9287,9305,9326,9346,9366,9387,9406,9427,9447,9465,9486,9506,9526,9546,9565,9586,9607,9626,9646,9666,9686,9706,9726,9747,9767,9786,9807,9825,9846,9865,9886,9906,9926,9945,9965,9986,10005,10026,10045,10066,10085,10106,10126,10146,10165,10187,10205,10226,10247,10266,10286,10306,10326,10345,10365,10387,10405,10427,10445,10466,10486,10507,10526,10547,10566,10587,10605,10627,10645,10665,10686,10705,10726,10745,10766,10787,10805,10827,10845,10867,10886,10905,10927,10945,10965,10987,11007,11025,11046,11065,11087,11107,11125,11146,11167,11185,11205,11227,11247,11266,11285,11305,11327,11346,11366,11387,11405,11426,11446,11466,11485,11506,11525,11547,11565,11585,11607,11625,11646,11665,11687,11705,11726,11746,11765,11787,11805,11827,11847,11865,11885,11905,11925,11947,11967,11986,12007,12025,12047,12065,12085,12106,12127,12146,12166,12185,12205,12227,12245,12265,12286,12306,12325,12347,12365,12385,12407,12425,12446,12467,12485,12505,12525,12546,12566,12585,12606,12626,12646,12667,12685,12705,12726,12745,12767,12786,12805,12827,12846,12865,12887,12905,12925,12947,12965,12985,13006,13027,13046,13066,13086,13106,13126,13146,13165,13186,13205,13226,13245,13265,13286,13306,13325,13346,13365,13385,13405,13427,13445,13466,13485,13505,13525,13546,13566,13585,13606,13627,13646,13667,13685,13706,13726,13747,13766,13786,13806,13826,13845,13867,13886,13907,13925,13946,13966,13987,14007,14025,14046,14066,14085,14106,14127,14146,14166,14185,14205,14225,14247,14266,14285,14307,14326,14346,14366,14385,14407,14427,14446,14466,14486,14506,14526,14546,14565,14586,14607,14625,14646,14667,14685,14705,14727,14746,14766,14785,14805,14825,14847,14865,14887,14906,14926,14947,14967,14985,15005,15027,15047,15065,15085,15107,15127,15147,15165,15186,15206,15226,15246,15265,15285,15305,15326,15346,15365,15386,15405,15425,15446,15465,15487,15507,15525,15546,15566,15586,15607,15626,15646,15667,15685,15705,15727,15746,15766,15786,15805,15826,15847,15867,15886,15906,15926,15947,15966,15985,16006,16027,16047,16066,16085,16106,16126,16146,16165,16186,16206,16227,16246,16266,16286,16306,16327,16345,16366,16386,16406,16427,16446,16465,16486,16507,16527,16546,16566,16585,16606,16627,16647,16667,16686,16705,16726,16745,16766,16786,16806,16826,16846,16866,16887,16905,16926,16946,16966,16985,17007,17027,17045,17066,17085,17107,17127,17146,17166,17186,17207,17226,17246,17267,17286,17306,17327,17345,17365,17386,17406,17425,17446,17467,17487,17506,17525,17547,17567,17586,17605,17627,17647,17667,17686,17706,17726,17745,17766,17787,17806,17825,17846,17867,17886,17907,17926,17946,17966,17986,18006,18026,18047,18065,18085,18107,18127,18146,18166,18186,18206,18227,18247,18267,18285,18306,18326,18347,18366,18386,18407,18427,18446,18466,18485,18507,18525,18546,18567,18587,18606,18626,18647,18665,18686,18706,18727,18747,18765,18786,18805,18826,18845,18865,18886,18905,18927,18945,18965,18986,19005,19027,19046,19066,19085,19106,19125,19146,19167,19185,19207,19227,19247,19266,19285,19307,19326,19347,19365,19386,19407,19425,19446,19467,19485,19506,19526,19546,19567,19585,19606,19627,19646,19666,19685,19706,19725,19746,19766,19785,19806,19827,19845,19867,19886,19905,19925,19947,19967,19986,20006,20025,20045,20067,20087,20107,20127,20146,20165,20186,20205,20226,20247,20266,20285,20305,20326,20347,20365,20385,20407,20427,20447,20466,20487,20507,20525,20546,20567,20586,20607,20625,20645,20666,20686,20706,20726,20745,20766,20786,20806,20825,20846,20865,20885,20907,20926,20947,20966,20985,21005,21027,21047,21066,21086,21106,21125,21146,21166,21185,21205,21226,21247,21265,21286,21305,21327,21345,21365,21386,21406,21426,21445,21466,21486,21505,21525,21547,21566,21585,21605,21627,21646,21667,21686,21706,21726,21747,21766,21785,21805,21825,21847,21866,21886,21905,21926,21947,21965,21985,22006,22026,22045,22066,22087,22106,22126,22146,22166,22187,22206,22226,22247,22266,22287,22305,22326,22346,22366,22386,22407,22427,22447,22467,22486,22505,22526,22546,22566,22586,22606,22626,22646,22665,22686,22706,22726,22746,22765,22787,22806,22825,22846,22865,22887,22906,22926,22946,22966,22985,23005,23026,23046,23067,23086,23106,23127,23145,23166,23187,23205,23225,23247,23267,23286,23306,23326,23346,23365,23386,23406,23425,23446,23466,23485,23506,23527,23546,23566,23587,23605,23626,23647,23665,23686,23705,23726,23747,23765,23787,23805,23827,23845,23865,23886,23906,23925,23946,23967,23986,24005,24027,24045,24066,24085,24105,24126,24147,24166,24186],"xSR":741.5,"ySR":469.95,"xT1":424.9,"yT1":0,"xT2":1058.1,"yT2":0,"toosoon":0,"cond_shown":"Congruent","ratio_trial":100,"L_num":3,"L_den":20,"R_num":4,"R_den":16,"correct_side":2,"subjID":"MarianGarzon26","gender":"1","school":"6","age":"11"},{"start_time":1551800758100,"click_time":1551800760165,"finger_time":1551800759965,"fix_duration":833.3233351407303,"trial":35,"RT":1865,"MT":200,"sideResp":1,"stimulus":[],"xmouse":[811,811,811,811,811,811,811,811,811,811,811,811,811,811,811,811,811,811,811,811,811,811,811,811,811,811,811,811,811,811,811,811,811,811,811,811,811,811,811,811,811,811,811,811,811,811,811,811,811,811,811,811,811,811,811,811,811,811,811,811,811,811,811,811,811,811,811,811,811,811,811,811,811,811,811,811,811,811,811,811,811,811,811,811,811,811,811,811,811,806,801,793,784,743,706,662,609,578,546,536,526,512,495,474],"ymouse":[538,538,538,538,538,538,538,538,538,538,538,538,538,538,538,538,538,538,538,538,538,538,538,538,538,538,538,538,538,538,538,538,538,538,538,538,538,538,538,538,538,538,538,538,538,538,538,538,538,538,538,538,538,538,538,538,538,538,538,538,538,538,538,538,538,538,538,538,538,538,538,538,538,538,538,538,538,538,538,538,538,538,538,538,538,538,538,538,538,533,516,499,483,432,393,351,298,263,221,204,186,160,129,84],"timestamp_mouse":[9,33,45,66,85,105,124,145,166,184,205,225,245,264,284,305,325,344,366,384,406,424,445,465,485,506,525,546,565,584,604,625,644,666,684,706,724,744,764,784,806,824,845,865,884,904,925,944,965,984,1005,1024,1044,1065,1084,1105,1124,1144,1165,1184,1204,1224,1244,1264,1284,1304,1324,1344,1365,1386,1405,1425,1444,1464,1484,1505,1524,1544,1565,1585,1605,1626,1644,1664,1685,1705,1726,1746,1765,1784,1806,1824,1846,1865,1884,1904,1924,1945,1965,1985,2004,2024,2044,2065],"xSR":741.5,"ySR":469.95,"xT1":424.9,"yT1":0,"xT2":1058.1,"yT2":0,"toosoon":0,"cond_shown":"Congruent","ratio_trial":300,"L_num":11,"L_den":22,"R_num":2,"R_den":10,"correct_side":1,"subjID":"MarianGarzon26","gender":"1","school":"6","age":"11"},{"start_time":1551800762673,"click_time":1551800763884,"finger_time":1551800763704,"fix_duration":1227.813139209468,"trial":36,"RT":1031,"MT":180,"sideResp":1,"stimulus":[],"xmouse":[797,797,797,797,797,797,797,797,797,795,795,794,794,794,794,794,794,794,794,794,793,793,793,793,793,793,793,793,793,793,793,793,793,793,793,793,793,793,793,793,793,793,793,793,793,792,791,790,786,767,756,745,729,701,664,579,517,493,479,468,448],"ymouse":[512,512,512,512,512,512,512,512,512,513,513,513,513,513,513,513,513,513,513,514,515,515,516,516,516,516,516,516,516,516,516,516,516,516,516,516,516,516,516,516,516,516,516,516,516,516,516,515,512,496,484,468,446,409,359,255,182,154,137,122,92],"timestamp_mouse":[12,42,52,71,92,111,131,151,171,191,212,231,251,271,292,311,333,351,372,391,411,431,452,471,492,511,531,551,571,593,611,631,651,671,691,711,731,751,771,791,811,831,851,871,892,911,931,952,971,991,1011,1031,1051,1072,1092,1111,1131,1151,1172,1191,1211],"xSR":741.5,"ySR":469.95,"xT1":424.9,"yT1":0,"xT2":1058.1,"yT2":0,"toosoon":0,"cond_shown":"Congruent","ratio_trial":100,"L_num":11,"L_den":22,"R_num":6,"R_den":15,"correct_side":1,"subjID":"MarianGarzon26","gender":"1","school":"6","age":"11"},{"start_time":1551800767180,"click_time":1551800768584,"finger_time":1551800768104,"fix_duration":895.3294463679823,"trial":37,"RT":924,"MT":480,"sideResp":2,"stimulus":[],"xmouse":[787,787,787,787,787,787,787,787,787,787,787,787,787,787,787,787,787,787,787,787,787,787,787,787,787,787,787,787,787,787,787,787,787,787,787,787,787,787,787,787,787,787,787,793,799,833,854,878,909,951,1092,1121,1133,1138,1139,1135,1129,1121,1114,1112,