[{"start_time":1551801175840,"click_time":1551801177747,"finger_time":1551801177126,"fix_duration":907.38337963665,"trial":0,"RT":1286,"MT":621,"sideResp":1,"stimulus":"img/750/equaldotanddens/L/6_Ratio_750_L_24_R_18.png","xmouse":[794,794,794,794,794,794,794,794,794,794,794,794,794,794,794,794,794,794,794,794,794,794,794,794,794,794,794,794,794,794,794,794,794,794,794,794,794,794,794,794,794,794,794,794,794,794,794,794,794,794,794,794,794,794,794,794,794,794,794,794,796,799,805,818,850,867,880,888,892,910,924,927,938,949,976,993,1009,1020,1024,1025,1025,1025,1022,1008,1001,1001,1001,1001,1001,1001,1001,996,930,819,566,513],"ymouse":[509,509,509,509,509,509,509,509,509,509,509,509,509,509,509,509,509,509,509,509,509,509,509,509,509,509,509,509,509,509,509,509,509,509,509,509,509,509,509,509,509,509,509,509,509,509,509,509,509,509,509,509,509,509,509,509,509,509,509,509,509,506,498,473,417,383,362,348,340,321,307,304,289,276,245,229,210,197,189,185,185,184,184,188,192,192,192,192,192,192,192,190,172,140,73,66],"timestamp_mouse":[8,35,47,68,88,107,127,147,167,187,207,228,247,268,286,307,328,347,367,387,407,426,447,467,487,508,527,547,567,586,607,627,648,666,687,707,727,747,767,788,807,827,846,868,887,906,926,947,967,987,1007,1026,1047,1067,1088,1108,1126,1148,1168,1186,1207,1228,1247,1267,1286,1307,1327,1348,1368,1387,1407,1428,1446,1467,1487,1507,1527,1547,1567,1587,1608,1627,1647,1667,1688,1707,1727,1746,1767,1787,1807,1826,1847,1867,1888,1907],"xSR":741.5,"ySR":449.15000000000003,"xT1":424.9,"yT1":0,"xT2":1058.1,"yT2":0,"toosoon":0,"cond_shown":"equaldotanddens","ratio_trial":750,"smaller_num":"18","larger_num":"24","correct_side":1,"subjID":"anasofiaseguracorrea5","gender":"1","age":"10","school":"6","test":{"fix_dur":[250,1500],"timestim":300,"targets_dim":[100,100],"targets_relative_coord":[0.3,0.7],"size_stim":[880,420],"start_dim":[100,100],"size_start":[300,300],"size_fix":60,"samplingrate":20,"img_types":["equaldotsize","equaldotanddens","randomdotsizeEA"],"ratios":[250,500,750,900],"rep_conds":9,"nTrials":120,"trials_to_rest":500,"Trials_order":[91,15,99,100,114,27,3,62,111,76,12,48,40,44,104,13,93,19,49,71,36,31,102,24,8,116,110,41,56,14,81,82,117,119,84,52,28,90,47,39,96,1,60,107,6,35,16,105,54,112,61,59,69,4,103,70,55,25,57,33,115,10,83,45,67,95,2,101,86,106,32,29,113,63,7,80,97,46,21,43,38,0,23,88,66,109,94,78,53,85,5,72,89,108,65,58,42,30,17,64,74,20,37,68,11,92,51,18,87,34,26,50,77,98,9,118,75,22,79,73],"cond_shown":["equaldotanddens","equaldotsize","equaldotsize","equaldotanddens","equaldotsize","equaldotsize","equaldotsize","randomdotsizeEA","equaldotsize","equaldotanddens","equaldotsize","equaldotsize","equaldotanddens","randomdotsizeEA","randomdotsizeEA","equaldotanddens","equaldotsize","equaldotanddens","equaldotanddens","randomdotsizeEA","equaldotsize","equaldotanddens","equaldotsize","equaldotsize","randomdotsizeEA","randomdotsizeEA","randomdotsizeEA","randomdotsizeEA","randomdotsizeEA","randomdotsizeEA","equaldotsize","equaldotanddens","equaldotsize","randomdotsizeEA","equaldotsize","equaldotanddens","equaldotanddens","equaldotsize","randomdotsizeEA","equaldotsize","equaldotsize","equaldotanddens","equaldotsize","randomdotsizeEA","equaldotsize","randomdotsizeEA","equaldotanddens","equaldotsize","equaldotsize","equaldotanddens","equaldotanddens","randomdotsizeEA","equaldotsize","equaldotanddens","equaldotanddens","equaldotanddens","equaldotanddens","equaldotanddens","equaldotsize","equaldotsize","equaldotanddens","equaldotanddens","randomdotsizeEA","equaldotsize","equaldotanddens","randomdotsizeEA","randomdotsizeEA","randomdotsizeEA","randomdotsizeEA","equaldotanddens","randomdotsizeEA","randomdotsizeEA","randomdotsizeEA","equaldotsize","equaldotanddens","randomdotsizeEA","equaldotanddens","equaldotanddens","equaldotsize","equaldotanddens","randomdotsizeEA","equaldotsize","randomdotsizeEA","equaldotanddens","equaldotsize","equaldotanddens","equaldotanddens","equaldotsize","randomdotsizeEA","equaldotanddens","randomdotsizeEA","equaldotsize","randomdotsizeEA","equaldotsize","randomdotsizeEA","equaldotanddens","equaldotsize","equaldotsize","randomdotsizeEA","equaldotanddens","randomdotsizeEA","randomdotsizeEA","equaldotanddens","randomdotsizeEA","randomdotsizeEA","randomdotsizeEA","equaldotsize","equaldotsize","equaldotsize","equaldotanddens","randomdotsizeEA","randomdotsizeEA","randomdotsizeEA","randomdotsizeEA","equaldotsize","equaldotanddens","equaldotsize","equaldotanddens","equaldotanddens","equaldotanddens"],"ratio_trial":[750,500,500,500,750,500,500,250,500,500,250,250,500,750,750,250,900,750,250,900,250,750,750,250,750,750,250,500,750,250,900,900,900,900,250,500,500,750,900,500,250,250,250,900,750,900,500,900,750,500,250,900,900,500,750,900,750,250,900,900,750,900,900,900,750,900,250,500,250,900,750,500,500,500,750,750,250,900,900,750,250,250,900,500,750,250,900,750,500,250,500,250,500,250,500,900,750,750,500,500,250,750,250,750,900,750,500,750,500,900,250,250,500,250,900,900,500,900,750,250],"smaller_num":["18","9","10","9","3","2","3","3","6","2","2","1","9","3","6","3","18","15","2","18","3","3","3","6","3","15","2","9","3","4","18","18","9","18","3","6","4","15","18","2","4","4","1","18","12","18","6","9","9","6","3","18","9","6","15","9","18","6","18","9","15","9","18","18","6","9","3","4","6","9","3","2","6","4","3","15","2","18","18","3","5","2","9","2","6","2","18","9","6","4","4","2","1","4","5","18","6","15","10","6","3","18","3","3","18","6","1","3","4","18","1","4","9","2","18","18","6","18","15","3"],"larger_num":["24","18","20","18","4","4","6","12","12","4","8","4","18","4","8","12","20","20","8","20","12","4","4","24","4","20","8","18","4","16","20","20","10","20","12","12","8","20","20","4","16","16","4","20","16","20","12","10","12","12","12","20","10","12","20","10","24","24","20","10","20","10","20","20","8","10","12","8","24","10","4","4","12","8","4","20","8","20","20","4","20","8","10","4","8","8","20","12","12","16","8","8","2","16","10","20","8","20","20","12","12","24","12","4","20","8","2","4","8","20","4","16","18","8","20","20","12","20","20","12"],"correct_side":[1,1,2,2,1,2,2,2,1,2,2,2,1,1,1,1,1,2,1,1,2,2,2,1,2,2,2,2,2,2,2,1,2,2,2,1,1,2,1,1,2,1,2,2,2,1,1,2,2,1,2,1,2,1,2,1,1,2,1,2,2,2,2,2,1,2,2,1,1,1,1,2,1,1,1,2,1,1,1,1,2,1,2,1,1,1,1,2,1,2,1,1,2,2,1,1,1,2,2,1,1,1,2,2,2,2,2,2,1,2,2,1,2,1,1,2,1,1,1,1],"img_shown":["img/750/equaldotanddens/L/6_Ratio_750_L_24_R_18.png","img/500/equaldotsize/L/4_Ratio_500_L_18_R_9.png","img/500/equaldotsize/R/3_Ratio_500_L_10_R_20.png","img/500/equaldotanddens/R/1_Ratio_500_L_9_R_18.png","img/750/equaldotsize/L/8_Ratio_750_L_4_R_3.png","img/500/equaldotsize/R/9_Ratio_500_L_2_R_4.png","img/500/equaldotsize/R/2_Ratio_500_L_3_R_6.png","img/250/randomdotsizeEA/R/9_Ratio_250_L_3_R_12.png","img/500/equaldotsize/L/11_Ratio_500_L_12_R_6.png","img/500/equaldotanddens/R/9_Ratio_500_L_2_R_4.png","img/250/equaldotsize/R/13_Ratio_250_L_2_R_8.png","img/250/equaldotsize/R/8_Ratio_250_L_1_R_4.png","img/500/equaldotanddens/L/4_Ratio_500_L_18_R_9.png","img/750/randomdotsizeEA/L/9_Ratio_750_L_4_R_3.png","img/750/randomdotsizeEA/L/14_Ratio_750_L_8_R_6.png","img/250/equaldotanddens/L/15_Ratio_250_L_12_R_3.png","img/900/equaldotsize/L/8_Ratio_900_L_20_R_18.png","img/750/equaldotanddens/R/5_Ratio_750_L_15_R_20.png","img/250/equaldotanddens/L/7_Ratio_250_L_8_R_2.png","img/900/randomdotsizeEA/L/8_Ratio_900_L_20_R_18.png","img/250/equaldotsize/R/11_Ratio_250_L_3_R_12.png","img/750/equaldotanddens/R/7_Ratio_750_L_3_R_4.png","img/750/equaldotsize/R/12_Ratio_750_L_3_R_4.png","img/250/equaldotsize/L/5_Ratio_250_L_24_R_6.png","img/750/randomdotsizeEA/R/7_Ratio_750_L_3_R_4.png","img/750/randomdotsizeEA/R/4_Ratio_750_L_15_R_20.png","img/250/randomdotsizeEA/R/13_Ratio_250_L_2_R_8.png","img/500/randomdotsizeEA/R/1_Ratio_500_L_9_R_18.png","img/750/randomdotsizeEA/R/12_Ratio_750_L_3_R_4.png","img/250/randomdotsizeEA/R/10_Ratio_250_L_4_R_16.png","img/900/equaldotsize/R/12_Ratio_900_L_18_R_20.png","img/900/equaldotanddens/L/8_Ratio_900_L_20_R_18.png","img/900/equaldotsize/R/3_Ratio_900_L_9_R_10.png","img/900/randomdotsizeEA/R/9_Ratio_900_L_18_R_20.png","img/250/equaldotsize/R/4_Ratio_250_L_3_R_12.png","img/500/equaldotanddens/L/11_Ratio_500_L_12_R_6.png","img/500/equaldotanddens/L/8_Ratio_500_L_8_R_4.png","img/750/equaldotsize/R/3_Ratio_750_L_15_R_20.png","img/900/randomdotsizeEA/L/2_Ratio_900_L_20_R_18.png","img/500/equaldotsize/L/10_Ratio_500_L_4_R_2.png","img/250/equaldotsize/R/10_Ratio_250_L_4_R_16.png","img/250/equaldotanddens/L/2_Ratio_250_L_16_R_4.png","img/250/equaldotsize/R/8_Ratio_250_L_1_R_4.png","img/900/randomdotsizeEA/R/9_Ratio_900_L_18_R_20.png","img/750/equaldotsize/R/11_Ratio_750_L_12_R_16.png","img/900/randomdotsizeEA/L/2_Ratio_900_L_20_R_18.png","img/500/equaldotanddens/L/13_Ratio_500_L_12_R_6.png","img/900/equaldotsize/R/5_Ratio_900_L_9_R_10.png","img/750/equaldotsize/R/15_Ratio_750_L_9_R_12.png","img/500/equaldotanddens/L/11_Ratio_500_L_12_R_6.png","img/250/equaldotanddens/R/9_Ratio_250_L_3_R_12.png","img/900/randomdotsizeEA/L/8_Ratio_900_L_20_R_18.png","img/900/equaldotsize/R/3_Ratio_900_L_9_R_10.png","img/500/equaldotanddens/L/13_Ratio_500_L_12_R_6.png","img/750/equaldotanddens/R/3_Ratio_750_L_15_R_20.png","img/900/equaldotanddens/L/1_Ratio_900_L_10_R_9.png","img/750/equaldotanddens/L/6_Ratio_750_L_24_R_18.png","img/250/equaldotanddens/R/6_Ratio_250_L_6_R_24.png","img/900/equaldotsize/L/10_Ratio_900_L_20_R_18.png","img/900/equaldotsize/R/7_Ratio_900_L_9_R_10.png","img/750/equaldotanddens/R/3_Ratio_750_L_15_R_20.png","img/900/equaldotanddens/R/7_Ratio_900_L_9_R_10.png","img/900/randomdotsizeEA/R/13_Ratio_900_L_18_R_20.png","img/900/equaldotsize/R/9_Ratio_900_L_18_R_20.png","img/750/equaldotanddens/L/13_Ratio_750_L_8_R_6.png","img/900/randomdotsizeEA/R/3_Ratio_900_L_9_R_10.png","img/250/randomdotsizeEA/R/4_Ratio_250_L_3_R_12.png","img/500/randomdotsizeEA/L/8_Ratio_500_L_8_R_4.png","img/250/randomdotsizeEA/L/5_Ratio_250_L_24_R_6.png","img/900/equaldotanddens/L/1_Ratio_900_L_10_R_9.png","img/750/randomdotsizeEA/L/9_Ratio_750_L_4_R_3.png","img/500/randomdotsizeEA/R/9_Ratio_500_L_2_R_4.png","img/500/randomdotsizeEA/L/13_Ratio_500_L_12_R_6.png","img/500/equaldotsize/L/8_Ratio_500_L_8_R_4.png","img/750/equaldotanddens/L/8_Ratio_750_L_4_R_3.png","img/750/randomdotsizeEA/R/3_Ratio_750_L_15_R_20.png","img/250/equaldotanddens/L/1_Ratio_250_L_8_R_2.png","img/900/equaldotanddens/L/4_Ratio_900_L_20_R_18.png","img/900/equaldotsize/L/10_Ratio_900_L_20_R_18.png","img/750/equaldotanddens/L/8_Ratio_750_L_4_R_3.png","img/250/randomdotsizeEA/R/12_Ratio_250_L_5_R_20.png","img/250/equaldotsize/L/7_Ratio_250_L_8_R_2.png","img/900/randomdotsizeEA/R/15_Ratio_900_L_9_R_10.png","img/500/equaldotanddens/L/5_Ratio_500_L_4_R_2.png","img/750/equaldotsize/L/13_Ratio_750_L_8_R_6.png","img/250/equaldotanddens/L/3_Ratio_250_L_8_R_2.png","img/900/equaldotanddens/L/10_Ratio_900_L_20_R_18.png","img/750/equaldotsize/R/15_Ratio_750_L_9_R_12.png","img/500/randomdotsizeEA/L/13_Ratio_500_L_12_R_6.png","img/250/equaldotanddens/R/10_Ratio_250_L_4_R_16.png","img/500/randomdotsizeEA/L/8_Ratio_500_L_8_R_4.png","img/250/equaldotsize/L/7_Ratio_250_L_8_R_2.png","img/500/randomdotsizeEA/R/12_Ratio_500_L_1_R_2.png","img/250/equaldotsize/R/10_Ratio_250_L_4_R_16.png","img/500/randomdotsizeEA/L/7_Ratio_500_L_10_R_5.png","img/900/equaldotanddens/L/8_Ratio_900_L_20_R_18.png","img/750/equaldotsize/L/14_Ratio_750_L_8_R_6.png","img/750/equaldotsize/R/5_Ratio_750_L_15_R_20.png","img/500/randomdotsizeEA/R/3_Ratio_500_L_10_R_20.png","img/500/equaldotanddens/L/11_Ratio_500_L_12_R_6.png","img/250/randomdotsizeEA/L/15_Ratio_250_L_12_R_3.png","img/750/randomdotsizeEA/L/6_Ratio_750_L_24_R_18.png","img/250/equaldotanddens/R/4_Ratio_250_L_3_R_12.png","img/750/randomdotsizeEA/R/7_Ratio_750_L_3_R_4.png","img/900/randomdotsizeEA/R/13_Ratio_900_L_18_R_20.png","img/750/randomdotsizeEA/R/2_Ratio_750_L_6_R_8.png","img/500/equaldotsize/R/12_Ratio_500_L_1_R_2.png","img/750/equaldotsize/R/7_Ratio_750_L_3_R_4.png","img/500/equaldotsize/L/8_Ratio_500_L_8_R_4.png","img/900/equaldotanddens/R/12_Ratio_900_L_18_R_20.png","img/250/randomdotsizeEA/R/8_Ratio_250_L_1_R_4.png","img/250/randomdotsizeEA/L/2_Ratio_250_L_16_R_4.png","img/500/randomdotsizeEA/R/1_Ratio_500_L_9_R_18.png","img/250/randomdotsizeEA/L/3_Ratio_250_L_8_R_2.png","img/900/equaldotsize/L/10_Ratio_900_L_20_R_18.png","img/900/equaldotanddens/R/11_Ratio_900_L_18_R_20.png","img/500/equaldotsize/L/11_Ratio_500_L_12_R_6.png","img/900/equaldotanddens/L/4_Ratio_900_L_20_R_18.png","img/750/equaldotanddens/L/1_Ratio_750_L_20_R_15.png","img/250/equaldotanddens/L/14_Ratio_250_L_12_R_3.png"],"Rat0":[["12_Ratio_0_L_9_R_0.png","13_Ratio_0_L_6_R_0.png","5_Ratio_0_L_2_R_0.png","6_Ratio_0_L_4_R_0.png","8_Ratio_0_L_6_R_0.png"],["1_Ratio_0_L_0_R_17.png","10_Ratio_0_L_0_R_22.png","11_Ratio_0_L_0_R_1.png","14_Ratio_0_L_0_R_24.png","15_Ratio_0_L_0_R_4.png","2_Ratio_0_L_0_R_5.png","3_Ratio_0_L_0_R_17.png","4_Ratio_0_L_0_R_7.png","7_Ratio_0_L_0_R_19.png","9_Ratio_0_L_0_R_15.png"]],"Rat250":[["1_Ratio_250_L_8_R_2.png","14_Ratio_250_L_12_R_3.png","15_Ratio_250_L_12_R_3.png","2_Ratio_250_L_16_R_4.png","3_Ratio_250_L_8_R_2.png","5_Ratio_250_L_24_R_6.png","7_Ratio_250_L_8_R_2.png"],["10_Ratio_250_L_4_R_16.png","11_Ratio_250_L_3_R_12.png","12_Ratio_250_L_5_R_20.png","13_Ratio_250_L_2_R_8.png","4_Ratio_250_L_3_R_12.png","6_Ratio_250_L_6_R_24.png","8_Ratio_250_L_1_R_4.png","9_Ratio_250_L_3_R_12.png"]],"Rat500":[["10_Ratio_500_L_4_R_2.png","11_Ratio_500_L_12_R_6.png","13_Ratio_500_L_12_R_6.png","4_Ratio_500_L_18_R_9.png","5_Ratio_500_L_4_R_2.png","7_Ratio_500_L_10_R_5.png","8_Ratio_500_L_8_R_4.png"],["1_Ratio_500_L_9_R_18.png","12_Ratio_500_L_1_R_2.png","14_Ratio_500_L_5_R_10.png","15_Ratio_500_L_1_R_2.png","2_Ratio_500_L_3_R_6.png","3_Ratio_500_L_10_R_20.png","6_Ratio_500_L_9_R_18.png","9_Ratio_500_L_2_R_4.png"]],"Rat750":[["1_Ratio_750_L_20_R_15.png","10_Ratio_750_L_4_R_3.png","13_Ratio_750_L_8_R_6.png","14_Ratio_750_L_8_R_6.png","6_Ratio_750_L_24_R_18.png","8_Ratio_750_L_4_R_3.png","9_Ratio_750_L_4_R_3.png"],["11_Ratio_750_L_12_R_16.png","12_Ratio_750_L_3_R_4.png","15_Ratio_750_L_9_R_12.png","2_Ratio_750_L_6_R_8.png","3_Ratio_750_L_15_R_20.png","4_Ratio_750_L_15_R_20.png","5_Ratio_750_L_15_R_20.png","7_Ratio_750_L_3_R_4.png"]],"Rat900":[["1_Ratio_900_L_10_R_9.png","10_Ratio_900_L_20_R_18.png","2_Ratio_900_L_20_R_18.png","4_Ratio_900_L_20_R_18.png","8_Ratio_900_L_20_R_18.png"],["11_Ratio_900_L_18_R_20.png","12_Ratio_900_L_18_R_20.png","13_Ratio_900_L_18_R_20.png","14_Ratio_900_L_18_R_20.png","15_Ratio_900_L_9_R_10.png","3_Ratio_900_L_9_R_10.png","5_Ratio_900_L_9_R_10.png","6_Ratio_900_L_9_R_10.png","7_Ratio_900_L_9_R_10.png","9_Ratio_900_L_18_R_20.png"]],"Rat1000":[["10_Ratio_1000_L_16_R_16.png","11_Ratio_1000_L_6_R_6.png","12_Ratio_1000_L_14_R_14.png","13_Ratio_1000_L_20_R_20.png","15_Ratio_1000_L_15_R_15.png","2_Ratio_1000_L_17_R_17.png","4_Ratio_1000_L_9_R_9.png","5_Ratio_1000_L_6_R_6.png","6_Ratio_1000_L_19_R_19.png","8_Ratio_1000_L_14_R_14.png","9_Ratio_1000_L_25_R_25.png"],["1_Ratio_1000_L_1_R_1.png","14_Ratio_1000_L_17_R_17.png","3_Ratio_1000_L_17_R_17.png","7_Ratio_1000_L_6_R_6.png"]]}},{"start_time":1551801180881,"click_time":1551801182048,"finger_time":1551801181708,"fix_duration":472.6996771311972,"trial":1,"RT":827,"MT":340,"sideResp":1,"stimulus":"img/500/equaldotsize/L/4_Ratio_500_L_18_R_9.png","xmouse":[786,786,786,786,786,786,786,786,786,786,786,786,786,786,786,786,786,786,786,786,786,786,786,786,786,786,786,786,786,786,786,786,786,786,785,785,783,782,779,773,768,759,714,674,632,592,565,550,549,548,547,538,530,530,530,530,530,525,522],"ymouse":[531,531,531,531,531,531,531,531,531,531,531,531,531,531,531,531,531,530,529,529,529,529,529,529,529,529,529,529,529,529,529,529,529,529,528,528,528,525,516,494,474,448,367,319,271,227,199,166,152,142,136,123,114,113,111,110,108,99,94],"timestamp_mouse":[9,27,46,66,87,106,126,146,166,186,206,226,247,266,287,306,326,346,367,386,406,426,446,466,486,506,526,547,565,585,605,625,646,666,687,706,726,745,766,785,806,827,846,866,886,906,927,946,967,985,1007,1026,1046,1066,1086,1106,1127,1146,1167],"xSR":741.5,"ySR":449.15000000000003,"xT1":424.9,"yT1":0,"xT2":1058.1,"yT2":0,"toosoon":0,"cond_shown":"equaldotsize","ratio_trial":500,"smaller_num":"9","larger_num":"18","correct_side":1,"subjID":"anasofiaseguracorrea5","gender":"1","age":"10","school":"6"},{"start_time":1551801183158,"click_time":1551801184027,"finger_time":1551801183788,"fix_duration":250,"trial":2,"RT":630,"MT":239,"sideResp":2,"stimulus":"img/500/equaldotsize/R/3_Ratio_500_L_10_R_20.png","xmouse":[781,781,781,782,783,783,783,783,783,783,783,783,783,783,783,783,783,783,783,783,783,783,783,783,783,783,783,783,789,801,821,847,886,991,1020,1032,1042,1045,1047,1048,1048,1049,1053,1062],"ymouse":[489,490,490,491,491,491,491,491,491,491,491,491,491,491,491,491,491,491,491,491,491,491,491,491,491,491,491,491,491,481,459,420,370,246,205,181,156,146,137,134,133,129,119,96],"timestamp_mouse":[19,36,50,68,89,110,129,150,169,190,209,228,250,269,288,310,329,349,370,390,410,430,450,469,489,510,529,548,570,588,610,630,650,670,690,710,730,750,769,789,808,830,849,868],"xSR":741.5,"ySR":449.15000000000003,"xT1":424.9,"yT1":0,"xT2":1058.1,"yT2":0,"toosoon":0,"cond_shown":"equaldotsize","ratio_trial":500,"smaller_num":"10","larger_num":"20","correct_side":2,"subjID":"anasofiaseguracorrea5","gender":"1","age":"10","school":"6"},{"start_time":1551801185322,"click_time":1551801186227,"finger_time":1551801185886,"fix_duration":674.3392081236135,"trial":3,"RT":564,"MT":341,"sideResp":2,"stimulus":"img/500/equaldotanddens/R/1_Ratio_500_L_9_R_18.png","xmouse":[788,789,791,793,795,796,796,796,796,797,797,797,797,797,797,797,797,797,797,797,797,797,797,797,797,799,804,818,863,899,1015,1075,1123,1162,1196,1196,1196,1196,1196,1196,1196,1196,1196,1196,1196,1122],"ymouse":[465,466,469,472,475,476,477,478,479,479,479,479,479,479,479,479,479,479,479,479,479,479,479,479,479,479,477,463,423,389,261,191,123,61,1,1,1,1,1,1,1,1,1,1,1,6],"timestamp_mouse":[8,33,45,65,85,105,126,145,165,185,205,224,246,265,284,305,325,345,366,385,406,425,446,466,484,505,525,545,564,586,605,624,645,665,684,705,726,745,765,785,806,825,845,866,886,905],"xSR":741.5,"ySR":449.15000000000003,"xT1":424.9,"yT1":0,"xT2":1058.1,"yT2":0,"toosoon":0,"cond_shown":"equaldotanddens","ratio_trial":500,"smaller_num":"9","larger_num":"18","correct_side":2,"subjID":"anasofiaseguracorrea5","gender":"1","age":"10","school":"6"},{"start_time":1551801187139,"click_time":1551801188287,"finger_time":1551801187968,"fix_duration":250,"trial":4,"RT":829,"MT":319,"sideResp":1,"stimulus":"img/750/equaldotsize/L/8_Ratio_750_L_4_R_3.png","xmouse":[803,803,803,803,803,803,803,803,803,803,803,803,803,803,803,803,803,803,803,803,803,803,803,803,803,803,803,803,802,796,788,776,762,751,748,748,748,748,748,748,747,740,730,717,673,634,600,557,538,535,535,535,535,535,530,527,526,522],"ymouse":[523,523,523,523,523,523,523,523,523,523,523,523,523,523,523,523,523,523,523,523,523,523,523,523,523,523,523,523,523,520,514,504,495,485,482,482,482,482,482,482,480,472,451,416,279,188,99,24,4,0,0,0,0,0,2,8,15,22],"timestamp_mouse":[8,34,49,68,89,109,127,149,167,189,208,228,249,268,289,308,327,348,368,389,409,428,447,469,488,509,527,549,568,588,609,628,649,668,688,709,728,748,768,789,809,829,848,867,888,907,928,948,968,988,1007,1029,1048,1068,1088,1108,1129,1148],"xSR":741.5,"ySR":449.15000000000003,"xT1":424.9,"yT1":0,"xT2":1058.1,"yT2":0,"toosoon":0,"cond_shown":"equaldotsize","ratio_trial":750,"smaller_num":"3","larger_num":"4","correct_side":1,"subjID":"anasofiaseguracorrea5","gender":"1","age":"10","school":"6"},{"start_time":1551801189378,"click_time":1551801190146,"finger_time":1551801189908,"fix_duration":250,"trial":5,"RT":530,"MT":238,"sideResp":2,"stimulus":"img/500/equaldotsize/R/9_Ratio_500_L_2_R_4.png","xmouse":[795,795,795,795,795,795,795,795,795,795,795,795,795,795,795,795,795,795,795,795,795,795,795,795,802,816,849,974,1014,1030,1039,1044,1071,1091,1108,1121,1124,1125,1125],"ymouse":[489,489,489,489,489,489,489,489,489,489,489,489,489,489,489,489,489,489,489,489,489,489,489,489,485,469,426,276,231,212,201,194,162,144,130,113,105,102,90],"timestamp_mouse":[12,29,49,69,88,108,128,148,169,190,208,230,248,269,288,308,328,348,368,390,409,429,448,468,489,509,530,548,569,588,609,628,649,669,689,709,728,748,768],"xSR":741.5,"ySR":449.15000000000003,"xT1":424.9,"yT1":0,"xT2":1058.1,"yT2":0,"toosoon":0,"cond_shown":"equaldotsize","ratio_trial":500,"smaller_num":"2","larger_num":"4","correct_side":2,"subjID":"anasofiaseguracorrea5","gender":"1","age":"10","school":"6"},{"start_time":1551801191971,"click_time":1551801192866,"finger_time":1551801192626,"fix_duration":1244.6785297841445,"trial":6,"RT":655,"MT":240,"sideResp":2,"stimulus":"img/500/equaldotsize/R/2_Ratio_500_L_3_R_6.png","xmouse":[791,791,791,791,791,791,791,791,791,791,791,791,791,791,791,791,791,791,791,791,791,791,791,791,791,791,791,791,791,795,804,819,905,974,1034,1081,1091,1102,1108,1111,1112,1112,1114,1114,1114],"ymouse":[498,498,498,498,498,498,498,498,498,498,498,498,498,498,498,498,498,498,498,498,498,498,498,498,498,498,498,498,498,497,492,482,401,335,276,231,213,169,147,133,126,122,111,104,97],"timestamp_mouse":[16,35,56,75,96,116,136,155,176,195,216,236,255,276,296,317,335,356,376,396,415,435,455,476,496,515,535,555,575,596,616,636,655,676,697,715,736,755,776,795,816,836,856,876,895],"xSR":741.5,"ySR":449.15000000000003,"xT1":424.9,"yT1":0,"xT2":1058.1,"yT2":0,"toosoon":0,"cond_shown":"equaldotsize","ratio_trial":500,"smaller_num":"3","larger_num":"6","correct_side":2,"subjID":"anasofiaseguracorrea5","gender":"1","age":"10","school":"6"},{"start_time":1551801193878,"click_time":1551801194847,"finger_time":1551801194547,"fix_duration":250,"trial":7,"RT":669,"MT":300,"sideResp":1,"stimulus":"img/250/randomdotsizeEA/R/9_Ratio_250_L_3_R_12.png","xmouse":[793,793,793,793,793,793,793,793,793,793,793,793,793,793,793,793,793,793,793,793,793,793,797,804,808,809,809,809,809,808,805,800,788,780,770,756,733,703,697,692,690,687,683,679,673,664,645,559,520],"ymouse":[504,504,504,506,510,512,512,512,512,512,513,513,513,513,513,513,513,513,513,513,513,513,503,490,482,481,480,480,480,476,472,468,454,443,427,404,372,332,325,319,317,316,313,306,289,264,219,103,72],"timestamp_mouse":[8,28,49,69,89,108,129,149,168,188,208,228,248,268,288,308,328,349,369,388,408,428,448,469,489,508,528,549,568,588,610,628,648,669,688,710,729,748,769,788,809,828,848,868,889,908,928,949,969],"xSR":741.5,"ySR":449.15000000000003,"xT1":424.9,"yT1":0,"xT2":1058.1,"yT2":0,"toosoon":0,"cond_shown":"randomdotsizeEA","ratio_trial":250,"smaller_num":"3","larger_num":"12","correct_side":2,"subjID":"anasofiaseguracorrea5","gender":"1","age":"10","school":"6"},{"start_time":1551801199559,"click_time":1551801200446,"finger_time":1551801200187,"fix_duration":1071.9238538344189,"trial":8,"RT":628,"MT":259,"sideResp":1,"stimulus":"img/500/equaldotsize/L/11_Ratio_500_L_12_R_6.png","xmouse":[801,801,801,801,801,801,801,801,801,801,801,801,801,801,801,801,801,801,801,801,801,801,801,801,801,801,799,797,777,762,743,721,697,643,630,624,619,617,612,606,598,586,567,526,514],"ymouse":[495,495,495,495,495,495,495,495,495,495,495,495,495,495,495,495,495,495,495,495,495,495,495,495,495,495,495,494,479,466,450,430,403,331,303,285,268,260,249,239,223,205,178,119,98],"timestamp_mouse":[7,33,48,67,87,109,128,147,167,188,207,228,247,267,289,307,328,348,367,388,409,428,448,468,488,508,528,548,567,588,608,628,648,667,687,707,727,747,768,788,807,828,847,867,887],"xSR":741.5,"ySR":449.15000000000003,"xT1":424.9,"yT1":0,"xT2":1058.1,"yT2":0,"toosoon":0,"cond_shown":"equaldotsize","ratio_trial":500,"smaller_num":"6","larger_num":"12","correct_side":1,"subjID":"anasofiaseguracorrea5","gender":"1","age":"10","school":"6"},{"start_time":1551801201994,"click_time":1551801203208,"finger_time":1551801202747,"fix_duration":826.9588670664692,"trial":9,"RT":753,"MT":461,"sideResp":2,"stimulus":"img/500/equaldotanddens/R/9_Ratio_500_L_2_R_4.png","xmouse":[798,798,798,798,798,798,798,798,798,798,798,798,798,798,798,798,798,798,798,798,798,798,798,798,798,798,798,798,798,798,798,798,798,798,799,803,838,869,899,928,958,1016,1039,1055,1067,1077,1079,1081,1087,1097,1109,1128,1136,1137,1137,1137,1137,1132,1131,1131,1131],"ymouse":[518,518,518,518,517,517,517,516,516,516,516,516,516,516,516,516,516,516,516,516,516,516,516,516,516,516,516,516,516,516,516,516,516,516,514,510,484,460,432,407,381,331,309,290,273,255,248,245,240,232,219,189,170,166,156,149,139,117,110,104,96],"timestamp_mouse":[13,32,53,73,93,113,132,152,173,192,212,232,253,272,292,314,332,353,372,394,412,432,454,472,493,512,532,552,572,593,612,632,652,674,693,714,732,753,772,792,812,832,852,873,893,913,932,952,972,993,1013,1032,1052,1074,1092,1112,1132,1153,1172,1193,1214],"xSR":741.5,"ySR":449.15000000000003,"xT1":424.9,"yT1":0,"xT2":1058.1,"yT2":0,"toosoon":0,"cond_shown":"equaldotanddens","ratio_trial":500,"smaller_num":"2","larger_num":"4","correct_side":2,"subjID":"anasofiaseguracorrea5","gender":"1","age":"10","school":"6"},{"start_time":1551801204357,"click_time":1551801205367,"finger_time":1551801205027,"fix_duration":250,"trial":10,"RT":670,"MT":340,"sideResp":2,"stimulus":"img/250/equaldotsize/R/13_Ratio_250_L_2_R_8.png","xmouse":[785,785,785,785,785,785,786,786,786,786,786,786,786,786,786,786,786,786,786,786,786,786,786,786,786,786,786,787,791,797,804,817,836,907,970,1039,1137,1167,1188,1190,1191,1193,1194,1196,1196,1196,1194,1190,1173,1164,1151],"ymouse":[501,501,501,501,501,501,501,501,501,501,501,501,501,501,501,501,501,501,501,501,501,501,501,501,501,501,501,501,501,501,499,494,484,432,387,327,248,220,183,169,160,150,140,119,114,111,109,107,98,95,88],"timestamp_mouse":[9,31,49,70,90,109,130,150,169,189,210,229,250,270,289,309,329,350,369,389,409,430,449,470,489,510,530,549,569,590,609,629,650,670,690,710,729,750,769,790,809,829,850,869,890,910,929,949,970,990,1009],"xSR":741.5,"ySR":449.15000000000003,"xT1":424.9,"yT1":0,"xT2":1058.1,"yT2":0,"toosoon":0,"cond_shown":"equaldotsize","ratio_trial":250,"smaller_num":"2","larger_num":"8","correct_side":2,"subjID":"anasofiaseguracorrea5","gender":"1","age":"10","school":"6"},{"start_time":1551801207183,"click_time":1551801208147,"finger_time":1551801207847,"fix_duration":1076.5695091817777,"trial":11,"RT":664,"MT":300,"sideResp":2,"stimulus":"img/250/equaldotsize/R/8_Ratio_250_L_1_R_4.png","xmouse":[796,796,796,796,796,796,796,796,796,796,796,796,796,796,796,796,796,796,796,796,796,796,796,796,796,796,796,796,796,796,796,797,811,855,869,909,972,1007,1043,1054,1060,1066,1079,1084,1087,1093,1096,1098,1099],"ymouse":[501,501,501,501,501,501,501,501,501,501,501,501,501,501,501,501,501,501,501,501,501,501,501,501,501,501,501,501,501,501,501,500,489,460,448,416,347,295,219,194,177,164,144,137,128,114,107,100,94],"timestamp_mouse":[8,24,44,64,85,103,123,144,163,183,204,223,243,263,283,303,324,344,364,384,403,423,443,464,484,504,524,543,565,584,604,623,644,664,683,703,723,743,764,783,805,824,844,864,883,903,923,943,964],"xSR":741.5,"ySR":449.15000000000003,"xT1":424.9,"yT1":0,"xT2":1058.1,"yT2":0,"toosoon":0,"cond_shown":"equaldotsize","ratio_trial":250,"smaller_num":"1","larger_num":"4","correct_side":2,"subjID":"anasofiaseguracorrea5","gender":"1","age":"10","school":"6"},{"start_time":1551801209993,"click_time":1551801210807,"finger_time":1551801210706,"fix_duration":1085.56225499158,"trial":12,"RT":713,"MT":101,"sideResp":1,"stimulus":"img/500/equaldotanddens/L/4_Ratio_500_L_18_R_9.png","xmouse":[774,774,774,774,774,774,774,774,774,774,774,774,774,774,774,774,774,774,774,774,774,774,774,774,774,774,774,774,774,774,774,774,775,775,772,757,693,648,594,525,455],"ymouse":[507,507,507,507,507,507,507,507,507,507,507,507,507,507,507,507,507,507,507,507,507,507,507,507,507,507,507,507,507,507,507,507,498,490,461,426,324,261,201,137,76],"timestamp_mouse":[13,33,53,73,93,113,134,153,173,195,215,234,255,273,293,314,333,354,373,394,414,433,455,474,493,513,533,554,574,594,614,634,654,675,694,713,733,754,775,793,813],"xSR":741.5,"ySR":449.15000000000003,"xT1":424.9,"yT1":0,"xT2":1058.1,"yT2":0,"toosoon":0,"cond_shown":"equaldotanddens","ratio_trial":500,"smaller_num":"9","larger_num":"18","correct_side":1,"subjID":"anasofiaseguracorrea5","gender":"1","age":"10","school":"6"},{"start_time":1551801214783,"click_time":1551801216287,"finger_time":1551801215967,"fix_duration":1455.486991713849,"trial":13,"RT":1184,"MT":320,"sideResp":1,"stimulus":"img/750/randomdotsizeEA/L/9_Ratio_750_L_4_R_3.png","xmouse":[796,796,796,796,796,796,796,796,796,796,796,795,795,795,795,795,795,795,795,794,794,794,794,794,801,808,811,811,811,811,811,811,811,811,811,811,811,811,811,811,811,810,807,806,804,803,802,802,802,802,802,802,802,802,802,802,802,797,787,768,729,662,478,410,385,373,372,373,374,374,375,375,382,390,407,428],"ymouse":[499,499,499,499,499,499,499,499,499,499,499,499,499,499,499,499,499,499,499,499,499,499,499,497,490,486,482,480,479,478,478,477,477,477,477,477,477,477,476,476,476,475,475,475,475,475,475,475,475,475,475,475,475,475,475,475,475,471,456,431,388,332,208,160,136,112,105,95,93,91,89,88,86,85,80,72],"timestamp_mouse":[10,23,44,63,85,103,123,144,163,183,204,224,244,263,284,304,323,343,363,384,403,424,443,463,484,504,523,544,564,585,603,624,644,664,685,703,723,743,763,785,804,824,843,864,883,903,924,943,963,983,1004,1024,1043,1064,1084,1103,1124,1143,1163,1184,1203,1223,1244,1263,1283,1304,1324,1344,1364,1383,1403,1425,1443,1464,1484,1504],"xSR":741.5,"ySR":449.15000000000003,"xT1":424.9,"yT1":0,"xT2":1058.1,"yT2":0,"toosoon":0,"cond_shown":"randomdotsizeEA","ratio_trial":750,"smaller_num":"3","larger_num":"4","correct_side":1,"subjID":"anasofiaseguracorrea5","gender":"1","age":"10","school":"6"},{"start_time":1551801218174,"click_time":1551801219506,"finger_time":1551801219266,"fix_duration":986.3326815813001,"trial":14,"RT":1092,"MT":240,"sideResp":1,"stimulus":"img/750/randomdotsizeEA/L/14_Ratio_750_L_8_R_6.png","xmouse":[800,800,800,800,800,800,800,800,800,800,800,800,800,800,800,800,800,800,800,800,800,800,800,800,800,800,800,800,800,800,800,800,800,800,800,800,800,800,800,800,800,800,800,800,800,800,800,800,800,800,800,800,800,797,773,739,698,626,609,599,592,590,578,566,539,531,515],"ymouse":[492,492,492,492,492,492,492,492,492,492,492,492,492,492,492,492,492,492,492,492,492,492,492,492,492,492,492,492,492,492,492,492,492,492,492,492,492,492,492,492,492,492,492,492,492,492,492,492,492,492,492,492,487,476,442,402,356,275,239,209,185,167,126,105,73,65,48],"timestamp_mouse":[13,32,52,73,92,112,133,152,172,194,212,234,252,272,294,313,332,352,373,393,412,432,452,472,492,513,534,552,573,592,612,633,652,672,692,713,734,752,772,792,813,833,852,872,892,912,932,952,973,994,1012,1032,1052,1073,1092,1112,1133,1152,1173,1193,1212,1233,1252,1273,1293,1312,1332],"xSR":741.5,"ySR":449.15000000000003,"xT1":424.9,"yT1":0,"xT2":1058.1,"yT2":0,"toosoon":0,"cond_shown":"randomdotsizeEA","ratio_trial":750,"smaller_num":"6","larger_num":"8","correct_side":1,"subjID":"anasofiaseguracorrea5","gender":"1","age":"10","school":"6"},{"start_time":1551801221134,"click_time":1551801222086,"finger_time":1551801221747,"fix_duration":986.0114998607856,"trial":15,"RT":613,"MT":339,"sideResp":1,"stimulus":"img/250/equaldotanddens/L/15_Ratio_250_L_12_R_3.png","xmouse":[784,784,784,784,784,784,784,784,784,784,784,784,784,784,784,784,784,784,784,784,784,784,784,784,784,784,783,776,771,761,751,737,706,670,611,598,590,588,588,588,580,572,567,564,551,539,525,509],"ymouse":[513,513,513,513,513,513,513,513,513,513,513,513,513,513,513,513,513,513,513,513,513,513,513,513,513,512,510,500,491,461,439,412,366,316,235,214,193,182,173,164,142,131,125,122,104,92,80,69],"timestamp_mouse":[12,36,54,74,93,112,133,153,173,193,214,232,252,273,293,312,332,353,373,392,412,432,452,473,493,514,532,554,572,592,613,632,654,673,692,712,732,752,774,792,813,833,853,874,893,912,933,952],"xSR":741.5,"ySR":449.15000000000003,"xT1":424.9,"yT1":0,"xT2":1058.1,"yT2":0,"toosoon":0,"cond_shown":"equaldotanddens","ratio_trial":250,"smaller_num":"3","larger_num":"12","correct_side":1,"subjID":"anasofiaseguracorrea5","gender":"1","age":"10","school":"6"},{"start_time":1551801223868,"click_time":1551801224888,"finger_time":1551801224526,"fix_duration":1239.8712920482305,"trial":16,"RT":658,"MT":362,"sideResp":2,"stimulus":"img/900/equaldotsize/L/8_Ratio_900_L_20_R_18.png","xmouse":[782,782,782,782,782,782,782,782,782,782,782,782,782,782,782,782,782,782,782,782,782,782,782,782,782,782,782,782,782,782,786,798,815,873,902,928,946,960,977,984,992,998,1014,1045,1053,1057,1059,1060,1068,1081,1087,1103],"ymouse":[506,506,506,506,506,506,506,506,506,506,506,506,506,506,506,506,506,506,506,506,506,506,506,506,506,506,506,506,506,506,506,501,490,453,428,398,359,329,284,270,256,245,216,160,140,129,126,124,117,107,102,87],"timestamp_mouse":[1,18,38,59,79,99,119,138,158,180,198,219,238,258,279,299,318,340,358,379,398,420,439,458,480,498,519,539,559,580,599,619,638,658,679,698,720,740,758,779,798,819,840,858,878,898,918,939,958,978,998,1020],"xSR":741.5,"ySR":449.15000000000003,"xT1":424.9,"yT1":0,"xT2":1058.1,"yT2":0,"toosoon":0,"cond_shown":"equaldotsize","ratio_trial":900,"smaller_num":"18","larger_num":"20","correct_side":1,"subjID":"anasofiaseguracorrea5","gender":"1","age":"10","school":"6"},{"start_time":1551801226412,"click_time":1551801227308,"finger_time":1551801227107,"fix_duration":284.3544413467757,"trial":17,"RT":695,"MT":201,"sideResp":2,"stimulus":"img/750/equaldotanddens/R/5_Ratio_750_L_15_R_20.png","xmouse":[804,804,804,804,804,804,803,803,803,803,803,803,803,803,802,802,802,802,802,802,802,802,802,802,802,802,802,802,802,802,802,802,802,813,845,915,941,980,1016,1061,1134,1154,1161,1163,1158],"ymouse":[521,521,521,521,521,520,517,517,517,517,517,517,517,517,516,516,516,516,516,516,516,516,516,516,516,516,516,516,516,516,516,516,516,510,492,451,428,389,346,292,174,138,116,92,82],"timestamp_mouse":[27,34,55,75,94,114,136,154,174,195,214,234,254,274,295,315,335,355,374,395,414,434,454,474,494,514,534,555,574,594,616,635,655,674,695,715,735,754,774,795,814,834,855,874,895],"xSR":741.5,"ySR":449.15000000000003,"xT1":424.9,"yT1":0,"xT2":1058.1,"yT2":0,"toosoon":0,"cond_shown":"equaldotanddens","ratio_trial":750,"smaller_num":"15","larger_num":"20","correct_side":2,"subjID":"anasofiaseguracorrea5","gender":"1","age":"10","school":"6"},{"start_time":1551801228730,"click_time":1551801229588,"finger_time":1551801229307,"fix_duration":581.544488922358,"trial":18,"RT":577,"MT":281,"sideResp":1,"stimulus":"img/250/equaldotanddens/L/7_Ratio_250_L_8_R_2.png","xmouse":[814,814,814,814,814,814,814,814,814,814,814,814,814,814,814,814,814,814,814,814,814,814,814,814,814,810,794,761,741,712,702,694,683,665,598,556,521,494,479,461,454,449,438],"ymouse":[508,508,508,508,508,508,508,508,508,508,508,508,508,508,508,508,508,508,508,508,508,508,508,508,508,505,497,478,467,440,426,410,390,363,281,233,195,164,147,124,116,107,92],"timestamp_mouse":[16,37,57,78,96,116,136,156,178,196,217,237,256,277,296,316,337,357,377,396,417,438,457,477,496,517,538,556,577,596,617,637,657,678,696,717,738,756,777,797,817,836,857],"xSR":741.5,"ySR":449.15000000000003,"xT1":424.9,"yT1":0,"xT2":1058.1,"yT2":0,"toosoon":0,"cond_shown":"equaldotanddens","ratio_trial":250,"smaller_num":"2","larger_num":"8","correct_side":1,"subjID":"anasofiaseguracorrea5","gender":"1","age":"10","school":"6"},{"start_time":1551801232285,"click_time":1551801233606,"finger_time":1551801233108,"fix_duration":517.1826877554361,"trial":19,"RT":823,"MT":498,"sideResp":1,"stimulus":"img/900/randomdotsizeEA/L/8_Ratio_900_L_20_R_18.png","xmouse":[789,789,789,789,789,789,789,789,789,789,789,789,789,789,789,789,789,789,789,789,789,789,789,789,790,790,791,791,791,791,791,791,791,791,791,791,791,791,794,808,830,867,897,901,901,901,901,901,901,901,900,899,890,885,880,874,869,867,867,867,865,862,822,760,665,554,442],"ymouse":[502,502,502,502,502,502,502,502,502,502,502,502,502,502,502,502,502,502,502,502,502,502,502,502,501,499,498,498,498,498,498,498,498,498,498,498,498,498,494,484,469,441,414,407,406,406,406,406,406,406,406,406,406,406,407,410,412,413,413,413,413,413,357,291,196,100,7],"timestamp_mouse":[7,22,41,62,81,101,122,141,162,182,201,221,241,263,282,302,321,343,362,382,403,422,441,462,481,502,522,542,562,581,602,623,641,662,682,701,722,742,763,781,801,823,841,862,881,902,923,942,962,981,1002,1021,1041,1062,1081,1103,1122,1141,1161,1181,1201,1221,1241,1262,1281,1301,1321],"xSR":741.5,"ySR":449.15000000000003,"xT1":424.9,"yT1":0,"xT2":1058.1,"yT2":0,"toosoon":0,"cond_shown":"randomdotsizeEA","ratio_trial":900,"smaller_num":"18","larger_num":"20","correct_side":1,"subjID":"anasofiaseguracorrea5","gender":"1","age":"10","school":"6"},{"start_time":1551801236961,"click_time":1551801237806,"finger_time":1551801237526,"fix_duration":993.6015548949636,"trial":20,"RT":565,"MT":280,"sideResp":2,"stimulus":"img/250/equaldotsize/R/11_Ratio_250_L_3_R_12.png","xmouse":[796,796,796,796,796,796,796,796,796,796,796,796,796,796,796,796,796,796,796,796,796,796,796,796,802,806,818,840,872,888,911,937,970,1016,1027,1033,1036,1036,1037,1041,1047,1058,1074],"ymouse":[513,513,513,513,513,513,513,513,513,513,513,513,513,513,513,513,513,513,513,513,513,513,513,513,504,499,486,461,416,390,348,303,244,156,136,122,104,91,89,85,80,72,63],"timestamp_mouse":[7,29,46,65,87,107,126,146,165,185,205,225,246,266,286,305,325,345,366,387,406,427,445,465,485,505,526,545,565,586,606,626,645,665,686,705,725,752,765,785,806,825,845],"xSR":741.5,"ySR":449.15000000000003,"xT1":424.9,"yT1":0,"xT2":1058.1,"yT2":0,"toosoon":0,"cond_shown":"equaldotsize","ratio_trial":250,"smaller_num":"3","larger_num":"12","correct_side":2,"subjID":"anasofiaseguracorrea5","gender":"1","age":"10","school":"6"},{"start_time":1551801238777,"click_time":1551801239767,"finger_time":1551801239427,"fix_duration":250,"trial":21,"RT":650,"MT":340,"sideResp":2,"stimulus":"img/750/equaldotanddens/R/7_Ratio_750_L_3_R_4.png","xmouse":[769,769,769,769,769,769,769,769,769,769,769,769,769,769,769,769,769,769,769,769,769,769,769,769,769,769,769,775,790,809,826,839,852,854,855,858,864,890,912,942,981,1017,1065,1087,1092,1106,1114,1127,1134,1139],"ymouse":[518,518,518,518,518,518,518,518,518,518,518,518,518,518,518,518,518,518,518,518,518,518,518,518,518,518,518,518,511,502,492,484,471,467,463,459,452,423,399,364,321,278,209,176,166,145,133,115,106,98],"timestamp_mouse":[10,31,49,69,90,110,131,150,169,190,210,230,250,269,290,309,329,349,370,389,410,430,449,470,489,509,529,550,570,589,610,630,650,670,690,709,730,750,769,789,810,830,849,869,890,910,931,949,970,990],"xSR":741.5,"ySR":449.15000000000003,"xT1":424.9,"yT1":0,"xT2":1058.1,"yT2":0,"toosoon":0,"cond_shown":"equaldotanddens","ratio_trial":750,"smaller_num":"3","larger_num":"4","correct_side":2,"subjID":"anasofiaseguracorrea5","gender":"1","age":"10","school":"6"},{"start_time":1551801242358,"click_time":1551801243348,"finger_time":1551801243246,"fix_duration":370.7290903500453,"trial":22,"RT":888,"MT":102,"sideResp":1,"stimulus":"img/750/equaldotsize/R/12_Ratio_750_L_3_R_4.png","xmouse":[789,789,789,789,789,789,789,789,789,789,789,789,789,789,789,789,789,789,789,789,789,789,789,789,789,789,789,789,789,789,789,789,789,789,789,789,789,789,789,789,787,785,784,778,772,727,672,610,530,521],"ymouse":[513,513,513,513,513,513,513,513,513,513,513,513,513,513,513,513,513,513,513,513,513,513,513,513,513,513,513,513,513,513,513,513,513,513,513,513,513,513,513,513,511,510,504,468,436,309,221,157,99,93],"timestamp_mouse":[8,30,48,69,89,109,130,149,168,190,208,229,250,268,288,308,329,348,368,388,408,428,448,468,489,509,528,549,568,589,608,629,648,668,688,708,729,748,768,788,809,829,848,869,888,909,928,948,968,990],"xSR":741.5,"ySR":449.15000000000003,"xT1":424.9,"yT1":0,"xT2":1058.1,"yT2":0,"toosoon":0,"cond_shown":"equaldotsize","ratio_trial":750,"smaller_num":"3","larger_num":"4","correct_side":2,"subjID":"anasofiaseguracorrea5","gender":"1","age":"10","school":"6"},{"start_time":1551801245365,"click_time":1551801249547,"finger_time":1551801249126,"fix_duration":936.4025905603573,"trial":23,"RT":3761,"MT":421,"sideResp":1,"stimulus":"img/250/equaldotsize/L/5_Ratio_250_L_24_R_6.png","xmouse":[797,797,797,797,797,797,797,797,797,797,797,797,797,797,797,796,795,791,790,790,790,790,790,790,790,790,790,790,790,790,790,790,790,790,790,790,790,790,790,790,790,790,790,790,790,790,790,790,790,790,790,790,790,790,790,790,790,790,790,790,790,790,790,790,790,790,790,790,790,790,790,790,790,790,790,790,790,790,790,790,790,790,790,790,790,790,793,796,799,799,799,799,799,799,799,799,799,799,799,799,799,799,799,799,799,799,799,799,799,799,799,799,799,799,799,799,799,799,799,799,799,799,799,799,799,799,799,799,799,799,799,799,799,799,799,799,799,799,795,792,791,791,791,790,790,790,790,790,791,793,795,796,796,796,796,796,796,796,796,796,796,796,796,796,796,796,796,796,796,796,796,796,796,796,796,796,796,796,797,797,797,797,797,797,797,797,796,793,785,783,781,778,774,758,749,740,728,705,687,632,608,589,580,568,559,546,526,519,518,518],"ymouse":[514,514,514,514,514,514,514,514,514,514,514,514,514,514,514,514,515,521,523,523,523,523,523,522,521,521,521,521,521,521,521,521,521,521,521,521,521,521,521,521,521,521,521,521,521,521,521,521,520,520,520,520,520,520,520,520,520,520,520,520,520,520,520,520,520,520,519,518,517,516,516,516,516,516,516,516,516,516,516,516,516,516,516,514,513,510,503,497,490,490,490,490,490,490,490,490,490,490,490,490,490,490,490,490,490,490,490,490,490,490,490,490,490,490,490,490,490,490,490,490,490,490,490,490,490,490,490,490,490,490,490,490,490,490,490,490,490,490,494,500,506,508,510,512,513,513,513,513,506,497,490,487,486,485,485,485,485,485,485,485,485,485,485,485,485,485,485,485,485,485,485,485,485,485,485,485,483,482,479,477,472,470,467,463,462,460,458,452,446,443,441,439,435,416,405,391,374,336,311,251,232,215,203,181,167,150,126,116,104,97],"timestamp_mouse":[11,21,41,62,81,102,121,141,162,181,202,222,241,261,281,302,322,342,361,381,402,421,441,461,481,501,521,541,561,581,601,621,642,661,681,701,721,741,761,781,801,821,841,861,881,901,921,942,962,982,1001,1021,1042,1062,1082,1103,1123,1141,1161,1181,1201,1223,1241,1261,1281,1301,1321,1341,1361,1382,1403,1421,1441,1461,1482,1501,1523,1541,1561,1581,1601,1623,1642,1662,1681,1702,1723,1741,1761,1782,1802,1823,1841,1862,1882,1902,1922,1941,1961,1981,2003,2022,2042,2061,2081,2102,2122,2143,2162,2183,2201,2221,2242,2261,2282,2301,2322,2342,2361,2381,2402,2422,2441,2462,2481,2502,2523,2541,2561,2583,2601,2622,2641,2661,2683,2702,2721,2742,2761,2782,2802,2821,2842,2861,2882,2902,2922,2941,2962,2982,3001,3022,3042,3062,3083,3102,3122,3141,3161,3181,3202,3221,3241,3261,3282,3303,3321,3341,3362,3381,3403,3422,3442,3463,3481,3501,3522,3541,3562,3581,3601,3622,3642,3661,3681,3702,3721,3743,3761,3782,3801,3821,3842,3861,3882,3902,3922,3943,3961,3982,4001,4021,4043,4063,4083,4103,4121,4142,4161,4182],"xSR":741.5,"ySR":449.15000000000003,"xT1":424.9,"yT1":0,"xT2":1058.1,"yT2":0,"toosoon":0,"cond_shown":"equaldotsize","ratio_trial":250,"smaller_num":"6","larger_num":"24","correct_side":1,"subjID":"anasofiaseguracorrea5","gender":"1","age":"10","school":"6"},{"start_time":1551801250898,"click_time":1551801252208,"finger_time":1551801251827,"fix_duration":748.9776978793985,"trial":24,"RT":929,"MT":381,"sideResp":2,"stimulus":"img/750/randomdotsizeEA/R/7_Ratio_750_L_3_R_4.png","xmouse":[794,794,794,794,794,794,794,794,794,794,794,793,793,793,793,793,793,793,793,793,793,793,793,793,793,793,793,793,793,793,793,793,793,793,793,793,793,793,793,793,793,793,793,793,796,808,929,949,965,986,998,1026,1039,1046,1051,1053,1053,1054,1059,1066,1071,1081,1085,1087,1089,1091],"ymouse":[491,491,491,491,491,491,491,492,494,494,494,494,494,494,494,494,494,494,494,494,494,494,494,494,494,494,494,494,494,494,494,494,494,494,494,494,494,494,494,494,494,494,494,494,494,489,437,423,406,379,358,310,289,267,252,242,233,228,216,202,189,154,135,120,104,90],"timestamp_mouse":[8,29,49,68,90,108,129,149,168,189,209,228,248,269,290,310,329,350,368,390,409,429,449,469,489,509,529,548,568,588,609,629,649,669,689,709,728,748,769,790,810,828,848,868,889,908,929,950,970,988,1009,1029,1049,1068,1090,1108,1128,1150,1169,1188,1209,1228,1249,1270,1289,1310],"xSR":741.5,"ySR":449.15000000000003,"xT1":424.9,"yT1":0,"xT2":1058.1,"yT2":0,"toosoon":0,"cond_shown":"randomdotsizeEA","ratio_trial":750,"smaller_num":"3","larger_num":"4","correct_side":2,"subjID":"anasofiaseguracorrea5","gender":"1","age":"10","school":"6"},{"start_time":1551801253744,"click_time":1551801254908,"finger_time":1551801254467,"fix_duration":715.9891609511876,"trial":25,"RT":723,"MT":441,"sideResp":2,"stimulus":"img/750/randomdotsizeEA/R/4_Ratio_750_L_15_R_20.png","xmouse":[802,802,802,802,802,802,802,802,802,802,802,802,802,802,802,802,802,802,802,802,802,802,802,802,802,802,802,802,802,802,802,802,802,804,810,824,865,912,969,1083,1125,1149,1160,1164,1168,1181,1192,1201,1207,1207,1207,1205,1201,1199,1187,1180,1170,1162,1157],"ymouse":[515,515,515,515,515,515,515,515,515,515,515,515,515,515,515,515,515,515,515,515,515,515,515,515,515,515,515,515,515,515,515,515,515,515,511,500,471,437,397,319,290,272,263,260,251,227,206,189,173,143,131,120,109,101,75,58,42,29,21],"timestamp_mouse":[8,29,43,63,83,103,122,142,163,182,202,222,243,263,282,302,324,343,363,382,403,423,443,463,483,503,523,543,564,583,602,622,644,663,683,704,723,743,764,783,802,822,844,864,883,902,922,942,962,983,1003,1024,1043,1063,1082,1103,1123,1142,1164],"xSR":741.5,"ySR":449.15000000000003,"xT1":424.9,"yT1":0,"xT2":1058.1,"yT2":0,"toosoon":0,"cond_shown":"randomdotsizeEA","ratio_trial":750,"smaller_num":"15","larger_num":"20","correct_side":2,"subjID":"anasofiaseguracorrea5","gender":"1","age":"10","school":"6"},{"start_time":1551801257659,"click_time":1551801258687,"finger_time":1551801258566,"fix_duration":250,"trial":26,"RT":907,"MT":121,"sideResp":2,"stimulus":"img/250/randomdotsizeEA/R/13_Ratio_250_L_2_R_8.png","xmouse":[792,792,792,792,792,792,792,792,792,792,792,792,792,792,792,792,792,792,792,792,792,792,792,792,792,792,792,792,792,792,792,792,792,792,792,792,792,792,792,792,792,792,791,810,826,846,865,887,953,996,1040,1075],"ymouse":[514,514,514,514,514,514,514,514,514,514,514,514,514,514,514,514,514,514,514,514,514,514,514,514,514,514,514,514,514,514,514,514,514,514,514,514,514,514,514,514,514,514,514,493,474,447,415,376,254,177,100,32],"timestamp_mouse":[8,29,48,69,87,108,129,148,167,187,207,227,248,267,288,308,328,347,368,388,408,428,448,468,488,508,528,548,567,589,607,628,647,668,687,707,728,748,768,788,809,828,847,867,888,907,928,949,967,988,1009,1028],"xSR":741.5,"ySR":449.15000000000003,"xT1":424.9,"yT1":0,"xT2":1058.1,"yT2":0,"toosoon":0,"cond_shown":"randomdotsizeEA","ratio_trial":250,"smaller_num":"2","larger_num":"8","correct_side":2,"subjID":"anasofiaseguracorrea5","gender":"1","age":"10","school":"6"},{"start_time":1551801259819,"click_time":1551801260847,"finger_time":1551801260767,"fix_duration":250,"trial":27,"RT":948,"MT":80,"sideResp":2,"stimulus":"img/500/randomdotsizeEA/R/1_Ratio_500_L_9_R_18.png","xmouse":[803,803,803,803,803,803,803,803,803,803,803,803,803,803,803,803,803,803,803,803,803,803,803,803,803,803,803,803,803,803,803,803,803,803,803,803,803,804,804,804,805,805,805,805,807,818,833,865,922,978,1059,1083],"ymouse":[506,506,506,506,506,506,506,506,506,506,506,506,506,506,506,506,506,506,506,506,506,506,506,506,506,506,506,506,506,506,506,506,506,506,506,506,506,504,504,503,501,500,500,499,496,477,455,411,337,258,129,91],"timestamp_mouse":[7,35,47,69,88,107,127,147,169,189,208,227,248,267,288,309,329,347,367,389,407,427,449,467,487,508,529,549,567,587,608,629,648,668,687,708,728,748,768,788,807,827,849,868,888,908,928,948,969,989,1008,1027],"xSR":741.5,"ySR":449.15000000000003,"xT1":424.9,"yT1":0,"xT2":1058.1,"yT2":0,"toosoon":0,"cond_shown":"randomdotsizeEA","ratio_trial":500,"smaller_num":"9","larger_num":"18","correct_side":2,"subjID":"anasofiaseguracorrea5","gender":"1","age":"10","school":"6"},{"start_time":1551801262677,"click_time":1551801264887,"finger_time":1551801264367,"fix_duration":908.4183596394403,"trial":28,"RT":1690,"MT":520,"sideResp":2,"stimulus":"img/750/randomdotsizeEA/R/12_Ratio_750_L_3_R_4.png","xmouse":[767,767,767,767,767,767,767,767,767,768,768,768,768,768,768,768,768,768,768,768,768,768,768,768,768,768,768,768,768,768,768,768,768,768,768,768,768,768,768,768,768,768,768,768,768,768,768,768,768,768,768,768,768,768,768,768,768,768,768,768,768,768,768,768,768,768,768,768,768,768,768,768,768,768,768,768,768,769,769,770,771,775,798,823,858,907,960,1013,1024,1032,1043,1051,1077,1092,1108,1122,1132,1146,1151,1155,1161,1165,1173,1174,1174,1174,1169,1162,1161,1160,1158],"ymouse":[493,494,494,494,494,494,494,494,494,494,494,494,494,494,494,494,494,494,494,494,494,494,494,494,494,494,494,494,494,494,494,494,494,494,494,494,494,494,494,494,494,494,494,494,494,494,494,494,494,494,494,494,494,494,494,494,494,494,494,494,494,494,494,494,494,495,495,495,495,495,495,495,495,495,495,495,495,495,495,495,495,496,496,496,492,480,469,447,438,427,404,380,317,280,240,203,185,163,157,151,143,135,115,110,105,99,92,83,81,78,75],"timestamp_mouse":[10,29,50,69,91,110,129,149,170,191,210,230,249,269,290,310,331,349,369,390,409,430,450,470,490,511,530,549,570,589,611,631,651,670,689,710,730,750,770,790,810,830,850,870,890,909,929,951,970,989,1011,1031,1049,1071,1091,1110,1129,1150,1170,1189,1210,1230,1249,1270,1290,1310,1329,1350,1371,1389,1409,1430,1449,1470,1491,1511,1530,1551,1569,1590,1610,1629,1650,1670,1690,1710,1731,1749,1769,1790,1811,1830,1849,1869,1890,1910,1931,1950,1969,1990,2010,2030,2050,2070,2090,2111,2131,2151,2171,2191,2210],"xSR":741.5,"ySR":449.15000000000003,"xT1":424.9,"yT1":0,"xT2":1058.1,"yT2":0,"toosoon":0,"cond_shown":"randomdotsizeEA","ratio_trial":750,"smaller_num":"3","larger_num":"4","correct_side":2,"subjID":"anasofiaseguracorrea5","gender":"1","age":"10","school":"6"},{"start_time":1551801266943,"click_time":1551801268048,"finger_time":1551801267726,"fix_duration":1195.9688255968358,"trial":29,"RT":783,"MT":322,"sideResp":2,"stimulus":"img/250/randomdotsizeEA/R/10_Ratio_250_L_4_R_16.png","xmouse":[784,784,784,784,784,784,784,784,784,784,784,784,784,784,784,784,784,784,784,784,784,784,784,784,784,784,784,784,784,784,784,784,784,784,784,784,785,786,801,854,888,923,956,980,1016,1037,1069,1097,1108,1112,1114,1117,1121,1124,1126,1126],"ymouse":[499,499,499,499,499,499,499,499,499,499,499,499,499,499,499,499,499,499,499,499,499,499,499,499,499,499,499,499,499,499,499,499,499,499,499,499,498,497,482,445,419,389,355,326,276,250,223,199,188,181,176,169,160,146,112,91],"timestamp_mouse":[8,33,45,64,84,105,123,144,163,183,204,225,244,264,284,303,324,344,363,384,404,424,444,465,484,504,524,544,563,584,603,624,645,664,685,704,723,745,764,783,804,824,845,863,883,905,925,945,964,983,1003,1025,1045,1063,1083,1105],"xSR":741.5,"ySR":449.15000000000003,"xT1":424.9,"yT1":0,"xT2":1058.1,"yT2":0,"toosoon":0,"cond_shown":"randomdotsizeEA","ratio_trial":250,"smaller_num":"4","larger_num":"16","correct_side":2,"subjID":"anasofiaseguracorrea5","gender":"1","age":"10","school":"6"},{"start_time":1551801271077,"click_time":1551801273967,"finger_time":1551801272307,"fix_duration":969.3501477058364,"trial":30,"RT":1230,"MT":1660,"sideResp":1,"stimulus":"img/900/equaldotsize/R/12_Ratio_900_L_18_R_20.png","xmouse":[803,803,803,803,803,803,803,803,803,803,803,803,803,803,803,803,803,803,803,803,803,803,803,803,803,803,803,803,803,803,803,803,803,803,803,803,803,803,803,803,803,803,803,803,803,803,803,803,803,803,803,803,803,803,803,803,801,798,793,780,765,739,657,610,568,544,526,512,510,507,503,502,502,502,502,502,502,502,502,502,500,499,496,495,495,493,493,491,490,490,490,490,490,490,490,490,490,490,490,490,490,490,488,488,488,488,488,488,488,488,488,488,488,488,488,488,488,488,488,488,488,488,488,488,488,488,488,488,488,488,488,488,488,488,488,488,488,488,488,488,488,488,488,488,488],"ymouse":[510,510,510,510,510,510,510,510,510,510,510,510,510,510,510,510,510,510,510,510,510,510,510,510,510,510,510,510,510,510,510,510,510,510,510,510,510,510,510,510,510,510,510,510,510,510,510,510,510,510,510,510,510,510,510,510,510,508,503,484,464,431,332,279,230,203,184,158,152,146,140,140,140,140,140,140,140,139,138,134,131,128,123,122,121,118,116,112,110,110,110,110,110,110,110,110,110,110,110,110,108,106,103,103,103,102,101,100,100,100,100,100,100,100,100,100,100,100,100,100,100,100,100,100,100,100,100,100,100,100,100,100,100,100,100,100,100,100,100,100,100,100,100,100,99],"timestamp_mouse":[10,29,50,69,89,109,131,151,171,190,211,231,251,271,291,310,330,350,370,390,410,430,451,470,491,511,529,550,571,591,610,630,649,671,689,711,730,749,770,790,809,830,850,869,890,910,929,949,971,990,1009,1030,1050,1070,1089,1111,1130,1150,1170,1190,1211,1230,1249,1269,1289,1311,1330,1350,1370,1391,1411,1431,1449,1470,1489,1510,1530,1549,1571,1590,1610,1630,1649,1670,1690,1710,1731,1749,1769,1789,1811,1830,1850,1870,1889,1910,1930,1950,1970,1989,2011,2030,2050,2069,2090,2110,2130,2150,2169,2191,2209,2229,2250,2270,2290,2309,2329,2349,2371,2390,2410,2429,2450,2470,2491,2511,2530,2549,2569,2589,2611,2630,2650,2670,2689,2709,2731,2750,2769,2789,2810,2830,2850,2869,2890],"xSR":741.5,"ySR":449.15000000000003,"xT1":424.9,"yT1":0,"xT2":1058.1,"yT2":0,"toosoon":0,"cond_shown":"equaldotsize","ratio_trial":900,"smaller_num":"18","larger_num":"20","correct_side":2,"subjID":"anasofiaseguracorrea5","gender":"1","age":"10","school":"6"},{"start_time":1551801277310,"click_time":1551801278808,"finger_time":1551801278107,"fix_duration":461.3984178389383,"trial":31,"RT":797,"MT":701,"sideResp":1,"stimulus":"img/900/equaldotanddens/L/8_Ratio_900_L_20_R_18.png","xmouse":[789,789,789,789,788,787,787,787,787,787,787,787,787,787,787,787,787,787,787,787,787,787,787,787,787,787,787,787,787,787,787,787,787,787,787,787,793,807,824,843,882,899,923,944,961,977,978,978,978,978,978,978,976,972,961,938,924,915,908,904,887,873,861,850,842,818,800,754,713,669,584,555,538,525,521],"ymouse":[486,486,486,486,487,487,487,487,487,487,487,487,487,487,487,487,487,487,487,487,487,487,487,487,487,487,487,487,487,487,487,487,487,487,487,487,483,471,457,439,397,373,346,324,309,295,295,295,295,295,295,294,295,297,302,312,316,319,321,321,322,322,322,320,317,300,284,252,223,189,130,110,99,91,88],"timestamp_mouse":[16,37,56,77,98,116,136,157,176,198,217,237,257,278,297,316,338,358,376,397,418,437,457,477,496,518,538,557,577,597,617,636,657,676,696,717,736,757,777,797,816,837,857,876,897,916,938,958,977,998,1017,1037,1058,1077,1097,1117,1137,1156,1177,1197,1217,1237,1256,1277,1297,1317,1338,1357,1376,1397,1417,1437,1457,1477,1498],"xSR":741.5,"ySR":449.15000000000003,"xT1":424.9,"yT1":0,"xT2":1058.1,"yT2":0,"toosoon":0,"cond_shown":"equaldotanddens","ratio_trial":900,"smaller_num":"18","larger_num":"20","correct_side":1,"subjID":"anasofiaseguracorrea5","gender":"1","age":"10","school":"6"},{"start_time":1551801280713,"click_time":1551801281588,"finger_time":1551801281406,"fix_duration":1184.3774176469628,"trial":32,"RT":693,"MT":182,"sideResp":2,"stimulus":"img/900/equaldotsize/R/3_Ratio_900_L_9_R_10.png","xmouse":[802,802,802,802,802,802,802,802,802,802,802,802,802,802,802,802,802,802,802,802,802,802,802,802,802,802,804,806,813,816,824,828,831,838,845,872,888,916,938,972,1033,1064,1093,1114],"ymouse":[499,499,499,499,499,499,499,499,499,499,499,499,499,499,499,499,499,499,499,499,499,499,499,499,499,499,497,495,490,487,482,479,476,467,459,424,403,368,337,297,219,168,110,69],"timestamp_mouse":[20,34,54,74,93,114,134,153,174,193,214,233,254,275,294,315,334,353,374,393,414,435,453,475,493,514,535,555,573,594,614,633,654,674,693,713,734,754,775,795,813,834,853,875],"xSR":741.5,"ySR":449.15000000000003,"xT1":424.9,"yT1":0,"xT2":1058.1,"yT2":0,"toosoon":0,"cond_shown":"equaldotsize","ratio_trial":900,"smaller_num":"9","larger_num":"10","correct_side":2,"subjID":"anasofiaseguracorrea5","gender":"1","age":"10","school":"6"},{"start_time":1551801283761,"click_time":1551801285708,"finger_time":1551801285488,"fix_duration":1172.6725637520256,"trial":33,"RT":1727,"MT":220,"sideResp":2,"stimulus":"img/900/randomdotsizeEA/R/9_Ratio_900_L_18_R_20.png","xmouse":[779,779,779,779,779,780,780,780,780,780,780,780,780,780,780,780,780,780,780,780,780,780,780,780,780,780,780,780,780,780,780,780,780,780,780,780,780,780,780,780,780,780,780,780,780,780,780,780,780,780,780,780,780,780,780,780,780,780,780,780,780,780,780,780,780,780,780,780,780,780,780,780,780,780,780,780,780,780,780,780,780,780,780,780,791,813,885,934,1027,1060,1088,1106,1116,1121,1122,1126,1130,1134],"ymouse":[541,541,541,541,541,541,541,541,541,541,541,541,541,541,541,541,541,541,541,541,541,541,541,541,541,541,541,541,541,541,541,541,541,541,541,541,541,541,541,541,541,541,541,541,541,541,541,541,541,541,541,541,541,541,541,541,541,541,541,541,541,541,541,541,541,541,541,541,541,541,541,541,541,541,541,541,541,541,541,541,541,541,541,542,537,517,452,404,312,267,224,194,176,148,139,124,110,94],"timestamp_mouse":[8,28,46,66,85,106,125,146,165,186,206,226,246,265,285,306,327,346,365,386,406,427,446,466,486,506,526,546,565,587,606,626,646,665,687,705,726,746,765,785,806,827,846,866,887,907,926,946,966,986,1006,1026,1047,1066,1085,1107,1127,1146,1165,1186,1206,1226,1245,1266,1285,1305,1326,1346,1367,1387,1406,1426,1446,1466,1487,1507,1525,1545,1566,1587,1607,1626,1646,1666,1685,1706,1727,1746,1765,1785,1807,1826,1845,1866,1887,1906,1925,1947],"xSR":741.5,"ySR":449.15000000000003,"xT1":424.9,"yT1":0,"xT2":1058.1,"yT2":0,"toosoon":0,"cond_shown":"randomdotsizeEA","ratio_trial":900,"smaller_num":"18","larger_num":"20","correct_side":2,"subjID":"anasofiaseguracorrea5","gender":"1","age":"10","school":"6"},{"start_time":1551801288448,"click_time":1551801289287,"finger_time":1551801289127,"fix_duration":600.9587233269639,"trial":34,"RT":679,"MT":160,"sideResp":2,"stimulus":"img/250/equaldotsize/R/4_Ratio_250_L_3_R_12.png","xmouse":[819,819,819,819,819,819,819,819,819,819,819,819,819,819,819,819,819,819,819,819,819,819,819,818,815,812,810,809,809,809,809,808,811,864,893,922,950,971,1017,1039,1061,1083],"ymouse":[525,525,525,525,525,525,525,525,525,525,525,525,525,525,525,525,525,525,525,525,525,525,526,527,529,530,531,531,531,531,531,530,524,464,423,373,313,269,187,154,126,93],"timestamp_mouse":[20,39,59,79,99,119,140,159,180,199,219,239,260,278,299,319,338,360,379,399,420,438,459,479,499,520,539,559,579,599,620,639,659,679,699,719,739,759,778,799,819,839],"xSR":741.5,"ySR":449.15000000000003,"xT1":424.9,"yT1":0,"xT2":1058.1,"yT2":0,"toosoon":0,"cond_shown":"equaldotsize","ratio_trial":250,"smaller_num":"3","larger_num":"12","correct_side":2,"subjID":"anasofiaseguracorrea5","gender":"1","age":"10","school":"6"},{"start_time":1551801291107,"click_time":1551801292088,"finger_time":1551801291927,"fix_duration":1178.8231325101176,"trial":35,"RT":820,"MT":161,"sideResp":1,"stimulus":"img/500/equaldotanddens/L/11_Ratio_500_L_12_R_6.png","xmouse":[776,776,776,776,776,776,776,776,776,776,776,776,776,776,776,776,776,776,776,776,776,776,776,776,776,776,776,776,776,776,776,776,776,776,776,776,776,776,776,776,771,728,677,613,548,505,479,479,479,480],"ymouse":[520,520,520,520,520,520,520,520,520,520,520,520,520,520,520,520,520,520,520,520,520,520,520,520,520,520,520,520,520,520,520,520,520,520,520,520,520,520,520,520,515,455,391,320,250,197,140,124,109,91],"timestamp_mouse":[8,31,40,60,80,101,121,139,161,181,199,220,240,259,280,299,320,340,361,381,400,420,440,459,479,500,520,541,560,580,600,620,639,660,680,700,720,740,759,780,800,820,840,861,880,899,920,940,961,981],"xSR":741.5,"ySR":449.15000000000003,"xT1":424.9,"yT1":0,"xT2":1058.1,"yT2":0,"toosoon":0,"cond_shown":"equaldotanddens","ratio_trial":500,"smaller_num":"6","larger_num":"12","correct_side":1,"subjID":"anasofiaseguracorrea5","gender":"1","age":"10","school":"6"},{"start_time":1551801295646,"click_time":1551801296566,"finger_time":1551801296347,"fix_duration":1476.2030202216733,"trial":36,"RT":701,"MT":219,"sideResp":1,"stimulus":"img/500/equaldotanddens/L/8_Ratio_500_L_8_R_4.png","xmouse":[785,785,785,785,785,785,785,785,785,785,785,785,785,785,785,785,785,785,785,785,785,785,785,785,785,785,785,785,785,785,785,785,785,785,769,749,714,672,622,536,523,514,506,496,473,463,460],"ymouse":[537,537,537,537,537,537,537,537,537,537,537,537,537,537,537,537,537,537,537,537,537,537,537,537,537,537,537,537,537,537,537,537,533,525,479,442,395,349,297,208,186,166,146,132,109,100,94],"timestamp_mouse":[7,28,41,61,82,100,121,141,161,180,200,221,242,260,281,300,322,341,361,380,402,420,441,461,480,502,520,540,560,581,600,621,641,660,681,701,720,741,762,780,801,822,842,861,881,901,920],"xSR":741.5,"ySR":449.15000000000003,"xT1":424.9,"yT1":0,"xT2":1058.1,"yT2":0,"toosoon":0,"cond_shown":"equaldotanddens","ratio_trial":500,"smaller_num":"4","larger_num":"8","correct_side":1,"subjID":"anasofiaseguracorrea5","gender":"1","age":"10","school":"6"},{"start_time":1551801297579,"click_time":1551801298626,"finger_time":1551801298347,"fix_duration":250,"trial":37,"RT":768,"MT":279,"sideResp":2,"stimulus":"img/750/equaldotsize/R/3_Ratio_750_L_15_R_20.png","xmouse":[798,798,798,798,798,798,798,798,798,798,798,798,798,798,798,798,798,798,798,798,798,798,798,798,797,797,797,797,797,797,797,797,797,797,797,798,808,841,856,869,883,898,922,939,966,991,1020,1063,1081,1095,1106,1116,1141],"ymouse":[506,507,509,509,509,509,509,510,510,510,510,511,511,511,511,511,511,511,511,511,511,511,511,511,513,513,513,516,516,517,517,517,517,517,517,515,504,467,450,431,410,390,347,322,283,253,219,176,160,145,134,123,99],"timestamp_mouse":[10,29,48,68,89,108,129,147,169,188,207,228,249,269,288,308,328,347,369,388,408,428,447,468,487,507,529,548,568,588,608,628,647,668,688,708,727,748,768,787,808,829,847,867,887,908,928,948,968,989,1008,1028,1047],"xSR":741.5,"ySR":449.15000000000003,"xT1":424.9,"yT1":0,"xT2":1058.1,"yT2":0,"toosoon":0,"cond_shown":"equaldotsize","ratio_trial":750,"smaller_num":"15","larger_num":"20","correct_side":2,"subjID":"anasofiaseguracorrea5","gender":"1","age":"10","school":"6"},{"start_time":1551801300434,"click_time":1551801302108,"finger_time":1551801301807,"fix_duration":1245.6455868718365,"trial":38,"RT":1373,"MT":301,"sideResp":1,"stimulus":"img/900/randomdotsizeEA/L/2_Ratio_900_L_20_R_18.png","xmouse":[799,799,799,799,799,799,799,799,799,799,799,799,799,799,799,799,799,799,799,799,799,799,798,798,798,798,798,797,797,797,797,797,797,797,797,797,797,797,797,797,797,797,797,797,797,797,797,797,797,797,797,797,797,797,797,797,797,797,797,797,797,797,797,797,796,789,777,758,726,614,546,504,482,480,480,480,480,480,480,480,480,481,479,470],"ymouse":[510,510,510,510,510,510,510,510,510,510,510,510,510,510,510,510,510,510,510,510,510,510,510,510,510,510,510,510,510,510,510,510,510,510,510,510,510,510,510,510,510,510,510,510,510,510,510,510,510,510,510,510,510,510,510,510,510,510,510,510,510,510,510,510,510,503,489,467,432,343,293,263,241,231,219,213,205,194,187,169,157,137,105,83],"timestamp_mouse":[12,38,53,73,93,112,132,153,172,192,212,233,253,272,292,313,333,353,373,393,414,432,454,472,492,513,533,552,573,592,614,632,654,672,692,713,732,754,773,792,814,832,852,873,893,913,933,952,973,992,1012,1033,1052,1072,1093,1112,1132,1154,1174,1192,1214,1232,1252,1272,1293,1313,1332,1353,1373,1392,1412,1433,1453,1473,1493,1513,1533,1554,1574,1593,1614,1633,1653,1674],"xSR":741.5,"ySR":449.15000000000003,"xT1":424.9,"yT1":0,"xT2":1058.1,"yT2":0,"toosoon":0,"cond_shown":"randomdotsizeEA","ratio_trial":900,"smaller_num":"18","larger_num":"20","correct_side":1,"subjID":"anasofiaseguracorrea5","gender":"1","age":"10","school":"6"},{"start_time":1551801305544,"click_time":1551801306568,"finger_time":1551801306347,"fix_duration":1175.6051037624195,"trial":39,"RT":803,"MT":221,"sideResp":1,"stimulus":"img/500/equaldotsize/L/10_Ratio_500_L_4_R_2.png","xmouse":[795,795,795,795,795,795,795,795,795,795,795,795,795,795,795,795,795,795,795,795,795,795,795,795,795,795,795,795,795,795,795,795,795,795,795,795,795,794,786,757,725,692,662,635,577,553,536,524,519,514,514,513],"ymouse":[517,517,517,517,517,517,517,517,517,517,517,517,517,517,517,517,517,517,517,517,517,517,517,517,517,517,517,517,517,517,517,517,517,517,517,517,517,515,502,461,412,360,317,269,200,177,161,139,125,106,101,93],"timestamp_mouse":[8,27,43,63,83,104,122,144,163,182,203,222,244,263,283,302,323,342,363,383,402,424,443,462,483,503,524,542,563,583,602,622,644,663,683,703,722,744,763,783,803,823,843,862,882,902,924,943,963,982,1003,1024],"xSR":741.5,"ySR":449.15000000000003,"xT1":424.9,"yT1":0,"xT2":1058.1,"yT2":0,"toosoon":0,"cond_shown":"equaldotsize","ratio_trial":500,"smaller_num":"2","larger_num":"4","correct_side":1,"subjID":"anasofiaseguracorrea5","gender":"1","age":"10","school":"6"},{"start_time":1551801307554,"click_time":1551801308707,"finger_time":1551801308308,"fix_duration":265.5738694298421,"trial":40,"RT":754,"MT":399,"sideResp":2,"stimulus":"img/250/equaldotsize/R/10_Ratio_250_L_4_R_16.png","xmouse":[772,772,772,772,772,772,772,772,772,772,772,772,772,772,772,772,772,772,772,772,772,772,772,772,772,772,772,772,772,772,772,772,772,774,781,790,808,823,857,878,896,909,920,945,956,965,976,984,1005,1016,1027,1038,1049,1067,1074,1081,1088,1096],"ymouse":[490,490,490,490,490,490,490,490,490,490,490,490,490,490,490,490,490,490,490,490,490,490,490,490,490,490,490,490,490,490,490,490,490,491,484,473,452,434,392,366,344,324,308,266,246,232,212,201,179,170,160,151,142,128,120,114,108,99],"timestamp_mouse":[12,34,52,74,93,112,132,152,173,193,212,234,252,272,293,313,332,353,373,392,412,432,453,474,492,513,532,552,573,593,612,634,654,673,692,714,733,754,773,793,812,833,854,872,893,912,934,953,973,992,1014,1033,1053,1072,1093,1113,1132,1152],"xSR":741.5,"ySR":449.15000000000003,"xT1":424.9,"yT1":0,"xT2":1058.1,"yT2":0,"toosoon":0,"cond_shown":"equaldotsize","ratio_trial":250,"smaller_num":"4","larger_num":"16","correct_side":2,"subjID":"anasofiaseguracorrea5","gender":"1","age":"10","school":"6"},{"start_time":1551801309721,"click_time":1551801310925,"finger_time":1551801310367,"fix_duration":473.38927530054497,"trial":41,"RT":646,"MT":558,"sideResp":1,"stimulus":"img/250/equaldotanddens/L/2_Ratio_250_L_16_R_4.png","xmouse":[786,786,786,786,786,786,786,786,786,786,786,786,786,786,786,786,786,786,786,786,786,786,786,786,786,786,786,786,786,785,780,774,765,751,728,683,662,636,618,604,567,549,533,518,508,500,499,499,499,499,499,499,499,499,499,499,499,499,499,499,499],"ymouse":[500,500,500,500,500,500,500,500,500,500,500,500,500,500,500,500,500,500,500,500,500,500,500,500,500,500,500,500,500,500,482,468,447,425,393,322,285,249,217,198,165,152,139,125,114,103,102,102,102,102,102,102,101,101,101,101,101,101,101,101,96],"timestamp_mouse":[7,32,44,64,84,105,126,144,164,185,205,225,246,265,284,305,326,344,364,386,404,424,445,465,485,505,525,545,564,585,605,625,646,665,685,705,724,744,765,785,804,825,845,864,885,904,924,944,965,986,1005,1024,1044,1064,1085,1104,1124,1145,1165,1184,1204],"xSR":741.5,"ySR":449.15000000000003,"xT1":424.9,"yT1":0,"xT2":1058.1,"yT2":0,"toosoon":0,"cond_shown":"equaldotanddens","ratio_trial":250,"smaller_num":"4","larger_num":"16","correct_side":1,"subjID":"anasofiaseguracorrea5","gender":"1","age":"10","school":"6"},{"start_time":1551801312346,"click_time":1551801313366,"finger_time":1551801313166,"fix_duration":718.8624193968577,"trial":42,"RT":820,"MT":200,"sideResp":2,"stimulus":"img/250/equaldotsize/R/8_Ratio_250_L_1_R_4.png","xmouse":[801,801,801,801,801,801,801,801,801,801,801,801,801,801,801,801,801,801,801,801,801,801,801,801,801,801,801,801,801,801,801,801,801,801,801,801,801,801,802,814,828,850,884,920,981,1005,1026,1052,1071,1110,1123,1132],"ymouse":[508,508,508,508,508,508,508,508,508,508,508,508,508,508,508,508,508,508,508,508,508,508,508,508,508,508,508,508,508,508,508,508,508,508,508,508,508,508,508,491,469,432,385,341,270,241,215,184,164,130,114,97],"timestamp_mouse":[4,19,42,60,81,100,119,141,159,179,201,219,239,261,280,300,321,340,359,379,401,421,440,460,480,500,521,541,560,579,599,619,640,660,680,700,720,739,759,779,800,820,840,859,879,901,920,941,960,980,999,1019],"xSR":741.5,"ySR":449.15000000000003,"xT1":424.9,"yT1":0,"xT2":1058.1,"yT2":0,"toosoon":0,"cond_shown":"equaldotsize","ratio_trial":250,"smaller_num":"1","larger_num":"4","correct_side":2,"subjID":"anasofiaseguracorrea5","gender":"1","age":"10","school":"6"},{"start_time":1551801314517,"click_time":1551801315785,"finger_time":1551801315467,"fix_duration":250,"trial":43,"RT":950,"MT":318,"sideResp":1,"stimulus":"img/900/randomdotsizeEA/R/9_Ratio_900_L_18_R_20.png","xmouse":[763,763,763,763,763,764,764,764,764,764,764,764,764,764,764,764,764,764,764,764,764,764,764,764,764,764,764,764,764,764,764,764,764,764,764,764,764,765,765,765,765,765,765,765,765,758,751,738,696,666,622,607,595,584,576,568,564,561,560,560,552,545,535,522],"ymouse":[510,510,510,510,510,510,510,510,510,510,510,510,510,510,510,510,510,510,510,510,510,510,510,510,510,510,510,510,510,510,510,510,510,510,510,510,510,510,510,510,510,510,510,509,506,487,470,443,376,330,268,248,231,216,204,190,182,174,166,158,130,117,102,86],"timestamp_mouse":[10,36,48,68,88,108,130,150,168,189,209,228,250,268,288,309,330,349,368,390,409,429,448,469,488,509,528,548,569,588,608,629,648,669,689,708,728,749,770,789,809,829,848,869,889,909,929,950,968,989,1008,1028,1050,1069,1089,1108,1128,1148,1168,1189,1208,1229,1250,1268],"xSR":741.5,"ySR":449.15000000000003,"xT1":424.9,"yT1":0,"xT2":1058.1,"yT2":0,"toosoon":0,"cond_shown":"randomdotsizeEA","ratio_trial":900,"smaller_num":"18","larger_num":"20","correct_side":2,"subjID":"anasofiaseguracorrea5","gender":"1","age":"10","school":"6"},{"start_time":1551801316819,"click_time":1551801319326,"finger_time":1551801318985,"fix_duration":312.0992190129845,"trial":44,"RT":2166,"MT":341,"sideResp":2,"stimulus":"img/750/equaldotsize/R/11_Ratio_750_L_12_R_16.png","xmouse":[810,810,810,810,810,810,810,810,810,810,810,810,810,810,810,810,810,810,810,810,810,810,810,810,810,810,810,810,810,810,810,810,810,810,810,810,810,810,810,810,810,810,810,810,810,810,810,810,810,810,810,810,810,810,810,810,810,810,810,810,809,808,806,806,806,806,806,806,806,805,804,801,800,800,800,800,800,800,800,800,800,800,800,800,800,800,800,800,800,800,800,800,800,800,800,800,800,800,800,800,800,802,802,802,803,812,821,834,848,856,877,895,917,963,998,1045,1058,1068,1074,1077,1085,1092,1102,1118,1127,1141],"ymouse":[486,486,486,486,487,487,487,487,487,487,487,487,487,487,487,487,487,487,487,487,487,487,487,487,487,487,487,487,487,487,487,487,487,487,487,487,487,487,487,487,487,487,487,487,487,487,487,487,487,487,487,487,487,487,487,487,487,487,487,487,488,489,491,491,491,491,491,491,491,491,492,495,496,496,496,496,496,496,496,496,496,496,496,496,496,496,496,496,496,496,496,496,496,496,496,496,496,496,496,496,496,496,496,496,496,491,486,481,477,474,459,445,426,388,361,311,291,269,247,226,199,188,174,143,119,61],"timestamp_mouse":[7,36,46,67,86,108,128,147,167,187,206,228,246,266,288,308,327,347,366,387,406,426,446,467,486,506,528,546,567,587,606,626,647,666,686,707,728,747,767,787,806,827,846,866,886,907,926,947,967,988,1006,1027,1047,1067,1086,1107,1127,1148,1167,1187,1206,1226,1247,1266,1286,1307,1327,1347,1368,1387,1406,1428,1448,1466,1486,1506,1527,1547,1568,1586,1606,1627,1648,1667,1686,1707,1727,1747,1766,1788,1808,1827,1846,1866,1888,1907,1926,1948,1968,1987,2007,2028,2047,2066,2086,2107,2126,2146,2166,2188,2207,2226,2246,2266,2288,2307,2327,2347,2367,2386,2407,2427,2446,2466,2487,2506],"xSR":741.5,"ySR":449.15000000000003,"xT1":424.9,"yT1":0,"xT2":1058.1,"yT2":0,"toosoon":0,"cond_shown":"equaldotsize","ratio_trial":750,"smaller_num":"12","larger_num":"16","correct_side":2,"subjID":"anasofiaseguracorrea5","gender":"1","age":"10","school":"6"},{"start_time":1551801321131,"click_time":1551801322885,"finger_time":1551801321966,"fix_duration":1144.3610673117782,"trial":45,"RT":835,"MT":919,"sideResp":2,"stimulus":"img/900/randomdotsizeEA/L/2_Ratio_900_L_20_R_18.png","xmouse":[815,815,815,815,815,815,813,813,811,811,811,811,811,811,811,811,811,811,811,811,811,811,811,811,811,811,811,811,811,811,811,811,811,811,811,811,811,811,810,801,787,762,731,706,699,699,699,699,699,699,699,701,702,703,704,705,706,706,706,706,706,707,709,709,714,716,717,721,725,748,774,820,880,942,1058,1102,1128,1152,1164,1185,1191,1195,1195,1191,1189,1185,1174,1145],"ymouse":[482,482,482,482,482,482,483,483,484,484,484,484,484,484,484,484,484,484,484,484,484,484,484,484,484,484,484,484,484,484,484,484,484,484,484,484,484,484,484,474,455,425,387,358,346,345,344,344,344,344,344,345,346,346,347,350,352,355,360,373,379,386,395,401,411,415,417,420,422,425,425,417,399,373,295,255,218,170,136,82,61,43,29,25,24,24,27,34],"timestamp_mouse":[14,38,56,75,94,114,135,155,174,195,214,235,254,276,295,314,335,354,375,394,415,435,454,475,495,515,536,554,574,594,615,636,656,675,694,715,735,754,774,794,815,835,854,874,895,915,935,955,975,994,1014,1035,1054,1074,1094,1115,1134,1156,1175,1195,1215,1234,1255,1276,1295,1315,1335,1355,1375,1394,1414,1436,1456,1475,1494,1515,1536,1556,1576,1595,1614,1634,1654,1674,1694,1715,1735,1754],"xSR":741.5,"ySR":449.15000000000003,"xT1":424.9,"yT1":0,"xT2":1058.1,"yT2":0,"toosoon":0,"cond_shown":"randomdotsizeEA","ratio_trial":900,"smaller_num":"18","larger_num":"20","correct_side":1,"subjID":"anasofiaseguracorrea5","gender":"1","age":"10","school":"6"},{"start_time":1551801324017,"click_time":1551801326246,"finger_time":1551801326105,"fix_duration":250,"trial":46,"RT":2088,"MT":141,"sideResp":1,"stimulus":"img/500/equaldotanddens/L/13_Ratio_500_L_12_R_6.png","xmouse":[807,807,807,807,807,807,807,807,807,807,807,807,807,807,807,807,807,807,807,807,807,807,807,807,807,807,807,807,807,807,807,807,807,807,807,807,807,807,807,807,807,807,807,807,807,807,807,807,807,807,807,807,807,807,807,807,807,807,807,807,807,807,807,807,807,807,807,807,807,807,807,807,807,807,807,807,807,807,807,807,807,807,806,806,806,806,806,806,806,805,804,803,803,803,803,803,803,803,801,800,797,793,788,775,761,722,697,666,634,597,528,507],"ymouse":[502,502,502,502,502,502,502,502,502,502,502,502,502,502,502,502,502,502,502,502,502,502,502,502,502,502,502,502,502,502,502,502,502,502,502,502,502,502,502,502,502,502,502,502,502,502,502,502,502,502,502,502,502,502,502,502,502,502,502,502,502,502,502,502,502,502,502,502,502,502,502,502,502,502,502,502,502,502,502,502,502,502,503,503,503,503,503,503,503,503,503,503,503,503,503,503,503,503,503,503,501,497,487,455,423,343,301,256,217,174,89,58],"timestamp_mouse":[16,38,48,69,89,109,129,149,170,188,210,229,249,268,289,309,328,348,369,388,408,430,448,469,489,508,529,550,568,588,608,628,649,669,689,708,730,749,768,788,808,829,849,869,889,908,929,950,969,990,1009,1029,1049,1069,1088,1108,1130,1148,1168,1189,1208,1230,1249,1268,1288,1309,1328,1348,1369,1388,1409,1428,1450,1470,1488,1510,1529,1549,1568,1590,1608,1628,1649,1669,1689,1708,1729,1750,1768,1789,1809,1829,1849,1868,1889,1908,1928,1948,1968,1988,2008,2029,2049,2070,2088,2109,2128,2148,2169,2189,2208,2229],"xSR":741.5,"ySR":449.15000000000003,"xT1":424.9,"yT1":0,"xT2":1058.1,"yT2":0,"toosoon":0,"cond_shown":"equaldotanddens","ratio_trial":500,"smaller_num":"6","larger_num":"12","correct_side":1,"subjID":"anasofiaseguracorrea5","gender":"1","age":"10","school":"6"},{"start_time":1551801329326,"click_time":1551801330367,"finger_time":1551801330145,"fix_duration":999.9777702719588,"trial":47,"RT":819,"MT":222,"sideResp":2,"stimulus":"img/900/equaldotsize/R/5_Ratio_900_L_9_R_10.png","xmouse":[804,804,804,804,804,804,803,803,803,803,803,803,803,803,803,803,803,803,803,803,803,803,803,803,803,803,803,803,803,803,803,803,803,803,803,803,803,803,803,803,822,858,896,927,948,983,1001,1006,1020,1030,1050,1058,1062],"ymouse":[519,519,519,519,519,519,519,519,519,520,520,520,520,520,520,520,520,520,520,520,520,520,520,520,520,520,520,520,520,520,520,520,520,520,520,520,520,520,520,520,500,467,426,382,350,285,232,215,170,150,114,100,90],"timestamp_mouse":[2,32,40,61,80,101,120,139,159,180,201,220,241,259,279,300,320,339,361,380,400,421,439,461,479,499,519,540,559,580,600,620,640,661,680,699,721,739,759,780,799,819,840,860,879,899,920,939,959,980,1001,1019,1041],"xSR":741.5,"ySR":449.15000000000003,"xT1":424.9,"yT1":0,"xT2":1058.1,"yT2":0,"toosoon":0,"cond_shown":"equaldotsize","ratio_trial":900,"smaller_num":"9","larger_num":"10","correct_side":2,"subjID":"anasofiaseguracorrea5","gender":"1","age":"10","school":"6"},{"start_time":1551801331397,"click_time":1551801333665,"finger_time":1551801333325,"fix_duration":250,"trial":48,"RT":1928,"MT":340,"sideResp":2,"stimulus":"img/750/equaldotsize/R/15_Ratio_750_L_9_R_12.png","xmouse":[783,783,783,783,782,782,782,782,782,782,782,782,782,782,782,782,781,780,779,778,777,777,776,776,775,775,775,775,775,775,775,775,775,775,775,775,775,775,775,775,775,775,775,775,775,775,775,775,775,775,775,775,775,775,775,775,775,775,775,775,775,775,775,775,775,775,775,775,775,775,775,775,775,775,775,775,775,775,775,775,775,775,775,775,776,777,782,782,783,783,784,785,786,789,801,815,874,924,985,1048,1110,1184,1195,1197,1197,1197,1197,1198,1198,1198,1198,1187,1168,1143],"ymouse":[509,509,509,509,511,511,511,511,511,511,511,511,511,511,511,511,512,514,515,518,518,520,521,521,522,522,522,522,522,522,522,522,522,522,522,522,522,522,522,522,522,522,522,522,522,522,522,522,522,522,522,522,522,522,522,522,522,522,522,522,522,522,522,522,522,522,522,522,522,522,522,522,522,522,522,522,522,522,522,522,522,522,522,522,522,522,522,522,522,522,522,521,520,517,508,496,424,365,295,220,145,57,40,34,34,34,32,30,28,28,28,29,39,51],"timestamp_mouse":[8,28,50,68,90,108,128,149,168,189,208,228,250,269,288,309,329,348,370,388,408,429,449,469,489,508,529,548,568,589,609,629,648,669,689,710,728,748,768,789,808,829,848,868,889,910,928,948,969,988,1008,1028,1048,1069,1088,1108,1129,1148,1168,1189,1209,1228,1250,1269,1289,1309,1328,1348,1370,1388,1408,1429,1448,1470,1488,1508,1529,1548,1568,1588,1610,1628,1649,1669,1688,1708,1729,1749,1770,1788,1808,1828,1848,1869,1889,1908,1928,1949,1968,1989,2008,2028,2049,2068,2088,2109,2129,2148,2169,2189,2210,2229,2249,2268],"xSR":741.5,"ySR":449.15000000000003,"xT1":424.9,"yT1":0,"xT2":1058.1,"yT2":0,"toosoon":0,"cond_shown":"equaldotsize","ratio_trial":750,"smaller_num":"9","larger_num":"12","correct_side":2,"subjID":"anasofiaseguracorrea5","gender":"1","age":"10","school":"6"},{"start_time":1551801335086,"click_time":1551801335986,"finger_time":1551801335766,"fix_duration":758.8212926992228,"trial":49,"RT":680,"MT":220,"sideResp":1,"stimulus":"img/500/equaldotanddens/L/11_Ratio_500_L_12_R_6.png","xmouse":[809,809,809,809,809,809,809,809,809,809,809,809,809,809,809,809,809,809,809,809,809,809,809,809,809,809,809,809,809,809,809,808,797,783,762,738,724,703,697,689,662,634,565,538,519,497],"ymouse":[506,506,506,506,506,506,506,506,506,506,506,506,506,506,506,506,506,506,506,506,506,506,506,506,506,506,506,506,506,506,506,506,488,463,433,404,384,354,338,319,279,246,175,140,108,76],"timestamp_mouse":[7,20,40,59,79,99,121,139,160,179,201,220,239,260,280,300,319,340,359,380,400,419,440,459,480,499,519,540,559,579,600,619,639,659,680,700,719,739,759,781,801,820,840,859,879,900],"xSR":741.5,"ySR":449.15000000000003,"xT1":424.9,"yT1":0,"xT2":1058.1,"yT2":0,"toosoon":0,"cond_shown":"equaldotanddens","ratio_trial":500,"smaller_num":"6","larger_num":"12","correct_side":1,"subjID":"anasofiaseguracorrea5","gender":"1","age":"10","school":"6"},{"start_time":1551801337058,"click_time":1551801337906,"finger_time":1551801337606,"fix_duration":250,"trial":50,"RT":548,"MT":300,"sideResp":2,"stimulus":"img/250/equaldotanddens/R/9_Ratio_250_L_3_R_12.png","xmouse":[760,760,760,760,760,760,760,760,760,760,760,760,760,760,760,760,760,760,760,760,760,760,760,768,778,791,811,831,867,891,918,963,1000,1051,1071,1086,1095,1101,1104,1106,1107,1109,1110],"ymouse":[496,496,496,496,496,496,496,496,496,496,496,496,496,496,496,496,496,496,496,496,496,496,497,493,485,473,459,441,412,391,368,329,300,244,220,199,182,165,139,129,117,108,99],"timestamp_mouse":[9,30,48,68,89,108,128,148,168,187,207,229,247,267,289,307,327,347,368,388,408,427,447,467,487,508,528,548,567,588,608,629,648,668,687,709,728,747,768,788,807,829,848],"xSR":741.5,"ySR":449.15000000000003,"xT1":424.9,"yT1":0,"xT2":1058.1,"yT2":0,"toosoon":0,"cond_shown":"equaldotanddens","ratio_trial":250,"smaller_num":"3","larger_num":"12","correct_side":2,"subjID":"anasofiaseguracorrea5","gender":"1","age":"10","school":"6"},{"start_time":1551801339502,"click_time":1551801340525,"finger_time":1551801340426,"fix_duration":915.9198772832215,"trial":51,"RT":924,"MT":99,"sideResp":2,"stimulus":"img/900/randomdotsizeEA/L/8_Ratio_900_L_20_R_18.png","xmouse":[787,787,787,787,787,787,787,787,787,787,787,787,787,787,787,787,787,787,787,787,787,787,787,787,787,787,787,787,787,787,787,787,787,787,787,787,787,787,787,787,787,795,801,805,811,820,849,876,913,988,1042,1157],"ymouse":[518,518,518,518,518,518,518,518,518,518,518,518,518,518,518,518,518,518,518,518,518,518,518,518,518,518,518,518,518,518,518,518,518,518,518,518,518,518,518,518,518,508,497,488,477,463,419,380,325,222,150,11],"timestamp_mouse":[9,35,43,64,85,104,123,143,165,183,204,225,244,263,283,303,324,344,365,384,403,424,443,464,485,505,524,545,564,585,603,623,644,665,683,704,724,743,763,785,803,823,843,865,884,904,924,944,964,984,1004,1023],"xSR":741.5,"ySR":449.15000000000003,"xT1":424.9,"yT1":0,"xT2":1058.1,"yT2":0,"toosoon":0,"cond_shown":"randomdotsizeEA","ratio_trial":900,"smaller_num":"18","larger_num":"20","correct_side":1,"subjID":"anasofiaseguracorrea5","gender":"1","age":"10","school":"6"},{"start_time":1551801342958,"click_time":1551801344687,"finger_time":1551801344145,"fix_duration":1132.8830934844739,"trial":52,"RT":1187,"MT":542,"sideResp":2,"stimulus":"img/900/equaldotsize/R/3_Ratio_900_L_9_R_10.png","xmouse":[828,828,828,828,828,828,830,830,830,830,830,830,830,830,830,830,830,830,830,830,830,830,830,830,829,829,828,826,823,823,823,823,823,823,823,823,823,821,820,820,819,819,819,819,819,819,819,819,819,819,819,819,819,819,819,819,819,819,832,849,871,915,963,1064,1101,1139,1148,1159,1163,1164,1166,1170,1178,1193,1194,1194,1194,1194,1194,1194,1194,1194,1194,1194,1172,1162,1156],"ymouse":[481,481,481,481,481,481,479,479,479,479,479,479,479,479,479,479,479,479,479,479,479,479,479,479,480,481,483,484,486,486,486,486,486,486,486,486,486,487,488,488,488,488,488,488,488,488,488,488,488,488,488,488,488,488,488,488,488,487,477,467,453,422,384,281,229,165,149,122,110,109,105,95,77,20,6,6,6,6,6,6,6,6,6,6,1,12,22],"timestamp_mouse":[9,29,48,68,87,107,127,148,167,187,208,227,248,267,289,307,327,349,368,387,408,427,448,467,488,507,527,548,567,587,608,628,648,667,689,707,727,748,768,787,807,827,847,868,889,907,927,947,967,989,1007,1027,1048,1067,1087,1109,1127,1147,1168,1187,1208,1227,1247,1267,1288,1307,1327,1348,1367,1387,1408,1428,1449,1467,1487,1507,1529,1548,1568,1588,1608,1628,1649,1668,1687,1708,1729],"xSR":741.5,"ySR":449.15000000000003,"xT1":424.9,"yT1":0,"xT2":1058.1,"yT2":0,"toosoon":0,"cond_shown":"equaldotsize","ratio_trial":900,"smaller_num":"9","larger_num":"10","correct_side":2,"subjID":"anasofiaseguracorrea5","gender":"1","age":"10","school":"6"},{"start_time":1551801346296,"click_time":1551801347145,"finger_time":1551801346925,"fix_duration":630.1444553593179,"trial":53,"RT":629,"MT":220,"sideResp":1,"stimulus":"img/500/equaldotanddens/L/13_Ratio_500_L_12_R_6.png","xmouse":[794,794,794,794,794,794,794,794,794,794,794,794,794,794,794,794,794,794,794,794,794,794,794,794,794,794,794,794,795,795,793,762,727,696,675,659,638,620,601,570,550,527,523],"ymouse":[491,491,491,491,491,491,491,491,491,491,491,491,491,491,491,491,491,491,491,491,491,491,491,491,491,491,491,491,490,486,475,418,368,327,289,261,216,191,171,141,122,94,87],"timestamp_mouse":[9,29,51,69,89,110,130,150,170,189,209,230,249,270,291,311,330,350,370,390,410,431,450,470,489,510,530,549,569,590,610,629,650,670,689,709,730,750,770,789,810,829,849],"xSR":741.5,"ySR":449.15000000000003,"xT1":424.9,"yT1":0,"xT2":1058.1,"yT2":0,"toosoon":0,"cond_shown":"equaldotanddens","ratio_trial":500,"smaller_num":"6","larger_num":"12","correct_side":1,"subjID":"anasofiaseguracorrea5","gender":"1","age":"10","school":"6"},{"start_time":1551801349484,"click_time":1551801350805,"finger_time":1551801350247,"fix_duration":1375.0843856170231,"trial":54,"RT":763,"MT":558,"sideResp":2,"stimulus":"img/750/equaldotanddens/R/3_Ratio_750_L_15_R_20.png","xmouse":[795,795,795,794,794,794,794,794,794,794,794,794,794,794,794,794,794,794,794,794,794,794,794,794,794,794,794,794,794,794,792,792,792,792,792,792,793,816,842,906,926,936,948,951,953,957,963,983,991,995,998,1004,1015,1021,1028,1033,1034,1034,1034,1034,1035,1037,1051,1055,1058,1058,1059],"ymouse":[478,478,479,483,484,484,484,484,484,484,484,484,484,484,484,484,484,484,484,484,484,484,484,484,484,484,484,484,484,484,487,487,487,487,487,487,486,458,430,360,324,292,236,209,185,160,134,100,87,79,74,68,63,59,55,54,52,52,52,52,52,52,49,48,48,48,48],"timestamp_mouse":[8,21,42,61,83,103,121,141,162,181,202,223,241,262,281,301,322,341,362,381,401,422,442,461,483,502,521,542,561,581,603,621,642,661,681,703,722,742,763,781,802,822,842,862,881,901,921,941,962,982,1001,1022,1042,1061,1081,1102,1122,1142,1161,1182,1202,1222,1241,1261,1283,1302,1321],"xSR":741.5,"ySR":449.15000000000003,"xT1":424.9,"yT1":0,"xT2":1058.1,"yT2":0,"toosoon":0,"cond_shown":"equaldotanddens","ratio_trial":750,"smaller_num":"15","larger_num":"20","correct_side":2,"subjID":"anasofiaseguracorrea5","gender":"1","age":"10","school":"6"},{"start_time":1551801353737,"click_time":1551801355425,"finger_time":1551801355025,"fix_duration":250,"trial":55,"RT":1288,"MT":400,"sideResp":1,"stimulus":"img/900/equaldotanddens/L/1_Ratio_900_L_10_R_9.png","xmouse":[756,757,759,760,765,768,770,770,770,770,770,770,771,771,771,771,771,771,771,772,772,772,772,772,772,772,772,773,774,776,777,777,777,777,782,785,794,802,803,803,803,803,803,803,803,803,803,803,803,803,803,803,803,803,803,803,803,803,803,803,803,803,803,799,787,773,720,666,603,559,553,550,548,544,540,538,538,538,538,538,538,537,536,534,522],"ymouse":[488,488,489,489,489,490,491,491,491,491,491,491,491,491,491,491,491,491,491,491,491,491,491,491,491,491,491,493,495,501,502,502,502,502,500,499,492,487,486,486,486,486,486,486,486,486,486,486,486,486,486,486,486,486,486,486,486,486,486,486,486,482,479,469,438,407,324,255,191,131,115,103,97,90,85,83,83,83,83,83,83,82,81,80,76],"timestamp_mouse":[12,33,48,68,88,108,130,149,169,189,208,228,248,268,288,308,330,348,368,389,408,429,449,470,489,508,528,549,568,588,608,628,649,669,688,709,729,749,768,789,808,829,849,868,889,908,929,949,969,988,1010,1029,1049,1068,1089,1110,1128,1149,1168,1189,1210,1229,1249,1270,1288,1309,1328,1348,1369,1389,1408,1428,1449,1470,1488,1510,1530,1550,1569,1588,1608,1629,1648,1668,1688],"xSR":741.5,"ySR":449.15000000000003,"xT1":424.9,"yT1":0,"xT2":1058.1,"yT2":0,"toosoon":0,"cond_shown":"equaldotanddens","ratio_trial":900,"smaller_num":"9","larger_num":"10","correct_side":1,"subjID":"anasofiaseguracorrea5","gender":"1","age":"10","school":"6"},{"start_time":1551801357746,"click_time":1551801358806,"finger_time":1551801358425,"fix_duration":1299.7997557673386,"trial":56,"RT":679,"MT":381,"sideResp":1,"stimulus":"img/750/equaldotanddens/L/6_Ratio_750_L_24_R_18.png","xmouse":[767,767,767,767,767,767,767,767,767,767,767,767,767,767,767,767,767,767,767,767,767,769,769,769,770,770,770,770,770,770,770,770,769,766,749,733,705,661,628,566,554,553,553,553,554,554,554,554,554,546,540,534,528,521],"ymouse":[494,494,494,494,494,494,494,494,494,494,494,494,494,494,494,494,494,494,494,494,494,494,493,490,485,484,484,484,484,484,482,480,478,471,442,413,363,274,199,106,91,85,83,81,78,77,77,76,75,70,69,67,66,65],"timestamp_mouse":[1,29,40,61,81,100,119,141,161,179,201,220,240,259,280,301,320,341,359,379,399,419,439,460,479,500,519,541,561,579,599,620,640,659,679,700,719,740,760,779,799,821,839,859,879,899,919,940,961,979,999,1019,1039,1060],"xSR":741.5,"ySR":449.15000000000003,"xT1":424.9,"yT1":0,"xT2":1058.1,"yT2":0,"toosoon":0,"cond_shown":"equaldotanddens","ratio_trial":750,"smaller_num":"18","larger_num":"24","correct_side":1,"subjID":"anasofiaseguracorrea5","gender":"1","age":"10","school":"6"},{"start_time":1551801360331,"click_time":1551801361606,"finger_time":1551801361086,"fix_duration":705.0818537083006,"trial":57,"RT":755,"MT":520,"sideResp":2,"stimulus":"img/250/equaldotanddens/R/6_Ratio_250_L_6_R_24.png","xmouse":[775,775,775,775,775,775,775,775,775,775,775,775,775,775,775,775,775,775,775,775,775,775,775,775,774,774,774,774,774,774,774,774,774,774,774,780,794,880,985,1199,1272,1305,1319,1324,1326,1326,1326,1323,1317,1291,1267,1235,1210,1195,1171,1166,1166,1166,1166,1165,1165,1164,1162,1157],"ymouse":[484,484,484,484,484,484,484,484,484,484,484,484,484,484,484,484,484,484,484,484,484,484,484,484,484,484,484,484,484,484,484,484,484,484,484,480,468,408,346,221,170,140,123,111,103,102,102,101,100,89,79,66,58,53,48,47,47,47,47,47,47,47,47,47],"timestamp_mouse":[15,43,55,74,96,115,136,155,175,195,216,235,255,274,294,314,335,354,375,394,415,434,454,475,495,515,535,555,574,594,616,635,654,676,694,714,735,755,775,795,814,834,854,876,894,914,934,956,975,995,1014,1034,1055,1074,1094,1115,1135,1155,1176,1194,1214,1234,1255,1275],"xSR":741.5,"ySR":449.15000000000003,"xT1":424.9,"yT1":0,"xT2":1058.1,"yT2":0,"toosoon":0,"cond_shown":"equaldotanddens","ratio_trial":250,"smaller_num":"6","larger_num":"24","correct_side":2,"subjID":"anasofiaseguracorrea5","gender":"1","age":"10","school":"6"},{"start_time":1551801363739,"click_time":1551801365285,"finger_time":1551801364666,"fix_duration":1232.7201011715274,"trial":58,"RT":927,"MT":619,"sideResp":1,"stimulus":"img/900/equaldotsize/L/10_Ratio_900_L_20_R_18.png","xmouse":[786,786,786,786,786,786,786,786,786,786,786,786,786,786,786,786,786,786,786,786,786,786,786,786,786,786,786,786,786,786,786,786,786,786,786,786,786,786,786,786,786,787,787,786,779,776,773,769,767,764,764,764,764,764,755,748,731,723,706,687,678,670,657,641,586,563,543,524,519,514,514,514,514,514,514,514,514,512],"ymouse":[493,493,493,493,493,493,493,493,493,493,493,493,493,493,493,493,493,493,493,493,493,493,493,493,493,493,493,493,493,493,493,493,493,493,493,493,493,493,493,493,493,491,488,481,462,454,445,437,432,427,427,427,427,426,412,400,373,364,339,305,287,267,248,227,178,161,144,129,123,115,115,115,115,115,114,108,107,99],"timestamp_mouse":[11,32,46,67,87,107,126,147,168,186,208,228,246,267,287,307,328,347,368,387,408,426,448,466,486,508,527,547,566,587,607,626,647,667,687,708,727,747,767,786,807,827,846,868,886,906,927,946,967,986,1007,1027,1046,1066,1086,1106,1126,1147,1167,1186,1207,1226,1246,1266,1286,1307,1326,1346,1367,1386,1407,1427,1446,1467,1487,1508,1527,1546],"xSR":741.5,"ySR":449.15000000000003,"xT1":424.9,"yT1":0,"xT2":1058.1,"yT2":0,"toosoon":0,"cond_shown":"equaldotsize","ratio_trial":900,"smaller_num":"18","larger_num":"20","correct_side":1,"subjID":"anasofiaseguracorrea5","gender":"1","age":"10","school":"6"},{"start_time":1551801367067,"click_time":1551801368345,"finger_time":1551801367826,"fix_duration":1001.7948752312205,"trial":59,"RT":759,"MT":519,"sideResp":2,"stimulus":"img/900/equaldotsize/R/7_Ratio_900_L_9_R_10.png","xmouse":[800,800,800,800,800,800,800,800,800,800,800,800,800,800,800,800,800,800,800,800,800,800,800,800,800,800,800,800,800,800,800,800,800,800,800,800,804,843,871,896,918,931,959,973,990,1006,1021,1037,1043,1046,1052,1052,1064,1069,1074,1079,1082,1086,1087,1087,1087,1087,1089,1091],"ymouse":[513,513,513,513,513,513,513,513,513,513,513,513,513,513,513,513,513,513,513,513,513,513,513,513,513,513,513,513,513,513,513,513,513,513,513,511,506,469,442,416,383,358,302,283,266,250,237,210,199,191,172,168,147,140,133,125,120,112,111,110,109,108,103,99],"timestamp_mouse":[19,39,58,79,100,118,139,158,180,198,220,238,260,278,299,320,339,359,380,398,418,438,458,478,500,518,539,558,580,598,619,638,658,679,699,718,738,759,779,799,818,839,859,878,899,919,939,958,979,998,1018,1039,1059,1078,1099,1119,1138,1159,1178,1199,1219,1238,1258,1278],"xSR":741.5,"ySR":449.15000000000003,"xT1":424.9,"yT1":0,"xT2":1058.1,"yT2":0,"toosoon":0,"cond_shown":"equaldotsize","ratio_trial":900,"smaller_num":"9","larger_num":"10","correct_side":2,"subjID":"anasofiaseguracorrea5","gender":"1","age":"10","school":"6"},{"start_time":1551801370228,"click_time":1551801371425,"finger_time":1551801371065,"fix_duration":901.1015081709312,"trial":60,"RT":837,"MT":360,"sideResp":2,"stimulus":"img/750/equaldotanddens/R/3_Ratio_750_L_15_R_20.png","xmouse":[811,811,811,811,811,811,811,811,811,811,811,811,811,811,811,811,811,811,811,811,811,811,811,811,811,811,811,811,811,811,811,811,811,811,811,811,811,811,811,811,826,875,957,1014,1082,1099,1110,1117,1127,1145,1150,1153,1158,1161,1162,1162,1162,1162,1160,1152],"ymouse":[488,488,488,488,488,488,488,488,488,488,488,488,488,488,488,488,488,488,488,488,488,488,488,488,488,488,488,488,488,488,488,488,488,488,488,488,488,488,488,488,480,461,424,399,342,311,282,257,233,188,165,141,112,98,84,81,80,79,79,76],"timestamp_mouse":[28,39,59,79,98,118,138,158,177,198,217,239,258,277,298,318,337,358,378,397,418,438,459,478,497,518,537,557,578,598,618,638,658,677,697,717,738,758,778,797,818,837,857,877,898,917,937,957,977,997,1017,1038,1059,1078,1097,1117,1137,1158,1179,1197],"xSR":741.5,"ySR":449.15000000000003,"xT1":424.9,"yT1":0,"xT2":1058.1,"yT2":0,"toosoon":0,"cond_shown":"equaldotanddens","ratio_trial":750,"smaller_num":"15","larger_num":"20","correct_side":2,"subjID":"anasofiaseguracorrea5","gender":"1","age":"10","school":"6"},{"start_time":1551801374434,"click_time":1551801375366,"finger_time":1551801375085,"fix_duration":885.7687689572181,"trial":61,"RT":651,"MT":281,"sideResp":1,"stimulus":"img/900/equaldotanddens/R/7_Ratio_900_L_9_R_10.png","xmouse":[775,775,775,775,775,775,775,775,775,775,775,775,775,775,775,775,775,775,775,775,775,775,775,775,775,775,775,775,775,775,762,757,731,702,646,617,583,556,538,527,525,523,517,514,514,514,514],"ymouse":[504,504,504,504,504,504,504,504,504,504,504,504,504,504,504,504,504,504,504,504,504,504,504,504,504,504,504,504,504,504,490,483,453,419,337,288,244,207,184,160,151,144,132,126,115,102,88],"timestamp_mouse":[11,34,51,71,92,111,132,151,171,193,212,231,251,271,292,312,331,351,373,391,411,432,451,471,491,513,531,551,571,591,611,632,651,672,692,711,731,751,771,791,811,832,851,871,891,911,932],"xSR":741.5,"ySR":449.15000000000003,"xT1":424.9,"yT1":0,"xT2":1058.1,"yT2":0,"toosoon":0,"cond_shown":"equaldotanddens","ratio_trial":900,"smaller_num":"9","larger_num":"10","correct_side":2,"subjID":"anasofiaseguracorrea5","gender":"1","age":"10","school":"6"},{"start_time":1551801377543,"click_time":1551801379125,"finger_time":1551801378686,"fix_duration":1315.6634906260633,"trial":62,"RT":1143,"MT":439,"sideResp":1,"stimulus":"img/900/randomdotsizeEA/R/13_Ratio_900_L_18_R_20.png","xmouse":[789,789,789,789,789,789,789,789,789,789,789,789,789,789,789,789,789,789,789,789,789,789,789,789,789,789,789,789,789,789,789,789,789,789,789,789,789,789,789,789,789,789,789,792,808,817,820,821,821,821,821,821,821,821,821,822,823,824,824,824,824,824,823,820,816,816,816,816,816,814,810,806,802,795,772,755,723,680,591,445],"ymouse":[495,495,495,495,495,495,495,495,495,495,495,495,495,495,495,495,495,495,495,495,495,495,495,495,495,495,495,495,495,495,495,495,495,495,495,495,495,495,495,495,495,495,495,493,476,465,460,458,458,458,458,458,458,458,458,455,450,447,447,446,446,446,447,449,452,452,452,452,452,452,454,456,456,456,435,407,348,276,156,27],"timestamp_mouse":[7,29,43,62,82,102,123,142,162,182,203,222,243,262,282,302,323,342,362,382,403,422,444,462,482,502,522,544,562,582,603,623,642,662,683,704,723,742,763,782,802,822,842,862,882,902,923,943,962,982,1003,1024,1043,1062,1083,1102,1122,1143,1162,1183,1204,1222,1243,1262,1282,1304,1324,1343,1362,1382,1402,1423,1443,1462,1482,1502,1522,1543,1562,1582],"xSR":741.5,"ySR":449.15000000000003,"xT1":424.9,"yT1":0,"xT2":1058.1,"yT2":0,"toosoon":0,"cond_shown":"randomdotsizeEA","ratio_trial":900,"smaller_num":"18","larger_num":"20","correct_side":2,"subjID":"anasofiaseguracorrea5","gender":"1","age":"10","school":"6"},{"start_time":1551801380097,"click_time":1551801381605,"finger_time":1551801381385,"fix_duration":250,"trial":63,"RT":1288,"MT":220,"sideResp":2,"stimulus":"img/900/equaldotsize/R/9_Ratio_900_L_18_R_20.png","xmouse":[801,800,799,798,798,798,798,798,798,798,798,798,798,798,798,798,798,798,798,796,795,795,795,795,795,795,795,795,795,795,795,795,795,795,795,795,795,795,795,795,795,795,795,795,795,795,795,795,795,795,795,795,795,795,795,795,795,795,795,795,795,805,817,835,859,880,906,920,938,983,1009,1034,1041,1047,1053,1060],"ymouse":[484,485,488,489,489,489,489,489,489,489,489,489,489,489,489,489,489,489,490,491,492,492,493,493,493,493,493,493,493,493,493,493,493,493,493,493,493,493,493,493,493,493,493,493,493,493,493,493,493,493,493,493,493,493,493,493,494,494,494,494,494,487,476,460,438,416,380,360,336,272,227,152,117,92,72,60],"timestamp_mouse":[11,29,48,68,88,110,129,148,170,188,210,229,248,269,289,310,328,349,368,388,408,429,448,469,490,508,528,548,568,588,608,629,648,668,689,708,728,748,769,788,809,828,849,868,889,909,929,949,969,988,1010,1028,1048,1070,1089,1109,1129,1148,1168,1188,1208,1228,1248,1268,1288,1309,1328,1349,1369,1388,1408,1429,1448,1468,1489,1508],"xSR":741.5,"ySR":449.15000000000003,"xT1":424.9,"yT1":0,"xT2":1058.1,"yT2":0,"toosoon":0,"cond_shown":"equaldotsize","ratio_trial":900,"smaller_num":"18","larger_num":"20","correct_side":2,"subjID":"anasofiaseguracorrea5","gender":"1","age":"10","school":"6"},{"start_time":1551801383078,"click_time":1551801384306,"finger_time":1551801383846,"fix_duration":692.9645277190554,"trial":64,"RT":768,"MT":460,"sideResp":1,"stimulus":"img/750/equaldotanddens/L/13_Ratio_750_L_8_R_6.png","xmouse":[775,775,775,775,775,775,775,775,774,774,774,774,774,774,774,774,774,774,774,774,774,774,774,774,774,774,774,774,774,774,774,774,774,774,774,775,777,779,776,750,725,691,636,615,599,587,576,559,550,543,536,535,533,533,533,533,533,533,533,533,531,523],"ymouse":[510,510,510,510,510,510,510,510,513,515,516,516,516,516,516,516,516,516,516,516,516,516,516,516,516,516,516,516,516,516,516,516,516,516,516,510,504,466,440,376,329,284,222,197,175,155,137,106,93,79,60,53,48,48,48,48,48,48,48,48,48,48],"timestamp_mouse":[8,35,47,69,87,107,127,147,167,187,208,227,247,267,289,308,328,347,367,388,409,428,447,467,488,507,529,547,568,588,607,627,647,669,688,707,728,747,768,787,807,828,848,867,887,907,928,947,967,988,1009,1028,1047,1067,1088,1109,1128,1147,1167,1187,1208,1228],"xSR":741.5,"ySR":449.15000000000003,"xT1":424.9,"yT1":0,"xT2":1058.1,"yT2":0,"toosoon":0,"cond_shown":"equaldotanddens","ratio_trial":750,"smaller_num":"6","larger_num":"8","correct_side":1,"subjID":"anasofiaseguracorrea5","gender":"1","age":"10","school":"6"},{"start_time":1551801386549,"click_time":1551801387965,"finger_time":1551801387446,"fix_duration":1242.513065527053,"trial":65,"RT":897,"MT":519,"sideResp":2,"stimulus":"img/900/randomdotsizeEA/R/3_Ratio_900_L_9_R_10.png","xmouse":[796,796,796,796,796,796,796,796,796,796,796,796,796,796,796,794,791,790,789,788,788,788,788,788,788,788,788,788,788,788,788,788,788,788,788,788,788,788,788,788,788,788,788,805,840,906,934,946,955,958,963,969,974,976,978,985,1002,1020,1035,1035,1035,1035,1035,1035,1035,1035,1035,1035,1035,1035,1060],"ymouse":[492,492,492,492,492,492,492,492,492,492,492,492,492,492,492,493,495,495,496,4