[{"start_time":1551800619597,"click_time":1551800620506,"finger_time":1551800620085,"fix_duration":1108.1387965968993,"trial":0,"RT":488,"MT":421,"sideResp":2,"stimulus":[],"xmouse":[800,800,800,800,800,800,800,800,800,800,800,800,800,800,800,800,800,800,800,800,800,800,804,819,867,879,901,922,954,965,975,982,987,1000,1013,1018,1020,1020,1020,1022,1026,1031,1038,1046,1065,1078],"ymouse":[486,486,486,486,486,486,486,486,486,486,486,486,486,486,486,486,486,486,486,486,486,479,472,455,409,388,364,339,289,269,248,233,220,200,188,184,182,182,182,179,175,168,158,142,109,87],"timestamp_mouse":[8,34,49,69,87,109,127,148,167,187,208,228,248,268,287,308,328,348,368,388,409,427,448,467,488,508,529,547,569,587,609,627,648,668,687,707,727,748,768,787,807,828,849,867,887,909],"xSR":741.5,"ySR":449.15000000000003,"xT1":424.9,"yT1":0,"xT2":1058.1,"yT2":0,"toosoon":0,"cond_shown":"Incongruent","ratio_trial":100,"L_num":2,"L_den":4,"R_num":8,"R_den":20,"correct_side":1,"subjID":"anasofiaseguracorrea","gender":"1","age":"10","school":"6","test":{"fix_dur":[250,1500],"timestim":1000,"targets_dim":[100,100],"targets_relative_coord":[0.3,0.7],"size_stim":[880,420],"start_dim":[100,100],"size_start":[300,300],"size_fix":60,"samplingrate":20,"img_types":["Congruent","Incongruent"],"ratios":[100,200,300],"rep_conds":19,"nTrials":120,"trials_to_rest":500,"Trials_order":[97,17,88,31,82,23,93,18,75,69,96,104,109,32,47,50,62,21,25,39,115,28,14,41,81,111,15,59,103,19,110,52,1,67,105,80,16,99,78,40,70,95,114,73,68,27,6,30,11,64,77,12,44,34,98,0,10,26,2,9,101,56,113,29,37,85,84,54,22,20,107,108,51,61,102,90,46,42,55,43,48,49,63,60,71,87,117,83,119,100,24,38,116,92,13,118,79,106,35,86,89,45,74,76,66,5,3,58,57,36,53,72,4,112,8,65,7,91,94,33],"cond_shown":["Incongruent","Incongruent","Congruent","Incongruent","Congruent","Incongruent","Incongruent","Congruent","Incongruent","Incongruent","Congruent","Congruent","Incongruent","Congruent","Incongruent","Congruent","Congruent","Incongruent","Incongruent","Incongruent","Incongruent","Congruent","Congruent","Incongruent","Incongruent","Incongruent","Incongruent","Incongruent","Incongruent","Incongruent","Congruent","Congruent","Incongruent","Incongruent","Incongruent","Congruent","Congruent","Incongruent","Congruent","Congruent","Congruent","Incongruent","Congruent","Incongruent","Congruent","Incongruent","Congruent","Congruent","Incongruent","Congruent","Incongruent","Congruent","Congruent","Congruent","Congruent","Congruent","Congruent","Congruent","Congruent","Incongruent","Incongruent","Congruent","Incongruent","Incongruent","Incongruent","Incongruent","Congruent","Congruent","Congruent","Congruent","Incongruent","Congruent","Incongruent","Incongruent","Congruent","Congruent","Congruent","Congruent","Incongruent","Incongruent","Congruent","Incongruent","Incongruent","Congruent","Incongruent","Incongruent","Incongruent","Incongruent","Incongruent","Congruent","Congruent","Congruent","Congruent","Congruent","Incongruent","Congruent","Incongruent","Congruent","Incongruent","Congruent","Incongruent","Incongruent","Congruent","Congruent","Congruent","Incongruent","Incongruent","Congruent","Incongruent","Congruent","Incongruent","Congruent","Congruent","Congruent","Congruent","Incongruent","Incongruent","Incongruent","Congruent","Incongruent"],"ratio_trial":[100,300,300,100,300,300,200,100,200,200,100,200,100,200,300,200,200,200,100,200,100,300,200,300,200,200,200,300,100,100,200,300,100,100,200,200,300,200,100,300,300,300,100,100,200,200,100,100,300,300,300,100,200,300,200,100,300,200,200,200,300,200,300,300,100,100,100,100,300,200,300,100,200,100,100,100,300,100,100,100,100,100,200,100,300,200,200,300,300,300,100,200,200,200,100,300,100,300,300,200,300,200,200,300,100,300,200,300,200,100,300,100,300,300,200,300,100,100,300,200],"left_num":[2,13,1,11,5,13,7,15,4,1,1,8,13,12,13,9,5,4,1,14,8,3,3,8,7,7,6,4,10,13,14,24,13,12,7,8,1,7,11,8,8,13,6,3,9,3,11,4,4,1,13,10,9,3,1,1,24,3,4,6,4,16,4,1,3,12,2,10,1,3,2,11,14,9,10,7,4,6,13,12,10,2,14,10,13,7,11,1,4,11,7,6,3,4,13,1,9,1,3,3,8,4,3,20,3,8,3,24,4,2,13,6,5,2,6,13,2,12,7,7],"right_num":[8,12,7,9,6,12,4,13,14,2,3,2,6,6,12,4,14,6,8,6,6,4,14,14,12,12,3,2,9,12,6,2,12,2,12,3,3,6,4,10,10,12,15,4,13,1,4,15,8,3,12,3,13,11,21,3,8,7,3,3,2,12,2,3,4,2,11,3,6,14,6,6,12,14,3,9,13,15,12,9,3,6,6,3,12,4,3,2,2,4,9,7,14,3,6,3,13,6,4,14,14,14,11,5,4,14,1,2,1,6,12,15,6,12,11,12,6,9,20,8],"left_den":[4,26,20,22,25,26,15,25,6,3,2,15,26,20,26,20,10,5,2,30,16,6,10,10,10,10,20,20,25,26,28,30,26,30,10,15,5,15,22,15,15,26,12,6,30,10,22,10,5,5,26,25,30,12,2,2,30,10,8,20,20,20,20,2,6,30,5,25,5,10,4,22,30,15,25,14,20,12,26,24,25,4,30,25,26,15,20,2,20,22,14,12,6,8,26,5,15,5,6,6,10,6,10,25,20,10,10,30,30,5,26,12,25,10,20,26,4,24,14,10],"right_den":[20,15,20,15,12,15,6,26,30,15,5,6,10,15,15,16,20,10,20,9,10,5,28,28,24,24,6,4,18,20,20,4,20,4,24,9,6,9,10,12,12,15,25,10,26,2,10,30,16,6,15,10,26,20,30,5,16,14,10,6,4,20,4,15,10,4,22,10,12,28,30,15,18,28,10,15,26,25,20,15,10,15,9,10,15,6,4,10,4,20,15,10,20,10,10,6,26,12,20,20,28,30,22,10,16,28,2,4,3,12,15,25,12,24,22,15,15,15,25,16],"correct_side":[1,2,2,2,2,2,2,1,1,1,2,1,2,1,2,1,2,1,1,2,2,2,2,1,1,1,2,2,2,2,1,1,2,2,1,1,2,2,1,2,2,2,2,1,2,2,1,2,1,2,2,1,2,2,2,2,1,2,1,2,2,1,2,1,1,2,2,1,2,2,1,1,2,1,1,2,2,2,2,2,1,1,2,1,2,2,2,1,2,1,2,2,2,1,2,2,1,2,1,2,1,1,2,1,2,1,2,1,2,2,2,2,2,2,2,2,1,2,2,1],"img_shown":["img2/100/Incongruent/L/I_Dist_100_LN_2_LD_4_RN_8_RD_20_0.png","img2/300/Incongruent/R/I_Dist_300_LN_13_LD_26_RN_12_RD_15_1.png","img2/300/Congruent/R/C_Dist_300_LN_1_LD_20_RN_7_RD_20_1.png","img2/100/Incongruent/R/I_Dist_100_LN_11_LD_22_RN_9_RD_15_1.png","img2/300/Congruent/R/C_Dist_300_LN_5_LD_25_RN_6_RD_12_1.png","img2/300/Incongruent/R/I_Dist_300_LN_13_LD_26_RN_12_RD_15_1.png","img2/200/Incongruent/R/I_Dist_200_LN_7_LD_15_RN_4_RD_6_1.png","img2/100/Congruent/L/C_Dist_100_LN_15_LD_25_RN_13_RD_26_0.png","img2/200/Incongruent/L/I_Dist_200_LN_4_LD_6_RN_14_RD_30_0.png","img2/200/Incongruent/L/I_Dist_200_LN_1_LD_3_RN_2_RD_15_0.png","img2/100/Congruent/R/C_Dist_100_LN_1_LD_2_RN_3_RD_5_1.png","img2/200/Congruent/L/C_Dist_200_LN_8_LD_15_RN_2_RD_6_0.png","img2/100/Incongruent/R/I_Dist_100_LN_13_LD_26_RN_6_RD_10_1.png","img2/200/Congruent/L/C_Dist_200_LN_12_LD_20_RN_6_RD_15_0.png","img2/300/Incongruent/R/I_Dist_300_LN_13_LD_26_RN_12_RD_15_1.png","img2/200/Congruent/L/C_Dist_200_LN_9_LD_20_RN_4_RD_16_0.png","img2/200/Congruent/R/C_Dist_200_LN_5_LD_10_RN_14_RD_20_1.png","img2/200/Incongruent/L/I_Dist_200_LN_4_LD_5_RN_6_RD_10_0.png","img2/100/Incongruent/L/I_Dist_100_LN_1_LD_2_RN_8_RD_20_0.png","img2/200/Incongruent/R/I_Dist_200_LN_14_LD_30_RN_6_RD_9_1.png","img2/100/Incongruent/R/I_Dist_100_LN_8_LD_16_RN_6_RD_10_1.png","img2/300/Congruent/R/C_Dist_300_LN_3_LD_6_RN_4_RD_5_1.png","img2/200/Congruent/R/C_Dist_200_LN_3_LD_10_RN_14_RD_28_1.png","img2/300/Incongruent/L/I_Dist_300_LN_8_LD_10_RN_14_RD_28_0.png","img2/200/Incongruent/L/I_Dist_200_LN_7_LD_10_RN_12_RD_24_0.png","img2/200/Incongruent/L/I_Dist_200_LN_7_LD_10_RN_12_RD_24_0.png","img2/200/Incongruent/R/I_Dist_200_LN_6_LD_20_RN_3_RD_6_1.png","img2/300/Incongruent/R/I_Dist_300_LN_4_LD_20_RN_2_RD_4_1.png","img2/100/Incongruent/R/I_Dist_100_LN_10_LD_25_RN_9_RD_18_1.png","img2/100/Incongruent/R/I_Dist_100_LN_13_LD_26_RN_12_RD_20_1.png","img2/200/Congruent/L/C_Dist_200_LN_14_LD_28_RN_6_RD_20_0.png","img2/300/Congruent/L/C_Dist_300_LN_24_LD_30_RN_2_RD_4_0.png","img2/100/Incongruent/R/I_Dist_100_LN_13_LD_26_RN_12_RD_20_1.png","img2/100/Incongruent/R/I_Dist_100_LN_12_LD_30_RN_2_RD_4_1.png","img2/200/Incongruent/L/I_Dist_200_LN_7_LD_10_RN_12_RD_24_0.png","img2/200/Congruent/L/C_Dist_200_LN_8_LD_15_RN_3_RD_9_0.png","img2/300/Congruent/R/C_Dist_300_LN_1_LD_5_RN_3_RD_6_1.png","img2/200/Incongruent/R/I_Dist_200_LN_7_LD_15_RN_6_RD_9_1.png","img2/100/Congruent/L/C_Dist_100_LN_11_LD_22_RN_4_RD_10_0.png","img2/300/Congruent/R/C_Dist_300_LN_8_LD_15_RN_10_RD_12_1.png","img2/300/Congruent/R/C_Dist_300_LN_8_LD_15_RN_10_RD_12_1.png","img2/300/Incongruent/R/I_Dist_300_LN_13_LD_26_RN_12_RD_15_1.png","img2/100/Congruent/R/C_Dist_100_LN_6_LD_12_RN_15_RD_25_1.png","img2/100/Incongruent/L/I_Dist_100_LN_3_LD_6_RN_4_RD_10_0.png","img2/200/Congruent/R/C_Dist_200_LN_9_LD_30_RN_13_RD_26_1.png","img2/200/Incongruent/R/I_Dist_200_LN_3_LD_10_RN_1_RD_2_1.png","img2/100/Congruent/L/C_Dist_100_LN_11_LD_22_RN_4_RD_10_0.png","img2/100/Congruent/R/C_Dist_100_LN_4_LD_10_RN_15_RD_30_1.png","img2/300/Incongruent/L/I_Dist_300_LN_4_LD_5_RN_8_RD_16_0.png","img2/300/Congruent/R/C_Dist_300_LN_1_LD_5_RN_3_RD_6_1.png","img2/300/Incongruent/R/I_Dist_300_LN_13_LD_26_RN_12_RD_15_1.png","img2/100/Congruent/L/C_Dist_100_LN_10_LD_25_RN_3_RD_10_0.png","img2/200/Congruent/R/C_Dist_200_LN_9_LD_30_RN_13_RD_26_1.png","img2/300/Congruent/R/C_Dist_300_LN_3_LD_12_RN_11_RD_20_1.png","img2/200/Congruent/R/C_Dist_200_LN_1_LD_2_RN_21_RD_30_1.png","img2/100/Congruent/R/C_Dist_100_LN_1_LD_2_RN_3_RD_5_1.png","img2/300/Congruent/L/C_Dist_300_LN_24_LD_30_RN_8_RD_16_0.png","img2/200/Congruent/R/C_Dist_200_LN_3_LD_10_RN_7_RD_14_1.png","img2/200/Congruent/L/C_Dist_200_LN_4_LD_8_RN_3_RD_10_0.png","img2/200/Incongruent/R/I_Dist_200_LN_6_LD_20_RN_3_RD_6_1.png","img2/300/Incongruent/R/I_Dist_300_LN_4_LD_20_RN_2_RD_4_1.png","img2/200/Congruent/L/C_Dist_200_LN_16_LD_20_RN_12_RD_20_0.png","img2/300/Incongruent/R/I_Dist_300_LN_4_LD_20_RN_2_RD_4_1.png","img2/300/Incongruent/L/I_Dist_300_LN_1_LD_2_RN_3_RD_15_0.png","img2/100/Incongruent/L/I_Dist_100_LN_3_LD_6_RN_4_RD_10_0.png","img2/100/Incongruent/R/I_Dist_100_LN_12_LD_30_RN_2_RD_4_1.png","img2/100/Congruent/R/C_Dist_100_LN_2_LD_5_RN_11_RD_22_1.png","img2/100/Congruent/L/C_Dist_100_LN_10_LD_25_RN_3_RD_10_0.png","img2/300/Congruent/R/C_Dist_300_LN_1_LD_5_RN_6_RD_12_1.png","img2/200/Congruent/R/C_Dist_200_LN_3_LD_10_RN_14_RD_28_1.png","img2/300/Incongruent/L/I_Dist_300_LN_2_LD_4_RN_6_RD_30_0.png","img2/100/Congruent/L/C_Dist_100_LN_11_LD_22_RN_6_RD_15_0.png","img2/200/Incongruent/R/I_Dist_200_LN_14_LD_30_RN_12_RD_18_1.png","img2/100/Incongruent/L/I_Dist_100_LN_9_LD_15_RN_14_RD_28_0.png","img2/100/Congruent/L/C_Dist_100_LN_10_LD_25_RN_3_RD_10_0.png","img2/100/Congruent/R/C_Dist_100_LN_7_LD_14_RN_9_RD_15_1.png","img2/300/Congruent/R/C_Dist_300_LN_4_LD_20_RN_13_RD_26_1.png","img2/100/Congruent/R/C_Dist_100_LN_6_LD_12_RN_15_RD_25_1.png","img2/100/Incongruent/R/I_Dist_100_LN_13_LD_26_RN_12_RD_20_1.png","img2/100/Incongruent/R/I_Dist_100_LN_12_LD_24_RN_9_RD_15_1.png","img2/100/Congruent/L/C_Dist_100_LN_10_LD_25_RN_3_RD_10_0.png","img2/100/Incongruent/L/I_Dist_100_LN_2_LD_4_RN_6_RD_15_0.png","img2/200/Incongruent/R/I_Dist_200_LN_14_LD_30_RN_6_RD_9_1.png","img2/100/Congruent/L/C_Dist_100_LN_10_LD_25_RN_3_RD_10_0.png","img2/300/Incongruent/R/I_Dist_300_LN_13_LD_26_RN_12_RD_15_1.png","img2/200/Incongruent/R/I_Dist_200_LN_7_LD_15_RN_4_RD_6_1.png","img2/200/Incongruent/R/I_Dist_200_LN_11_LD_20_RN_3_RD_4_1.png","img2/300/Incongruent/L/I_Dist_300_LN_1_LD_2_RN_2_RD_10_0.png","img2/300/Incongruent/R/I_Dist_300_LN_4_LD_20_RN_2_RD_4_1.png","img2/300/Congruent/L/C_Dist_300_LN_11_LD_22_RN_4_RD_20_0.png","img2/100/Congruent/R/C_Dist_100_LN_7_LD_14_RN_9_RD_15_1.png","img2/200/Congruent/R/C_Dist_200_LN_6_LD_12_RN_7_RD_10_1.png","img2/200/Congruent/R/C_Dist_200_LN_3_LD_6_RN_14_RD_20_1.png","img2/200/Congruent/L/C_Dist_200_LN_4_LD_8_RN_3_RD_10_0.png","img2/100/Incongruent/R/I_Dist_100_LN_13_LD_26_RN_6_RD_10_1.png","img2/300/Congruent/R/C_Dist_300_LN_1_LD_5_RN_3_RD_6_1.png","img2/100/Incongruent/L/I_Dist_100_LN_9_LD_15_RN_13_RD_26_0.png","img2/300/Congruent/R/C_Dist_300_LN_1_LD_5_RN_6_RD_12_1.png","img2/300/Incongruent/L/I_Dist_300_LN_3_LD_6_RN_4_RD_20_0.png","img2/200/Congruent/R/C_Dist_200_LN_3_LD_6_RN_14_RD_20_1.png","img2/300/Incongruent/L/I_Dist_300_LN_8_LD_10_RN_14_RD_28_0.png","img2/200/Incongruent/L/I_Dist_200_LN_4_LD_6_RN_14_RD_30_0.png","img2/200/Congruent/R/C_Dist_200_LN_3_LD_10_RN_11_RD_22_1.png","img2/300/Congruent/L/C_Dist_300_LN_20_LD_25_RN_5_RD_10_0.png","img2/100/Congruent/R/C_Dist_100_LN_3_LD_20_RN_4_RD_16_1.png","img2/300/Incongruent/L/I_Dist_300_LN_8_LD_10_RN_14_RD_28_0.png","img2/200/Incongruent/R/I_Dist_200_LN_3_LD_10_RN_1_RD_2_1.png","img2/300/Congruent/L/C_Dist_300_LN_24_LD_30_RN_2_RD_4_0.png","img2/200/Incongruent/R/I_Dist_200_LN_4_LD_30_RN_1_RD_3_1.png","img2/100/Congruent/R/C_Dist_100_LN_2_LD_5_RN_6_RD_12_1.png","img2/300/Incongruent/R/I_Dist_300_LN_13_LD_26_RN_12_RD_15_1.png","img2/100/Congruent/R/C_Dist_100_LN_6_LD_12_RN_15_RD_25_1.png","img2/300/Congruent/R/C_Dist_300_LN_5_LD_25_RN_6_RD_12_1.png","img2/300/Congruent/R/C_Dist_300_LN_2_LD_10_RN_12_RD_24_1.png","img2/200/Congruent/R/C_Dist_200_LN_6_LD_20_RN_11_RD_22_1.png","img2/300/Incongruent/R/I_Dist_300_LN_13_LD_26_RN_12_RD_15_1.png","img2/100/Incongruent/L/I_Dist_100_LN_2_LD_4_RN_6_RD_15_0.png","img2/100/Incongruent/R/I_Dist_100_LN_12_LD_24_RN_9_RD_15_1.png","img2/300/Congruent/R/C_Dist_300_LN_7_LD_14_RN_20_RD_25_1.png","img2/200/Incongruent/L/I_Dist_200_LN_7_LD_10_RN_8_RD_16_0.png"],"dist100_C":[["C_Dist_100_LN_10_LD_25_RN_3_RD_10_0.png","C_Dist_100_LN_11_LD_22_RN_4_RD_10_0.png","C_Dist_100_LN_11_LD_22_RN_6_RD_15_0.png","C_Dist_100_LN_15_LD_25_RN_13_RD_26_0.png","C_Dist_100_LN_3_LD_6_RN_2_RD_5_0.png","C_Dist_100_LN_6_LD_20_RN_5_RD_25_0.png","C_Dist_100_LN_8_LD_16_RN_2_RD_5_0.png","C_Dist_100_LN_9_LD_15_RN_8_RD_16_0.png"],["C_Dist_100_LN_1_LD_2_RN_18_RD_30_1.png","C_Dist_100_LN_1_LD_2_RN_3_RD_5_1.png","C_Dist_100_LN_12_LD_30_RN_13_RD_26_1.png","C_Dist_100_LN_2_LD_5_RN_11_RD_22_1.png","C_Dist_100_LN_2_LD_5_RN_6_RD_12_1.png","C_Dist_100_LN_3_LD_20_RN_4_RD_16_1.png","C_Dist_100_LN_4_LD_10_RN_15_RD_30_1.png","C_Dist_100_LN_4_LD_8_RN_6_RD_10_1.png","C_Dist_100_LN_6_LD_12_RN_15_RD_25_1.png","C_Dist_100_LN_7_LD_14_RN_15_RD_25_1.png","C_Dist_100_LN_7_LD_14_RN_9_RD_15_1.png"]],"dist100_I":[["I_Dist_100_LN_1_LD_2_RN_8_RD_20_0.png","I_Dist_100_LN_2_LD_4_RN_6_RD_15_0.png","I_Dist_100_LN_2_LD_4_RN_8_RD_20_0.png","I_Dist_100_LN_3_LD_5_RN_11_RD_22_0.png","I_Dist_100_LN_3_LD_5_RN_8_RD_16_0.png","I_Dist_100_LN_3_LD_6_RN_4_RD_10_0.png","I_Dist_100_LN_3_LD_9_RN_7_RD_30_0.png","I_Dist_100_LN_4_LD_8_RN_8_RD_20_0.png","I_Dist_100_LN_6_LD_10_RN_11_RD_22_0.png","I_Dist_100_LN_6_LD_10_RN_13_RD_26_0.png","I_Dist_100_LN_6_LD_10_RN_7_RD_14_0.png","I_Dist_100_LN_9_LD_10_RN_20_RD_25_0.png","I_Dist_100_LN_9_LD_15_RN_13_RD_26_0.png","I_Dist_100_LN_9_LD_15_RN_14_RD_28_0.png"],["I_Dist_100_LN_10_LD_25_RN_8_RD_16_1.png","I_Dist_100_LN_10_LD_25_RN_9_RD_18_1.png","I_Dist_100_LN_11_LD_22_RN_9_RD_15_1.png","I_Dist_100_LN_12_LD_24_RN_9_RD_15_1.png","I_Dist_100_LN_12_LD_30_RN_2_RD_4_1.png","I_Dist_100_LN_13_LD_26_RN_12_RD_20_1.png","I_Dist_100_LN_13_LD_26_RN_6_RD_10_1.png","I_Dist_100_LN_17_LD_30_RN_10_RD_15_1.png","I_Dist_100_LN_6_LD_12_RN_3_RD_5_1.png","I_Dist_100_LN_8_LD_16_RN_6_RD_10_1.png","I_Dist_100_LN_8_LD_20_RN_1_RD_2_1.png","I_Dist_100_LN_9_LD_18_RN_6_RD_10_1.png"]],"dist100_S":[["E_Dist_100_LN_2_LD_12_RN_2_RD_30_0.png","E_Dist_100_LN_6_LD_10_RN_6_RD_12_0.png"],["E_Dist_100_LN_6_LD_12_RN_6_RD_10_1.png"]],"dist200_C":[["C_Dist_200_LN_11_LD_22_RN_3_RD_10_0.png","C_Dist_200_LN_12_LD_15_RN_6_RD_10_0.png","C_Dist_200_LN_12_LD_20_RN_6_RD_15_0.png","C_Dist_200_LN_14_LD_28_RN_6_RD_20_0.png","C_Dist_200_LN_15_LD_25_RN_4_RD_10_0.png","C_Dist_200_LN_16_LD_20_RN_12_RD_20_0.png","C_Dist_200_LN_16_LD_30_RN_9_RD_27_0.png","C_Dist_200_LN_20_LD_25_RN_9_RD_15_0.png","C_Dist_200_LN_21_LD_30_RN_2_RD_4_0.png","C_Dist_200_LN_4_LD_10_RN_3_RD_15_0.png","C_Dist_200_LN_4_LD_8_RN_3_RD_10_0.png","C_Dist_200_LN_6_LD_15_RN_3_RD_15_0.png","C_Dist_200_LN_7_LD_21_RN_2_RD_15_0.png","C_Dist_200_LN_8_LD_15_RN_2_RD_6_0.png","C_Dist_200_LN_8_LD_15_RN_3_RD_9_0.png","C_Dist_200_LN_8_LD_15_RN_7_RD_21_0.png","C_Dist_200_LN_9_LD_20_RN_4_RD_16_0.png"],["C_Dist_200_LN_1_LD_2_RN_21_RD_30_1.png","C_Dist_200_LN_13_LD_26_RN_14_RD_20_1.png","C_Dist_200_LN_3_LD_10_RN_11_RD_22_1.png","C_Dist_200_LN_3_LD_10_RN_14_RD_28_1.png","C_Dist_200_LN_3_LD_10_RN_7_RD_14_1.png","C_Dist_200_LN_3_LD_12_RN_9_RD_20_1.png","C_Dist_200_LN_3_LD_6_RN_14_RD_20_1.png","C_Dist_200_LN_5_LD_10_RN_14_RD_20_1.png","C_Dist_200_LN_6_LD_12_RN_7_RD_10_1.png","C_Dist_200_LN_6_LD_20_RN_11_RD_22_1.png","C_Dist_200_LN_7_LD_15_RN_18_RD_27_1.png","C_Dist_200_LN_9_LD_30_RN_13_RD_26_1.png"]],"dist200_I":[["I_Dist_200_LN_1_LD_2_RN_3_RD_10_0.png","I_Dist_200_LN_1_LD_3_RN_2_RD_15_0.png","I_Dist_200_LN_3_LD_4_RN_11_RD_20_0.png","I_Dist_200_LN_4_LD_5_RN_6_RD_10_0.png","I_Dist_200_LN_4_LD_6_RN_14_RD_30_0.png","I_Dist_200_LN_7_LD_10_RN_12_RD_24_0.png","I_Dist_200_LN_7_LD_10_RN_14_RD_28_0.png","I_Dist_200_LN_7_LD_10_RN_8_RD_16_0.png"],["I_Dist_200_LN_11_LD_20_RN_3_RD_4_1.png","I_Dist_200_LN_14_LD_30_RN_12_RD_18_1.png","I_Dist_200_LN_14_LD_30_RN_6_RD_9_1.png","I_Dist_200_LN_3_LD_10_RN_1_RD_2_1.png","I_Dist_200_LN_4_LD_30_RN_1_RD_3_1.png","I_Dist_200_LN_6_LD_20_RN_3_RD_6_1.png","I_Dist_200_LN_7_LD_15_RN_4_RD_6_1.png","I_Dist_200_LN_7_LD_15_RN_6_RD_9_1.png","I_Dist_200_LN_9_LD_15_RN_8_RD_10_1.png"]],"dist200_S":[["E_Dist_200_LN_3_LD_6_RN_3_RD_10_0.png"],["E_Dist_200_LN_3_LD_10_RN_3_RD_6_1.png"]],"dist300_C":[["C_Dist_300_LN_11_LD_22_RN_1_RD_5_0.png","C_Dist_300_LN_11_LD_22_RN_2_RD_10_0.png","C_Dist_300_LN_11_LD_22_RN_4_RD_20_0.png","C_Dist_300_LN_12_LD_24_RN_2_RD_10_0.png","C_Dist_300_LN_18_LD_20_RN_9_RD_15_0.png","C_Dist_300_LN_20_LD_25_RN_13_RD_26_0.png","C_Dist_300_LN_20_LD_25_RN_14_RD_28_0.png","C_Dist_300_LN_20_LD_25_RN_5_RD_10_0.png","C_Dist_300_LN_20_LD_25_RN_8_RD_16_0.png","C_Dist_300_LN_20_LD_25_RN_9_RD_18_0.png","C_Dist_300_LN_24_LD_30_RN_2_RD_4_0.png","C_Dist_300_LN_24_LD_30_RN_8_RD_16_0.png","C_Dist_300_LN_3_LD_6_RN_2_RD_10_0.png","C_Dist_300_LN_4_LD_10_RN_1_RD_10_0.png","C_Dist_300_LN_4_LD_5_RN_2_RD_4_0.png","C_Dist_300_LN_8_LD_16_RN_1_RD_5_0.png","C_Dist_300_LN_9_LD_10_RN_3_RD_5_0.png"],["C_Dist_300_LN_1_LD_20_RN_7_RD_20_1.png","C_Dist_300_LN_1_LD_3_RN_19_RD_30_1.png","C_Dist_300_LN_1_LD_30_RN_8_RD_24_1.png","C_Dist_300_LN_1_LD_5_RN_11_RD_22_1.png","C_Dist_300_LN_1_LD_5_RN_3_RD_6_1.png","C_Dist_300_LN_1_LD_5_RN_6_RD_12_1.png","C_Dist_300_LN_2_LD_10_RN_12_RD_24_1.png","C_Dist_300_LN_2_LD_20_RN_10_RD_25_1.png","C_Dist_300_LN_3_LD_12_RN_11_RD_20_1.png","C_Dist_300_LN_3_LD_6_RN_4_RD_5_1.png","C_Dist_300_LN_4_LD_20_RN_13_RD_26_1.png","C_Dist_300_LN_5_LD_25_RN_6_RD_12_1.png","C_Dist_300_LN_5_LD_25_RN_7_RD_14_1.png","C_Dist_300_LN_7_LD_14_RN_20_RD_25_1.png","C_Dist_300_LN_8_LD_15_RN_10_RD_12_1.png"]],"dist300_I":[["I_Dist_300_LN_1_LD_2_RN_2_RD_10_0.png","I_Dist_300_LN_1_LD_2_RN_3_RD_15_0.png","I_Dist_300_LN_2_LD_4_RN_6_RD_30_0.png","I_Dist_300_LN_3_LD_6_RN_4_RD_20_0.png","I_Dist_300_LN_4_LD_5_RN_6_RD_12_0.png","I_Dist_300_LN_4_LD_5_RN_8_RD_16_0.png","I_Dist_300_LN_7_LD_10_RN_8_RD_20_0.png","I_Dist_300_LN_8_LD_10_RN_14_RD_28_0.png","I_Dist_300_LN_8_LD_10_RN_9_RD_18_0.png"],["I_Dist_300_LN_13_LD_26_RN_12_RD_15_1.png","I_Dist_300_LN_4_LD_20_RN_2_RD_4_1.png"]],"dist300_S":[["E_Dist_300_LN_9_LD_12_RN_9_RD_20_0.png"],["E_Dist_300_LN_18_LD_30_RN_18_RD_20_1.png","E_Dist_300_LN_3_LD_10_RN_3_RD_5_1.png","E_Dist_300_LN_9_LD_20_RN_9_RD_12_1.png"]],"dist500_C":[["C_Dist_500_LN_10_LD_13_RN_7_RD_26_0.png","C_Dist_500_LN_10_LD_15_RN_4_RD_24_0.png","C_Dist_500_LN_12_LD_16_RN_3_RD_12_0.png","C_Dist_500_LN_12_LD_18_RN_4_RD_24_0.png","C_Dist_500_LN_15_LD_18_RN_5_RD_15_0.png","C_Dist_500_LN_15_LD_20_RN_1_RD_4_0.png","C_Dist_500_LN_18_LD_27_RN_1_RD_6_0.png","C_Dist_500_LN_20_LD_24_RN_1_RD_3_0.png","C_Dist_500_LN_20_LD_24_RN_3_RD_9_0.png","C_Dist_500_LN_20_LD_24_RN_7_RD_21_0.png","C_Dist_500_LN_20_LD_28_RN_3_RD_14_0.png","C_Dist_500_LN_21_LD_28_RN_6_RD_24_0.png","C_Dist_500_LN_22_LD_28_RN_2_RD_7_0.png","C_Dist_500_LN_25_LD_30_RN_9_RD_27_0.png","C_Dist_500_LN_4_LD_6_RN_1_RD_6_0.png","C_Dist_500_LN_5_LD_6_RN_2_RD_6_0.png","C_Dist_500_LN_6_LD_9_RN_1_RD_6_0.png","C_Dist_500_LN_7_LD_10_RN_1_RD_5_0.png","C_Dist_500_LN_8_LD_12_RN_1_RD_6_0.png","C_Dist_500_LN_8_LD_12_RN_4_RD_24_0.png"],["C_Dist_500_LN_1_LD_4_RN_12_RD_16_1.png","C_Dist_500_LN_1_LD_4_RN_9_RD_12_1.png","C_Dist_500_LN_1_LD_9_RN_11_RD_18_1.png","C_Dist_500_LN_10_LD_24_RN_22_RD_24_1.png","C_Dist_500_LN_2_LD_12_RN_10_RD_15_1.png","C_Dist_500_LN_2_LD_12_RN_12_RD_18_1.png","C_Dist_500_LN_2_LD_12_RN_4_RD_6_1.png","C_Dist_500_LN_2_LD_24_RN_7_RD_12_1.png","C_Dist_500_LN_2_LD_5_RN_18_RD_20_1.png","C_Dist_500_LN_2_LD_5_RN_9_RD_10_1.png","C_Dist_500_LN_2_LD_8_RN_12_RD_16_1.png","C_Dist_500_LN_2_LD_8_RN_21_RD_28_1.png","C_Dist_500_LN_3_LD_10_RN_4_RD_5_1.png","C_Dist_500_LN_3_LD_12_RN_15_RD_20_1.png","C_Dist_500_LN_3_LD_30_RN_6_RD_10_1.png","C_Dist_500_LN_3_LD_8_RN_14_RD_16_1.png","C_Dist_500_LN_4_LD_16_RN_15_RD_20_1.png","C_Dist_500_LN_4_LD_24_RN_12_RD_18_1.png","C_Dist_500_LN_5_LD_14_RN_6_RD_7_1.png","C_Dist_500_LN_7_LD_21_RN_20_RD_24_1.png","C_Dist_500_LN_7_LD_28_RN_12_RD_16_1.png","C_Dist_500_LN_7_LD_28_RN_9_RD_12_1.png","C_Dist_500_LN_9_LD_27_RN_20_RD_24_1.png"]],"dist500_I":[["I_Dist_500_LN_2_LD_3_RN_4_RD_24_0.png","I_Dist_500_LN_5_LD_6_RN_6_RD_18_0.png","I_Dist_500_LN_7_LD_8_RN_9_RD_24_0.png"],["I_Dist_500_LN_7_LD_21_RN_5_RD_6_1.png"]],"dist500_S":[["E_Dist_500_LN_6_LD_8_RN_6_RD_24_0.png"],["E_Dist_500_LN_2_LD_12_RN_2_RD_3_1.png","E_Dist_500_LN_6_LD_24_RN_6_RD_8_1.png"]]}},{"start_time":1551800623045,"click_time":1551800624025,"finger_time":1551800623665,"fix_duration":1116.4136458281055,"trial":1,"RT":620,"MT":360,"sideResp":2,"stimulus":[],"xmouse":[783,783,783,783,783,783,783,783,783,783,783,783,783,783,783,783,783,783,783,783,783,783,783,783,783,783,783,783,783,781,775,759,757,757,769,790,815,879,929,984,1024,1056,1059,1060,1060,1060,1065,1091,1105,1113],"ymouse":[492,492,492,492,492,492,492,492,492,492,492,492,492,492,492,492,492,492,492,492,492,492,492,492,492,492,492,492,492,485,475,443,428,415,408,403,400,390,373,344,310,259,237,227,220,213,200,149,117,89],"timestamp_mouse":[1,20,41,60,80,99,121,139,160,179,199,221,239,261,279,299,319,339,360,380,400,421,441,460,480,499,521,539,559,580,600,620,639,660,680,699,719,741,760,780,800,820,839,860,880,899,919,940,960,979],"xSR":741.5,"ySR":449.15000000000003,"xT1":424.9,"yT1":0,"xT2":1058.1,"yT2":0,"toosoon":0,"cond_shown":"Incongruent","ratio_trial":300,"L_num":13,"L_den":26,"R_num":12,"R_den":15,"correct_side":2,"subjID":"anasofiaseguracorrea","gender":"1","school":"6","age":"10"},{"start_time":1551800627388,"click_time":1551800628005,"finger_time":1551800627824,"fix_duration":881.1891006775826,"trial":2,"RT":436,"MT":181,"sideResp":2,"stimulus":[],"xmouse":[808,808,808,808,808,808,808,808,808,808,808,808,808,808,808,808,808,808,807,815,833,885,935,974,1014,1032,1042,1053,1079,1099,1113],"ymouse":[493,493,493,493,493,493,493,493,493,493,493,493,493,493,493,493,493,493,491,477,458,420,384,347,294,255,231,206,150,102,47],"timestamp_mouse":[17,48,56,76,97,116,137,158,177,196,216,236,256,276,297,318,336,358,377,396,417,436,457,476,496,516,538,556,577,596,617],"xSR":741.5,"ySR":449.15000000000003,"xT1":424.9,"yT1":0,"xT2":1058.1,"yT2":0,"toosoon":0,"cond_shown":"Congruent","ratio_trial":300,"L_num":1,"L_den":20,"R_num":7,"R_den":20,"correct_side":2,"subjID":"anasofiaseguracorrea","gender":"1","school":"6","age":"10"},{"start_time":1551800629466,"click_time":1551800630265,"finger_time":1551800629965,"fix_duration":639.1343687105928,"trial":3,"RT":499,"MT":300,"sideResp":1,"stimulus":[],"xmouse":[777,777,777,777,777,777,777,777,777,777,777,777,777,777,777,777,777,777,777,777,777,777,777,774,769,717,677,626,626,626,626,626,626,626,626,626,626,626,626,626,522],"ymouse":[504,504,504,504,504,504,504,504,504,504,504,504,504,504,504,504,504,504,504,504,504,504,504,500,480,291,153,17,17,17,17,17,17,17,17,17,17,17,17,17,7],"timestamp_mouse":[1,28,39,58,78,99,118,138,160,179,198,220,239,258,279,299,319,340,360,379,399,418,438,459,479,499,518,539,558,579,599,619,639,659,679,700,719,739,760,779,799],"xSR":741.5,"ySR":449.15000000000003,"xT1":424.9,"yT1":0,"xT2":1058.1,"yT2":0,"toosoon":0,"cond_shown":"Incongruent","ratio_trial":100,"L_num":11,"L_den":22,"R_num":9,"R_den":15,"correct_side":2,"subjID":"anasofiaseguracorrea","gender":"1","school":"6","age":"10"},{"start_time":1551800632395,"click_time":1551800637365,"finger_time":1551800632905,"fix_duration":1009.8217142228449,"trial":4,"RT":510,"MT":4460,"sideResp":2,"stimulus":[],"xmouse":[795,795,795,795,795,795,795,795,795,795,795,795,795,795,794,793,793,793,793,793,793,792,792,789,777,761,730,688,640,589,589,589,589,589,589,589,620,678,815,857,875,878,878,878,878,877,877,877,877,877,877,877,877,877,877,877,877,880,885,893,898,900,902,909,913,919,924,927,928,930,931,933,935,936,937,937,937,937,936,932,925,918,914,911,910,908,905,899,875,857,833,809,790,782,776,776,777,779,779,782,786,791,795,798,799,799,799,799,797,797,796,795,794,791,791,791,791,791,791,791,791,791,791,791,791,791,791,791,791,791,791,791,791,791,791,791,791,791,791,791,791,791,791,791,791,791,791,791,791,791,791,791,791,791,791,791,791,791,791,791,791,791,791,791,791,791,791,791,791,791,791,791,791,791,791,791,791,791,791,791,791,791,791,791,791,791,791,791,791,791,791,791,791,791,791,791,791,791,791,791,791,791,791,791,791,791,791,791,791,791,791,791,791,791,791,791,791,791,791,791,791,791,791,791,791,791,791,791,791,791,791,791,792,796,819,848,914,960,1015,1134,1159,1172,1176,1177,1177,1177,1177,1174,1158],"ymouse":[511,511,511,511,511,511,511,511,511,511,511,511,511,511,509,507,506,506,506,506,506,505,502,490,453,396,311,221,128,16,16,16,16,16,16,16,62,123,239,274,288,291,291,291,287,285,285,285,285,285,285,285,285,285,282,277,271,261,247,230,220,215,208,192,185,173,161,155,149,144,139,136,135,133,132,132,132,132,135,144,158,174,188,200,209,217,224,234,263,282,309,338,366,385,418,425,429,432,434,442,447,454,458,461,461,461,462,465,474,478,484,489,495,503,503,503,503,503,503,503,503,503,503,503,503,503,503,503,503,503,503,503,503,503,503,503,503,503,503,503,503,503,503,503,503,503,503,503,503,503,503,503,503,503,503,503,503,503,503,503,503,503,503,503,503,503,503,503,503,503,503,503,503,503,503,503,503,503,503,503,503,503,503,503,503,503,503,503,503,503,503,503,503,503,503,503,503,503,503,503,503,503,503,503,503,503,503,503,503,504,504,504,504,504,504,504,504,504,504,504,504,504,504,504,504,504,504,504,504,504,504,504,503,500,474,448,394,351,298,177,139,115,98,87,75,66,61,56,50],"timestamp_mouse":[10,34,50,69,91,110,131,150,169,191,210,229,250,270,289,310,331,349,369,390,409,431,451,470,490,510,531,549,569,589,609,630,650,670,689,710,730,749,771,789,811,830,849,869,889,909,929,949,969,989,1009,1030,1050,1069,1089,1110,1131,1150,1170,1191,1210,1230,1249,1271,1289,1310,1329,1350,1371,1390,1410,1430,1450,1469,1490,1509,1530,1549,1570,1589,1610,1630,1650,1671,1691,1710,1730,1751,1770,1789,1809,1830,1850,1869,1890,1911,1931,1950,1970,1990,2011,2031,2049,2069,2089,2111,2131,2151,2170,2189,2210,2230,2249,2271,2289,2310,2331,2351,2369,2390,2409,2430,2449,2469,2489,2510,2530,2550,2570,2589,2610,2631,2649,2671,2689,2709,2730,2749,2770,2789,2810,2830,2849,2871,2890,2909,2930,2949,2969,2990,3010,3031,3049,3070,3090,3111,3129,3150,3169,3190,3209,3231,3249,3269,3290,3310,3329,3350,3370,3389,3409,3431,3451,3470,3491,3510,3531,3550,3570,3591,3609,3630,3649,3671,3690,3710,3729,3750,3771,3789,3809,3830,3851,3871,3889,3909,3929,3949,3971,3989,4010,4029,4050,4070,4089,4110,4130,4149,4170,4190,4211,4229,4250,4269,4291,4311,4330,4350,4370,4390,4410,4429,4449,4469,4490,4510,4530,4549,4570,4589,4610,4629,4649,4670,4691,4710,4731,4751,4770,4791,4810,4829,4850,4869,4889,4909,4930,4951,4970],"xSR":741.5,"ySR":449.15000000000003,"xT1":424.9,"yT1":0,"xT2":1058.1,"yT2":0,"toosoon":0,"cond_shown":"Congruent","ratio_trial":300,"L_num":5,"L_den":25,"R_num":6,"R_den":12,"correct_side":2,"subjID":"anasofiaseguracorrea","gender":"1","school":"6","age":"10"},{"start_time":1551800639695,"click_time":1551800640545,"finger_time":1551800640366,"fix_duration":1328.8403997715416,"trial":5,"RT":671,"MT":179,"sideResp":2,"stimulus":[],"xmouse":[776,776,776,776,776,776,776,776,776,776,776,776,776,776,776,776,776,776,776,776,776,776,776,776,776,776,776,776,776,776,776,787,821,967,1025,1052,1066,1075,1082,1086,1089,1091,1095],"ymouse":[488,488,488,488,488,488,488,488,488,488,488,488,488,488,488,488,488,488,488,488,488,488,488,488,488,488,488,488,488,488,488,481,460,363,306,268,243,220,178,159,133,114,91],"timestamp_mouse":[9,33,50,71,89,111,131,150,170,191,211,231,249,270,291,311,330,351,370,389,410,430,451,470,491,511,531,549,571,591,610,630,651,671,690,710,729,750,771,789,811,830,849],"xSR":741.5,"ySR":449.15000000000003,"xT1":424.9,"yT1":0,"xT2":1058.1,"yT2":0,"toosoon":0,"cond_shown":"Incongruent","ratio_trial":300,"L_num":13,"L_den":26,"R_num":12,"R_den":15,"correct_side":2,"subjID":"anasofiaseguracorrea","gender":"1","school":"6","age":"10"},{"start_time":1551800642529,"click_time":1551800643706,"finger_time":1551800643285,"fix_duration":841.2799991476812,"trial":6,"RT":756,"MT":421,"sideResp":2,"stimulus":[],"xmouse":[785,785,785,785,785,785,785,785,785,785,785,785,785,785,785,785,785,785,785,785,785,785,785,785,785,785,785,785,785,785,785,785,785,785,785,786,788,800,813,827,844,891,919,959,1006,1054,1094,1148,1165,1169,1171,1171,1171,1171,1171,1171,1170,1160,1144],"ymouse":[509,509,509,509,509,509,509,509,509,509,509,509,509,509,509,509,509,509,509,509,509,509,509,509,509,509,509,509,509,509,509,509,509,509,491,481,465,436,414,397,384,356,339,316,282,242,201,114,68,47,31,22,13,11,10,10,9,9,13],"timestamp_mouse":[16,37,56,75,97,117,137,155,176,196,216,237,257,275,296,315,336,357,376,397,417,436,457,476,497,517,537,556,575,597,616,636,657,677,696,716,736,756,775,797,815,837,855,876,895,917,935,955,975,996,1015,1037,1056,1076,1096,1116,1136,1155,1177],"xSR":741.5,"ySR":449.15000000000003,"xT1":424.9,"yT1":0,"xT2":1058.1,"yT2":0,"toosoon":0,"cond_shown":"Incongruent","ratio_trial":200,"L_num":7,"L_den":15,"R_num":4,"R_den":6,"correct_side":2,"subjID":"anasofiaseguracorrea","gender":"1","school":"6","age":"10"},{"start_time":1551800646142,"click_time":1551800647105,"finger_time":1551800646984,"fix_duration":1296.5635099238941,"trial":7,"RT":842,"MT":121,"sideResp":2,"stimulus":[],"xmouse":[782,782,783,783,784,785,786,788,789,791,792,794,794,794,794,794,794,794,794,794,794,794,794,794,794,794,794,794,794,794,794,794,794,794,794,794,794,794,794,795,796,801,837,881,945,1010,1088,1108,1122],"ymouse":[518,518,518,518,517,517,516,515,514,513,512,511,510,510,510,510,510,510,510,510,510,510,510,510,510,510,510,510,510,510,510,510,510,510,510,510,510,510,508,504,499,488,443,394,326,254,142,103,55],"timestamp_mouse":[12,24,43,63,82,102,124,143,162,184,204,223,244,262,282,304,324,342,362,383,403,422,444,464,483,504,523,543,563,582,602,623,642,664,683,703,722,743,763,783,803,822,842,863,883,903,924,943,963],"xSR":741.5,"ySR":449.15000000000003,"xT1":424.9,"yT1":0,"xT2":1058.1,"yT2":0,"toosoon":0,"cond_shown":"Congruent","ratio_trial":100,"L_num":15,"L_den":25,"R_num":13,"R_den":26,"correct_side":1,"subjID":"anasofiaseguracorrea","gender":"1","school":"6","age":"10"},{"start_time":1551800649009,"click_time":1551800650046,"finger_time":1551800649665,"fix_duration":882.3392570078872,"trial":8,"RT":656,"MT":381,"sideResp":1,"stimulus":[],"xmouse":[780,780,780,780,780,780,780,780,780,780,780,780,780,780,780,780,780,780,780,780,780,780,780,780,780,780,780,780,780,773,767,759,747,709,694,683,676,668,661,651,635,618,593,580,575,573,571,561,553,541,531,521],"ymouse":[503,503,503,503,503,503,503,503,503,503,503,503,503,503,503,503,503,503,503,503,503,503,503,503,503,503,503,503,503,488,479,461,434,341,306,271,241,192,169,145,117,90,51,30,23,21,21,21,21,22,25,29],"timestamp_mouse":[16,37,57,76,97,115,136,157,175,196,217,237,256,275,296,317,335,357,377,395,416,436,456,475,497,517,535,557,577,596,616,635,656,676,697,715,735,756,775,796,817,835,857,875,896,916,936,956,976,996,1017,1037],"xSR":741.5,"ySR":449.15000000000003,"xT1":424.9,"yT1":0,"xT2":1058.1,"yT2":0,"toosoon":0,"cond_shown":"Incongruent","ratio_trial":200,"L_num":4,"L_den":6,"R_num":14,"R_den":30,"correct_side":1,"subjID":"anasofiaseguracorrea","gender":"1","school":"6","age":"10"},{"start_time":1551800652022,"click_time":1551800652706,"finger_time":1551800652525,"fix_duration":814.2379679328893,"trial":9,"RT":503,"MT":181,"sideResp":1,"stimulus":[],"xmouse":[776,776,776,776,776,775,775,773,771,770,769,768,766,764,764,764,764,764,764,764,764,763,762,754,744,724,710,685,677,669,658,647,627,559,513],"ymouse":[496,496,496,496,496,495,494,494,493,493,493,492,491,490,490,490,490,490,490,490,490,490,488,480,470,449,430,392,369,343,307,264,215,121,71],"timestamp_mouse":[7,23,43,63,83,103,122,144,164,183,204,223,243,264,283,304,323,343,363,383,403,424,443,462,484,503,522,543,562,583,603,623,644,662,684],"xSR":741.5,"ySR":449.15000000000003,"xT1":424.9,"yT1":0,"xT2":1058.1,"yT2":0,"toosoon":0,"cond_shown":"Incongruent","ratio_trial":200,"L_num":1,"L_den":3,"R_num":2,"R_den":15,"correct_side":1,"subjID":"anasofiaseguracorrea","gender":"1","school":"6","age":"10"},{"start_time":1551800655201,"click_time":1551800656446,"finger_time":1551800656066,"fix_duration":1454.4524953378236,"trial":10,"RT":865,"MT":380,"sideResp":1,"stimulus":[],"xmouse":[787,787,787,787,787,787,787,787,787,787,787,787,788,788,788,788,788,788,788,788,788,788,788,788,789,790,791,793,793,794,794,794,794,794,793,792,790,787,782,768,761,754,747,730,720,705,688,671,651,624,613,602,591,577,572,566,564,560,548,535,524,515,510],"ymouse":[512,512,512,512,512,512,512,512,512,512,512,512,512,511,510,510,510,510,510,510,510,510,510,510,509,508,507,506,505,502,500,498,496,494,492,491,489,487,484,475,469,460,451,424,408,374,341,310,276,220,194,171,152,126,120,114,112,111,108,106,104,101,98],"timestamp_mouse":[8,29,43,65,84,103,124,144,165,184,203,225,245,263,284,304,324,343,364,385,404,425,444,465,485,504,525,544,564,584,604,624,644,663,683,704,724,744,763,784,804,825,843,865,884,903,925,944,964,985,1004,1024,1043,1065,1084,1104,1124,1144,1164,1183,1204,1224,1245],"xSR":741.5,"ySR":449.15000000000003,"xT1":424.9,"yT1":0,"xT2":1058.1,"yT2":0,"toosoon":0,"cond_shown":"Congruent","ratio_trial":100,"L_num":1,"L_den":2,"R_num":3,"R_den":5,"correct_side":2,"subjID":"anasofiaseguracorrea","gender":"1","school":"6","age":"10"},{"start_time":1551800658791,"click_time":1551800659785,"finger_time":1551800659405,"fix_duration":1264.189597024835,"trial":11,"RT":614,"MT":380,"sideResp":2,"stimulus":[],"xmouse":[794,794,794,794,794,794,794,794,794,794,794,794,794,794,794,794,794,794,794,794,794,794,794,794,794,794,794,796,800,831,868,918,952,973,993,997,998,998,1001,1005,1012,1019,1028,1035,1038,1039,1041,1044,1047,1060],"ymouse":[492,492,492,492,492,492,492,492,492,492,492,492,492,492,492,492,492,492,492,492,492,492,492,492,492,492,492,491,489,466,440,411,385,363,319,288,269,256,221,203,181,162,141,124,106,102,99,96,93,83],"timestamp_mouse":[14,37,54,73,94,115,134,155,174,195,215,235,254,274,294,315,334,354,375,394,413,435,455,475,494,514,535,555,573,595,614,634,653,673,695,715,734,753,774,794,814,834,854,874,894,913,934,953,973,993],"xSR":741.5,"ySR":449.15000000000003,"xT1":424.9,"yT1":0,"xT2":1058.1,"yT2":0,"toosoon":0,"cond_shown":"Congruent","ratio_trial":200,"L_num":8,"L_den":15,"R_num":2,"R_den":6,"correct_side":1,"subjID":"anasofiaseguracorrea","gender":"1","school":"6","age":"10"},{"start_time":1551800662148,"click_time":1551800663005,"finger_time":1551800662864,"fix_duration":1101.547583028069,"trial":12,"RT":716,"MT":141,"sideResp":2,"stimulus":[],"xmouse":[766,764,764,764,764,764,764,764,762,762,762,762,762,762,762,762,762,762,762,762,762,762,762,762,762,762,762,762,762,762,762,762,767,781,809,852,938,978,995,1011,1030,1073,1089],"ymouse":[489,494,495,496,496,496,496,498,500,502,502,502,502,503,502,501,501,500,500,500,500,500,500,500,500,500,500,500,500,500,500,499,492,483,461,425,327,258,217,190,161,102,81],"timestamp_mouse":[17,48,57,77,96,116,137,157,177,197,216,238,258,278,297,318,338,356,377,397,416,436,457,477,498,517,536,557,576,596,617,637,657,678,697,716,738,757,777,798,817,838,856],"xSR":741.5,"ySR":449.15000000000003,"xT1":424.9,"yT1":0,"xT2":1058.1,"yT2":0,"toosoon":0,"cond_shown":"Incongruent","ratio_trial":100,"L_num":13,"L_den":26,"R_num":6,"R_den":10,"correct_side":2,"subjID":"anasofiaseguracorrea","gender":"1","school":"6","age":"10"},{"start_time":1551800665210,"click_time":1551800666025,"finger_time":1551800665844,"fix_duration":1063.630315745931,"trial":13,"RT":634,"MT":181,"sideResp":2,"stimulus":[],"xmouse":[791,791,791,791,791,791,791,791,791,791,791,791,791,791,791,791,791,791,791,791,791,791,791,791,791,791,791,791,794,805,821,843,865,911,945,966,987,1011,1054,1066,1076],"ymouse":[516,516,516,516,516,516,516,516,516,516,516,516,516,516,516,516,516,516,516,516,516,516,516,516,516,516,516,516,510,501,489,472,451,383,319,280,243,201,127,102,78],"timestamp_mouse":[15,35,55,75,94,116,136,156,174,195,216,236,255,274,296,315,336,355,374,396,416,434,455,475,495,516,536,555,575,595,616,634,654,676,695,715,735,754,774,796,815],"xSR":741.5,"ySR":449.15000000000003,"xT1":424.9,"yT1":0,"xT2":1058.1,"yT2":0,"toosoon":0,"cond_shown":"Congruent","ratio_trial":200,"L_num":12,"L_den":20,"R_num":6,"R_den":15,"correct_side":1,"subjID":"anasofiaseguracorrea","gender":"1","school":"6","age":"10"},{"start_time":1551800668637,"click_time":1551800669385,"finger_time":1551800669284,"fix_duration":250,"trial":14,"RT":647,"MT":101,"sideResp":2,"stimulus":[],"xmouse":[807,807,807,807,807,807,807,807,807,807,807,807,805,804,803,799,797,794,794,794,794,794,794,794,794,794,794,794,793,793,800,817,890,959,1001,1036,1063,1101],"ymouse":[519,519,519,519,519,519,519,519,519,519,518,516,512,510,509,507,505,504,504,504,504,504,504,504,504,504,504,504,503,501,492,473,385,287,220,159,111,54],"timestamp_mouse":[9,30,48,68,87,109,129,149,169,188,208,229,248,269,289,308,328,348,368,388,409,428,448,468,488,509,529,548,568,587,608,628,647,667,689,709,728,748],"xSR":741.5,"ySR":449.15000000000003,"xT1":424.9,"yT1":0,"xT2":1058.1,"yT2":0,"toosoon":0,"cond_shown":"Incongruent","ratio_trial":300,"L_num":13,"L_den":26,"R_num":12,"R_den":15,"correct_side":2,"subjID":"anasofiaseguracorrea","gender":"1","school":"6","age":"10"},{"start_time":1551800671327,"click_time":1551800673445,"finger_time":1551800672945,"fix_duration":1018.2380063782264,"trial":15,"RT":1618,"MT":500,"sideResp":1,"stimulus":[],"xmouse":[774,774,774,774,774,774,774,774,774,774,774,774,774,774,774,774,774,774,774,774,774,774,774,774,774,774,774,774,774,774,774,774,774,774,774,774,774,774,774,774,774,774,774,774,774,774,774,774,774,774,774,774,774,774,774,774,774,774,776,778,781,784,785,785,785,785,785,785,785,785,785,785,785,785,785,785,783,779,766,751,734,711,656,627,608,600,596,596,596,595,594,591,579,569,559,548,535,533,533,533,533,531,529,529,526,523],"ymouse":[498,498,498,498,498,498,498,498,498,498,498,498,498,498,498,498,498,498,498,498,498,498,498,498,498,498,498,498,498,498,498,498,498,498,498,498,498,498,498,498,498,498,498,498,498,498,498,498,498,498,498,498,498,498,498,498,498,498,498,496,492,486,486,485,485,485,485,485,485,485,484,484,484,484,484,484,481,478,468,454,438,411,347,316,300,293,290,290,290,289,286,277,247,225,200,175,130,113,92,85,80,76,75,74,72,70],"timestamp_mouse":[18,38,59,78,98,118,138,158,178,198,219,237,258,278,298,317,337,358,379,397,418,437,459,479,497,519,538,559,579,597,618,638,659,677,698,717,738,759,777,799,818,837,858,878,899,919,937,958,977,998,1018,1039,1057,1079,1098,1118,1138,1159,1179,1198,1218,1239,1257,1278,1297,1317,1338,1357,1379,1398,1418,1439,1457,1479,1498,1517,1539,1559,1577,1599,1618,1638,1657,1678,1698,1719,1739,1757,1777,1798,1817,1839,1859,1878,1898,1918,1938,1958,1978,1998,2018,2039,2058,2078,2099,2118],"xSR":741.5,"ySR":449.15000000000003,"xT1":424.9,"yT1":0,"xT2":1058.1,"yT2":0,"toosoon":0,"cond_shown":"Congruent","ratio_trial":200,"L_num":9,"L_den":20,"R_num":4,"R_den":16,"correct_side":1,"subjID":"anasofiaseguracorrea","gender":"1","school":"6","age":"10"},{"start_time":1551800675628,"click_time":1551800677946,"finger_time":1551800677104,"fix_duration":1322.6876371041888,"trial":16,"RT":1476,"MT":842,"sideResp":1,"stimulus":[],"xmouse":[778,778,778,778,778,778,778,778,778,778,778,778,778,778,778,778,778,778,778,778,778,778,778,778,778,778,778,778,778,778,778,778,778,778,778,778,778,778,778,778,778,778,778,778,778,778,779,781,783,784,784,784,784,784,784,784,784,784,784,784,784,784,784,785,787,788,790,791,791,791,791,791,794,801,811,824,837,859,867,876,882,887,890,890,890,890,890,866,849,836,823,818,816,816,816,815,810,781,756,725,695,668,640,633,628,624,595,574,550,533,520,512,507,497,485,477],"ymouse":[489,489,489,489,489,489,489,489,489,489,489,489,489,489,489,489,489,489,489,489,489,489,489,489,489,489,489,489,489,489,489,489,489,489,489,489,489,489,489,489,489,489,489,489,489,489,489,488,485,482,482,480,480,480,480,480,480,480,480,480,480,480,477,475,470,467,461,460,460,459,459,457,452,435,419,400,382,345,328,311,298,287,278,277,277,277,277,277,279,281,282,282,282,282,282,282,282,282,282,281,273,263,244,224,206,188,149,134,122,115,109,104,104,103,101,99],"timestamp_mouse":[18,38,58,78,97,118,138,156,177,196,217,237,257,277,296,316,337,358,378,398,417,438,458,477,498,518,538,556,577,596,618,638,656,677,697,717,738,758,778,797,816,838,857,877,897,917,938,957,978,997,1017,1038,1057,1077,1097,1117,1136,1158,1176,1197,1217,1237,1258,1278,1297,1317,1338,1358,1376,1396,1416,1438,1457,1476,1498,1517,1537,1557,1577,1596,1618,1638,1657,1677,1698,1718,1737,1758,1777,1797,1816,1838,1858,1878,1896,1916,1938,1957,1978,1997,2017,2038,2058,2078,2096,2117,2138,2157,2177,2198,2217,2238,2256,2277,2298,2318],"xSR":741.5,"ySR":449.15000000000003,"xT1":424.9,"yT1":0,"xT2":1058.1,"yT2":0,"toosoon":0,"cond_shown":"Congruent","ratio_trial":200,"L_num":5,"L_den":10,"R_num":14,"R_den":20,"correct_side":2,"subjID":"anasofiaseguracorrea","gender":"1","school":"6","age":"10"},{"start_time":1551800680220,"click_time":1551800681685,"finger_time":1551800681345,"fix_duration":1212.9686797084098,"trial":17,"RT":1125,"MT":340,"sideResp":1,"stimulus":[],"xmouse":[795,795,795,795,795,795,795,795,795,795,795,795,795,795,795,795,795,795,795,795,795,795,795,795,795,795,795,795,795,795,795,795,795,795,795,795,795,795,795,795,795,795,795,795,795,795,795,795,795,795,795,795,795,795,792,782,768,714,675,641,614,599,586,573,570,569,568,567,556,543,526,510,486,478],"ymouse":[502,502,502,502,502,502,502,502,502,502,502,502,502,502,502,502,502,502,502,502,502,502,502,502,502,502,502,502,502,502,502,502,502,502,502,502,502,502,502,502,502,502,502,502,502,502,502,502,502,502,502,502,502,502,492,462,429,327,275,232,200,180,165,146,139,136,133,128,119,116,113,111,103,98],"timestamp_mouse":[9,29,45,65,84,105,125,145,164,184,206,224,245,266,284,306,325,344,365,384,405,426,446,464,485,506,525,546,565,585,606,624,646,666,684,704,725,744,765,784,806,825,844,865,886,906,924,945,965,984,1004,1025,1044,1066,1086,1105,1125,1145,1165,1184,1206,1226,1245,1266,1285,1305,1326,1345,1366,1385,1404,1425,1446,1464],"xSR":741.5,"ySR":449.15000000000003,"xT1":424.9,"yT1":0,"xT2":1058.1,"yT2":0,"toosoon":0,"cond_shown":"Incongruent","ratio_trial":200,"L_num":4,"L_den":5,"R_num":6,"R_den":10,"correct_side":1,"subjID":"anasofiaseguracorrea","gender":"1","school":"6","age":"10"},{"start_time":1551800684907,"click_time":1551800685926,"finger_time":1551800685565,"fix_duration":680.2491465148545,"trial":18,"RT":658,"MT":361,"sideResp":1,"stimulus":[],"xmouse":[793,793,791,789,788,788,786,786,786,786,786,786,786,786,786,786,786,786,785,784,783,782,782,782,782,781,781,781,777,774,761,750,738,702,676,643,616,582,573,566,563,561,557,556,555,553,549,542,505,486,471],"ymouse":[478,478,478,479,479,480,482,484,484,484,484,484,484,484,484,484,484,484,486,488,489,491,491,491,491,491,491,491,491,491,478,459,434,371,332,290,260,215,198,174,164,158,152,152,151,148,144,137,116,105,97],"timestamp_mouse":[18,39,59,78,99,118,138,158,179,198,218,237,258,279,297,319,338,357,379,398,417,439,458,479,498,517,539,557,578,598,618,638,658,678,699,717,737,759,777,798,819,838,858,877,898,918,937,957,978,998,1019],"xSR":741.5,"ySR":449.15000000000003,"xT1":424.9,"yT1":0,"xT2":1058.1,"yT2":0,"toosoon":0,"cond_shown":"Incongruent","ratio_trial":100,"L_num":1,"L_den":2,"R_num":8,"R_den":20,"correct_side":1,"subjID":"anasofiaseguracorrea","gender":"1","school":"6","age":"10"},{"start_time":1551800689350,"click_time":1551800690325,"finger_time":1551800689965,"fix_duration":924.7276299107427,"trial":19,"RT":615,"MT":360,"sideResp":2,"stimulus":[],"xmouse":[800,800,800,800,800,800,800,800,800,800,800,800,800,800,800,800,800,800,800,800,800,800,800,800,800,800,799,802,810,827,887,924,953,974,987,997,1010,1011,1012,1014,1018,1020,1022,1023,1025,1029,1041,1053,1069],"ymouse":[507,507,507,507,507,507,507,507,507,507,507,507,507,507,507,507,507,507,507,507,507,507,507,507,507,507,506,499,484,463,387,341,300,272,251,232,210,207,206,203,192,183,178,173,169,158,141,121,95],"timestamp_mouse":[15,41,54,75,95,114,135,155,175,195,215,236,256,275,296,316,335,354,375,395,416,434,456,476,495,516,535,555,576,596,615,634,655,676,694,715,735,756,776,795,816,834,855,875,894,916,934,955,975],"xSR":741.5,"ySR":449.15000000000003,"xT1":424.9,"yT1":0,"xT2":1058.1,"yT2":0,"toosoon":0,"cond_shown":"Incongruent","ratio_trial":200,"L_num":14,"L_den":30,"R_num":6,"R_den":9,"correct_side":2,"subjID":"anasofiaseguracorrea","gender":"1","school":"6","age":"10"},{"start_time":1551800691806,"click_time":1551800693026,"finger_time":1551800692805,"fix_duration":421.9577060800739,"trial":20,"RT":999,"MT":221,"sideResp":2,"stimulus":[],"xmouse":[790,790,790,790,790,790,790,790,790,790,790,790,790,790,790,790,790,790,790,790,790,790,790,790,790,790,790,790,790,790,790,790,790,790,790,790,790,790,790,790,790,792,795,798,798,800,801,812,822,831,842,854,875,930,974,998,1017,1032,1051,1057,1060],"ymouse":[497,497,497,497,497,497,497,497,497,497,497,497,497,497,497,497,497,497,497,497,497,497,497,497,497,497,497,497,497,497,497,497,497,497,497,497,497,497,497,497,497,495,493,491,491,489,488,475,460,443,422,394,352,259,184,142,110,87,61,55,54],"timestamp_mouse":[18,39,59,79,98,119,138,158,180,200,219,239,260,278,299,318,339,358,379,399,419,438,460,478,499,520,539,559,578,600,620,639,658,678,699,720,739,759,780,800,819,839,860,880,898,919,939,959,980,999,1019,1039,1060,1080,1100,1120,1139,1159,1179,1198,1220],"xSR":741.5,"ySR":449.15000000000003,"xT1":424.9,"yT1":0,"xT2":1058.1,"yT2":0,"toosoon":0,"cond_shown":"Incongruent","ratio_trial":100,"L_num":8,"L_den":16,"R_num":6,"R_den":10,"correct_side":2,"subjID":"anasofiaseguracorrea","gender":"1","school":"6","age":"10"},{"start_time":1551800694232,"click_time":1551800695665,"finger_time":1551800695165,"fix_duration":346.3772415255805,"trial":21,"RT":933,"MT":500,"sideResp":2,"stimulus":[],"xmouse":[765,766,766,766,766,767,768,770,771,772,773,773,773,773,773,774,774,774,775,775,775,775,775,775,775,775,775,775,775,775,775,775,775,775,775,775,775,775,775,775,775,778,787,797,809,824,857,874,892,909,924,944,953,967,982,997,1028,1036,1039,1040,1040,1040,1042,1043,1045,1045,1051,1054,1058,1061,1065,1078],"ymouse":[497,497,497,497,497,496,496,496,496,496,495,495,495,495,495,495,495,495,495,495,495,495,495,495,495,495,495,495,495,495,495,495,495,495,495,495,495,495,495,495,495,494,488,481,472,461,429,410,390,370,352,318,300,273,252,229,184,169,159,156,154,154,151,148,144,142,133,128,123,118,113,95],"timestamp_mouse":[13,34,54,73,92,114,133,153,174,193,212,233,254,273,293,313,332,354,373,393,413,433,452,473,493,512,533,552,573,593,613,634,653,672,693,713,732,754,773,794,812,833,854,874,893,914,933,953,973,994,1014,1034,1053,1073,1093,1112,1134,1153,1173,1193,1213,1234,1253,1274,1293,1313,1333,1353,1374,1393,1414,1433],"xSR":741.5,"ySR":449.15000000000003,"xT1":424.9,"yT1":0,"xT2":1058.1,"yT2":0,"toosoon":0,"cond_shown":"Congruent","ratio_trial":300,"L_num":3,"L_den":6,"R_num":4,"R_den":5,"correct_side":2,"subjID":"anasofiaseguracorrea","gender":"1","school":"6","age":"10"},{"start_time":1551800696916,"click_time":1551800698425,"finger_time":1551800697686,"fix_duration":250,"trial":22,"RT":770,"MT":739,"sideResp":2,"stimulus":[],"xmouse":[788,788,788,788,788,788,788,788,788,788,788,788,788,788,788,788,788,788,788,788,788,788,788,788,788,788,788,788,788,788,788,788,788,788,784,778,760,746,736,735,735,735,735,735,735,735,735,735,735,735,735,736,752,765,779,791,804,834,858,910,943,974,1012,1026,1042,1054,1064,1071,1074,1074,1074,1074,1074,1085,1093,1099],"ymouse":[507,507,505,505,505,505,505,505,505,505,505,505,505,505,505,505,505,505,505,505,505,505,505,505,505,505,505,505,505,505,505,505,505,505,501,496,482,472,465,464,464,464,464,464,464,464,464,464,464,464,464,464,465,466,466,466,463,445,427,384,354,325,281,259,230,208,192,177,168,166,166,166,163,127,101,78],"timestamp_mouse":[8,30,50,69,89,109,129,150,169,189,209,230,249,270,289,310,328,350,369,388,410,429,450,470,488,510,530,548,569,589,609,628,650,670,688,710,730,749,770,789,808,829,848,870,889,909,928,948,968,989,1009,1028,1049,1069,1089,1109,1129,1149,1168,1188,1208,1229,1250,1269,1289,1308,1330,1350,1369,1388,1409,1430,1449,1470,1488,1509],"xSR":741.5,"ySR":449.15000000000003,"xT1":424.9,"yT1":0,"xT2":1058.1,"yT2":0,"toosoon":0,"cond_shown":"Congruent","ratio_trial":200,"L_num":3,"L_den":10,"R_num":14,"R_den":28,"correct_side":2,"subjID":"anasofiaseguracorrea","gender":"1","school":"6","age":"10"},{"start_time":1551800700262,"click_time":1551800701503,"finger_time":1551800701083,"fix_duration":1216.3418910968842,"trial":23,"RT":821,"MT":420,"sideResp":1,"stimulus":[],"xmouse":[778,778,778,778,778,778,778,778,778,778,778,778,778,778,778,778,778,778,778,779,782,783,784,784,784,784,784,784,784,784,784,784,784,784,784,784,784,781,778,772,749,717,693,660,641,612,605,598,595,592,589,565,549,541,536,535,532,527,521,516,513,512,511],"ymouse":[506,506,506,506,506,506,506,506,506,506,506,506,506,506,506,506,506,506,507,507,510,510,511,511,511,511,511,511,511,511,511,511,511,511,511,511,511,510,510,506,490,464,442,412,388,341,320,298,277,255,235,189,171,161,152,145,125,117,110,105,103,100,97],"timestamp_mouse":[7,31,43,62,83,102,122,143,163,182,203,223,242,261,282,302,321,342,362,382,403,421,442,462,481,503,522,543,563,583,602,623,642,662,683,702,723,743,762,782,802,821,841,863,882,902,921,942,962,983,1002,1021,1043,1062,1083,1103,1122,1142,1162,1182,1201,1221,1241],"xSR":741.5,"ySR":449.15000000000003,"xT1":424.9,"yT1":0,"xT2":1058.1,"yT2":0,"toosoon":0,"cond_shown":"Incongruent","ratio_trial":300,"L_num":8,"L_den":10,"R_num":14,"R_den":28,"correct_side":1,"subjID":"anasofiaseguracorrea","gender":"1","school":"6","age":"10"},{"start_time":1551800702636,"click_time":1551800703884,"finger_time":1551800703364,"fix_duration":250,"trial":24,"RT":728,"MT":520,"sideResp":1,"stimulus":[],"xmouse":[778,778,778,778,779,780,780,780,780,780,780,780,780,780,780,780,780,780,780,780,780,780,780,780,780,780,780,780,780,780,780,780,780,780,772,757,712,683,663,647,634,619,614,613,613,613,608,593,585,580,578,576,574,566,560,555,543,541,538,535,532,525,519],"ymouse":[521,521,521,521,521,521,521,521,521,521,521,521,521,521,521,521,521,521,521,521,521,521,521,521,521,521,521,521,521,521,521,521,521,521,515,499,450,415,387,363,340,306,291,273,260,250,231,201,189,181,175,163,157,142,136,130,122,119,116,113,107,97,92],"timestamp_mouse":[8,30,47,68,87,107,129,148,168,188,208,227,247,268,288,308,337,347,367,388,408,428,448,468,488,507,529,548,567,587,607,629,647,667,688,708,728,747,767,787,808,828,848,867,887,908,927,948,968,988,1007,1029,1048,1069,1088,1108,1128,1147,1168,1189,1208,1228,1248],"xSR":741.5,"ySR":449.15000000000003,"xT1":424.9,"yT1":0,"xT2":1058.1,"yT2":0,"toosoon":0,"cond_shown":"Incongruent","ratio_trial":200,"L_num":7,"L_den":10,"R_num":12,"R_den":24,"correct_side":1,"subjID":"anasofiaseguracorrea","gender":"1","school":"6","age":"10"},{"start_time":1551800705161,"click_time":1551800706083,"finger_time":1551800705865,"fix_duration":374.42599877151605,"trial":25,"RT":704,"MT":218,"sideResp":1,"stimulus":[],"xmouse":[787,787,787,787,787,787,787,787,787,787,787,787,787,787,787,787,787,787,787,787,787,787,787,787,787,787,787,787,787,787,787,787,783,777,758,738,700,687,669,660,640,622,603,580,562,524,488],"ymouse":[498,498,498,498,498,498,498,498,498,498,498,498,498,498,498,498,498,498,498,498,498,498,498,498,498,498,498,498,498,498,498,498,495,491,476,458,421,402,375,357,314,283,249,214,184,120,80],"timestamp_mouse":[7,22,42,64,83,103,123,143,162,182,203,222,242,263,283,302,323,342,363,383,403,422,444,464,482,503,522,543,562,582,602,622,642,662,683,704,724,742,763,782,804,822,842,863,883,904,922],"xSR":741.5,"ySR":449.15000000000003,"xT1":424.9,"yT1":0,"xT2":1058.1,"yT2":0,"toosoon":0,"cond_shown":"Incongruent","ratio_trial":200,"L_num":7,"L_den":10,"R_num":12,"R_den":24,"correct_side":1,"subjID":"anasofiaseguracorrea","gender":"1","school":"6","age":"10"},{"start_time":1551800708542,"click_time":1551800709683,"finger_time":1551800709444,"fix_duration":1458.1115427015511,"trial":26,"RT":902,"MT":239,"sideResp":2,"stimulus":[],"xmouse":[793,792,792,791,791,791,791,791,791,791,791,791,791,791,791,791,791,791,791,791,791,791,791,791,791,791,791,791,791,791,791,791,791,792,793,795,800,808,812,813,814,817,819,823,832,842,887,918,957,986,1015,1045,1097,1116,1131,1139,1142,1143],"ymouse":[506,506,506,506,506,506,506,506,506,506,506,506,506,506,506,506,506,506,506,506,506,506,506,506,506,506,506,506,506,506,506,506,506,505,505,505,502,493,489,486,482,476,471,465,453,439,383,346,286,242,208,177,135,121,111,105,101,98],"timestamp_mouse":[8,34,42,62,81,101,121,143,162,182,202,223,243,261,283,301,321,342,362,383,401,421,442,462,481,503,522,543,562,581,602,623,641,662,682,701,721,742,763,782,801,822,841,861,883,902,922,941,962,982,1003,1022,1043,1061,1081,1101,1122,1141],"xSR":741.5,"ySR":449.15000000000003,"xT1":424.9,"yT1":0,"xT2":1058.1,"yT2":0,"toosoon":0,"cond_shown":"Incongruent","ratio_trial":200,"L_num":6,"L_den":20,"R_num":3,"R_den":6,"correct_side":2,"subjID":"anasofiaseguracorrea","gender":"1","school":"6","age":"10"},{"start_time":1551800710894,"click_time":1551800711983,"finger_time":1551800711564,"fix_duration":250,"trial":27,"RT":670,"MT":419,"sideResp":2,"stimulus":[],"xmouse":[796,796,796,796,796,796,796,796,796,796,796,796,796,796,796,796,796,796,796,796,796,795,795,794,793,793,793,793,793,793,793,794,803,843,876,910,933,945,964,974,978,983,987,994,999,1004,1011,1018,1033,1039,1045,1049,1053,1058,1065],"ymouse":[508,508,508,508,508,508,508,508,508,508,508,508,508,508,508,508,508,508,508,508,508,508,508,508,508,508,508,508,508,508,508,506,493,458,435,411,388,368,326,301,286,272,261,242,230,220,203,190,161,148,134,124,116,106,95],"timestamp_mouse":[9,33,50,70,89,110,129,149,170,189,210,229,249,271,290,309,330,350,369,391,409,431,450,470,491,510,529,550,569,590,610,631,650,670,689,709,731,750,770,789,809,829,851,870,889,909,930,950,971,990,1009,1029,1049,1071,1089],"xSR":741.5,"ySR":449.15000000000003,"xT1":424.9,"yT1":0,"xT2":1058.1,"yT2":0,"toosoon":0,"cond_shown":"Incongruent","ratio_trial":300,"L_num":4,"L_den":20,"R_num":2,"R_den":4,"correct_side":2,"subjID":"anasofiaseguracorrea","gender":"1","school":"6","age":"10"},{"start_time":1551800713538,"click_time":1551800714765,"finger_time":1551800714544,"fix_duration":613.4365280402723,"trial":28,"RT":1006,"MT":221,"sideResp":2,"stimulus":[],"xmouse":[757,757,757,757,758,759,760,764,766,769,771,772,772,773,775,776,777,777,777,777,777,778,778,778,778,778,778,778,778,778,778,778,778,778,778,778,778,778,778,778,778,778,778,778,778,778,782,788,808,828,857,888,957,980,999,1015,1036,1048,1062,1073,1081,1091],"ymouse":[523,523,523,523,523,523,523,523,523,523,523,523,523,523,523,523,523,523,523,523,523,523,523,523,523,523,523,523,523,523,523,523,523,523,523,523,523,523,523,523,523,523,523,523,523,523,523,517,496,470,429,385,289,258,230,207,173,157,137,122,110,93],"timestamp_mouse":[8,38,46,66,86,105,126,145,166,187,205,227,247,266,286,306,326,346,366,386,406,427,447,466,487,506,526,546,566,586,606,625,647,665,685,705,727,745,765,786,806,826,845,865,886,905,926,947,965,986,1006,1026,1046,1065,1085,1106,1126,1145,1166,1185,1206,1227],"xSR":741.5,"ySR":449.15000000000003,"xT1":424.9,"yT1":0,"xT2":1058.1,"yT2":0,"toosoon":0,"cond_shown":"Incongruent","ratio_trial":100,"L_num":10,"L_den":25,"R_num":9,"R_den":18,"correct_side":2,"subjID":"anasofiaseguracorrea","gender":"1","school":"6","age":"10"},{"start_time":1551800716024,"click_time":1551800717284,"finger_time":1551800716944,"fix_duration":278.44411972560323,"trial":29,"RT":920,"MT":340,"sideResp":2,"stimulus":[],"xmouse":[769,769,769,769,769,769,769,769,769,769,769,769,769,769,769,769,769,769,769,770,771,774,778,780,782,784,785,785,785,785,785,785,785,785,785,785,785,785,785,785,788,793,799,812,831,854,886,962,994,1025,1045,1057,1067,1069,1071,1073,1077,1078,1079,1080,1080,1082,1088],"ymouse":[506,506,506,506,506,506,506,506,506,506,506,506,506,506,506,506,506,506,506,506,506,506,506,506,506,506,506,506,506,506,506,506,506,506,506,506,506,506,506,506,505,500,496,483,464,440,405,316,272,228,200,183,167,161,156,151,140,134,131,128,124,118,96],"timestamp_mouse":[20,39,60,79,100,119,141,159,180,199,220,240,260,280,299,319,340,360,380,399,420,440,459,480,499,519,539,561,579,600,620,639,661,680,701,719,741,760,779,800,821,840,860,880,901,920,939,959,979,1001,1021,1040,1061,1079,1099,1119,1139,1159,1179,1200,1220,1240,1260],"xSR":741.5,"ySR":449.15000000000003,"xT1":424.9,"yT1":0,"xT2":1058.1,"yT2":0,"toosoon":0,"cond_shown":"Incongruent","ratio_trial":100,"L_num":13,"L_den":26,"R_num":12,"R_den":20,"correct_side":2,"subjID":"anasofiaseguracorrea","gender":"1","school":"6","age":"10"},{"start_time":1551800719093,"click_time":1551800720764,"finger_time":1551800720144,"fix_duration":808.7575080802441,"trial":30,"RT":1051,"MT":620,"sideResp":1,"stimulus":[],"xmouse":[798,798,798,798,798,798,798,798,798,798,798,798,798,798,798,798,798,798,798,798,798,798,798,798,798,797,795,793,792,792,792,792,792,792,792,792,792,792,792,792,792,792,792,792,792,792,792,792,792,800,813,831,850,884,896,904,909,913,922,933,941,947,952,957,958,958,958,958,958,958,958,958,958,958,958,958,952,934,844,720,631,560,529,522],"ymouse":[517,517,517,517,517,517,517,517,517,517,517,517,517,517,517,517,517,517,517,517,517,517,517,517,517,517,517,517,517,517,517,517,517,517,517,517,517,517,517,517,517,517,517,517,517,517,517,517,517,504,488,468,450,411,397,384,374,365,345,323,309,296,284,268,266,264,264,264,264,264,264,264,264,264,264,259,249,235,200,164,140,117,102,94],"timestamp_mouse":[10,33,51,71,90,110,132,151,171,190,211,230,252,272,291,311,331,351,371,391,411,432,450,471,491,510,530,550,571,591,611,630,652,670,690,710,730,750,770,792,812,831,852,871,890,911,930,952,972,991,1011,1031,1051,1072,1090,1110,1132,1152,1171,1190,1210,1230,1251,1271,1291,1310,1330,1351,1370,1390,1411,1432,1450,1471,1491,1512,1531,1551,1571,1591,1610,1631,1651,1671],"xSR":741.5,"ySR":449.15000000000003,"xT1":424.9,"yT1":0,"xT2":1058.1,"yT2":0,"toosoon":0,"cond_shown":"Congruent","ratio_trial":200,"L_num":14,"L_den":28,"R_num":6,"R_den":20,"correct_side":1,"subjID":"anasofiaseguracorrea","gender":"1","school":"6","age":"10"},{"start_time":1551800722173,"click_time":1551800723604,"finger_time":1551800723203,"fix_duration":307.60048096275403,"trial":31,"RT":1030,"MT":401,"sideResp":2,"stimulus":[],"xmouse":[787,787,787,787,787,787,787,787,787,787,787,787,787,787,787,787,787,787,787,787,787,787,787,787,787,787,787,787,787,787,787,787,787,787,787,787,787,787,787,787,787,787,787,787,787,787,787,788,795,818,835,853,877,907,938,979,996,1005,1012,1023,1029,1035,1040,1045,1051,1053,1057,1058,1061,1066,1069,1072],"ymouse":[501,501,501,501,501,501,501,501,501,501,501,501,501,501,501,501,501,501,501,501,501,501,501,501,501,501,501,501,501,501,501,501,501,501,501,501,501,501,501,501,501,501,501,501,501,501,501,501,494,471,453,432,402,367,332,285,262,247,234,209,196,187,178,167,152,144,134,129,122,111,104,99],"timestamp_mouse":[10,37,51,72,91,110,131,150,170,192,210,230,252,270,290,310,332,350,371,391,410,430,452,470,492,510,531,552,571,590,611,631,652,670,692,710,731,751,770,791,811,830,852,871,890,912,930,952,970,992,1010,1030,1050,1071,1092,1112,1130,1151,1170,1192,1210,1230,1250,1271,1291,1311,1330,1350,1370,1391,1410,1431],"xSR":741.5,"ySR":449.15000000000003,"xT1":424.9,"yT1":0,"xT2":1058.1,"yT2":0,"toosoon":0,"cond_shown":"Congruent","ratio_trial":300,"L_num":24,"L_den":30,"R_num":2,"R_den":4,"correct_side":1,"subjID":"anasofiaseguracorrea","gender":"1","school":"6","age":"10"},{"start_time":1551800725554,"click_time":1551800727043,"finger_time":1551800726585,"fix_duration":969.5134351892746,"trial":32,"RT":1031,"MT":458,"sideResp":2,"stimulus":[],"xmouse":[788,788,788,788,788,788,788,788,788,788,788,788,788,788,788,788,788,788,788,788,791,793,794,794,794,794,794,794,794,794,794,794,794,794,794,794,794,794,794,791,790,790,790,790,790,790,790,790,795,808,821,850,862,874,883,909,940,951,980,994,1015,1020,1022,1024,1027,1031,1043,1054,1059,1061,1062,1064,1065,1067,1071],"ymouse":[526,526,526,526,526,526,526,526,526,526,526,526,526,526,526,526,526,526,526,526,526,525,524,524,524,524,524,524,524,524,524,524,524,524,524,524,524,524,524,524,524,524,524,524,524,524,524,523,509,491,471,434,416,398,382,339,297,280,239,213,171,160,154,150,145,139,125,115,110,108,107,104,103,101,98],"timestamp_mouse":[10,39,49,70,91,110,130,150,170,189,209,229,250,270,289,310,331,350,370,389,411,431,449,471,489,511,531,549,571,590,610,630,650,669,689,711,729,749,771,791,811,829,850,869,891,909,931,949,970,989,1010,1030,1049,1069,1090,1111,1129,1150,1170,1189,1211,1229,1250,1270,1289,1309,1330,1349,1369,1389,1410,1431,1451,1469,1489],"xSR":741.5,"ySR":449.15000000000003,"xT1":424.9,"yT1":0,"xT2":1058.1,"yT2":0,"toosoon":0,"cond_shown":"Incongruent","ratio_trial":100,"L_num":13,"L_den":26,"R_num":12,"R_den":20,"correct_side":2,"subjID":"anasofiaseguracorrea","gender":"1","school":"6","age":"10"},{"start_time":1551800729215,"click_time":1551800730064,"finger_time":1551800729883,"fix_duration":1229.6634173256098,"trial":33,"RT":668,"MT":181,"sideResp":2,"stimulus":[],"xmouse":[772,772,772,772,772,772,772,772,772,772,772,772,772,774,774,775,775,775,775,775,776,779,782,783,783,783,783,783,783,783,786,791,829,898,950,997,1034,1084,1101,1115,1129,1141,1158],"ymouse":[505,505,505,505,505,505,505,505,505,505,505,505,506,506,506,506,506,506,506,506,506,506,507,507,507,507,507,507,507,507,507,506,473,412,364,317,274,202,171,149,130,114,94],"timestamp_mouse":[8,30,49,68,89,109,128,149,170,188,208,228,249,270,289,308,330,348,368,390,409,429,449,470,488,508,529,550,569,588,609,628,649,668,688,709,728,749,769,788,809,829,849],"xSR":741.5,"ySR":449.15000000000003,"xT1":424.9,"yT1":0,"xT2":1058.1,"yT2":0,"toosoon":0,"cond_shown":"Incongruent","ratio_trial":100,"L_num":12,"L_den":30,"R_num":2,"R_den":4,"correct_side":2,"subjID":"anasofiaseguracorrea","gender":"1","school":"6","age":"10"},{"start_time":1551800732152,"click_time":1551800733245,"finger_time":1551800732964,"fix_duration":807.5543028339122,"trial":34,"RT":812,"MT":281,"sideResp":1,"stimulus":[],"xmouse":[774,774,774,774,774,774,774,774,774,774,774,774,774,774,774,774,774,774,774,774,774,774,774,774,774,774,774,774,771,761,747,744,744,743,743,743,743,743,743,743,741,731,722,708,690,639,599,578,561,545,528,526,526,525,523],"ymouse":[503,503,503,503,503,503,503,503,503,503,503,503,503,503,503,503,503,503,503,503,503,503,503,503,503,503,503,503,503,503,503,503,503,503,503,503,503,503,503,503,498,475,454,424,386,277,203,164,130,103,64,54,45,38,32],"timestamp_mouse":[13,33,51,72,92,111,132,151,172,191,211,232,252,271,293,311,331,352,371,393,412,431,451,473,493,512,532,551,572,593,612,631,652,672,691,712,732,751,773,792,812,832,851,873,893,912,931,951,972,992,1014,1031,1051,1072,1093],"xSR":741.5,"ySR":449.15000000000003,"xT1":424.9,"yT1":0,"xT2":1058.1,"yT2":0,"toosoon":0,"cond_shown":"Incongruent","ratio_trial":200,"L_num":7,"L_den":10,"R_num":12,"R_den":24,"correct_side":1,"subjID":"anasofiaseguracorrea","gender":"1","school":"6","age":"10"},{"start_time":1551800734896,"click_time":1551800736965,"finger_time":1551800736364,"fix_duration":569.3677466835733,"trial":35,"RT":1468,"MT":601,"sideResp":1,"stimulus":[],"xmouse":[800,800,800,800,800,800,800,800,800,800,800,800,800,800,800,800,800,800,800,800,800,800,800,800,800,800,800,800,800,800,800,800,800,800,800,803,806,811,817,818,818,818,818,818,818,818,818,818,818,818,818,818,818,818,818,818,818,818,818,818,818,818,818,818,817,815,813,810,802,799,796,792,784,736,694,670,654,648,642,639,628,620,614,610,609,608,607,604,591,576,543,523,510,500,498,497,497,497,498,499,499,499,500,500],"ymouse":[494,494,494,494,494,494,494,494,494,494,494,494,494,494,494,494,494,494,494,494,494,494,494,494,494,494,494,494,494,494,494,494,494,494,494,495,495,492,487,486,486,486,486,486,486,486,486,486,486,486,486,486,486,486,486,486,486,485,485,485,485,485,485,484,484,483,482,480,478,477,475,473,467,436,412,393,377,359,326,308,279,262,248,234,232,230,228,224,216,207,185,171,158,141,137,135,132,130,123,118,113,109,104,98],"timestamp_mouse":[7,31,47,68,88,107,128,147,168,188,209,227,248,269,287,307,329,349,368,388,409,427,448,469,489,507,528,549,569,589,608,628,648,668,689,708,727,748,768,787,808,828,848,869,887,907,927,949,967,989,1007,1029,1047,1069,1087,1109,1129,1148,1168,1189,1208,1228,1247,1267,1288,1307,1327,1347,1368,1388,1408,1428,1447,1468,1487,1508,1527,1547,1569,1587,1608,1628,1648,1668,1687,1708,1728,1748,1769,1787,1808,1828,1847,1869,1888,1907,1928,1948,1968,1987,2008,2027,2047,2068],"xSR":741.5,"ySR":449.15000000000003,"xT1":424.9,"yT1":0,"xT2":1058.1,"yT2":0,"toosoon":0,"cond_shown":"Congruent","ratio_trial":200,"L_num":8,"L_den":15,"R_num":3,"R_den":9,"correct_side":1,"subjID":"anasofiaseguracorrea","gender":"1","school":"6","age":"10"},{"start_time":1551800738116,"click_time":1551800739504,"finger_time":1551800739104,"fix_duration":250,"trial":36,"RT":988,"MT":400,"sideResp":2,"stimulus":[],"xmouse":[800,800,800,800,800,800,800,800,800,800,800,800,800,800,800,800,800,800,800,800,800,800,800,800,800,800,800,800,800,800,800,800,800,800,800,800,800,800,800,800,800,800,800,800,800,800,800,805,825,860,881,904,921,934,936,941,946,966,982,995,1007,1019,1031,1033,1033,1034,1035,1041,1047,1059],"ymouse":[479,479,479,479,479,479,479,479,479,479,479,479,479,479,479,479,479,479,479,479,479,479,479,479,479,479,479,479,479,479,479,479,479,479,479,479,479,479,479,479,479,479,479,479,479,479,479,480,471,449,429,398,364,308,285,262,243,197,160,134,114,97,83,82,82,81,81,80,77,72],"timestamp_mouse":[8,28,48,69,87,108,129,149,167,187,207,229,247,268,288,308,328,347,369,388,407,428,448,467,488,508,527,548,567,589,607,627,649,667,688,709,727,748,767,787,809,828,848,867,888,907,929,948,968,988,1007,1027,1048,1068,1087,1109,1129,1148,1167,1188,1207,1227,1248,1268,1288,1307,1327,1348,1368,1388],"xSR":741.5,"ySR":449.15000000000003,"xT1":424.9,"yT1":0,"xT2":1058.1,"yT2":0,"toosoon":0,"cond_shown":"Congruent","ratio_trial":300,"L_num":1,"L_den":5,"R_num":3,"R_den":6,"correct_side":2,"subjID":"anasofiaseguracorrea","gender":"1","school":"6","age":"10"},{"start_time":1551800741775,"click_time":1551800742724,"finger_time":1551800742504,"fix_duration":1371.070594888749,"trial":37,"RT":729,"MT":220,"sideResp":2,"stimulus":[],"xmouse":[793,793,793,793,793,793,793,793,793,793,793,793,793,793,793,793,793,793,793,793,793,793,793,793,793,793,793,793,793,794,798,801,806,810,814,829,853,877,905,927,959,972,986,1001,1016,1050,1077,1090],"ymouse":[501,501,501,501,501,501,501,501,501,501,501,501,501,501,501,501,501,501,501,501,501,501,501,501,501,501,501,501,501,501,497,494,491,488,483,461,428,392,358,327,284,263,240,214,188,138,101,78],"timestamp_mouse":[14,36,49,68,89,109,130,149,168,189,209,228,249,268,290,309,330,348,369,389,408,429,449,468,489,508,528,548,568,588,609,628,650,670,688,709,729,748,768,789,809,829,848,868,889,909,929,949],"xSR":741.5,"ySR":449.15000000000003,"xT1":424.9,"yT1":0,"xT2":1058.1,"yT2":0,"toosoon":0,"cond_shown":"Incongruent","ratio_trial":200,"L_num":7,"L_den":15,"R_num":6,"R_den":9,"correct_side":2,"subjID":"anasofiaseguracorrea","gender":"1","school":"6","age":"10"},{"start_time":1551800743956,"click_time":1551800745384,"finger_time":1551800745025,"fix_duration":250,"trial":38,"RT":1069,"MT":359,"sideResp":2,"stimulus":[],"xmouse":[785,785,785,785,785,785,785,785,785,785,785,785,785,785,785,785,785,785,785,785,785,785,785,785,785,785,785,785,785,785,785,785,785,785,785,785,785,785,785,785,785,785,785,785,785,785,785,785,787,790,794,818,833,847,857,868,884,897,907,915,931,940,950,959,971,981,1008,1029,1044,1056,1068,1077],"ymouse":[497,497,497,497,497,497,497,497,497,497,497,497,497,497,497,497,497,497,497,497,497,497,497,497,497,497,497,497,497,497,497,497,497,497,497,497,497,497,497,497,497,497,497,497,497,497,497,497,497,497,494,476,463,450,439,423,389,365,351,337,307,291,275,262,247,233,200,170,149,128,108,90],"timestamp_mouse":[8,37,47,67,88,109,128,148,167,188,208,228,248,268,287,308,329,348,368,388,408,428,447,467,487,507,528,548,569,587,607,627,647,668,689,709,727,748,767,788,808,827,847,867,889,908,928,948,968,987,1009,1027,1047,1069,1087,1108,1128,1147,1168,1189,1208,1227,1248,1267,1288,1307,1327,1349,1369,1387,1407,1428],"xSR":741.5,"ySR":449.15000000000003,"xT1":424.9,"yT1":0,"xT2":1058.1,"yT2":0,"toosoon":0,"cond_shown":"Congruent","ratio_trial":100,"L_num":11,"L_den":22,"R_num":4,"R_den":10,"correct_side":1,"subjID":"anasofiaseguracorrea","gender":"1","school":"6","age":"10"},{"start_time":1551800746515,"click_time":1551800747603,"finger_time":1551800747304,"fix_duration":250,"trial":39,"RT":789,"MT":299,"sideResp":2,"stimulus":[],"xmouse":[802,796,792,792,792,792,792,792,792,792,792,792,792,792,792,792,792,792,792,792,792,792,792,792,792,792,792,792,792,792,792,792,792,792,792,792,796,804,835,898,932,957,986,995,1007,1020,1035,1060,1075,1085,1092,1096,1100,1103,1105],"ymouse":[506,506,504,504,504,504,504,504,504,504,504,504,504,504,504,504,504,504,504,504,504,504,504,504,504,504,504,504,504,504,504,504,504,504,504,504,501,495,472,420,384,346,295,276,257,239,219,180,152,137,126,119,108,103,97],"timestamp_mouse":[8,29,50,69,89,109,130,148,168,190,210,229,249,268,289,309,329,348,369,388,410,429,448,470,489,509,529,549,569,589,610,629,648,669,689,709,728,749,769,789,808,829,850,868,889,910,928,950,968,989,1009,1029,1050,1068,1088],"xSR":741.5,"ySR":449.15000000000003,"xT1":424.9,"yT1":0,"xT2":1058.1,"yT2":0,"toosoon":0,"cond_shown":"Congruent","ratio_trial":300,"L_num":8,"L_den":15,"R_num":10,"R_den":12,"correct_side":2,"subjID":"anasofiaseguracorrea","gender":"1","school":"6","age":"10"},{"start_time":1551800749087,"click_time":1551800750125,"finger_time":1551800749824,"fix_duration":540.3250090266856,"trial":40,"RT":737,"MT":301,"sideResp":2,"stimulus":[],"xmouse":[793,793,793,793,793,793,793,793,793,793,793,793,793,793,793,793,793,793,793,793,793,793,793,793,793,793,793,793,793,793,793,793,793,798,811,829,848,870,889,921,939,950,959,971,978,987,999,1011,1045,1058,1066,1073],"ymouse":[495,495,495,495,495,495,495,495,495,495,495,495,495,495,495,495,495,495,495,495,495,495,495,495,495,495,495,495,495,495,495,495,495,491,480,465,443,416,395,345,312,291,277,259,251,237,220,200,140,119,103,91],"timestamp_mouse":[18,38,56,76,98,116,136,156,178,197,217,236,257,276,297,317,336,357,377,398,416,436,458,477,497,516,538,557,576,598,616,637,657,676,697,716,737,757,777,797,816,837,857,877,897,917,936,956,978,997,1016,1038],"xSR":741.5,"ySR":449.15000000000003,"xT1":424.9,"yT1":0,"xT2":1058.1,"yT2":0,"toosoon":0,"cond_shown":"Congruent","ratio_trial":300,"L_num":8,"L_den":15,"R_num":10,"R_den":12,"correct_side":2,"subjID":"anasofiaseguracorrea","gender":"1","school":"6","age":"10"},{"start_time":1551800752365,"click_time":1551800753484,"finger_time":1551800753124,"fix_duration":1419.9876798541372,"trial":41,"RT":759,"MT":360,"sideResp":2,"stimulus":[],"xmouse":[780,780,780,780,780,780,780,780,780,780,780,780,780,780,780,780,780,780,780,780,780,780,780,780,780,780,780,780,780,780,780,780,780,783,785,799,812,835,850,881,895,910,925,943,972,988,1006,1017,1026,1038,1043,1052,1061,1071,1092,1101],"ymouse":[493,493,493,493,493,493,493,493,493,493,493,493,493,493,493,493,493,493,493,493,493,493,493,493,493,493,493,493,493,493,493,493,493,490,487,471,456,430,413,376,357,339,316,290,240,217,192,179,169,158,155,148,143,134,110,95],"timestamp_mouse":[28,39,59,80,98,118,139,158,178,199,219,238,259,278,299,319,339,358,379,399,420,438,458,479,499,519,538,558,579,600,620,639,658,678,698,718,739,759,778,799,818,839,860,878,900,918,939,960,980,999,1018,1038,1059,1079,1099,1118],"xSR":741.5,"ySR":449.15000000000003,"xT1":424.9,"yT1":0,"xT2":1058.1,"yT2":0,"toosoon":0,"cond_shown":"Incongruent","ratio_trial":300,"L_num":13,"L_den":26,"R_num":12,"R_den":15,"correct_side":2,"subjID":"anasofiaseguracorrea","gender":"1","school":"6","age":"10"},{"start_time":1551800754522,"click_time":1551800756565,"finger_time":1551800756203,"fix_duration":317.4486627761034,"trial":42,"RT":1681,"MT":362,"sideResp":1,"stimulus":[],"xmouse":[788,788,788,788,788,788,787,784,781,780,780,780,780,780,780,780,780,780,780,780,780,780,780,780,780,780,780,780,780,780,780,780,780,780,780,780,780,780,780,780,780,780,780,780,780,780,780,780,779,781,786,791,798,803,803,803,803,803,803,803,803,803,803,803,803,803,803,803,803,803,803,803,799,795,792,789,787,786,786,786,786,786,785,783,775,758,728,678,599,580,572,568,563,561,560,560,560,559,559,551,540,525,487],"ymouse":[508,508,508,508,508,508,508,508,507,506,506,506,506,506,506,506,506,506,506,506,506,506,506,506,506,506,506,506,506,506,506,506,506,506,506,506,506,506,506,506,506,506,506,506,506,506,506,506,505,501,495,490,483,479,478,478,478,478,478,478,478,478,478,478,478,478,478,477,477,477,476,476,472,468,463,460,458,456,456,456,456,456,456,453,446,434,412,378,293,252,225,204,181,177,176,176,176,171,166,149,135,120,97],"timestamp_mouse":[8,21,41,61,81,101,121,142,162,181,202,221,241,263,281,302,322,341,361,383,402,421,443,461,482,501,521,541,563,582,602,622,642,662,683,701,721,742,761,782,802,823,843,862,881,903,922,943,963,981,1002,1021,1041,1062,1082,1102,1121,1142,1163,1182,1201,1222,1241,1261,1282,1302,1322,1342,1363,1381,1402,1421,1442,1461,1481,1502,1523,1543,1563,1582,1601,1622,1643,1662,1681,1702,1723,1742,1761,1782,1802,1822,1842,1862,1882,1901,1921,1943,1961,1982,2002,2023,2043],"xSR":741.5,"ySR":449.15000000000003,"xT1":424.9,"yT1":0,"xT2":1058.1,"yT2":0,"toosoon":0,"cond_shown":"Congruent","ratio_trial":100,"L_num":6,"L_den":12,"R_num":15,"R_den":25,"correct_side":2,"subjID":"anasofiaseguracorrea","gender":"1","school":"6","age":"10"},{"start_time":1551800758665,"click_time":1551800760665,"finger_time":1551800760364,"fix_duration":1358.2356225703488,"trial":43,"RT":1699,"MT":301,"sideResp":2,"stimulus":[],"xmouse":[779,779,779,779,779,780,780,780,780,780,780,780,780,780,780,780,780,780,780,780,780,780,780,781,781,781,781,781,781,781,781,781,781,781,781,781,781,781,781,781,781,781,781,781,781,781,781,781,781,781,781,781,781,781,781,781,781,781,781,781,782,783,783,783,784,784,785,785,785,786,786,786,786,786,786,786,786,786,786,786,787,790,793,799,808,848,894,949,999,1034,1071,1079,1081,1081,1081,1082,1082,1082,1082,1082,1082],"ymouse":[497,497,497,497,497,497,497,497,497,497,497,497,497,497,497,497,497,497,497,497,497,497,497,497,497,497,497,497,497,497,497,497,497,497,497,497,497,497,497,497,497,497,497,497,497,497,497,497,497,497,497,497,497,497,497,497,497,497,497,497,497,496,496,496,495,495,494,493,492,492,492,492,492,492,492,492,492,492,492,490,490,485,482,477,467,424,381,330,280,241,188,170,163,160,158,152,149,142,134,123,97],"timestamp_mouse":[1,18,41,58,79,98,120,138,158,179,199,219,239,259,280,299,318,338,358,378,400,418,440,460,479,499,518,538,560,578,599,619,640,659,680,699,720,738,759,779,799,820,839,860,879,899,919,939,960,980,998,1018,1040,1059,1078,1098,1118,1140,1158,1178,1198,1219,1239,1258,1278,1298,1319,1338,1359,1379,1400,1418,1439,1458,1479,1499,1518,1538,1558,1578,1599,1620,1639,1660,1679,1699,1718,1738,1759,1779,1799,1819,1840,1859,1880,1900,1919,1939,1960,1980,2000],"xSR":741.5,"ySR":449.15000000000003,"xT1":424.9,"yT1":0,"xT2":1058.1,"yT2":0,"toosoon":0,"cond_shown":"Incongruent","ratio_trial":100,"L_num":3,"L_den":6,"R_num":4,"R_den":10,"correct_side":1,"subjID":"anasofiaseguracorrea","gender":"1","school":"6","age":"10"},{"start_time":1551800762667,"click_time":1551800764344,"finger_time":1551800764185,"fix_duration":1102.3541859503046,"trial":44,"RT":1518,"MT":159,"sideResp":2,"stimulus":[],"xmouse":[785,785,785,785,785,785,785,785,785,785,785,785,785,785,785,783,781,780,779,779,779,779,779,779,779,779,779,779,779,779,779,779,779,779,779,779,779,779,779,779,779,779,779,779,779,779,779,779,779,779,779,779,779,779,779,779,779,779,779,779,779,779,779,779,779,779,779,779,779,779,779,779,779,785,812,844,890,943,995,1066,1083,1101,1109,1115],"ymouse":[491,491,491,491,491,491,491,491,491,491,491,491,491,491,491,491,491,491,491,491,491,491,491,491,491,491,491,491,491,491,491,491,491,491,491,491,491,491,491,491,491,491,491,491,491,491,491,491,491,491,491,491,491,491,491,491,491,491,491,491,491,491,491,491,491,491,491,491,491,491,491,491,491,483,461,433,394,349,301,202,166,124,109,98],"timestamp_mouse":[17,40,57,78,98,118,137,157,177,198,217,238,258,277,297,318,336,357,378,397,417,436,457,476,498,516,536,558,576,596,618,636,657,677,697,718,737,756,776,797,817,836,858,878,898,917,938,957,976,998,1017,1038,1058,1077,1098,1118,1137,1158,1178,1198,1217,1236,1256,1278,1297,1317,1337,1356,1377,1397,1417,1437,1457,1476,1498,1518,1537,1558,1577,1598,1616,1637,1657,1677],"xSR":741.5,"ySR":449.15000000000003,"xT1":424.9,"yT1":0,"xT2":1058.1,"yT2":0,"toosoon":0,"cond_shown":"Congruent","ratio_trial":200,"L_num":9,"L_den":30,"R_num":13,"R_den":26,"correct_side":2,"subjID":"anasofiaseguracorrea","gender":"1","school":"6","age":"10"},{"start_time":1551800766212,"click_time":1551800767684,"finger_time":1551800767284,"fix_duration":925.3272009100341,"trial":45,"RT":1072,"MT":400,"sideResp":1,"stimulus":[],"xmouse":[790,790,790,790,790,790,790,790,790,790,790,790,790,790,790,790,790,790,790,790,790,790,790,790,790,790,790,790,790,790,790,790,790,790,790,790,790,790,790,790,790,790,790,790,790,790,790,790,790,786,782,775,770,751,732,719,707,694,674,669,663,659,656,650,644,639,632,626,604,590,576,563,538,519],"ymouse":[497,499,505,508,509,510,510,510,510,510,510,510,510,510,510,510,510,510,510,510,510,510,510,510,510,510,510,510,510,510,510,510,510,510,510,510,510,510,510,510,510,510,510,510,510,510,510,510,510,503,496,479,457,390,344,321,302,283,250,237,224,214,207,196,190,186,182,177,156,143,131,118,98,83],"timestamp_mouse":[12,32,52,72,92,112,132,151,173,193,211,232,253,273,293,312,333,353,373,391,411,433,452,473,493,512,533,553,572,591,611,633,653,673,692,711,733,752,773,792,813,833,853,873,893,911,933,953,973,993,1012,1032,1052,1072,1093,1111,1131,1153,1173,1192,1213,1232,1253,1273,1292,1313,1331,1353,1373,1392,1412,1433,1453,1471],"xSR":741.5,"ySR":449.15000000000003,"xT1":424.9,"yT1":0,"xT2":1058.1,"yT2":0,"toosoon":0,"cond_shown":"Incongruent","ratio_trial":200,"L_num":3,"L_den":10,"R_num":1,"R_den":2,"correct_side":2,"subjID":"anasofiaseguracorrea","gender":"1","school":"6","age":"10"},{"start_time":1551800769044,"click_time":1551800771365,"finger_time":1551800771285,"fix_duration":479.3966599669031,"trial":46,"RT":2241,"MT":80,"sideResp":1,"stimulus":[],"xmouse":[764,764,764,764,764,764,764,764,764,764,764,764,764,764,764,764,764,764,764,764,764,764,764,764,764,764,764,764,764,764,764,764,764,764,764,764,764,764,764,764,764,764,764,764,764,764,764,764,764,764,764,764,764,764,764,764,764,764,764,764,764,764,764,764,764,764,764,764,764,764,764,764,764,764,766,766,766,766,766,766,766,766,766,766,766,766,766,766,766,766,766,766,766,766,766,766,766,766,766,766,766,766,766,766,768,769,773,779,782,787,790,796,790,763,713,642,503],"ymouse":[494,494,494,494,494,494,494,494,494,494,494,494,494,494,494,494,494,494,494,494,494,494,494,494,494,494,494,494,494,494,494,494,494,494,494,494,494,494,494,494,494,494,494,494,494,494,494,494,494,494,494,494,494,494,494,494,494,494,494,494,494,494,494,494,494,494,494,494,494,494,494,494,494,494,494,494,494,494,494,494,494,494,494,494,494,494,494,494,494,494,494,494,494,494,494,494,494,494,494,494,494,494,494,494,494,497,500,502,502,502,502,486,443,386,315,234,99],"timestamp_mouse":[1,34,40,60,79,99,120,141,160,181,201,220,239,260,281,300,320,339,361,379,401,421,441,460,479,500,521,539,560,579,600,621,641,660,680,700,720,741,761,779,800,821,840,859,879,900,920,940,960,979,1001,1021,1041,1061,1081,1100,1120,1140,1159,1180,1199,1220,1241,1260,1280,1301,1319,1341,1359,1380,1399,1420,1440,1461,1479,1500,1519,1540,1561,1581,1600,1620,1639,1659,1680,1700,1721,1740,1761,1780,1801,1820,1840,1860,1879,1899,1920,1939,1961,1980,1999,2021,2040,2059,2079,2099,2119,2140,2160,2181,2199,2220,2241,2261,2279,2301,2321],"xSR":741.5,"ySR":449.15000000000003,"xT1":424.9,"yT1":0,"xT2":1058.1,"yT2":0,"toosoon":0,"cond_shown":"Congruent","ratio_trial":100,"L_num":11,"L_den":22,"R_num":4,"R_den":10,"correct_side":1,"subjID":"anasofiaseguracorrea","gender":"1","school":"6","age":"10"},{"start_time":1551800773500,"click_time":1551800775084,"finger_time":1551800774784,"fix_duration":1414.322955557009,"trial":47,"RT":1284,"MT":300,"sideResp":1,"stimulus":[],"xmouse":[798,798,798,798,798,798,798,798,798,798,799,799,800,801,803,803,804,804,804,806,806,807,807,808,808,809,810,810,810,810,810,810,810,810,810,810,810,810,810,810,810,810,810,810,810,810,810,810,810,810,810,810,810,810,810,810,810,810,810,809,805,798,788,771,734,708,688,669,646,590,565,541,537,536,532,530,526,520,514,496],"ymouse":[521,521,521,521,521,521,521,521,521,521,520,520,519,519,517,517,515,515,515,514,513,512,512,511,511,510,510,510,509,509,509,509,509,509,509,509,509,509,509,509,509,509,509,509,509,509,509,509,509,509,509,509,509,509,509,509,509,509,509,506,499,490,478,459,415,389,365,337,300,220,186,151,142,139,132,130,127,122,116,96],"timestamp_mouse":[8,28,45,64,85,104,123,145,164,184,204,224,244,264,285,304,324,343,364,384,404,425,445,465,484,504,524,544,565,583,604,624,644,663,683,705,724,744,764,785,804,823,843,864,883,904,924,944,964,984,1004,1025,1045,1064,1084,1104,1125,1145,1164,1183,1205,1224,1244,1264,1284,1304,1325,1344,1365,1383,1405,1425,1444,1465,1485,1504,1525,1543,1565,1584],"xSR":741.5,"ySR":449.15000000000003,"xT1":424.9,"yT1":0,"xT2":1058.1,"yT2":0,"toosoon":0,"cond_shown":"Congruent","ratio_trial":100,"L_num":4,"L_den":10,"R_num":15,"R_den":30,"correct_side":2,"subjID":"anasofiaseguracorrea","gender":"1","school":"6","age":"10"},{"start_time":1551800777697,"click_time":1551800779164,"finger_time":1551800778584,"fix_duration":250,"trial":48,"RT":887,"MT":580,"sideResp":1,"stimulus":[],"xmouse":[806,806,806,806,806,806,806,806,806,806,806,806,806,806,806,806,806,806,806,806,806,806,806,806,806,806,806,806,806,806,806,806,806,806,806,806,806,806,806,806,806,804,798,789,714,639,564,533,533,533,533,533,533,533,533,533,533,533,533,533,191,204,215,222,227,227,229,234,269,320,355,386,411,447],"ymouse":[521,521,521,521,521,521,521,521,521,521,521,521,521,521,521,521,521,521,521,521,521,521,521,521,521,521,521,521,521,521,521,521,521,521,521,521,521,521,521,521,521,515,500,474,332,222,101,45,45,45,45,45,45,45,45,45,45,45,45,45,12,35,54,64,68,68,68,67,66,66,64,57,48,42],"timestamp_mouse":[7,30,47,66,88,107,127,148,167,188,208,226,247,266,288,307,328,347,368,388,407,426,447,468,486,508,526,547,568,587,608,628,646,667,686,708,727,747,766,788,808,827,848,866,887,907,927,946,967,987,1007,1027,1046,1067,1087,1107,1127,1147,1167,1186,1206,1226,1247,1266,1286,1308,1327,1347,1367,1386,1407,1426,1447,1467],"xSR":741.5,"ySR":449.15000000000003,"xT1":424.9,"yT1":0,"xT2":1058.1,"yT2":0,"toosoon":0,"cond_shown":"Incongruent","ratio_trial":300,"L_num":4,"L_den":5,"R_num":8,"R_den":16,"correct_side":1,"subjID":"anasofiaseguracorrea","gender":"1","school":"6","age":"10"},{"start_time":1551800780559,"click_time":1551800782064,"finger_time":1551800781864,"fix_duration":375.0729609914585,"trial":49,"RT":1305,"MT":200,"sideResp":2,"stimulus":[],"xmouse":[831,813,808,804,803,803,803,802,801,799,796,795,795,795,795,795,795,795,793,792,792,792,792,792,792,792,792,792,792,792,792,792,792,792,792,792,792,792,792,792,792,792,792,792,792,792,792,792,792,792,792,792,792,792,792,792,792,792,792,792,792,797,805,814,822,846,863,891,913,944,1009,1034,1052,1065,1072,1075],"ymouse":[517,509,508,507,507,507,507,507,507,507,507,507,507,507,507,507,507,507,507,507,507,507,507,507,507,507,507,507,507,507,507,507,507,507,507,507,507,507,507,507,507,507,507,507,507,507,507,507,507,507,507,507,507,507,507,507,507,507,507,507,506,489,479,466,456,422,400,361,335,304,242,204,172,140,112,80],"timestamp_mouse":[5,33,46,64,84,105,126,145,165,185,205,225,245,264,284,306,325,344,365,385,406,426,445,465,485,505,525,546,565,585,606,625,646,665,684,705,724,745,766,786,806,825,845,865,884,906,926,946,964,986,1004,1026,1044,1066,1084,1105,1126,1144,1165,1186,1205,1225,1244,1266,1286,1305,1325,1345,1365,1385,1406,1425,1445,1465,1485,1505],"xSR":741.5,"ySR":449.15000000000003,"xT1":424.9,"yT1":0,"xT2":1058.1,"yT2":0,"toosoon":0,"cond_shown":"Congruent","ratio_trial":300,"L_num":1,"L_den":5,"R_num":3,"R_den":6,"correct_side":2,"subjID":"anasofiaseguracorrea","gender":"1","school":"6","age":"10"},{"start_time":1551800784937,"click_time":1551800785964,"finger_time":1551800785684,"fix_duration":370.5821868608148,"trial":50,"RT":747,"MT":280,"sideResp":2,"stimulus":[],"xmouse":[798,798,798,798,798,798,798,798,798,798,798,798,798,798,798,798,798,798,798,798,798,798,798,798,798,798,798,798,798,798,798,798,798,798,805,812,829,898,985,1043,1089,1162,1184,1196,1202,1204,1204,1204,1203,1196,1183,1145],"ymouse":[505,505,505,505,505,505,505,505,505,505,505,505,505,505,505,505,505,505,505,505,505,505,505,505,505,505,505,505,505,505,505,505,505,505,503,498,486,434,357,292,232,125,86,60,41,32,25,25,23,23,22,22],"timestamp_mouse":[13,41,48,67,87,108,126,148,167,186,208,226,248,266,288,306,327,347,367,387,408,427,446,468,488,507,528,546,568,588,606,628,648,668,686,707,726,747,767,787,806,828,847,867,888,907,927,946,966,987,1008,1027],"xSR":741.5,"ySR":449.15000000000003,"xT1":424.9,"yT1":0,"xT2":1058.1,"yT2":0,"toosoon":0,"cond_shown":"Incongruent","ratio_trial":300,"L_num":13,"L_den":26,"R_num":12,"R_den":15,"correct_side":2,"subjID":"anasofiaseguracorrea","gender":"1","school":"6","age":"10"},{"start_time":1551800788636,"click_time":1551800790164,"finger_time":1551800789384,"fix_duration":250,"trial":51,"RT":748,"MT":780,"sideResp":1,"stimulus":[],"xmouse":[804,804,804,804,804,804,804,804,804,804,804,804,804,804,804,804,804,804,804,804,804,804,804,804,804,804,804,804,804,804,804,804,804,804,805,809,819,848,857,867,877,884,887,887,887,887,888,888,888,888,888,888,888,886,878,863,782,717,648,590,570,562,562,562,560,555,550,550,550,550,550,551,549,543,536,524,488],"ymouse":[504,504,504,504,504,504,504,504,504,504,504,504,504,504,504,504,504,504,504,504,504,504,504,504,504,504,504,504,504,504,504,504,504,504,500,494,478,445,431,418,404,381,374,366,365,364,363,363,363,363,363,363,363,362,361,359,355,355,354,342,330,276,218,192,173,161,153,153,153,152,149,147,136,128,122,112,86],"timestamp_mouse":[8,30,49,69,88,107,127,149,169,187,208,228,249,268,289,307,329,349,369,389,409,427,449,467,489,509,528,549,569,587,609,629,647,668,687,708,729,748,768,789,808,829,847,868,888,907,928,948,969,988,1009,1029,1048,1067,1088,1109,1128,1148,1168,1188,1209,1228,1248,1268,1288,1307,1329,1348,1368,1389,1407,1429,1448,1468,1488,1509,1528],"xSR":741.5,"ySR":449.15000000000003,"xT1":424.9,"yT1":0,"xT2":1058.1,"yT2":0,"toosoon":0,"cond_shown":"Congruent","ratio_trial":100,"L_num":10,"L_den":25,"R_num":3,"R_den":10,"correct_side":1,"subjID":"anasofiaseguracorrea","gender":"1","school":"6","age":"10"},{"start_time":1551800792207,"click_time":1551800793504,"finger_time":1551800792964,"fix_duration":1161.9953512049826,"trial":52,"RT":757,"MT":540,"sideResp":2,"stimulus":[],"xmouse":[780,780,780,780,780,780,780,780,780,780,780,780,780,780,780,780,780,780,780,780,780,780,780,780,780,780,780,780,780,780,782,784,802,814,819,823,826,833,839,846,856,865,891,896,911,920,926,938,948,959,971,985,1006,1017,1025,1031,1035,1040,1043,1044,1045,1046,1046,1055,1060],"ymouse":[500,500,500,500,500,500,500,500,500,500,500,500,500,500,500,500,500,500,500,500,500,500,500,500,500,500,500,500,500,500,500,499,487,475,467,460,452,437,426,408,386,365,303,291,263,247,238,219,208,197,185,174,152,136,123,114,107,98,95,93,92,90,89,79,75],"timestamp_mouse":[17,38,57,77,97,116,137,158,178,196,216,237,257,276,297,317,336,357,377,397,418,437,457,476,496,517,536,558,578,597,617,637,657,677,697,717,736,757,776,797,818,837,859,878,896,918,938,958,977,996,1018,1038,1057,1077,1096,1117,1137,1157,1177,1197,1217,1237,1257,1278,1297],"xSR":741.5,"ySR":449.15000000000003,"xT1":424.9,"yT1":0,"xT2":1058.1,"yT2":0,"toosoon":0,"cond_shown":"Congruent","ratio_trial":200,"L_num":9,"L_den":30,"R_num":13,"R_den":26,"correct_side":2,"subjID":"anasofiaseguracorrea","gender":"1","school":"6","age":"10"},{"start_time":1551800794817,"click_time":1551800796284,"finger_time":1551800795884,"fix_duration":250,"trial":53,"RT":1067,"MT":400,"sideResp":2,"stimulus":[],"xmouse":[795,795,795,795,795,795,795,795,795,795,795,795,795,795,795,795,795,795,795,795,795,795,795,795,795,795,795,795,795,795,795,795,795,795,795,793,790,783,781,781,781,781,781,781,781,781,781,781,781,781,786,795,812,870,928,954,971,990,994,995,995,995,996,1004,1018,1027,1033,1039,1039,1040,1040,1041,1053,1060],"ymouse":[506,506,506,506,506,506,506,506,506,506,506,506,506,506,506,506,506,506,506,506,506,506,506,506,506,506,506,506,506,506,506,506,506,506,506,506,503,491,488,486,486,486,486,486,486,486,486,486,486,482,478,470,455,392,308,258,217,166,161,160,160,160,159,148,129,118,111,101,101,100,100,99,94,89],"timestamp_mouse":[7,39,47,67,87,107,127,147,166,186,207,227,247,267,288,307,326,347,367,387,407,428,446,468,486,507,527,548,567,587,607,627,647,667,687,707,728,747,767,788,807,826,848,866,887,908,926,948,967,987,1008,1027,1047,1067,1087,1108,1127,1148,1167,1186,1207,1228,1248,1266,1287,1308,1328,1347,1366,1387,1407,1427,1447,1467],"xSR":741.5,"ySR":449.15000000000003,"xT1":424.9,"yT1":0,"xT2":1058.1,"yT2":0,"toosoon":0,"cond_shown":"Congruent","ratio_trial":300,"L_num":3,"L_den":12,"R_num":11,"R_den":20,"correct_side":2,"subjID":"anasofiaseguracorrea","gender":"1","school":"6","age":"10"},{"start_time":1551800797871,"click_time":1551800799765,"finger_time":1551800798603,"fix_duration":705.5612678074326,"trial":54,"RT":732,"MT":1162,"sideResp":2,"stimulus":[],"xmouse":[790,790,790,790,790,790,790,790,790,790,790,790,790,790,790,790,790,790,790,790,790,790,790,790,790,790,790,790,790,790,790,790,790,790,781,770,758,747,738,732,731,731,731,731,731,731,731,731,731,731,731,731,731,729,728,725,722,719,717,704,695,677,670,663,657,656,655,655,655,655,660,687,745,815,909,930,942,950,959,984,1008,1020,1028,1030,1030,1030,1030,1030,1030,1030,1032,1041,1052,1067,1103],"ymouse":[515,515,515,515,515,515,515,515,515,515,515,515,515,515,516,516,516,516,516,516,516,516,516,516,516,516,516,516,516,516,516,516,516,516,499,474,448,421,400,386,385,385,385,385,385,385,385,385,385,385,385,385,383,377,373,364,360,354,349,328,314,293,284,276,263,259,258,258,258,258,257,264,273,284,292,292,289,282,271,238,215,204,196,194,194,194,193,192,190,180,168,156,139,119,67],"timestamp_mouse":[13,40,53,72,93,112,133,153,172,193,214,234,254,273,293,312,333,353,373,394,414,432,453,473,494,514,532,553,574,594,614,634,654,673,693,713,732,753,773,793,813,833,854,873,893,913,932,953,974,994,1013,1033,1052,1072,1093,1112,1132,1154,1173,1194,1212,1233,1254,1273,1294,1314,1333,1353,1373,1393,1412,1432,1453,1472,1494,1513,1533,1552,1573,1593,1613,1633,1652,1673,1693,1714,1733,1752,1772,1794,1812,1833,1853,1874,1894],"xSR":741.5,"ySR":449.15000000000003,"xT1":424.9,"yT1":0,"xT2":1058.1,"yT2":0,"toosoon":0,"cond_shown":"Congruent","ratio_trial":200,"L_num":1,"L_den":2,"R_num":21,"R_den":30,"correct_side":2,"subjID":"anasofiaseguracorrea","gender":"1","school":"6","age":"10"},{"start_time":1551800801959,"click_time":1551800803824,"finger_time":1551800803444,"fix_duration":1273.8728876349792,"trial":55,"RT":1485,"MT":380,"sideResp":2,"stimulus":[],"xmouse":[803,803,803,803,803,803,803,803,803,803,803,803,803,803,803,803,803,803,803,803,803,803,803,803,803,803,803,803,803,803,803,803,803,803,803,803,803,803,803,803,803,803,803,803,803,803,806,808,808,808,808,808,808,808,808,808,808,808,808,808,808,808,808,808,808,808,808,808,808,808,808,808,812,826,848,885,1010,1050,1086,1107,1119,1119,1119,1119,1119,1119,1119,1119,1116,1112,1107,1103,1103,1103],"ymouse":[493,493,493,493,493,493,493,493,493,493,493,493,493,493,493,493,493,493,493,493,493,493,493,493,493,493,493,493,493,493,493,493,493,493,493,493,493,493,493,493,493,493,493,493,493,493,493,492,492,492,492,492,492,492,492,492,492,492,492,492,492,492,492,492,492,492,492,492,492,492,492,492,487,474,454,423,298,238,191,163,146,146,145,145,145,145,145,142,138,133,123,110,100,87],"timestamp_mouse":[9,33,46,65,86,104,124,145,165,184,204,225,245,265,285,305,325,345,364,385,405,425,445,465,485,506,524,546,565,585,605,626,644,665,685,704,724,746,765,785,805,825,846,865,884,905,924,945,964,986,1005,1025,1045,1065,1085,1105,1126,1145,1165,1185,1206,1225,1246,1266,1284,1304,1326,1346,1366,1386,1404,1425,1445,1465,1485,1505,1526,1545,1566,1586,1605,1625,1645,1666,1685,1705,1726,1745,1765,1784,1805,1825,1845,1865],"xSR":741.5,"ySR":449.15000000000003,"xT1":424.9,"yT1":0,"xT2":1058.1,"yT2":0,"toosoon":0,"cond_shown":"Congruent","ratio_trial":100,"L_num":1,"L_den":2,"R_num":3,"R_den":5,"correct_side":2,"subjID":"anasofiaseguracorrea","gender":"1","school":"6","age":"10"},{"start_time":1551800805640,"click_time":1551800807544,"finger_time":1551800807204,"fix_duration":814.1282507814315,"trial":56,"RT":1564,"MT":340,"sideResp":1,"stimulus":[],"xmouse":[808,808,808,808,808,808,808,808,808,808,808,808,808,808,808,808,808,808,808,808,808,808,808,808,808,808,808,808,808,808,808,808,808,808,808,808,808,808,808,808,808,808,808,808,808,808,808,808,808,808,808,808,808,808,808,808,808,808,808,808,808,808,808,808,808,808,808,808,808,808,808,808,808,808,808,801,797,747,709,679,661,650,640,639,637,634,624,623,619,614,607,577,568,540,524,513],"ymouse":[507,507,507,507,507,507,507,507,507,507,507,507,507,507,507,507,507,507,507,507,507,507,507,507,507,507,507,507,507,507,507,507,507,507,507,507,507,507,507,507,507,507,507,507,507,507,507,507,507,507,507,507,507,507,507,507,507,507,507,507,507,507,507,507,507,507,507,507,507,507,507,507,507,507,507,507,506,465,422,376,346,328,307,299,293,287,276,271,261,242,220,163,153,125,112,99],"timestamp_mouse":[8,24,44,64,84,103,124,144,164,183,204,224,244,264,284,303,325,344,364,384,405,424,444,465,483,505,523,544,564,584,603,625,643,664,684,703,724,743,764,785,803,824,845,865,885,904,925,945,964,984,1003,1025,1045,1065,1084,1104,1123,1145,1163,1184,1204,1224,1244,1264,1284,1304,1325,1345,1364,1385,1405,1424,1445,1464,1484,1503,1523,1544,1564,1585,1603,1624,1643,1664,1685,1705,1724,1744,1764,1784,1804,1825,1843,1864,1885,1904],"xSR":741.5,"ySR":449.15000000000003,"xT1":424.9,"yT1":0,"xT2":1058.1,"yT2":0,"toosoon":0,"cond_shown":"Congruent","ratio_trial":300,"L_num":24,"L_den":30,"R_num":8,"R_den":16,"correct_side":1,"subjID":"anasofiaseguracorrea","gender":"1","school":"6","age":"10"},{"start_time":1551800808676,"click_time":1551800810365,"finger_time":1551800810104,"fix_duration":250,"trial":57,"RT":1428,"MT":261,"sideResp":2,"stimulus":[],"xmouse":[801,802,803,804,805,805,805,805,805,805,805,805,805,805,805,805,805,805,805,805,805,805,805,805,805,805,805,805,805,805,805,805,805,805,805,805,805,805,805,805,805,805,805,805,805,805,805,805,805,805,805,805,805,805,805,805,805,805,805,805,805,805,805,805,805,805,805,805,806,817,831,872,916,955,1013,1031,1046,1055,1063,1073,1076,1078,1083,1087,1095],"ymouse":[475,478,479,481,483,483,483,483,483,483,483,483,485,486,487,487,488,488,488,490,491,491,491,492,494,497,501,505,509,514,515,515,515,515,515,515,515,515,515,515,515,515,515,515,515,515,515,515,515,515,515,515,515,515,515,515,515,515,515,515,515,515,515,515,515,515,515,515,516,508,496,456,407,359,290,268,248,231,214,187,168,155,140,126,96],"timestamp_mouse":[10,28,50,69,88,108,128,149,168,188,209,228,248,267,289,308,328,349,368,388,408,428,448,468,488,508,529,547,568,588,608,628,648,667,688,708,729,748,769,788,809,829,849,867,888,908,928,948,968,988,1008,1028,1047,1069,1088,1107,1128,1148,1169,1187,1208,1229,1247,1269,1289,1308,1329,1349,1368,1388,1408,1428,1448,1468,1489,1508,1528,1548,1568,1588,1608,1628,1647,1667,1689],"xSR":741.5,"ySR":449.15000000000003,"xT1":424.9,"yT1":0,"xT2":1058.1,"yT2":0,"toosoon":0,"cond_shown":"Congruent","ratio_trial":200,"L_num":3,"L_den":10,"R_num":7,"R_den":14,"correct_side":2,"subjID":"anasofiaseguracorrea","gender":"1","school":"6","age":"10"},{"start_time":1551800811720,"click_time":1551800813505,"finger_time":1551800813144,"fix_duration":413.7764870616234,"trial":58,"RT":1424,"MT":361,"sideResp":1,"stimulus":[],"xmouse":[797,797,797,797,797,797,797,797,797,797,797,797,797,798,798,799,800,801,801,801,801,801,801,801,801,801,801,801,801,801,801,801,801,801,801,801,801,801,801,801,801,801,801,801,801,801,801,801,801,801,801,801,801,800,800,799,798,796,795,794,792,792,792,791,791,791,788,786,774,759,749,738,729,711,701,692,684,677,659,641,622,603,578,569,557,547,537,527,520,515],"ymouse":[514,514,514,514,514,514,514,514,514,514,514,514,514,514,514,514,514,514,514,514,514,514,514,514,514,514,514,514,514,514,514,514,514,514,514,514,514,514,514,514,514,514,514,514,514,514,514,514,514,514,514,514,514,514,514,514,514,513,512,511,511,511,511,510,510,510,510,509,502,491,478,455,426,364,340,324,315,308,299,291,282,270,249,236,217,197,178,156,115,93],"timestamp_mouse":[8,24,45,63,83,104,124,144,164,184,204,224,245,263,283,305,324,344,364,383,404,423,443,465,485,504,524,543,564,584,604,625,643,663,684,704,723,745,764,784,804,825,844,865,884,903,923,945,964,984,1005,1023,1044,1065,1085,1105,1125,1143,1165,1184,1203,1224,1244,1263,1285,1303,1324,1344,1365,1384,1404,1424,1444,1464,1484,1505,1524,1543,1564,1583,1604,1624,1644,1664,1683,1704,1724,1744,1765,1785],"xSR":741.5,"ySR":449.15000000000003,"xT1":424.9,"yT1":0,"xT2":1058.1,"yT2":0,"toosoon":0,"cond_shown":"Congruent","ratio_trial":200,"L_num":4,"L_den":8,"R_num":3,"R_den":10,"correct_side":1,"subjID":"anasofiaseguracorrea","gender":"1","school":"6","age":"10"},{"start_time":1551800815153,"click_time":1551800817145,"finger_time":1551800816683,"fix_duration":288.21040958630016,"trial":59,"RT":1530,"MT":462,"sideResp":1,"stimulus":[],"xmouse":[811,811,811,811,811,811,811,811,811,811,811,811,811,811,811,811,811,813,813,814,814,814,814,814,814,814,814,814,814,814,814,814,814,814,814,814,814,814,814,814,814,814,814,814,814,814,814,814,814,814,814,814,814,814,814,814,814,814,814,814,814,814,814,814,814,814,814,814,814,813,810,809,804,803,795,767,745,692,664,651,645,643,643,642,641,634,627,608,586,560,503,477,449,432,426,426,428,429,430,434],"ymouse":[479,479,479,479,479,479,479,479,479,479,479,479,479,479,479,479,479,479,479,478,478,478,478,478,478,478,478,478,478,478,478,478,478,478,478,478,478,478,478,478,478,478,478,478,478,478,478,478,478,478,478,478,478,478,478,478,478,478,478,478,478,478,478,478,478,478,478,478,478,478,478,477,476,476,471,451,433,384,354,336,313,303,298,293,288,274,265,247,231,215,183,165,143,126,115,106,103,102,101,98],"timestamp_mouse":[10,30,51,71,90,110,131,151,171,191,210,231,251,270,291,311,331,351,370,391,412,431,451,471,491,511,531,551,570,591,611,632,651,671,692,710,731,752,771,790,811,832,852,871,891,912,931,951,971,992,1011,1031