[{"start_time":1551800632146,"click_time":1551800634081,"finger_time":1551800633480,"fix_duration":822.1859227371373,"trial":0,"RT":1334,"MT":601,"sideResp":1,"stimulus":[],"xmouse":[771,771,771,771,771,771,771,771,771,771,769,769,769,769,769,769,769,769,769,769,769,769,769,769,769,769,769,769,769,769,769,769,769,769,769,769,769,769,769,769,769,769,769,769,769,769,769,769,769,769,769,769,769,769,769,769,769,769,769,769,769,769,769,769,769,774,778,795,804,806,807,807,807,807,807,807,803,795,773,718,642,491,406,399,372,351,351,351,351,351,351,351,351,351,383,384,430],"ymouse":[446,446,446,446,446,446,446,446,446,446,447,447,447,447,447,447,447,447,447,447,447,447,447,447,447,447,447,447,447,447,447,447,447,447,447,447,447,447,447,447,447,447,447,447,447,447,447,447,447,447,447,447,447,447,447,447,447,447,447,447,447,447,447,447,447,444,440,425,415,412,411,411,411,410,409,405,397,383,367,321,267,136,34,30,14,2,2,2,2,2,2,2,2,2,1,2,25],"timestamp_mouse":[14,39,55,74,93,115,133,155,174,194,214,235,254,274,293,314,333,355,374,393,413,434,453,475,493,515,534,555,575,593,614,635,653,673,695,713,735,755,774,794,813,835,855,873,894,913,934,954,973,995,1015,1034,1054,1074,1093,1115,1133,1155,1174,1193,1214,1234,1255,1273,1294,1314,1334,1354,1374,1394,1415,1434,1455,1474,1494,1513,1534,1554,1574,1594,1615,1634,1653,1674,1694,1713,1734,1754,1774,1795,1815,1835,1854,1873,1893,1913,1934],"xSR":737,"ySR":442.65000000000003,"xT1":422.2,"yT1":0,"xT2":1051.8,"yT2":0,"toosoon":0,"cond_shown":"Incongruent","ratio_trial":100,"L_num":3,"L_den":6,"R_num":4,"R_den":10,"correct_side":1,"subjID":"MariaPaulaMrianoSalcedo11","gender":"1","age":"11","school":"6","test":{"fix_dur":[250,1500],"timestim":1000,"targets_dim":[100,100],"targets_relative_coord":[0.3,0.7],"size_stim":[880,420],"start_dim":[100,100],"size_start":[300,300],"size_fix":60,"samplingrate":20,"img_types":["Congruent","Incongruent"],"ratios":[100,200,300],"rep_conds":19,"nTrials":120,"trials_to_rest":500,"Trials_order":[97,75,91,5,17,26,59,33,34,68,83,88,24,60,32,50,31,85,111,105,27,74,103,41,99,100,101,116,66,13,15,58,71,98,0,81,23,93,46,12,37,14,51,106,1,102,3,39,84,55,78,22,63,94,6,64,16,47,25,40,95,43,10,92,107,29,109,72,119,69,30,76,56,62,67,82,104,20,35,108,79,21,4,65,112,18,44,86,90,114,45,61,28,19,52,38,118,42,53,80,77,96,70,8,9,48,110,2,87,36,11,113,115,7,54,49,117,57,73,89],"cond_shown":["Incongruent","Incongruent","Incongruent","Incongruent","Incongruent","Congruent","Incongruent","Incongruent","Congruent","Congruent","Incongruent","Congruent","Congruent","Congruent","Congruent","Congruent","Incongruent","Incongruent","Incongruent","Incongruent","Incongruent","Congruent","Incongruent","Incongruent","Incongruent","Congruent","Incongruent","Congruent","Congruent","Incongruent","Incongruent","Congruent","Incongruent","Congruent","Congruent","Incongruent","Incongruent","Incongruent","Congruent","Congruent","Incongruent","Congruent","Incongruent","Congruent","Incongruent","Congruent","Incongruent","Incongruent","Congruent","Incongruent","Congruent","Congruent","Incongruent","Congruent","Congruent","Congruent","Congruent","Incongruent","Incongruent","Congruent","Incongruent","Incongruent","Congruent","Congruent","Incongruent","Incongruent","Incongruent","Congruent","Incongruent","Incongruent","Congruent","Congruent","Congruent","Congruent","Incongruent","Congruent","Congruent","Congruent","Incongruent","Congruent","Incongruent","Incongruent","Congruent","Incongruent","Congruent","Congruent","Congruent","Congruent","Congruent","Congruent","Incongruent","Incongruent","Congruent","Incongruent","Congruent","Congruent","Congruent","Congruent","Incongruent","Congruent","Incongruent","Congruent","Congruent","Congruent","Incongruent","Congruent","Congruent","Congruent","Incongruent","Congruent","Incongruent","Incongruent","Incongruent","Incongruent","Congruent","Incongruent","Incongruent","Incongruent","Incongruent","Incongruent"],"ratio_trial":[100,200,100,300,300,200,300,200,300,200,300,300,100,100,200,200,100,100,200,200,200,200,100,300,200,300,300,200,100,100,200,300,300,200,100,200,300,200,300,100,100,200,200,300,100,100,200,200,100,100,100,300,200,300,100,300,300,300,100,300,300,100,300,200,300,300,100,100,300,200,100,300,200,200,100,300,200,200,300,100,100,200,300,300,300,100,200,200,100,100,200,100,300,100,300,200,300,100,300,200,300,100,300,200,200,100,200,200,200,100,300,300,100,100,100,100,200,200,100,300],"left_num":[3,7,3,4,13,11,4,7,5,16,8,2,9,1,6,1,2,3,3,14,4,9,3,4,6,4,2,6,6,17,14,8,4,14,7,4,8,14,8,4,12,6,1,1,6,10,9,1,15,3,7,11,11,3,7,7,8,4,4,5,4,6,11,3,13,13,1,1,4,4,12,20,13,11,17,20,3,8,8,8,9,1,20,7,1,7,3,4,11,12,3,1,12,8,4,16,1,10,13,16,13,6,20,3,11,11,1,6,1,12,13,13,9,3,11,13,1,7,9,8],"right_num":[4,12,4,2,12,3,2,8,6,9,9,10,8,18,7,21,8,8,11,6,14,13,8,2,3,13,6,7,15,10,6,10,2,6,9,1,9,6,10,15,9,7,3,6,11,3,8,2,13,4,9,2,3,4,15,20,1,2,8,6,6,7,1,11,12,12,8,18,2,14,13,5,14,3,10,9,9,7,14,2,14,3,9,8,6,15,7,3,6,13,1,8,2,1,1,12,3,3,12,9,12,15,9,7,3,6,21,3,2,13,12,12,6,11,6,12,3,8,6,14],"left_den":[6,10,6,20,26,22,20,10,25,30,10,20,15,2,12,2,4,5,4,30,6,30,5,20,20,20,4,12,12,30,30,15,20,28,14,30,10,30,15,10,24,12,2,5,10,25,15,3,25,6,14,22,20,6,14,14,16,20,8,25,5,10,22,10,26,26,2,2,20,6,30,25,26,22,30,25,12,15,10,16,15,2,25,10,5,14,10,10,22,30,10,2,24,20,10,20,5,25,26,30,26,12,25,10,20,22,2,15,3,30,26,26,18,5,22,26,2,10,18,10],"right_den":[10,24,10,4,15,10,4,16,12,27,18,25,16,30,10,30,20,16,20,9,30,26,16,4,6,26,30,10,25,15,9,12,4,20,15,3,18,9,12,30,15,10,10,12,22,10,10,15,26,10,15,10,4,5,25,25,5,4,20,12,12,14,5,22,15,15,20,30,4,30,26,10,20,10,15,18,20,21,28,5,28,10,18,20,12,25,14,15,15,26,2,20,10,2,10,20,6,10,15,27,15,25,18,14,4,15,30,15,15,26,15,15,10,22,15,20,10,16,10,28],"correct_side":[1,1,1,2,2,1,2,1,2,1,1,2,1,2,2,2,1,1,1,2,1,2,1,2,2,2,1,2,2,2,2,2,2,1,2,2,1,2,2,2,2,2,1,2,1,1,2,1,1,1,2,1,2,2,2,2,1,2,1,2,1,1,1,2,2,2,1,2,2,1,2,1,2,1,2,1,2,1,1,1,1,1,1,1,2,2,2,1,1,2,2,1,1,2,1,1,2,1,2,1,2,2,1,2,2,1,2,1,1,2,2,2,2,1,1,2,1,1,2,1],"img_shown":["img2/100/Incongruent/L/I_Dist_100_LN_3_LD_6_RN_4_RD_10_0.png","img2/200/Incongruent/L/I_Dist_200_LN_7_LD_10_RN_12_RD_24_0.png","img2/100/Incongruent/L/I_Dist_100_LN_3_LD_6_RN_4_RD_10_0.png","img2/300/Incongruent/R/I_Dist_300_LN_4_LD_20_RN_2_RD_4_1.png","img2/300/Incongruent/R/I_Dist_300_LN_13_LD_26_RN_12_RD_15_1.png","img2/200/Congruent/L/C_Dist_200_LN_11_LD_22_RN_3_RD_10_0.png","img2/300/Incongruent/R/I_Dist_300_LN_4_LD_20_RN_2_RD_4_1.png","img2/200/Incongruent/L/I_Dist_200_LN_7_LD_10_RN_8_RD_16_0.png","img2/300/Congruent/R/C_Dist_300_LN_5_LD_25_RN_6_RD_12_1.png","img2/200/Congruent/L/C_Dist_200_LN_16_LD_30_RN_9_RD_27_0.png","img2/300/Incongruent/L/I_Dist_300_LN_8_LD_10_RN_9_RD_18_0.png","img2/300/Congruent/R/C_Dist_300_LN_2_LD_20_RN_10_RD_25_1.png","img2/100/Congruent/L/C_Dist_100_LN_9_LD_15_RN_8_RD_16_0.png","img2/100/Congruent/R/C_Dist_100_LN_1_LD_2_RN_18_RD_30_1.png","img2/200/Congruent/R/C_Dist_200_LN_6_LD_12_RN_7_RD_10_1.png","img2/200/Congruent/R/C_Dist_200_LN_1_LD_2_RN_21_RD_30_1.png","img2/100/Incongruent/L/I_Dist_100_LN_2_LD_4_RN_8_RD_20_0.png","img2/100/Incongruent/L/I_Dist_100_LN_3_LD_5_RN_8_RD_16_0.png","img2/200/Incongruent/L/I_Dist_200_LN_3_LD_4_RN_11_RD_20_0.png","img2/200/Incongruent/R/I_Dist_200_LN_14_LD_30_RN_6_RD_9_1.png","img2/200/Incongruent/L/I_Dist_200_LN_4_LD_6_RN_14_RD_30_0.png","img2/200/Congruent/R/C_Dist_200_LN_9_LD_30_RN_13_RD_26_1.png","img2/100/Incongruent/L/I_Dist_100_LN_3_LD_5_RN_8_RD_16_0.png","img2/300/Incongruent/R/I_Dist_300_LN_4_LD_20_RN_2_RD_4_1.png","img2/200/Incongruent/R/I_Dist_200_LN_6_LD_20_RN_3_RD_6_1.png","img2/300/Congruent/R/C_Dist_300_LN_4_LD_20_RN_13_RD_26_1.png","img2/300/Incongruent/L/I_Dist_300_LN_2_LD_4_RN_6_RD_30_0.png","img2/200/Congruent/R/C_Dist_200_LN_6_LD_12_RN_7_RD_10_1.png","img2/100/Congruent/R/C_Dist_100_LN_6_LD_12_RN_15_RD_25_1.png","img2/100/Incongruent/R/I_Dist_100_LN_17_LD_30_RN_10_RD_15_1.png","img2/200/Incongruent/R/I_Dist_200_LN_14_LD_30_RN_6_RD_9_1.png","img2/300/Congruent/R/C_Dist_300_LN_8_LD_15_RN_10_RD_12_1.png","img2/300/Incongruent/R/I_Dist_300_LN_4_LD_20_RN_2_RD_4_1.png","img2/200/Congruent/L/C_Dist_200_LN_14_LD_28_RN_6_RD_20_0.png","img2/100/Congruent/R/C_Dist_100_LN_7_LD_14_RN_9_RD_15_1.png","img2/200/Incongruent/R/I_Dist_200_LN_4_LD_30_RN_1_RD_3_1.png","img2/300/Incongruent/L/I_Dist_300_LN_8_LD_10_RN_9_RD_18_0.png","img2/200/Incongruent/R/I_Dist_200_LN_14_LD_30_RN_6_RD_9_1.png","img2/300/Congruent/R/C_Dist_300_LN_8_LD_15_RN_10_RD_12_1.png","img2/100/Congruent/R/C_Dist_100_LN_4_LD_10_RN_15_RD_30_1.png","img2/100/Incongruent/R/I_Dist_100_LN_12_LD_24_RN_9_RD_15_1.png","img2/200/Congruent/R/C_Dist_200_LN_6_LD_12_RN_7_RD_10_1.png","img2/200/Incongruent/L/I_Dist_200_LN_1_LD_2_RN_3_RD_10_0.png","img2/300/Congruent/R/C_Dist_300_LN_1_LD_5_RN_6_RD_12_1.png","img2/100/Incongruent/L/I_Dist_100_LN_6_LD_10_RN_11_RD_22_0.png","img2/100/Congruent/L/C_Dist_100_LN_10_LD_25_RN_3_RD_10_0.png","img2/200/Incongruent/R/I_Dist_200_LN_9_LD_15_RN_8_RD_10_1.png","img2/200/Incongruent/L/I_Dist_200_LN_1_LD_3_RN_2_RD_15_0.png","img2/100/Congruent/L/C_Dist_100_LN_15_LD_25_RN_13_RD_26_0.png","img2/100/Incongruent/L/I_Dist_100_LN_3_LD_6_RN_4_RD_10_0.png","img2/100/Congruent/R/C_Dist_100_LN_7_LD_14_RN_9_RD_15_1.png","img2/300/Congruent/L/C_Dist_300_LN_11_LD_22_RN_2_RD_10_0.png","img2/200/Incongruent/R/I_Dist_200_LN_11_LD_20_RN_3_RD_4_1.png","img2/300/Congruent/R/C_Dist_300_LN_3_LD_6_RN_4_RD_5_1.png","img2/100/Congruent/R/C_Dist_100_LN_7_LD_14_RN_15_RD_25_1.png","img2/300/Congruent/R/C_Dist_300_LN_7_LD_14_RN_20_RD_25_1.png","img2/300/Congruent/L/C_Dist_300_LN_8_LD_16_RN_1_RD_5_0.png","img2/300/Incongruent/R/I_Dist_300_LN_4_LD_20_RN_2_RD_4_1.png","img2/100/Incongruent/L/I_Dist_100_LN_4_LD_8_RN_8_RD_20_0.png","img2/300/Congruent/R/C_Dist_300_LN_5_LD_25_RN_6_RD_12_1.png","img2/300/Incongruent/L/I_Dist_300_LN_4_LD_5_RN_6_RD_12_0.png","img2/100/Incongruent/L/I_Dist_100_LN_6_LD_10_RN_7_RD_14_0.png","img2/300/Congruent/L/C_Dist_300_LN_11_LD_22_RN_1_RD_5_0.png","img2/200/Congruent/R/C_Dist_200_LN_3_LD_10_RN_11_RD_22_1.png","img2/300/Incongruent/R/I_Dist_300_LN_13_LD_26_RN_12_RD_15_1.png","img2/300/Incongruent/R/I_Dist_300_LN_13_LD_26_RN_12_RD_15_1.png","img2/100/Incongruent/L/I_Dist_100_LN_1_LD_2_RN_8_RD_20_0.png","img2/100/Congruent/R/C_Dist_100_LN_1_LD_2_RN_18_RD_30_1.png","img2/300/Incongruent/R/I_Dist_300_LN_4_LD_20_RN_2_RD_4_1.png","img2/200/Incongruent/L/I_Dist_200_LN_4_LD_6_RN_14_RD_30_0.png","img2/100/Congruent/R/C_Dist_100_LN_12_LD_30_RN_13_RD_26_1.png","img2/300/Congruent/L/C_Dist_300_LN_20_LD_25_RN_5_RD_10_0.png","img2/200/Congruent/R/C_Dist_200_LN_13_LD_26_RN_14_RD_20_1.png","img2/200/Congruent/L/C_Dist_200_LN_11_LD_22_RN_3_RD_10_0.png","img2/100/Incongruent/R/I_Dist_100_LN_17_LD_30_RN_10_RD_15_1.png","img2/300/Congruent/L/C_Dist_300_LN_20_LD_25_RN_9_RD_18_0.png","img2/200/Congruent/R/C_Dist_200_LN_3_LD_12_RN_9_RD_20_1.png","img2/200/Congruent/L/C_Dist_200_LN_8_LD_15_RN_7_RD_21_0.png","img2/300/Incongruent/L/I_Dist_300_LN_8_LD_10_RN_14_RD_28_0.png","img2/100/Congruent/L/C_Dist_100_LN_8_LD_16_RN_2_RD_5_0.png","img2/100/Incongruent/L/I_Dist_100_LN_9_LD_15_RN_14_RD_28_0.png","img2/200/Incongruent/L/I_Dist_200_LN_1_LD_2_RN_3_RD_10_0.png","img2/300/Congruent/L/C_Dist_300_LN_20_LD_25_RN_9_RD_18_0.png","img2/300/Incongruent/L/I_Dist_300_LN_7_LD_10_RN_8_RD_20_0.png","img2/300/Congruent/R/C_Dist_300_LN_1_LD_5_RN_6_RD_12_1.png","img2/100/Congruent/R/C_Dist_100_LN_7_LD_14_RN_15_RD_25_1.png","img2/200/Congruent/R/C_Dist_200_LN_3_LD_10_RN_7_RD_14_1.png","img2/200/Congruent/L/C_Dist_200_LN_4_LD_10_RN_3_RD_15_0.png","img2/100/Congruent/L/C_Dist_100_LN_11_LD_22_RN_6_RD_15_0.png","img2/100/Congruent/R/C_Dist_100_LN_12_LD_30_RN_13_RD_26_1.png","img2/200/Incongruent/R/I_Dist_200_LN_3_LD_10_RN_1_RD_2_1.png","img2/100/Incongruent/L/I_Dist_100_LN_1_LD_2_RN_8_RD_20_0.png","img2/300/Congruent/L/C_Dist_300_LN_12_LD_24_RN_2_RD_10_0.png","img2/100/Incongruent/R/I_Dist_100_LN_8_LD_20_RN_1_RD_2_1.png","img2/300/Congruent/L/C_Dist_300_LN_4_LD_10_RN_1_RD_10_0.png","img2/200/Congruent/L/C_Dist_200_LN_16_LD_20_RN_12_RD_20_0.png","img2/300/Congruent/R/C_Dist_300_LN_1_LD_5_RN_3_RD_6_1.png","img2/100/Congruent/L/C_Dist_100_LN_10_LD_25_RN_3_RD_10_0.png","img2/300/Incongruent/R/I_Dist_300_LN_13_LD_26_RN_12_RD_15_1.png","img2/200/Congruent/L/C_Dist_200_LN_16_LD_30_RN_9_RD_27_0.png","img2/300/Incongruent/R/I_Dist_300_LN_13_LD_26_RN_12_RD_15_1.png","img2/100/Congruent/R/C_Dist_100_LN_6_LD_12_RN_15_RD_25_1.png","img2/300/Congruent/L/C_Dist_300_LN_20_LD_25_RN_9_RD_18_0.png","img2/200/Congruent/R/C_Dist_200_LN_3_LD_10_RN_7_RD_14_1.png","img2/200/Incongruent/R/I_Dist_200_LN_11_LD_20_RN_3_RD_4_1.png","img2/100/Congruent/L/C_Dist_100_LN_11_LD_22_RN_6_RD_15_0.png","img2/200/Congruent/R/C_Dist_200_LN_1_LD_2_RN_21_RD_30_1.png","img2/200/Congruent/L/C_Dist_200_LN_6_LD_15_RN_3_RD_15_0.png","img2/200/Incongruent/L/I_Dist_200_LN_1_LD_3_RN_2_RD_15_0.png","img2/100/Congruent/R/C_Dist_100_LN_12_LD_30_RN_13_RD_26_1.png","img2/300/Incongruent/R/I_Dist_300_LN_13_LD_26_RN_12_RD_15_1.png","img2/300/Incongruent/R/I_Dist_300_LN_13_LD_26_RN_12_RD_15_1.png","img2/100/Incongruent/R/I_Dist_100_LN_9_LD_18_RN_6_RD_10_1.png","img2/100/Incongruent/L/I_Dist_100_LN_3_LD_5_RN_11_RD_22_0.png","img2/100/Congruent/L/C_Dist_100_LN_11_LD_22_RN_6_RD_15_0.png","img2/100/Incongruent/R/I_Dist_100_LN_13_LD_26_RN_12_RD_20_1.png","img2/200/Incongruent/L/I_Dist_200_LN_1_LD_2_RN_3_RD_10_0.png","img2/200/Incongruent/L/I_Dist_200_LN_7_LD_10_RN_8_RD_16_0.png","img2/100/Incongruent/R/I_Dist_100_LN_9_LD_18_RN_6_RD_10_1.png","img2/300/Incongruent/L/I_Dist_300_LN_8_LD_10_RN_14_RD_28_0.png"],"dist100_C":[["C_Dist_100_LN_10_LD_25_RN_3_RD_10_0.png","C_Dist_100_LN_11_LD_22_RN_4_RD_10_0.png","C_Dist_100_LN_11_LD_22_RN_6_RD_15_0.png","C_Dist_100_LN_15_LD_25_RN_13_RD_26_0.png","C_Dist_100_LN_3_LD_6_RN_2_RD_5_0.png","C_Dist_100_LN_6_LD_20_RN_5_RD_25_0.png","C_Dist_100_LN_8_LD_16_RN_2_RD_5_0.png","C_Dist_100_LN_9_LD_15_RN_8_RD_16_0.png"],["C_Dist_100_LN_1_LD_2_RN_18_RD_30_1.png","C_Dist_100_LN_1_LD_2_RN_3_RD_5_1.png","C_Dist_100_LN_12_LD_30_RN_13_RD_26_1.png","C_Dist_100_LN_2_LD_5_RN_11_RD_22_1.png","C_Dist_100_LN_2_LD_5_RN_6_RD_12_1.png","C_Dist_100_LN_3_LD_20_RN_4_RD_16_1.png","C_Dist_100_LN_4_LD_10_RN_15_RD_30_1.png","C_Dist_100_LN_4_LD_8_RN_6_RD_10_1.png","C_Dist_100_LN_6_LD_12_RN_15_RD_25_1.png","C_Dist_100_LN_7_LD_14_RN_15_RD_25_1.png","C_Dist_100_LN_7_LD_14_RN_9_RD_15_1.png"]],"dist100_I":[["I_Dist_100_LN_1_LD_2_RN_8_RD_20_0.png","I_Dist_100_LN_2_LD_4_RN_6_RD_15_0.png","I_Dist_100_LN_2_LD_4_RN_8_RD_20_0.png","I_Dist_100_LN_3_LD_5_RN_11_RD_22_0.png","I_Dist_100_LN_3_LD_5_RN_8_RD_16_0.png","I_Dist_100_LN_3_LD_6_RN_4_RD_10_0.png","I_Dist_100_LN_3_LD_9_RN_7_RD_30_0.png","I_Dist_100_LN_4_LD_8_RN_8_RD_20_0.png","I_Dist_100_LN_6_LD_10_RN_11_RD_22_0.png","I_Dist_100_LN_6_LD_10_RN_13_RD_26_0.png","I_Dist_100_LN_6_LD_10_RN_7_RD_14_0.png","I_Dist_100_LN_9_LD_10_RN_20_RD_25_0.png","I_Dist_100_LN_9_LD_15_RN_13_RD_26_0.png","I_Dist_100_LN_9_LD_15_RN_14_RD_28_0.png"],["I_Dist_100_LN_10_LD_25_RN_8_RD_16_1.png","I_Dist_100_LN_10_LD_25_RN_9_RD_18_1.png","I_Dist_100_LN_11_LD_22_RN_9_RD_15_1.png","I_Dist_100_LN_12_LD_24_RN_9_RD_15_1.png","I_Dist_100_LN_12_LD_30_RN_2_RD_4_1.png","I_Dist_100_LN_13_LD_26_RN_12_RD_20_1.png","I_Dist_100_LN_13_LD_26_RN_6_RD_10_1.png","I_Dist_100_LN_17_LD_30_RN_10_RD_15_1.png","I_Dist_100_LN_6_LD_12_RN_3_RD_5_1.png","I_Dist_100_LN_8_LD_16_RN_6_RD_10_1.png","I_Dist_100_LN_8_LD_20_RN_1_RD_2_1.png","I_Dist_100_LN_9_LD_18_RN_6_RD_10_1.png"]],"dist100_S":[["E_Dist_100_LN_2_LD_12_RN_2_RD_30_0.png","E_Dist_100_LN_6_LD_10_RN_6_RD_12_0.png"],["E_Dist_100_LN_6_LD_12_RN_6_RD_10_1.png"]],"dist200_C":[["C_Dist_200_LN_11_LD_22_RN_3_RD_10_0.png","C_Dist_200_LN_12_LD_15_RN_6_RD_10_0.png","C_Dist_200_LN_12_LD_20_RN_6_RD_15_0.png","C_Dist_200_LN_14_LD_28_RN_6_RD_20_0.png","C_Dist_200_LN_15_LD_25_RN_4_RD_10_0.png","C_Dist_200_LN_16_LD_20_RN_12_RD_20_0.png","C_Dist_200_LN_16_LD_30_RN_9_RD_27_0.png","C_Dist_200_LN_20_LD_25_RN_9_RD_15_0.png","C_Dist_200_LN_21_LD_30_RN_2_RD_4_0.png","C_Dist_200_LN_4_LD_10_RN_3_RD_15_0.png","C_Dist_200_LN_4_LD_8_RN_3_RD_10_0.png","C_Dist_200_LN_6_LD_15_RN_3_RD_15_0.png","C_Dist_200_LN_7_LD_21_RN_2_RD_15_0.png","C_Dist_200_LN_8_LD_15_RN_2_RD_6_0.png","C_Dist_200_LN_8_LD_15_RN_3_RD_9_0.png","C_Dist_200_LN_8_LD_15_RN_7_RD_21_0.png","C_Dist_200_LN_9_LD_20_RN_4_RD_16_0.png"],["C_Dist_200_LN_1_LD_2_RN_21_RD_30_1.png","C_Dist_200_LN_13_LD_26_RN_14_RD_20_1.png","C_Dist_200_LN_3_LD_10_RN_11_RD_22_1.png","C_Dist_200_LN_3_LD_10_RN_14_RD_28_1.png","C_Dist_200_LN_3_LD_10_RN_7_RD_14_1.png","C_Dist_200_LN_3_LD_12_RN_9_RD_20_1.png","C_Dist_200_LN_3_LD_6_RN_14_RD_20_1.png","C_Dist_200_LN_5_LD_10_RN_14_RD_20_1.png","C_Dist_200_LN_6_LD_12_RN_7_RD_10_1.png","C_Dist_200_LN_6_LD_20_RN_11_RD_22_1.png","C_Dist_200_LN_7_LD_15_RN_18_RD_27_1.png","C_Dist_200_LN_9_LD_30_RN_13_RD_26_1.png"]],"dist200_I":[["I_Dist_200_LN_1_LD_2_RN_3_RD_10_0.png","I_Dist_200_LN_1_LD_3_RN_2_RD_15_0.png","I_Dist_200_LN_3_LD_4_RN_11_RD_20_0.png","I_Dist_200_LN_4_LD_5_RN_6_RD_10_0.png","I_Dist_200_LN_4_LD_6_RN_14_RD_30_0.png","I_Dist_200_LN_7_LD_10_RN_12_RD_24_0.png","I_Dist_200_LN_7_LD_10_RN_14_RD_28_0.png","I_Dist_200_LN_7_LD_10_RN_8_RD_16_0.png"],["I_Dist_200_LN_11_LD_20_RN_3_RD_4_1.png","I_Dist_200_LN_14_LD_30_RN_12_RD_18_1.png","I_Dist_200_LN_14_LD_30_RN_6_RD_9_1.png","I_Dist_200_LN_3_LD_10_RN_1_RD_2_1.png","I_Dist_200_LN_4_LD_30_RN_1_RD_3_1.png","I_Dist_200_LN_6_LD_20_RN_3_RD_6_1.png","I_Dist_200_LN_7_LD_15_RN_4_RD_6_1.png","I_Dist_200_LN_7_LD_15_RN_6_RD_9_1.png","I_Dist_200_LN_9_LD_15_RN_8_RD_10_1.png"]],"dist200_S":[["E_Dist_200_LN_3_LD_6_RN_3_RD_10_0.png"],["E_Dist_200_LN_3_LD_10_RN_3_RD_6_1.png"]],"dist300_C":[["C_Dist_300_LN_11_LD_22_RN_1_RD_5_0.png","C_Dist_300_LN_11_LD_22_RN_2_RD_10_0.png","C_Dist_300_LN_11_LD_22_RN_4_RD_20_0.png","C_Dist_300_LN_12_LD_24_RN_2_RD_10_0.png","C_Dist_300_LN_18_LD_20_RN_9_RD_15_0.png","C_Dist_300_LN_20_LD_25_RN_13_RD_26_0.png","C_Dist_300_LN_20_LD_25_RN_14_RD_28_0.png","C_Dist_300_LN_20_LD_25_RN_5_RD_10_0.png","C_Dist_300_LN_20_LD_25_RN_8_RD_16_0.png","C_Dist_300_LN_20_LD_25_RN_9_RD_18_0.png","C_Dist_300_LN_24_LD_30_RN_2_RD_4_0.png","C_Dist_300_LN_24_LD_30_RN_8_RD_16_0.png","C_Dist_300_LN_3_LD_6_RN_2_RD_10_0.png","C_Dist_300_LN_4_LD_10_RN_1_RD_10_0.png","C_Dist_300_LN_4_LD_5_RN_2_RD_4_0.png","C_Dist_300_LN_8_LD_16_RN_1_RD_5_0.png","C_Dist_300_LN_9_LD_10_RN_3_RD_5_0.png"],["C_Dist_300_LN_1_LD_20_RN_7_RD_20_1.png","C_Dist_300_LN_1_LD_3_RN_19_RD_30_1.png","C_Dist_300_LN_1_LD_30_RN_8_RD_24_1.png","C_Dist_300_LN_1_LD_5_RN_11_RD_22_1.png","C_Dist_300_LN_1_LD_5_RN_3_RD_6_1.png","C_Dist_300_LN_1_LD_5_RN_6_RD_12_1.png","C_Dist_300_LN_2_LD_10_RN_12_RD_24_1.png","C_Dist_300_LN_2_LD_20_RN_10_RD_25_1.png","C_Dist_300_LN_3_LD_12_RN_11_RD_20_1.png","C_Dist_300_LN_3_LD_6_RN_4_RD_5_1.png","C_Dist_300_LN_4_LD_20_RN_13_RD_26_1.png","C_Dist_300_LN_5_LD_25_RN_6_RD_12_1.png","C_Dist_300_LN_5_LD_25_RN_7_RD_14_1.png","C_Dist_300_LN_7_LD_14_RN_20_RD_25_1.png","C_Dist_300_LN_8_LD_15_RN_10_RD_12_1.png"]],"dist300_I":[["I_Dist_300_LN_1_LD_2_RN_2_RD_10_0.png","I_Dist_300_LN_1_LD_2_RN_3_RD_15_0.png","I_Dist_300_LN_2_LD_4_RN_6_RD_30_0.png","I_Dist_300_LN_3_LD_6_RN_4_RD_20_0.png","I_Dist_300_LN_4_LD_5_RN_6_RD_12_0.png","I_Dist_300_LN_4_LD_5_RN_8_RD_16_0.png","I_Dist_300_LN_7_LD_10_RN_8_RD_20_0.png","I_Dist_300_LN_8_LD_10_RN_14_RD_28_0.png","I_Dist_300_LN_8_LD_10_RN_9_RD_18_0.png"],["I_Dist_300_LN_13_LD_26_RN_12_RD_15_1.png","I_Dist_300_LN_4_LD_20_RN_2_RD_4_1.png"]],"dist300_S":[["E_Dist_300_LN_9_LD_12_RN_9_RD_20_0.png"],["E_Dist_300_LN_18_LD_30_RN_18_RD_20_1.png","E_Dist_300_LN_3_LD_10_RN_3_RD_5_1.png","E_Dist_300_LN_9_LD_20_RN_9_RD_12_1.png"]],"dist500_C":[["C_Dist_500_LN_10_LD_13_RN_7_RD_26_0.png","C_Dist_500_LN_10_LD_15_RN_4_RD_24_0.png","C_Dist_500_LN_12_LD_16_RN_3_RD_12_0.png","C_Dist_500_LN_12_LD_18_RN_4_RD_24_0.png","C_Dist_500_LN_15_LD_18_RN_5_RD_15_0.png","C_Dist_500_LN_15_LD_20_RN_1_RD_4_0.png","C_Dist_500_LN_18_LD_27_RN_1_RD_6_0.png","C_Dist_500_LN_20_LD_24_RN_1_RD_3_0.png","C_Dist_500_LN_20_LD_24_RN_3_RD_9_0.png","C_Dist_500_LN_20_LD_24_RN_7_RD_21_0.png","C_Dist_500_LN_20_LD_28_RN_3_RD_14_0.png","C_Dist_500_LN_21_LD_28_RN_6_RD_24_0.png","C_Dist_500_LN_22_LD_28_RN_2_RD_7_0.png","C_Dist_500_LN_25_LD_30_RN_9_RD_27_0.png","C_Dist_500_LN_4_LD_6_RN_1_RD_6_0.png","C_Dist_500_LN_5_LD_6_RN_2_RD_6_0.png","C_Dist_500_LN_6_LD_9_RN_1_RD_6_0.png","C_Dist_500_LN_7_LD_10_RN_1_RD_5_0.png","C_Dist_500_LN_8_LD_12_RN_1_RD_6_0.png","C_Dist_500_LN_8_LD_12_RN_4_RD_24_0.png"],["C_Dist_500_LN_1_LD_4_RN_12_RD_16_1.png","C_Dist_500_LN_1_LD_4_RN_9_RD_12_1.png","C_Dist_500_LN_1_LD_9_RN_11_RD_18_1.png","C_Dist_500_LN_10_LD_24_RN_22_RD_24_1.png","C_Dist_500_LN_2_LD_12_RN_10_RD_15_1.png","C_Dist_500_LN_2_LD_12_RN_12_RD_18_1.png","C_Dist_500_LN_2_LD_12_RN_4_RD_6_1.png","C_Dist_500_LN_2_LD_24_RN_7_RD_12_1.png","C_Dist_500_LN_2_LD_5_RN_18_RD_20_1.png","C_Dist_500_LN_2_LD_5_RN_9_RD_10_1.png","C_Dist_500_LN_2_LD_8_RN_12_RD_16_1.png","C_Dist_500_LN_2_LD_8_RN_21_RD_28_1.png","C_Dist_500_LN_3_LD_10_RN_4_RD_5_1.png","C_Dist_500_LN_3_LD_12_RN_15_RD_20_1.png","C_Dist_500_LN_3_LD_30_RN_6_RD_10_1.png","C_Dist_500_LN_3_LD_8_RN_14_RD_16_1.png","C_Dist_500_LN_4_LD_16_RN_15_RD_20_1.png","C_Dist_500_LN_4_LD_24_RN_12_RD_18_1.png","C_Dist_500_LN_5_LD_14_RN_6_RD_7_1.png","C_Dist_500_LN_7_LD_21_RN_20_RD_24_1.png","C_Dist_500_LN_7_LD_28_RN_12_RD_16_1.png","C_Dist_500_LN_7_LD_28_RN_9_RD_12_1.png","C_Dist_500_LN_9_LD_27_RN_20_RD_24_1.png"]],"dist500_I":[["I_Dist_500_LN_2_LD_3_RN_4_RD_24_0.png","I_Dist_500_LN_5_LD_6_RN_6_RD_18_0.png","I_Dist_500_LN_7_LD_8_RN_9_RD_24_0.png"],["I_Dist_500_LN_7_LD_21_RN_5_RD_6_1.png"]],"dist500_S":[["E_Dist_500_LN_6_LD_8_RN_6_RD_24_0.png"],["E_Dist_500_LN_2_LD_12_RN_2_RD_3_1.png","E_Dist_500_LN_6_LD_24_RN_6_RD_8_1.png"]]}},{"start_time":1551800636482,"click_time":1551800637880,"finger_time":1551800637779,"fix_duration":740.8537543662759,"trial":1,"RT":1297,"MT":101,"sideResp":1,"stimulus":[],"xmouse":[760,760,760,760,760,760,760,760,760,760,760,760,760,760,760,760,760,760,760,760,760,760,760,760,760,760,760,760,760,760,760,760,760,760,760,760,760,760,760,760,760,760,760,760,760,760,760,760,760,760,760,760,760,760,760,760,760,760,760,760,760,760,760,757,688,610,549,481,460,441],"ymouse":[454,454,454,454,454,454,454,454,454,454,454,454,454,454,454,454,454,454,454,454,454,454,454,454,454,454,454,454,454,454,454,454,454,454,454,454,454,454,454,454,454,454,454,454,454,454,454,454,454,454,454,454,454,454,454,454,454,454,454,454,454,454,453,451,359,263,188,128,108,88],"timestamp_mouse":[33,39,58,77,98,117,139,157,178,198,217,237,259,277,299,319,337,358,378,398,419,438,457,478,498,518,537,559,577,598,618,637,659,678,699,719,737,758,778,799,817,839,857,878,898,919,938,957,979,997,1018,1038,1058,1078,1099,1118,1139,1159,1179,1198,1219,1239,1259,1278,1297,1317,1339,1358,1378,1398],"xSR":737,"ySR":442.65000000000003,"xT1":422.2,"yT1":0,"xT2":1051.8,"yT2":0,"toosoon":0,"cond_shown":"Incongruent","ratio_trial":200,"L_num":7,"L_den":10,"R_num":12,"R_den":24,"correct_side":1,"subjID":"MariaPaulaMrianoSalcedo11","gender":"1","school":"6","age":"11"},{"start_time":1551800640381,"click_time":1551800642181,"finger_time":1551800641880,"fix_duration":1277.2856661086632,"trial":2,"RT":1499,"MT":301,"sideResp":1,"stimulus":[],"xmouse":[764,764,764,764,764,764,764,764,764,764,764,764,764,764,764,764,764,764,764,764,764,764,764,764,764,764,764,764,764,764,764,764,764,764,764,764,764,764,764,764,764,764,764,764,764,764,764,764,764,764,764,764,764,764,764,764,764,764,764,764,764,764,764,764,764,764,764,764,764,764,764,764,764,764,757,740,721,652,588,560,553,553,554,555,555,557,557,557,552,543,515],"ymouse":[470,470,470,470,470,470,470,470,470,470,470,470,470,470,470,470,470,470,470,470,470,470,470,470,470,470,470,470,470,470,470,470,470,470,470,470,470,470,470,470,470,470,470,470,470,470,470,470,470,470,470,470,470,470,470,470,470,470,470,470,470,470,470,470,470,470,470,470,470,470,470,470,470,470,454,421,394,308,245,214,198,195,194,193,193,192,176,157,144,131,98],"timestamp_mouse":[2,23,38,60,78,100,118,140,158,178,199,220,240,260,279,298,319,338,360,380,398,420,440,459,479,500,520,540,559,580,599,619,640,658,680,700,720,738,760,779,799,820,838,860,880,900,919,939,959,978,1000,1020,1038,1059,1078,1099,1120,1138,1160,1178,1199,1219,1239,1260,1280,1299,1320,1339,1358,1380,1398,1418,1439,1460,1479,1499,1518,1539,1559,1580,1599,1619,1639,1658,1679,1698,1720,1739,1758,1778,1799],"xSR":737,"ySR":442.65000000000003,"xT1":422.2,"yT1":0,"xT2":1051.8,"yT2":0,"toosoon":0,"cond_shown":"Incongruent","ratio_trial":100,"L_num":3,"L_den":6,"R_num":4,"R_den":10,"correct_side":1,"subjID":"MariaPaulaMrianoSalcedo11","gender":"1","school":"6","age":"11"},{"start_time":1551800643911,"click_time":1551800644860,"finger_time":1551800644701,"fix_duration":250,"trial":3,"RT":790,"MT":159,"sideResp":2,"stimulus":[],"xmouse":[789,789,789,789,789,789,789,789,789,789,789,789,789,789,789,789,789,789,789,789,789,789,789,789,789,789,789,789,789,789,789,789,789,789,789,789,789,789,791,807,833,856,896,982,1012,1031,1044,1054],"ymouse":[458,458,458,458,458,458,458,458,458,458,458,458,458,458,458,458,458,458,458,458,458,458,458,458,458,458,458,458,458,458,458,458,458,458,458,458,458,458,458,439,411,385,328,198,138,94,67,51],"timestamp_mouse":[10,35,49,69,90,108,129,148,168,189,208,228,248,270,288,310,328,348,370,388,408,429,448,470,489,508,529,549,569,589,609,630,648,669,689,708,729,748,769,790,809,830,848,869,889,909,929,949],"xSR":737,"ySR":442.65000000000003,"xT1":422.2,"yT1":0,"xT2":1051.8,"yT2":0,"toosoon":0,"cond_shown":"Incongruent","ratio_trial":300,"L_num":4,"L_den":20,"R_num":2,"R_den":4,"correct_side":2,"subjID":"MariaPaulaMrianoSalcedo11","gender":"1","school":"6","age":"11"},{"start_time":1551800646431,"click_time":1551800647780,"finger_time":1551800647699,"fix_duration":250,"trial":4,"RT":1268,"MT":81,"sideResp":2,"stimulus":[],"xmouse":[796,796,796,796,796,796,796,796,796,796,796,796,796,796,796,796,796,796,796,796,796,796,796,796,796,796,796,796,796,796,796,796,796,796,796,796,796,796,796,796,796,796,796,796,796,796,796,796,796,796,796,796,796,796,796,796,796,796,796,796,796,796,811,847,972,1035,1091,1134],"ymouse":[478,478,478,478,478,478,478,478,478,478,478,478,478,478,478,478,478,478,478,478,478,478,478,478,478,478,478,478,478,478,478,478,478,478,478,478,478,478,478,478,478,478,478,478,478,478,478,478,478,478,478,478,478,478,478,478,478,478,478,478,478,478,468,437,328,271,192,73],"timestamp_mouse":[10,30,50,70,90,110,129,148,169,189,209,228,249,270,288,310,328,350,369,390,408,429,449,469,490,508,528,550,569,588,609,630,650,668,690,710,728,750,770,788,809,830,848,870,889,909,930,949,969,990,1011,1029,1048,1068,1090,1109,1130,1149,1168,1189,1209,1228,1249,1268,1289,1308,1329,1348],"xSR":737,"ySR":442.65000000000003,"xT1":422.2,"yT1":0,"xT2":1051.8,"yT2":0,"toosoon":0,"cond_shown":"Incongruent","ratio_trial":300,"L_num":13,"L_den":26,"R_num":12,"R_den":15,"correct_side":2,"subjID":"MariaPaulaMrianoSalcedo11","gender":"1","school":"6","age":"11"},{"start_time":1551800650763,"click_time":1551800651859,"finger_time":1551800651440,"fix_duration":1242.586587685516,"trial":5,"RT":677,"MT":419,"sideResp":1,"stimulus":[],"xmouse":[803,803,803,803,803,803,803,803,803,803,803,803,803,803,803,803,803,803,803,803,803,803,803,803,803,803,803,803,803,803,803,802,782,739,684,560,554,551,565,574,584,586,586,586,585,585,585,585,584,584,580,572,556,529,502],"ymouse":[471,471,471,471,471,471,471,471,471,471,471,471,471,471,471,471,471,471,471,471,471,471,471,471,471,471,471,471,471,471,471,468,447,412,359,212,200,177,154,147,136,125,116,107,104,104,104,104,102,102,98,92,83,69,57],"timestamp_mouse":[17,37,58,77,97,118,137,158,176,197,217,237,256,278,296,316,338,356,378,396,417,437,456,477,496,518,536,557,577,597,617,637,658,677,698,716,736,758,777,796,817,837,857,877,896,917,937,957,976,997,1018,1037,1057,1078,1096],"xSR":737,"ySR":442.65000000000003,"xT1":422.2,"yT1":0,"xT2":1051.8,"yT2":0,"toosoon":0,"cond_shown":"Congruent","ratio_trial":200,"L_num":11,"L_den":22,"R_num":3,"R_den":10,"correct_side":1,"subjID":"MariaPaulaMrianoSalcedo11","gender":"1","school":"6","age":"11"},{"start_time":1551800654175,"click_time":1551800657480,"finger_time":1551800656800,"fix_duration":631.3828156711725,"trial":6,"RT":2625,"MT":680,"sideResp":1,"stimulus":[],"xmouse":[780,780,780,780,780,780,780,780,780,780,780,780,780,780,780,780,780,780,780,780,780,780,780,780,780,780,780,780,780,780,780,780,780,780,780,780,780,780,780,782,782,782,782,782,782,782,782,782,782,782,782,782,782,782,782,782,782,782,782,782,782,782,782,782,782,782,782,782,782,782,782,782,782,782,782,782,782,782,782,782,782,782,782,782,782,782,782,782,782,782,782,782,782,782,782,782,782,782,782,782,782,782,782,782,782,782,782,782,782,782,782,782,782,782,782,782,782,782,782,782,782,782,782,782,782,782,782,782,782,782,776,754,697,607,509,431,393,393,393,393,393,389,388,382,381,381,381,381,381,381,385,390,395,396,396,396,396,397,400,400,410,411,411,411,413,429],"ymouse":[477,477,477,477,477,477,477,477,477,477,477,477,477,477,477,477,477,477,477,477,477,477,477,477,477,477,477,477,477,477,477,477,477,477,477,477,477,477,477,477,477,477,477,477,477,477,477,477,477,477,477,477,477,477,477,477,477,477,477,477,477,477,477,477,477,477,477,477,477,477,477,477,477,477,477,477,477,477,477,477,477,477,477,477,477,477,477,477,477,477,477,477,477,477,477,477,477,477,477,477,477,477,477,477,477,477,477,477,477,477,477,477,477,477,477,477,477,477,477,477,477,477,477,477,477,477,477,477,477,477,457,425,356,263,168,101,66,63,63,63,60,51,51,43,39,38,38,38,38,37,37,37,37,37,37,37,37,37,37,37,37,38,38,38,38,38],"timestamp_mouse":[10,35,45,64,85,106,124,145,166,184,204,224,246,266,284,306,326,344,366,385,405,426,446,466,484,506,526,545,566,585,604,626,645,665,686,706,726,744,766,786,806,826,845,866,884,906,924,946,965,985,1005,1025,1044,1066,1084,1106,1124,1145,1165,1185,1206,1224,1244,1266,1284,1305,1326,1346,1364,1386,1404,1426,1446,1464,1484,1506,1524,1545,1566,1585,1605,1626,1646,1665,1685,1706,1725,1746,1765,1785,1806,1825,1845,1865,1886,1906,1925,1944,1966,1985,2005,2026,2046,2066,2085,2105,2126,2146,2165,2185,2206,2224,2244,2266,2285,2304,2325,2345,2365,2385,2406,2425,2445,2466,2485,2504,2526,2545,2566,2585,2605,2625,2644,2665,2686,2705,2725,2745,2765,2784,2805,2826,2845,2865,2886,2905,2926,2945,2965,2985,3005,3025,3045,3065,3084,3104,3124,3145,3166,3185,3205,3224,3245,3265,3286,3305],"xSR":737,"ySR":442.65000000000003,"xT1":422.2,"yT1":0,"xT2":1051.8,"yT2":0,"toosoon":0,"cond_shown":"Incongruent","ratio_trial":300,"L_num":4,"L_den":20,"R_num":2,"R_den":4,"correct_side":2,"subjID":"MariaPaulaMrianoSalcedo11","gender":"1","school":"6","age":"11"},{"start_time":1551800661365,"click_time":1551800665180,"finger_time":1551800662461,"fix_duration":1344.2962527361979,"trial":7,"RT":1096,"MT":2719,"sideResp":2,"stimulus":[],"xmouse":[813,813,813,813,813,813,813,813,813,813,813,813,813,813,813,813,813,813,813,813,813,813,813,813,813,813,813,813,813,813,813,813,813,813,813,813,813,813,813,813,813,813,813,813,813,813,813,813,813,813,813,813,815,832,840,844,853,853,853,853,853,853,852,850,849,844,844,846,848,851,857,860,882,951,994,1014,1014,1015,1018,1018,1018,1018,1018,1018,1018,1018,1018,1018,1018,1018,1018,1018,1018,1018,1021,1021,1021,1021,1021,1021,1021,1021,1021,1021,1021,1025,1025,1025,1025,1025,1027,1031,1031,1031,1031,1031,1033,1034,1034,1034,1034,1034,1034,1034,1035,1037,1038,1038,1038,1038,1038,1038,1038,1038,1038,1038,1038,1038,1038,1038,1038,1038,1038,1038,1038,1038,1038,1038,1038,1038,1038,1038,1038,1038,1038,1038,1038,1038,1038,1038,1038,1038,1038,1038,1038,1038,1038,1038,1038,1038,1036,1014,1015,1015,1015,1015,1015,1015,1015,1015,1015,1015,1015,1015,1015,1015,1015,1015,1016,1023,1079],"ymouse":[488,488,488,488,488,488,488,488,488,488,488,488,488,488,488,488,488,488,488,488,488,488,488,488,488,488,488,488,488,488,488,488,488,488,488,488,488,488,488,488,488,488,488,488,488,488,488,488,488,488,488,488,483,464,453,448,435,431,429,425,414,408,400,392,383,362,350,336,314,301,282,277,257,225,207,190,190,186,181,181,181,181,181,181,181,181,173,171,171,171,171,171,171,171,169,169,169,169,169,169,169,169,169,169,167,161,161,161,161,161,156,154,154,154,154,154,152,149,149,149,149,149,149,149,147,140,138,138,138,138,138,138,138,138,138,138,138,138,138,138,138,138,138,138,138,138,138,138,138,138,138,138,138,138,138,138,138,138,138,138,138,138,138,138,138,138,138,138,138,138,143,185,218,218,218,218,218,218,218,218,218,218,218,218,218,218,218,218,218,205,96],"timestamp_mouse":[16,40,55,74,95,115,134,156,174,194,216,234,256,274,295,316,334,354,376,395,414,436,456,476,494,516,536,554,576,595,615,634,655,675,695,716,735,754,775,794,815,836,856,876,895,914,936,956,974,995,1016,1035,1056,1075,1096,1115,1136,1154,1174,1196,1215,1235,1255,1275,1295,1316,1334,1354,1376,1395,1415,1435,1456,1475,1496,1515,1534,1555,1575,1595,1615,1635,1655,1676,1695,1715,1736,1755,1775,1795,1815,1835,1855,1875,1895,1914,1935,1955,1974,1995,2016,2036,2055,2075,2096,2115,2135,2156,2176,2195,2215,2236,2254,2275,2296,2315,2335,2354,2375,2396,2415,2436,2455,2476,2495,2515,2536,2555,2575,2596,2615,2635,2655,2676,2696,2714,2734,2755,2775,2795,2816,2836,2855,2875,2895,2916,2935,2954,2975,2996,3015,3034,3056,3074,3094,3116,3136,3155,3176,3195,3214,3235,3256,3275,3295,3315,3334,3354,3376,3395,3415,3435,3456,3474,3495,3515,3534,3555,3576,3595,3615,3635,3654,3675,3696,3714,3735,3754,3775,3796,3815],"xSR":737,"ySR":442.65000000000003,"xT1":422.2,"yT1":0,"xT2":1051.8,"yT2":0,"toosoon":0,"cond_shown":"Incongruent","ratio_trial":200,"L_num":7,"L_den":10,"R_num":8,"R_den":16,"correct_side":1,"subjID":"MariaPaulaMrianoSalcedo11","gender":"1","school":"6","age":"11"},{"start_time":1551800669065,"click_time":1551800671020,"finger_time":1551800669500,"fix_duration":963.2678782386017,"trial":8,"RT":435,"MT":1520,"sideResp":2,"stimulus":[],"xmouse":[829,829,829,829,829,829,829,829,829,829,829,829,829,829,829,829,829,829,829,828,826,823,820,818,816,816,815,815,815,815,815,815,815,815,815,815,815,815,815,815,815,815,815,815,815,815,815,815,815,815,815,815,815,815,815,815,820,827,840,844,860,873,880,883,883,900,920,939,954,967,979,982,982,982,983,985,985,987,990,993,999,999,1006,1013,1015,1028,1035,1037,1040,1041,1042,1042,1045,1048,1050,1054,1056,1060],"ymouse":[443,443,443,443,443,443,443,443,443,443,443,443,443,443,443,443,443,443,443,443,443,442,440,439,438,438,437,437,437,437,437,437,437,437,437,437,437,437,437,437,437,437,437,437,437,437,437,437,437,437,437,437,437,437,437,437,435,434,428,426,417,406,398,394,394,377,354,334,320,303,280,273,273,273,271,260,260,254,243,231,214,214,202,190,188,169,155,149,141,138,134,132,126,120,115,106,100,94],"timestamp_mouse":[15,35,56,74,96,115,136,155,175,194,215,235,254,276,296,314,336,354,376,395,414,435,455,475,496,515,534,556,575,595,615,634,654,676,695,715,735,754,775,794,814,835,855,874,896,915,934,955,975,995,1017,1034,1055,1074,1094,1116,1135,1155,1175,1196,1215,1234,1255,1275,1296,1315,1335,1355,1374,1395,1416,1435,1454,1475,1495,1516,1535,1554,1574,1595,1615,1635,1655,1675,1694,1715,1734,1755,1775,1795,1816,1834,1854,1876,1895,1914,1935,1955],"xSR":737,"ySR":442.65000000000003,"xT1":422.2,"yT1":0,"xT2":1051.8,"yT2":0,"toosoon":0,"cond_shown":"Congruent","ratio_trial":300,"L_num":5,"L_den":25,"R_num":6,"R_den":12,"correct_side":2,"subjID":"MariaPaulaMrianoSalcedo11","gender":"1","school":"6","age":"11"},{"start_time":1551800672692,"click_time":1551800674641,"finger_time":1551800673680,"fix_duration":250,"trial":9,"RT":988,"MT":961,"sideResp":1,"stimulus":[],"xmouse":[765,765,765,765,765,765,765,765,765,765,765,765,765,765,765,765,765,765,765,765,765,765,765,765,765,765,765,765,765,765,765,765,765,765,765,765,765,765,765,765,765,765,765,765,765,765,765,765,765,757,749,749,749,747,746,745,743,739,736,719,715,715,715,715,708,699,693,685,673,636,619,605,603,601,599,599,599,595,590,580,574,564,560,556,555,553,548,545,541,523,511,509,509,509,509,508,506,503],"ymouse":[488,488,488,488,487,487,487,487,487,487,487,487,487,487,487,487,487,487,487,487,487,487,487,487,487,487,487,487,487,487,487,487,487,487,487,487,487,487,487,487,487,487,487,487,487,487,483,477,458,430,417,417,417,413,409,405,397,388,380,357,348,348,348,347,336,324,317,308,294,257,241,227,222,220,213,213,213,203,189,167,158,140,132,126,125,123,120,119,117,109,104,102,102,102,102,102,100,95],"timestamp_mouse":[9,38,47,69,87,107,129,149,168,188,208,227,249,269,287,309,327,348,368,388,409,427,449,468,488,508,528,548,568,588,607,629,648,668,688,708,729,747,769,787,807,829,848,867,888,908,929,948,967,988,1008,1028,1047,1069,1088,1108,1128,1148,1169,1188,1208,1227,1248,1268,1287,1308,1328,1349,1369,1388,1407,1428,1448,1468,1488,1507,1528,1547,1569,1588,1609,1628,1649,1668,1688,1708,1728,1747,1767,1787,1809,1829,1849,1868,1888,1907,1927,1949],"xSR":737,"ySR":442.65000000000003,"xT1":422.2,"yT1":0,"xT2":1051.8,"yT2":0,"toosoon":0,"cond_shown":"Congruent","ratio_trial":200,"L_num":16,"L_den":30,"R_num":9,"R_den":27,"correct_side":1,"subjID":"MariaPaulaMrianoSalcedo11","gender":"1","school":"6","age":"11"},{"start_time":1551800678679,"click_time":1551800680560,"finger_time":1551800680081,"fix_duration":1497.294589862182,"trial":10,"RT":1402,"MT":479,"sideResp":1,"stimulus":[],"xmouse":[785,785,785,785,785,785,785,785,785,785,785,785,785,785,785,785,785,785,785,785,785,785,785,785,785,785,785,785,785,785,785,785,785,785,785,785,785,785,785,785,785,785,785,785,785,785,785,785,785,785,785,785,785,785,785,785,785,785,785,785,785,785,785,785,785,784,784,784,784,782,752,728,708,704,695,678,678,677,676,669,652,642,640,635,617,584,583,573,561,547,523,511,501,497,493],"ymouse":[468,468,468,468,468,468,468,468,468,468,468,468,468,468,468,468,468,468,468,468,468,468,468,468,468,468,468,468,468,468,468,468,468,468,468,468,468,468,468,468,468,468,468,468,468,468,468,468,468,468,468,468,468,468,468,468,468,468,468,468,468,468,468,468,468,468,468,468,468,464,414,382,354,350,340,306,305,304,301,294,277,270,268,265,252,226,224,215,202,190,161,145,124,111,97],"timestamp_mouse":[8,30,41,61,82,100,127,141,160,182,201,221,241,262,282,302,321,342,362,381,401,421,440,462,481,502,521,541,561,581,601,620,641,661,681,701,721,741,762,781,801,822,842,861,881,900,921,942,962,981,1001,1021,1041,1062,1081,1102,1121,1141,1162,1182,1201,1221,1242,1261,1281,1302,1320,1341,1361,1382,1402,1421,1440,1461,1481,1501,1521,1541,1561,1580,1601,1621,1640,1661,1682,1701,1721,1742,1761,1780,1800,1820,1840,1861,1881],"xSR":737,"ySR":442.65000000000003,"xT1":422.2,"yT1":0,"xT2":1051.8,"yT2":0,"toosoon":0,"cond_shown":"Incongruent","ratio_trial":300,"L_num":8,"L_den":10,"R_num":9,"R_den":18,"correct_side":1,"subjID":"MariaPaulaMrianoSalcedo11","gender":"1","school":"6","age":"11"},{"start_time":1551800683073,"click_time":1551800685060,"finger_time":1551800684259,"fix_duration":1051.3305459208752,"trial":11,"RT":1186,"MT":801,"sideResp":2,"stimulus":[],"xmouse":[780,780,780,780,780,780,780,780,780,780,780,780,780,780,780,780,780,780,780,780,780,780,780,780,780,780,780,780,780,780,780,780,780,780,780,780,780,780,780,780,780,780,780,780,780,780,780,780,780,780,780,780,780,780,780,780,780,780,791,806,871,882,914,928,934,934,934,934,935,943,953,956,965,968,969,981,990,991,991,991,991,992,993,993,993,993,999,1006,1010,1024,1038,1038,1039,1045,1048,1058,1060,1060,1060,1061],"ymouse":[463,463,463,463,463,463,463,463,463,463,463,463,463,463,463,463,463,463,463,463,463,463,463,463,463,463,463,463,463,463,463,463,463,463,463,463,463,463,463,463,463,463,463,463,463,463,463,463,463,463,463,463,463,463,463,463,462,462,453,442,389,382,355,339,327,327,327,327,326,320,304,299,275,265,263,232,214,211,210,210,210,207,200,200,200,200,187,181,177,167,153,153,151,144,140,112,102,101,101,99],"timestamp_mouse":[11,40,47,67,88,106,128,147,167,188,208,227,247,267,288,307,328,347,368,388,406,428,448,466,488,508,526,547,568,587,606,627,647,667,687,707,727,748,768,787,807,828,847,866,888,908,927,946,967,986,1007,1028,1047,1067,1087,1107,1127,1147,1168,1186,1207,1227,1247,1268,1287,1307,1327,1346,1367,1388,1406,1426,1447,1467,1488,1508,1528,1546,1568,1587,1607,1626,1646,1666,1687,1707,1727,1747,1767,1787,1807,1828,1846,1866,1887,1907,1926,1947,1967,1987],"xSR":737,"ySR":442.65000000000003,"xT1":422.2,"yT1":0,"xT2":1051.8,"yT2":0,"toosoon":0,"cond_shown":"Congruent","ratio_trial":300,"L_num":2,"L_den":20,"R_num":10,"R_den":25,"correct_side":2,"subjID":"MariaPaulaMrianoSalcedo11","gender":"1","school":"6","age":"11"},{"start_time":1551800687616,"click_time":1551800689281,"finger_time":1551800688920,"fix_duration":634.6990098577209,"trial":12,"RT":1304,"MT":361,"sideResp":1,"stimulus":[],"xmouse":[785,785,785,785,785,785,785,785,785,785,785,786,787,787,787,787,787,787,787,787,787,787,787,787,787,787,787,787,787,787,787,787,787,787,787,787,787,787,787,787,787,787,787,787,787,787,787,787,787,787,787,787,787,787,787,787,787,787,787,787,787,787,787,787,787,783,782,771,717,712,711,707,695,672,665,655,648,637,618,604,586,550,526,517],"ymouse":[483,483,483,483,483,483,483,483,483,483,483,482,482,482,482,482,482,482,482,482,482,482,482,482,482,482,482,482,482,482,482,482,482,482,482,482,482,482,482,482,482,482,482,482,482,482,482,482,482,482,482,482,482,482,482,482,482,482,482,482,482,482,482,479,463,431,428,396,296,288,285,277,253,212,201,188,181,169,153,141,126,104,87,82],"timestamp_mouse":[8,32,45,64,83,105,124,144,164,184,203,224,244,264,285,304,324,343,363,385,403,425,444,463,485,505,524,545,565,584,604,625,645,663,684,705,724,743,764,783,805,825,844,864,884,903,925,945,963,985,1004,1024,1045,1064,1085,1103,1123,1145,1165,1185,1205,1224,1243,1264,1283,1304,1324,1344,1364,1384,1404,1423,1444,1464,1484,1504,1524,1544,1563,1584,1604,1624,1644,1664],"xSR":737,"ySR":442.65000000000003,"xT1":422.2,"yT1":0,"xT2":1051.8,"yT2":0,"toosoon":0,"cond_shown":"Congruent","ratio_trial":100,"L_num":9,"L_den":15,"R_num":8,"R_den":16,"correct_side":1,"subjID":"MariaPaulaMrianoSalcedo11","gender":"1","school":"6","age":"11"},{"start_time":1551800691092,"click_time":1551800693160,"finger_time":1551800691979,"fix_duration":571.8853613216868,"trial":13,"RT":887,"MT":1181,"sideResp":2,"stimulus":[],"xmouse":[787,787,787,787,787,787,787,787,787,787,787,787,787,787,787,787,787,787,787,787,787,787,787,787,787,787,787,787,787,787,787,787,787,787,787,787,787,787,787,787,787,787,787,790,810,829,841,842,864,913,942,995,1013,1038,1039,1039,1039,1040,1040,1041,1042,1043,1043,1043,1043,1043,1043,1040,1038,1038,1041,1051,1062,1064,1076,1078,1085,1086,1086,1086,1088,1088,1088,1088,1088,1088,1088,1088,1088,1088,1088,1088,1088,1088,1088,1088,1088,1088,1088,1088,1088,1088,1088,1090],"ymouse":[455,455,455,455,455,455,455,455,455,455,455,455,455,455,455,455,455,455,455,455,455,455,455,455,455,455,455,455,455,455,455,455,455,455,455,455,455,455,455,455,455,455,455,452,436,420,410,408,392,349,326,284,270,249,249,249,249,246,246,236,225,213,211,211,211,211,211,211,212,212,204,191,176,174,161,157,146,142,142,133,115,106,106,106,104,104,104,104,104,103,103,103,103,103,102,102,102,102,102,102,102,102,102,98],"timestamp_mouse":[9,36,47,68,88,108,127,148,168,189,207,227,248,267,287,308,328,347,369,387,408,428,448,468,487,508,528,547,567,587,608,627,647,668,688,707,727,748,767,788,808,828,848,867,887,908,927,948,967,987,1007,1027,1048,1067,1089,1109,1129,1147,1167,1187,1208,1228,1247,1267,1288,1307,1327,1348,1368,1389,1408,1427,1447,1467,1488,1507,1527,1547,1569,1588,1607,1628,1647,1668,1687,1707,1728,1748,1769,1788,1807,1827,1847,1867,1887,1907,1929,1948,1967,1988,2007,2028,2047,2068],"xSR":737,"ySR":442.65000000000003,"xT1":422.2,"yT1":0,"xT2":1051.8,"yT2":0,"toosoon":0,"cond_shown":"Congruent","ratio_trial":100,"L_num":1,"L_den":2,"R_num":18,"R_den":30,"correct_side":2,"subjID":"MariaPaulaMrianoSalcedo11","gender":"1","school":"6","age":"11"},{"start_time":1551800696291,"click_time":1551800697899,"finger_time":1551800697379,"fix_duration":250,"trial":14,"RT":1088,"MT":520,"sideResp":2,"stimulus":[],"xmouse":[787,787,787,787,787,787,787,787,787,787,787,787,787,787,787,787,787,787,787,787,787,787,787,787,787,787,787,787,787,787,787,787,787,787,787,787,787,787,787,787,787,787,787,787,787,787,787,787,787,787,792,822,822,830,830,827,827,827,827,837,840,840,840,842,868,885,919,943,976,985,1013,1013,1016,1023,1030,1049,1049,1053,1055,1059,1061],"ymouse":[503,503,503,503,503,503,503,503,503,503,503,503,503,503,503,503,503,503,503,503,503,503,503,503,503,503,503,503,503,503,503,503,503,503,503,503,503,503,503,503,503,503,503,503,503,503,503,503,503,503,499,471,469,454,411,393,373,343,307,257,249,249,249,247,229,219,193,179,161,156,144,144,141,136,131,115,115,110,107,100,96],"timestamp_mouse":[9,35,49,68,88,110,129,148,168,190,208,228,249,268,290,308,329,348,368,388,409,428,449,469,488,510,529,549,569,588,610,628,650,670,689,708,730,749,768,788,809,828,849,868,888,908,930,949,968,988,1009,1029,1049,1069,1088,1109,1129,1148,1170,1188,1208,1228,1250,1270,1288,1309,1328,1348,1369,1388,1408,1428,1448,1469,1488,1509,1528,1550,1569,1588,1608],"xSR":737,"ySR":442.65000000000003,"xT1":422.2,"yT1":0,"xT2":1051.8,"yT2":0,"toosoon":0,"cond_shown":"Congruent","ratio_trial":200,"L_num":6,"L_den":12,"R_num":7,"R_den":10,"correct_side":2,"subjID":"MariaPaulaMrianoSalcedo11","gender":"1","school":"6","age":"11"},{"start_time":1551800700457,"click_time":1551800701380,"finger_time":1551800701179,"fix_duration":936.6763495281708,"trial":15,"RT":722,"MT":201,"sideResp":2,"stimulus":[],"xmouse":[779,779,779,779,779,779,779,779,779,779,779,779,779,779,781,781,781,781,782,782,782,782,782,782,782,782,782,782,782,782,782,782,782,783,790,803,875,927,945,989,1007,1032,1038,1040,1041,1041,1054],"ymouse":[474,474,474,474,474,474,474,474,474,474,474,474,471,468,465,465,465,465,463,463,463,463,463,463,463,463,463,463,463,463,463,463,463,462,453,444,383,337,316,250,218,152,131,115,105,105,89],"timestamp_mouse":[2,35,42,63,83,104,122,142,162,183,202,222,243,263,282,303,322,343,363,382,402,423,443,464,483,502,522,542,563,582,603,623,643,662,683,702,722,742,762,782,803,823,842,863,882,903,922],"xSR":737,"ySR":442.65000000000003,"xT1":422.2,"yT1":0,"xT2":1051.8,"yT2":0,"toosoon":0,"cond_shown":"Congruent","ratio_trial":200,"L_num":1,"L_den":2,"R_num":21,"R_den":30,"correct_side":2,"subjID":"MariaPaulaMrianoSalcedo11","gender":"1","school":"6","age":"11"},{"start_time":1551800703834,"click_time":1551800705380,"finger_time":1551800705279,"fix_duration":792.6478493407935,"trial":16,"RT":1445,"MT":101,"sideResp":2,"stimulus":[],"xmouse":[782,782,782,782,782,782,782,782,782,782,782,782,782,782,782,782,782,782,782,782,782,782,782,782,782,782,782,782,782,782,782,782,782,782,782,782,782,782,782,782,782,782,782,782,782,782,782,782,782,782,782,782,782,782,782,782,782,782,782,782,782,782,782,782,782,782,782,782,782,787,796,808,846,899,923,1008,1096,1141],"ymouse":[468,468,468,468,468,468,468,468,468,468,468,467,467,467,467,467,467,467,467,467,467,467,467,467,467,467,467,467,467,467,467,467,467,467,467,467,467,467,467,467,467,467,467,467,467,467,467,467,467,467,467,467,467,467,467,467,467,467,467,467,467,467,467,467,467,467,467,467,467,463,458,451,431,394,371,261,119,50],"timestamp_mouse":[10,36,52,65,86,105,126,146,166,187,205,225,246,265,285,306,325,347,365,385,405,426,445,465,487,506,526,545,566,585,606,627,645,665,686,705,727,745,766,787,805,825,845,865,885,905,926,945,965,985,1006,1025,1045,1065,1085,1106,1126,1146,1165,1187,1206,1225,1245,1265,1287,1307,1325,1345,1366,1385,1406,1425,1445,1465,1485,1506,1525,1545],"xSR":737,"ySR":442.65000000000003,"xT1":422.2,"yT1":0,"xT2":1051.8,"yT2":0,"toosoon":0,"cond_shown":"Incongruent","ratio_trial":100,"L_num":2,"L_den":4,"R_num":8,"R_den":20,"correct_side":1,"subjID":"MariaPaulaMrianoSalcedo11","gender":"1","school":"6","age":"11"},{"start_time":1551800706875,"click_time":1551800708859,"finger_time":1551800708379,"fix_duration":332.1919759775066,"trial":17,"RT":1504,"MT":480,"sideResp":2,"stimulus":[],"xmouse":[792,792,792,792,792,792,792,792,792,792,792,792,792,792,792,792,792,792,792,792,792,792,792,792,792,792,792,792,792,792,792,792,792,792,792,792,792,792,792,792,792,792,792,792,792,792,792,792,792,792,792,792,792,792,792,792,792,792,792,792,792,792,792,792,792,792,792,792,792,792,792,799,810,812,826,882,909,939,1015,1029,1039,1039,1037,1035,1034,1032,1031,1031,1032,1036,1046,1050,1056,1079,1083,1087,1087,1087,1087,1088],"ymouse":[476,476,476,476,476,476,476,476,476,476,476,476,476,476,476,476,476,476,476,476,476,476,476,476,476,476,476,476,476,476,476,476,476,476,476,476,476,476,476,476,476,476,476,476,476,476,476,476,476,476,476,476,476,476,476,476,476,476,476,476,476,476,476,476,476,476,476,476,476,476,476,469,461,460,451,414,395,372,306,294,253,237,219,209,199,189,182,177,164,156,143,140,135,111,106,101,101,101,100,97],"timestamp_mouse":[8,24,44,65,85,104,125,145,164,184,205,224,244,264,285,305,324,345,365,384,404,425,445,464,485,504,525,544,565,586,604,624,644,665,684,704,726,745,766,786,805,824,846,864,886,905,926,944,965,984,1004,1024,1044,1064,1085,1105,1124,1145,1165,1184,1204,1224,1244,1265,1286,1304,1325,1344,1365,1384,1405,1425,1444,1464,1484,1504,1524,1545,1565,1584,1604,1625,1645,1664,1684,1704,1725,1744,1764,1786,1804,1824,1845,1864,1885,1905,1926,1945,1964,1984],"xSR":737,"ySR":442.65000000000003,"xT1":422.2,"yT1":0,"xT2":1051.8,"yT2":0,"toosoon":0,"cond_shown":"Incongruent","ratio_trial":100,"L_num":3,"L_den":5,"R_num":8,"R_den":16,"correct_side":1,"subjID":"MariaPaulaMrianoSalcedo11","gender":"1","school":"6","age":"11"},{"start_time":1551800710854,"click_time":1551800713299,"finger_time":1551800712739,"fix_duration":813.1670810027023,"trial":18,"RT":1885,"MT":560,"sideResp":1,"stimulus":[],"xmouse":[770,770,770,770,770,770,770,770,770,770,770,770,770,770,771,771,771,771,771,771,771,771,771,771,771,771,771,771,771,771,771,771,771,771,771,771,771,771,771,771,771,771,771,771,771,772,772,772,772,772,772,772,772,772,772,772,772,772,772,773,773,773,774,774,774,774,774,774,774,774,774,774,774,774,774,774,774,774,774,774,774,774,774,774,774,774,774,774,774,773,773,772,769,756,745,734,704,674,620,581,478,353,337,333,332,330,325,325,325,325,325,325,325,325,325,325,325,325,325,325,408,416,424],"ymouse":[477,477,477,477,477,477,477,477,477,477,477,477,477,477,477,477,477,477,477,477,477,477,477,477,477,477,477,477,477,477,477,477,477,477,477,477,477,477,477,477,477,477,477,477,477,477,477,477,481,483,484,484,484,484,484,484,484,484,484,485,485,485,484,484,484,484,484,484,483,483,483,483,483,483,481,479,477,477,477,477,477,477,477,477,477,477,477,477,476,475,475,474,467,447,432,416,375,343,296,261,189,88,63,41,30,19,0,0,0,0,0,0,0,0,0,0,0,0,0,0,0,11,23],"timestamp_mouse":[8,38,46,66,87,107,125,146,166,187,205,226,246,266,285,306,325,345,365,386,405,426,445,466,487,506,525,547,565,586,606,626,647,665,686,705,727,746,765,787,805,827,845,866,885,906,925,946,967,986,1005,1026,1045,1066,1085,1105,1125,1145,1166,1186,1206,1226,1246,1266,1286,1305,1325,1346,1366,1387,1406,1425,1445,1466,1487,1505,1526,1547,1565,1585,1605,1625,1645,1666,1687,1705,1726,1746,1765,1787,1806,1825,1845,1866,1885,1906,1926,1945,1965,1985,2005,2025,2047,2065,2087,2105,2126,2145,2165,2185,2205,2226,2245,2266,2285,2307,2326,2345,2365,2385,2406,2426,2445],"xSR":737,"ySR":442.65000000000003,"xT1":422.2,"yT1":0,"xT2":1051.8,"yT2":0,"toosoon":0,"cond_shown":"Incongruent","ratio_trial":200,"L_num":3,"L_den":4,"R_num":11,"R_den":20,"correct_side":1,"subjID":"MariaPaulaMrianoSalcedo11","gender":"1","school":"6","age":"11"},{"start_time":1551800718167,"click_time":1551800720879,"finger_time":1551800720320,"fix_duration":1145.378490500683,"trial":19,"RT":2153,"MT":559,"sideResp":2,"stimulus":[],"xmouse":[762,762,762,762,762,762,762,762,762,762,762,762,762,762,762,762,762,762,762,762,762,762,762,762,762,762,762,762,762,762,762,762,762,762,762,762,762,762,762,762,762,762,762,762,762,762,762,762,762,762,762,761,761,761,761,761,761,761,761,761,761,761,761,761,761,761,761,761,761,761,761,761,761,761,761,761,761,761,761,761,760,760,760,760,760,760,760,760,760,760,760,760,760,760,760,760,760,760,760,760,760,760,760,761,763,774,787,815,841,861,906,921,929,966,1002,1010,1011,1012,1016,1023,1028,1030,1038,1038,1040,1040,1040,1040,1040,1041,1044,1044,1044,1047,1055,1074],"ymouse":[508,508,508,508,508,508,508,508,508,508,508,508,508,508,508,508,508,508,508,508,508,508,508,508,508,508,508,508,508,508,508,508,508,508,508,508,508,508,508,508,508,508,508,508,508,508,508,508,508,508,508,508,508,507,507,507,507,507,507,507,506,505,505,505,505,505,505,505,505,505,505,505,505,505,505,505,505,505,503,500,494,493,493,493,493,493,493,493,493,493,493,493,493,493,493,493,493,493,493,493,493,493,493,488,485,468,452,418,385,346,271,244,234,187,152,145,144,144,142,141,139,139,134,134,133,133,133,133,131,130,122,121,120,115,104,84],"timestamp_mouse":[12,45,52,72,93,113,133,152,173,194,212,233,254,273,292,314,333,354,373,392,413,434,453,472,492,512,532,552,573,594,613,632,652,673,694,712,733,753,774,794,812,832,852,872,892,912,933,952,972,993,1012,1032,1052,1073,1092,1113,1133,1152,1172,1194,1213,1233,1253,1273,1293,1314,1332,1353,1373,1392,1413,1433,1454,1472,1493,1513,1534,1553,1573,1593,1612,1633,1654,1672,1692,1712,1733,1754,1773,1793,1813,1834,1853,1872,1894,1912,1933,1952,1972,1992,2013,2032,2052,2073,2092,2112,2133,2153,2172,2192,2212,2232,2252,2273,2293,2313,2332,2352,2373,2392,2413,2433,2452,2473,2492,2513,2532,2552,2573,2593,2612,2633,2652,2672,2692,2712],"xSR":737,"ySR":442.65000000000003,"xT1":422.2,"yT1":0,"xT2":1051.8,"yT2":0,"toosoon":0,"cond_shown":"Incongruent","ratio_trial":200,"L_num":14,"L_den":30,"R_num":6,"R_den":9,"correct_side":2,"subjID":"MariaPaulaMrianoSalcedo11","gender":"1","school":"6","age":"11"},{"start_time":1551800722551,"click_time":1551800724220,"finger_time":1551800723880,"fix_duration":250,"trial":20,"RT":1329,"MT":340,"sideResp":1,"stimulus":[],"xmouse":[796,794,794,794,794,794,794,794,794,794,794,794,794,794,794,794,794,794,794,794,794,794,794,794,794,793,793,792,792,792,791,789,787,787,787,786,786,786,786,786,786,786,786,786,786,786,786,786,786,786,786,786,786,786,786,786,786,786,786,786,786,786,786,786,785,780,759,753,746,740,735,730,707,693,685,675,658,641,631,621,609,571,518,469],"ymouse":[488,491,492,492,492,492,492,492,492,492,492,492,492,492,492,492,491,490,490,489,487,486,484,483,483,482,482,482,482,480,480,479,477,477,477,477,477,477,477,477,477,477,477,477,477,477,477,477,477,477,477,477,477,477,477,477,477,477,477,477,477,477,477,477,471,466,433,421,404,392,379,371,340,321,311,297,270,245,231,216,200,155,111,65],"timestamp_mouse":[12,37,48,69,89,108,128,150,169,190,209,230,249,268,288,308,329,348,369,388,408,429,449,468,488,509,530,548,569,590,608,628,648,668,688,708,729,748,768,788,810,829,849,869,888,908,929,949,969,988,1010,1028,1050,1069,1089,1110,1128,1150,1170,1188,1208,1228,1248,1268,1289,1308,1329,1350,1368,1388,1409,1429,1448,1469,1489,1509,1528,1548,1568,1588,1608,1628,1648,1669],"xSR":737,"ySR":442.65000000000003,"xT1":422.2,"yT1":0,"xT2":1051.8,"yT2":0,"toosoon":0,"cond_shown":"Incongruent","ratio_trial":200,"L_num":4,"L_den":6,"R_num":14,"R_den":30,"correct_side":1,"subjID":"MariaPaulaMrianoSalcedo11","gender":"1","school":"6","age":"11"},{"start_time":1551800725552,"click_time":1551800727480,"finger_time":1551800727100,"fix_duration":250,"trial":21,"RT":1548,"MT":380,"sideResp":2,"stimulus":[],"xmouse":[764,764,764,764,764,764,764,764,764,764,764,764,765,766,768,769,771,772,772,772,772,772,772,772,772,772,772,772,772,772,772,772,772,772,772,772,772,772,772,772,773,773,773,773,773,773,773,773,773,773,773,773,773,773,773,773,773,773,773,773,773,773,773,773,773,773,773,773,773,773,773,773,773,773,774,775,801,832,898,959,1009,1084,1109,1131,1143,1145,1146,1146,1148,1149,1150,1150,1150,1150,1150,1149,1146],"ymouse":[471,471,471,471,471,471,471,471,471,471,471,470,470,470,470,470,469,469,469,469,469,469,469,469,469,469,469,469,469,469,469,469,469,469,469,469,469,469,469,469,469,469,469,469,469,469,469,469,469,469,469,469,469,469,469,469,469,469,469,469,469,469,469,469,469,469,469,469,469,469,469,469,469,469,468,467,456,441,402,368,335,277,252,221,191,170,148,129,119,115,103,103,103,103,103,100,96],"timestamp_mouse":[9,27,52,68,87,108,127,148,168,188,207,228,247,268,287,309,327,347,368,387,407,427,447,469,488,507,529,549,567,587,607,627,649,669,687,708,728,748,767,787,807,828,848,867,887,907,929,947,968,988,1008,1028,1047,1068,1088,1107,1128,1148,1168,1189,1208,1228,1247,1268,1288,1309,1328,1347,1367,1388,1407,1427,1448,1467,1488,1508,1527,1548,1568,1588,1607,1627,1647,1667,1687,1707,1728,1748,1767,1788,1807,1828,1848,1868,1887,1908,1927],"xSR":737,"ySR":442.65000000000003,"xT1":422.2,"yT1":0,"xT2":1051.8,"yT2":0,"toosoon":0,"cond_shown":"Congruent","ratio_trial":200,"L_num":9,"L_den":30,"R_num":13,"R_den":26,"correct_side":2,"subjID":"MariaPaulaMrianoSalcedo11","gender":"1","school":"6","age":"11"},{"start_time":1551800729279,"click_time":1551800731219,"finger_time":1551800730760,"fix_duration":398.86349574624126,"trial":22,"RT":1481,"MT":459,"sideResp":1,"stimulus":[],"xmouse":[821,821,821,821,821,821,821,821,821,821,821,821,821,821,821,821,821,821,821,821,821,821,821,821,821,821,821,821,821,821,821,821,821,821,821,821,821,821,821,821,821,821,821,821,821,821,821,821,821,821,821,821,821,821,821,821,821,821,821,821,821,823,823,823,823,822,822,819,814,812,812,812,812,807,796,766,751,742,728,716,675,649,626,616,605,589,580,573,567,564,562,561,561,559,556,553,528,519],"ymouse":[495,495,494,494,494,494,494,494,494,494,494,494,494,494,494,494,494,494,494,494,494,494,494,494,494,494,494,494,494,494,494,494,494,494,494,494,494,494,494,494,494,494,494,494,494,494,494,494,494,494,494,494,494,494,494,494,494,494,494,494,494,492,491,490,489,487,484,479,473,469,468,465,462,452,435,392,372,359,336,317,251,215,181,164,147,121,112,104,100,99,98,98,98,97,97,95,91,89],"timestamp_mouse":[9,31,41,60,81,102,121,140,160,182,201,220,241,260,282,302,320,340,360,381,401,420,441,460,480,502,520,540,560,581,601,621,641,660,680,700,720,741,760,781,801,821,840,860,882,900,921,941,961,982,1000,1020,1040,1061,1082,1100,1122,1142,1161,1180,1200,1221,1240,1261,1282,1300,1320,1341,1360,1381,1400,1421,1441,1462,1481,1500,1520,1541,1561,1580,1601,1620,1640,1661,1682,1700,1720,1740,1761,1780,1801,1822,1841,1860,1880,1900,1920,1940],"xSR":737,"ySR":442.65000000000003,"xT1":422.2,"yT1":0,"xT2":1051.8,"yT2":0,"toosoon":0,"cond_shown":"Incongruent","ratio_trial":100,"L_num":3,"L_den":5,"R_num":8,"R_den":16,"correct_side":1,"subjID":"MariaPaulaMrianoSalcedo11","gender":"1","school":"6","age":"11"},{"start_time":1551800733332,"click_time":1551800734301,"finger_time":1551800734159,"fix_duration":250,"trial":23,"RT":827,"MT":142,"sideResp":2,"stimulus":[],"xmouse":[783,783,783,783,783,783,783,783,783,783,783,783,783,783,783,783,783,783,783,783,783,783,783,783,783,783,783,783,783,783,783,783,783,783,783,783,784,786,786,796,818,844,908,955,995,1023,1045,1081,1086],"ymouse":[467,467,467,467,467,467,467,467,467,467,467,467,467,467,467,467,467,467,467,467,467,467,467,467,467,467,467,467,467,467,467,467,467,467,467,467,467,467,467,462,449,432,366,305,245,202,167,101,91],"timestamp_mouse":[10,33,48,69,88,108,127,148,167,188,208,227,248,268,288,307,329,347,369,387,408,427,447,469,488,507,529,547,567,589,607,627,648,668,688,708,728,747,769,787,807,827,848,867,887,907,927,948,969],"xSR":737,"ySR":442.65000000000003,"xT1":422.2,"yT1":0,"xT2":1051.8,"yT2":0,"toosoon":0,"cond_shown":"Incongruent","ratio_trial":300,"L_num":4,"L_den":20,"R_num":2,"R_den":4,"correct_side":2,"subjID":"MariaPaulaMrianoSalcedo11","gender":"1","school":"6","age":"11"},{"start_time":1551800736747,"click_time":1551800738499,"finger_time":1551800738079,"fix_duration":1087.2949064224754,"trial":24,"RT":1332,"MT":420,"sideResp":2,"stimulus":[],"xmouse":[794,794,794,794,794,794,794,794,794,794,793,791,791,791,791,791,791,791,791,791,791,791,791,791,791,791,791,791,791,791,791,791,791,791,791,791,791,791,791,791,791,791,791,791,791,791,791,791,791,791,791,791,791,791,791,791,791,791,791,791,791,791,791,791,793,795,804,833,879,931,942,1031,1049,1055,1057,1058,1060,1060,1054,1045,1035,1029,1029,1029,1029,1031,1036,1055],"ymouse":[472,472,472,472,472,472,472,472,472,472,474,474,474,474,474,474,474,474,474,474,474,474,474,474,474,474,474,474,474,474,474,474,474,474,474,474,474,474,474,474,474,474,474,474,474,474,474,474,474,474,474,474,474,474,474,474,474,474,474,474,474,474,474,471,465,460,438,400,352,311,306,265,253,247,244,240,220,206,176,152,131,115,114,112,111,105,97,73],"timestamp_mouse":[13,32,52,72,93,113,132,152,172,193,212,232,252,273,293,312,333,353,373,393,412,432,452,472,492,513,533,553,572,594,612,632,652,672,692,714,732,752,774,793,812,832,853,873,893,912,934,953,972,993,1012,1033,1052,1073,1092,1114,1132,1152,1172,1192,1213,1232,1253,1272,1294,1314,1332,1352,1372,1393,1413,1433,1453,1473,1493,1514,1532,1553,1572,1593,1612,1632,1652,1672,1693,1712,1733,1752],"xSR":737,"ySR":442.65000000000003,"xT1":422.2,"yT1":0,"xT2":1051.8,"yT2":0,"toosoon":0,"cond_shown":"Incongruent","ratio_trial":200,"L_num":6,"L_den":20,"R_num":3,"R_den":6,"correct_side":2,"subjID":"MariaPaulaMrianoSalcedo11","gender":"1","school":"6","age":"11"},{"start_time":1551800740838,"click_time":1551800742579,"finger_time":1551800742039,"fix_duration":1117.983016926427,"trial":25,"RT":1201,"MT":540,"sideResp":2,"stimulus":[],"xmouse":[779,779,779,769,760,758,758,758,758,758,758,758,758,758,758,758,758,758,758,758,758,758,758,758,758,758,758,758,758,758,758,758,758,758,758,758,758,758,758,758,758,758,758,758,758,758,758,758,758,758,758,758,758,758,758,758,758,762,774,780,835,914,976,1021,1022,1029,1033,1033,1030,1027,1024,1023,1023,1025,1032,1033,1041,1054,1062,1074,1086,1096,1120,1123,1124,1124,1124,1123],"ymouse":[481,481,481,473,466,465,465,464,464,464,464,464,464,464,464,464,464,464,464,464,464,464,464,464,464,464,464,464,464,464,464,464,464,464,464,464,464,464,464,464,464,464,464,464,464,464,464,464,464,464,464,464,464,464,464,464,464,463,459,458,440,419,398,366,366,354,340,333,323,312,304,299,299,295,285,284,275,255,238,219,199,186,160,155,148,143,135,99],"timestamp_mouse":[9,22,41,62,81,101,121,142,162,183,201,222,242,262,281,301,322,342,363,381,401,421,441,461,482,501,521,541,561,581,602,622,643,661,682,702,721,742,762,781,801,822,841,861,881,901,922,943,961,983,1001,1021,1042,1061,1081,1101,1122,1141,1161,1182,1201,1222,1242,1261,1281,1302,1321,1342,1361,1381,1402,1421,1442,1462,1482,1502,1522,1541,1561,1581,1602,1621,1641,1661,1681,1701,1722,1741],"xSR":737,"ySR":442.65000000000003,"xT1":422.2,"yT1":0,"xT2":1051.8,"yT2":0,"toosoon":0,"cond_shown":"Congruent","ratio_trial":300,"L_num":4,"L_den":20,"R_num":13,"R_den":26,"correct_side":2,"subjID":"MariaPaulaMrianoSalcedo11","gender":"1","school":"6","age":"11"},{"start_time":1551800744437,"click_time":1551800747240,"finger_time":1551800745779,"fix_duration":655.1673546568817,"trial":26,"RT":1342,"MT":1461,"sideResp":2,"stimulus":[],"xmouse":[800,800,800,800,800,800,800,800,800,800,800,800,800,800,800,800,800,800,800,800,800,800,800,800,800,800,800,800,800,800,800,800,800,800,800,800,800,800,800,800,800,800,800,800,800,800,800,800,800,800,800,800,800,800,800,800,800,800,800,800,800,800,800,800,800,799,792,764,749,744,742,742,742,740,730,716,702,689,685,682,679,675,667,662,657,656,656,655,655,654,654,654,654,654,654,654,654,654,654,654,654,654,654,654,670,733,833,1135,1243,1298,1305,1306,1306,1306,1304,1301,1297,1277,1259,1254,1236,1227,1225,1224,1218,1209,1199,1189,1188,1184,1181,1172,1166,1166,1166,1164,1160,1152,1152,1152,1151],"ymouse":[477,477,477,477,477,477,477,477,477,477,477,477,477,477,477,477,477,477,477,477,477,477,477,477,477,477,477,477,477,477,477,477,477,477,477,477,477,477,477,477,477,477,477,477,477,477,477,477,477,477,477,477,477,477,477,477,477,477,477,477,477,477,477,477,477,476,458,415,399,392,390,389,388,385,366,338,304,256,244,239,232,227,217,210,205,204,204,203,203,202,201,201,201,201,201,201,201,201,201,201,201,201,201,201,201,201,201,179,165,149,144,139,130,125,118,110,101,83,75,74,70,69,69,69,69,69,69,69,69,69,69,69,69,69,69,69,69,70,70,70,70],"timestamp_mouse":[9,22,42,63,82,104,122,142,162,183,202,223,242,263,283,303,322,342,364,383,402,422,442,463,482,502,522,542,563,583,603,622,642,663,683,704,724,743,763,782,802,822,842,863,882,902,924,942,962,982,1003,1022,1044,1063,1082,1104,1122,1142,1162,1182,1202,1223,1242,1262,1282,1302,1322,1342,1362,1383,1402,1423,1443,1462,1482,1502,1522,1543,1562,1582,1603,1622,1643,1662,1682,1702,1722,1742,1764,1783,1802,1822,1843,1862,1883,1903,1923,1943,1963,1983,2002,2022,2042,2063,2082,2104,2123,2142,2162,2182,2202,2222,2243,2262,2283,2302,2322,2342,2362,2382,2402,2424,2442,2463,2482,2502,2522,2542,2562,2582,2602,2623,2643,2662,2682,2702,2723,2742,2763,2782,2802],"xSR":737,"ySR":442.65000000000003,"xT1":422.2,"yT1":0,"xT2":1051.8,"yT2":0,"toosoon":0,"cond_shown":"Incongruent","ratio_trial":300,"L_num":2,"L_den":4,"R_num":6,"R_den":30,"correct_side":1,"subjID":"MariaPaulaMrianoSalcedo11","gender":"1","school":"6","age":"11"},{"start_time":1551800751490,"click_time":1551800753840,"finger_time":1551800753179,"fix_duration":730.4858665650274,"trial":27,"RT":1689,"MT":661,"sideResp":2,"stimulus":[],"xmouse":[807,807,807,808,809,809,809,809,809,809,809,809,809,810,816,819,820,821,821,821,821,821,821,821,821,821,821,821,821,821,821,821,821,821,821,821,821,821,821,821,821,821,821,821,821,821,821,821,821,821,821,821,821,821,821,821,821,821,821,821,821,821,821,821,821,821,821,821,821,821,821,821,821,821,821,821,821,821,821,821,821,821,826,833,864,875,884,895,926,1083,1119,1125,1125,1127,1133,1134,1135,1135,1137,1139,1139,1136,1136,1131,1121,1119,1117,1116,1116,1121,1124,1130,1138,1145,1150,1152,1152,1150],"ymouse":[470,470,470,470,470,470,470,470,470,470,470,470,470,470,467,465,465,465,465,465,465,465,465,465,465,465,465,465,465,465,465,465,465,465,465,465,465,465,465,465,465,465,465,465,465,465,465,465,465,465,465,465,465,465,465,465,465,465,465,465,465,465,465,465,465,465,465,465,465,465,465,465,465,465,465,465,465,465,465,465,465,465,462,458,443,438,432,424,409,361,347,343,342,338,333,332,330,322,313,296,282,276,273,256,233,229,224,218,216,197,192,186,176,161,147,115,99,89],"timestamp_mouse":[10,39,49,69,90,109,129,149,170,190,210,230,249,269,290,309,330,351,370,389,410,430,449,469,490,510,529,550,569,589,611,630,651,670,689,710,729,750,770,789,810,831,849,869,889,909,930,949,969,989,1009,1029,1049,1069,1089,1111,1130,1149,1169,1189,1209,1229,1250,1269,1289,1309,1329,1349,1369,1389,1409,1430,1449,1469,1489,1509,1529,1549,1569,1589,1610,1630,1649,1670,1689,1709,1729,1749,1770,1790,1809,1830,1849,1869,1890,1909,1929,1949,1969,1989,2010,2029,2051,2069,2089,2110,2129,2149,2169,2190,2210,2229,2249,2269,2289,2309,2329,2350],"xSR":737,"ySR":442.65000000000003,"xT1":422.2,"yT1":0,"xT2":1051.8,"yT2":0,"toosoon":0,"cond_shown":"Congruent","ratio_trial":200,"L_num":6,"L_den":12,"R_num":7,"R_den":10,"correct_side":2,"subjID":"MariaPaulaMrianoSalcedo11","gender":"1","school":"6","age":"11"},{"start_time":1551800755713,"click_time":1551800757840,"finger_time":1551800757260,"fix_duration":250,"trial":28,"RT":1547,"MT":580,"sideResp":2,"stimulus":[],"xmouse":[805,805,805,805,805,805,805,805,805,805,805,805,805,805,805,805,805,805,805,805,805,805,805,805,805,805,805,805,805,805,805,805,805,805,805,805,805,805,805,805,805,805,805,805,805,805,805,805,805,805,805,805,805,805,805,805,805,805,805,805,805,805,805,805,805,805,805,805,805,805,805,805,805,805,805,809,819,835,855,863,884,915,983,1230,1254,1286,1286,1286,1276,1276,1275,1269,1251,1210,1209,1201,1199,1198,1198,1195,1194,1194,1194,1179,1167,1160,1149],"ymouse":[470,470,470,470,470,470,470,470,470,470,470,470,470,470,470,470,470,470,470,470,470,470,470,470,470,470,470,470,470,470,470,470,470,470,470,470,470,470,470,470,470,470,470,470,470,470,470,470,470,470,470,470,470,470,470,470,470,470,470,470,470,470,470,470,470,470,470,470,470,470,470,470,470,470,470,463,447,428,397,380,351,318,271,153,145,123,123,123,122,122,121,121,121,121,121,121,121,121,121,119,119,119,119,114,108,101,88],"timestamp_mouse":[8,34,46,66,86,108,126,146,166,186,208,226,246,266,286,308,326,346,367,386,407,426,446,466,486,506,526,546,567,586,606,628,646,666,686,707,726,747,766,788,806,827,846,866,886,906,927,947,966,986,1007,1027,1048,1067,1087,1106,1127,1148,1166,1187,1206,1226,1248,1266,1286,1307,1328,1346,1366,1386,1406,1426,1447,1468,1486,1507,1528,1547,1566,1587,1606,1627,1647,1666,1686,1706,1726,1747,1766,1786,1807,1826,1847,1866,1886,1906,1927,1947,1967,1986,2007,2026,2046,2066,2086,2106,2127],"xSR":737,"ySR":442.65000000000003,"xT1":422.2,"yT1":0,"xT2":1051.8,"yT2":0,"toosoon":0,"cond_shown":"Congruent","ratio_trial":100,"L_num":6,"L_den":12,"R_num":15,"R_den":25,"correct_side":2,"subjID":"MariaPaulaMrianoSalcedo11","gender":"1","school":"6","age":"11"},{"start_time":1551800759751,"click_time":1551800761280,"finger_time":1551800760699,"fix_duration":250,"trial":29,"RT":948,"MT":581,"sideResp":2,"stimulus":[],"xmouse":[827,826,826,826,826,826,826,826,826,826,826,826,826,826,826,826,826,826,826,826,826,826,826,826,826,826,826,826,826,826,826,826,826,826,826,826,826,826,826,826,826,826,826,826,826,827,836,847,858,866,867,883,896,912,921,929,942,957,969,978,984,989,992,998,1000,1005,1008,1013,1016,1018,1020,1026,1032,1035,1041,1046,1057],"ymouse":[500,500,500,500,500,500,500,500,500,500,500,500,500,495,491,487,484,484,484,484,484,484,484,484,484,484,484,484,484,484,484,484,484,484,484,484,484,484,484,484,484,484,484,484,483,482,460,436,413,393,389,354,331,307,293,276,242,206,179,158,145,133,126,115,111,100,94,88,85,83,81,78,76,74,73,71,67],"timestamp_mouse":[9,45,49,68,89,109,128,148,168,188,209,228,248,268,289,309,328,348,368,388,409,428,449,470,488,508,529,549,570,589,610,629,648,669,688,709,729,749,769,789,809,828,849,868,888,909,928,948,968,989,1009,1029,1048,1068,1088,1108,1128,1148,1168,1188,1208,1228,1248,1269,1288,1309,1328,1349,1368,1388,1408,1428,1448,1468,1488,1509,1529],"xSR":737,"ySR":442.65000000000003,"xT1":422.2,"yT1":0,"xT2":1051.8,"yT2":0,"toosoon":0,"cond_shown":"Incongruent","ratio_trial":100,"L_num":17,"L_den":30,"R_num":10,"R_den":15,"correct_side":2,"subjID":"MariaPaulaMrianoSalcedo11","gender":"1","school":"6","age":"11"},{"start_time":1551800763396,"click_time":1551800765519,"finger_time":1551800765079,"fix_duration":1075.3924964271419,"trial":30,"RT":1683,"MT":440,"sideResp":2,"stimulus":[],"xmouse":[786,786,786,786,786,786,786,786,786,786,786,786,786,786,786,786,786,786,786,786,786,786,786,786,786,786,786,786,786,786,786,786,786,786,786,786,786,786,786,786,786,786,786,786,786,786,786,786,786,786,786,786,786,786,786,786,786,786,786,786,786,786,786,786,786,786,786,786,786,786,786,786,786,786,786,786,786,786,786,786,790,800,815,832,872,882,898,916,931,960,974,988,1005,1015,1031,1036,1048,1055,1055,1064,1071,1076,1080,1082,1085,1089,1096],"ymouse":[499,499,499,499,499,499,499,499,499,499,499,499,499,499,499,499,499,499,499,499,499,499,499,499,499,499,499,499,499,499,499,499,499,499,499,499,499,499,499,499,499,499,499,499,499,499,499,499,499,499,499,499,499,499,499,499,499,499,499,499,499,499,499,499,499,499,499,499,499,499,499,499,499,499,499,499,499,499,499,499,497,495,488,481,458,453,437,417,401,357,334,309,277,254,217,207,180,161,160,140,129,122,116,113,108,104,96],"timestamp_mouse":[10,31,43,64,83,104,125,144,163,183,204,223,243,263,284,304,323,345,364,385,404,424,443,463,484,503,523,544,565,583,603,623,643,663,685,703,723,745,765,784,805,823,845,863,884,903,924,943,964,983,1004,1024,1043,1063,1083,1105,1123,1144,1163,1183,1204,1223,1243,1263,1283,1303,1324,1343,1364,1383,1404,1424,1443,1464,1484,1503,1524,1543,1564,1584,1603,1623,1644,1663,1683,1704,1723,1745,1764,1783,1803,1823,1843,1863,1884,1904,1923,1945,1964,1983,2003,2025,2044,2065,2083,2104,2123],"xSR":737,"ySR":442.65000000000003,"xT1":422.2,"yT1":0,"xT2":1051.8,"yT2":0,"toosoon":0,"cond_shown":"Incongruent","ratio_trial":200,"L_num":14,"L_den":30,"R_num":6,"R_den":9,"correct_side":2,"subjID":"MariaPaulaMrianoSalcedo11","gender":"1","school":"6","age":"11"},{"start_time":1551800767055,"click_time":1551800768640,"finger_time":1551800768079,"fix_duration":375.07491975573157,"trial":31,"RT":1024,"MT":561,"sideResp":2,"stimulus":[],"xmouse":[776,776,776,776,778,789,790,790,790,790,790,790,790,790,790,790,790,790,790,790,790,790,790,790,790,790,790,790,790,790,790,790,790,790,790,790,790,790,790,790,790,790,790,790,790,790,790,790,790,790,804,848,876,882,886,888,901,909,923,936,947,957,971,972,973,976,983,998,1016,1030,1039,1041,1042,1045,1050,1060,1075,1076,1081,1086],"ymouse":[503,503,503,503,503,504,505,505,505,505,505,505,505,505,505,505,505,505,505,505,505,505,505,505,505,505,505,505,505,505,505,505,505,505,505,505,505,505,505,505,505,505,505,505,505,505,505,505,505,505,491,409,334,313,302,293,270,262,250,235,222,207,187,185,181,177,172,166,159,153,148,147,142,139,134,130,121,121,110,95],"timestamp_mouse":[10,39,44,64,84,104,124,144,165,185,204,224,244,265,284,304,325,345,365,384,405,424,444,464,485,504,524,545,565,586,605,624,646,665,684,704,724,744,765,785,804,824,844,865,884,905,924,944,964,984,1005,1024,1045,1064,1085,1104,1125,1144,1164,1184,1204,1224,1245,1264,1284,1305,1324,1344,1364,1385,1405,1425,1446,1464,1484,1504,1524,1544,1564,1585],"xSR":737,"ySR":442.65000000000003,"xT1":422.2,"yT1":0,"xT2":1051.8,"yT2":0,"toosoon":0,"cond_shown":"Congruent","ratio_trial":300,"L_num":8,"L_den":15,"R_num":10,"R_den":12,"correct_side":2,"subjID":"MariaPaulaMrianoSalcedo11","gender":"1","school":"6","age":"11"},{"start_time":1551800771642,"click_time":1551800773780,"finger_time":1551800773379,"fix_duration":1262.5483504586057,"trial":32,"RT":1737,"MT":401,"sideResp":2,"stimulus":[],"xmouse":[762,762,762,762,762,762,762,762,762,762,762,762,762,762,762,762,762,762,762,762,762,762,762,762,762,762,762,762,762,762,762,762,762,762,762,762,762,762,762,762,762,762,762,762,762,762,762,762,762,762,762,762,762,762,762,762,762,762,762,762,762,762,762,762,762,762,762,762,762,762,767,801,808,810,810,810,810,810,810,810,810,810,810,810,810,811,834,859,898,926,948,971,977,979,980,981,981,981,981,981,984,999,1008,1021,1039,1045,1053],"ymouse":[532,532,532,532,532,532,532,532,532,532,532,532,532,532,532,532,532,532,532,532,532,532,532,532,532,532,532,532,532,532,532,532,532,532,532,532,532,532,532,532,532,532,532,532,532,532,532,532,532,532,532,532,532,532,532,532,532,532,532,532,532,532,532,532,532,532,532,532,532,531,523,475,459,451,451,451,451,451,451,451,451,451,451,451,451,450,428,403,353,295,256,197,167,156,149,145,142,141,139,134,128,99,86,67,47,40,18],"timestamp_mouse":[17,38,57,77,97,117,137,159,177,198,217,238,259,277,297,317,337,357,378,397,417,438,458,478,497,518,537,558,577,598,617,638,658,678,697,717,738,758,777,798,819,837,857,879,899,917,938,959,977,998,1017,1037,1057,1077,1098,1119,1138,1158,1177,1198,1217,1237,1258,1277,1297,1317,1337,1357,1378,1397,1418,1437,1458,1477,1498,1518,1537,1558,1578,1597,1617,1637,1657,1678,1697,1717,1737,1757,1777,1797,1818,1837,1858,1877,1897,1917,1938,1957,1977,1998,2018,2038,2058,2077,2098,2117,2138],"xSR":737,"ySR":442.65000000000003,"xT1":422.2,"yT1":0,"xT2":1051.8,"yT2":0,"toosoon":0,"cond_shown":"Incongruent","ratio_trial":300,"L_num":4,"L_den":20,"R_num":2,"R_den":4,"correct_side":2,"subjID":"MariaPaulaMrianoSalcedo11","gender":"1","school":"6","age":"11"},{"start_time":1551800780443,"click_time":1551800782260,"finger_time":1551800782100,"fix_duration":1222.0014248406171,"trial":33,"RT":1657,"MT":160,"sideResp":1,"stimulus":[],"xmouse":[805,805,805,805,805,805,805,805,805,805,805,805,805,805,805,805,805,805,805,805,805,805,805,805,805,805,805,805,805,805,805,805,805,805,805,805,805,805,805,805,805,805,805,805,805,805,805,805,805,805,805,805,805,805,805,805,805,805,805,805,805,805,805,805,805,805,805,805,805,805,805,805,805,805,805,805,805,805,805,804,803,785,734,681,626,586,545,538,533,525,513],"ymouse":[501,501,501,501,501,501,501,501,501,501,501,501,501,501,501,501,501,501,501,501,501,501,501,501,501,501,501,501,501,501,501,501,501,501,501,501,501,501,501,501,501,501,501,501,501,501,501,501,501,501,501,501,501,501,501,501,501,501,501,501,501,501,501,501,501,501,501,501,501,501,501,501,501,501,501,501,501,501,501,501,501,451,344,270,208,164,131,125,118,100,71],"timestamp_mouse":[18,36,57,76,97,117,137,157,177,196,217,237,256,277,297,317,336,356,377,396,417,437,456,477,497,517,537,557,578,597,617,636,657,677,696,717,738,756,777,797,817,836,857,877,898,918,937,957,978,997,1016,1037,1057,1076,1097,1116,1136,1157,1177,1198,1217,1236,1257,1276,1298,1317,1336,1356,1377,1397,1416,1437,1457,1476,1497,1517,1536,1557,1578,1596,1617,1636,1657,1676,1697,1716,1736,1756,1776,1796,1817],"xSR":737,"ySR":442.65000000000003,"xT1":422.2,"yT1":0,"xT2":1051.8,"yT2":0,"toosoon":0,"cond_shown":"Congruent","ratio_trial":200,"L_num":14,"L_den":28,"R_num":6,"R_den":20,"correct_side":1,"subjID":"MariaPaulaMrianoSalcedo11","gender":"1","school":"6","age":"11"},{"start_time":1551800784704,"click_time":1551800786619,"finger_time":1551800786021,"fix_duration":963.7254286445118,"trial":34,"RT":1317,"MT":598,"sideResp":2,"stimulus":[],"xmouse":[791,791,791,791,791,791,791,791,791,791,791,791,791,791,791,791,791,791,791,791,791,791,791,791,791,791,791,791,791,791,791,791,791,791,791,791,791,791,791,791,791,791,791,791,791,791,791,791,791,791,791,791,791,791,791,791,791,791,791,791,791,793,796,808,824,847,869,894,944,963,985,1018,1039,1088,1095,1099,1099,1096,1081,1077,1073,1072,1068,1067,1067,1067,1067,1067,1067,1078,1079,1081,1092,1097,1097,1090],"ymouse":[483,483,483,483,483,483,483,483,483,483,483,483,483,483,483,483,483,483,483,483,483,483,483,483,483,483,483,483,483,483,483,483,483,483,483,483,483,483,483,483,483,483,483,483,483,483,483,483,483,483,483,483,483,483,483,483,483,483,483,483,483,483,482,479,471,457,440,418,369,352,338,320,310,278,270,255,242,222,176,169,161,159,155,152,152,152,152,150,150,139,139,136,124,102,102,90],"timestamp_mouse":[16,38,55,75,96,115,136,155,176,196,216,237,255,275,296,316,335,355,375,396,416,435,457,475,495,515,535,556,576,597,615,636,657,676,697,716,735,756,775,796,816,835,856,876,896,915,935,957,976,995,1016,1035,1055,1076,1096,1115,1135,1155,1176,1196,1215,1236,1255,1275,1295,1317,1336,1355,1376,1395,1415,1435,1455,1476,1495,1516,1536,1555,1575,1597,1615,1636,1655,1675,1695,1716,1736,1756,1775,1796,1816,1837,1855,1875,1895,1915],"xSR":737,"ySR":442.65000000000003,"xT1":422.2,"yT1":0,"xT2":1051.8,"yT2":0,"toosoon":0,"cond_shown":"Congruent","ratio_trial":100,"L_num":7,"L_den":14,"R_num":9,"R_den":15,"correct_side":2,"subjID":"MariaPaulaMrianoSalcedo11","gender":"1","school":"6","age":"11"},{"start_time":1551800790691,"click_time":1551800792500,"finger_time":1551800792180,"fix_duration":250,"trial":35,"RT":1489,"MT":320,"sideResp":1,"stimulus":[],"xmouse":[803,803,803,803,803,803,803,803,803,803,803,803,803,803,803,803,803,803,803,803,803,803,803,803,803,803,803,803,803,803,803,803,803,803,805,806,806,806,806,806,806,806,805,805,805,805,805,805,805,805,805,805,805,805,805,805,805,805,805,805,805,805,805,805,805,805,804,804,804,804,804,804,806,808,803,802,791,778,766,737,725,716,697,678,641,624,609,594,576,532,506],"ymouse":[499,496,496,496,496,496,496,496,496,496,496,496,496,496,496,496,496,496,496,496,496,496,496,496,496,496,496,496,496,496,496,496,496,496,494,493,493,493,493,493,493,493,494,494,494,494,494,494,494,494,494,494,494,494,494,494,494,494,494,494,494,494,494,494,494,494,494,494,494,494,494,493,488,464,370,368,347,332,323,288,247,203,155,125,91,81,73,66,59,44,38],"timestamp_mouse":[14,38,48,69,88,108,128,148,168,189,209,230,248,268,289,309,330,348,368,389,408,429,450,469,489,508,529,548,568,589,608,629,648,668,688,709,728,749,769,788,809,828,848,869,888,908,928,949,968,988,1008,1030,1048,1069,1088,1110,1128,1148,1170,1189,1209,1229,1248,1269,1289,1309,1330,1348,1369,1389,1410,1428,1449,1469,1489,1508,1528,1548,1570,1588,1609,1628,1648,1668,1688,1708,1728,1749,1769,1789,1809],"xSR":737,"ySR":442.65000000000003,"xT1":422.2,"yT1":0,"xT2":1051.8,"yT2":0,"toosoon":0,"cond_shown":"Incongruent","ratio_trial":200,"L_num":4,"L_den":30,"R_num":1,"R_den":3,"correct_side":2,"subjID":"MariaPaulaMrianoSalcedo11","gender":"1","school":"6","age":"11"},{"start_time":1551800798151,"click_time":1551800799540,"finger_time":1551800799360,"fix_duration":250,"trial":36,"RT":1209,"MT":180,"sideResp":1,"stimulus":[],"xmouse":[792,792,792,792,792,792,792,792,792,792,792,792,792,792,792,792,792,792,792,792,792,792,792,792,792,792,792,792,792,792,792,792,792,792,792,792,792,792,792,792,792,792,792,792,792,792,792,792,792,792,792,792,792,792,792,792,787,776,773,766,755,698,654,616,585,567,545,538,528,521],"ymouse":[490,490,490,490,490,490,490,490,490,490,490,490,490,490,490,490,490,490,490,490,490,490,490,490,490,490,490,490,490,490,490,490,490,490,490,490,490,490,490,490,490,490,490,490,490,490,490,490,490,490,490,490,490,490,490,490,490,485,466,445,420,337,282,232,190,160,123,110,88,73],"timestamp_mouse":[10,31,48,68,89,108,128,148,168,190,208,229,248,269,288,308,328,348,368,389,408,429,450,468,488,510,529,548,568,588,608,628,650,668,688,708,729,748,768,790,809,828,849,869,889,908,929,949,970,988,1010,1028,1049,1068,1089,1109,1128,1149,1168,1188,1209,1228,1248,1268,1288,1310,1328,1348,1368,1389],"xSR":737,"ySR":442.65000000000003,"xT1":422.2,"yT1":0,"xT2":1051.8,"yT2":0,"toosoon":0,"cond_shown":"Incongruent","ratio_trial":300,"L_num":8,"L_den":10,"R_num":9,"R_den":18,"correct_side":1,"subjID":"MariaPaulaMrianoSalcedo11","gender":"1","school":"6","age":"11"},{"start_time":1551800800952,"click_time":1551800803480,"finger_time":1551800802700,"fix_duration":250,"trial":37,"RT":1748,"MT":780,"sideResp":2,"stimulus":[],"xmouse":[758,758,758,758,758,758,758,758,758,760,760,760,761,761,761,761,761,761,761,761,761,761,761,761,761,761,761,761,761,761,761,761,761,761,761,761,761,761,761,761,761,761,761,761,761,761,761,761,761,761,761,761,761,761,761,761,761,761,761,761,761,761,761,761,761,761,761,761,761,761,761,761,761,761,761,761,761,761,761,761,761,763,773,787,797,800,814,835,853,871,886,907,916,923,931,939,948,953,957,963,965,970,973,978,982,983,998,1013,1013,1023,1032,1035,1035,1034,1033,1033,1027,1027,1025,1025,1025,1025,1025,1025,1030,1044,1062],"ymouse":[473,473,473,473,473,473,473,473,473,473,473,473,473,473,473,473,473,473,473,473,473,473,473,473,473,473,473,473,473,473,473,473,473,473,473,473,473,473,473,473,473,473,473,473,473,473,473,473,473,473,473,473,473,473,473,473,473,473,473,473,473,473,473,473,473,473,473,473,473,473,473,473,473,473,473,473,473,473,473,473,473,473,471,467,464,462,450,410,374,342,320,287,268,250,233,201,167,158,151,142,135,126,124,122,121,121,121,123,123,123,123,121,121,117,111,111,91,87,83,80,78,76,76,76,74,70,64],"timestamp_mouse":[10,44,47,67,87,108,128,149,167,187,208,228,247,267,289,308,327,349,368,388,408,428,447,467,488,507,529,548,568,588,607,628,647,668,687,708,727,748,767,788,809,827,848,867,887,908,928,947,969,989,1007,1027,1047,1067,1088,1108,1129,1147,1168,1187,1207,1228,1248,1268,1287,1307,1327,1347,1367,1387,1409,1428,1447,1469,1487,1507,1527,1547,1567,1587,1607,1628,1647,1668,1687,1708,1727,1748,1767,1787,1808,1827,1847,1867,1888,1907,1927,1947,1967,1988,2007,2027,2047,2068,2087,2108,2127,2147,2167,2187,2207,2227,2248,2267,2287,2309,2328,2347,2367,2387,2408,2427,2447,2467,2488,2507,2527],"xSR":737,"ySR":442.65000000000003,"xT1":422.2,"yT1":0,"xT2":1051.8,"yT2":0,"toosoon":0,"cond_shown":"Incongruent","ratio_trial":200,"L_num":14,"L_den":30,"R_num":6,"R_den":9,"correct_side":2,"subjID":"MariaPaulaMrianoSalcedo11","gender":"1","school":"6","age":"11"},{"start_time":1551800807955,"click_time":1551800809840,"finger_time":1551800808379,"fix_duration":693.1389257211863,"trial":38,"RT":424,"MT":1461,"sideResp":2,"stimulus":[],"xmouse":[803,803,804,805,805,805,805,805,805,805,805,805,805,805,805,805,805,810,816,823,833,852,862,867,869,872,876,879,879,880,880,880,881,881,883,883,895,905,920,936,941,961,970,970,972,974,974,974,974,974,974,974,974,974,974,974,974,975,1009,1010,1029,1030,1030,1032,1032,1032,1030,1030,1030,1030,1030,1029,1029,1029,1029,1029,1031,1031,1031,1032,1032,1034,1036,1040,1045,1047,1049,1049,1050,1050,1050,1050,1051,1051,1053],"ymouse":[494,493,492,492,492,492,492,492,492,492,492,492,492,492,492,492,492,485,475,464,449,420,404,391,381,372,361,354,353,352,352,350,349,347,344,342,327,319,309,296,288,239,211,211,209,206,206,206,206,206,206,206,206,206,206,206,206,205,177,176,154,153,152,149,143,141,138,138,138,138,138,130,123,112,111,110,106,106,106,105,105,104,103,100,96,94,92,92,91,91,90,90,89,89,88],"timestamp_mouse":[4,27,44,64,84,105,124,145,166,185,205,225,245,265,286,304,325,345,364,384,404,424,444,464,484,504,525,544,564,584,604,624,644,664,684,705,724,745,764,784,805,824,844,864,884,905,925,944,964,985,1004,1024,1044,1064,1084,1105,1125,1144,1164,1184,1205,1224,1246,1264,1285,1304,1324,1344,1365,1385,1404,1424,1444,1465,1484,1505,1524,1545,1564,1585,1604,1624,1644,1665,1684,1705,1724,1744,1765,1785,1806,1824,1845,1865,1885],"xSR":737,"ySR":442.65000000000003,"xT1":422.2,"yT1":0,"xT2":1051.8,"yT2":0,"toosoon":0,"cond_shown":"Congruent","ratio_trial":300,"L_num":8,"L_den":15,"R_num":10,"R_den":12,"correct_side":2,"subjID":"MariaPaulaMrianoSalcedo11","gender":"1","school":"6","age":"11"},{"start_time":1551800812672,"click_time":1551800816619,"finger_time":1551800815900,"fix_duration":1292.8453189921051,"trial":39,"RT":3228,"MT":719,"sideResp":2,"stimulus":[],"xmouse":[780,780,780,780,780,780,780,780,780,780,780,780,780,780,780,780,780,780,780,780,780,780,780,780,780,780,780,780,780,780,780,780,780,780,780,780,780,780,780,780,780,780,780,780,780,780,780,780,780,780,780,780,780,780,780,780,780,780,780,780,780,780,780,780,780,780,780,780,780,780,780,780,780,780,780,777,774,773,773,773,773,773,773,773,773,773,773,773,773,773,773,773,773,773,773,773,773,773,773,773,773,773,773,773,773,773,773,773,773,773,773,773,773,773,773,773,773,774,775,776,776,776,776,776,776,776,776,776,776,776,776,776,777,778,779,779,779,779,779,779,780,781,781,781,781,781,782,782,783,783,783,784,785,786,786,788,790,790,792,794,795,798,804,811,812,813,832,850,852,858,868,882,888,888,899,911,911,917,933,948,950,960,960,961,961,987,987,990,991,996,998,1003,1029,1040,1040,1049,1057,1066],"ymouse":[505,505,505,505,505,505,505,505,505,505,505,505,505,505,505,505,505,505,505,505,505,505,505,505,505,505,505,505,505,505,505,505,505,505,505,505,505,505,505,505,505,505,505,505,505,505,505,505,505,505,505,505,505,505,505,505,505,505,505,505,505,505,505,505,505,505,505,505,505,505,505,505,505,505,505,498,496,494,494,494,494,494,494,494,494,494,494,494,494,494,494,494,494,494,494,494,494,494,494,494,494,494,494,494,494,494,494,494,494,494,494,494,494,494,494,494,493,491,490,490,490,490,490,490,490,490,490,490,490,490,490,488,487,487,486,486,486,486,486,486,484,483,483,483,483,482,481,481,480,480,480,478,477,475,474,472,467,465,460,453,449,439,430,420,419,417,398,376,371,361,323,287,275,275,263,246,246,242,233,223,223,216,216,216,216,202,202,200,198,192,190,183,157,143,143,126,107,81],"timestamp_mouse":[9,40,47,67,87,107,128,147,167,187,207,227,248,267,288,308,328,349,368,387,408,427,447,468,487,507,528,548,569,587,607,627,647,668,687,707,727,748,767,787,807,827,847,867,887,908,929,948,968,989,1008,1028,1047,1067,1087,1108,1129,1149,1169,1188,1208,1228,1248,1268,1288,1308,1327,1347,1368,1387,1407,1427,1448,1467,1487,1507,1527,1548,1568,1587,1608,1628,1647,1669,1687,1708,1728,1749,1768,1788,1808,1827,1847,1868,1888,1907,1928,1948,1967,1988,2007,2029,2047,2067,2087,2108,2127,2147,2168,2187,2207,2228,2248,2268,2287,2309,2327,2348,2367,2387,2408,2427,2448,2467,2487,2508,2528,2548,2568,2588,2607,2628,2647,2668,2687,2708,2728,2748,2768,2788,2807,2827,2848,2868,2887,2908,2927,2947,2967,2988,3007,3027,3047,3068,3087,3107,3127,3147,3168,3187,3207,3228,3247,3268,3287,3308,3327,3348,3368,3387,3408,3428,3449,3467,3488,3507,3527,3547,3567,3588,3607,3627,3648,3669,3688,3708,3727,3748,3768,3787,3807,3827,3847,3867,3888,3908,3927,3947],"xSR":737,"ySR":442.65000000000003,"xT1":422.2,"yT1":0,"xT2":1051.8,"yT2":0,"toosoon":0,"cond_shown":"Congruent","ratio_trial":100,"L_num":4,"L_den":10,"R_num":15,"R_den":30,"correct_side":2,"subjID":"MariaPaulaMrianoSalcedo11","gender":"1","school":"6","age":"11"},{"start_time":1551800820761,"click_time":1551800823399,"finger_time":1551800822340,"fix_duration":861.1214552738943,"trial":40,"RT":1579,"MT":1059,"sideResp":2,"stimulus":[],"xmouse":[776,776,776,776,776,776,778,778,778,778,778,778,778,778,778,778,778,778,778,778,778,778,778,778,778,778,778,778,778,778,778,778,778,778,778,778,778,778,778,778,778,778,778,778,778,778,778,778,778,778,778,778,778,778,778,778,779,779,779,779,779,779,779,779,779,779,779,779,779,779,779,779,779,779,779,780,780,780,778,776,775,777,778,778,778,780,784,784,784,784,786,786,786,786,786,791,792,795,796,796,796,799,812,831,833,850,864,876,882,889,889,891,896,902,902,906,932,943,967,985,1010,1024,1026,1026,1026,1026,1026,1026,1027,1028,1043,1053],"ymouse":[468,468,468,468,468,468,463,461,461,461,461,461,461,461,461,461,461,461,461,461,461,461,461,461,461,461,461,461,461,461,461,461,461,461,461,461,461,461,461,461,461,461,461,461,461,461,461,461,461,461,461,461,461,461,461,461,461,461,461,461,461,461,461,461,461,461,461,461,461,461,461,461,461,461,461,461,461,453,440,428,423,410,398,398,396,383,366,366,366,366,365,365,365,365,365,362,361,357,356,356,356,352,324,300,296,269,246,229,221,213,213,211,204,199,199,196,170,160,138,116,89,70,67,65,65,65,65,65,65,65,64,64],"timestamp_mouse":[30,39,58,78,98,118,138,158,178,199,218,239,258,279,299,318,338,358,378,398,419,438,458,478,499,518,538,558,578,600,619,638,658,678,698,718,738,758,779,798,819,839,858,878,899,919,939,958,978,999,1019,1039,1059,1080,1098,1119,1138,1158,1179,1199,1218,1238,1258,1279,1298,1318,1338,1358,1379,1399,1418,1438,1459,1479,1498,1519,1539,1558,1579,1598,1618,1638,1658,1678,1699,1718,1739,1758,1778,1798,1818,1838,1859,1878,1898,1918,1938,1958,1979,1998,2019,2038,2058,2078,2098,2118,2138,2158,2179,2198,2218,2238,2259,2279,2300,2318,2339,2358,2380,2399,2419,2438,2459,2478,2498,2518,2538,2558,2578,2599,2618,2638],"xSR":737,"ySR":442.65000000000003,"xT1":422.2,"yT1":0,"xT2":1051.8,"yT2":0,"toosoon":0,"cond_shown":"Incongruent","ratio_trial":100,"L_num":12,"L_den":24,"R_num":9,"R_den":15,"correct_side":2,"subjID":"MariaPaulaMrianoSalcedo11","gender":"1","school":"6","age":"11"},{"start_time":1551800826176,"click_time":1551800827980,"finger_time":1551800827539,"fix_duration":1274.76893541851,"trial":41,"RT":1363,"MT":441,"sideResp":2,"stimulus":[],"xmouse":[820,820,820,820,820,820,820,820,820,820,820,820,820,820,820,820,820,820,820,820,820,820,820,820,820,820,820,820,820,820,820,820,820,820,820,820,820,820,820,820,820,820,820,820,820,820,820,820,820,820,820,820,820,820,820,820,820,820,812,804,794,793,793,793,793,793,793,793,816,841,872,882,883,883,883,891,918,944,959,967,970,972,978,994,1016,1037,1037,1039,1040,1045,1074],"ymouse":[499,499,499,499,499,499,499,499,499,499,499,499,499,499,499,499,499,499,499,499,499,499,499,499,499,499,499,499,499,499,499,499,499,499,499,499,499,499,499,499,499,499,499,499,499,499,499,499,499,499,499,499,499,499,499,499,499,499,499,499,499,499,499,499,496,478,448,447,418,390,343,313,302,288,273,260,247,228,209,192,178,173,167,157,143,117,114,110,107,102,84],"timestamp_mouse":[9,36,43,63,83,104,123,143,163,184,203,224,243,263,283,303,324,343,364,385,404,424,443,464,484,504,524,544,564,584,603,623,643,664,684,704,723,743,764,783,803,823,844,863,884,904,925,943,964,983,1003,1023,1043,1063,1084,1103,1125,1143,1163,1184,1204,1224,1243,1264,1283,1303,1324,1343,1363,1384,1403,1423,1443,1463,1483,1503,1524,1543,1563,1584,1603,1623,1643,1664,1683,1704,1724,1743,1764,1783,1804],"xSR":737,"ySR":442.65000000000003,"xT1":422.2,"yT1":0,"xT2":1051.8,"yT2":0,"toosoon":0,"cond_shown":"Congruent","ratio_trial":200,"L_num":6,"L_den":12,"R_num":7,"R_den":10,"correct_side":2,"subjID":"MariaPaulaMrianoSalcedo11","gender":"1","school":"6","age":"11"},{"start_time":1551800832159,"click_time":1551800833799,"finger_time":1551800833419,"fix_duration":598.0185762496939,"trial":42,"RT":1260,"MT":380,"sideResp":2,"stimulus":[],"xmouse":[815,815,815,815,815,815,815,815,815,815,816,817,817,818,818,818,820,820,820,820,820,820,820,820,820,820,820,820,820,820,820,820,820,820,820,820,820,820,820,820,820,820,820,821,821,821,821,821,821,821,821,821,821,821,821,821,821,821,821,821,821,824,832,844,850,861,899,910,929,936,936,953,965,976,981,981,976,972,972,974,988,1045,1057],"ymouse":[479,479,479,479,479,479,479,479,479,479,478,476,476,474,474,474,472,472,471,471,471,471,471,471,471,471,471,471,471,471,471,471,471,471,471,471,471,471,471,471,471,471,471,469,469,469,469,469,469,469,469,469,469,469,469,469,469,469,469,469,469,467,457,443,434,416,349,329,283,266,266,236,213,188,163,140,113,98,97,91,86,69,61],"timestamp_mouse":[11,20,41,60,80,100,120,140,160,180,200,221,240,260,280,301,320,340,360,380,400,420,440,462,481,502,521,541,562,581,600,621,642,661,681,701,721,742,761,782,800,820,840,860,880,900,920,941,960,980,1001,1020,1040,1060,1080,1101,1120,1140,1160,1181,1201,1221,1240,1260,1280,1302,1320,1340,1360,1380,1401,1420,1440,1460,1481,1502,1520,1540,1560,1580,1600,1620,1640],"xSR":737,"ySR":442.65000000000003,"xT1":422.2,"yT1":0,"xT2":1051.8,"yT2":0,"toosoon":0,"cond_shown":"Incongruent","ratio_trial":200,"L_num":1,"L_den":2,"R_num":3,"R_den":10,"correct_side":1,"subjID":"MariaPaulaMrianoSalcedo11","gender":"1","school":"6","age":"11"},{"start_time":1551800836938,"click_time":1551800838901,"finger_time":1551800838260,"fix_duration":1436.3510758979692,"trial":43,"RT":1322,"MT":641,"sideResp":2,"stimulus":[],"xmouse":[812,812,812,812,812,812,812,812,812,812,812,812,812,812,812,812,812,812,812,812,812,812,812,812,812,812,812,812,812,812,812,812,812,812,812,812,812,812,812,812,812,812,812,812,812,812,812,812,812,812,812,812,812,812,812,812,812,812,812,812,812,812,813,819,827,833,841,843,845,850,862,879,919,934,942,950,965,970,973,976,977,977,977,980,986,992,995,1006,1007,1007,1007,1007,1007,1007,1007,1007,1014,1044,1057],"ymouse":[491,491,491,491,491,491,491,491,491,491,491,491,491,491,491,491,491,491,491,491,491,491,491,491,491,491,491,491,491,491,491,491,491,491,491,491,491,491,491,491,491,491,491,491,491,491,491,491,491,491,491,491,491,491,491,491,491,491,491,491,491,491,491,484,470,456,442,427,420,410,404,398,382,367,349,321,265,214,109,98,95,92,91,87,80,74,72,61,61,61,61,61,61,61,61,60,59,56,53],"timestamp_mouse":[8,21,41,61,81,101,121,141,162,182,201,222,242,261,281,301,321,342,361,381,401,421,441,462,481,501,521,541,562,583,602,621,641,661,682,703,721,741,761,781,801,823,841,862,881,901,922,941,962,982,1001,1022,1043,1062,1081,1102,1121,1142,1161,1182,1201,1222,1242,1261,1281,1301,1322,1342,1362,1381,1401,1422,1441,1461,1481,1502,1521,1541,1561,1581,1601,1621,1641,1661,1682,1701,1721,1741,1761,1782,1802,1821,1841,1862,1883,1901,1921,1941,1962],"xSR":737,"ySR":442.65000000000003,"xT1":422.2,"yT1":0,"xT2":1051.8,"yT2":0,"toosoon":0,"cond_shown":"Congruent","ratio_trial":300,"L_num":1,"L_den":5,"R_num":6,"R_den":12,"correct_side":2,"subjID":"MariaPaulaMrianoSalcedo11","gender":"1","school":"6","age":"11"},{"start_time":1551800840551,"click_time":1551800842279,"finger_time":1551800841900,"fix_duration":250,"trial":44,"RT":1349,"MT":379,"sideResp":1,"stimulus":[],"xmouse":[815,815,815,815,815,815,815,815,815,815,815,815,815,815,815,815,815,815,815,815,815,815,815,815,815,815,815,815,815,815,815,815,815,815,815,815,815,815,815,815,815,815,815,815,815,815,815,815,815,815,815,815,815,815,815,815,815,815,815,815,815,815,815,814,814,812,791,764,723,675,657,638,633,633,633,633,633,633,633,630,628,612,597,582,561,523,468],"ymouse":[482,482,482,482,482,482,482,482,482,482,482,482,482,482,482,482,482,482,482,482,482,482,482,482,482,482,482,482,482,482,482,482,482,482,482,482,482,482,482,482,482,482,482,482,482,482,482,482,482,482,482,482,482,482,482,482,482,482,482,482,482,482,482,481,480,475,444,409,364,320,305,288,278,277,277,277,277,277,276,261,255,225,202,182,156,115,68],"timestamp_mouse":[12,28,49,68,88,108,128,148,170,190,208,230,248,268,288,308,328,348,368,389,408,428,448,468,488,509,529,548,570,588,608,628,649,669,688,708,729,748,770,788,809,829,849,869,888,908,928,948,970,989,1009,1028,1048,1068,1088,1110,1128,1148,1168,1189,1208,1229,1248,1268,1288,1308,1328,1349,1368,1389,1408,1428,1448,1469,1488,1508,1528,1550,1568,1588,1608,1628,1648,1669,1689,1709,1728],"xSR":737,"ySR":442.65000000000003,"xT1":422.2,"yT1":0,"xT2":1051.8,"yT2":0,"toosoon":0,"cond_shown":"Incongruent","ratio_trial":100,"L_num":6,"L_den":10,"R_num":11,"R_den":22,"correct_side":1,"subjID":"MariaPaulaMrianoSalcedo11","gender":"1","school":"6","age":"11"},{"start_time":1551800844808,"click_time":1551800847179,"finger_time":1551800846540,"fix_duration":906.7228026198837,"trial":45,"RT":1732,"MT":639,"sideResp":1,"stimulus":[],"xmouse":[808,808,808,808,808,808,808,808,808,808,808,808,808,808,808,808,808,808,808,808,808,808,808,808,808,808,808,808,808,808,808,808,808,808,808,808,808,808,808,808,808,808,808,808,808,808,810,816,820,820,820,820,820,820,820,820,820,820,820,820,820,820,820,820,820,820,820,820,820,817,815,813,812,808,806,806,806,806,806,806,806,806,806,806,799,770,724,653,560,531,507,487,480,477,475,475,475,475,475,475,476,476,482,484,484,484,484,484,484,484,484,482,479,479,479,477,474,471,466],"ymouse":[486,486,486,486,486,486,486,486,486,486,486,486,486,486,486,486,486,486,486,486,486,486,486,486,486,486,486,486,486,486,486,486,486,486,486,486,486,486,486,486,486,486,486,486,486,486,483,478,473,473,473,473,473,473,473,473,473,473,473,473,473,473,473,473,473,473,473,473,473,473,473,474,474,474,474,474,474,474,475,475,475,475,475,475,470,443,404,354,298,276,254,231,224,218,216,216,216,216,212,212,211,210,195,183,180,175,169,169,153,144,141,132,125,125,124,119,113,105,90],"timestamp_mouse":[11,37,53,71,91,111,131,151,171,191,212,232,252,271,292,312,331,351,371,393,411,432,451,472,491,511,531,551,572,592,612,631,651,671,691,713,732,751,771,793,811,831,852,872,892,912,932,952,971,992,1012,1031,1053,1072,1091,1112,1131,1152,1172,1192,1211,1232,1252,1271,1291,1312,1332,1352,1371,1391,1412,1431,1452,1472,1491,1512,1531,1551,1571,1591,1612,1631,1651,1671,1692,1711,1732,1752,1773,1791,1811,1831,1853,1871,1891,1911,1931,1951,1971,1991,2011,2031,2051,2071,2091,2111,2131,2151,2172,2191,2211,2232,2253,2271,2292,2311,2332,2351,2371],"xSR":737,"ySR":442.65000000000003,"xT1":422.2,"yT1":0,"xT2":1051.8,"yT2":0,"toosoon":0,"cond_shown":"Congruent","ratio_trial":100,"L_num":10,"L_den":25,"R_num":3,"R_den":10,"correct_side":1,"subjID":"MariaPaulaMrianoSalcedo11","gender":"1","school":"6","age":"11"},{"start_time":1551800849163,"click_time":1551800851020,"finger_time":1551800850519,"fix_duration":622.7236282125689,"trial":46,"RT":1356,"MT":501,"sideResp":2,"stimulus":[],"xmouse":[780,780,780,780,780,780,780,780,780,780,780,780,780,780,780,780,780,780,780,780,780,780,780,780,780,780,780,780,780,780,780,780,780,780,780,780,780,780,780,780,780,780,780,780,780,780,780,780,780,780,780,780,780,780,780,780,780,780,780,780,780,780,780,780,783,804,814,851,870,891,924,936,943,944,944,953,954,956,956,957,958,959,966,975,979,998,1005,1011,1017,1021,1042,1049,1058],"ymouse":[466,466,466,466,466,466,466,466,466,466,466,466,466,466,466,466,466,466,466,466,466,466,466,466,466,466,466,466,466,466,466,466,466,466,466,466,466,466,466,466,466,466,466,466,466,466,466,466,466,466,466,466,466,466,466,466,466,466,466,466,466,466,466,466,466,455,449,419,391,368,309,273,246,237,229,190,185,164,163,158,150,145,136,124,119,96,90,85,83,82,76,72,70],"timestamp_mouse":[16,37,58,76,96,117,138,156,177,197,217,237,256,276,296,316,337,357,377,397,416,