[{"start_time":1551801270501,"click_time":1551801272099,"finger_time":1551801271737,"fix_duration":660.3774104970217,"trial":0,"RT":1236,"MT":362,"sideResp":2,"stimulus":"img/900/randomdotsizeEA/L/4_Ratio_900_L_20_R_18.png","xmouse":[791,791,791,791,791,791,791,791,791,791,791,791,791,791,791,791,791,791,791,791,791,791,791,791,791,791,791,791,791,791,791,791,791,791,791,791,791,791,791,791,791,791,791,791,791,791,791,791,791,791,791,791,791,791,791,791,791,791,791,791,803,812,812,821,839,848,866,895,918,938,940,943,953,971,977,994,1015,1022,1062,1063],"ymouse":[467,467,467,467,467,467,467,467,467,467,467,467,467,467,467,467,467,467,467,467,467,467,467,467,467,467,467,467,467,467,467,467,467,467,467,467,467,467,467,467,467,467,467,467,467,467,467,467,467,467,467,467,467,467,467,467,467,467,465,465,449,439,439,429,407,395,375,343,313,286,282,277,256,221,214,189,160,151,101,99],"timestamp_mouse":[17,38,57,76,96,118,138,157,177,196,217,236,256,276,296,316,337,357,376,396,416,437,457,477,497,516,537,557,576,596,617,636,657,678,698,716,736,757,777,796,817,838,857,877,897,917,937,957,977,996,1016,1037,1057,1077,1097,1117,1138,1157,1177,1197,1218,1236,1256,1276,1297,1316,1336,1357,1377,1396,1416,1436,1456,1476,1496,1517,1537,1558,1576,1597],"xSR":737,"ySR":442.65000000000003,"xT1":422.2,"yT1":0,"xT2":1051.8,"yT2":0,"toosoon":0,"cond_shown":"randomdotsizeEA","ratio_trial":900,"smaller_num":"18","larger_num":"20","correct_side":1,"subjID":"MariaPaulaMorianoSalcedo11","gender":"1","age":"11","school":"6","test":{"fix_dur":[250,1500],"timestim":300,"targets_dim":[100,100],"targets_relative_coord":[0.3,0.7],"size_stim":[880,420],"start_dim":[100,100],"size_start":[300,300],"size_fix":60,"samplingrate":20,"img_types":["equaldotsize","equaldotanddens","randomdotsizeEA"],"ratios":[250,500,750,900],"rep_conds":9,"nTrials":120,"trials_to_rest":500,"Trials_order":[11,41,22,75,42,49,9,103,113,111,83,59,91,88,31,98,5,105,89,117,81,64,34,63,37,14,70,86,80,23,53,82,92,62,48,6,7,29,115,24,4,104,97,85,30,27,21,84,76,73,12,93,100,66,2,57,55,33,108,69,39,17,74,112,50,8,58,60,107,19,116,32,40,61,102,35,56,67,51,65,106,79,68,95,38,78,96,20,52,16,94,54,47,18,77,87,110,43,118,109,101,72,71,3,25,119,26,44,15,46,36,28,10,90,0,1,114,99,13,45],"cond_shown":["randomdotsizeEA","randomdotsizeEA","equaldotanddens","equaldotsize","equaldotsize","equaldotanddens","equaldotsize","equaldotanddens","randomdotsizeEA","equaldotsize","randomdotsizeEA","randomdotsizeEA","equaldotanddens","equaldotanddens","equaldotanddens","randomdotsizeEA","randomdotsizeEA","equaldotsize","randomdotsizeEA","equaldotsize","equaldotsize","equaldotanddens","equaldotanddens","equaldotsize","equaldotanddens","randomdotsizeEA","equaldotanddens","randomdotsizeEA","randomdotsizeEA","randomdotsizeEA","randomdotsizeEA","equaldotanddens","randomdotsizeEA","randomdotsizeEA","equaldotsize","equaldotsize","equaldotanddens","randomdotsizeEA","equaldotanddens","equaldotsize","equaldotanddens","randomdotsizeEA","equaldotanddens","equaldotanddens","equaldotsize","equaldotsize","equaldotsize","equaldotsize","equaldotanddens","equaldotanddens","equaldotsize","equaldotsize","equaldotanddens","equaldotsize","randomdotsizeEA","equaldotsize","equaldotanddens","equaldotsize","equaldotsize","equaldotsize","equaldotsize","randomdotsizeEA","randomdotsizeEA","equaldotanddens","randomdotsizeEA","randomdotsizeEA","equaldotanddens","equaldotsize","randomdotsizeEA","equaldotanddens","randomdotsizeEA","randomdotsizeEA","equaldotanddens","equaldotanddens","equaldotsize","randomdotsizeEA","randomdotsizeEA","equaldotanddens","equaldotsize","randomdotsizeEA","equaldotanddens","equaldotanddens","randomdotsizeEA","randomdotsizeEA","randomdotsizeEA","equaldotsize","equaldotsize","randomdotsizeEA","equaldotanddens","equaldotanddens","equaldotanddens","equaldotsize","randomdotsizeEA","equaldotsize","randomdotsizeEA","equaldotsize","randomdotsizeEA","equaldotanddens","equaldotanddens","equaldotanddens","randomdotsizeEA","equaldotsize","randomdotsizeEA","equaldotsize","equaldotanddens","randomdotsizeEA","randomdotsizeEA","randomdotsizeEA","equaldotsize","equaldotanddens","equaldotsize","equaldotanddens","equaldotanddens","equaldotsize","equaldotsize","equaldotanddens","equaldotsize","equaldotsize","equaldotanddens","equaldotsize"],"ratio_trial":[900,500,900,500,750,250,900,750,500,500,900,900,750,500,750,250,500,900,500,900,900,500,900,500,250,250,900,250,750,900,500,900,750,250,250,750,750,500,750,250,500,750,250,250,750,500,900,250,500,250,250,900,500,750,250,900,750,900,250,900,500,500,250,500,250,750,900,250,900,750,750,750,500,250,750,900,750,750,500,500,900,750,750,900,250,750,250,750,500,500,900,750,900,750,500,500,250,750,900,250,500,250,900,500,250,900,250,750,500,900,250,500,900,750,250,250,750,500,250,900],"smaller_num":["18","2","9","2","3","4","18","3","6","4","9","9","15","6","15","4","9","18","9","9","18","9","9","5","3","3","18","2","3","9","4","18","3","3","6","3","6","4","15","5","9","3","3","2","15","2","9","2","9","1","2","18","10","15","3","18","15","9","3","18","1","6","2","5","2","15","18","3","9","3","6","3","6","1","6","18","18","3","2","2","9","15","6","18","3","3","3","15","3","2","9","3","9","3","5","1","2","15","9","2","9","2","18","3","4","9","4","9","6","18","5","10","18","3","5","4","15","6","3","18"],"larger_num":["20","4","10","4","4","16","20","4","12","8","10","10","20","12","20","16","18","20","18","10","20","18","10","10","12","12","20","8","4","10","8","20","4","12","24","4","8","8","20","20","18","4","12","8","20","4","10","8","18","4","8","20","20","20","12","20","20","10","12","20","2","12","8","10","8","20","20","12","10","4","8","4","12","4","8","20","24","4","4","4","10","20","8","20","12","4","12","20","6","4","10","4","10","4","10","2","8","20","10","8","18","8","20","6","16","10","16","12","12","20","20","20","20","4","20","16","20","12","12","20"],"correct_side":[1,1,1,2,2,2,1,2,1,1,2,2,2,1,2,2,1,1,2,2,1,1,1,2,2,2,1,2,1,2,1,1,1,2,1,1,1,1,2,2,2,1,2,1,2,2,1,1,1,2,1,1,2,2,1,1,2,1,2,2,2,1,1,1,1,1,2,2,2,1,2,1,1,2,2,1,1,2,1,1,2,1,1,1,1,1,2,2,2,1,2,2,2,2,1,2,2,2,2,1,2,1,1,2,1,2,2,2,1,1,2,2,1,2,2,2,2,1,1,1],"img_shown":["img/900/randomdotsizeEA/L/4_Ratio_900_L_20_R_18.png","img/500/randomdotsizeEA/L/5_Ratio_500_L_4_R_2.png","img/900/equaldotanddens/L/1_Ratio_900_L_10_R_9.png","img/500/equaldotsize/R/9_Ratio_500_L_2_R_4.png","img/750/equaldotsize/R/7_Ratio_750_L_3_R_4.png","img/250/equaldotanddens/R/10_Ratio_250_L_4_R_16.png","img/900/equaldotsize/L/2_Ratio_900_L_20_R_18.png","img/750/equaldotanddens/R/12_Ratio_750_L_3_R_4.png","img/500/randomdotsizeEA/L/11_Ratio_500_L_12_R_6.png","img/500/equaldotsize/L/8_Ratio_500_L_8_R_4.png","img/900/randomdotsizeEA/R/5_Ratio_900_L_9_R_10.png","img/900/randomdotsizeEA/R/5_Ratio_900_L_9_R_10.png","img/750/equaldotanddens/R/3_Ratio_750_L_15_R_20.png","img/500/equaldotanddens/L/11_Ratio_500_L_12_R_6.png","img/750/equaldotanddens/R/3_Ratio_750_L_15_R_20.png","img/250/randomdotsizeEA/R/10_Ratio_250_L_4_R_16.png","img/500/randomdotsizeEA/L/4_Ratio_500_L_18_R_9.png","img/900/equaldotsize/L/2_Ratio_900_L_20_R_18.png","img/500/randomdotsizeEA/R/6_Ratio_500_L_9_R_18.png","img/900/equaldotsize/R/6_Ratio_900_L_9_R_10.png","img/900/equaldotsize/L/8_Ratio_900_L_20_R_18.png","img/500/equaldotanddens/L/4_Ratio_500_L_18_R_9.png","img/900/equaldotanddens/L/1_Ratio_900_L_10_R_9.png","img/500/equaldotsize/R/14_Ratio_500_L_5_R_10.png","img/250/equaldotanddens/R/11_Ratio_250_L_3_R_12.png","img/250/randomdotsizeEA/R/4_Ratio_250_L_3_R_12.png","img/900/equaldotanddens/L/10_Ratio_900_L_20_R_18.png","img/250/randomdotsizeEA/R/13_Ratio_250_L_2_R_8.png","img/750/randomdotsizeEA/L/10_Ratio_750_L_4_R_3.png","img/900/randomdotsizeEA/R/6_Ratio_900_L_9_R_10.png","img/500/randomdotsizeEA/L/8_Ratio_500_L_8_R_4.png","img/900/equaldotanddens/L/8_Ratio_900_L_20_R_18.png","img/750/randomdotsizeEA/L/10_Ratio_750_L_4_R_3.png","img/250/randomdotsizeEA/R/9_Ratio_250_L_3_R_12.png","img/250/equaldotsize/L/5_Ratio_250_L_24_R_6.png","img/750/equaldotsize/L/8_Ratio_750_L_4_R_3.png","img/750/equaldotanddens/L/14_Ratio_750_L_8_R_6.png","img/500/randomdotsizeEA/L/8_Ratio_500_L_8_R_4.png","img/750/equaldotanddens/R/4_Ratio_750_L_15_R_20.png","img/250/equaldotsize/R/12_Ratio_250_L_5_R_20.png","img/500/equaldotanddens/R/1_Ratio_500_L_9_R_18.png","img/750/randomdotsizeEA/L/8_Ratio_750_L_4_R_3.png","img/250/equaldotanddens/R/9_Ratio_250_L_3_R_12.png","img/250/equaldotanddens/L/7_Ratio_250_L_8_R_2.png","img/750/equaldotsize/R/4_Ratio_750_L_15_R_20.png","img/500/equaldotsize/R/9_Ratio_500_L_2_R_4.png","img/900/equaldotsize/L/1_Ratio_900_L_10_R_9.png","img/250/equaldotsize/L/7_Ratio_250_L_8_R_2.png","img/500/equaldotanddens/L/4_Ratio_500_L_18_R_9.png","img/250/equaldotanddens/R/8_Ratio_250_L_1_R_4.png","img/250/equaldotsize/L/1_Ratio_250_L_8_R_2.png","img/900/equaldotsize/L/4_Ratio_900_L_20_R_18.png","img/500/equaldotanddens/R/3_Ratio_500_L_10_R_20.png","img/750/equaldotsize/R/4_Ratio_750_L_15_R_20.png","img/250/randomdotsizeEA/L/14_Ratio_250_L_12_R_3.png","img/900/equaldotsize/L/4_Ratio_900_L_20_R_18.png","img/750/equaldotanddens/R/5_Ratio_750_L_15_R_20.png","img/900/equaldotsize/L/1_Ratio_900_L_10_R_9.png","img/250/equaldotsize/R/9_Ratio_250_L_3_R_12.png","img/900/equaldotsize/R/9_Ratio_900_L_18_R_20.png","img/500/equaldotsize/R/15_Ratio_500_L_1_R_2.png","img/500/randomdotsizeEA/L/11_Ratio_500_L_12_R_6.png","img/250/randomdotsizeEA/L/7_Ratio_250_L_8_R_2.png","img/500/equaldotanddens/L/7_Ratio_500_L_10_R_5.png","img/250/randomdotsizeEA/L/3_Ratio_250_L_8_R_2.png","img/750/randomdotsizeEA/L/1_Ratio_750_L_20_R_15.png","img/900/equaldotanddens/R/9_Ratio_900_L_18_R_20.png","img/250/equaldotsize/R/11_Ratio_250_L_3_R_12.png","img/900/randomdotsizeEA/R/6_Ratio_900_L_9_R_10.png","img/750/equaldotanddens/L/8_Ratio_750_L_4_R_3.png","img/750/randomdotsizeEA/R/2_Ratio_750_L_6_R_8.png","img/750/randomdotsizeEA/L/8_Ratio_750_L_4_R_3.png","img/500/equaldotanddens/L/11_Ratio_500_L_12_R_6.png","img/250/equaldotanddens/R/8_Ratio_250_L_1_R_4.png","img/750/equaldotsize/R/2_Ratio_750_L_6_R_8.png","img/900/randomdotsizeEA/L/2_Ratio_900_L_20_R_18.png","img/750/randomdotsizeEA/L/6_Ratio_750_L_24_R_18.png","img/750/equaldotanddens/R/12_Ratio_750_L_3_R_4.png","img/500/equaldotsize/L/5_Ratio_500_L_4_R_2.png","img/500/randomdotsizeEA/L/5_Ratio_500_L_4_R_2.png","img/900/equaldotanddens/R/6_Ratio_900_L_9_R_10.png","img/750/equaldotanddens/L/1_Ratio_750_L_20_R_15.png","img/750/randomdotsizeEA/L/13_Ratio_750_L_8_R_6.png","img/900/randomdotsizeEA/L/8_Ratio_900_L_20_R_18.png","img/250/randomdotsizeEA/L/14_Ratio_250_L_12_R_3.png","img/750/equaldotsize/L/9_Ratio_750_L_4_R_3.png","img/250/equaldotsize/R/9_Ratio_250_L_3_R_12.png","img/750/randomdotsizeEA/R/3_Ratio_750_L_15_R_20.png","img/500/equaldotanddens/R/2_Ratio_500_L_3_R_6.png","img/500/equaldotanddens/L/5_Ratio_500_L_4_R_2.png","img/900/equaldotanddens/R/3_Ratio_900_L_9_R_10.png","img/750/equaldotsize/R/7_Ratio_750_L_3_R_4.png","img/900/randomdotsizeEA/R/7_Ratio_900_L_9_R_10.png","img/750/equaldotsize/R/12_Ratio_750_L_3_R_4.png","img/500/randomdotsizeEA/L/7_Ratio_500_L_10_R_5.png","img/500/equaldotsize/R/12_Ratio_500_L_1_R_2.png","img/250/randomdotsizeEA/R/13_Ratio_250_L_2_R_8.png","img/750/equaldotanddens/R/5_Ratio_750_L_15_R_20.png","img/900/equaldotanddens/R/7_Ratio_900_L_9_R_10.png","img/250/equaldotanddens/L/3_Ratio_250_L_8_R_2.png","img/500/randomdotsizeEA/R/1_Ratio_500_L_9_R_18.png","img/250/equaldotsize/L/3_Ratio_250_L_8_R_2.png","img/900/randomdotsizeEA/L/8_Ratio_900_L_20_R_18.png","img/500/equaldotsize/R/2_Ratio_500_L_3_R_6.png","img/250/equaldotanddens/L/2_Ratio_250_L_16_R_4.png","img/900/randomdotsizeEA/R/3_Ratio_900_L_9_R_10.png","img/250/randomdotsizeEA/R/10_Ratio_250_L_4_R_16.png","img/750/randomdotsizeEA/R/15_Ratio_750_L_9_R_12.png","img/500/equaldotsize/L/13_Ratio_500_L_12_R_6.png","img/900/equaldotanddens/L/8_Ratio_900_L_20_R_18.png","img/250/equaldotsize/R/12_Ratio_250_L_5_R_20.png","img/500/equaldotanddens/R/3_Ratio_500_L_10_R_20.png","img/900/equaldotanddens/L/8_Ratio_900_L_20_R_18.png","img/750/equaldotsize/R/12_Ratio_750_L_3_R_4.png","img/250/equaldotsize/R/12_Ratio_250_L_5_R_20.png","img/250/equaldotanddens/R/10_Ratio_250_L_4_R_16.png","img/750/equaldotsize/R/5_Ratio_750_L_15_R_20.png","img/500/equaldotsize/L/13_Ratio_500_L_12_R_6.png","img/250/equaldotanddens/L/15_Ratio_250_L_12_R_3.png","img/900/equaldotsize/L/10_Ratio_900_L_20_R_18.png"],"Rat0":[["12_Ratio_0_L_9_R_0.png","13_Ratio_0_L_6_R_0.png","5_Ratio_0_L_2_R_0.png","6_Ratio_0_L_4_R_0.png","8_Ratio_0_L_6_R_0.png"],["1_Ratio_0_L_0_R_17.png","10_Ratio_0_L_0_R_22.png","11_Ratio_0_L_0_R_1.png","14_Ratio_0_L_0_R_24.png","15_Ratio_0_L_0_R_4.png","2_Ratio_0_L_0_R_5.png","3_Ratio_0_L_0_R_17.png","4_Ratio_0_L_0_R_7.png","7_Ratio_0_L_0_R_19.png","9_Ratio_0_L_0_R_15.png"]],"Rat250":[["1_Ratio_250_L_8_R_2.png","14_Ratio_250_L_12_R_3.png","15_Ratio_250_L_12_R_3.png","2_Ratio_250_L_16_R_4.png","3_Ratio_250_L_8_R_2.png","5_Ratio_250_L_24_R_6.png","7_Ratio_250_L_8_R_2.png"],["10_Ratio_250_L_4_R_16.png","11_Ratio_250_L_3_R_12.png","12_Ratio_250_L_5_R_20.png","13_Ratio_250_L_2_R_8.png","4_Ratio_250_L_3_R_12.png","6_Ratio_250_L_6_R_24.png","8_Ratio_250_L_1_R_4.png","9_Ratio_250_L_3_R_12.png"]],"Rat500":[["10_Ratio_500_L_4_R_2.png","11_Ratio_500_L_12_R_6.png","13_Ratio_500_L_12_R_6.png","4_Ratio_500_L_18_R_9.png","5_Ratio_500_L_4_R_2.png","7_Ratio_500_L_10_R_5.png","8_Ratio_500_L_8_R_4.png"],["1_Ratio_500_L_9_R_18.png","12_Ratio_500_L_1_R_2.png","14_Ratio_500_L_5_R_10.png","15_Ratio_500_L_1_R_2.png","2_Ratio_500_L_3_R_6.png","3_Ratio_500_L_10_R_20.png","6_Ratio_500_L_9_R_18.png","9_Ratio_500_L_2_R_4.png"]],"Rat750":[["1_Ratio_750_L_20_R_15.png","10_Ratio_750_L_4_R_3.png","13_Ratio_750_L_8_R_6.png","14_Ratio_750_L_8_R_6.png","6_Ratio_750_L_24_R_18.png","8_Ratio_750_L_4_R_3.png","9_Ratio_750_L_4_R_3.png"],["11_Ratio_750_L_12_R_16.png","12_Ratio_750_L_3_R_4.png","15_Ratio_750_L_9_R_12.png","2_Ratio_750_L_6_R_8.png","3_Ratio_750_L_15_R_20.png","4_Ratio_750_L_15_R_20.png","5_Ratio_750_L_15_R_20.png","7_Ratio_750_L_3_R_4.png"]],"Rat900":[["1_Ratio_900_L_10_R_9.png","10_Ratio_900_L_20_R_18.png","2_Ratio_900_L_20_R_18.png","4_Ratio_900_L_20_R_18.png","8_Ratio_900_L_20_R_18.png"],["11_Ratio_900_L_18_R_20.png","12_Ratio_900_L_18_R_20.png","13_Ratio_900_L_18_R_20.png","14_Ratio_900_L_18_R_20.png","15_Ratio_900_L_9_R_10.png","3_Ratio_900_L_9_R_10.png","5_Ratio_900_L_9_R_10.png","6_Ratio_900_L_9_R_10.png","7_Ratio_900_L_9_R_10.png","9_Ratio_900_L_18_R_20.png"]],"Rat1000":[["10_Ratio_1000_L_16_R_16.png","11_Ratio_1000_L_6_R_6.png","12_Ratio_1000_L_14_R_14.png","13_Ratio_1000_L_20_R_20.png","15_Ratio_1000_L_15_R_15.png","2_Ratio_1000_L_17_R_17.png","4_Ratio_1000_L_9_R_9.png","5_Ratio_1000_L_6_R_6.png","6_Ratio_1000_L_19_R_19.png","8_Ratio_1000_L_14_R_14.png","9_Ratio_1000_L_25_R_25.png"],["1_Ratio_1000_L_1_R_1.png","14_Ratio_1000_L_17_R_17.png","3_Ratio_1000_L_17_R_17.png","7_Ratio_1000_L_6_R_6.png"]]}},{"start_time":1551801275046,"click_time":1551801276117,"finger_time":1551801275898,"fix_duration":1187.0208150115802,"trial":1,"RT":852,"MT":219,"sideResp":2,"stimulus":"img/500/randomdotsizeEA/L/5_Ratio_500_L_4_R_2.png","xmouse":[800,800,800,800,800,800,800,800,800,800,800,800,800,800,800,800,800,800,800,800,800,800,800,800,800,800,800,800,800,800,800,800,800,800,800,800,800,800,799,801,802,813,816,831,841,873,919,954,978,993,1007,1033,1055,1066],"ymouse":[483,483,483,483,483,483,483,483,483,483,483,483,483,483,483,483,483,483,483,483,483,483,483,483,483,483,483,483,483,483,483,483,483,483,483,483,483,483,473,467,465,444,440,423,413,381,330,276,240,212,187,141,106,84],"timestamp_mouse":[12,32,52,71,92,111,131,151,171,192,212,231,252,271,291,311,331,351,371,391,411,431,451,472,491,511,531,551,572,592,612,632,653,673,692,711,731,751,771,792,811,831,852,871,892,912,931,951,971,991,1011,1031,1052,1071],"xSR":737,"ySR":442.65000000000003,"xT1":422.2,"yT1":0,"xT2":1051.8,"yT2":0,"toosoon":0,"cond_shown":"randomdotsizeEA","ratio_trial":500,"smaller_num":"2","larger_num":"4","correct_side":1,"subjID":"MariaPaulaMorianoSalcedo11","gender":"1","age":"11","school":"6"},{"start_time":1551801279266,"click_time":1551801280517,"finger_time":1551801279937,"fix_duration":427.37691673890333,"trial":2,"RT":671,"MT":580,"sideResp":1,"stimulus":"img/900/equaldotanddens/L/1_Ratio_900_L_10_R_9.png","xmouse":[792,792,792,792,792,792,792,792,792,792,792,792,792,792,792,792,792,792,792,792,792,792,792,792,792,792,792,792,792,792,792,793,793,791,789,766,764,754,752,751,725,717,714,712,710,691,681,661,644,623,586,572,556,554,554,550,548,548,547,545,537,526,519],"ymouse":[455,455,455,455,455,455,455,455,455,455,455,455,455,455,455,455,455,455,455,455,455,455,455,455,455,455,455,455,455,455,455,452,448,436,430,387,385,364,361,360,329,320,317,314,311,288,280,263,248,235,201,186,167,165,165,158,154,154,153,147,126,104,90],"timestamp_mouse":[12,42,51,72,91,111,131,151,171,192,211,231,251,271,291,312,331,351,371,391,411,431,452,471,492,511,531,552,571,591,611,631,651,671,691,710,731,751,771,792,811,832,852,871,891,912,930,951,971,991,1012,1032,1051,1071,1091,1111,1131,1151,1172,1191,1212,1232,1251],"xSR":737,"ySR":442.65000000000003,"xT1":422.2,"yT1":0,"xT2":1051.8,"yT2":0,"toosoon":0,"cond_shown":"equaldotanddens","ratio_trial":900,"smaller_num":"9","larger_num":"10","correct_side":1,"subjID":"MariaPaulaMorianoSalcedo11","gender":"1","age":"11","school":"6"},{"start_time":1551801282269,"click_time":1551801283778,"finger_time":1551801283197,"fix_duration":250,"trial":3,"RT":928,"MT":581,"sideResp":2,"stimulus":"img/500/equaldotsize/R/9_Ratio_500_L_2_R_4.png","xmouse":[765,765,765,765,765,765,765,765,765,765,765,765,765,765,765,765,765,765,765,765,765,766,766,766,766,766,766,766,766,766,766,766,766,766,766,766,766,766,766,768,772,777,777,777,777,789,799,800,821,846,852,853,853,853,853,857,857,861,866,875,896,900,900,901,918,952,954,962,975,988,1006,1010,1021,1036,1048,1063],"ymouse":[474,474,474,474,474,474,474,474,474,474,474,474,474,474,474,474,474,473,473,473,473,473,472,472,472,472,472,472,472,472,472,472,472,472,472,472,472,472,472,471,466,456,456,456,456,447,440,440,423,401,395,393,393,381,376,353,352,338,324,304,276,270,269,268,248,211,208,196,178,164,139,134,124,108,95,73],"timestamp_mouse":[9,39,48,68,88,109,128,148,168,188,208,228,248,269,289,308,328,348,368,388,408,428,448,468,488,508,528,548,569,588,608,628,648,668,688,708,728,748,768,788,808,828,848,868,888,909,928,948,968,988,1008,1027,1048,1067,1087,1108,1128,1148,1167,1188,1208,1228,1248,1269,1289,1308,1328,1348,1368,1389,1409,1429,1449,1468,1488,1509],"xSR":737,"ySR":442.65000000000003,"xT1":422.2,"yT1":0,"xT2":1051.8,"yT2":0,"toosoon":0,"cond_shown":"equaldotsize","ratio_trial":500,"smaller_num":"2","larger_num":"4","correct_side":2,"subjID":"MariaPaulaMorianoSalcedo11","gender":"1","age":"11","school":"6"},{"start_time":1551801286879,"click_time":1551801288437,"finger_time":1551801287837,"fix_duration":1161.4241636260695,"trial":4,"RT":958,"MT":600,"sideResp":2,"stimulus":"img/750/equaldotsize/R/7_Ratio_750_L_3_R_4.png","xmouse":[789,789,789,789,789,789,789,789,789,789,789,789,789,789,789,789,789,789,789,789,789,789,789,789,789,789,789,789,789,789,789,789,789,789,789,789,789,789,789,789,791,791,791,814,823,829,832,853,874,878,874,869,869,867,854,847,847,852,866,886,897,909,914,919,932,945,961,981,996,999,1000,1001,1001,1001,1029,1046,1055,1056],"ymouse":[510,510,510,510,510,510,510,510,510,510,510,510,510,510,510,510,510,510,510,510,510,510,510,510,510,510,510,510,510,510,510,510,510,510,510,510,510,510,510,510,508,508,508,493,483,478,477,466,451,442,433,425,425,423,412,402,391,383,366,345,326,308,298,276,242,219,194,170,153,149,146,145,145,145,121,109,100,97],"timestamp_mouse":[18,38,63,79,98,119,139,159,178,199,218,238,258,278,299,318,338,359,379,399,419,438,459,478,499,520,537,558,578,598,618,639,658,678,698,718,738,758,778,798,819,839,858,879,899,918,938,958,979,998,1018,1038,1059,1078,1098,1117,1138,1158,1179,1198,1218,1238,1259,1278,1298,1318,1338,1358,1378,1399,1418,1439,1459,1478,1498,1517,1538,1558],"xSR":737,"ySR":442.65000000000003,"xT1":422.2,"yT1":0,"xT2":1051.8,"yT2":0,"toosoon":0,"cond_shown":"equaldotsize","ratio_trial":750,"smaller_num":"3","larger_num":"4","correct_side":2,"subjID":"MariaPaulaMorianoSalcedo11","gender":"1","age":"11","school":"6"},{"start_time":1551801290129,"click_time":1551801291377,"finger_time":1551801290997,"fix_duration":250,"trial":5,"RT":868,"MT":380,"sideResp":2,"stimulus":"img/250/equaldotanddens/R/10_Ratio_250_L_4_R_16.png","xmouse":[817,817,817,817,817,817,817,817,817,816,815,814,812,812,811,809,808,807,806,805,805,805,805,805,805,805,805,805,805,805,805,805,805,805,805,805,805,805,805,805,805,804,810,821,823,830,841,878,908,940,974,1019,1019,1019,1019,1019,1019,1019,1019,1019,1019,1019,1082],"ymouse":[473,473,473,473,473,473,473,473,473,473,473,473,473,473,473,473,473,473,473,473,473,473,473,473,473,473,473,473,473,473,473,473,473,473,473,473,473,473,473,473,473,472,445,414,404,363,334,269,209,146,87,10,10,10,10,10,10,10,10,10,10,10,4],"timestamp_mouse":[8,32,48,69,89,110,128,149,168,188,208,228,247,269,288,309,329,349,368,389,408,428,448,468,489,508,528,549,568,588,609,628,648,668,688,708,729,749,768,789,808,827,848,868,888,908,928,948,968,988,1008,1028,1049,1068,1088,1108,1128,1149,1168,1189,1209,1228,1248],"xSR":737,"ySR":442.65000000000003,"xT1":422.2,"yT1":0,"xT2":1051.8,"yT2":0,"toosoon":0,"cond_shown":"equaldotanddens","ratio_trial":250,"smaller_num":"4","larger_num":"16","correct_side":2,"subjID":"MariaPaulaMorianoSalcedo11","gender":"1","age":"11","school":"6"},{"start_time":1551801294489,"click_time":1551801296097,"finger_time":1551801295597,"fix_duration":890.5250957575536,"trial":6,"RT":1108,"MT":500,"sideResp":1,"stimulus":"img/900/equaldotsize/L/2_Ratio_900_L_20_R_18.png","xmouse":[766,766,766,766,766,766,766,766,766,766,766,766,766,766,769,771,773,773,774,774,774,774,774,774,774,774,774,774,774,774,774,774,774,774,774,774,774,774,774,774,774,774,774,774,774,774,774,774,774,774,774,776,779,778,738,679,658,565,503,430,392,392,392,392,392,392,392,392,392,392,392,392,392,392,392,392,392,392,392,392,445],"ymouse":[519,519,519,519,519,519,519,519,519,519,519,519,519,519,517,510,506,505,504,504,504,504,504,504,504,504,504,504,504,504,504,504,504,504,504,504,504,504,504,504,504,504,504,504,504,504,504,504,504,504,504,503,500,493,464,431,414,350,284,124,9,9,9,9,9,9,9,9,9,9,9,9,9,9,9,9,9,9,9,9,4],"timestamp_mouse":[8,37,48,69,88,108,128,149,169,188,209,228,248,268,288,308,328,348,368,388,409,428,448,469,488,508,528,549,568,589,608,628,649,668,688,709,728,749,769,788,808,829,849,869,889,909,929,948,968,988,1010,1028,1049,1068,1088,1108,1128,1148,1169,1188,1208,1228,1249,1268,1289,1308,1329,1348,1368,1388,1408,1429,1448,1469,1488,1509,1528,1548,1569,1589,1608],"xSR":737,"ySR":442.65000000000003,"xT1":422.2,"yT1":0,"xT2":1051.8,"yT2":0,"toosoon":0,"cond_shown":"equaldotsize","ratio_trial":900,"smaller_num":"18","larger_num":"20","correct_side":1,"subjID":"MariaPaulaMorianoSalcedo11","gender":"1","age":"11","school":"6"},{"start_time":1551801299201,"click_time":1551801300518,"finger_time":1551801300018,"fix_duration":702.3734271139247,"trial":7,"RT":817,"MT":500,"sideResp":2,"stimulus":"img/750/equaldotanddens/R/12_Ratio_750_L_3_R_4.png","xmouse":[802,802,802,802,802,802,802,802,802,802,802,802,802,802,802,802,802,802,802,802,802,802,802,802,802,802,802,802,802,802,802,802,802,802,802,802,802,802,807,830,884,893,923,937,941,950,961,966,1001,1010,1014,1017,1017,1017,1017,1022,1024,1024,1025,1025,1025,1025,1036,1048,1048,1064],"ymouse":[496,496,496,496,496,496,496,496,496,496,496,496,496,496,496,496,496,496,496,496,496,496,496,496,496,496,496,496,496,496,496,496,496,496,496,496,496,495,489,463,394,381,313,260,248,228,208,204,189,183,180,177,176,174,173,160,152,151,125,109,108,108,94,80,80,66],"timestamp_mouse":[16,39,56,76,96,116,136,156,176,196,217,236,256,276,296,317,336,356,375,397,416,436,456,476,496,517,537,556,576,596,616,636,656,676,696,716,736,756,777,796,817,836,856,876,896,916,937,956,976,996,1016,1037,1057,1076,1097,1116,1136,1157,1176,1197,1216,1236,1257,1276,1297,1317],"xSR":737,"ySR":442.65000000000003,"xT1":422.2,"yT1":0,"xT2":1051.8,"yT2":0,"toosoon":0,"cond_shown":"equaldotanddens","ratio_trial":750,"smaller_num":"3","larger_num":"4","correct_side":2,"subjID":"MariaPaulaMorianoSalcedo11","gender":"1","age":"11","school":"6"},{"start_time":1551801305249,"click_time":1551801306678,"finger_time":1551801305837,"fix_duration":1470.8478828303414,"trial":8,"RT":588,"MT":841,"sideResp":2,"stimulus":"img/500/randomdotsizeEA/L/11_Ratio_500_L_12_R_6.png","xmouse":[775,775,775,775,775,775,775,775,775,775,775,775,775,775,775,775,775,775,775,775,775,775,775,777,778,781,782,783,784,788,797,833,873,874,886,886,902,902,910,918,926,949,949,949,949,950,950,968,968,976,991,1001,1004,1014,1032,1032,1033,1035,1036,1036,1036,1036,1036,1036,1036,1036,1037,1038,1040,1042,1047,1057],"ymouse":[461,460,460,460,460,460,460,460,460,460,460,460,460,460,460,460,460,460,460,460,460,460,459,457,455,453,451,449,447,442,432,387,316,315,289,289,251,250,236,222,213,192,192,192,192,191,191,186,185,180,168,149,140,123,96,95,94,89,79,76,73,72,72,72,72,71,71,70,70,70,70,67],"timestamp_mouse":[8,41,48,68,89,109,128,149,168,188,209,229,248,268,288,308,328,349,368,388,409,428,448,467,488,508,528,548,568,588,609,628,648,668,688,708,727,749,768,788,808,828,849,868,888,909,929,948,969,989,1009,1028,1048,1068,1089,1108,1129,1149,1168,1188,1208,1229,1248,1269,1289,1308,1328,1349,1368,1388,1407,1429],"xSR":737,"ySR":442.65000000000003,"xT1":422.2,"yT1":0,"xT2":1051.8,"yT2":0,"toosoon":0,"cond_shown":"randomdotsizeEA","ratio_trial":500,"smaller_num":"6","larger_num":"12","correct_side":1,"subjID":"MariaPaulaMorianoSalcedo11","gender":"1","age":"11","school":"6"},{"start_time":1551801308929,"click_time":1551801310397,"finger_time":1551801309637,"fix_duration":250,"trial":9,"RT":708,"MT":760,"sideResp":1,"stimulus":"img/500/equaldotsize/L/8_Ratio_500_L_8_R_4.png","xmouse":[802,802,802,802,802,802,802,802,802,802,802,802,802,802,802,802,802,802,802,802,802,802,802,802,802,802,802,802,802,802,802,802,802,802,806,810,810,810,811,811,811,811,811,811,811,811,811,811,811,811,811,811,811,811,811,811,808,806,770,754,721,688,632,621,610,599,588,568,559,553,549,541,520,504],"ymouse":[458,458,458,458,458,458,458,458,458,458,458,458,458,458,458,458,458,458,458,458,458,458,458,458,458,458,458,458,458,458,458,458,458,458,451,442,439,439,436,434,433,432,432,432,432,432,432,432,432,432,432,432,432,432,429,429,422,420,368,349,315,285,243,234,219,203,184,160,153,148,145,134,104,87],"timestamp_mouse":[9,32,49,68,89,109,128,149,168,188,208,228,248,268,289,309,328,348,369,389,408,428,448,468,489,508,528,549,568,589,609,629,648,667,689,708,729,748,768,788,808,829,848,868,889,908,928,949,969,988,1008,1028,1048,1068,1088,1108,1129,1149,1168,1187,1208,1228,1248,1269,1288,1308,1328,1349,1367,1388,1408,1428,1448,1468],"xSR":737,"ySR":442.65000000000003,"xT1":422.2,"yT1":0,"xT2":1051.8,"yT2":0,"toosoon":0,"cond_shown":"equaldotsize","ratio_trial":500,"smaller_num":"4","larger_num":"8","correct_side":1,"subjID":"MariaPaulaMorianoSalcedo11","gender":"1","age":"11","school":"6"},{"start_time":1551801312766,"click_time":1551801314298,"finger_time":1551801313777,"fix_duration":1467.2416564496114,"trial":10,"RT":1011,"MT":521,"sideResp":1,"stimulus":"img/900/randomdotsizeEA/R/5_Ratio_900_L_9_R_10.png","xmouse":[820,820,820,820,820,820,820,820,820,820,820,820,820,820,820,820,820,820,820,820,820,820,820,820,820,820,820,820,820,820,820,820,820,820,820,820,820,820,820,820,820,820,820,820,820,813,813,813,807,796,753,741,728,720,709,697,687,665,647,634,618,612,605,594,581,543,521,516,516,516,515,514,509,507,506,505,504],"ymouse":[491,491,491,491,491,491,491,491,491,491,491,491,491,491,491,491,491,491,491,491,491,491,491,491,491,491,491,491,491,491,491,491,491,491,491,491,491,491,491,491,491,491,491,491,491,487,487,487,480,466,402,383,361,349,334,318,302,264,234,214,193,184,177,167,156,129,116,113,113,113,112,111,107,104,101,100,99],"timestamp_mouse":[11,44,52,71,91,111,131,151,171,191,211,231,252,271,291,311,332,352,371,391,411,431,451,471,492,511,531,551,571,591,611,631,652,671,691,711,731,751,772,792,811,831,851,871,892,911,931,952,972,991,1011,1031,1051,1071,1091,1111,1131,1151,1173,1192,1211,1232,1251,1271,1292,1311,1331,1351,1371,1393,1411,1430,1451,1471,1491,1511,1532],"xSR":737,"ySR":442.65000000000003,"xT1":422.2,"yT1":0,"xT2":1051.8,"yT2":0,"toosoon":0,"cond_shown":"randomdotsizeEA","ratio_trial":900,"smaller_num":"9","larger_num":"10","correct_side":2,"subjID":"MariaPaulaMorianoSalcedo11","gender":"1","age":"11","school":"6"},{"start_time":1551801318503,"click_time":1551801319958,"finger_time":1551801319377,"fix_duration":924.5480814973114,"trial":11,"RT":874,"MT":581,"sideResp":1,"stimulus":"img/900/randomdotsizeEA/R/5_Ratio_900_L_9_R_10.png","xmouse":[810,810,810,810,810,810,810,810,810,810,810,810,810,810,810,810,810,810,810,810,810,810,810,810,810,810,810,810,810,810,810,810,810,810,810,810,810,810,810,810,809,808,782,701,689,658,643,638,637,639,643,646,649,650,640,618,603,594,591,588,583,578,575,560,551,548,544,538,530,529,529,527,522],"ymouse":[478,478,478,478,478,478,478,478,478,478,478,478,478,478,478,478,478,478,478,478,478,478,478,478,478,478,478,478,478,478,478,478,478,478,478,478,478,478,478,478,478,478,462,415,407,383,369,364,354,332,312,292,267,185,138,80,49,36,30,27,24,23,23,23,25,26,27,30,34,35,35,36,38],"timestamp_mouse":[15,34,54,74,95,116,134,155,175,194,214,235,254,274,295,314,333,354,375,394,415,435,454,474,494,514,534,555,575,594,614,634,654,674,694,715,734,755,774,794,814,834,854,874,893,914,934,955,974,995,1014,1034,1054,1074,1093,1115,1134,1154,1173,1195,1213,1234,1255,1274,1293,1314,1335,1355,1374,1394,1414,1434,1455],"xSR":737,"ySR":442.65000000000003,"xT1":422.2,"yT1":0,"xT2":1051.8,"yT2":0,"toosoon":0,"cond_shown":"randomdotsizeEA","ratio_trial":900,"smaller_num":"9","larger_num":"10","correct_side":2,"subjID":"MariaPaulaMorianoSalcedo11","gender":"1","age":"11","school":"6"},{"start_time":1551801325238,"click_time":1551801326398,"finger_time":1551801326017,"fix_duration":1239.7466994271217,"trial":12,"RT":779,"MT":381,"sideResp":2,"stimulus":"img/750/equaldotanddens/R/3_Ratio_750_L_15_R_20.png","xmouse":[768,768,768,768,768,768,768,768,768,768,768,768,768,768,768,768,768,768,768,768,768,768,768,768,768,768,768,768,768,768,768,768,768,768,768,768,775,799,831,876,920,948,966,962,957,951,941,937,943,951,952,958,961,968,979,997,1019,1037,1065],"ymouse":[443,443,443,443,446,463,480,502,505,506,506,506,506,506,506,506,506,506,506,506,506,506,506,506,506,506,506,506,506,506,506,506,506,506,506,506,506,497,475,442,408,381,334,299,290,268,237,185,158,129,127,113,99,76,65,52,40,32,23],"timestamp_mouse":[1,19,39,59,79,100,119,139,159,180,199,219,239,260,280,299,319,339,359,379,399,419,439,460,479,498,520,539,559,580,599,619,639,659,680,699,719,739,759,779,799,819,839,859,879,900,919,939,959,980,999,1020,1039,1059,1079,1099,1119,1139,1160],"xSR":737,"ySR":442.65000000000003,"xT1":422.2,"yT1":0,"xT2":1051.8,"yT2":0,"toosoon":0,"cond_shown":"equaldotanddens","ratio_trial":750,"smaller_num":"15","larger_num":"20","correct_side":2,"subjID":"MariaPaulaMorianoSalcedo11","gender":"1","age":"11","school":"6"},{"start_time":1551801328844,"click_time":1551801330077,"finger_time":1551801329676,"fix_duration":1305.434262892282,"trial":13,"RT":832,"MT":401,"sideResp":1,"stimulus":"img/500/equaldotanddens/L/11_Ratio_500_L_12_R_6.png","xmouse":[799,799,799,799,799,799,799,799,799,799,799,799,799,799,799,799,799,799,799,799,799,799,799,799,799,799,799,799,799,799,799,799,799,799,799,799,799,799,799,795,792,717,551,433,337,291,285,285,285,284,275,262,262,264,268,274,305,332,358,386,404,423],"ymouse":[490,490,490,490,490,490,490,490,490,490,490,490,490,490,490,490,490,490,490,490,490,490,490,490,490,490,490,490,490,490,490,490,490,490,490,490,490,490,490,489,486,413,293,222,165,128,121,116,107,93,76,46,40,36,34,33,32,34,41,50,58,62],"timestamp_mouse":[14,34,53,72,94,113,133,153,173,193,213,233,253,274,293,313,333,353,373,393,413,433,453,474,493,513,533,553,573,594,613,633,653,673,694,713,733,753,773,793,814,832,853,873,893,913,933,952,974,993,1013,1033,1054,1073,1094,1113,1133,1153,1173,1194,1214,1233],"xSR":737,"ySR":442.65000000000003,"xT1":422.2,"yT1":0,"xT2":1051.8,"yT2":0,"toosoon":0,"cond_shown":"equaldotanddens","ratio_trial":500,"smaller_num":"6","larger_num":"12","correct_side":1,"subjID":"MariaPaulaMorianoSalcedo11","gender":"1","age":"11","school":"6"},{"start_time":1551801332283,"click_time":1551801333677,"finger_time":1551801332977,"fix_duration":803.8545579880811,"trial":14,"RT":694,"MT":700,"sideResp":2,"stimulus":"img/750/equaldotanddens/R/3_Ratio_750_L_15_R_20.png","xmouse":[820,820,820,820,820,820,820,820,820,821,821,821,821,821,821,821,821,821,821,821,821,821,821,821,821,821,821,821,821,821,821,822,829,834,864,869,872,887,894,898,912,913,915,915,920,929,938,941,953,994,1000,1002,1004,1006,1011,1015,1015,1015,1015,1015,1016,1018,1023,1035,1035,1040,1041,1046,1055,1065],"ymouse":[471,471,471,469,466,465,465,464,464,462,462,462,461,461,461,461,461,461,461,461,461,461,461,461,461,461,461,461,461,461,461,459,452,449,415,411,409,394,385,381,356,354,347,344,325,305,288,282,267,203,187,171,155,142,133,129,129,129,129,129,128,126,123,117,117,116,115,111,107,98],"timestamp_mouse":[15,34,54,74,94,115,135,155,175,194,214,235,254,274,294,314,335,354,375,394,415,434,454,474,495,514,534,555,574,595,614,634,654,674,694,714,734,754,774,794,815,833,855,876,894,915,934,954,974,994,1014,1035,1055,1075,1094,1114,1135,1154,1175,1195,1214,1235,1255,1274,1294,1314,1334,1354,1374,1394],"xSR":737,"ySR":442.65000000000003,"xT1":422.2,"yT1":0,"xT2":1051.8,"yT2":0,"toosoon":0,"cond_shown":"equaldotanddens","ratio_trial":750,"smaller_num":"15","larger_num":"20","correct_side":2,"subjID":"MariaPaulaMorianoSalcedo11","gender":"1","age":"11","school":"6"},{"start_time":1551801336053,"click_time":1551801338937,"finger_time":1551801336577,"fix_duration":634.4517290601142,"trial":15,"RT":524,"MT":2360,"sideResp":1,"stimulus":"img/250/randomdotsizeEA/R/10_Ratio_250_L_4_R_16.png","xmouse":[771,771,771,771,771,771,771,768,765,762,760,759,759,759,759,759,759,759,759,759,759,759,757,756,756,756,756,756,756,756,756,756,756,756,756,756,756,756,756,756,756,756,756,756,756,756,756,756,756,756,756,756,759,772,790,802,817,824,831,842,873,876,877,877,877,877,882,882,882,882,882,882,850,821,786,765,714,711,707,705,701,689,669,651,635,623,606,600,590,585,574,555,543,537,533,530,529,529,529,529,529,529,529,529,529,529,529,529,529,529,534,567,604,622,629,633,633,633,632,630,627,615,593,576,575,574,574,574,574,574,573,572,570,568,562,557,550,549,549,548,548,545,532,526,518],"ymouse":[526,526,526,526,526,526,526,529,530,533,535,536,536,536,536,536,536,536,536,533,528,515,497,486,475,452,431,431,431,431,431,431,431,431,431,431,431,431,431,431,431,431,431,431,431,431,431,431,429,427,422,421,414,406,395,385,364,352,342,328,292,286,267,257,244,229,217,217,217,217,217,217,217,217,217,218,225,226,226,226,226,226,215,202,188,175,158,154,148,147,145,140,132,125,117,113,112,112,112,112,112,112,112,112,112,112,112,112,112,112,111,108,108,107,105,104,103,99,94,88,83,77,74,71,71,71,71,71,71,71,71,71,71,71,71,71,73,73,73,74,74,76,81,84,87],"timestamp_mouse":[8,25,55,64,85,104,124,144,164,184,204,225,244,264,285,304,325,344,365,384,405,425,445,464,485,504,524,545,565,583,604,624,644,664,685,704,725,744,764,784,805,825,844,864,884,904,925,943,964,984,1005,1024,1044,1063,1084,1104,1124,1145,1164,1184,1204,1224,1244,1265,1284,1304,1324,1344,1365,1384,1404,1424,1444,1464,1484,1504,1524,1544,1564,1584,1604,1624,1644,1664,1684,1704,1723,1745,1764,1784,1805,1824,1844,1864,1885,1905,1924,1943,1964,1984,2005,2024,2044,2064,2084,2105,2124,2145,2164,2184,2204,2224,2245,2264,2285,2304,2324,2343,2364,2384,2405,2424,2444,2464,2485,2505,2524,2544,2564,2585,2604,2624,2644,2664,2684,2704,2724,2744,2764,2785,2805,2824,2844,2865,2884],"xSR":737,"ySR":442.65000000000003,"xT1":422.2,"yT1":0,"xT2":1051.8,"yT2":0,"toosoon":0,"cond_shown":"randomdotsizeEA","ratio_trial":250,"smaller_num":"4","larger_num":"16","correct_side":2,"subjID":"MariaPaulaMorianoSalcedo11","gender":"1","age":"11","school":"6"},{"start_time":1551801341611,"click_time":1551801343218,"finger_time":1551801342859,"fix_duration":932.6926728397264,"trial":16,"RT":1248,"MT":359,"sideResp":1,"stimulus":"img/500/randomdotsizeEA/L/4_Ratio_500_L_18_R_9.png","xmouse":[820,820,820,822,822,822,822,822,822,822,822,822,822,822,822,822,822,822,822,822,822,822,822,822,822,822,822,822,822,822,822,822,822,822,822,822,822,822,822,822,822,822,822,822,822,822,822,822,822,822,822,822,822,822,822,822,822,822,822,815,804,792,782,764,753,741,728,711,664,640,622,607,596,586,582,575,566,553,530,524,520],"ymouse":[509,510,510,510,510,510,510,510,510,510,510,510,510,510,510,510,510,510,510,510,510,510,510,510,510,510,510,510,510,510,510,510,510,510,510,510,510,510,510,510,510,510,510,510,510,510,510,510,510,510,510,510,510,510,510,510,510,510,510,491,469,449,429,393,375,362,344,323,260,231,211,194,181,166,155,141,126,109,84,78,75],"timestamp_mouse":[8,34,46,67,87,106,127,146,168,186,206,228,247,267,286,307,327,346,368,386,407,427,446,466,488,506,527,547,566,586,607,627,646,667,687,708,726,746,767,787,806,827,846,867,888,907,927,948,966,987,1007,1026,1047,1067,1086,1107,1127,1147,1167,1186,1208,1227,1248,1266,1287,1307,1327,1347,1366,1386,1406,1427,1447,1467,1487,1507,1526,1546,1566,1588,1607],"xSR":737,"ySR":442.65000000000003,"xT1":422.2,"yT1":0,"xT2":1051.8,"yT2":0,"toosoon":0,"cond_shown":"randomdotsizeEA","ratio_trial":500,"smaller_num":"9","larger_num":"18","correct_side":1,"subjID":"MariaPaulaMorianoSalcedo11","gender":"1","age":"11","school":"6"},{"start_time":1551801345022,"click_time":1551801346118,"finger_time":1551801345897,"fix_duration":703.423895455991,"trial":17,"RT":875,"MT":221,"sideResp":1,"stimulus":"img/900/equaldotsize/L/2_Ratio_900_L_20_R_18.png","xmouse":[812,812,812,812,812,812,812,812,812,812,812,812,812,812,812,812,812,812,812,812,812,812,812,812,812,812,812,812,812,812,812,812,812,812,812,812,812,812,812,812,812,811,780,703,653,622,614,614,614,614,614,614,580,541,518],"ymouse":[485,485,485,485,485,485,485,485,485,485,485,485,485,485,485,485,485,485,485,485,485,485,485,485,485,485,485,485,485,485,485,485,485,485,485,485,485,485,485,485,484,483,457,392,350,319,311,311,311,311,308,302,185,85,33],"timestamp_mouse":[15,37,56,76,96,116,136,156,175,196,216,235,257,276,297,316,335,356,377,395,417,437,456,476,495,516,536,555,576,597,617,636,656,675,696,717,735,755,777,795,816,837,855,875,895,916,935,956,976,996,1015,1036,1056,1075,1096],"xSR":737,"ySR":442.65000000000003,"xT1":422.2,"yT1":0,"xT2":1051.8,"yT2":0,"toosoon":0,"cond_shown":"equaldotsize","ratio_trial":900,"smaller_num":"18","larger_num":"20","correct_side":1,"subjID":"MariaPaulaMorianoSalcedo11","gender":"1","age":"11","school":"6"},{"start_time":1551801347609,"click_time":1551801349238,"finger_time":1551801348698,"fix_duration":290.790168451485,"trial":18,"RT":1089,"MT":540,"sideResp":2,"stimulus":"img/500/randomdotsizeEA/R/6_Ratio_500_L_9_R_18.png","xmouse":[809,809,809,809,809,809,809,809,809,809,809,809,809,809,809,809,809,809,808,808,808,808,808,808,808,808,808,808,808,808,808,808,808,808,808,808,808,808,808,808,808,808,808,808,808,808,808,810,815,821,823,825,827,836,853,873,900,919,961,982,1003,1037,1087,1235,1235,1235,1235,1235,1235,1235,1235,1235,1235,1235,1235,1235,1235,1235,1133,1133,1132,1131],"ymouse":[481,481,481,481,481,481,481,481,481,481,481,481,481,481,481,481,481,481,484,484,484,484,484,484,484,484,484,484,484,484,484,484,484,484,484,484,484,484,484,484,484,484,484,484,484,484,484,484,484,484,484,483,482,472,449,425,393,369,324,298,273,231,174,26,26,26,26,26,26,26,26,26,26,26,26,26,26,26,0,0,0,2],"timestamp_mouse":[8,37,50,68,88,108,129,148,168,188,208,230,248,269,289,309,328,349,369,389,408,428,449,470,488,509,529,549,569,589,609,629,650,668,689,710,728,750,769,789,810,829,849,869,890,910,930,949,969,989,1010,1028,1050,1068,1089,1108,1130,1149,1169,1188,1208,1228,1250,1269,1288,1308,1328,1348,1369,1389,1410,1429,1449,1468,1489,1509,1529,1548,1570,1589,1609,1629],"xSR":737,"ySR":442.65000000000003,"xT1":422.2,"yT1":0,"xT2":1051.8,"yT2":0,"toosoon":0,"cond_shown":"randomdotsizeEA","ratio_trial":500,"smaller_num":"9","larger_num":"18","correct_side":2,"subjID":"MariaPaulaMorianoSalcedo11","gender":"1","age":"11","school":"6"},{"start_time":1551801355584,"click_time":1551801356618,"finger_time":1551801356538,"fix_duration":1304.7135111314763,"trial":19,"RT":954,"MT":80,"sideResp":2,"stimulus":"img/900/equaldotsize/R/6_Ratio_900_L_9_R_10.png","xmouse":[760,760,760,760,760,760,760,760,760,760,760,760,760,760,760,760,760,760,760,760,760,760,760,760,760,760,760,760,760,760,760,760,760,760,760,760,760,760,760,760,760,760,760,760,765,774,790,823,872,978,1034,1082],"ymouse":[494,494,494,494,494,494,494,494,494,494,494,494,494,494,494,494,494,494,494,494,494,494,494,494,494,494,494,494,494,494,494,494,494,494,494,494,494,494,494,494,494,494,494,494,493,487,472,437,374,214,133,60],"timestamp_mouse":[14,39,54,75,93,113,134,153,174,193,213,233,253,273,293,314,334,353,374,394,415,434,454,474,494,513,535,554,573,594,614,634,653,673,694,714,733,754,775,793,814,834,854,873,894,914,933,954,974,993,1013,1033],"xSR":737,"ySR":442.65000000000003,"xT1":422.2,"yT1":0,"xT2":1051.8,"yT2":0,"toosoon":0,"cond_shown":"equaldotsize","ratio_trial":900,"smaller_num":"9","larger_num":"10","correct_side":2,"subjID":"MariaPaulaMorianoSalcedo11","gender":"1","age":"11","school":"6"},{"start_time":1551801358806,"click_time":1551801359958,"finger_time":1551801359499,"fix_duration":1126.7225476335398,"trial":20,"RT":693,"MT":459,"sideResp":2,"stimulus":"img/900/equaldotsize/L/8_Ratio_900_L_20_R_18.png","xmouse":[810,810,810,810,810,810,810,810,810,810,810,810,810,810,810,810,810,810,810,810,810,810,810,810,810,810,810,810,810,811,812,815,818,828,840,847,855,860,872,875,880,885,891,900,910,917,922,925,930,931,937,950,977,1033,1044,1051,1051,1052],"ymouse":[486,486,486,486,486,486,486,486,486,486,486,486,486,486,486,486,486,486,486,486,486,486,486,486,486,486,486,486,486,485,485,483,482,472,444,420,392,357,299,279,260,242,224,186,154,131,115,106,100,100,100,99,93,78,73,69,68,66],"timestamp_mouse":[12,39,52,71,92,113,132,152,172,193,211,232,251,271,291,311,331,351,372,392,411,433,451,471,492,511,533,551,571,592,611,632,652,671,693,711,732,751,772,792,812,831,853,871,893,911,932,952,972,992,1013,1031,1053,1071,1092,1111,1132,1152],"xSR":737,"ySR":442.65000000000003,"xT1":422.2,"yT1":0,"xT2":1051.8,"yT2":0,"toosoon":0,"cond_shown":"equaldotsize","ratio_trial":900,"smaller_num":"18","larger_num":"20","correct_side":1,"subjID":"MariaPaulaMorianoSalcedo11","gender":"1","age":"11","school":"6"},{"start_time":1551801362887,"click_time":1551801364298,"finger_time":1551801363798,"fix_duration":1346.9288314246567,"trial":21,"RT":911,"MT":500,"sideResp":1,"stimulus":"img/500/equaldotanddens/L/4_Ratio_500_L_18_R_9.png","xmouse":[800,800,800,800,800,800,800,800,800,800,800,801,801,801,801,801,801,801,801,801,801,801,801,801,801,801,801,801,801,801,801,801,801,801,801,801,801,801,801,796,790,787,783,778,769,764,757,745,734,707,697,683,667,652,626,615,607,601,596,573,562,558,557,557,555,554,554,551,546,527,515],"ymouse":[482,482,482,482,482,482,482,482,482,482,482,482,481,481,481,481,481,481,481,481,481,481,481,481,481,481,481,481,481,481,481,481,481,481,481,481,481,481,481,477,474,471,467,461,447,440,432,418,402,358,342,318,291,265,220,200,183,171,160,125,110,106,105,105,104,103,103,100,96,80,65],"timestamp_mouse":[12,36,51,70,91,112,130,150,171,191,212,230,250,270,291,311,330,352,370,392,411,432,452,470,491,510,531,550,572,591,611,631,651,671,690,712,732,751,771,791,811,830,851,870,890,911,930,950,970,991,1010,1030,1052,1071,1091,1110,1130,1150,1172,1190,1211,1231,1251,1271,1291,1311,1331,1350,1371,1390,1411],"xSR":737,"ySR":442.65000000000003,"xT1":422.2,"yT1":0,"xT2":1051.8,"yT2":0,"toosoon":0,"cond_shown":"equaldotanddens","ratio_trial":500,"smaller_num":"9","larger_num":"18","correct_side":1,"subjID":"MariaPaulaMorianoSalcedo11","gender":"1","age":"11","school":"6"},{"start_time":1551801366755,"click_time":1551801368077,"finger_time":1551801367738,"fix_duration":836.0695245947632,"trial":22,"RT":983,"MT":339,"sideResp":1,"stimulus":"img/900/equaldotanddens/L/1_Ratio_900_L_10_R_9.png","xmouse":[787,787,787,787,787,787,787,787,787,787,787,787,787,787,787,787,787,787,787,787,787,787,787,787,788,788,789,789,789,789,789,789,789,789,789,789,789,789,789,789,789,789,789,789,789,789,789,788,777,759,741,709,689,664,630,608,574,564,561,558,556,550,543,532,524,516,503],"ymouse":[465,465,465,465,465,465,465,465,465,465,465,465,465,465,465,465,465,465,465,465,465,465,465,465,465,465,465,465,465,465,465,465,465,465,465,465,465,465,465,465,465,465,465,465,465,465,465,463,454,435,409,351,317,277,230,201,166,154,147,143,140,132,125,116,110,101,86],"timestamp_mouse":[10,37,42,63,84,103,123,142,162,183,202,224,242,263,282,302,322,342,364,382,403,422,443,462,483,503,522,542,563,584,602,623,644,663,684,703,722,743,762,783,803,823,844,863,882,904,922,942,963,983,1003,1023,1043,1063,1082,1102,1122,1142,1163,1184,1202,1222,1244,1264,1282,1303,1322],"xSR":737,"ySR":442.65000000000003,"xT1":422.2,"yT1":0,"xT2":1051.8,"yT2":0,"toosoon":0,"cond_shown":"equaldotanddens","ratio_trial":900,"smaller_num":"9","larger_num":"10","correct_side":1,"subjID":"MariaPaulaMorianoSalcedo11","gender":"1","age":"11","school":"6"},{"start_time":1551801370475,"click_time":1551801372199,"finger_time":1551801371078,"fix_duration":1215.0325728961532,"trial":23,"RT":603,"MT":1121,"sideResp":2,"stimulus":"img/500/equaldotsize/R/14_Ratio_500_L_5_R_10.png","xmouse":[793,793,793,793,793,793,793,793,793,793,793,793,793,793,793,793,794,795,797,798,798,798,798,798,798,798,798,798,801,805,835,893,921,927,926,911,908,904,903,908,946,1047,1120,1158,1174,1179,1180,1180,1180,1182,1182,1182,1182,1182,1183,1183,1181,1179,1178,1177,1177,1177,1177,1177,1177,1177,1177,1177,1177,1177,1178,1179,1179,1179,1179,1179,1179,1179,1179,1179,1178,1177,1174,1168,1160,1152,1147],"ymouse":[464,464,464,464,464,464,464,464,464,464,464,464,464,464,464,464,464,464,465,465,465,465,465,465,465,465,465,465,465,463,430,362,319,291,274,251,243,234,230,217,185,156,146,143,142,142,141,141,141,141,141,141,141,141,140,136,132,127,124,122,115,109,105,102,98,91,87,84,80,78,69,68,67,67,67,66,66,66,66,65,65,65,65,63,61,58,58],"timestamp_mouse":[8,32,44,62,83,103,122,144,162,183,203,224,242,262,282,302,322,343,364,383,402,423,442,464,483,502,522,542,562,583,603,622,642,663,683,703,722,743,762,783,803,823,843,864,883,903,922,943,962,982,1003,1023,1042,1062,1084,1102,1123,1142,1162,1184,1202,1222,1243,1263,1282,1303,1322,1343,1362,1382,1402,1424,1442,1462,1482,1502,1523,1543,1564,1583,1602,1622,1642,1664,1682,1703,1723],"xSR":737,"ySR":442.65000000000003,"xT1":422.2,"yT1":0,"xT2":1051.8,"yT2":0,"toosoon":0,"cond_shown":"equaldotsize","ratio_trial":500,"smaller_num":"5","larger_num":"10","correct_side":2,"subjID":"MariaPaulaMorianoSalcedo11","gender":"1","age":"11","school":"6"},{"start_time":1551801374228,"click_time":1551801375098,"finger_time":1551801374938,"fix_duration":250,"trial":24,"RT":710,"MT":160,"sideResp":2,"stimulus":"img/250/equaldotanddens/R/11_Ratio_250_L_3_R_12.png","xmouse":[779,779,779,779,779,779,779,779,779,779,779,779,779,779,779,779,779,779,779,779,779,779,779,779,779,779,779,779,779,779,779,779,779,779,787,804,825,875,908,939,949,980,1060,1102],"ymouse":[460,460,460,460,460,460,460,460,460,460,460,460,460,460,460,460,460,460,460,460,460,460,460,460,460,460,460,460,460,460,460,460,460,459,451,434,413,351,306,267,254,214,130,92],"timestamp_mouse":[10,34,50,70,90,109,130,150,169,190,209,230,250,269,291,310,330,351,370,391,409,430,450,469,491,510,530,549,569,590,609,630,650,669,690,710,730,749,770,790,810,831,849,869],"xSR":737,"ySR":442.65000000000003,"xT1":422.2,"yT1":0,"xT2":1051.8,"yT2":0,"toosoon":0,"cond_shown":"equaldotanddens","ratio_trial":250,"smaller_num":"3","larger_num":"12","correct_side":2,"subjID":"MariaPaulaMorianoSalcedo11","gender":"1","age":"11","school":"6"},{"start_time":1551801376934,"click_time":1551801377877,"finger_time":1551801377597,"fix_duration":595.2967164782192,"trial":25,"RT":663,"MT":280,"sideResp":2,"stimulus":"img/250/randomdotsizeEA/R/4_Ratio_250_L_3_R_12.png","xmouse":[798,798,798,798,798,798,798,798,798,798,798,798,798,798,798,798,798,798,798,798,798,798,798,798,799,801,803,803,804,804,804,805,809,822,827,835,845,863,872,900,918,932,957,965,974,988,1015,1142],"ymouse":[501,501,501,501,501,501,501,501,501,501,501,501,501,501,501,501,501,501,501,501,501,501,501,501,499,497,495,494,493,493,492,489,477,442,423,403,380,338,319,282,262,243,213,203,192,177,156,78],"timestamp_mouse":[9,23,43,64,84,105,123,143,163,183,204,223,244,263,285,305,323,345,365,383,404,424,443,464,485,504,523,544,565,585,604,623,643,663,684,704,723,743,763,783,804,823,843,864,884,903,923,943],"xSR":737,"ySR":442.65000000000003,"xT1":422.2,"yT1":0,"xT2":1051.8,"yT2":0,"toosoon":0,"cond_shown":"randomdotsizeEA","ratio_trial":250,"smaller_num":"3","larger_num":"12","correct_side":2,"subjID":"MariaPaulaMorianoSalcedo11","gender":"1","age":"11","school":"6"},{"start_time":1551801379958,"click_time":1551801381618,"finger_time":1551801381058,"fix_duration":479.884222968362,"trial":26,"RT":1100,"MT":560,"sideResp":1,"stimulus":"img/900/equaldotanddens/L/10_Ratio_900_L_20_R_18.png","xmouse":[817,817,817,817,817,817,817,817,817,817,817,817,817,817,817,817,817,817,817,817,817,817,817,817,817,817,817,817,817,817,817,817,817,817,817,817,817,817,817,817,817,817,817,817,817,817,817,817,817,817,817,817,817,814,807,789,702,653,622,605,601,600,600,600,600,597,575,562,538,526,516,499,490,481,474,468,465,465,465,465,465,465,465,465],"ymouse":[455,455,455,455,455,455,455,455,455,455,455,455,455,455,455,455,455,455,455,455,455,455,455,455,455,455,455,455,455,455,455,455,455,455,455,455,455,455,455,455,455,455,455,455,455,455,455,455,455,455,455,455,455,455,451,438,395,375,360,351,347,346,346,346,346,342,304,281,245,225,209,180,166,149,137,127,122,121,121,121,121,111,102,95],"timestamp_mouse":[1,36,39,60,79,100,119,141,159,179,200,219,240,259,279,299,320,339,361,379,400,419,441,460,479,499,520,541,560,580,600,620,640,660,680,700,720,739,760,779,800,820,840,859,881,899,920,941,961,979,1001,1020,1039,1059,1079,1100,1120,1141,1160,1179,1199,1220,1240,1260,1280,1301,1319,1339,1360,1380,1399,1420,1439,1459,1479,1500,1519,1539,1560,1579,1599,1620,1640,1660],"xSR":737,"ySR":442.65000000000003,"xT1":422.2,"yT1":0,"xT2":1051.8,"yT2":0,"toosoon":0,"cond_shown":"equaldotanddens","ratio_trial":900,"smaller_num":"18","larger_num":"20","correct_side":1,"subjID":"MariaPaulaMorianoSalcedo11","gender":"1","age":"11","school":"6"},{"start_time":1551801382928,"click_time":1551801383977,"finger_time":1551801383558,"fix_duration":250,"trial":27,"RT":630,"MT":419,"sideResp":2,"stimulus":"img/250/randomdotsizeEA/R/13_Ratio_250_L_2_R_8.png","xmouse":[761,761,761,761,761,761,761,761,761,761,761,761,761,761,761,761,761,761,761,761,761,761,761,761,761,761,761,761,761,766,780,805,849,861,879,901,926,960,980,990,998,1004,1010,1010,1010,1010,1010,1010,1010,1010,1046,1050,1053],"ymouse":[457,457,457,457,457,457,457,457,457,457,457,457,457,457,457,457,457,457,457,457,457,457,457,457,457,457,457,457,457,457,450,430,371,347,304,255,196,123,78,54,36,20,4,4,4,4,4,4,4,4,3,7,8],"timestamp_mouse":[9,31,50,70,90,111,130,150,170,191,209,230,249,269,290,311,329,349,370,391,411,429,449,470,491,511,529,551,571,590,611,630,649,670,689,709,731,749,770,789,810,830,850,869,890,910,931,951,970,989,1010,1031,1049],"xSR":737,"ySR":442.65000000000003,"xT1":422.2,"yT1":0,"xT2":1051.8,"yT2":0,"toosoon":0,"cond_shown":"randomdotsizeEA","ratio_trial":250,"smaller_num":"2","larger_num":"8","correct_side":2,"subjID":"MariaPaulaMorianoSalcedo11","gender":"1","age":"11","school":"6"},{"start_time":1551801386396,"click_time":1551801387837,"finger_time":1551801387698,"fix_duration":1457.1418248074342,"trial":28,"RT":1302,"MT":139,"sideResp":2,"stimulus":"img/750/randomdotsizeEA/L/10_Ratio_750_L_4_R_3.png","xmouse":[803,803,803,803,803,803,803,803,803,803,803,803,803,803,803,803,803,803,803,803,803,803,803,803,803,803,803,803,803,803,803,803,803,803,803,803,803,803,803,803,803,803,803,803,803,803,803,803,803,803,803,803,803,803,803,803,803,803,803,803,803,804,805,809,820,839,853,867,885,945,985,1033,1060],"ymouse":[482,482,482,482,482,482,482,482,482,482,482,482,482,482,482,482,482,482,482,482,482,482,482,482,482,482,482,482,482,482,482,482,482,482,482,482,482,482,482,482,482,482,482,482,482,482,482,482,482,482,482,482,482,482,482,482,482,482,482,482,482,482,481,479,471,438,408,373,333,203,131,51,13],"timestamp_mouse":[9,36,42,61,81,103,122,142,162,181,206,221,241,262,281,301,321,343,363,381,403,423,441,461,482,501,522,543,561,582,603,623,642,662,682,703,722,741,762,783,802,822,843,862,881,901,922,942,963,982,1001,1021,1041,1062,1083,1102,1122,1142,1162,1182,1202,1221,1242,1261,1281,1302,1322,1341,1361,1382,1402,1423,1441],"xSR":737,"ySR":442.65000000000003,"xT1":422.2,"yT1":0,"xT2":1051.8,"yT2":0,"toosoon":0,"cond_shown":"randomdotsizeEA","ratio_trial":750,"smaller_num":"3","larger_num":"4","correct_side":1,"subjID":"MariaPaulaMorianoSalcedo11","gender":"1","age":"11","school":"6"},{"start_time":1551801389761,"click_time":1551801390978,"finger_time":1551801390677,"fix_duration":461.4258994778335,"trial":29,"RT":916,"MT":301,"sideResp":1,"stimulus":"img/900/randomdotsizeEA/R/6_Ratio_900_L_9_R_10.png","xmouse":[774,774,774,774,774,774,774,774,774,774,774,774,774,774,774,774,774,774,774,774,774,774,774,774,774,774,774,774,774,774,774,774,774,774,774,774,774,774,774,774,774,774,774,774,774,750,728,692,653,629,612,611,609,606,601,586,565,550,534,519,486],"ymouse":[506,506,506,506,506,506,506,506,506,506,506,506,506,506,506,506,506,506,506,506,506,506,506,506,506,506,506,506,506,506,506,506,506,506,506,506,506,506,506,506,506,506,506,506,497,403,366,307,255,221,197,196,194,192,190,182,167,154,137,120,82],"timestamp_mouse":[16,36,57,78,97,116,137,157,177,197,216,237,257,278,297,317,336,357,376,397,416,438,456,478,497,518,537,557,576,597,617,636,657,677,698,717,737,757,776,797,818,837,857,878,897,916,937,957,977,996,1017,1036,1057,1076,1096,1117,1137,1157,1177,1196,1217],"xSR":737,"ySR":442.65000000000003,"xT1":422.2,"yT1":0,"xT2":1051.8,"yT2":0,"toosoon":0,"cond_shown":"randomdotsizeEA","ratio_trial":900,"smaller_num":"9","larger_num":"10","correct_side":2,"subjID":"MariaPaulaMorianoSalcedo11","gender":"1","age":"11","school":"6"},{"start_time":1551801392620,"click_time":1551801393837,"finger_time":1551801393539,"fix_duration":860.178019364582,"trial":30,"RT":919,"MT":298,"sideResp":1,"stimulus":"img/500/randomdotsizeEA/L/8_Ratio_500_L_8_R_4.png","xmouse":[805,805,805,805,805,805,805,805,805,805,805,805,805,805,805,805,805,805,805,805,805,805,805,805,805,805,805,805,805,805,805,805,805,805,805,805,805,805,805,805,805,805,789,767,742,713,689,660,651,640,625,606,570,553,548,545,543,534,529,523,519],"ymouse":[473,473,473,473,473,473,473,473,473,473,473,473,473,473,473,473,473,473,473,473,473,473,473,473,473,473,473,473,473,473,473,473,473,473,473,473,473,473,473,473,473,474,475,472,461,443,424,396,382,369,351,322,241,193,171,152,137,110,102,94,87],"timestamp_mouse":[19,40,58,79,97,118,137,158,177,197,218,237,257,277,298,318,337,357,378,397,417,438,458,478,499,517,539,557,579,597,618,639,658,677,697,717,738,757,778,799,819,837,857,877,897,919,938,958,977,997,1017,1038,1057,1077,1097,1117,1138,1158,1178,1197,1217],"xSR":737,"ySR":442.65000000000003,"xT1":422.2,"yT1":0,"xT2":1051.8,"yT2":0,"toosoon":0,"cond_shown":"randomdotsizeEA","ratio_trial":500,"smaller_num":"4","larger_num":"8","correct_side":1,"subjID":"MariaPaulaMorianoSalcedo11","gender":"1","age":"11","school":"6"},{"start_time":1551801395028,"click_time":1551801396237,"finger_time":1551801395838,"fix_duration":250,"trial":31,"RT":810,"MT":399,"sideResp":1,"stimulus":"img/900/equaldotanddens/L/8_Ratio_900_L_20_R_18.png","xmouse":[817,817,817,817,817,817,817,817,817,817,817,817,817,817,817,817,817,817,817,817,817,817,817,817,817,817,817,817,817,817,817,817,817,817,817,816,813,811,808,798,786,766,718,668,639,609,585,560,555,552,547,546,539,532,531,529,528,522,519,512,506],"ymouse":[456,456,456,456,456,456,456,456,456,456,456,456,456,456,456,456,456,456,456,456,456,456,456,456,456,456,456,456,456,456,456,456,456,456,456,457,457,455,452,445,436,423,386,343,318,292,270,236,223,213,203,195,179,167,159,152,145,130,121,109,98],"timestamp_mouse":[20,36,49,69,91,109,129,151,169,190,209,230,249,270,290,311,330,350,369,389,409,429,450,470,489,510,531,549,570,591,609,629,651,670,691,710,729,750,770,789,810,829,849,871,889,910,929,950,969,989,1009,1029,1049,1070,1089,1109,1129,1149,1169,1190,1209],"xSR":737,"ySR":442.65000000000003,"xT1":422.2,"yT1":0,"xT2":1051.8,"yT2":0,"toosoon":0,"cond_shown":"equaldotanddens","ratio_trial":900,"smaller_num":"18","larger_num":"20","correct_side":1,"subjID":"MariaPaulaMorianoSalcedo11","gender":"1","age":"11","school":"6"},{"start_time":1551801397782,"click_time":1551801398678,"finger_time":1551801398518,"fix_duration":743.0067648655978,"trial":32,"RT":736,"MT":160,"sideResp":2,"stimulus":"img/750/randomdotsizeEA/L/10_Ratio_750_L_4_R_3.png","xmouse":[814,814,814,814,814,814,814,814,814,814,814,814,814,814,814,814,814,814,814,814,814,814,814,814,814,814,814,814,814,814,814,814,814,814,816,825,839,855,875,940,978,1015,1053,1090,1144],"ymouse":[460,460,460,460,460,460,460,460,460,460,460,460,460,460,460,460,460,460,460,460,460,460,460,460,460,460,460,460,460,460,460,460,460,460,460,450,434,413,385,314,277,228,168,109,21],"timestamp_mouse":[16,36,56,75,96,116,135,156,175,196,216,236,255,275,297,316,335,356,375,395,415,435,455,475,495,515,535,555,575,595,615,635,655,675,696,715,736,755,775,795,815,836,855,876,896],"xSR":737,"ySR":442.65000000000003,"xT1":422.2,"yT1":0,"xT2":1051.8,"yT2":0,"toosoon":0,"cond_shown":"randomdotsizeEA","ratio_trial":750,"smaller_num":"3","larger_num":"4","correct_side":1,"subjID":"MariaPaulaMorianoSalcedo11","gender":"1","age":"11","school":"6"},{"start_time":1551801402120,"click_time":1551801402938,"finger_time":1551801402858,"fix_duration":660.6389818509454,"trial":33,"RT":738,"MT":80,"sideResp":2,"stimulus":"img/250/randomdotsizeEA/R/9_Ratio_250_L_3_R_12.png","xmouse":[811,811,811,811,811,811,811,811,811,811,811,811,811,811,811,811,811,811,811,811,811,811,811,811,811,811,811,811,811,811,811,811,811,817,821,828,839,895,955,1024,1080],"ymouse":[476,476,476,476,476,476,476,476,476,476,476,476,476,476,476,476,476,476,476,476,476,476,476,476,476,476,476,476,476,476,476,476,476,470,468,462,457,421,351,215,79],"timestamp_mouse":[18,38,58,77,98,117,138,158,177,197,218,238,257,278,297,317,338,358,378,398,419,437,457,479,498,517,537,558,577,598,617,637,658,677,698,717,738,758,778,797,818],"xSR":737,"ySR":442.65000000000003,"xT1":422.2,"yT1":0,"xT2":1051.8,"yT2":0,"toosoon":0,"cond_shown":"randomdotsizeEA","ratio_trial":250,"smaller_num":"3","larger_num":"12","correct_side":2,"subjID":"MariaPaulaMorianoSalcedo11","gender":"1","age":"11","school":"6"},{"start_time":1551801406565,"click_time":1551801407697,"finger_time":1551801407238,"fix_duration":1184.6456578162802,"trial":34,"RT":673,"MT":459,"sideResp":1,"stimulus":"img/250/equaldotsize/L/5_Ratio_250_L_24_R_6.png","xmouse":[753,753,753,753,753,753,753,753,753,753,753,753,753,753,753,753,753,753,753,753,753,753,753,753,753,753,753,753,753,753,753,753,759,768,780,780,779,779,778,776,757,743,716,682,653,614,612,610,610,610,604,594,578,562,551,527,520],"ymouse":[481,481,481,481,481,481,481,481,481,481,481,481,481,481,481,481,481,481,481,481,481,481,481,481,481,481,481,481,481,481,481,481,459,426,358,304,303,299,293,283,239,207,162,120,91,54,48,46,46,46,45,45,45,48,50,59,62],"timestamp_mouse":[14,32,54,72,93,113,132,153,172,193,213,233,253,272,293,313,333,354,372,392,413,432,454,472,492,512,533,553,574,592,612,634,652,673,693,712,733,753,772,793,813,833,852,873,893,913,933,952,973,994,1012,1032,1054,1074,1094,1113,1132],"xSR":737,"ySR":442.65000000000003,"xT1":422.2,"yT1":0,"xT2":1051.8,"yT2":0,"toosoon":0,"cond_shown":"equaldotsize","ratio_trial":250,"smaller_num":"6","larger_num":"24","correct_side":1,"subjID":"MariaPaulaMorianoSalcedo11","gender":"1","age":"11","school":"6"},{"start_time":1551801408968,"click_time":1551801410117,"finger_time":1551801409917,"fix_duration":250,"trial":35,"RT":949,"MT":200,"sideResp":1,"stimulus":"img/750/equaldotsize/L/8_Ratio_750_L_4_R_3.png","xmouse":[779,779,779,779,779,779,779,779,779,779,779,779,779,779,779,779,779,779,779,779,779,779,779,779,779,779,779,779,779,779,779,779,779,779,779,779,779,779,779,779,779,779,779,779,779,779,772,744,694,629,481,448,442,442,442,442,445,446],"ymouse":[472,472,472,472,472,472,472,472,472,472,472,472,472,472,472,472,472,472,472,472,472,472,472,472,472,472,472,472,472,472,472,472,472,472,472,472,472,472,472,472,472,472,472,472,472,472,459,419,351,268,134,114,108,108,108,104,100,95],"timestamp_mouse":[9,39,51,71,89,111,130,150,169,189,210,231,250,269,291,310,330,349,369,390,410,429,451,469,490,509,531,549,571,589,609,631,650,669,690,710,730,751,770,789,810,829,850,870,891,910,929,949,969,989,1009,1029,1049,1070,1090,1110,1129,1149],"xSR":737,"ySR":442.65000000000003,"xT1":422.2,"yT1":0,"xT2":1051.8,"yT2":0,"toosoon":0,"cond_shown":"equaldotsize","ratio_trial":750,"smaller_num":"3","larger_num":"4","correct_side":1,"subjID":"MariaPaulaMorianoSalcedo11","gender":"1","age":"11","school":"6"},{"start_time":1551801415009,"click_time":1551801416439,"finger_time":1551801415838,"fix_duration":1169.2631100315882,"trial":36,"RT":829,"MT":601,"sideResp":1,"stimulus":"img/750/equaldotanddens/L/14_Ratio_750_L_8_R_6.png","xmouse":[795,795,795,795,795,795,795,795,795,795,795,795,795,795,795,795,795,795,795,795,795,795,795,795,795,795,795,795,795,795,795,795,795,795,795,795,795,795,795,793,779,764,750,728,720,719,719,719,710,700,687,660,625,582,579,578,578,578,578,562,557,557,557,556,554,545,535,530,528,527,527,521],"ymouse":[480,480,480,480,480,480,480,480,480,480,480,480,480,480,480,480,480,480,480,480,480,480,480,480,480,480,480,480,480,480,480,480,480,480,480,480,480,480,480,467,443,416,388,350,330,327,324,321,300,283,263,216,154,85,81,81,81,81,81,65,62,62,62,62,62,61,59,59,58,58,57,56],"timestamp_mouse":[8,40,48,68,88,109,130,149,170,188,208,230,248,270,288,309,329,348,370,388,410,430,450,469,488,508,528,548,568,588,609,629,648,669,688,709,728,748,769,789,808,829,849,868,888,908,929,948,969,989,1009,1029,1048,1068,1090,1109,1128,1148,1168,1188,1208,1230,1249,1269,1288,1308,1329,1350,1369,1388,1409,1430],"xSR":737,"ySR":442.65000000000003,"xT1":422.2,"yT1":0,"xT2":1051.8,"yT2":0,"toosoon":0,"cond_shown":"equaldotanddens","ratio_trial":750,"smaller_num":"6","larger_num":"8","correct_side":1,"subjID":"MariaPaulaMorianoSalcedo11","gender":"1","age":"11","school":"6"},{"start_time":1551801421297,"click_time":1551801422497,"finger_time":1551801421897,"fix_duration":1337.9816698091877,"trial":37,"RT":600,"MT":600,"sideResp":1,"stimulus":"img/500/randomdotsizeEA/L/8_Ratio_500_L_8_R_4.png","xmouse":[783,783,783,783,783,783,783,783,783,783,783,783,783,783,783,783,783,783,783,783,783,783,783,783,783,783,783,783,787,809,831,847,861,870,876,877,878,879,881,881,881,880,880,879,873,865,853,830,802,748,740,740,740,740,738,735,732,725,711,576,498],"ymouse":[464,464,464,464,464,464,464,464,464,464,464,464,464,464,464,464,464,464,464,464,464,464,464,464,464,464,464,463,459,445,423,402,381,365,334,313,299,289,278,251,238,230,224,220,206,192,175,150,128,95,91,91,91,91,90,87,85,83,82,73,52],"timestamp_mouse":[8,30,40,62,81,100,122,141,161,180,202,222,240,260,281,300,320,341,360,381,400,420,442,461,481,502,520,541,561,581,600,620,640,661,681,700,720,740,762,780,801,821,841,861,881,901,921,941,961,980,1001,1022,1041,1060,1080,1101,1121,1141,1161,1181,1200],"xSR":737,"ySR":442.65000000000003,"xT1":422.2,"yT1":0,"xT2":1051.8,"yT2":0,"toosoon":0,"cond_shown":"randomdotsizeEA","ratio_trial":500,"smaller_num":"4","larger_num":"8","correct_side":1,"subjID":"MariaPaulaMorianoSalcedo11","gender":"1","age":"11","school":"6"},{"start_time":1551801425437,"click_time":1551801426637,"finger_time":1551801426278,"fix_duration":477.7669852832106,"trial":38,"RT":841,"MT":359,"sideResp":2,"stimulus":"img/750/equaldotanddens/R/4_Ratio_750_L_15_R_20.png","xmouse":[745,745,745,744,749,758,760,760,760,760,760,760,759,759,758,757,756,755,755,755,755,755,755,755,755,755,755,755,755,755,755,755,755,755,755,755,755,755,755,755,755,755,779,794,864,909,939,955,955,955,957,966,1022,1037,1037,1037,1037,1037,1042,1047,1052],"ymouse":[525,525,525,523,508,494,488,484,483,481,478,473,469,469,468,468,468,468,468,468,468,468,468,468,468,468,468,468,468,468,468,468,468,468,468,468,468,468,468,468,468,468,439,422,328,260,200,143,134,124,110,97,51,39,39,39,39,39,38,38,38],"timestamp_mouse":[2,21,41,61,80,101,121,141,161,181,200,221,240,262,281,301,321,340,360,382,402,420,440,462,481,502,521,541,561,581,601,621,640,660,681,702,720,740,762,780,802,821,841,861,881,900,920,940,960,980,1001,1022,1040,1061,1080,1101,1121,1141,1160,1180,1200],"xSR":737,"ySR":442.65000000000003,"xT1":422.2,"yT1":0,"xT2":1051.8,"yT2":0,"toosoon":0,"cond_shown":"equaldotanddens","ratio_trial":750,"smaller_num":"15","larger_num":"20","correct_side":2,"subjID":"MariaPaulaMorianoSalcedo11","gender":"1","age":"11","school":"6"},{"start_time":1551801428979,"click_time":1551801430139,"finger_time":1551801429577,"fix_duration":1299.3839276657352,"trial":39,"RT":598,"MT":562,"sideResp":2,"stimulus":"img/250/equaldotsize/R/12_Ratio_250_L_5_R_20.png","xmouse":[813,813,813,813,813,813,813,813,813,813,813,813,813,813,813,813,813,813,813,813,813,813,813,813,813,813,813,814,824,835,851,853,855,857,862,880,888,899,907,917,931,945,958,973,987,1009,1023,1032,1040,1044,1057,1064,1070,1070,1073,1086,1095,1101,1106],"ymouse":[515,515,515,515,515,515,515,515,515,515,515,515,515,515,515,515,515,515,515,515,515,515,515,515,515,515,515,515,509,501,488,486,484,479,471,445,431,413,398,382,352,329,305,281,258,223,202,191,181,177,164,157,151,151,147,129,113,103,91],"timestamp_mouse":[2,19,43,59,79,99,120,139,159,179,199,220,238,259,279,300,319,339,359,379,398,418,440,458,478,499,520,538,559,578,598,619,639,660,679,698,719,739,760,779,799,819,838,858,879,898,920,939,959,978,998,1018,1038,1059,1079,1098,1120,1139,1160],"xSR":737,"ySR":442.65000000000003,"xT1":422.2,"yT1":0,"xT2":1051.8,"yT2":0,"toosoon":0,"cond_shown":"equaldotsize","ratio_trial":250,"smaller_num":"5","larger_num":"20","correct_side":2,"subjID":"MariaPaulaMorianoSalcedo11","gender":"1","age":"11","school":"6"},{"start_time":1551801432013,"click_time":1551801433198,"finger_time":1551801432677,"fix_duration":795.4588016983781,"trial":40,"RT":664,"MT":521,"sideResp":2,"stimulus":"img/500/equaldotanddens/R/1_Ratio_500_L_9_R_18.png","xmouse":[751,751,751,751,751,751,751,751,751,751,751,751,751,751,751,751,751,751,751,751,751,751,751,751,751,751,751,751,751,751,763,776,800,855,861,868,881,901,934,952,960,964,966,972,980,986,993,1003,1025,1036,1041,1045,1049,1054,1062,1066,1069,1073,1079,1082],"ymouse":[528,528,528,528,528,528,528,528,528,528,528,528,528,528,528,528,528,528,528,528,528,528,528,528,528,528,528,528,528,528,521,514,500,460,449,434,413,388,343,319,307,293,276,235,203,186,171,158,137,130,126,123,119,115,110,108,106,103,100,99],"timestamp_mouse":[9,34,45,65,84,106,125,145,165,184,205,224,244,265,284,304,326,345,365,384,405,425,445,466,485,505,525,545,565,584,604,626,644,664,685,705,724,744,764,785,805,824,844,864,885,904,924,944,964,985,1005,1024,1045,1064,1085,1105,1124,1144,1164,1185],"xSR":737,"ySR":442.65000000000003,"xT1":422.2,"yT1":0,"xT2":1051.8,"yT2":0,"toosoon":0,"cond_shown":"equaldotanddens","ratio_trial":500,"smaller_num":"9","larger_num":"18","correct_side":2,"subjID":"MariaPaulaMorianoSalcedo11","gender":"1","age":"11","school":"6"},{"start_time":1551801435704,"click_time":1551801437477,"finger_time":1551801437058,"fix_duration":1425.3453006459933,"trial":41,"RT":1354,"MT":419,"sideResp":1,"stimulus":"img/750/randomdotsizeEA/L/8_Ratio_750_L_4_R_3.png","xmouse":[804,804,804,804,804,804,804,804,804,804,804,804,804,804,804,804,804,804,804,804,804,804,804,804,804,804,804,804,812,825,827,827,827,827,827,827,827,827,827,827,827,827,827,827,827,827,827,827,824,824,824,824,824,824,824,824,824,824,824,824,824,824,823,816,809,804,800,796,792,791,790,788,786,778,772,767,759,751,717,669,624,586,549,513,505,501,499,495,486],"ymouse":[506,506,506,506,506,506,506,506,506,506,506,506,506,506,506,506,506,506,506,506,506,506,506,506,506,506,506,506,502,495,495,495,495,495,495,495,495,495,495,495,495,495,495,495,495,495,495,494,490,489,489,489,489,489,489,489,489,489,489,489,489,489,487,478,468,458,449,439,423,418,417,413,408,395,388,381,372,364,336,297,262,229,195,156,143,133,125,115,93],"timestamp_mouse":[15,36,53,73,95,115,134,155,174,194,214,234,254,273,295,314,334,354,374,393,414,433,454,473,495,515,533,553,573,595,613,634,654,674,693,713,735,753,773,793,814,834,854,873,895,914,933,954,974,993,1013,1035,1054,1073,1093,1115,1133,1153,1174,1193,1215,1233,1254,1274,1293,1313,1333,1354,1373,1394,1413,1434,1453,1474,1494,1515,1534,1553,1573,1595,1614,1633,1654,1674,1693,1714,1733,1753,1773],"xSR":737,"ySR":442.65000000000003,"xT1":422.2,"yT1":0,"xT2":1051.8,"yT2":0,"toosoon":0,"cond_shown":"randomdotsizeEA","ratio_trial":750,"smaller_num":"3","larger_num":"4","correct_side":1,"subjID":"MariaPaulaMorianoSalcedo11","gender":"1","age":"11","school":"6"},{"start_time":1551801439420,"click_time":1551801440739,"finger_time":1551801440157,"fix_duration":1141.5026865324228,"trial":42,"RT":737,"MT":582,"sideResp":2,"stimulus":"img/250/equaldotanddens/R/9_Ratio_250_L_3_R_12.png","xmouse":[789,789,789,789,789,789,789,789,789,789,789,789,789,789,789,789,789,789,789,789,789,789,789,789,789,789,789,789,789,789,789,789,789,789,789,808,854,1021,1096,1141,1166,1175,1176,1176,1177,1177,1177,1173,1170,1163,1157,1153,1152,1152,1152,1150,1149,1141,1137,1135,1134,1133,1131,1130,1129,1128],"ymouse":[522,522,522,522,522,522,522,522,522,522,522,522,522,522,522,522,522,522,522,522,522,522,522,522,522,522,522,522,522,522,522,522,522,522,519,498,457,348,303,277,257,244,219,192,172,164,153,140,136,135,132,131,131,131,130,125,123,115,111,109,108,105,103,102,100,99],"timestamp_mouse":[18,49,59,78,98,118,137,158,178,199,218,239,259,277,299,319,338,357,378,399,417,439,459,478,497,519,538,557,579,599,617,638,658,678,697,718,737,757,778,798,818,838,857,877,898,919,938,957,978,997,1017,1037,1058,1078,1098,1118,1137,1157,1178,1197,1217,1238,1257,1278,1299,1319],"xSR":737,"ySR":442.65000000000003,"xT1":422.2,"yT1":0,"xT2":1051.8,"yT2":0,"toosoon":0,"cond_shown":"equaldotanddens","ratio_trial":250,"smaller_num":"3","larger_num":"12","correct_side":2,"subjID":"MariaPaulaMorianoSalcedo11","gender":"1","age":"11","school":"6"},{"start_time":1551801444986,"click_time":1551801446078,"finger_time":1551801445637,"fix_duration":1286.5360556457156,"trial":43,"RT":651,"MT":441,"sideResp":1,"stimulus":"img/250/equaldotanddens/L/7_Ratio_250_L_8_R_2.png","xmouse":[783,783,783,783,783,783,783,784,785,785,785,785,786,786,786,786,786,786,786,786,786,786,786,786,786,786,786,786,786,786,787,788,788,784,756,737,726,714,700,650,618,587,568,553,545,544,544,540,537,534,533,531,530,526,517],"ymouse":[480,480,480,480,480,480,480,480,479,479,479,479,479,479,479,479,479,479,479,479,479,479,479,479,479,479,479,479,479,479,474,454,429,403,350,316,298,281,261,184,144,109,91,81,78,78,78,79,80,82,82,83,83,85,85],"timestamp_mouse":[11,37,51,72,91,112,133,151,172,192,212,232,251,271,291,312,333,352,371,391,413,432,451,472,492,512,532,552,571,592,611,632,651,672,691,712,732,751,771,792,812,832,853,871,891,913,932,951,972,992,1013,1032,1051,1072,1091],"xSR":737,"ySR":442.65000000000003,"xT1":422.2,"yT1":0,"xT2":1051.8,"yT2":0,"toosoon":0,"cond_shown":"equaldotanddens","ratio_trial":250,"smaller_num":"2","larger_num":"8","correct_side":1,"subjID":"MariaPaulaMorianoSalcedo11","gender":"1","age":"11","school":"6"},{"start_time":1551801447838,"click_time":1551801449637,"finger_time":1551801448578,"fix_duration":859.442940777056,"trial":44,"RT":740,"MT":1059,"sideResp":2,"stimulus":"img/750/equaldotsize/R/4_Ratio_750_L_15_R_20.png","xmouse":[810,810,810,810,810,810,810,810,810,810,810,810,810,810,810,810,810,810,810,810,810,810,810,810,810,810,810,810,810,810,810,810,810,811,815,823,836,858,867,874,878,882,894,906,915,924,931,960,1008,1098,1178,1211,1251,1257,1257,1258,1258,1258,1258,1258,1258,1257,1256,1251,1249,1248,1245,1237,1227,1209,1192,1179,1174,1174,1174,1174,1172,1169,1169,1169,1169,1168,1167,1165,1164,1164,1164,1159,1155,1152,1151],"ymouse":[512,512,512,512,512,512,512,512,512,512,512,512,512,512,512,512,512,512,512,512,512,512,512,512,512,512,512,512,512,512,512,512,512,512,508,500,488,449,428,405,379,361,329,305,289,273,261,219,167,103,57,42,19,14,14,14,14,14,14,14,14,14,14,15,16,16,18,23,26,31,33,34,34,34,34,34,34,34,34,34,34,34,34,34,34,34,34,34,33,32,32],"timestamp_mouse":[1,20,47,59,79,100,121,139,161,180,200,220,239,260,280,299,320,340,360,379,400,420,440,461,479,500,519,540,559,581,600,620,640,659,680,699,719,739,759,780,799,819,840,860,880,899,919,939,959,979,999,1020,1041,1060,1079,1099,1121,1140,1160,1179,1200,1219,1239,1260,1280,1300,1320,1339,1361,1380,1399,1421,1440,1460,1481,1500,1520,1540,1560,1579,1600,1619,1639,1660,1680,1700,1720,1739,1760,1779,1799],"xSR":737,"ySR":442.65000000000003,"xT1":422.2,"yT1":0,"xT2":1051.8,"yT2":0,"toosoon":0,"cond_shown":"equaldotsize","ratio_trial":750,"smaller_num":"15","larger_num":"20","correct_side":2,"subjID":"MariaPaulaMorianoSalcedo11","gender":"1","age":"11","school":"6"},{"start_time":1551801451519,"click_time":1551801452277,"finger_time":1551801452098,"fix_duration":860.3903995257233,"trial":45,"RT":579,"MT":179,"sideResp":2,"stimulus":"img/500/equaldotsize/R/9_Ratio_500_L_2_R_4.png","xmouse":[774,774,774,774,774,774,774,774,774,774,774,774,774,774,774,774,774,774,774,774,774,774,774,774,777,779,785,821,859,880,895,904,939,1057,1090,1105,1112,1124],"ymouse":[483,483,483,483,483,483,483,483,483,483,483,483,483,483,483,483,483,483,483,483,483,483,483,483,483,483,482,469,453,440,425,404,363,230,170,132,109,80],"timestamp_mouse":[19,38,59,80,99,119,138,159,178,200,218,239,258,279,299,319,338,359,379,399,419,439,458,480,498,519,539,559,579,599,619,638,658,678,698,718,739,758],"xSR":737,"ySR":442.65000000000003,"xT1":422.2,"yT1":0,"xT2":1051.8,"yT2":0,"toosoon":0,"cond_shown":"equaldotsize","ratio_trial":500,"smaller_num":"2","larger_num":"4","correct_side":2,"subjID":"MariaPaulaMorianoSalcedo11","gender":"1","age":"11","school":"6"},{"start_time":1551801453530,"click_time":1551801454659,"finger_time":1551801454458,"fix_duration":250,"trial":46,"RT":928,"MT":201,"sideResp":1,"stimulus":"img/900/equaldotsize/L/1_Ratio_900_L_10_R_9.png","xmouse":[787,787,787,787,787,788,789,792,797,801,804,805,807,807,807,807,807,808,810,812,814,815,816,818,818,818,818,818,818,818,818,818,818,818,817,817,817,816,816,816,816,816,815,811,802,779,744,655,636,625,617,607,559,524,494,477,469],"ymouse":[505,505,505,505,505,505,505,505,505,504,503,503,503,503,503,503,503,503,503,502,502,502,502,501,501,501,501,501,501,501,501,501,501,501,499,498,497,496,496,496,496,496,495,492,484,466,433,338,313,293,276,261,197,161,128,105,87],"timestamp_mouse":[7,35,47,67,88,107,128,147,169,187,207,228,247,268,287,308,327,347,369,387,407,428,448,467,487,509,527,548,567,589,609,628,647,669,688,707,728,747,768,788,808,828,847,867,887,907,928,948,967,987,1009,1029,1047,1067,1087,1108,1129],"xSR":737,"ySR":442.65000000000003,"xT1":422.2,"yT1":0,"xT2":1051.8,"yT2":0,"toosoon":0,"cond_shown":"equaldotsize","ratio_trial":900,"smaller_num":"9","larger_num":"10","correct_side":1,"subjID":"MariaPaulaMorianoSalcedo11","gender":"1","age":"11","school":"6"},{"start_time":1551801458680,"click_time":1551801460218,"finger_time":1551801459397,"fix_duration":1482.7485898868833,"trial":47,"RT":717,"MT":821,"sideResp":1,"stimulus":"img/250/equaldotsize/L/7_Ratio_250_L_8_R_2.png","xmouse":[772,772,772,772,772,773,773,773,773,773,773,773,773,773,773,773,773,773,773,773,773,773,773,773,773,773,773,773,773,773,773,774,775,774,763,747,719,683,649,613,613,613,613,610,591,579,568,559,552,546,546,546,546,546,546,546,546,545,545,541,539,539,539,536,536,536,536,536,536,536,536,535,534,532,529,524,520],"ymouse":[501,501,501,501,501,501,501,501,501,501,501,501,501,501,501,501,501,501,501,501,501,501,501,501,501,501,501,501,501,501,501,501,499,494,458,419,360,310,274,245,245,245,245,243,215,191,164,142,126,108,107,107,107,107,107,107,107,107,107,105,104,104,104,103,102,102,102,102,102,102,102,102,101,101,99,97,95],"timestamp_mouse":[23,37,58,77,99,119,138,159,178,197,218,237,257,277,298,318,337,357,377,397,417,438,458,477,499,518,538,558,578,598,617,638,657,677,697,717,738,758,778,799,819,839,857,877,897,919,938,959,978,998,1019,1037,1058,1077,1098,1117,1138,1158,1179,1197,1217,1238,1258,1277,1297,1317,1338,1358,1377,1397,1417,1437,1457,1477,1498,1517,1538],"xSR":737,"ySR":442.65000000000003,"xT1":422.2,"yT1":0,"xT2":1051.8,"yT2":0,"toosoon":0,"cond_shown":"equaldotsize","ratio_trial":250,"smaller_num":"2","larger_num":"8","correct_side":1,"subjID":"MariaPaulaMorianoSalcedo11","gender":"1","age":"11","school":"6"},{"start_time":1551801466427,"click_time":1551801471577,"finger_time":1551801467097,"fix_duration":1148.1929751846967,"trial":48,"RT":670,"MT":4480,"sideResp":1,"stimulus":"img/500/equaldotanddens/L/4_Ratio_500_L_18_R_9.png","xmouse":[799,799,799,799,799,799,799,799,799,799,799,799,799,799,799,799,799,799,799,799,799,799,799,799,799,799,799,799,799,799,799,796,759,710,657,614,593,578,578,577,575,568,554,547,543,543,543,551,557,560,560,560,556,548,540,533,525,525,525,525,525,525,525,525,525,525,525,525,525,525,525,525,525,525,525,525,525,525,525,525,525,525,525,525,525,525,525,525,525,525,525,525,525,525,525,525,525,525,525,525,525,525,525,525,525,525,525,525,525,525,525,525,525,525,525,525,525,525,525,525,525,525,525,525,525,525,525,525,525,525,525,525,525,525,525,525,525,525,525,525,525,525,525,525,525,525,525,525,525,525,525,525,525,525,525,525,525,525,525,525,525,525,525,525,525,525,525,525,525,525,525,525,525,525,525,525,525,525,525,525,525,525,525,525,525,525,525,525,525,525,525,525,525,525,525,525,525,525,525,525,525,525,525,525,525,525,525,525,525,525,525,525,532,532,532,532,532,532,532,532,532,532,532,532,532,532,532,532,532,532,532,532,532,532,411,411,411,411,411,413,421,432,471,493,511,521,531,547,550,551,551,551,548,547,543,537,530,507],"ymouse":[509,509,509,509,509,509,509,509,509,509,509,509,509,509,509,509,509,509,509,509,509,509,509,509,509,509,509,509,509,509,508,505,479,449,419,391,375,364,363,362,352,330,279,251,240,233,227,209,197,185,177,169,161,153,145,136,125,125,125,125,125,125,125,125,125,125,125,125,125,125,125,125,125,125,125,125,125,125,125,125,125,125,125,125,125,125,125,125,125,125,125,125,125,125,125,125,125,125,125,125,125,125,125,125,125,125,125,125,125,125,125,125,125,125,125,125,125,125,125,125,125,125,125,125,125,125,125,125,125,125,125,125,125,125,125,125,125,125,125,125,125,125,125,125,125,125,125,125,125,125,125,125,125,125,125,125,125,125,125,125,125,125,125,125,125,125,125,125,125,125,125,125,125,125,125,125,125,125,125,125,125,125,125,125,125,125,125,125,125,125,125,125,125,125,125,125,125,125,125,125,125,125,125,125,125,125,125,125,125,125,125,117,39,39,39,39,39,39,39,39,39,39,39,39,39,39,39,39,39,39,39,39,39,39,162,227,273,304,305,305,298,286,240,219,201,186,174,158,154,152,148,142,121,111,100,85,70,38],"timestamp_mouse":[11,34,51,70,91,111,131,152,171,192,210,231,250,271,292,310,330,352,372,391,412,430,451,471,491,512,531,550,571,591,610,631,651,670,690,711,731,750,772,792,811,832,850,871,891,910,930,950,972,991,1011,1032,1050,1071,1091,1111,1131,1151,1170,1192,1212,1231,1251,1271,1290,1310,1330,1350,1371,1391,1411,1432,1450,1470,1490,1510,1532,1552,1571,1592,1612,1631,1650,1670,1690,1711,1731,1750,1770,1790,1810,1832,1851,1870,1890,1911,1931,1951,1972,1990,2010,2031,2051,2071,2092,2111,2132,2152,2171,2191,2210,2231,2251,2270,2292,2311,2331,2350,2371,2390,2412,2431,2451,2471,2492,2510,2530,2552,2571,2591,2611,2631,2650,2670,2690,2711,2731,2751,2771,2791,2811,2830,2851,2872,2891,2911,2931,2950,2971,2990,3012,3032,3051,3071,3091,3111,3131,3150,3170,3192,3211,3232,3250,3271,3290,3310,3331,3352,3372,3391,3411,3431,3451,3472,3492,3511,3532,3552,3571,3590,3610,3632,3652,3670,3690,3712,3732,3751,3772,3792,3811,3831,3851,3870,3890,3911,3932,3951,3970,3992,4011,4031,4050,4071,4091,4110,4131,4151,4171,4191,4211,4231,4251,4272,4290,4310,4330,4351,4370,4391,4412,4430,4450,4470,4492,4510,4532,4552,4570,4591,4611,4632,4650,4672,4691,4711,4731,4751,4770,4790,4812,4831,4850,4871,4892,4912,4931,4950,4970,4990,5011,5031,5052,5072,5091,5111,5132,5150],"xSR":737,"ySR":442.65000000000003,"xT1":422.2,"yT1":0,"xT2":1051.8,"yT2":0,"toosoon":0,"cond_shown":"equaldotanddens","ratio_trial":500,"smaller_num":"9","larger_num":"18","correct_side":1,"subjID":"MariaPaulaMorianoSalcedo11","gender":"1","age":"11","school":"6"},{"start_time":1551801473280,"click_time":1551801474378,"finger_time":1551801474018,"fix_duration":341.1398408694469,"trial":49,"RT":738,"MT":360,"sideResp":2,"stimulus":"img/250/equaldotanddens/R/8_Ratio_250_L_1_R_4.png","xmouse":[787,787,791,792,792,792,792,792,792,792,792,792,792,792,792,792,792,792,792,792,792,792,792,792,792,792,792,792,792,792,792,792,792,792,793,815,849,896,925,965,998,1031,1057,1078,1093,1096,1098,1100,1103,1101,1097,1095,1093,1092,1092],"ymouse":[471,471,466,465,465,465,465,465,465,465,464,464,463,463,463,463,463,463,463,463,463,463,463,463,463,463,463,463,463,463,463,463,463,463,461,445,420,386,364,338,324,306,287,268,244,236,230,221,207,173,158,144,129,118,96],"timestamp_mouse":[34,38,57,78,99,117,138,157,179,198,219,237,258,278,297,317,339,359,378,397,419,439,457,478,498,518,537,559,579,597,618,639,659,677,697,719,738,758,778,797,818,838,858,878,897,919,937,957,978,998,1018,1038,1058,1079,1098],"xSR":737,"ySR":442.65000000000003,"xT1":422.2,"yT1":0,"xT2":1051.8,"yT2":0,"toosoon":0,"cond_shown":"equaldotanddens","ratio_trial":250,"smaller_num":"1","larger_num":"4","correct_side":2,"subjID":"MariaPaulaMorianoSalcedo11","gender":"1","age":"11","school":"6"},{"start_time":1551801476684,"click_time":1551801478198,"finger_time":1551801477377,"fix_duration":1045.534604047844,"trial":50,"RT":693,"MT":821,"sideResp":1,"stimulus":"img/250/equaldotsize/L/1_Ratio_250_L_8_R_2.png","xmouse":[804,804,804,804,804,804,804,804,804,804,804,804,804,804,804,804,804,804,804,804,804,804,804,804,804,804,804,804,804,804,799,793,785,783,775,772,767,765,760,747,740,737,735,734,721,709,697,682,668,635,618,611,608,606,606,607,607,606,602,596,595,595,595,595,594,593,590,586,580,568,558,552,545,539,526,521],"ymouse":[466,466,466,466,466,466,466,466,466,466,466,466,466,466,466,466,466,466,466,466,466,466,466,466,466,466,466,466,466,466,466,465,464,462,436,412,382,359,339,312,305,301,296,290,271,259,250,240,234,221,212,207,203,199,185,171,155,144,135,125,124,123,122,122,121,121,119,117,115,109,104,100,96,94,90,88],"timestamp_mouse":[13,42,53,74,94,114,135,153,174,194,214,233,255,273,293,315,334,354,374,394,413,435,453,474,493,514,535,554,574,593,613,634,653,673,693,715,735,753,773,795,814,834,854,874,893,914,934,953,975,993,1014,1033,1054,1074,1094,1115,1133,1154,1173,1194,1214,1233,1253,1275,1294,1314,1333,1353,1374,1393,1414,1434,1455,1475,1494,1514],"xSR":737,"ySR":442.65000000000003,"xT1":422.2,"yT1":0,"xT2":1051.8,"yT2":0,"toosoon":0,"cond_shown":"equaldotsize","ratio_trial":250,"smaller_num":"2","larger_num":"8","correct_side":1,"subjID":"MariaPaulaMorianoSalcedo11","gender":"1","age":"11","school":"6"},{"start_time":1551801481151,"click_time":1551801482218,"finger_time":1551801481878,"fix_duration":250,"trial":51,"RT":727,"MT":340,"sideResp":2,"stimulus":"img/900/equaldotsize/L/4_Ratio_900_L_20_R_18.png","xmouse":[827,827,827,827,827,827,827,827,827,827,827,827,827,827,827,827,827,827,827,827,827,827,827,827,827,827,827,827,827,827,827,827,827,827,829,832,878,922,970,995,1010,1024,1024,1025,1027,1030,1057,1094,1102,1103,1103,1102,1102,1102],"ymouse":[452,452,452,452,452,452,452,452,452,452,452,452,452,452,452,452,452,452,452,452,452,452,452,452,452,452,452,452,452,452,452,452,452,452,449,446,417,398,378,362,351,327,323,320,315,306,252,160,133,119,108,100,100,98],"timestamp_mouse":[9,39,47,67,87,106,127,146,168,186,206,227,246,268,286,306,328,346,368,386,406,426,447,466,488,506,527,546,566,587,607,627,648,666,687,707,727,748,766,787,807,827,847,866,887,906,926,947,967,986,1006,1028,1048,1067],"xSR":737,"ySR":442.65000000000003,"xT1":422.2,"yT1":0,"xT2":1051.8,"yT2":0,"toosoon":0,"cond_shown":"equaldotsize","ratio_trial":900,"smaller_num":"18","larger_num":"20","correct_side":1,"subjID":"MariaPaulaMorianoSalcedo11","gender":"1","age":"11","school":"6"},{"start_time":1551801485290,"click_time":1551801486358,"finger_time":1551801485718,"fix_duration":1232.8951184693144,"trial":52,"RT":428,"MT":640,"sideResp":2,"stimulus":"img/500/equaldotanddens/R/3_Ratio_500_L_10_R_20.png","xmouse":[739,739,739,739,739,739,739,739,739,739,739,739,739,739,739,739,739,739,739,739,738,736,736,736,735,735,735,735,735,735,735,735,735,735,735,737,749,784,865,1054,1073,1073,1073,1075,1092,1097,1097,1097,1097,1097,1097,1097,1097,1097],"ymouse":[453,453,453,453,453,453,453,453,453,453,453,453,453,453,453,453,453,453,453,453,454,456,456,456,456,456,456,456,456,456,456,456,456,456,456,456,456,444,410,342,323,310,292,269,218,196,175,153,133,108,104,103,102,99],"timestamp_mouse":[8,32,47,69,87,107,128,147,167,188,208,229,249,269,288,308,328,348,368,388,408,428,447,468,487,509,528,547,568,587,608,628,648,668,688,708,728,749,768,787,809,828,848,867,887,908,928,948,967,987,1009,1030,1047,1068],"xSR":737,"ySR":442.65000000000003,"xT1":422.2,"yT1":0,"xT2":1051.8,"yT2":0,"toosoon":0,"cond_shown":"equaldotanddens","ratio_trial":500,"smaller_num":"10","larger_num":"20","correct_side":2,"subjID":"MariaPaulaMorianoSalcedo11","gender":"1","age":"11","school":"6"},{"start_time":1551801488825,"click_time":1551801490098,"finger_time":1551801489618,"fix_duration":1024.6275135752685,"trial":53,"RT":793,"MT":480,"sideResp":2,"stimulus":"img/750/equaldotsize/R/4_Ratio_750_L_15_R_20.png","xmouse":[758,758,758,758,758,758,758,758,758,758,758,758,758,758,758,758,758,758,758,758,758,758,758,758,758,758,758,758,758,758,758,758,758,758,758,758,761,780,806,863,933,1017,1129,1161,1172,1179,1182,1188,1188,1188,1188,1184,1174,1161,1148,1142,1135,1129,1126,1123,1122,1120,1113,1110],"ymouse":[469,469,469,469,469,469,469,469,469,469,469,469,469,469,469,469,469,469,469,469,469,469,469,469,469,469,469,469,469,469,469,469,469,469,469,469,468,459,446,421,391,353,301,283,272,265,257,241,234,227,219,208,184,166,149,142,135,126,122,119,117,114,100,91],"timestamp_mouse":[13,32,54,72,92,112,133,152,173,194,213,233,253,273,293,313,333,354,373,392,414,432,453,473,493,513,534,552,572,593,613,634,653,674,693,713,732,753,774,793,814,832,852,873,893,912,933,953,973,993,1014,1034,1052,1073,1093,1114,1132,1152,1174,1193,1213,1234,1253,1273],"xSR":737,"ySR":442.65000000000003,"xT1":422.2,"yT1":0,"xT2":1051.8,"yT2":0,"toosoon":0,"cond_shown":"equaldotsize","ratio_trial":750,"smaller_num":"15","larger_num":"20","correct_side":2,"subjID":"MariaPaulaMorianoSalcedo11","gender":"1","age":"11","school":"6"},{"start_time":1551801492352,"click_time":1551801493678,"finger_time":1551801493078,"fix_duration":1093.9253163708913,"trial":54,"RT":726,"MT":600,"sideResp":1,"stimulus":"img/250/randomdotsizeEA/L/14_Ratio_250_L_12_R_3.png","xmouse":[789,782,781,779,779,779,779,779,779,779,779,779,779,779,779,779,779,779,779,779,779,779,779,779,779,779,779,779,779,779,779,779,779,779,776,772,732,707,667,644,629,601,583,567,559,557,555,555,555,555,555,565,568,568,565,562,556,548,540,532,523,506,500,497,494,491,488],"ymouse":[483,479,478,478,478,478,478,478,478,478,478,478,478,478,478,478,478,478,478,478,478,478,478,478,478,478,478,478,478,478,478,478,478,478,475,473,450,436,421,412,404,383,371,358,352,345,324,299,274,245,219,192,183,176,168,164,155,144,136,131,124,116,113,110,107,102,99],"timestamp_mouse":[6,26,46,66,86,105,140,145,166,187,206,225,246,267,286,306,327,345,365,387,406,426,447,465,486,506,527,546,565,585,607,625,645,665,685,706,726,746,766,785,805,825,847,866,885,906,925,947,966,986,1005,1025,1046,1066,1085,1107,1125,1145,1167,1186,1207,1227,1246,1266,1285,1306,1326],"xSR":737,"ySR":442.65000000000003,"xT1":422.2,"yT1":0,"xT2":1051.8,"yT2":0,"toosoon":0,"cond_shown":"randomdotsizeEA","ratio_trial":250,"smaller_num":"3","larger_num":"12","correct_side":1,"subjID":"MariaPaulaMorianoSalcedo11","gender":"1","age":"11","school":"6"},{"start_time":1551801495609,"click_time":1551801496858,"finger_time":1551801496339,"fix_duration":268.00672278182003,"trial":55,"RT":730,"MT":519,"sideResp":2,"stimulus":"img/900/equaldotsize/L/4_Ratio_900_L_20_R_18.png","xmouse":[802,802,802,802,802,802,802,802,802,802,802,802,802,802,802,802,801,801,800,799,799,799,799,799,799,799,799,799,799,799,799,799,799,799,799,806,830,855,890,899,903,904,904,906,906,907,907,907,907,907,907,907,907,909,918,934,952,973,1010,1026,1037,1048,1058],"ymouse":[468,468,468,468,468,468,468,468,468,468,468,468,468,468,468,464,459,458,456,456,456,456,456,456,456,456,456,456,456,456,456,456,456,456,456,445,411,370,289,249,221,198,177,150,140,136,130,125,119,118,117,117,117,115,110,101,93,81,59,46,35,25,14],"timestamp_mouse":[10,31,49,68,89,109,129,148,169,188,210,228,249,269,288,308,329,348,368,388,408,429,449,469,488,508,528,548,568,589,608,629,648,668,688,708,730,748,768,788,810,830,848,868,889,909,928,948,968,990,1009,1028,1049,1068,1089,1109,1130,1148,1168,1190,1210,1230,1249],"xSR":737,"ySR":442.65000000000003,"xT1":422.2,"yT1":0,"xT2":1051.8,"yT2":0,"toosoon":0,"cond_shown":"equaldotsize","ratio_trial":900,"smaller_num":"18","larger_num":"20","correct_side":1,"subjID":"MariaPaulaMorianoSalcedo11","gender":"1","age":"11","school":"6"},{"start_time":1551801499054,"click_time":1551801500298,"finger_time":1551801499778,"fix_duration":1074.4427072214883,"trial":56,"RT":724,"MT":520,"sideResp":2,"stimulus":"img/750/equaldotanddens/R/5_Ratio_750_L_15_R_20.png","xmouse":[783,783,783,783,783,783,783,783,783,783,783,783,783,783,783,783,783,783,783,783,783,783,783,783,783,783,783,783,783,783,783,783,783,784,791,798,869,931,985,1023,1042,1058,1065,1066,1066,1063,1047,1040,1031,1025,1021,1018,1018,1019,1020,1023,1030,1032,1034,1038,1042,1051,1052],"ymouse":[483,483,483,483,483,483,483,483,483,483,483,483,483,483,483,483,483,483,483,483,483,483,483,483,483,483,483,483,483,483,483,483,482,481,477,472,422,381,338,303,273,226,210,199,188,173,140,126,114,106,100,94,92,90,88,83,75,72,70,65,62,56,55],"timestamp_mouse":[8,39,44,65,84,104,123,144,164,183,203,223,244,263,284,304,324,343,364,384,404,424,444,464,484,504,523,545,563,583,604,624,645,663,684,703,724,744,763,784,804,823,843,863,884,904,923,944,963,985,1004,1024,1043,1064,1085,1105,1124,1144,1163,1184,1204,1224,1244],"xSR":737,"ySR":442.65000000000003,"xT1":422.2,"yT1":0,"xT2":1051.8,"yT2":0,"toosoon":0,"cond_shown":"equaldotanddens","ratio_trial":750,"smaller_num":"15","larger_num":"20","correct_side":2,"subjID":"MariaPaulaMorianoSalcedo11","gender":"1","age":"11","school":"6"},{"start_time":1551801502161,"click_time":1551801503579,"finger_time":1551801502978,"fix_duration":782.5920801346269,"trial":57,"RT":817,"MT":601,"sideResp":1,"stimulus":"img/900/equaldotsize/L/1_Ratio_900_L_10_R_9.png","xmouse":[768,768,768,768,768,768,768,768,768,768,768,768,768,768,768,768,768,768,768,768,768,768,768,768,768,768,768,768,768,768,768,768,768,768,768,768,768,768,763,758,729,695,653,601,549,463,419,394,377,362,344,341,340,339,338,338,341,346,353,360,366,367,367,367,368,373,375,385,399,421,466],"ymouse":[504,504,504,504,504,504,504,504,504,504,504,504,504,504,504,504,504,504,504,504,504,504,504,504,504,504,504,504,504,504,504,504,504,504,504,504,504,504,501,497,469,443,417,384,347,284,247,228,215,201,183,174,165,156,145,124,108,100,92,87,83,83,83,82,81,79,78,75,71,66,59],"timestamp_mouse":[29,37,56,76,97,116,138,158,177,197,218,236,256,278,296,317,337,356,377,397,417,437,458,478,496,517,537,556,577,597,616,637,657,678,696,717,736,757,777,796,817,837,857,878,897,916,938,957,977,997,1017,1037,1057,1077,1098,1116,1137,1157,1177,1197,1217,1236,1256,1276,1298,1317,1338,1357,1378,1398,1418],"xSR":737,"ySR":442.65000000000003,"xT1":422.2,"yT1":0,"xT2":1051.8,"yT2":0,"toosoon":0,"cond_shown":"equaldotsize","ratio_trial":900,"smaller_num":"9","larger_num":"10","correct_side":1,"subjID":"MariaPaulaMorianoSalcedo11","gender":"1","age":"11","school":"6"},{"start_time":1551801505377,"click_time":1551801506878,"finger_time":1551801505717,"fix_duration":697.5546371151011,"trial":58,"RT":340,"MT":1161,"sideResp":2,"stimulus":"img/250/equaldotsize/R/9_Ratio_250_L_3_R_12.png","xmouse":[800,801,803,803,808,812,812,813,814,816,819,820,821,824,829,836,837,841,842,843,843,843,843,843,843,843,843,843,843,843,843,843,843,843,843,843,843,849,871,911,997,1030,1054,1071,1079,1085,1086,1087,1087,1087,1086,1086,1086,1087,1087,1091,1091,1092,1092,1092,1092,1092,1092,1092,1092,1092,1092,1092,1092,1092,1092,1092,1092,1092,1093,1096],"ymouse":[515,515,515,515,513,512,511,511,511,511,511,511,511,511,511,511,511,511,511,511,511,511,511,511,511,511,511,511,511,511,511,511,511,511,511,511,511,500,470,407,270,212,176,152,136,112,107,104,104,103,104,104,104,104,104,103,103,103,103,103,103,103,103,103,103,103,103,103,103,103,103,103,103,103,102,84],"timestamp_mouse":[9,20,49,62,82,100,121,141,161,181,201,221,241,261,281,301,320,340,360,382,401,421,441,461,481,501,521,540,561,582,601,620,640,661,680,701,721,742,760,780,800,822,841,860,882,900,920,941,962,980,1000,1021,1040,1060,1082,1102,1120,1141,1160,1182,1202,1221,1241,1260,1281,1301,1320,1341,1362,1381,1401,1420,1440,1461,1481,1501],"xSR":737,"ySR":442.65000000000003,"xT1":422.2,"yT1":0,"xT2":1051.8,"yT2":0,"toosoon":0,"cond_shown":"equaldotsize","ratio_trial":250,"smaller_num":"3","larger_num":"12","correct_side":2,"subjID":"MariaPaulaMorianoSalcedo11","gender":"1","age":"11","school":"6"},{"start_time":1551801508451,"click_time":1551801509397,"finger_time":1551801509218,"fix_duration":552.8554335589748,"trial":59,"RT":767,"MT":179,"sideResp":2,"stimulus":"img/900/equaldotsize/R/9_Ratio_900_L_18_R_20.png","xmouse":[790,790,790,790,790,790,790,790,790,790,790,790,790,790,790,790,790,790,790,790,790,790,790,790,790,790,790,790,790,790,790,790,790,790,790,790,794,826,893,968,1002,1043,1063,1075,1088,1104,1141,1148],"ymouse":[487,487,487,487,487,487,487,487,487,487,487,487,487,487,487,487,487,487,487,487,487,487,487,487,487,487,487,487,487,487,487,487,487,487,487,487,487,473,432,370,316,245,216,203,193,178,117,90],"timestamp_mouse":[9,39,47,67,88,106,128,147,168,186,207,227,248,267,286,306,327,347,367,387,406,427,447,466,486,507,526,548,568,587,607,628,646,668,686,706,727,747,767,787,806,826,847,867,888,906,926,946],"xSR":737,"ySR":442.65000000000003,"xT1":422.2,"yT1":0,"xT2":1051.8,"yT2":0,"toosoon":0,"cond_shown":"equaldotsize","ratio_trial":900,"smaller_num":"18","larger_num":"20","correct_side":2,"subjID":"MariaPaulaMorianoSalcedo11","gender":"1","age":"11","school":"6"},{"start_time":1551801511455,"click_time":1551801512597,"finger_time":1551801512177,"fix_duration":355.888560823117,"trial":60,"RT":722,"MT":420,"sideResp":2,"stimulus":"img/500/equaldotsize/R/15_Ratio_500_L_1_R_2.png","xmouse":[759,759,759,759,759,759,759,759,759,759,759,759,759,759,759,759,759,759,759,759,759,759,759,759,759,759,759,759,759,759,759,759,759,759,763,768,821,869,942,1029,1103,1209,1223,1223,1223,1223,1223,1223,1223,1223,1223,1223,1223,1223,1223,1223,1163,1141],"ymouse":[464,464,464,464,464,464,464,464,464,464,464,464,464,464,464,463,463,463,463,463,463,463,463,463,463,463,463,463,463,463,463,463,463,463,462,460,430,391,321,236,150,25,10,10,10,10,10,10,10,10,10,10,10,10,10,10,14,30],"timestamp_mouse":[8,38,42,62,84,103,124,144,163,183,203,224,243,263,282,302,324,342,363,384,402,424,442,462,483,503,523,542,563,582,603,623,643,663,683,704,722,743,762,782,803,822,844,864,883,903,924,943,963,984,1003,1023,1044,1063,1084,1103,1122,1142],"xSR":737,"ySR":442.65000000000003,"xT1":422.2,"yT1":0,"xT2":1051.8,"yT2":0,"toosoon":0,"cond_shown":"equaldotsize","ratio_trial":500,"smaller_num":"1","larger_num":"2","correct_side":2,"subjID":"MariaPaulaMorianoSalcedo11","gender":"1","age":"11","school":"6"},{"start_time":1551801514366,"click_time":1551801515877,"finger_time":1551801515318,"fix_duration":647.2628204381728,"trial":61,"RT":952,"MT":559,"sideResp":1,"stimulus":"img/500/randomdotsizeEA/L/11_Ratio_500_L_12_R_6.png","xmouse":[820,820,820,820,820,820,820,820,820,820,820,820,820,820,820,820,820,820,820,820,820,820,820,820,820,820,820,820,820,820,820,820,820,820,820,820,820,820,820,820,820,820,820,820,820,819,815,808,802,793,776,769,754,737,718,687,682,680,680,680,680,679,677,670,654,617,596,586,580,574,552,537,524,514,509,499],"ymouse":[469,469,469,469,469,469,469,469,469,469,469,469,469,469,469,469,469,469,469,469,469,469,469,469,469,469,469,469,469,469,469,469,469,469,469,469,469,469,469,469,469,469,469,469,469,469,460,440,409,353,236,202,174,151,133,113,110,109,109,109,109,109,109,109,112,119,122,122,122,122,119,117,115,110,106,99],"timestamp_mouse":[14,41,53,72,92,112,133,151,173,191,212,232,253,272,292,312,331,353,371,391,412,432,452,471,491,512,532,553,571,592,611,631,651,671,691,712,732,751,772,791,811,832,851,872,891,911,932,952,973,993,1012,1031,1051,1071,1093,1111,1132,1151,1173,1192,1212,1232,1251,1271,1291,1311,1332,1352,1373,1393,1411,1432,1452,1472,1491,1511],"xSR":737,"ySR":442.65000000000003,"xT1":422.2,"yT1":0,"xT2":1051.8,"yT2":0,"toosoon":0,"cond_shown":"randomdotsizeEA","ratio_trial":500,"smaller_num":"6","larger_num":"12","correct_side":1,"subjID":"MariaPaulaMorianoSalcedo11","gender":"1","age":"11","school":"6"},{"start_time":1551801517406,"click_time":1551801518617,"finger_time":1551801518278,"fix_duration":506.68341249678315,"trial":62,"RT":872,"MT":339,"sideResp":1,"stimulus":"img/250/randomdotsizeEA/L/7_Ratio_250_L_8_R_2.png","xmouse":[770,770,770,770,770,770,770,770,770,770,770,770,770,770,770,770,770,770,770,770,770,770,770,770,770,770,770,770,770,770,770,770,770,770,770,770,770,770,770,769,767,763,753,716,692,665,637,615,576,561,553,549,548,548,548,548,548,547,543,529,511],"ymouse":[457,457,457,457,457,457,457,457,457,457,457,457,457,457,457,457,457,457,457,457,457,457,457,457,457,457,457,457,457,457,457,457,457,457,457,457,457,457,457,457,457,457,444,371,319,262,199,146,79,62,53,50,49,49,49,49,49,49,50,58,67],"timestamp_mouse":[14,36,52,71,91,112,131,152,171,191,213,232,252,272,291,312,332,353,372,392,413,431,452,472,492,512,533,551,571,591,613,631,652,671,691,712,731,751,772,792,813,831,852,872,892,911,933,953,971,993,1012,1031,1052,1072,1093,1112,1133,1152,1173,1193,1211],"xSR":737,"ySR":442.65000000000003,"xT1":422.2,"yT1":0,"xT2":1051.8,"yT2":0,"toosoon":0,"cond_shown":"randomdotsizeEA","ratio_trial":250,"smaller_num":"2","larger_num":"8","correct_side":1,"subjID":"MariaPaulaMorianoSalcedo11","gender":"1","age":"11","school":"6"},{"start_time":1551801520781,"click_time":1551801521577,"finger_time":1551801521397,"fix_duration":1000.0055860572892,"trial":63,"RT":616,"MT":180,"sideResp":