[{"start_time":1551900347784,"click_time":1551900349278,"finger_time":1551900348898,"fix_duration":1321.1990119282384,"trial":0,"RT":1114,"MT":380,"sideResp":2,"stimulus":"img/250/randomdotsizeEA/R/9_Ratio_250_L_3_R_12.png","xmouse":[790,790,790,790,790,790,790,790,790,790,790,790,790,790,790,790,790,790,790,790,790,790,790,790,790,790,790,790,790,790,790,790,790,790,790,790,790,790,790,790,790,790,790,790,790,790,790,790,790,790,790,791,797,806,830,844,858,869,883,886,888,890,894,910,919,932,947,968,1009,1021,1029,1035,1045,1073,1082],"ymouse":[531,531,531,531,531,531,531,531,531,531,531,531,531,531,531,531,531,531,531,531,531,531,531,531,531,531,531,531,531,531,531,531,531,531,531,531,531,531,531,531,531,531,531,531,531,531,531,531,531,531,529,524,517,507,478,462,441,422,389,383,379,373,364,334,315,294,273,247,194,176,161,147,133,104,91],"timestamp_mouse":[16,35,55,75,94,114,134,154,174,195,215,234,255,275,294,315,334,354,374,394,414,436,455,475,495,515,535,555,576,596,615,635,655,676,695,715,735,756,774,794,814,834,854,874,895,915,935,955,975,995,1014,1035,1055,1074,1094,1114,1134,1154,1176,1194,1215,1236,1255,1276,1294,1316,1335,1355,1375,1394,1415,1434,1455,1475,1494],"xSR":741.5,"ySR":469.95,"xT1":424.9,"yT1":0,"xT2":1058.1,"yT2":0,"toosoon":0,"cond_shown":"randomdotsizeEA","ratio_trial":250,"smaller_num":"3","larger_num":"12","correct_side":2,"subjID":"mariasalomesuarezvenegas10","gender":"1","age":"11","school":"6","test":{"fix_dur":[250,1500],"timestim":300,"targets_dim":[100,100],"targets_relative_coord":[0.3,0.7],"size_stim":[880,420],"start_dim":[100,100],"size_start":[300,300],"size_fix":60,"samplingrate":20,"img_types":["equaldotsize","equaldotanddens","randomdotsizeEA"],"ratios":[250,500,750,900],"rep_conds":9,"nTrials":120,"trials_to_rest":500,"Trials_order":[38,60,11,3,67,2,94,31,44,70,35,68,41,43,111,16,117,85,49,33,53,91,98,9,71,80,26,50,77,48,100,110,39,12,46,72,56,108,76,84,102,61,55,29,15,21,32,13,45,42,14,30,119,75,1,86,113,69,78,109,97,87,59,57,88,37,58,20,83,6,18,54,0,95,51,24,5,107,22,65,81,73,10,17,34,40,114,90,63,7,36,25,52,82,74,47,96,4,106,104,99,103,112,101,28,105,23,19,115,27,93,116,66,64,92,8,118,89,62,79],"cond_shown":["randomdotsizeEA","equaldotsize","randomdotsizeEA","equaldotsize","equaldotanddens","randomdotsizeEA","equaldotanddens","equaldotanddens","randomdotsizeEA","equaldotanddens","randomdotsizeEA","randomdotsizeEA","randomdotsizeEA","equaldotanddens","equaldotsize","equaldotanddens","equaldotsize","equaldotanddens","equaldotanddens","equaldotsize","randomdotsizeEA","equaldotanddens","randomdotsizeEA","equaldotsize","randomdotsizeEA","randomdotsizeEA","randomdotsizeEA","randomdotsizeEA","randomdotsizeEA","equaldotsize","equaldotanddens","randomdotsizeEA","equaldotsize","equaldotsize","equaldotanddens","equaldotsize","randomdotsizeEA","equaldotsize","equaldotanddens","equaldotsize","equaldotsize","equaldotanddens","equaldotanddens","randomdotsizeEA","equaldotsize","equaldotsize","randomdotsizeEA","equaldotanddens","equaldotsize","equaldotsize","randomdotsizeEA","equaldotsize","randomdotsizeEA","equaldotsize","equaldotanddens","randomdotsizeEA","randomdotsizeEA","equaldotsize","equaldotsize","equaldotanddens","equaldotanddens","equaldotsize","randomdotsizeEA","equaldotsize","equaldotanddens","equaldotanddens","equaldotanddens","randomdotsizeEA","randomdotsizeEA","equaldotsize","equaldotsize","equaldotsize","equaldotsize","randomdotsizeEA","equaldotsize","equaldotsize","randomdotsizeEA","randomdotsizeEA","equaldotanddens","randomdotsizeEA","equaldotsize","equaldotanddens","equaldotanddens","randomdotsizeEA","equaldotanddens","equaldotanddens","equaldotsize","equaldotsize","equaldotsize","equaldotanddens","equaldotsize","equaldotanddens","equaldotanddens","equaldotanddens","randomdotsizeEA","randomdotsizeEA","equaldotsize","equaldotanddens","equaldotanddens","randomdotsizeEA","equaldotsize","equaldotanddens","equaldotanddens","randomdotsizeEA","equaldotanddens","equaldotsize","randomdotsizeEA","equaldotanddens","equaldotanddens","equaldotsize","equaldotsize","randomdotsizeEA","equaldotsize","equaldotanddens","randomdotsizeEA","randomdotsizeEA","equaldotanddens","randomdotsizeEA","randomdotsizeEA","equaldotanddens"],"ratio_trial":[250,250,900,500,750,250,900,750,750,900,900,750,500,750,500,500,900,250,250,900,500,750,250,900,900,750,250,250,500,250,500,250,500,250,900,250,750,250,500,250,750,250,750,500,500,900,750,250,900,750,250,750,900,500,250,250,500,900,750,250,250,500,900,900,500,250,900,750,900,750,750,750,250,900,500,250,500,900,900,500,900,250,900,500,900,500,750,750,500,750,250,250,500,900,250,900,250,500,900,750,500,750,500,500,500,900,900,750,750,500,900,750,750,500,750,750,900,500,250,750],"smaller_num":["3","3","18","1","3","3","18","3","15","18","18","3","9","3","10","10","9","2","3","9","10","15","3","18","18","3","3","3","3","2","9","6","3","3","18","4","6","6","2","3","6","2","15","1","6","9","9","1","18","9","3","6","9","3","3","2","10","18","3","3","3","2","18","18","1","2","18","3","18","3","3","6","3","18","5","3","3","18","18","3","9","3","9","5","18","1","9","12","1","3","3","6","1","9","3","9","1","5","9","15","9","15","2","6","6","18","9","3","3","2","18","6","3","6","15","12","9","5","4","18"],"larger_num":["12","12","20","2","4","12","20","4","20","20","20","4","18","4","20","20","10","8","12","10","20","20","12","20","20","4","12","12","6","8","18","24","6","12","20","16","8","24","4","12","8","8","20","2","12","10","12","4","20","12","12","8","10","6","12","8","20","20","4","12","12","4","20","20","2","8","20","4","20","4","4","8","12","20","10","12","6","20","20","6","10","12","10","10","20","2","12","16","2","4","12","24","2","10","12","10","4","10","10","20","18","20","4","12","12","20","10","4","4","4","20","8","4","12","20","16","10","10","16","24"],"correct_side":[2,2,2,2,1,1,1,2,1,1,1,2,2,2,2,2,2,2,2,2,2,2,2,2,1,1,2,1,2,1,2,2,2,1,2,1,2,1,1,2,1,1,2,2,1,1,2,2,2,2,2,2,2,2,1,1,2,1,1,1,2,1,1,2,2,1,1,1,2,1,1,1,2,1,1,1,2,2,2,2,1,2,2,2,1,2,2,2,2,1,2,1,2,2,2,1,2,2,1,2,2,2,2,1,1,1,2,1,1,1,2,1,1,1,2,2,2,1,2,1],"img_shown":["img/250/randomdotsizeEA/R/9_Ratio_250_L_3_R_12.png","img/250/equaldotsize/R/11_Ratio_250_L_3_R_12.png","img/900/randomdotsizeEA/R/14_Ratio_900_L_18_R_20.png","img/500/equaldotsize/R/12_Ratio_500_L_1_R_2.png","img/750/equaldotanddens/L/10_Ratio_750_L_4_R_3.png","img/250/randomdotsizeEA/L/15_Ratio_250_L_12_R_3.png","img/900/equaldotanddens/L/10_Ratio_900_L_20_R_18.png","img/750/equaldotanddens/R/7_Ratio_750_L_3_R_4.png","img/750/randomdotsizeEA/L/1_Ratio_750_L_20_R_15.png","img/900/equaldotanddens/L/2_Ratio_900_L_20_R_18.png","img/900/randomdotsizeEA/L/2_Ratio_900_L_20_R_18.png","img/750/randomdotsizeEA/R/7_Ratio_750_L_3_R_4.png","img/500/randomdotsizeEA/R/1_Ratio_500_L_9_R_18.png","img/750/equaldotanddens/R/7_Ratio_750_L_3_R_4.png","img/500/equaldotsize/R/3_Ratio_500_L_10_R_20.png","img/500/equaldotanddens/R/3_Ratio_500_L_10_R_20.png","img/900/equaldotsize/R/3_Ratio_900_L_9_R_10.png","img/250/equaldotanddens/R/13_Ratio_250_L_2_R_8.png","img/250/equaldotanddens/R/11_Ratio_250_L_3_R_12.png","img/900/equaldotsize/R/15_Ratio_900_L_9_R_10.png","img/500/randomdotsizeEA/R/3_Ratio_500_L_10_R_20.png","img/750/equaldotanddens/R/3_Ratio_750_L_15_R_20.png","img/250/randomdotsizeEA/R/9_Ratio_250_L_3_R_12.png","img/900/equaldotsize/R/12_Ratio_900_L_18_R_20.png","img/900/randomdotsizeEA/L/8_Ratio_900_L_20_R_18.png","img/750/randomdotsizeEA/L/8_Ratio_750_L_4_R_3.png","img/250/randomdotsizeEA/R/4_Ratio_250_L_3_R_12.png","img/250/randomdotsizeEA/L/15_Ratio_250_L_12_R_3.png","img/500/randomdotsizeEA/R/2_Ratio_500_L_3_R_6.png","img/250/equaldotsize/L/3_Ratio_250_L_8_R_2.png","img/500/equaldotanddens/R/6_Ratio_500_L_9_R_18.png","img/250/randomdotsizeEA/R/6_Ratio_250_L_6_R_24.png","img/500/equaldotsize/R/2_Ratio_500_L_3_R_6.png","img/250/equaldotsize/L/14_Ratio_250_L_12_R_3.png","img/900/equaldotanddens/R/9_Ratio_900_L_18_R_20.png","img/250/equaldotsize/L/2_Ratio_250_L_16_R_4.png","img/750/randomdotsizeEA/R/2_Ratio_750_L_6_R_8.png","img/250/equaldotsize/L/5_Ratio_250_L_24_R_6.png","img/500/equaldotanddens/L/5_Ratio_500_L_4_R_2.png","img/250/equaldotsize/R/11_Ratio_250_L_3_R_12.png","img/750/equaldotsize/L/13_Ratio_750_L_8_R_6.png","img/250/equaldotanddens/L/3_Ratio_250_L_8_R_2.png","img/750/equaldotanddens/R/5_Ratio_750_L_15_R_20.png","img/500/randomdotsizeEA/R/12_Ratio_500_L_1_R_2.png","img/500/equaldotsize/L/13_Ratio_500_L_12_R_6.png","img/900/equaldotsize/L/1_Ratio_900_L_10_R_9.png","img/750/randomdotsizeEA/R/15_Ratio_750_L_9_R_12.png","img/250/equaldotanddens/R/8_Ratio_250_L_1_R_4.png","img/900/equaldotsize/R/13_Ratio_900_L_18_R_20.png","img/750/equaldotsize/R/15_Ratio_750_L_9_R_12.png","img/250/randomdotsizeEA/R/11_Ratio_250_L_3_R_12.png","img/750/equaldotsize/R/2_Ratio_750_L_6_R_8.png","img/900/randomdotsizeEA/R/7_Ratio_900_L_9_R_10.png","img/500/equaldotsize/R/2_Ratio_500_L_3_R_6.png","img/250/equaldotanddens/L/14_Ratio_250_L_12_R_3.png","img/250/randomdotsizeEA/L/7_Ratio_250_L_8_R_2.png","img/500/randomdotsizeEA/R/3_Ratio_500_L_10_R_20.png","img/900/equaldotsize/L/10_Ratio_900_L_20_R_18.png","img/750/equaldotsize/L/8_Ratio_750_L_4_R_3.png","img/250/equaldotanddens/L/15_Ratio_250_L_12_R_3.png","img/250/equaldotanddens/R/4_Ratio_250_L_3_R_12.png","img/500/equaldotsize/L/5_Ratio_500_L_4_R_2.png","img/900/randomdotsizeEA/L/4_Ratio_900_L_20_R_18.png","img/900/equaldotsize/R/12_Ratio_900_L_18_R_20.png","img/500/equaldotanddens/R/12_Ratio_500_L_1_R_2.png","img/250/equaldotanddens/L/3_Ratio_250_L_8_R_2.png","img/900/equaldotanddens/L/8_Ratio_900_L_20_R_18.png","img/750/randomdotsizeEA/L/8_Ratio_750_L_4_R_3.png","img/900/randomdotsizeEA/R/12_Ratio_900_L_18_R_20.png","img/750/equaldotsize/L/9_Ratio_750_L_4_R_3.png","img/750/equaldotsize/L/8_Ratio_750_L_4_R_3.png","img/750/equaldotsize/L/13_Ratio_750_L_8_R_6.png","img/250/equaldotsize/R/4_Ratio_250_L_3_R_12.png","img/900/randomdotsizeEA/L/4_Ratio_900_L_20_R_18.png","img/500/equaldotsize/L/7_Ratio_500_L_10_R_5.png","img/250/equaldotsize/L/14_Ratio_250_L_12_R_3.png","img/500/randomdotsizeEA/R/2_Ratio_500_L_3_R_6.png","img/900/randomdotsizeEA/R/11_Ratio_900_L_18_R_20.png","img/900/equaldotanddens/R/11_Ratio_900_L_18_R_20.png","img/500/randomdotsizeEA/R/2_Ratio_500_L_3_R_6.png","img/900/equaldotsize/L/1_Ratio_900_L_10_R_9.png","img/250/equaldotanddens/R/9_Ratio_250_L_3_R_12.png","img/900/equaldotanddens/R/6_Ratio_900_L_9_R_10.png","img/500/randomdotsizeEA/R/14_Ratio_500_L_5_R_10.png","img/900/equaldotanddens/L/4_Ratio_900_L_20_R_18.png","img/500/equaldotanddens/R/15_Ratio_500_L_1_R_2.png","img/750/equaldotsize/R/15_Ratio_750_L_9_R_12.png","img/750/equaldotsize/R/11_Ratio_750_L_12_R_16.png","img/500/equaldotsize/R/12_Ratio_500_L_1_R_2.png","img/750/equaldotanddens/L/8_Ratio_750_L_4_R_3.png","img/250/equaldotsize/R/9_Ratio_250_L_3_R_12.png","img/250/equaldotanddens/L/5_Ratio_250_L_24_R_6.png","img/500/equaldotanddens/R/15_Ratio_500_L_1_R_2.png","img/900/equaldotanddens/R/6_Ratio_900_L_9_R_10.png","img/250/randomdotsizeEA/R/11_Ratio_250_L_3_R_12.png","img/900/randomdotsizeEA/L/1_Ratio_900_L_10_R_9.png","img/250/equaldotsize/R/8_Ratio_250_L_1_R_4.png","img/500/equaldotanddens/R/14_Ratio_500_L_5_R_10.png","img/900/equaldotanddens/L/1_Ratio_900_L_10_R_9.png","img/750/randomdotsizeEA/R/5_Ratio_750_L_15_R_20.png","img/500/equaldotsize/R/1_Ratio_500_L_9_R_18.png","img/750/equaldotanddens/R/4_Ratio_750_L_15_R_20.png","img/500/equaldotanddens/R/9_Ratio_500_L_2_R_4.png","img/500/randomdotsizeEA/L/11_Ratio_500_L_12_R_6.png","img/500/equaldotanddens/L/13_Ratio_500_L_12_R_6.png","img/900/equaldotsize/L/8_Ratio_900_L_20_R_18.png","img/900/randomdotsizeEA/R/15_Ratio_900_L_9_R_10.png","img/750/equaldotanddens/L/9_Ratio_750_L_4_R_3.png","img/750/equaldotanddens/L/9_Ratio_750_L_4_R_3.png","img/500/equaldotsize/L/5_Ratio_500_L_4_R_2.png","img/900/equaldotsize/R/12_Ratio_900_L_18_R_20.png","img/750/randomdotsizeEA/L/13_Ratio_750_L_8_R_6.png","img/750/equaldotsize/L/8_Ratio_750_L_4_R_3.png","img/500/equaldotanddens/L/13_Ratio_500_L_12_R_6.png","img/750/randomdotsizeEA/R/5_Ratio_750_L_15_R_20.png","img/750/randomdotsizeEA/R/11_Ratio_750_L_12_R_16.png","img/900/equaldotanddens/R/15_Ratio_900_L_9_R_10.png","img/500/randomdotsizeEA/L/7_Ratio_500_L_10_R_5.png","img/250/randomdotsizeEA/R/10_Ratio_250_L_4_R_16.png","img/750/equaldotanddens/L/6_Ratio_750_L_24_R_18.png"],"Rat0":[["12_Ratio_0_L_9_R_0.png","13_Ratio_0_L_6_R_0.png","5_Ratio_0_L_2_R_0.png","6_Ratio_0_L_4_R_0.png","8_Ratio_0_L_6_R_0.png"],["1_Ratio_0_L_0_R_17.png","10_Ratio_0_L_0_R_22.png","11_Ratio_0_L_0_R_1.png","14_Ratio_0_L_0_R_24.png","15_Ratio_0_L_0_R_4.png","2_Ratio_0_L_0_R_5.png","3_Ratio_0_L_0_R_17.png","4_Ratio_0_L_0_R_7.png","7_Ratio_0_L_0_R_19.png","9_Ratio_0_L_0_R_15.png"]],"Rat250":[["1_Ratio_250_L_8_R_2.png","14_Ratio_250_L_12_R_3.png","15_Ratio_250_L_12_R_3.png","2_Ratio_250_L_16_R_4.png","3_Ratio_250_L_8_R_2.png","5_Ratio_250_L_24_R_6.png","7_Ratio_250_L_8_R_2.png"],["10_Ratio_250_L_4_R_16.png","11_Ratio_250_L_3_R_12.png","12_Ratio_250_L_5_R_20.png","13_Ratio_250_L_2_R_8.png","4_Ratio_250_L_3_R_12.png","6_Ratio_250_L_6_R_24.png","8_Ratio_250_L_1_R_4.png","9_Ratio_250_L_3_R_12.png"]],"Rat500":[["10_Ratio_500_L_4_R_2.png","11_Ratio_500_L_12_R_6.png","13_Ratio_500_L_12_R_6.png","4_Ratio_500_L_18_R_9.png","5_Ratio_500_L_4_R_2.png","7_Ratio_500_L_10_R_5.png","8_Ratio_500_L_8_R_4.png"],["1_Ratio_500_L_9_R_18.png","12_Ratio_500_L_1_R_2.png","14_Ratio_500_L_5_R_10.png","15_Ratio_500_L_1_R_2.png","2_Ratio_500_L_3_R_6.png","3_Ratio_500_L_10_R_20.png","6_Ratio_500_L_9_R_18.png","9_Ratio_500_L_2_R_4.png"]],"Rat750":[["1_Ratio_750_L_20_R_15.png","10_Ratio_750_L_4_R_3.png","13_Ratio_750_L_8_R_6.png","14_Ratio_750_L_8_R_6.png","6_Ratio_750_L_24_R_18.png","8_Ratio_750_L_4_R_3.png","9_Ratio_750_L_4_R_3.png"],["11_Ratio_750_L_12_R_16.png","12_Ratio_750_L_3_R_4.png","15_Ratio_750_L_9_R_12.png","2_Ratio_750_L_6_R_8.png","3_Ratio_750_L_15_R_20.png","4_Ratio_750_L_15_R_20.png","5_Ratio_750_L_15_R_20.png","7_Ratio_750_L_3_R_4.png"]],"Rat900":[["1_Ratio_900_L_10_R_9.png","10_Ratio_900_L_20_R_18.png","2_Ratio_900_L_20_R_18.png","4_Ratio_900_L_20_R_18.png","8_Ratio_900_L_20_R_18.png"],["11_Ratio_900_L_18_R_20.png","12_Ratio_900_L_18_R_20.png","13_Ratio_900_L_18_R_20.png","14_Ratio_900_L_18_R_20.png","15_Ratio_900_L_9_R_10.png","3_Ratio_900_L_9_R_10.png","5_Ratio_900_L_9_R_10.png","6_Ratio_900_L_9_R_10.png","7_Ratio_900_L_9_R_10.png","9_Ratio_900_L_18_R_20.png"]],"Rat1000":[["10_Ratio_1000_L_16_R_16.png","11_Ratio_1000_L_6_R_6.png","12_Ratio_1000_L_14_R_14.png","13_Ratio_1000_L_20_R_20.png","15_Ratio_1000_L_15_R_15.png","2_Ratio_1000_L_17_R_17.png","4_Ratio_1000_L_9_R_9.png","5_Ratio_1000_L_6_R_6.png","6_Ratio_1000_L_19_R_19.png","8_Ratio_1000_L_14_R_14.png","9_Ratio_1000_L_25_R_25.png"],["1_Ratio_1000_L_1_R_1.png","14_Ratio_1000_L_17_R_17.png","3_Ratio_1000_L_17_R_17.png","7_Ratio_1000_L_6_R_6.png"]]}},{"start_time":1551900350955,"click_time":1551900352260,"finger_time":1551900351838,"fix_duration":594.0045407119966,"trial":1,"RT":883,"MT":422,"sideResp":2,"stimulus":"img/250/equaldotsize/R/11_Ratio_250_L_3_R_12.png","xmouse":[812,812,812,812,812,812,812,812,812,812,812,812,812,812,815,816,820,820,820,820,820,820,820,820,820,820,820,820,820,820,820,820,820,820,820,820,820,820,820,820,820,821,825,836,847,860,886,899,916,935,955,956,959,966,977,988,990,995,1008,1038,1067,1073,1074,1075,1076,1091],"ymouse":[509,509,509,509,509,509,509,509,509,509,509,509,509,509,510,511,513,513,513,513,513,514,514,514,514,514,514,514,514,514,514,514,514,514,514,514,514,514,514,514,514,514,503,480,456,434,386,359,321,284,250,247,243,234,219,203,197,191,177,154,128,124,122,120,118,98],"timestamp_mouse":[12,30,43,63,84,103,123,143,163,183,203,223,243,263,283,304,324,344,364,385,404,424,444,464,485,504,524,543,563,584,603,623,643,663,684,703,724,744,763,783,803,824,843,864,883,904,923,943,963,983,1005,1023,1043,1064,1084,1104,1123,1144,1164,1184,1204,1223,1243,1264,1284,1305],"xSR":741.5,"ySR":469.95,"xT1":424.9,"yT1":0,"xT2":1058.1,"yT2":0,"toosoon":0,"cond_shown":"equaldotsize","ratio_trial":250,"smaller_num":"3","larger_num":"12","correct_side":2,"subjID":"mariasalomesuarezvenegas10","gender":"1","age":"11","school":"6"},{"start_time":1551900353921,"click_time":1551900356678,"finger_time":1551900356099,"fix_duration":781.6672335494686,"trial":2,"RT":2178,"MT":579,"sideResp":2,"stimulus":"img/900/randomdotsizeEA/R/14_Ratio_900_L_18_R_20.png","xmouse":[806,806,806,806,806,806,806,806,806,806,806,806,806,806,806,806,806,806,806,806,806,806,806,806,806,806,806,806,806,806,806,806,806,806,806,806,806,806,806,806,806,806,806,806,806,806,806,806,806,806,806,806,806,806,806,806,806,806,806,806,806,806,806,806,806,806,806,806,806,806,806,806,806,806,806,806,806,806,806,806,806,806,806,806,806,806,806,806,806,806,806,806,806,806,806,806,806,805,805,805,805,805,805,805,805,805,805,824,845,859,866,870,876,877,882,885,897,906,914,923,925,930,936,942,950,958,973,984,996,1010,1028,1033,1047,1049,1051,1059,1073,1083],"ymouse":[531,531,531,531,531,531,531,531,531,531,531,531,531,531,531,531,531,531,531,531,531,531,531,531,531,531,531,531,531,531,531,531,531,531,531,531,531,531,531,531,531,531,531,531,531,531,531,531,531,531,531,531,531,531,531,531,531,531,531,531,531,531,531,531,531,531,531,531,531,531,531,531,531,531,531,531,531,531,531,531,531,531,531,531,531,531,531,531,531,531,531,531,531,531,531,531,531,531,531,531,531,531,531,531,528,526,522,483,446,422,408,398,380,377,368,359,333,317,304,289,286,273,263,255,246,236,215,202,189,173,152,146,132,129,126,117,106,99],"timestamp_mouse":[22,39,58,77,99,118,138,158,178,198,217,237,257,277,297,317,338,357,377,397,417,438,457,477,497,517,537,558,578,597,617,637,657,678,697,719,737,758,778,798,819,839,858,878,897,917,937,957,977,998,1017,1037,1058,1077,1097,1118,1138,1157,1177,1197,1217,1237,1257,1277,1297,1317,1337,1357,1377,1397,1417,1438,1457,1478,1497,1517,1537,1558,1577,1598,1617,1637,1657,1677,1698,1719,1738,1758,1777,1797,1817,1837,1857,1877,1897,1918,1937,1958,1977,1997,2017,2038,2058,2077,2098,2118,2137,2157,2178,2198,2218,2238,2257,2277,2297,2318,2338,2357,2377,2398,2417,2439,2457,2478,2498,2518,2539,2557,2577,2598,2617,2637,2657,2677,2697,2717,2738,2757],"xSR":741.5,"ySR":469.95,"xT1":424.9,"yT1":0,"xT2":1058.1,"yT2":0,"toosoon":0,"cond_shown":"randomdotsizeEA","ratio_trial":900,"smaller_num":"18","larger_num":"20","correct_side":2,"subjID":"mariasalomesuarezvenegas10","gender":"1","age":"11","school":"6"},{"start_time":1551900357789,"click_time":1551900359198,"finger_time":1551900358598,"fix_duration":250,"trial":3,"RT":809,"MT":600,"sideResp":2,"stimulus":"img/500/equaldotsize/R/12_Ratio_500_L_1_R_2.png","xmouse":[794,794,794,794,794,794,794,794,794,794,794,794,794,794,794,794,794,794,794,794,794,794,794,794,794,794,794,794,794,794,794,794,794,794,794,798,802,805,811,813,818,825,834,841,856,866,880,897,917,965,981,993,1004,1010,1021,1024,1029,1036,1043,1044,1045,1045,1045,1053,1066,1075,1077,1078,1078,1087,1102],"ymouse":[522,522,522,522,522,522,522,522,522,522,522,522,522,522,522,522,522,522,522,522,522,522,522,522,522,522,522,522,522,522,522,522,522,522,521,518,514,510,494,480,462,442,423,406,371,354,334,311,288,232,212,196,181,172,158,155,152,146,141,141,141,140,140,136,125,120,118,116,116,106,97],"timestamp_mouse":[9,30,51,71,90,109,129,149,170,189,209,229,249,269,289,309,329,349,369,389,410,429,449,469,489,509,529,549,570,590,610,630,649,669,689,709,730,749,770,789,809,829,850,871,889,909,929,950,970,990,1009,1030,1050,1069,1089,1109,1130,1149,1169,1191,1209,1230,1250,1270,1290,1309,1330,1349,1369,1389,1409],"xSR":741.5,"ySR":469.95,"xT1":424.9,"yT1":0,"xT2":1058.1,"yT2":0,"toosoon":0,"cond_shown":"equaldotsize","ratio_trial":500,"smaller_num":"1","larger_num":"2","correct_side":2,"subjID":"mariasalomesuarezvenegas10","gender":"1","age":"11","school":"6"},{"start_time":1551900362420,"click_time":1551900364478,"finger_time":1551900363978,"fix_duration":1021.293881696092,"trial":4,"RT":1558,"MT":500,"sideResp":1,"stimulus":"img/750/equaldotanddens/L/10_Ratio_750_L_4_R_3.png","xmouse":[765,765,765,765,765,765,765,765,765,765,765,765,765,765,765,765,765,765,765,765,765,765,765,765,765,765,765,765,765,765,765,765,765,765,765,765,765,765,765,765,765,765,764,764,763,761,746,744,743,743,742,742,742,742,742,742,742,742,742,742,742,742,742,742,742,742,742,742,742,742,742,742,742,742,742,742,742,737,726,713,703,685,680,678,676,672,663,661,657,653,647,630,625,620,611,597,552,540,534,531,528,526,522],"ymouse":[534,534,534,534,534,534,534,534,534,534,534,534,534,534,534,534,534,534,534,534,534,534,534,534,534,534,534,534,534,534,534,534,534,534,534,534,534,534,534,534,534,534,534,534,533,532,522,520,520,520,519,519,519,519,519,519,519,519,519,519,519,519,519,519,519,519,519,519,519,519,519,519,519,519,519,519,518,486,447,415,393,357,339,321,300,281,252,246,240,230,220,199,193,187,175,160,120,109,103,97,93,87,81],"timestamp_mouse":[19,44,59,78,98,118,138,158,178,199,218,239,258,278,298,318,338,358,378,398,420,438,458,478,498,518,539,558,578,598,618,638,658,678,698,718,738,758,778,800,819,839,859,879,898,920,939,959,979,998,1018,1038,1058,1078,1098,1118,1139,1158,1179,1199,1219,1239,1259,1279,1299,1319,1338,1359,1380,1399,1420,1439,1458,1478,1498,1518,1538,1558,1578,1598,1619,1640,1658,1678,1699,1719,1740,1758,1778,1798,1819,1840,1858,1878,1898,1918,1939,1958,1979,1999,2018,2040,2058],"xSR":741.5,"ySR":469.95,"xT1":424.9,"yT1":0,"xT2":1058.1,"yT2":0,"toosoon":0,"cond_shown":"equaldotanddens","ratio_trial":750,"smaller_num":"3","larger_num":"4","correct_side":1,"subjID":"mariasalomesuarezvenegas10","gender":"1","age":"11","school":"6"},{"start_time":1551900365948,"click_time":1551900367339,"finger_time":1551900366978,"fix_duration":428.41476808602886,"trial":5,"RT":1030,"MT":361,"sideResp":1,"stimulus":"img/250/randomdotsizeEA/L/15_Ratio_250_L_12_R_3.png","xmouse":[789,789,789,789,789,789,789,789,789,789,789,789,789,789,789,789,789,789,789,789,789,789,789,788,788,787,787,787,787,787,787,787,787,787,787,787,787,787,787,787,787,787,787,787,786,785,784,783,780,764,758,719,701,683,672,642,631,626,620,614,609,595,589,584,578,573,567,558,530,497],"ymouse":[535,535,535,535,535,535,535,535,535,535,535,535,535,535,535,535,535,535,535,535,535,535,535,535,536,537,537,538,538,538,538,538,538,538,538,538,538,538,538,538,537,534,533,530,528,527,523,520,515,501,496,466,449,430,412,370,356,347,334,317,295,242,223,202,185,172,160,151,124,99],"timestamp_mouse":[10,30,53,70,91,110,131,151,172,191,211,231,251,271,292,311,331,350,370,390,410,430,451,472,490,510,530,550,571,591,612,631,651,671,691,711,730,751,770,791,810,831,850,870,891,910,930,950,970,990,1010,1030,1050,1072,1091,1111,1130,1151,1171,1190,1211,1230,1251,1270,1291,1311,1330,1352,1371,1391],"xSR":741.5,"ySR":469.95,"xT1":424.9,"yT1":0,"xT2":1058.1,"yT2":0,"toosoon":0,"cond_shown":"randomdotsizeEA","ratio_trial":250,"smaller_num":"3","larger_num":"12","correct_side":1,"subjID":"mariasalomesuarezvenegas10","gender":"1","age":"11","school":"6"},{"start_time":1551900371123,"click_time":1551900372559,"finger_time":1551900372159,"fix_duration":622.823686770478,"trial":6,"RT":1036,"MT":400,"sideResp":1,"stimulus":"img/900/equaldotanddens/L/10_Ratio_900_L_20_R_18.png","xmouse":[791,791,791,791,791,791,791,791,791,791,791,791,791,791,791,791,791,791,791,791,791,791,791,791,791,791,791,791,791,791,791,791,791,791,791,791,791,791,791,791,791,791,791,791,791,791,791,789,782,775,764,741,732,723,714,707,698,675,659,646,631,607,603,598,593,585,558,540,522,499,482,454],"ymouse":[549,549,549,549,549,549,549,549,549,549,549,549,549,549,549,549,549,549,549,549,549,549,549,549,549,549,549,549,549,549,549,549,549,549,549,549,549,549,549,549,549,549,549,549,549,549,546,542,532,521,502,453,434,419,410,401,390,362,339,318,298,270,266,260,254,243,217,197,176,153,135,99],"timestamp_mouse":[22,35,57,76,97,116,136,155,175,195,215,235,255,275,295,315,336,356,375,395,415,435,455,475,495,515,535,555,575,596,616,635,656,676,695,715,735,755,776,795,815,835,856,877,897,916,936,955,976,996,1015,1036,1055,1076,1096,1116,1137,1155,1175,1195,1216,1237,1255,1276,1296,1316,1336,1355,1376,1396,1416,1436],"xSR":741.5,"ySR":469.95,"xT1":424.9,"yT1":0,"xT2":1058.1,"yT2":0,"toosoon":0,"cond_shown":"equaldotanddens","ratio_trial":900,"smaller_num":"18","larger_num":"20","correct_side":1,"subjID":"mariasalomesuarezvenegas10","gender":"1","age":"11","school":"6"},{"start_time":1551900373877,"click_time":1551900375960,"finger_time":1551900375439,"fix_duration":257.5505174018473,"trial":7,"RT":1562,"MT":521,"sideResp":2,"stimulus":"img/750/equaldotanddens/R/7_Ratio_750_L_3_R_4.png","xmouse":[775,775,775,775,775,775,775,775,775,775,775,775,775,775,775,775,775,775,775,775,775,775,775,775,775,775,775,775,775,775,775,775,775,775,777,778,780,782,783,785,785,785,785,785,785,785,785,785,785,785,785,785,785,785,785,785,785,785,784,782,779,778,778,778,778,778,778,778,778,778,778,778,778,779,780,784,789,799,809,827,834,839,847,869,878,922,938,948,962,1004,1028,1049,1065,1073,1076,1086,1091,1095,1098,1101,1101,1102,1102,1102,1102],"ymouse":[536,536,536,536,536,536,536,536,536,536,536,536,536,536,536,536,536,536,536,536,536,536,536,536,536,536,536,536,536,536,536,536,536,535,529,528,525,523,520,516,514,512,511,510,510,510,510,510,510,510,510,510,510,509,509,509,509,509,509,510,514,518,518,519,519,519,519,519,519,519,520,520,521,522,522,522,513,494,469,409,386,365,347,316,306,253,234,222,207,178,166,157,151,147,144,139,136,133,130,125,121,118,111,101,84],"timestamp_mouse":[9,29,42,61,81,101,123,142,162,182,201,221,243,262,281,301,321,341,361,381,401,422,441,461,481,502,522,542,561,581,601,621,641,662,682,701,721,741,762,782,801,822,841,862,883,902,922,942,962,982,1001,1021,1041,1061,1082,1101,1121,1141,1161,1181,1201,1221,1241,1262,1282,1303,1322,1343,1363,1382,1402,1422,1441,1461,1481,1501,1521,1542,1562,1582,1601,1621,1642,1661,1682,1701,1721,1742,1761,1782,1801,1822,1841,1861,1881,1901,1921,1941,1961,1982,2001,2022,2042,2061,2082],"xSR":741.5,"ySR":469.95,"xT1":424.9,"yT1":0,"xT2":1058.1,"yT2":0,"toosoon":0,"cond_shown":"equaldotanddens","ratio_trial":750,"smaller_num":"3","larger_num":"4","correct_side":2,"subjID":"mariasalomesuarezvenegas10","gender":"1","age":"11","school":"6"},{"start_time":1551900378611,"click_time":1551900380059,"finger_time":1551900379539,"fix_duration":250,"trial":8,"RT":928,"MT":520,"sideResp":1,"stimulus":"img/750/randomdotsizeEA/L/1_Ratio_750_L_20_R_15.png","xmouse":[758,758,758,758,758,758,758,758,758,758,758,758,758,758,758,758,758,758,758,758,758,758,758,758,758,758,758,758,758,758,758,758,758,758,758,758,758,758,758,758,758,758,758,758,758,752,738,713,644,625,611,602,577,566,552,541,534,526,507,501,497,496,495,493,493,493,493,493,493,493,493,493,492],"ymouse":[537,537,537,537,537,537,537,537,537,537,537,537,537,537,537,537,537,537,537,537,537,537,537,537,537,537,537,537,537,537,537,537,537,537,537,537,537,537,537,537,537,537,537,537,537,517,490,443,344,314,296,285,252,240,227,216,206,197,164,151,143,138,135,127,122,117,113,110,108,105,103,100,97],"timestamp_mouse":[14,36,48,68,88,108,128,147,167,187,208,228,247,267,288,307,327,347,367,387,407,428,447,467,487,507,527,547,568,587,607,627,647,667,687,707,727,748,768,788,807,828,849,868,888,907,928,948,967,987,1007,1028,1048,1067,1087,1108,1127,1148,1167,1187,1208,1228,1249,1267,1288,1307,1327,1347,1367,1387,1407,1427,1448],"xSR":741.5,"ySR":469.95,"xT1":424.9,"yT1":0,"xT2":1058.1,"yT2":0,"toosoon":0,"cond_shown":"randomdotsizeEA","ratio_trial":750,"smaller_num":"15","larger_num":"20","correct_side":1,"subjID":"mariasalomesuarezvenegas10","gender":"1","age":"11","school":"6"},{"start_time":1551900381908,"click_time":1551900383259,"finger_time":1551900382759,"fix_duration":1028.2196459152726,"trial":9,"RT":851,"MT":500,"sideResp":1,"stimulus":"img/900/equaldotanddens/L/2_Ratio_900_L_20_R_18.png","xmouse":[775,775,775,775,775,775,775,775,775,775,775,775,775,775,775,775,775,775,775,775,775,775,775,775,775,775,775,775,775,775,775,775,775,775,775,775,775,775,775,775,773,767,725,709,702,695,689,678,654,642,630,618,606,577,568,558,551,546,536,533,530,529,525,520,513,508,497,470],"ymouse":[510,510,510,510,510,510,510,510,510,510,510,510,510,510,510,510,510,510,510,510,510,510,510,510,510,510,510,510,510,510,510,510,510,510,510,510,510,510,510,510,508,504,475,464,458,450,442,429,403,388,374,359,345,309,295,282,270,256,226,217,205,195,176,159,144,128,112,77],"timestamp_mouse":[10,37,51,71,90,110,130,150,171,192,212,231,250,271,290,310,331,351,370,391,411,431,451,471,491,510,530,550,571,590,611,630,650,671,691,711,732,751,771,791,810,831,851,870,890,911,930,950,970,991,1010,1030,1050,1070,1090,1110,1130,1150,1170,1190,1210,1230,1250,1270,1290,1310,1330,1351],"xSR":741.5,"ySR":469.95,"xT1":424.9,"yT1":0,"xT2":1058.1,"yT2":0,"toosoon":0,"cond_shown":"equaldotanddens","ratio_trial":900,"smaller_num":"18","larger_num":"20","correct_side":1,"subjID":"mariasalomesuarezvenegas10","gender":"1","age":"11","school":"6"},{"start_time":1551900385028,"click_time":1551900386560,"finger_time":1551900386058,"fix_duration":469.63494802767536,"trial":10,"RT":1030,"MT":502,"sideResp":1,"stimulus":"img/900/randomdotsizeEA/L/2_Ratio_900_L_20_R_18.png","xmouse":[776,776,776,776,776,776,776,776,776,776,776,776,776,776,776,776,776,776,776,776,776,776,776,776,776,776,776,776,776,776,776,776,774,774,774,774,774,774,774,774,774,774,774,774,774,774,773,771,768,764,757,747,731,719,709,700,670,644,625,605,583,562,526,514,505,498,493,480,477,477,477,477,477,479,481,485,495],"ymouse":[526,526,526,526,526,526,526,526,526,526,526,526,526,526,526,526,526,526,526,526,526,526,526,526,526,526,526,526,526,526,526,526,526,526,526,526,526,526,526,526,526,526,526,526,526,526,526,523,519,507,484,454,403,386,374,365,338,311,293,277,258,239,202,189,182,176,171,154,147,140,135,129,126,122,117,112,99],"timestamp_mouse":[11,43,51,71,90,111,131,152,171,192,211,230,251,271,291,311,331,351,371,391,411,431,451,472,491,511,531,550,570,590,610,631,650,671,690,710,730,751,771,791,811,831,851,870,890,910,930,950,970,990,1010,1030,1050,1071,1091,1112,1131,1150,1170,1190,1211,1232,1250,1271,1290,1310,1331,1350,1370,1390,1410,1431,1450,1471,1490,1511,1532],"xSR":741.5,"ySR":469.95,"xT1":424.9,"yT1":0,"xT2":1058.1,"yT2":0,"toosoon":0,"cond_shown":"randomdotsizeEA","ratio_trial":900,"smaller_num":"18","larger_num":"20","correct_side":1,"subjID":"mariasalomesuarezvenegas10","gender":"1","age":"11","school":"6"},{"start_time":1551900388911,"click_time":1551900391939,"finger_time":1551900391378,"fix_duration":1170.9918774544774,"trial":11,"RT":2467,"MT":561,"sideResp":2,"stimulus":"img/750/randomdotsizeEA/R/7_Ratio_750_L_3_R_4.png","xmouse":[779,779,779,779,779,779,779,779,779,779,779,779,779,779,779,779,779,779,779,779,779,779,779,779,779,779,779,779,779,779,779,779,779,779,779,778,778,778,778,778,778,778,778,778,778,778,778,778,778,778,778,777,777,777,777,777,777,777,777,775,775,774,773,773,773,773,773,773,773,773,773,773,773,773,773,773,773,773,773,773,773,773,773,773,773,773,773,773,773,773,773,773,773,772,772,772,772,772,772,772,772,772,772,772,772,772,772,772,772,772,772,772,772,772,772,772,772,772,772,772,773,773,780,809,819,830,839,858,868,878,890,901,940,963,988,1005,1019,1027,1038,1044,1047,1048,1054,1057,1058,1059,1059,1059,1064,1071,1080,1088],"ymouse":[531,531,531,531,531,530,530,530,530,530,530,530,530,530,530,530,530,530,530,530,530,530,530,530,530,530,530,530,529,529,529,529,529,529,529,529,529,529,529,529,528,528,527,527,527,527,527,526,526,526,526,526,526,526,526,526,526,525,525,523,522,521,519,519,519,519,519,519,519,519,519,519,519,519,519,519,519,519,519,519,519,519,519,519,519,519,519,519,519,519,519,519,519,519,521,521,521,521,521,521,521,521,521,521,521,521,521,521,521,521,521,521,521,521,521,521,521,521,521,521,521,520,511,466,442,418,395,353,338,330,321,313,284,268,250,235,221,208,182,169,159,154,139,135,132,131,131,130,124,116,108,97],"timestamp_mouse":[8,27,58,67,87,107,127,148,168,188,208,228,248,268,288,308,327,347,368,389,407,428,448,467,487,507,527,547,567,587,607,627,648,668,687,707,727,748,767,787,807,827,848,869,888,907,929,947,967,987,1007,1027,1047,1068,1088,1108,1127,1149,1168,1188,1207,1228,1247,1269,1288,1308,1328,1347,1369,1387,1407,1428,1448,1467,1487,1507,1527,1547,1567,1587,1607,1627,1647,1667,1688,1707,1728,1747,1767,1787,1807,1827,1847,1867,1888,1909,1927,1947,1968,1987,2008,2027,2047,2068,2087,2107,2127,2147,2167,2187,2207,2227,2247,2268,2287,2307,2327,2347,2367,2388,2407,2427,2447,2467,2487,2507,2528,2548,2567,2588,2608,2627,2648,2667,2688,2707,2728,2748,2767,2787,2807,2827,2849,2867,2888,2907,2927,2947,2967,2988,3008,3028],"xSR":741.5,"ySR":469.95,"xT1":424.9,"yT1":0,"xT2":1058.1,"yT2":0,"toosoon":0,"cond_shown":"randomdotsizeEA","ratio_trial":750,"smaller_num":"3","larger_num":"4","correct_side":2,"subjID":"mariasalomesuarezvenegas10","gender":"1","age":"11","school":"6"},{"start_time":1551900393820,"click_time":1551900395578,"finger_time":1551900395138,"fix_duration":760.3898203664457,"trial":12,"RT":1318,"MT":440,"sideResp":2,"stimulus":"img/500/randomdotsizeEA/R/1_Ratio_500_L_9_R_18.png","xmouse":[817,817,817,817,817,817,817,817,817,817,817,817,817,817,817,817,817,817,817,817,817,817,817,817,817,817,817,817,817,817,817,817,817,817,817,817,817,817,817,817,817,817,817,817,817,817,817,817,817,817,817,817,817,817,817,817,817,817,817,817,817,816,816,819,823,828,836,859,868,880,892,927,946,967,974,985,1013,1019,1025,1032,1040,1049,1050,1050,1050,1050,1050,1059],"ymouse":[513,513,513,513,513,513,513,513,513,513,513,513,513,513,513,513,513,513,513,513,513,513,513,513,513,513,513,513,513,513,513,513,513,513,513,513,513,513,513,513,513,513,513,513,513,513,513,513,513,513,513,513,513,513,513,513,513,513,513,513,513,511,501,488,472,447,419,338,311,286,262,220,203,179,171,158,126,120,115,111,106,102,101,101,101,101,101,95],"timestamp_mouse":[19,38,59,79,99,119,139,158,178,199,218,238,258,278,298,318,339,358,378,398,418,439,459,479,499,519,539,559,578,598,618,639,658,678,698,718,738,759,778,798,819,838,863,878,898,918,938,958,979,999,1018,1039,1059,1078,1098,1118,1139,1158,1178,1200,1219,1239,1258,1278,1298,1318,1338,1358,1379,1398,1419,1438,1458,1478,1499,1519,1539,1558,1579,1599,1619,1639,1658,1678,1698,1718,1738,1758],"xSR":741.5,"ySR":469.95,"xT1":424.9,"yT1":0,"xT2":1058.1,"yT2":0,"toosoon":0,"cond_shown":"randomdotsizeEA","ratio_trial":500,"smaller_num":"9","larger_num":"18","correct_side":2,"subjID":"mariasalomesuarezvenegas10","gender":"1","age":"11","school":"6"},{"start_time":1551900397629,"click_time":1551900399719,"finger_time":1551900398438,"fix_duration":1049.97878511218,"trial":13,"RT":809,"MT":1281,"sideResp":2,"stimulus":"img/750/equaldotanddens/R/7_Ratio_750_L_3_R_4.png","xmouse":[793,793,793,793,793,793,793,793,793,793,793,793,793,793,793,793,793,793,793,793,793,793,793,793,793,793,793,793,793,793,793,793,793,793,793,793,793,793,798,812,830,862,865,865,865,865,865,865,865,865,865,865,865,865,865,865,865,864,860,857,854,852,851,851,851,851,851,851,851,851,851,851,856,859,861,865,881,887,893,899,906,926,940,955,967,977,991,994,998,1005,1012,1031,1037,1042,1044,1044,1044,1044,1044,1044,1048,1049,1049,1054,1059],"ymouse":[511,511,511,511,511,511,511,511,511,511,511,511,511,511,511,511,511,511,511,511,511,511,511,511,511,511,511,511,511,511,511,511,511,511,511,511,511,509,497,478,454,416,412,412,412,412,412,412,412,412,411,411,411,411,411,411,411,412,417,422,427,432,435,435,435,435,435,435,435,435,435,433,421,411,398,381,326,305,286,271,257,229,212,194,178,162,134,127,120,112,105,84,76,70,69,69,69,69,69,68,65,65,65,63,61],"timestamp_mouse":[11,29,49,69,89,109,129,150,169,189,209,229,249,269,289,309,330,350,371,390,411,431,450,471,491,510,530,550,569,590,609,629,650,669,689,709,729,750,769,789,809,830,849,870,890,909,929,949,969,989,1009,1030,1049,1070,1089,1109,1129,1149,1169,1189,1210,1230,1249,1270,1289,1310,1331,1349,1370,1390,1409,1430,1449,1469,1489,1510,1531,1549,1570,1589,1609,1630,1649,1669,1689,1709,1730,1749,1770,1789,1809,1829,1850,1870,1890,1909,1930,1949,1969,1989,2010,2029,2049,2071,2090],"xSR":741.5,"ySR":469.95,"xT1":424.9,"yT1":0,"xT2":1058.1,"yT2":0,"toosoon":0,"cond_shown":"equaldotanddens","ratio_trial":750,"smaller_num":"3","larger_num":"4","correct_side":2,"subjID":"mariasalomesuarezvenegas10","gender":"1","age":"11","school":"6"},{"start_time":1551900401583,"click_time":1551900402778,"finger_time":1551900402398,"fix_duration":722.9580201087344,"trial":14,"RT":815,"MT":380,"sideResp":2,"stimulus":"img/500/equaldotsize/R/3_Ratio_500_L_10_R_20.png","xmouse":[815,815,815,815,815,815,815,815,815,815,815,815,815,815,815,815,815,815,815,815,815,815,815,815,815,815,815,815,815,815,815,815,815,815,815,815,815,815,816,831,842,853,861,870,875,884,898,923,967,984,990,995,1001,1013,1044,1059,1072,1084,1104,1137],"ymouse":[526,526,526,526,526,526,526,526,526,526,526,526,526,526,526,526,526,526,526,526,526,526,526,526,526,526,526,526,526,526,526,526,526,526,526,526,526,524,522,501,485,469,449,402,374,341,302,268,216,195,186,179,169,158,139,131,123,116,104,90],"timestamp_mouse":[16,40,56,76,96,116,136,156,176,195,216,235,255,275,295,315,336,356,375,396,415,435,455,476,495,515,535,555,576,595,616,636,656,675,695,715,735,755,775,795,815,835,856,876,895,916,936,956,976,995,1016,1036,1056,1076,1095,1115,1135,1155,1175,1195],"xSR":741.5,"ySR":469.95,"xT1":424.9,"yT1":0,"xT2":1058.1,"yT2":0,"toosoon":0,"cond_shown":"equaldotsize","ratio_trial":500,"smaller_num":"10","larger_num":"20","correct_side":2,"subjID":"mariasalomesuarezvenegas10","gender":"1","age":"11","school":"6"},{"start_time":1551900404351,"click_time":1551900405239,"finger_time":1551900405079,"fix_duration":870.9342532904707,"trial":15,"RT":728,"MT":160,"sideResp":2,"stimulus":"img/500/equaldotanddens/R/3_Ratio_500_L_10_R_20.png","xmouse":[766,766,766,766,766,766,766,766,766,766,766,766,766,766,766,766,766,766,766,766,766,766,766,766,766,766,766,766,766,766,766,766,767,768,772,782,827,868,931,988,1057,1095,1100,1104,1108],"ymouse":[546,546,546,546,546,546,546,546,546,546,546,546,546,546,546,546,546,546,546,546,546,546,546,546,546,545,545,545,544,544,544,542,540,538,531,519,456,404,329,269,187,128,111,100,90],"timestamp_mouse":[9,28,49,70,88,108,128,148,168,188,209,229,249,268,288,308,328,357,368,388,408,428,448,468,488,508,528,548,568,589,608,628,648,668,689,708,728,748,768,788,808,828,848,869,888],"xSR":741.5,"ySR":469.95,"xT1":424.9,"yT1":0,"xT2":1058.1,"yT2":0,"toosoon":0,"cond_shown":"equaldotanddens","ratio_trial":500,"smaller_num":"10","larger_num":"20","correct_side":2,"subjID":"mariasalomesuarezvenegas10","gender":"1","age":"11","school":"6"},{"start_time":1551900406571,"click_time":1551900408061,"finger_time":1551900407679,"fix_duration":250,"trial":16,"RT":1108,"MT":382,"sideResp":2,"stimulus":"img/900/equaldotsize/R/3_Ratio_900_L_9_R_10.png","xmouse":[772,773,773,773,774,774,774,774,774,774,774,774,774,774,774,774,774,774,774,774,774,774,774,774,774,774,774,775,775,775,775,775,775,775,775,775,775,775,775,775,775,776,776,776,776,776,776,776,776,775,775,775,775,778,799,814,831,862,892,959,973,981,983,987,1006,1018,1035,1047,1063,1068,1075,1076,1077,1077,1083],"ymouse":[534,534,534,534,534,534,534,534,534,534,534,534,534,534,534,534,534,534,534,534,534,534,534,534,534,534,534,535,535,535,535,535,535,535,535,535,536,536,536,537,539,539,539,539,539,539,539,539,539,538,536,533,525,514,485,466,440,405,372,287,267,251,238,221,182,162,142,129,116,112,106,105,104,103,93],"timestamp_mouse":[13,35,49,69,89,109,129,148,168,188,208,228,249,269,288,308,328,349,369,389,409,429,448,469,488,508,529,549,568,588,608,628,648,668,688,708,729,749,768,788,809,828,849,869,889,909,929,949,968,988,1008,1028,1049,1069,1089,1108,1129,1149,1169,1190,1208,1228,1248,1269,1289,1308,1328,1349,1368,1388,1408,1428,1448,1469,1490],"xSR":741.5,"ySR":469.95,"xT1":424.9,"yT1":0,"xT2":1058.1,"yT2":0,"toosoon":0,"cond_shown":"equaldotsize","ratio_trial":900,"smaller_num":"9","larger_num":"10","correct_side":2,"subjID":"mariasalomesuarezvenegas10","gender":"1","age":"11","school":"6"},{"start_time":1551900410472,"click_time":1551900411979,"finger_time":1551900411259,"fix_duration":250,"trial":17,"RT":787,"MT":720,"sideResp":2,"stimulus":"img/250/equaldotanddens/R/13_Ratio_250_L_2_R_8.png","xmouse":[777,777,777,777,777,777,777,777,777,777,777,777,777,777,777,778,779,779,779,780,780,780,780,780,780,780,780,780,780,780,780,780,780,781,783,792,799,808,825,861,882,896,906,911,928,936,944,951,955,960,965,966,966,966,966,966,967,969,971,975,984,989,998,1005,1013,1021,1023,1026,1030,1042,1049,1054,1057,1057,1058,1059],"ymouse":[548,548,548,548,548,548,548,548,548,548,548,548,548,548,548,548,548,548,548,548,548,548,548,548,548,548,548,548,548,548,548,548,548,548,548,540,534,526,516,501,492,486,478,474,444,426,405,374,336,303,265,254,236,220,208,194,189,183,178,170,158,151,138,132,125,118,116,112,108,97,92,89,88,87,87,86],"timestamp_mouse":[11,27,49,68,87,107,128,148,168,187,207,227,247,267,287,308,328,348,368,388,408,428,448,468,488,508,528,548,569,587,607,627,647,667,687,708,727,749,768,787,807,828,848,868,889,907,927,947,968,987,1007,1028,1047,1067,1087,1107,1127,1147,1167,1188,1207,1228,1247,1267,1288,1307,1327,1348,1368,1388,1407,1428,1448,1468,1488,1507],"xSR":741.5,"ySR":469.95,"xT1":424.9,"yT1":0,"xT2":1058.1,"yT2":0,"toosoon":0,"cond_shown":"equaldotanddens","ratio_trial":250,"smaller_num":"2","larger_num":"8","correct_side":2,"subjID":"mariasalomesuarezvenegas10","gender":"1","age":"11","school":"6"},{"start_time":1551900413272,"click_time":1551900414780,"finger_time":1551900414280,"fix_duration":250,"trial":18,"RT":1008,"MT":500,"sideResp":2,"stimulus":"img/250/equaldotanddens/R/11_Ratio_250_L_3_R_12.png","xmouse":[799,799,799,799,799,799,799,799,799,799,799,799,799,799,799,799,799,799,799,799,799,799,799,799,799,799,799,799,799,799,799,799,799,799,799,799,799,799,799,799,799,799,799,799,799,799,799,800,803,812,819,830,844,866,874,907,920,931,937,938,947,953,963,976,989,989,990,994,1002,1024,1035,1044,1050,1057,1061,1072],"ymouse":[512,512,512,512,512,512,512,512,512,512,512,512,512,512,512,512,512,512,512,512,512,512,512,512,512,512,512,512,512,512,512,512,512,512,512,512,512,512,512,512,512,512,512,512,512,512,512,506,498,475,460,447,431,406,397,345,325,310,300,288,260,246,229,212,189,184,181,172,162,144,134,127,120,111,106,94],"timestamp_mouse":[9,37,47,67,88,108,127,148,168,188,207,227,247,268,289,308,328,347,367,387,408,428,448,468,487,507,528,547,567,587,607,627,651,668,687,707,728,747,767,787,807,827,848,867,888,908,927,948,968,988,1008,1028,1048,1067,1088,1107,1127,1147,1167,1188,1207,1227,1248,1269,1287,1308,1327,1347,1367,1388,1407,1428,1448,1468,1487,1508],"xSR":741.5,"ySR":469.95,"xT1":424.9,"yT1":0,"xT2":1058.1,"yT2":0,"toosoon":0,"cond_shown":"equaldotanddens","ratio_trial":250,"smaller_num":"3","larger_num":"12","correct_side":2,"subjID":"mariasalomesuarezvenegas10","gender":"1","age":"11","school":"6"},{"start_time":1551900416131,"click_time":1551900419119,"finger_time":1551900418379,"fix_duration":250,"trial":19,"RT":2248,"MT":740,"sideResp":1,"stimulus":"img/900/equaldotsize/R/15_Ratio_900_L_9_R_10.png","xmouse":[770,770,770,770,770,770,770,770,770,770,770,770,770,770,770,770,770,770,770,770,770,770,770,770,770,770,770,770,770,770,770,770,770,770,770,770,770,770,770,770,770,770,770,770,770,770,770,770,770,770,770,770,770,770,770,770,770,770,770,770,770,770,770,770,770,770,770,770,770,770,770,770,770,770,767,760,751,751,751,751,750,750,750,750,750,750,750,750,750,750,750,750,750,750,750,750,750,750,750,750,750,750,750,749,749,749,749,749,749,749,747,746,735,726,719,707,696,672,655,637,614,589,570,566,562,561,558,555,555,555,554,552,547,544,543,543,537,536,530,525,522,518,513,510,507,503,496,495,495,495],"ymouse":[532,532,532,532,532,532,532,532,532,532,532,532,532,532,532,532,532,532,532,532,532,532,532,532,532,532,532,532,532,532,532,532,532,532,532,532,532,532,532,532,532,532,532,532,532,532,532,532,532,532,532,532,532,532,532,532,532,532,532,532,532,532,532,532,532,532,532,532,532,532,532,532,532,532,532,533,533,533,533,533,533,533,533,533,533,533,533,533,533,533,533,533,533,533,533,533,533,533,533,533,533,533,533,533,533,532,531,531,529,525,522,517,487,475,463,447,429,390,369,349,324,293,256,237,221,209,199,182,175,167,160,155,146,143,141,141,134,132,124,119,116,114,112,110,108,106,102,101,100,99],"timestamp_mouse":[18,40,49,69,88,109,128,148,169,188,208,228,248,268,288,308,328,349,369,389,409,429,449,469,489,509,530,550,570,588,608,628,649,669,689,710,728,748,768,788,808,829,849,869,889,909,928,948,968,988,1008,1028,1048,1069,1089,1109,1129,1149,1169,1189,1210,1229,1250,1268,1290,1309,1330,1350,1369,1389,1410,1429,1449,1468,1489,1509,1529,1549,1570,1589,1609,1628,1648,1668,1688,1709,1728,1748,1768,1788,1808,1828,1848,1869,1889,1909,1928,1948,1968,1989,2009,2029,2049,2070,2089,2109,2128,2148,2168,2188,2208,2228,2248,2268,2288,2308,2329,2348,2368,2388,2408,2429,2449,2469,2489,2509,2529,2549,2569,2589,2608,2628,2648,2668,2688,2708,2730,2748,2769,2788,2808,2828,2849,2869,2889,2909,2929,2948,2968,2988],"xSR":741.5,"ySR":469.95,"xT1":424.9,"yT1":0,"xT2":1058.1,"yT2":0,"toosoon":0,"cond_shown":"equaldotsize","ratio_trial":900,"smaller_num":"9","larger_num":"10","correct_side":2,"subjID":"mariasalomesuarezvenegas10","gender":"1","age":"11","school":"6"},{"start_time":1551900442543,"click_time":1551900443960,"finger_time":1551900443460,"fix_duration":842.1041002534453,"trial":20,"RT":917,"MT":500,"sideResp":2,"stimulus":"img/500/randomdotsizeEA/R/3_Ratio_500_L_10_R_20.png","xmouse":[796,796,796,796,796,796,796,796,796,796,796,796,796,796,796,796,796,796,796,796,796,796,796,796,796,796,796,796,796,796,796,796,796,796,796,796,796,795,795,794,794,794,794,800,805,818,824,833,849,867,916,935,948,953,955,960,960,960,960,960,960,960,960,960,960,960,960,1037,1041,1049,1059],"ymouse":[539,539,539,539,539,539,539,539,539,539,539,539,539,539,539,539,539,539,539,539,539,539,539,539,539,539,539,539,539,539,539,539,539,539,539,539,539,539,539,538,537,529,519,505,477,387,343,305,265,222,124,90,67,49,34,4,4,4,4,4,4,4,4,4,4,4,4,0,6,15,28],"timestamp_mouse":[16,36,63,77,96,116,136,156,177,197,217,238,257,276,296,317,337,357,376,396,416,437,457,477,496,517,537,557,577,597,617,638,657,677,696,716,736,756,776,796,816,837,856,878,897,917,936,958,977,998,1017,1037,1056,1077,1096,1117,1136,1156,1176,1196,1218,1236,1256,1276,1296,1316,1336,1358,1377,1397,1416],"xSR":741.5,"ySR":469.95,"xT1":424.9,"yT1":0,"xT2":1058.1,"yT2":0,"toosoon":0,"cond_shown":"randomdotsizeEA","ratio_trial":500,"smaller_num":"10","larger_num":"20","correct_side":2,"subjID":"mariasalomesuarezvenegas10","gender":"1","age":"11","school":"6"},{"start_time":1551900445558,"click_time":1551900447159,"finger_time":1551900446679,"fix_duration":256.8182505083393,"trial":21,"RT":1121,"MT":480,"sideResp":1,"stimulus":"img/750/equaldotanddens/R/3_Ratio_750_L_15_R_20.png","xmouse":[783,782,782,782,782,782,782,782,782,782,782,782,782,782,782,782,782,782,782,782,782,782,782,782,782,782,782,782,782,782,782,782,782,782,782,782,782,782,782,782,782,782,782,782,782,782,782,782,782,782,782,782,782,782,773,767,726,704,685,666,635,619,607,594,584,569,562,557,553,544,527,520,513,507,501,499,493,491,490,489,486],"ymouse":[519,520,520,520,520,521,521,521,521,521,521,521,521,521,521,521,521,521,521,521,521,521,521,521,521,521,521,521,521,521,521,521,521,521,521,521,521,521,521,521,521,521,521,521,521,521,521,521,521,521,521,521,521,521,520,515,484,471,460,449,425,398,377,361,350,327,316,302,286,259,223,207,196,187,178,173,155,137,119,104,91],"timestamp_mouse":[1,23,43,62,83,103,122,143,162,182,202,222,241,261,281,301,322,342,362,382,401,421,442,461,481,501,521,542,561,581,601,621,642,662,681,702,723,742,762,782,803,823,843,862,882,903,922,941,961,981,1001,1022,1042,1061,1081,1101,1121,1142,1161,1182,1202,1221,1241,1261,1282,1302,1321,1342,1362,1382,1402,1421,1441,1461,1482,1502,1522,1542,1562,1581,1601],"xSR":741.5,"ySR":469.95,"xT1":424.9,"yT1":0,"xT2":1058.1,"yT2":0,"toosoon":0,"cond_shown":"equaldotanddens","ratio_trial":750,"smaller_num":"15","larger_num":"20","correct_side":2,"subjID":"mariasalomesuarezvenegas10","gender":"1","age":"11","school":"6"},{"start_time":1551900448472,"click_time":1551900449960,"finger_time":1551900449240,"fix_duration":250,"trial":22,"RT":768,"MT":720,"sideResp":2,"stimulus":"img/250/randomdotsizeEA/R/9_Ratio_250_L_3_R_12.png","xmouse":[795,795,795,795,795,795,795,795,795,795,795,795,795,795,795,795,795,795,795,795,795,795,795,795,795,795,795,795,795,795,795,795,795,795,795,796,801,805,816,848,858,870,882,892,915,925,938,952,966,994,1006,1019,1028,1032,1035,1035,1035,1035,1035,1035,1035,1035,1037,1038,1038,1039,1039,1040,1045,1053,1056,1056,1057,1058,1059],"ymouse":[540,540,540,540,540,540,540,540,540,540,540,540,540,540,540,540,540,540,540,540,540,540,540,540,540,540,540,540,540,540,540,540,540,540,539,524,506,484,445,348,325,302,273,250,213,201,186,170,148,98,81,65,53,45,39,39,39,39,39,39,39,39,40,40,40,40,40,42,45,48,50,50,51,51,51],"timestamp_mouse":[12,34,49,68,88,108,127,148,167,187,208,228,248,268,288,309,328,347,368,387,407,427,448,468,487,508,527,548,567,588,609,628,647,667,687,707,727,748,768,788,807,828,849,867,888,907,928,947,967,988,1007,1027,1047,1067,1089,1107,1128,1148,1168,1188,1208,1227,1247,1268,1287,1307,1327,1347,1367,1387,1407,1428,1447,1467,1488],"xSR":741.5,"ySR":469.95,"xT1":424.9,"yT1":0,"xT2":1058.1,"yT2":0,"toosoon":0,"cond_shown":"randomdotsizeEA","ratio_trial":250,"smaller_num":"3","larger_num":"12","correct_side":2,"subjID":"mariasalomesuarezvenegas10","gender":"1","age":"11","school":"6"},{"start_time":1551900451032,"click_time":1551900453581,"finger_time":1551900452920,"fix_duration":250,"trial":23,"RT":1888,"MT":661,"sideResp":2,"stimulus":"img/900/equaldotsize/R/12_Ratio_900_L_18_R_20.png","xmouse":[809,809,809,809,809,809,809,809,809,809,809,809,809,809,809,809,809,809,809,809,809,809,809,809,809,809,809,809,809,809,809,809,809,809,809,809,809,809,809,809,809,809,809,809,809,809,809,809,809,809,809,809,809,809,809,809,809,809,809,809,809,809,809,809,809,809,809,809,809,809,809,809,809,809,809,809,809,809,809,809,809,809,809,809,809,809,809,809,809,809,809,809,808,816,821,824,824,823,823,828,841,875,885,891,900,916,962,976,986,993,995,997,997,998,1000,1002,1005,1008,1008,1012,1016,1018,1022,1025,1028,1040,1043,1068],"ymouse":[511,511,511,511,511,511,511,511,511,511,511,511,511,511,511,511,511,511,511,511,511,511,511,511,511,511,511,511,511,511,511,511,511,511,511,511,511,511,511,511,511,511,511,511,511,511,511,511,511,511,511,511,511,511,511,511,511,511,511,511,511,511,511,511,511,511,511,511,511,511,511,511,511,511,511,511,511,511,511,511,511,511,511,511,511,511,511,511,511,511,511,511,508,486,467,451,423,416,405,389,370,337,326,319,309,295,259,246,233,217,208,193,186,178,169,163,153,139,138,133,129,127,123,121,119,111,110,96],"timestamp_mouse":[8,33,49,68,88,107,127,147,167,188,208,228,247,267,287,308,327,347,367,388,407,427,447,468,487,507,528,548,568,588,607,627,647,667,687,708,727,747,767,787,807,829,847,867,887,907,927,948,968,988,1008,1028,1047,1067,1087,1108,1128,1148,1167,1188,1208,1229,1247,1267,1288,1307,1327,1347,1367,1388,1407,1427,1447,1468,1488,1508,1529,1549,1567,1588,1608,1627,1648,1667,1687,1707,1728,1748,1767,1788,1808,1829,1847,1869,1888,1908,1928,1947,1967,1989,2008,2028,2047,2067,2087,2107,2128,2147,2167,2188,2207,2229,2247,2267,2287,2307,2327,2348,2367,2388,2408,2428,2447,2468,2488,2508,2528,2549],"xSR":741.5,"ySR":469.95,"xT1":424.9,"yT1":0,"xT2":1058.1,"yT2":0,"toosoon":0,"cond_shown":"equaldotsize","ratio_trial":900,"smaller_num":"18","larger_num":"20","correct_side":2,"subjID":"mariasalomesuarezvenegas10","gender":"1","age":"11","school":"6"},{"start_time":1551900455812,"click_time":1551900457719,"finger_time":1551900457200,"fix_duration":1291.882729174846,"trial":24,"RT":1388,"MT":519,"sideResp":2,"stimulus":"img/900/randomdotsizeEA/L/8_Ratio_900_L_20_R_18.png","xmouse":[797,797,797,797,797,797,797,797,797,797,797,797,797,797,797,797,797,797,797,797,797,797,797,797,797,797,797,797,797,797,797,797,797,797,797,797,797,797,797,797,797,797,797,797,797,797,797,797,797,796,796,796,796,796,796,796,796,796,796,796,796,796,796,796,796,796,796,796,799,805,811,818,826,846,857,873,904,937,952,964,975,987,1012,1022,1032,1034,1034,1035,1036,1041,1046,1051,1051,1052,1053,1065],"ymouse":[534,534,534,534,534,534,534,534,534,534,534,534,534,534,534,534,534,534,534,534,534,534,534,534,534,534,534,534,534,534,534,534,534,534,534,534,534,534,534,534,534,534,534,534,534,534,534,534,534,534,532,532,532,531,531,529,528,526,526,525,522,520,514,513,511,507,503,493,476,457,436,416,396,354,329,296,243,190,167,146,128,112,79,66,54,52,52,52,50,50,50,50,50,50,50,50],"timestamp_mouse":[9,27,61,68,87,108,128,149,168,189,208,228,248,267,287,307,327,347,367,387,407,428,448,468,487,507,527,547,567,588,607,628,648,668,688,707,727,747,767,787,807,827,847,868,888,908,928,947,968,987,1009,1027,1047,1067,1088,1108,1128,1148,1169,1188,1208,1228,1248,1267,1288,1308,1328,1347,1368,1388,1408,1428,1448,1468,1488,1508,1528,1548,1567,1587,1607,1627,1648,1667,1688,1709,1729,1748,1768,1787,1807,1827,1847,1868,1888,1907],"xSR":741.5,"ySR":469.95,"xT1":424.9,"yT1":0,"xT2":1058.1,"yT2":0,"toosoon":0,"cond_shown":"randomdotsizeEA","ratio_trial":900,"smaller_num":"18","larger_num":"20","correct_side":1,"subjID":"mariasalomesuarezvenegas10","gender":"1","age":"11","school":"6"},{"start_time":1551900459325,"click_time":1551900461300,"finger_time":1551900460759,"fix_duration":545.0371292117254,"trial":25,"RT":1434,"MT":541,"sideResp":1,"stimulus":"img/750/randomdotsizeEA/L/8_Ratio_750_L_4_R_3.png","xmouse":[785,785,785,785,785,785,785,785,785,785,785,785,785,785,785,785,785,785,785,785,785,785,785,785,785,785,785,785,785,785,785,785,785,785,785,785,785,785,785,785,785,785,785,785,785,785,785,785,785,785,785,785,785,785,785,785,785,785,785,785,785,785,785,785,785,785,784,782,780,775,758,737,683,663,647,636,614,604,599,593,591,587,586,586,582,575,571,565,563,560,551,548,537,532,525,517,503,500,494],"ymouse":[521,521,521,521,521,521,521,521,521,521,521,521,521,521,521,521,521,521,521,521,521,521,521,521,521,521,521,521,521,521,521,521,521,521,521,521,521,521,521,521,521,521,521,521,521,521,521,521,521,521,521,521,521,521,521,521,521,521,521,521,521,521,521,521,521,521,521,521,521,517,505,491,447,427,410,390,348,332,319,306,299,291,275,262,245,228,212,184,174,166,155,150,130,125,118,111,103,100,94],"timestamp_mouse":[14,34,55,76,95,116,134,154,175,194,215,235,254,275,294,314,334,354,374,394,415,435,454,474,494,514,534,554,575,594,615,634,654,674,694,714,734,755,774,794,814,834,854,874,894,914,934,954,974,994,1015,1034,1055,1075,1095,1115,1135,1155,1175,1195,1215,1235,1254,1274,1294,1314,1334,1354,1375,1394,1414,1434,1454,1474,1494,1514,1536,1554,1575,1594,1614,1634,1654,1674,1694,1714,1734,1754,1775,1794,1815,1835,1854,1874,1894,1915,1935,1955,1975],"xSR":741.5,"ySR":469.95,"xT1":424.9,"yT1":0,"xT2":1058.1,"yT2":0,"toosoon":0,"cond_shown":"randomdotsizeEA","ratio_trial":750,"smaller_num":"3","larger_num":"4","correct_side":1,"subjID":"mariasalomesuarezvenegas10","gender":"1","age":"11","school":"6"},{"start_time":1551900462907,"click_time":1551900464139,"finger_time":1551900463699,"fix_duration":724.0986192468594,"trial":26,"RT":792,"MT":440,"sideResp":2,"stimulus":"img/250/randomdotsizeEA/R/4_Ratio_250_L_3_R_12.png","xmouse":[801,801,801,801,801,801,801,801,801,801,801,801,801,801,801,801,801,801,801,801,801,801,801,801,801,801,801,801,801,801,801,801,801,801,801,801,801,804,820,834,851,873,910,920,928,934,940,948,950,955,961,969,985,994,999,1000,1000,1003,1010,1023,1041,1059],"ymouse":[528,528,528,528,528,528,528,528,528,528,528,528,528,528,528,528,528,528,528,528,528,528,528,528,528,528,528,528,528,528,528,528,528,528,528,526,523,514,478,454,425,394,339,319,300,286,271,242,223,205,185,161,137,122,116,115,115,112,106,98,90,82],"timestamp_mouse":[13,37,53,72,92,113,132,152,172,192,213,233,253,274,294,313,333,352,372,392,412,432,452,472,493,512,532,552,572,594,613,633,654,674,692,713,732,752,772,792,812,832,854,872,892,912,932,954,972,993,1013,1033,1053,1073,1092,1113,1132,1153,1172,1192,1212,1232],"xSR":741.5,"ySR":469.95,"xT1":424.9,"yT1":0,"xT2":1058.1,"yT2":0,"toosoon":0,"cond_shown":"randomdotsizeEA","ratio_trial":250,"smaller_num":"3","larger_num":"12","correct_side":2,"subjID":"mariasalomesuarezvenegas10","gender":"1","age":"11","school":"6"},{"start_time":1551900466157,"click_time":1551900467501,"finger_time":1551900467061,"fix_duration":1175.6188149087986,"trial":27,"RT":904,"MT":440,"sideResp":1,"stimulus":"img/250/randomdotsizeEA/L/15_Ratio_250_L_12_R_3.png","xmouse":[809,809,809,809,809,809,809,809,809,809,809,809,809,809,809,809,809,809,809,809,809,809,809,809,809,809,809,809,809,809,809,809,809,809,809,809,809,809,809,809,809,809,809,802,784,718,665,620,588,568,552,550,548,547,547,542,539,535,533,531,525,520,517,513,508,502,500,499],"ymouse":[520,520,520,520,520,520,520,520,520,520,520,520,520,520,520,520,520,520,520,520,520,520,520,520,520,520,520,520,520,520,520,520,520,520,520,520,520,520,520,520,520,520,520,517,506,475,449,411,376,342,286,273,266,257,250,231,222,213,205,195,170,161,152,142,130,109,103,98],"timestamp_mouse":[4,23,43,63,83,103,123,144,163,184,203,223,243,263,283,303,324,343,364,384,404,424,444,465,483,503,523,544,564,584,603,624,644,664,685,704,724,744,763,784,804,824,843,863,884,904,923,943,963,983,1004,1025,1043,1063,1083,1103,1123,1144,1163,1184,1203,1223,1243,1264,1284,1305,1325,1344],"xSR":741.5,"ySR":469.95,"xT1":424.9,"yT1":0,"xT2":1058.1,"yT2":0,"toosoon":0,"cond_shown":"randomdotsizeEA","ratio_trial":250,"smaller_num":"3","larger_num":"12","correct_side":1,"subjID":"mariasalomesuarezvenegas10","gender":"1","age":"11","school":"6"},{"start_time":1551900469170,"click_time":1551900470401,"finger_time":1551900469980,"fix_duration":987.7844645909273,"trial":28,"RT":810,"MT":421,"sideResp":2,"stimulus":"img/500/randomdotsizeEA/R/2_Ratio_500_L_3_R_6.png","xmouse":[802,800,800,800,800,799,799,799,799,799,799,799,799,799,798,798,798,798,798,798,798,798,798,798,798,798,798,798,798,798,798,798,798,798,798,800,802,808,815,829,862,879,892,905,916,939,950,962,972,997,1009,1023,1040,1055,1075,1076,1076,1076,1076,1076,1078,1081],"ymouse":[531,532,532,532,533,533,533,534,534,534,534,534,534,534,534,534,534,534,534,534,534,534,534,534,534,534,534,536,536,536,536,536,536,536,536,535,533,528,522,497,412,368,337,313,296,273,266,259,251,228,214,192,164,140,108,105,104,104,104,104,100,97],"timestamp_mouse":[16,31,50,70,90,110,130,151,170,190,210,231,250,270,291,310,330,350,371,390,410,430,450,470,490,510,530,550,570,591,610,630,650,670,690,710,730,750,770,790,810,830,850,870,890,910,930,950,970,990,1011,1031,1050,1070,1090,1110,1130,1150,1170,1190,1210,1231],"xSR":741.5,"ySR":469.95,"xT1":424.9,"yT1":0,"xT2":1058.1,"yT2":0,"toosoon":0,"cond_shown":"randomdotsizeEA","ratio_trial":500,"smaller_num":"3","larger_num":"6","correct_side":2,"subjID":"mariasalomesuarezvenegas10","gender":"1","age":"11","school":"6"},{"start_time":1551900471590,"click_time":1551900473641,"finger_time":1551900472841,"fix_duration":489.45901432202686,"trial":29,"RT":1251,"MT":800,"sideResp":1,"stimulus":"img/250/equaldotsize/L/3_Ratio_250_L_8_R_2.png","xmouse":[790,790,790,790,790,790,790,790,790,790,790,790,790,790,790,790,790,790,790,790,790,790,790,790,790,790,790,790,790,790,790,790,790,790,790,790,790,790,790,790,790,790,790,790,790,790,790,790,790,790,790,790,790,790,790,790,790,790,784,779,772,760,741,722,694,684,672,657,631,624,614,604,594,581,574,569,564,561,557,553,553,551,551,536,524,513,502,492,488,479,478,477,477,477,477,477,477,477,477,477,477,477,476],"ymouse":[535,535,535,535,535,535,535,535,535,535,535,535,535,535,535,535,535,535,535,535,535,535,535,535,535,535,535,535,535,535,535,535,535,535,535,535,535,535,535,535,535,535,535,535,535,535,535,535,535,535,535,535,535,535,535,534,534,534,532,529,525,517,505,494,478,469,459,445,414,403,388,367,342,291,271,256,240,232,222,211,210,206,204,188,174,160,147,135,127,115,113,110,110,110,110,110,110,110,110,110,110,106,89],"timestamp_mouse":[10,32,50,71,90,110,130,150,170,190,210,230,250,270,290,311,330,352,370,390,411,430,450,470,490,510,530,550,570,590,610,631,650,670,690,710,730,750,770,791,810,830,851,871,891,910,931,950,970,990,1010,1030,1050,1070,1090,1110,1130,1150,1170,1191,1211,1231,1251,1271,1291,1310,1330,1351,1371,1390,1410,1430,1450,1472,1490,1510,1530,1551,1570,1590,1610,1630,1650,1671,1690,1710,1730,1750,1771,1791,1810,1831,1851,1871,1891,1911,1930,1951,1971,1990,2010,2030,2051],"xSR":741.5,"ySR":469.95,"xT1":424.9,"yT1":0,"xT2":1058.1,"yT2":0,"toosoon":0,"cond_shown":"equaldotsize","ratio_trial":250,"smaller_num":"2","larger_num":"8","correct_side":1,"subjID":"mariasalomesuarezvenegas10","gender":"1","age":"11","school":"6"},{"start_time":1551900475706,"click_time":1551900477020,"finger_time":1551900476420,"fix_duration":1324.5978530380494,"trial":30,"RT":714,"MT":600,"sideResp":2,"stimulus":"img/500/equaldotanddens/R/6_Ratio_500_L_9_R_18.png","xmouse":[791,791,791,791,791,791,791,791,791,791,791,791,791,791,791,790,788,785,784,784,784,784,786,792,794,794,794,794,796,796,796,796,799,801,803,806,813,821,839,847,858,868,886,903,923,941,956,977,982,986,989,997,1017,1024,1028,1029,1029,1029,1029,1029,1029,1029,1029,1048,1058,1072],"ymouse":[524,524,524,524,524,524,524,524,524,524,524,524,524,524,524,524,524,524,524,524,524,524,524,527,527,527,527,527,527,526,516,504,480,476,471,463,448,427,376,351,327,303,262,230,202,177,159,134,127,120,117,107,88,83,78,77,77,76,76,76,76,76,75,71,70,67],"timestamp_mouse":[14,35,55,74,95,115,134,154,175,194,215,235,254,274,295,314,334,354,375,394,414,435,455,474,495,514,535,554,575,594,615,634,654,674,694,714,734,754,774,795,814,834,855,874,894,914,934,955,974,995,1015,1035,1055,1076,1095,1115,1135,1156,1174,1194,1214,1234,1254,1274,1294,1314],"xSR":741.5,"ySR":469.95,"xT1":424.9,"yT1":0,"xT2":1058.1,"yT2":0,"toosoon":0,"cond_shown":"equaldotanddens","ratio_trial":500,"smaller_num":"9","larger_num":"18","correct_side":2,"subjID":"mariasalomesuarezvenegas10","gender":"1","age":"11","school":"6"},{"start_time":1551900479242,"click_time":1551900480400,"finger_time":1551900479980,"fix_duration":1480.5440249928192,"trial":31,"RT":738,"MT":420,"sideResp":2,"stimulus":"img/250/randomdotsizeEA/R/6_Ratio_250_L_6_R_24.png","xmouse":[807,807,806,806,806,806,806,806,806,806,806,806,806,806,806,806,806,806,806,806,806,806,806,806,806,806,806,806,806,806,811,814,817,820,824,827,847,855,864,872,891,901,912,928,945,995,1009,1020,1026,1030,1041,1045,1052,1056,1060,1064,1066,1069],"ymouse":[538,538,538,537,537,537,537,537,537,537,537,537,537,537,537,537,537,537,537,537,537,537,537,537,537,537,537,537,533,531,524,519,514,508,498,492,450,437,425,412,379,362,342,321,298,236,216,196,183,172,148,139,128,122,114,106,102,97],"timestamp_mouse":[18,39,58,78,98,119,138,158,178,199,220,238,258,279,299,319,338,358,378,399,419,439,461,479,499,519,539,558,578,599,619,639,659,679,698,718,738,758,778,798,819,838,859,879,899,918,938,959,979,999,1019,1038,1059,1080,1098,1119,1139,1158],"xSR":741.5,"ySR":469.95,"xT1":424.9,"yT1":0,"xT2":1058.1,"yT2":0,"toosoon":0,"cond_shown":"randomdotsizeEA","ratio_trial":250,"smaller_num":"6","larger_num":"24","correct_side":2,"subjID":"mariasalomesuarezvenegas10","gender":"1","age":"11","school":"6"},{"start_time":1551900481976,"click_time":1551900483561,"finger_time":1551900483181,"fix_duration":654.8310118944353,"trial":32,"RT":1205,"MT":380,"sideResp":2,"stimulus":"img/500/equaldotsize/R/2_Ratio_500_L_3_R_6.png","xmouse":[802,802,802,802,802,802,802,802,802,802,802,802,802,802,802,802,802,802,802,802,802,802,802,802,802,802,802,802,802,802,802,802,802,802,802,802,802,802,802,802,802,802,802,802,802,802,802,802,802,802,802,802,802,802,802,804,806,812,821,832,867,890,909,921,928,933,935,938,945,955,969,979,988,998,1009,1013,1021,1028,1035,1062],"ymouse":[545,545,545,544,544,544,544,544,544,544,544,544,544,544,544,544,544,544,544,544,544,544,544,544,544,544,544,544,544,544,544,544,544,544,544,544,544,544,544,544,544,544,544,544,544,544,544,544,544,544,544,544,544,543,539,533,529,521,506,492,452,425,401,381,366,347,342,331,315,295,269,252,235,219,198,187,173,158,141,93],"timestamp_mouse":[9,34,44,65,84,105,124,144,164,184,204,224,245,264,284,305,324,344,364,384,405,424,444,464,484,504,525,545,565,585,604,624,644,664,684,705,724,744,764,784,804,825,844,865,884,905,925,946,964,985,1006,1025,1046,1064,1084,1105,1125,1146,1165,1184,1205,1224,1244,1264,1285,1304,1324,1344,1364,1384,1404,1424,1444,1464,1485,1506,1526,1546,1565,1585],"xSR":741.5,"ySR":469.95,"xT1":424.9,"yT1":0,"xT2":1058.1,"yT2":0,"toosoon":0,"cond_shown":"equaldotsize","ratio_trial":500,"smaller_num":"3","larger_num":"6","correct_side":2,"subjID":"mariasalomesuarezvenegas10","gender":"1","age":"11","school":"6"},{"start_time":1551900485013,"click_time":1551900486461,"finger_time":1551900486040,"fix_duration":610.7216444799817,"trial":33,"RT":1027,"MT":421,"sideResp":1,"stimulus":"img/250/equaldotsize/L/14_Ratio_250_L_12_R_3.png","xmouse":[787,786,786,786,786,786,786,786,786,785,785,785,785,785,785,785,785,785,785,785,785,785,785,785,785,785,785,785,785,785,785,784,784,784,783,783,783,783,782,782,782,782,781,781,780,779,778,775,771,763,752,734,706,686,665,648,637,635,630,627,622,614,605,591,582,576,570,560,557,556,554,550,521],"ymouse":[529,530,530,530,530,530,530,530,531,531,531,531,531,531,531,531,531,531,531,531,531,531,531,531,532,532,532,532,532,532,532,533,533,533,534,534,534,534,535,535,535,535,535,535,535,535,535,533,527,510,484,444,356,307,261,231,212,204,195,188,178,161,144,113,99,91,86,80,79,79,78,78,77],"timestamp_mouse":[9,27,47,67,87,107,127,147,167,187,207,227,248,269,288,309,328,348,367,387,407,427,447,468,488,507,527,548,568,588,607,628,647,667,687,707,728,748,767,788,808,827,848,867,887,907,927,947,968,987,1007,1027,1048,1067,1088,1108,1127,1147,1168,1187,1208,1228,1248,1267,1288,1307,1328,1348,1367,1387,1408,1427,1448],"xSR":741.5,"ySR":469.95,"xT1":424.9,"yT1":0,"xT2":1058.1,"yT2":0,"toosoon":0,"cond_shown":"equaldotsize","ratio_trial":250,"smaller_num":"3","larger_num":"12","correct_side":1,"subjID":"mariasalomesuarezvenegas10","gender":"1","age":"11","school":"6"},{"start_time":1551900488732,"click_time":1551900490661,"finger_time":1551900490161,"fix_duration":1331.2271643378028,"trial":34,"RT":1429,"MT":500,"sideResp":2,"stimulus":"img/900/equaldotanddens/R/9_Ratio_900_L_18_R_20.png","xmouse":[779,779,779,779,779,779,779,779,779,774,769,768,767,767,767,767,767,767,767,767,767,767,767,766,766,766,767,767,767,767,767,767,767,767,767,767,767,767,767,767,767,767,767,767,767,767,767,767,767,767,767,767,767,767,767,767,767,767,767,767,767,767,767,767,767,767,767,769,771,776,784,790,794,801,807,813,824,829,834,839,848,856,863,872,882,895,908,942,962,983,997,1024,1036,1050,1073,1098,1130],"ymouse":[511,511,511,511,511,511,511,511,511,512,512,512,512,512,512,512,512,512,512,512,512,512,512,512,511,510,508,506,506,506,506,506,506,506,506,506,506,506,506,506,506,506,506,506,506,506,506,506,506,506,506,506,506,506,506,506,506,506,506,506,506,506,506,506,506,506,506,505,502,492,478,466,456,441,428,414,388,375,363,353,333,313,301,288,276,258,243,214,196,179,167,148,140,131,118,103,84],"timestamp_mouse":[8,33,48,68,88,108,128,149,169,189,209,228,248,269,289,308,328,350,369,389,409,429,449,469,489,509,529,549,569,589,608,628,649,668,688,708,728,749,768,789,809,829,849,869,888,908,928,948,968,988,1010,1029,1049,1068,1088,1108,1128,1149,1168,1188,1208,1228,1249,1268,1289,1308,1328,1348,1369,1389,1409,1429,1448,1468,1488,1508,1529,1548,1569,1589,1609,1629,1648,1668,1688,1708,1729,1748,1769,1788,1808,1828,1848,1869,1888,1908,1929],"xSR":741.5,"ySR":469.95,"xT1":424.9,"yT1":0,"xT2":1058.1,"yT2":0,"toosoon":0,"cond_shown":"equaldotanddens","ratio_trial":900,"smaller_num":"18","larger_num":"20","correct_side":2,"subjID":"mariasalomesuarezvenegas10","gender":"1","age":"11","school":"6"},{"start_time":1551900492678,"click_time":1551900493880,"finger_time":1551900493420,"fix_duration":836.8098776638909,"trial":35,"RT":742,"MT":460,"sideResp":1,"stimulus":"img/250/equaldotsize/L/2_Ratio_250_L_16_R_4.png","xmouse":[804,804,804,804,804,803,803,803,803,803,803,803,803,803,803,803,803,803,802,802,802,802,802,802,802,802,802,802,802,802,802,802,802,801,800,789,764,733,705,682,677,669,664,655,624,613,603,598,592,567,549,534,526,520,519,512,509,508,505,502,496],"ymouse":[544,544,544,544,544,544,544,544,544,544,544,544,544,544,544,544,544,544,544,544,544,544,544,544,544,544,544,544,544,544,544,544,544,544,544,535,506,475,443,406,394,377,363,347,310,300,291,283,273,240,226,211,198,176,169,138,129,121,113,104,80],"timestamp_mouse":[9,35,43,64,83,103,123,143,162,182,212,222,242,262,282,302,323,342,362,382,402,422,442,463,483,502,522,542,562,583,602,622,642,662,682,702,722,742,763,784,803,822,842,862,884,902,922,942,962,982,1002,1023,1042,1062,1083,1104,1122,1142,1162,1183,1202],"xSR":741.5,"ySR":469.95,"xT1":424.9,"yT1":0,"xT2":1058.1,"yT2":0,"toosoon":0,"cond_shown":"equaldotsize","ratio_trial":250,"smaller_num":"4","larger_num":"16","correct_side":1,"subjID":"mariasalomesuarezvenegas10","gender":"1","age":"11","school":"6"},{"start_time":1551900494813,"click_time":1551900496241,"finger_time":1551900495780,"fix_duration":250,"trial":36,"RT":967,"MT":461,"sideResp":2,"stimulus":"img/750/randomdotsizeEA/R/2_Ratio_750_L_6_R_8.png","xmouse":[813,812,812,812,812,811,810,809,809,809,809,808,808,808,807,807,806,806,806,806,806,806,806,806,806,806,806,806,806,806,806,806,806,806,806,805,805,805,805,805,805,805,805,806,807,809,812,833,844,854,866,876,888,920,931,942,947,955,959,966,976,983,991,999,1000,1000,1000,1001,1016,1033,1052,1065],"ymouse":[554,553,553,553,553,553,553,552,552,552,552,552,552,552,552,551,551,551,550,550,550,550,550,550,550,550,550,550,550,550,550,550,550,550,550,548,548,546,544,542,541,540,537,535,530,526,517,476,458,434,410,381,335,214,171,134,114,92,84,75,63,55,47,36,36,36,36,36,37,40,48,53],"timestamp_mouse":[7,28,47,68,88,108,129,147,167,187,208,227,248,269,288,308,327,347,367,388,407,427,447,467,488,508,529,548,568,587,608,627,647,668,687,708,727,747,767,788,808,828,847,867,887,907,927,947,967,987,1008,1028,1048,1068,1087,1107,1128,1148,1167,1187,1208,1227,1248,1267,1288,1307,1327,1347,1367,1387,1407,1427],"xSR":741.5,"ySR":469.95,"xT1":424.9,"yT1":0,"xT2":1058.1,"yT2":0,"toosoon":0,"cond_shown":"randomdotsizeEA","ratio_trial":750,"smaller_num":"6","larger_num":"8","correct_side":2,"subjID":"mariasalomesuarezvenegas10","gender":"1","age":"11","school":"6"},{"start_time":1551900497772,"click_time":1551900499060,"finger_time":1551900498620,"fix_duration":668.8492067500173,"trial":37,"RT":848,"MT":440,"sideResp":1,"stimulus":"img/250/equaldotsize/L/5_Ratio_250_L_24_R_6.png","xmouse":[808,808,808,808,808,808,808,808,808,808,808,808,808,808,808,808,808,808,808,808,808,808,808,808,808,808,808,808,808,808,808,808,808,807,806,803,798,795,792,791,774,756,741,728,719,714,707,698,681,654,641,627,609,590,555,540,530,521,517,513,506,504,503,503,501],"ymouse":[543,543,543,543,543,543,543,543,543,543,543,543,543,543,543,543,543,543,542,542,542,542,542,542,542,542,542,542,542,542,542,542,542,542,540,534,526,521,517,515,499,485,471,460,444,433,422,408,385,358,349,336,321,303,270,255,242,226,210,194,155,139,125,110,89],"timestamp_mouse":[9,34,48,68,88,109,130,148,169,188,208,229,248,269,288,308,329,349,368,388,408,428,449,469,489,510,528,548,569,588,609,628,648,669,688,708,728,748,768,788,809,828,848,868,888,908,928,948,968,989,1008,1028,1049,1069,1089,1108,1128,1148,1168,1189,1208,1228,1248,1268,1288],"xSR":741.5,"ySR":469.95,"xT1":424.9,"yT1":0,"xT2":1058.1,"yT2":0,"toosoon":0,"cond_shown":"equaldotsize","ratio_trial":250,"smaller_num":"6","larger_num":"24","correct_side":1,"subjID":"mariasalomesuarezvenegas10","gender":"1","age":"11","school":"6"},{"start_time":1551900501250,"click_time":1551900502780,"finger_time":1551900502100,"fix_duration":1067.261856554874,"trial":38,"RT":850,"MT":680,"sideResp":1,"stimulus":"img/500/equaldotanddens/L/5_Ratio_500_L_4_R_2.png","xmouse":[804,804,804,804,804,804,804,804,804,804,804,804,804,804,804,804,804,804,804,804,804,804,804,804,804,804,804,804,804,804,804,804,804,804,804,804,804,804,802,800,795,790,785,778,766,740,729,716,707,694,649,621,601,586,572,561,554,547,541,537,530,530,530,530,530,530,530,529,529,529,529,529,529,529,529,528,521],"ymouse":[517,516,515,515,515,515,515,515,515,515,515,515,515,515,515,515,515,515,515,515,515,515,515,515,515,515,515,515,515,515,515,515,515,515,515,515,515,515,508,505,493,475,456,437,401,342,317,293,274,250,188,155,133,114,98,79,52,41,34,30,28,28,28,28,28,28,29,31,33,34,38,38,38,38,39,39,46],"timestamp_mouse":[18,38,51,70,90,112,130,150,170,191,210,230,251,270,290,311,330,350,371,391,410,430,450,470,491,510,531,552,570,590,610,631,650,671,691,711,731,750,770,790,810,830,850,870,892,911,930,950,971,991,1011,1031,1050,1070,1091,1110,1131,1150,1170,1190,1211,1231,1250,1270,1290,1311,1330,1350,1370,1390,1411,1431,1451,1470,1491,1510,1530],"xSR":741.5,"ySR":469.95,"xT1":424.9,"yT1":0,"xT2":1058.1,"yT2":0,"toosoon":0,"cond_shown":"equaldotanddens","ratio_trial":500,"smaller_num":"2","larger_num":"4","correct_side":1,"subjID":"mariasalomesuarezvenegas10","gender":"1","age":"11","school":"6"},{"start_time":1551900504681,"click_time":1551900505742,"finger_time":1551900505461,"fix_duration":898.4549697491055,"trial":39,"RT":780,"MT":281,"sideResp":2,"stimulus":"img/250/equaldotsize/R/11_Ratio_250_L_3_R_12.png","xmouse":[804,804,804,804,804,804,804,804,804,804,804,804,804,804,804,804,804,804,804,804,804,804,804,804,804,804,804,804,804,804,804,804,804,804,804,804,804,809,820,870,890,910,931,953,1004,1016,1025,1034,1039,1051,1060,1066,1071,1074],"ymouse":[505,505,505,505,505,505,505,505,505,505,505,505,505,505,505,505,505,505,505,505,505,505,505,505,505,505,505,505,505,505,505,505,505,505,505,505,505,502,489,438,412,382,345,308,228,209,194,181,173,151,135,121,107,98],"timestamp_mouse":[1,28,39,59,80,100,120,140,160,180,200,220,240,259,279,300,319,339,359,379,400,419,439,459,479,500,519,539,559,579,599,619,639,659,679,700,720,741,760,780,799,820,840,861,880,900,919,939,959,980,999,1019,1039,1060],"xSR":741.5,"ySR":469.95,"xT1":424.9,"yT1":0,"xT2":1058.1,"yT2":0,"toosoon":0,"cond_shown":"equaldotsize","ratio_trial":250,"smaller_num":"3","larger_num":"12","correct_side":2,"subjID":"mariasalomesuarezvenegas10","gender":"1","age":"11","school":"6"},{"start_time":1551900508231,"click_time":1551900510460,"finger_time":1551900509102,"fix_duration":1469.446748771019,"trial":40,"RT":871,"MT":1358,"sideResp":1,"stimulus":"img/750/equaldotsize/L/13_Ratio_750_L_8_R_6.png","xmouse":[789,789,789,789,789,789,789,789,789,789,789,789,789,789,789,789,789,789,789,789,789,789,789,789,789,789,789,789,789,789,789,789,789,788,787,786,785,780,779,777,774,765,752,738,721,705,676,668,662,659,659,659,658,658,657,650,640,632,630,630,630,630,630,630,630,630,630,629,627,621,614,606,588,579,573,565,550,544,541,536,527,524,511,505,502,500,499,499,498,498,498,498,498,498,498,498,498,499,499,499,499,499,499,499,499,499,499,499,499,499,498,497],"ymouse":[531,531,531,530,530,530,530,530,530,530,530,530,529,529,529,529,529,529,529,529,529,529,529,529,529,529,529,529,529,529,529,529,529,528,528,526,525,518,516,514,510,499,484,464,438,409,352,334,320,312,311,311,310,310,308,299,287,277,275,275,275,275,275,275,275,275,275,274,273,267,259,253,241,235,230,224,213,208,204,199,191,185,172,166,163,159,158,156,153,149,146,141,134,133,130,128,127,121,119,118,118,118,117,117,116,114,114,112,108,106,102,97],"timestamp_mouse":[11,31,49,69,89,109,129,149,169,189,210,229,249,269,289,309,329,349,369,390,410,430,450,470,489,509,529,550,570,589,609,629,650,669,689,709,729,750,769,789,809,829,849,871,890,911,930,951,969,990,1009,1030,1049,1069,1089,1110,1129,1149,1170,1189,1209,1229,1249,1269,1289,1309,1330,1350,1370,1389,1410,1430,1450,1470,1490,1510,1530,1551,1569,1589,1609,1630,1649,1670,1689,1709,1730,1749,1769,1789,1809,1830,1850,1870,1889,1910,1930,1949,1969,1989,2009,2030,2049,2070,2089,2109,2130,2150,2169,2189,2209,2229],"xSR":741.5,"ySR":469.95,"xT1":424.9,"yT1":0,"xT2":1058.1,"yT2":0,"toosoon":0,"cond_shown":"equaldotsize","ratio_trial":750,"smaller_num":"6","larger_num":"8","correct_side":1,"subjID":"mariasalomesuarezvenegas10","gender":"1","age":"11","school":"6"},{"start_time":1551900513990,"click_time":1551900515540,"finger_time":1551900514880,"fix_duration":988.3854775049069,"trial":41,"RT":890,"MT":660,"sideResp":1,"stimulus":"img/250/equaldotanddens/L/3_Ratio_250_L_8_R_2.png","xmouse":[767,767,767,767,767,767,767,767,767,767,767,767,767,767,767,767,767,767,767,767,767,767,767,767,767,767,767,767,767,767,767,767,767,767,766,765,759,755,747,747,747,747,745,742,731,725,711,698,653,640,629,625,620,613,588,577,568,558,542,538,534,531,528,523,518,515,512,509,507,503,502,502,502,497,496,492,490,486],"ymouse":[522,522,522,522,522,522,522,522,522,522,522,522,522,522,522,522,522,522,522,522,522,522,522,522,522,522,522,522,522,522,522,522,522,522,522,522,522,521,519,519,515,508,492,473,436,416,397,378,328,322,317,316,312,307,281,270,260,249,225,219,211,201,193,178,169,160,155,149,145,136,135,135,135,129,121,109,101,93],"timestamp_mouse":[10,30,51,71,91,111,131,150,171,190,210,230,250,270,290,311,331,351,370,390,410,430,450,470,490,510,530,550,570,591,610,630,650,670,691,710,730,752,771,790,811,830,850,870,890,910,930,950,970,990,1010,1030,1050,1070,1090,1111,1131,1151,1171,1191,1210,1231,1250,1271,1290,1310,1330,1351,1371,1390,1410,1431,1451,1471,1492,1512,1532,1550],"xSR":741.5,"ySR":469.95,"xT1":424.9,"yT1":0,"xT2":1058.1,"yT2":0,"toosoon":0,"cond_shown":"equaldotanddens","ratio_trial":250,"smaller_num":"2","larger_num":"8","correct_side":1,"subjID":"mariasalomesuarezvenegas10","gender":"1","age":"11","school":"6"},{"start_time":1551900517051,"click_time":1551900518261,"finger_time":1551900517841,"fix_duration":250,"trial":42,"RT":790,"MT":420,"sideResp":2,"stimulus":"img/750/equaldotanddens/R/5_Ratio_750_L_15_R_20.png","xmouse":[769,769,769,770,770,770,771,771,771,771,771,771,773,773,773,773,773,774,774,775,775,776,776,776,776,777,777,777,777,777,777,777,777,777,777,777,778,783,796,817,838,867,877,888,899,931,945,957,967,978,997,1005,1012,1020,1027,1038,1042,1046,1049,1051,1060],"ymouse":[531,531,531,531,531,531,531,531,531,531,531,531,531,531,531,531,532,533,533,534,534,535,535,535,535,535,535,535,535,535,535,535,535,535,535,535,533,525,504,467,430,389,374,354,335,280,256,237,220,199,163,150,138,125,115,101,96,91,86,84,74],"timestamp_mouse":[10,42,49,69,90,109,129,150,170,190,209,229,249,269,289,310,329,349,370,390,411,430,449,469,490,509,529,549,569,589,610,630,650,670,690,709,730,749,769,790,810,830,850,870,890,910,930,949,969,989,1010,1029,1050,1069,1090,1110,1130,1149,1169,1189,1210],"xSR":741.5,"ySR":469.95,"xT1":424.9,"yT1":0,"xT2":1058.1,"yT2":0,"toosoon":0,"cond_shown":"equaldotanddens","ratio_trial":750,"smaller_num":"15","larger_num":"20","correct_side":2,"subjID":"mariasalomesuarezvenegas10","gender":"1","age":"11","school":"6"},{"start_time":1551900519813,"click_time":1551900520980,"finger_time":1551900520620,"fix_duration":250,"trial":43,"RT":807,"MT":360,"sideResp":2,"stimulus":"img/500/randomdotsizeEA/R/12_Ratio_500_L_1_R_2.png","xmouse":[802,802,802,802,802,802,802,802,802,802,802,802,802,802,802,802,802,802,802,802,802,799,795,771,760,757,757,757,757,757,757,757,757,757,758,760,766,780,805,823,843,862,911,936,955,971,988,1020,1030,1039,1045,1051,1059,1065,1070,1077,1083,1089,1091],"ymouse":[529,529,529,529,529,529,529,529,529,529,529,529,529,529,529,529,529,529,529,529,529,529,529,529,529,529,529,529,529,529,529,529,529,529,529,529,529,529,523,516,505,493,451,422,394,368,334,261,239,223,208,193,166,152,139,127,118,102,98],"timestamp_mouse":[17,27,47,68,87,107,127,147,167,187,207,227,248,267,287,307,327,347,368,387,407,428,447,467,487,508,527,548,568,587,607,628,648,667,687,707,727,747,768,787,807,827,848,867,889,908,928,948,967,987,1009,1027,1048,1067,1087,1107,1128,1147,1167],"xSR":741.5,"ySR":469.95,"xT1":424.9,"yT1":0,"xT2":1058.1,"yT2":0,"toosoon":0,"cond_shown":"randomdotsizeEA","ratio_trial":500,"smaller_num":"1","larger_num":"2","correct_side":2,"subjID":"mariasalomesuarezvenegas10","gender":"1","age":"11","school":"6"},{"start_time":1551900522609,"click_time":1551900523861,"finger_time":1551900523500,"fix_duration":708.4115307601636,"trial":44,"RT":891,"MT":361,"sideResp":1,"stimulus":"img/500/equaldotsize/L/13_Ratio_500_L_12_R_6.png","xmouse":[789,789,789,789,789,788,788,788,788,788,788,787,787,787,788,788,788,788,788,788,788,788,788,788,788,788,788,788,788,788,788,788,788,788,788,788,788,788,788,788,787,785,776,758,730,707,674,644,638,633,627,620,606,599,590,581,568,531,520,508,497,487,476],"ymouse":[523,523,523,523,523,523,523,523,523,523,523,523,516,512,507,503,503,503,503,503,503,503,503,503,503,503,503,503,503,503,503,503,503,503,503,503,503,503,503,503,502,502,497,484,468,456,437,412,405,399,391,379,346,327,308,285,256,173,152,132,115,102,89],"timestamp_mouse":[11,37,52,72,92,112,131,151,171,191,211,231,251,271,292,312,332,351,371,391,411,431,451,471,491,511,531,551,572,592,612,632,652,672,691,711,732,751,771,792,812,831,851,871,891,911,931,951,971,991,1012,1032,1052,1072,1092,1111,1131,1152,1171,1191,1211,1231,1251],"xSR":741.5,"ySR":469.95,"xT1":424.9,"yT1":0,"xT2":1058.1,"yT2":0,"toosoon":0,"cond_shown":"equaldotsize","ratio_trial":500,"smaller_num":"6","larger_num":"12","correct_side":1,"subjID":"mariasalomesuarezvenegas10","gender":"1","age":"11","school":"6"},{"start_time":1551900529129,"click_time":1551900530581,"finger_time":1551900530001,"fix_duration":987.5732007001872,"trial":45,"RT":872,"MT":580,"sideResp":1,"stimulus":"img/900/equaldotsize/L/1_Ratio_900_L_10_R_9.png","xmouse":[796,796,796,796,796,796,796,796,796,796,796,796,796,796,796,796,796,796,796,796,796,796,796,796,796,796,796,796,796,796,796,796,796,796,796,796,796,796,794,793,792,767,752,739,726,713,685,678,671,663,657,635,625,615,603,592,568,556,547,538,534,519,514,509,504,499,495,493,493,492,490,486,485],"ymouse":[527,527,527,527,527,527,527,527,527,527,527,527,527,527,527,527,527,527,527,527,527,527,527,527,527,527,527,527,527,527,527,527,527,527,527,527,527,527,525,524,523,502,492,483,475,466,446,439,431,422,414,397,389,381,373,365,348,340,330,319,310,285,275,262,244,222,187,173,163,151,142,110,96],"timestamp_mouse":[11,32,59,71,91,112,131,151,172,191,211,231,251,271,291,312,331,351,371,391,411,431,451,472,491,512,531,551,571,591,612,632,652,673,691,711,732,752,771,791,811,831,852,872,893,912,933,951,972,992,1012,1032,1051,1071,1091,1111,1131,1151,1172,1192,1211,1232,1253,1271,1292,1312,1332,1353,1371,1391,1411,1431,1452],"xSR":741.5,"ySR":469.95,"xT1":424.9,"yT1":0,"xT2":1058.1,"yT2":0,"toosoon":0,"cond_shown":"equaldotsize","ratio_trial":900,"smaller_num":"9","larger_num":"10","correct_side":1,"subjID":"mariasalomesuarezvenegas10","gender":"1","age":"11","school":"6"},{"start_time":1551900531977,"click_time":1551900537521,"finger_time":1551900533581,"fix_duration":356.58772708923937,"trial":46,"RT":1604,"MT":3940,"sideResp":1,"stimulus":"img/750/randomdotsizeEA/R/15_Ratio_750_L_9_R_12.png","xmouse":[804,804,804,804,804,803,802,800,800,800,800,800,800,800,800,800,800,800,800,800,800,800,800,800,800,800,799,799,799,799,799,799,799,799,799,799,799,799,799,799,799,799,799,799,799,799,799,799,799,799,799,799,799,799,799,799,799,799,799,799,799,799,799,799,799,799,799,799,799,799,799,799,799,799,799,799,795,788,773,746,739,738,737,736,736,736,736,736,735,723,711,701,691,684,676,656,648,640,634,623,621,618,615,613,606,604,603,603,602,601,600,596,592,587,581,580,578,578,578,578,577,574,571,570,567,565,564,563,559,559,555,553,551,549,541,537,533,528,522,507,504,499,496,496,496,495,495,492,489,488,477,474,473,471,467,453,450,446,442,440,438,437,434,429,425,425,425,425,425,425,425,425,425,425,425,424,424,423,421,420,419,419,419,419,419,419,419,419,419,419,422,425,428,430,434,435,436,437,437,439,440,441,442,444,447,448,448,449,449,449,449,451,453,456,459,465,468,470,471,472,472,472,472,472,472,471,471,471,473,476,486,492,500,506,507,507,507,506,506,502,501,500,500,499,499,499,501,505,510,528,533,539,550,555,559,560,560,560,560,560,560,560,560,560,560,560,560,560,560,555,552,550,545,540,531,529,525,519],"ymouse":[526,526,526,526,526,527,527,527,527,527,527,527,527,527,527,527,527,527,527,527,527,527,527,527,527,527,528,528,528,528,528,528,528,528,528,528,528,528,528,528,528,528,528,528,528,528,528,528,528,528,528,528,528,528,528,528,528,528,528,528,528,528,528,528,528,528,528,528,528,528,528,528,528,528,528,528,526,520,507,491,487,487,487,487,486,486,486,486,485,479,472,467,462,458,453,443,436,431,427,416,413,410,406,403,398,397,396,396,395,395,393,389,386,384,381,381,380,380,379,379,378,375,371,367,365,359,357,356,350,350,345,343,340,339,333,329,325,318,310,282,275,268,265,263,263,263,262,260,255,253,216,209,205,203,196,181,181,178,176,175,174,172,169,165,162,161,161,161,161,161,161,161,161,161,161,160,160,160,160,160,160,160,160,160,160,160,160,160,160,160,165,168,173,176,182,184,185,187,189,191,194,196,197,200,204,207,207,207,207,207,209,212,216,221,227,237,242,246,249,250,250,250,250,250,248,245,236,222,203,184,144,131,118,110,110,110,110,110,110,110,110,110,110,110,110,110,109,108,106,99,98,96,90,86,82,81,81,81,81,81,81,81,81,81,81,81,81,81,81,83,84,86,87,88,92,92,94,96],"timestamp_mouse":[9,32,43,63,83,104,124,144,164,184,204,223,244,264,284,303,323,344,365,384,404,424,444,464,483,504,524,543,563,583,603,624,643,663,684,704,724,744,763,783,804,824,843,864,884,903,924,944,965,984,1004,1023,1043,1063,1083,1103,1123,1143,1163,1184,1203,1224,1244,1263,1283,1303,1323,1343,1363,1383,1403,1423,1443,1464,1484,1503,1523,1543,1563,1583,1604,1623,1644,1664,1684,1703,1724,1744,1765,1784,1805,1823,1843,1863,1884,1903,1923,1944,1964,1984,2003,2023,2044,2064,2084,2105,2124,2143,2163,2184,2203,2223,2243,2263,2284,2303,2325,2344,2364,2384,2404,2424,2444,2464,2483,2504,2524,2543,2569,2583,2603,2623,2643,2663,2683,2703,2723,2743,2763,2784,2803,2824,2844,2864,2884,2903,2925,2945,2964,2984,3004,3023,3044,3064,3084,3104,3124,3143,3163,3185,3203,3223,3243,3263,3284,3303,3323,3343,3363,3384,3403,3423,3443,3464,3484,3504,3525,3544,3563,3584,3603,3623,3643,3663,3684,3703,3724,3743,3763,3784,3804,3824,3844,3864,3885,3904,3924,3944,3964,3985,4003,4023,4043,4063,4084,4104,4124,4143,4163,4184,4204,4223,4244,4264,4284,4303,4324,4344,4364,4384,4404,4424,4444,4464,4484,4504,4524,4544,4564,4584,4604,4623,4643,4663,4684,4703,4723,4743,4763,4784,4804,4824,4844,4865,4884,4904,4924,4943,4963,4983,5004,5023,5043,5064,5084,5103,5125,5144,5164,5184,5204,5224,5244,5263,5283,5303,5323,5343,5363,5385,5404,5423,5443,5464,5484,5503,5524,5543],"xSR":741.5,"ySR":469.95,"xT1":424.9,"yT1":0,"xT2":1058.1,"yT2":0,"toosoon":0,"cond_shown":"randomdotsizeEA","ratio_trial":750,"smaller_num":"9","larger_num":"12","correct_side":2,"subjID":"mariasalomesuarezvenegas10","gender":"1","age":"11","school":"6"},{"start_time":1551900541799,"click_time":1551900542900,"finger_time":1551900542500,"fix_duration":877.9291060442723,"trial":47,"RT":701,"MT":400,"sideResp":2,"stimulus":"img/250/equaldotanddens/R/8_Ratio_250_L_1_R_4.png","xmouse":[814,814,814,814,814,814,814,814,813,807,805,805,805,805,805,805,805,805,805,805,805,805,805,805,805,805,805,805,805,805,805,804,804,808,814,820,827,840,861,871,882,896,911,932,943,953,962,974,991,1001,1010,1022,1031,1040,1057,1064],"ymouse":[542,542,542,542,542,542,542,542,542,535,533,533,533,533,533,533,533,533,533,533,533,533,533,533,533,533,533,533,533,533,532,528,518,489,472,455,438,407,360,336,313,286,257,205,184,168,155,139,116,101,89,77,67,57,48,44],"timestamp_mouse":[9,22,41,61,81,101,122,141,161,182,201,222,243,262,282,302,322,342,362,382,401,421,441,461,482,501,521,542,562,581,601,621,641,661,681,701,722,742,762,781,801,821,841,861,881,902,921,941,962,981,1001,1023,1042,1062,1081,1101],"xSR":741.5,"ySR":469.95,"xT1":424.9,"yT1":0,"xT2":1058.1,"yT2":0,"toosoon":0,"cond_shown":"equaldotanddens","ratio_trial":250,"smaller_num":"1","larger_num":"4","correct_side":2,"subjID":"mariasalomesuarezvenegas10","gender":"1","age":"11","school":"6"},{"start_time":1551900545428,"click_time":1551900547121,"finger_time":1551900546560,"fix_duration":1305.5386898401148,"trial":48,"RT":1132,"MT":561,"sideResp":2,"stimulus":"img/900/equaldotsize/R/13_Ratio_900_L_18_R_20.png","xmouse":[805,805,805,805,805,805,805,805,805,805,805,805,805,805,805,805,805,805,805,805,805,805,805,805,805,805,805,805,805,805,805,805,805,805,805,805,805,805,805,805,805,805,805,805,805,805,805,805,805,805,805,805,805,805,805,805,810,824,842,863,882,909,915,922,927,934,947,952,959,967,977,991,992,993,993,994,1007,1011,1016,1021,1026,1038,1047,1058,1067],"ymouse":[496,496,496,496,496,496,496,496,496,496,496,496,496,496,496,496,496,496,496,496,496,496,496,496,496,496,496,496,496,496,496,496,496,496,496,496,496,496,496,496,496,496,496,496,496,496,496,496,496,496,496,496,496,496,496,496,467,430,394,364,337,299,278,258,238,216,182,164,141,119,98,70,68,66,66,65,58,56,55,53,52,49,48,46,43],"timestamp_mouse":[15,41,52,72,94,113,132,153,173,194,213,232,252,272,292,313,333,352,373,392,413,432,452,472,492,512,533,553,573,592,613,633,652,672,692,713,732,753,773,793,812,832,852,873,892,912,932,953,974,994,1013,1032,1053,1072,1092,1113,1132,1152,1172,1192,1212,1232,1252,1272,1292,1312,1333,1354,1372,1394,1413,1433,1452,1473,1492,1512,1533,1552,1572,1592,1613,1633,1652,1674,1693],"xSR":741.5,"ySR":469.95,"xT1":424.9,"yT1":0,"xT2":1058.1,"yT2":0,"toosoon":0,"cond_shown":"equaldotsize","ratio_trial":900,"smaller_num":"18","larger_num":"20","correct_side":2,"subjID":"mariasalomesuarezvenegas10","gender":"1","age":"11","school":"6"},{"start_time":1551900549328,"click_time":1551900551261,"finger_time":1551900550641,"fix_duration":1166.1891723846911,"trial":49,"RT":1313,"MT":620,"sideResp":2,"stimulus":"img/750/equaldotsize/R/15_Ratio_750_L_9_R_12.png","xmouse":[795,795,795,797,797,797,797,797,797,797,797,797,797,797,797,797,797,797,797,797,797,797,797,797,797,797,797,797,797,797,797,797,797,797,797,797,797,797,797,797,797,797,797,797,799,799,799,799,799,799,799,799,799,799,799,799,801,805,808,811,811,811,811,816,823,832,846,872,885,896,904,916,918,923,930,940,957,967,977,987,1000,1014,1018,1024,1031,1039,1050,1056,1056,1056,1056,1056,1057,1057,1057,1057,1059],"ymouse":[527,527,527,527,527,527,527,527,527,527,527,527,527,527,527,527,527,527,527,527,527,527,527,527,527,527,527,527,527,527,527,527,527,527,527,527,527,527,527,527,527,527,526,523,521,521,521,521,521,521,521,521,521,521,521,519,516,511,507,503,503,503,500,490,473,453,423,361,336,317,299,262,246,229,213,195,168,154,137,120,98,73,61,53,42,34,24,20,20,20,20,20,26,29,30,33,39],"timestamp_mouse":[13,40,52,72,92,113,132,152,172,192,212,234,254,273,294,313,333,354,373,393,413,433,454,473,493,513,533,553,573,593,613,632,652,672,692,712,732,753,772,792,812,832,853,873,893,912,932,952,972,992,1012,1032,1052,1072,1092,1112,1132,1153,1172,1193,1212,1234,1253,1273,1294,1313,1333,1353,1373,1393,1414,1433,1452,1472,1493,1512,1533,1552,1572,1592,1612,1633,1652,1672,1692,1712,1733,1753,1774,1793,1814,1833,1853,1872,1893,1913,1933],"xSR":741.5,"ySR":469.95,"xT1":424.9,"yT1":0,"xT2":1058.1,"yT2":0,"toosoon":0,"cond_shown":"equaldotsize","ratio_trial":750,"smaller_num":"9","larger_num":"12","correct_side":2,"subjID":"mariasalomesuarezvenegas10","gender":"1","age":"11","school":"6"},{"start_time":1551900552785,"click_time":1551900554020,"finger_time":1551900553620,"fix_duration":343.15683926391137,"trial":50,"RT":835,"MT":400,"sideResp":2,"stimulus":"img/250/randomdotsizeEA/R/11_Ratio_250_L_3_R_12.png","xmouse":[805,805,805,805,805,805,805,805,805,805,805,805,805,805,805,805,805,805,805,805,805,805,805,805,805,805,805,805,805,805,805,805,805,805,805,805,805,805,805,811,820,832,845,858,904,925,941,953,962,976,985,995,1008,1026,1034,1041,1046,1050,1057,1057,1060,1064],"ymouse":[540,540,540,540,540,540,540,540,540,540,540,540,540,540,540,540,540,540,540,540,540,540,540,540,540,540,540,540,540,540,540,540,540,540,540,540,540,537,518,499,477,457,439,416,358,334,317,304,287,251,234,216,195,167,153,142,131,122,106,105,100,94],"timestamp_mouse":[16,39,56,76,95,115,137,157,177,195,215,235,255,275,295,316,336,355,375,395,415,436,455,475,495,516,535,555,576,595,615,635,655,675,695,715,735,755,780,795,815,835,856,876,896,916,935,955,975,995,1016,1035,1055,1075,1095,1116,1135,1155,1175,1195,1215,1235],"xSR":741.5,"ySR":469.95,"xT1":424.9,"yT1":0,"xT2":1058.1,"yT2":0,"toosoon":0,"cond_shown":"randomdotsizeEA","ratio_trial":250,"smaller_num":"3","larger_num":"12","correct_side":2,"subjID":"mariasalomesuarezvenegas10","gender":"1","age":"11","school":"6"},{"start_time":1551900556053,"click_time":1551900558162,"finger_time":1551900557100,"fix_duration":1110.7852310101807,"trial":51,"RT":1047,"MT":1062,"sideResp":2,"stimulus":"img/750/equaldotsize/R/2_Ratio_750_L_6_R_8.png","xmouse":[777,777,777,777,777,777,777,777,777,777,777,777,777,777,777,777,777,777,777,777,777,777,777,777,777,777,777,777,777,777,777,777,777,777,777,777,777,777,777,777,777,777,777,777,778,780,787,789,789,789,789,791,797,808,831,862,875,886,900,919,963,977,983,986,989,994,998,1004,1009,1011,1014,1021,1025,1030,1033,1033,1035,1040,1045,1053,1057,1057,1057,1057,1057,1057,1057,1057,1057,1057,1057,1057,1058,1058,1058,1058,1058,1058,1058,1058,1058,1058,1058,1058,1058,1068],"ymouse":[533,533,533,533,533,533,533,533,533,533,533,533,533,533,533,533,533,533,533,533,533,533,533,533,533,533,533,533,533,533,533,533,533,533,533,533,533,533,533,533,533,533,533,533,532,522,503,498,496,495,493,484,469,444,395,347,325,298,263,225,152,130,116,103,89,70,64,56,50,48,45,42,40,38,37,37,37,40,41,44,45,45,45,45,45,45,45,45,45,45,45,45,46,46,46,46,46,46,46,46,46,46,46,46,46,49],"timestamp_mouse":[9,36,48,69,88,108,128,149,168,187,208,228,247,267,288,307,328,347,368,387,408,427,447,467,487,508,528,547,567,587,608,627,647,667,687,708,727,747,767,787,807,827,848,867,887,907,928,947,968,987,1007,1027,1047,1067,1087,1107,1128,1147,1168,1187,1208,1227,1247,1267,1288,1308,1327,1347,1368,1388,1408,1428,1448,1467,1487,1508,1528,1547,1567,1587,1608,1627,1647,1667,1687,1708,1727,1747,1767,1787,1808,1828,1847,1868,1888,1908,1929,1949,1968,1988,2008,2028,2048,2068,2089,2109],"xSR":741.5,"ySR":469.95,"xT1":424.9,"yT1":0,"xT2":1058.1,"yT2":0,"toosoon":0,"cond_shown":"equaldotsize","ratio_trial":750,"smaller_num":"6","larger_num":"8","correct_side":2,"subjID":"mariasalomesuarezvenegas10","gender":"1","age":"11","school":"6"},{"start_time":1551900560694,"click_time":1551900561921,"finger_time":1551900561460,"fix_duration":1171.324119598352,"trial":52,"RT":766,"MT":461,"sideResp":2,"stimulus":"img/900/randomdotsizeEA/R/7_Ratio_900_L_9_R_10.png","xmouse":[798,798,797,797,797,797,797,797,796,796,796,796,796,796,796,796,796,796,796,796,796,796,796,796,795,795,795,795,795,795,795,795,795,795,795,801,810,821,847,859,869,882,902,924,934,942,950,957,969,979,987,999,1009,1039,1045,1052,1057,1060,1065,1076,1082,1088],"ymouse":[529,529,529,529,529,529,529,529,529,529,529,529,529,529,529,529,529,529,529,529,529,529,529,529,529,529,529,529,529,529,529,529,529,528,525,512,498,484,449,433,416,399,371,343,330,320,308,296,271,255,241,224,208,171,162,153,146,139,131,109,100,90],"timestamp_mouse":[11,31,46,66,88,107,127,147,168,187,207,228,248,266,286,306,327,346,367,387,407,427,446,467,486,507,526,546,566,587,607,626,646,666,686,706,726,746,766,786,807,826,846,866,886,906,927,948,967,986,1006,1026,1047,1066,1086,1106,1126,1146,1167,1186,1206,1226],"xSR":741.5,"ySR":469.95,"xT1":424.9,"yT1":0,"xT2":1058.1,"yT2":0,"toosoon":0,"cond_shown":"randomdotsizeEA","ratio_trial":900,"smaller_num":"9","larger_num":"10","correct_side":2,"subjID":"mariasalomesuarezvenegas10","gender":"1","age":"11","school":"6"},{"start_time":1551900562968,"click_time":1551900564541,"finger_time":1551900563701,"fix_duration":347.473428505895,"trial":53,"RT":733,"MT":840,"sideResp":2,"stimulus":"img/500/equaldotsize/R/2_Ratio_500_L_3_R_6.png","xmouse":[793,793,793,793,793,793,793,793,793,793,793,793,793,793,793,793,793,793,793,793,793,793,793,793,793,793,793,793,793,793,796,799,803,811,826,838,854,868,883,913,922,930,934,936,942,944,951,956,962,967,972,978,987,999,1008,1013,1020,1039,1063,1089,1090,1090,1090,1090,1094,1109,1111,1111,1111,1111,1111,1111,1111,1111,1111,1112,1112,1113,1115],"ymouse":[561,560,560,560,560,560,560,560,560,559,559,559,559,559,559,559,559,559,559,559,559,559,559,559,559,559,559,559,559,558,549,541,533,521,499,483,461,442,421,373,356,337,325,314,295,286,271,261,247,236,228,216,203,188,176,169,161,143,129,114,113,113,113,113,112,108,107,107,107,107,107,107,107,107,107,107,106,101,98],"timestamp_mouse":[16,33,52,72,92,113,132,152,172,192,213,232,252,272,292,312,332,352,372,392,412,434,454,474,493,514,532,553,572,592,612,632,653,672,692,712,733,752,773,793,813,833,853,873,893,912,932,952,972,993,1012,1032,1053,1074,1093,1112,1132,1152,1172,1193,1212,1233,1252,1273,1293,1312,1333,1354,1373,1393,1412,1432,1453,1473,1493,1512,1532,1552,1573],"xSR":741.5,"ySR":469.95,"xT1":424.9,"yT1":0,"xT2":1058.1,"yT2":0,"toosoon":0,"cond_shown":"equaldotsize","ratio_trial":500,"smaller_num":"3","larger_num":"6","correct_side":2,"subjID":"mariasalomesuarezvenegas10","gender":"1","age":"11","school":"6"},{"start_time":1551900566482,"click_time":1551900570880,"finger_time":1551900567300,"fix_duration":620.5232590232949,"trial":54,"RT":818,"MT":3580,"sideResp":1,"stimulus":"img/250/equaldotanddens/L/14_Ratio_250_L_12_R_3.png","xmouse":[787,787,787,787,785,784,784,784,784,784,784,784,784,785,785,786,787,787,788,788,788,790,790,790,790,791,791,792,792,792,792,792,792,792,792,792,790,785,776,748,731,715,705,698,680,664,647,632,621,598,589,583,579,575,574,570,564,552,535,487,456,420,384,343,313,301,288,281,277,272,272,272,272,272,272,271,271,271,271,271,271,270,269,267,268,268,268,268,268,268,268,269,269,269,269,269,269,269,269,269,269,269,269,269,269,269,269,269,269,269,269,269,265,262,262,262,262,280,356,375,387,387,367,364,364,364,364,364,364,364,364,364,364,364,364,364,364,364,364,364,364,364,364,364,364,364,364,364,364,364,364,364,364,364,364,364,364,364,364,364,364,364,364,364,364,364,364,367,385,402,420,435,447,458,465,473,481,489,498,525,539,554,566,582,582,582,582,583,590,596,598,599,599,599,604,606,608,610,616,617,617,612,605,574,561,554,547,539,533,522,516,513,507,501,499,499,499,495,483,471],"ymouse":[510,510,510,510,510,510,510,510,510,510,510,510,510,510,510,510,510,510,509,509,508,507,507,507,507,506,506,504,504,504,504,504,504,504,503,503,503,503,503,499,492,487,481,476,449,426,409,396,386,368,355,344,337,334,333,329,322,322,322,322,323,328,333,339,342,344,346,347,347,348,348,348,348,348,348,348,348,348,348,351,355,360,366,381,385,386,386,386,386,386,386,387,387,387,387,387,387,387,387,387,387,387,387,387,387,387,387,387,387,387,388,388,388,388,388,388,389,381,316,308,308,321,351,357,357,357,357,357,357,357,357,357,357,357,357,357,357,357,357,357,357,357,357,357,357,357,357,357,357,357,357,357,357,357,357,357,357,357,357,357,357,357,357,357,357,357,356,354,342,333,324,316,310,309,312,319,333,353,376,416,431,443,452,464,464,464,464,465,463,453,441,424,392,327,284,267,251,231,193,179,170,162,155,139,135,132,127,125,124,125,128,130,131,130,128,125,120,113,100,95],"timestamp_mouse":[19,39,58,78,99,119,139,159,179,199,220,238,258,278,298,318,338,359,379,399,420,439,460,479,499,518,538,558,578,598,618,638,659,679,699,719,739,758,778,798,818,838,858,878,899,918,938,959,979,999,1019,1