[{"start_time":1551899637645,"click_time":1551899639869,"finger_time":1551899639328,"fix_duration":372.40389428635865,"trial":0,"RT":1683,"MT":541,"sideResp":2,"stimulus":[],"xmouse":[785,785,785,785,785,785,785,785,785,785,785,785,785,785,785,785,785,785,785,785,785,785,785,785,785,785,785,785,785,785,785,785,785,785,785,785,785,785,785,785,785,785,785,785,785,785,785,785,785,785,785,785,785,785,785,785,785,785,785,785,785,785,785,785,785,785,785,785,785,785,785,785,785,785,785,785,785,785,785,788,792,799,811,816,826,838,855,916,928,934,938,941,947,966,974,980,989,1005,1014,1023,1033,1039,1050,1058,1064,1070,1074,1079,1083,1094,1104,1107],"ymouse":[537,537,537,537,537,537,537,537,537,537,537,537,537,537,537,537,537,537,537,537,537,537,537,537,537,537,537,537,537,537,537,537,537,537,537,537,537,537,537,537,537,537,537,537,537,537,537,537,537,537,537,537,537,537,537,537,537,537,537,537,537,537,537,537,537,537,537,537,537,537,537,537,537,537,537,537,537,537,537,536,533,525,511,507,499,492,479,427,415,406,396,384,370,336,319,304,286,263,249,238,224,211,180,162,146,132,121,113,111,106,101,98],"timestamp_mouse":[9,23,50,64,83,103,124,144,163,183,203,224,243,263,283,303,323,344,363,383,404,424,445,464,484,504,524,545,563,583,604,623,643,664,684,704,725,744,764,784,804,824,844,864,884,903,923,943,963,983,1003,1023,1043,1063,1083,1104,1124,1144,1164,1184,1203,1223,1244,1264,1285,1304,1324,1344,1363,1384,1404,1424,1444,1465,1484,1505,1523,1544,1563,1584,1603,1624,1643,1663,1683,1704,1723,1744,1764,1784,1804,1823,1844,1863,1884,1904,1924,1944,1965,1984,2004,2024,2044,2065,2084,2104,2124,2143,2164,2185,2203,2223],"xSR":741.5,"ySR":501.8,"xT1":424.9,"yT1":0,"xT2":1058.1,"yT2":0,"toosoon":0,"cond_shown":"Congruent","ratio_trial":300,"L_num":1,"L_den":3,"R_num":19,"R_den":30,"correct_side":2,"subjID":"mariasalomesuarezvenegas10","gender":"1","age":"11","school":"6","test":{"fix_dur":[250,1500],"timestim":1000,"targets_dim":[100,100],"targets_relative_coord":[0.3,0.7],"size_stim":[880,420],"start_dim":[100,100],"size_start":[300,300],"size_fix":60,"samplingrate":20,"img_types":["Congruent","Incongruent"],"ratios":[100,200,300],"rep_conds":19,"nTrials":120,"trials_to_rest":500,"Trials_order":[118,36,54,109,23,82,72,99,46,80,16,49,107,13,28,79,60,94,31,21,20,2,5,88,47,102,76,56,42,48,39,92,52,68,3,101,12,63,113,111,110,40,53,119,6,55,77,30,57,4,45,25,43,62,112,38,106,44,69,61,70,90,108,96,78,74,35,116,87,105,41,37,17,85,51,64,84,97,67,0,22,115,32,8,104,58,65,75,9,86,117,14,7,81,95,73,19,59,26,18,103,1,50,71,24,89,15,100,29,83,66,91,114,33,11,93,98,34,27,10],"cond_shown":["Congruent","Congruent","Congruent","Incongruent","Incongruent","Congruent","Congruent","Incongruent","Congruent","Congruent","Congruent","Incongruent","Incongruent","Incongruent","Congruent","Incongruent","Congruent","Congruent","Incongruent","Incongruent","Congruent","Congruent","Incongruent","Congruent","Incongruent","Congruent","Congruent","Congruent","Congruent","Congruent","Incongruent","Congruent","Congruent","Congruent","Incongruent","Incongruent","Congruent","Incongruent","Incongruent","Incongruent","Congruent","Congruent","Incongruent","Incongruent","Congruent","Incongruent","Incongruent","Congruent","Incongruent","Congruent","Incongruent","Incongruent","Incongruent","Congruent","Congruent","Congruent","Congruent","Congruent","Incongruent","Incongruent","Congruent","Congruent","Congruent","Congruent","Congruent","Congruent","Incongruent","Congruent","Incongruent","Incongruent","Incongruent","Incongruent","Incongruent","Incongruent","Incongruent","Congruent","Congruent","Incongruent","Incongruent","Congruent","Congruent","Incongruent","Congruent","Congruent","Congruent","Congruent","Incongruent","Incongruent","Incongruent","Congruent","Incongruent","Congruent","Incongruent","Incongruent","Incongruent","Incongruent","Incongruent","Incongruent","Congruent","Congruent","Incongruent","Incongruent","Congruent","Incongruent","Congruent","Incongruent","Incongruent","Congruent","Incongruent","Incongruent","Congruent","Incongruent","Congruent","Incongruent","Incongruent","Incongruent","Congruent","Congruent","Incongruent","Congruent"],"ratio_trial":[300,100,100,100,300,300,100,200,300,200,300,100,300,100,300,100,100,300,100,200,200,200,300,300,300,100,300,200,100,100,200,200,300,200,200,300,100,200,300,200,200,300,300,300,100,100,300,100,200,300,200,100,100,200,300,200,300,200,200,100,300,100,100,100,100,200,300,200,200,200,300,100,300,100,200,300,100,100,100,100,300,100,200,200,200,300,300,200,200,200,200,200,100,200,300,100,100,300,200,100,100,100,200,300,100,300,200,300,300,300,100,100,100,200,300,200,200,300,200,300],"left_num":[1,7,2,11,1,4,3,4,20,21,18,8,13,9,9,13,3,5,6,11,5,21,13,11,13,1,8,15,4,2,1,4,1,5,14,13,7,4,1,7,1,11,3,4,3,6,1,11,7,7,7,10,8,1,1,13,12,3,1,12,11,4,3,7,1,3,13,20,7,6,13,6,13,6,4,4,12,6,3,1,11,6,6,16,3,1,4,9,4,9,7,3,8,7,4,6,13,13,6,8,8,13,6,2,12,4,3,1,1,7,1,4,7,7,1,14,16,11,7,20],"right_num":[19,15,11,9,2,2,4,1,13,2,9,6,12,13,3,6,4,6,11,3,14,2,12,4,12,3,10,4,15,6,2,3,8,14,12,12,15,1,3,12,21,1,4,2,4,7,2,6,4,20,8,9,1,21,6,14,2,14,2,2,2,15,2,15,18,11,12,9,6,3,12,7,12,3,14,1,13,13,11,3,1,11,11,12,9,8,2,8,14,4,14,14,1,14,2,13,6,12,11,2,1,12,7,6,13,2,11,7,2,8,18,8,9,8,3,12,12,2,6,14],"left_den":[3,14,5,22,2,5,20,30,25,30,20,16,26,15,10,26,20,25,10,20,10,30,26,22,26,2,15,25,10,5,3,8,30,10,30,26,14,30,2,10,2,22,6,20,20,10,2,22,15,14,10,25,20,2,5,26,24,10,3,30,22,10,6,14,2,10,26,25,15,20,26,10,26,12,6,10,30,10,5,2,22,10,20,20,12,30,20,15,6,20,10,6,20,10,20,10,26,26,20,16,20,26,12,4,30,20,4,20,2,10,2,8,14,10,2,30,20,22,15,25],"right_den":[30,25,22,15,10,4,16,3,26,4,15,10,15,26,5,10,16,12,22,4,20,4,15,20,15,5,12,10,30,12,15,10,24,20,18,15,25,3,15,24,30,5,20,4,16,14,10,15,6,25,16,18,2,30,12,20,10,28,15,4,10,30,5,25,30,22,15,15,9,6,15,14,15,5,30,10,26,26,22,5,5,22,22,20,20,24,4,10,30,16,28,20,2,28,4,26,10,15,22,5,2,20,10,30,26,4,20,20,10,20,30,20,15,16,15,18,20,10,9,28],"correct_side":[2,2,2,2,1,1,2,2,1,1,1,2,2,1,1,2,2,2,1,2,2,1,2,1,2,2,2,1,2,2,1,1,2,2,2,2,2,2,1,1,2,1,1,2,2,1,1,1,2,2,1,2,2,2,2,2,1,2,1,2,1,2,1,2,2,2,2,1,2,2,2,1,2,2,1,1,2,1,1,2,1,1,2,1,2,2,2,2,1,1,1,2,2,1,2,1,2,2,2,1,2,2,2,1,2,2,1,2,1,1,2,1,2,1,1,2,1,1,2,1],"img_shown":["img2/300/Congruent/R/C_Dist_300_LN_1_LD_3_RN_19_RD_30_1.png","img2/100/Congruent/R/C_Dist_100_LN_7_LD_14_RN_15_RD_25_1.png","img2/100/Congruent/R/C_Dist_100_LN_2_LD_5_RN_11_RD_22_1.png","img2/100/Incongruent/R/I_Dist_100_LN_11_LD_22_RN_9_RD_15_1.png","img2/300/Incongruent/L/I_Dist_300_LN_1_LD_2_RN_2_RD_10_0.png","img2/300/Congruent/L/C_Dist_300_LN_4_LD_5_RN_2_RD_4_0.png","img2/100/Congruent/R/C_Dist_100_LN_3_LD_20_RN_4_RD_16_1.png","img2/200/Incongruent/R/I_Dist_200_LN_4_LD_30_RN_1_RD_3_1.png","img2/300/Congruent/L/C_Dist_300_LN_20_LD_25_RN_13_RD_26_0.png","img2/200/Congruent/L/C_Dist_200_LN_21_LD_30_RN_2_RD_4_0.png","img2/300/Congruent/L/C_Dist_300_LN_18_LD_20_RN_9_RD_15_0.png","img2/100/Incongruent/R/I_Dist_100_LN_8_LD_16_RN_6_RD_10_1.png","img2/300/Incongruent/R/I_Dist_300_LN_13_LD_26_RN_12_RD_15_1.png","img2/100/Incongruent/L/I_Dist_100_LN_9_LD_15_RN_13_RD_26_0.png","img2/300/Congruent/L/C_Dist_300_LN_9_LD_10_RN_3_RD_5_0.png","img2/100/Incongruent/R/I_Dist_100_LN_13_LD_26_RN_6_RD_10_1.png","img2/100/Congruent/R/C_Dist_100_LN_3_LD_20_RN_4_RD_16_1.png","img2/300/Congruent/R/C_Dist_300_LN_5_LD_25_RN_6_RD_12_1.png","img2/100/Incongruent/L/I_Dist_100_LN_6_LD_10_RN_11_RD_22_0.png","img2/200/Incongruent/R/I_Dist_200_LN_11_LD_20_RN_3_RD_4_1.png","img2/200/Congruent/R/C_Dist_200_LN_5_LD_10_RN_14_RD_20_1.png","img2/200/Congruent/L/C_Dist_200_LN_21_LD_30_RN_2_RD_4_0.png","img2/300/Incongruent/R/I_Dist_300_LN_13_LD_26_RN_12_RD_15_1.png","img2/300/Congruent/L/C_Dist_300_LN_11_LD_22_RN_4_RD_20_0.png","img2/300/Incongruent/R/I_Dist_300_LN_13_LD_26_RN_12_RD_15_1.png","img2/100/Congruent/R/C_Dist_100_LN_1_LD_2_RN_3_RD_5_1.png","img2/300/Congruent/R/C_Dist_300_LN_8_LD_15_RN_10_RD_12_1.png","img2/200/Congruent/L/C_Dist_200_LN_15_LD_25_RN_4_RD_10_0.png","img2/100/Congruent/R/C_Dist_100_LN_4_LD_10_RN_15_RD_30_1.png","img2/100/Congruent/R/C_Dist_100_LN_2_LD_5_RN_6_RD_12_1.png","img2/200/Incongruent/L/I_Dist_200_LN_1_LD_3_RN_2_RD_15_0.png","img2/200/Congruent/L/C_Dist_200_LN_4_LD_8_RN_3_RD_10_0.png","img2/300/Congruent/R/C_Dist_300_LN_1_LD_30_RN_8_RD_24_1.png","img2/200/Congruent/R/C_Dist_200_LN_5_LD_10_RN_14_RD_20_1.png","img2/200/Incongruent/R/I_Dist_200_LN_14_LD_30_RN_12_RD_18_1.png","img2/300/Incongruent/R/I_Dist_300_LN_13_LD_26_RN_12_RD_15_1.png","img2/100/Congruent/R/C_Dist_100_LN_7_LD_14_RN_15_RD_25_1.png","img2/200/Incongruent/R/I_Dist_200_LN_4_LD_30_RN_1_RD_3_1.png","img2/300/Incongruent/L/I_Dist_300_LN_1_LD_2_RN_3_RD_15_0.png","img2/200/Incongruent/L/I_Dist_200_LN_7_LD_10_RN_12_RD_24_0.png","img2/200/Congruent/R/C_Dist_200_LN_1_LD_2_RN_21_RD_30_1.png","img2/300/Congruent/L/C_Dist_300_LN_11_LD_22_RN_1_RD_5_0.png","img2/300/Incongruent/L/I_Dist_300_LN_3_LD_6_RN_4_RD_20_0.png","img2/300/Incongruent/R/I_Dist_300_LN_4_LD_20_RN_2_RD_4_1.png","img2/100/Congruent/R/C_Dist_100_LN_3_LD_20_RN_4_RD_16_1.png","img2/100/Incongruent/L/I_Dist_100_LN_6_LD_10_RN_7_RD_14_0.png","img2/300/Incongruent/L/I_Dist_300_LN_1_LD_2_RN_2_RD_10_0.png","img2/100/Congruent/L/C_Dist_100_LN_11_LD_22_RN_6_RD_15_0.png","img2/200/Incongruent/R/I_Dist_200_LN_7_LD_15_RN_4_RD_6_1.png","img2/300/Congruent/R/C_Dist_300_LN_7_LD_14_RN_20_RD_25_1.png","img2/200/Incongruent/L/I_Dist_200_LN_7_LD_10_RN_8_RD_16_0.png","img2/100/Incongruent/R/I_Dist_100_LN_10_LD_25_RN_9_RD_18_1.png","img2/100/Incongruent/R/I_Dist_100_LN_8_LD_20_RN_1_RD_2_1.png","img2/200/Congruent/R/C_Dist_200_LN_1_LD_2_RN_21_RD_30_1.png","img2/300/Congruent/R/C_Dist_300_LN_1_LD_5_RN_6_RD_12_1.png","img2/200/Congruent/R/C_Dist_200_LN_13_LD_26_RN_14_RD_20_1.png","img2/300/Congruent/L/C_Dist_300_LN_12_LD_24_RN_2_RD_10_0.png","img2/200/Congruent/R/C_Dist_200_LN_3_LD_10_RN_14_RD_28_1.png","img2/200/Incongruent/L/I_Dist_200_LN_1_LD_3_RN_2_RD_15_0.png","img2/100/Incongruent/R/I_Dist_100_LN_12_LD_30_RN_2_RD_4_1.png","img2/300/Congruent/L/C_Dist_300_LN_11_LD_22_RN_2_RD_10_0.png","img2/100/Congruent/R/C_Dist_100_LN_4_LD_10_RN_15_RD_30_1.png","img2/100/Congruent/L/C_Dist_100_LN_3_LD_6_RN_2_RD_5_0.png","img2/100/Congruent/R/C_Dist_100_LN_7_LD_14_RN_15_RD_25_1.png","img2/100/Congruent/R/C_Dist_100_LN_1_LD_2_RN_18_RD_30_1.png","img2/200/Congruent/R/C_Dist_200_LN_3_LD_10_RN_11_RD_22_1.png","img2/300/Incongruent/R/I_Dist_300_LN_13_LD_26_RN_12_RD_15_1.png","img2/200/Congruent/L/C_Dist_200_LN_20_LD_25_RN_9_RD_15_0.png","img2/200/Incongruent/R/I_Dist_200_LN_7_LD_15_RN_6_RD_9_1.png","img2/200/Incongruent/R/I_Dist_200_LN_6_LD_20_RN_3_RD_6_1.png","img2/300/Incongruent/R/I_Dist_300_LN_13_LD_26_RN_12_RD_15_1.png","img2/100/Incongruent/L/I_Dist_100_LN_6_LD_10_RN_7_RD_14_0.png","img2/300/Incongruent/R/I_Dist_300_LN_13_LD_26_RN_12_RD_15_1.png","img2/100/Incongruent/R/I_Dist_100_LN_6_LD_12_RN_3_RD_5_1.png","img2/200/Incongruent/L/I_Dist_200_LN_4_LD_6_RN_14_RD_30_0.png","img2/300/Congruent/L/C_Dist_300_LN_4_LD_10_RN_1_RD_10_0.png","img2/100/Congruent/R/C_Dist_100_LN_12_LD_30_RN_13_RD_26_1.png","img2/100/Incongruent/L/I_Dist_100_LN_6_LD_10_RN_13_RD_26_0.png","img2/100/Incongruent/L/I_Dist_100_LN_3_LD_5_RN_11_RD_22_0.png","img2/100/Congruent/R/C_Dist_100_LN_1_LD_2_RN_3_RD_5_1.png","img2/300/Congruent/L/C_Dist_300_LN_11_LD_22_RN_1_RD_5_0.png","img2/100/Incongruent/L/I_Dist_100_LN_6_LD_10_RN_11_RD_22_0.png","img2/200/Congruent/R/C_Dist_200_LN_6_LD_20_RN_11_RD_22_1.png","img2/200/Congruent/L/C_Dist_200_LN_16_LD_20_RN_12_RD_20_0.png","img2/200/Congruent/R/C_Dist_200_LN_3_LD_12_RN_9_RD_20_1.png","img2/300/Congruent/R/C_Dist_300_LN_1_LD_30_RN_8_RD_24_1.png","img2/300/Incongruent/R/I_Dist_300_LN_4_LD_20_RN_2_RD_4_1.png","img2/200/Incongruent/R/I_Dist_200_LN_9_LD_15_RN_8_RD_10_1.png","img2/200/Incongruent/L/I_Dist_200_LN_4_LD_6_RN_14_RD_30_0.png","img2/200/Congruent/L/C_Dist_200_LN_9_LD_20_RN_4_RD_16_0.png","img2/200/Incongruent/L/I_Dist_200_LN_7_LD_10_RN_14_RD_28_0.png","img2/200/Congruent/R/C_Dist_200_LN_3_LD_6_RN_14_RD_20_1.png","img2/100/Incongruent/R/I_Dist_100_LN_8_LD_20_RN_1_RD_2_1.png","img2/200/Incongruent/L/I_Dist_200_LN_7_LD_10_RN_14_RD_28_0.png","img2/300/Incongruent/R/I_Dist_300_LN_4_LD_20_RN_2_RD_4_1.png","img2/100/Incongruent/L/I_Dist_100_LN_6_LD_10_RN_13_RD_26_0.png","img2/100/Incongruent/R/I_Dist_100_LN_13_LD_26_RN_6_RD_10_1.png","img2/300/Incongruent/R/I_Dist_300_LN_13_LD_26_RN_12_RD_15_1.png","img2/200/Congruent/R/C_Dist_200_LN_6_LD_20_RN_11_RD_22_1.png","img2/100/Congruent/L/C_Dist_100_LN_8_LD_16_RN_2_RD_5_0.png","img2/100/Incongruent/R/I_Dist_100_LN_8_LD_20_RN_1_RD_2_1.png","img2/100/Incongruent/R/I_Dist_100_LN_13_LD_26_RN_12_RD_20_1.png","img2/200/Congruent/R/C_Dist_200_LN_6_LD_12_RN_7_RD_10_1.png","img2/300/Incongruent/L/I_Dist_300_LN_2_LD_4_RN_6_RD_30_0.png","img2/100/Congruent/R/C_Dist_100_LN_12_LD_30_RN_13_RD_26_1.png","img2/300/Incongruent/R/I_Dist_300_LN_4_LD_20_RN_2_RD_4_1.png","img2/200/Incongruent/L/I_Dist_200_LN_3_LD_4_RN_11_RD_20_0.png","img2/300/Congruent/R/C_Dist_300_LN_1_LD_20_RN_7_RD_20_1.png","img2/300/Incongruent/L/I_Dist_300_LN_1_LD_2_RN_2_RD_10_0.png","img2/300/Incongruent/L/I_Dist_300_LN_7_LD_10_RN_8_RD_20_0.png","img2/100/Congruent/R/C_Dist_100_LN_1_LD_2_RN_18_RD_30_1.png","img2/100/Incongruent/L/I_Dist_100_LN_4_LD_8_RN_8_RD_20_0.png","img2/100/Congruent/R/C_Dist_100_LN_7_LD_14_RN_9_RD_15_1.png","img2/200/Incongruent/L/I_Dist_200_LN_7_LD_10_RN_8_RD_16_0.png","img2/300/Incongruent/L/I_Dist_300_LN_1_LD_2_RN_3_RD_15_0.png","img2/200/Incongruent/R/I_Dist_200_LN_14_LD_30_RN_12_RD_18_1.png","img2/200/Congruent/L/C_Dist_200_LN_16_LD_20_RN_12_RD_20_0.png","img2/300/Congruent/L/C_Dist_300_LN_11_LD_22_RN_2_RD_10_0.png","img2/200/Incongruent/R/I_Dist_200_LN_7_LD_15_RN_6_RD_9_1.png","img2/300/Congruent/L/C_Dist_300_LN_20_LD_25_RN_14_RD_28_0.png"],"dist100_C":[["C_Dist_100_LN_10_LD_25_RN_3_RD_10_0.png","C_Dist_100_LN_11_LD_22_RN_4_RD_10_0.png","C_Dist_100_LN_11_LD_22_RN_6_RD_15_0.png","C_Dist_100_LN_15_LD_25_RN_13_RD_26_0.png","C_Dist_100_LN_3_LD_6_RN_2_RD_5_0.png","C_Dist_100_LN_6_LD_20_RN_5_RD_25_0.png","C_Dist_100_LN_8_LD_16_RN_2_RD_5_0.png","C_Dist_100_LN_9_LD_15_RN_8_RD_16_0.png"],["C_Dist_100_LN_1_LD_2_RN_18_RD_30_1.png","C_Dist_100_LN_1_LD_2_RN_3_RD_5_1.png","C_Dist_100_LN_12_LD_30_RN_13_RD_26_1.png","C_Dist_100_LN_2_LD_5_RN_11_RD_22_1.png","C_Dist_100_LN_2_LD_5_RN_6_RD_12_1.png","C_Dist_100_LN_3_LD_20_RN_4_RD_16_1.png","C_Dist_100_LN_4_LD_10_RN_15_RD_30_1.png","C_Dist_100_LN_4_LD_8_RN_6_RD_10_1.png","C_Dist_100_LN_6_LD_12_RN_15_RD_25_1.png","C_Dist_100_LN_7_LD_14_RN_15_RD_25_1.png","C_Dist_100_LN_7_LD_14_RN_9_RD_15_1.png"]],"dist100_I":[["I_Dist_100_LN_1_LD_2_RN_8_RD_20_0.png","I_Dist_100_LN_2_LD_4_RN_6_RD_15_0.png","I_Dist_100_LN_2_LD_4_RN_8_RD_20_0.png","I_Dist_100_LN_3_LD_5_RN_11_RD_22_0.png","I_Dist_100_LN_3_LD_5_RN_8_RD_16_0.png","I_Dist_100_LN_3_LD_6_RN_4_RD_10_0.png","I_Dist_100_LN_3_LD_9_RN_7_RD_30_0.png","I_Dist_100_LN_4_LD_8_RN_8_RD_20_0.png","I_Dist_100_LN_6_LD_10_RN_11_RD_22_0.png","I_Dist_100_LN_6_LD_10_RN_13_RD_26_0.png","I_Dist_100_LN_6_LD_10_RN_7_RD_14_0.png","I_Dist_100_LN_9_LD_10_RN_20_RD_25_0.png","I_Dist_100_LN_9_LD_15_RN_13_RD_26_0.png","I_Dist_100_LN_9_LD_15_RN_14_RD_28_0.png"],["I_Dist_100_LN_10_LD_25_RN_8_RD_16_1.png","I_Dist_100_LN_10_LD_25_RN_9_RD_18_1.png","I_Dist_100_LN_11_LD_22_RN_9_RD_15_1.png","I_Dist_100_LN_12_LD_24_RN_9_RD_15_1.png","I_Dist_100_LN_12_LD_30_RN_2_RD_4_1.png","I_Dist_100_LN_13_LD_26_RN_12_RD_20_1.png","I_Dist_100_LN_13_LD_26_RN_6_RD_10_1.png","I_Dist_100_LN_17_LD_30_RN_10_RD_15_1.png","I_Dist_100_LN_6_LD_12_RN_3_RD_5_1.png","I_Dist_100_LN_8_LD_16_RN_6_RD_10_1.png","I_Dist_100_LN_8_LD_20_RN_1_RD_2_1.png","I_Dist_100_LN_9_LD_18_RN_6_RD_10_1.png"]],"dist100_S":[["E_Dist_100_LN_2_LD_12_RN_2_RD_30_0.png","E_Dist_100_LN_6_LD_10_RN_6_RD_12_0.png"],["E_Dist_100_LN_6_LD_12_RN_6_RD_10_1.png"]],"dist200_C":[["C_Dist_200_LN_11_LD_22_RN_3_RD_10_0.png","C_Dist_200_LN_12_LD_15_RN_6_RD_10_0.png","C_Dist_200_LN_12_LD_20_RN_6_RD_15_0.png","C_Dist_200_LN_14_LD_28_RN_6_RD_20_0.png","C_Dist_200_LN_15_LD_25_RN_4_RD_10_0.png","C_Dist_200_LN_16_LD_20_RN_12_RD_20_0.png","C_Dist_200_LN_16_LD_30_RN_9_RD_27_0.png","C_Dist_200_LN_20_LD_25_RN_9_RD_15_0.png","C_Dist_200_LN_21_LD_30_RN_2_RD_4_0.png","C_Dist_200_LN_4_LD_10_RN_3_RD_15_0.png","C_Dist_200_LN_4_LD_8_RN_3_RD_10_0.png","C_Dist_200_LN_6_LD_15_RN_3_RD_15_0.png","C_Dist_200_LN_7_LD_21_RN_2_RD_15_0.png","C_Dist_200_LN_8_LD_15_RN_2_RD_6_0.png","C_Dist_200_LN_8_LD_15_RN_3_RD_9_0.png","C_Dist_200_LN_8_LD_15_RN_7_RD_21_0.png","C_Dist_200_LN_9_LD_20_RN_4_RD_16_0.png"],["C_Dist_200_LN_1_LD_2_RN_21_RD_30_1.png","C_Dist_200_LN_13_LD_26_RN_14_RD_20_1.png","C_Dist_200_LN_3_LD_10_RN_11_RD_22_1.png","C_Dist_200_LN_3_LD_10_RN_14_RD_28_1.png","C_Dist_200_LN_3_LD_10_RN_7_RD_14_1.png","C_Dist_200_LN_3_LD_12_RN_9_RD_20_1.png","C_Dist_200_LN_3_LD_6_RN_14_RD_20_1.png","C_Dist_200_LN_5_LD_10_RN_14_RD_20_1.png","C_Dist_200_LN_6_LD_12_RN_7_RD_10_1.png","C_Dist_200_LN_6_LD_20_RN_11_RD_22_1.png","C_Dist_200_LN_7_LD_15_RN_18_RD_27_1.png","C_Dist_200_LN_9_LD_30_RN_13_RD_26_1.png"]],"dist200_I":[["I_Dist_200_LN_1_LD_2_RN_3_RD_10_0.png","I_Dist_200_LN_1_LD_3_RN_2_RD_15_0.png","I_Dist_200_LN_3_LD_4_RN_11_RD_20_0.png","I_Dist_200_LN_4_LD_5_RN_6_RD_10_0.png","I_Dist_200_LN_4_LD_6_RN_14_RD_30_0.png","I_Dist_200_LN_7_LD_10_RN_12_RD_24_0.png","I_Dist_200_LN_7_LD_10_RN_14_RD_28_0.png","I_Dist_200_LN_7_LD_10_RN_8_RD_16_0.png"],["I_Dist_200_LN_11_LD_20_RN_3_RD_4_1.png","I_Dist_200_LN_14_LD_30_RN_12_RD_18_1.png","I_Dist_200_LN_14_LD_30_RN_6_RD_9_1.png","I_Dist_200_LN_3_LD_10_RN_1_RD_2_1.png","I_Dist_200_LN_4_LD_30_RN_1_RD_3_1.png","I_Dist_200_LN_6_LD_20_RN_3_RD_6_1.png","I_Dist_200_LN_7_LD_15_RN_4_RD_6_1.png","I_Dist_200_LN_7_LD_15_RN_6_RD_9_1.png","I_Dist_200_LN_9_LD_15_RN_8_RD_10_1.png"]],"dist200_S":[["E_Dist_200_LN_3_LD_6_RN_3_RD_10_0.png"],["E_Dist_200_LN_3_LD_10_RN_3_RD_6_1.png"]],"dist300_C":[["C_Dist_300_LN_11_LD_22_RN_1_RD_5_0.png","C_Dist_300_LN_11_LD_22_RN_2_RD_10_0.png","C_Dist_300_LN_11_LD_22_RN_4_RD_20_0.png","C_Dist_300_LN_12_LD_24_RN_2_RD_10_0.png","C_Dist_300_LN_18_LD_20_RN_9_RD_15_0.png","C_Dist_300_LN_20_LD_25_RN_13_RD_26_0.png","C_Dist_300_LN_20_LD_25_RN_14_RD_28_0.png","C_Dist_300_LN_20_LD_25_RN_5_RD_10_0.png","C_Dist_300_LN_20_LD_25_RN_8_RD_16_0.png","C_Dist_300_LN_20_LD_25_RN_9_RD_18_0.png","C_Dist_300_LN_24_LD_30_RN_2_RD_4_0.png","C_Dist_300_LN_24_LD_30_RN_8_RD_16_0.png","C_Dist_300_LN_3_LD_6_RN_2_RD_10_0.png","C_Dist_300_LN_4_LD_10_RN_1_RD_10_0.png","C_Dist_300_LN_4_LD_5_RN_2_RD_4_0.png","C_Dist_300_LN_8_LD_16_RN_1_RD_5_0.png","C_Dist_300_LN_9_LD_10_RN_3_RD_5_0.png"],["C_Dist_300_LN_1_LD_20_RN_7_RD_20_1.png","C_Dist_300_LN_1_LD_3_RN_19_RD_30_1.png","C_Dist_300_LN_1_LD_30_RN_8_RD_24_1.png","C_Dist_300_LN_1_LD_5_RN_11_RD_22_1.png","C_Dist_300_LN_1_LD_5_RN_3_RD_6_1.png","C_Dist_300_LN_1_LD_5_RN_6_RD_12_1.png","C_Dist_300_LN_2_LD_10_RN_12_RD_24_1.png","C_Dist_300_LN_2_LD_20_RN_10_RD_25_1.png","C_Dist_300_LN_3_LD_12_RN_11_RD_20_1.png","C_Dist_300_LN_3_LD_6_RN_4_RD_5_1.png","C_Dist_300_LN_4_LD_20_RN_13_RD_26_1.png","C_Dist_300_LN_5_LD_25_RN_6_RD_12_1.png","C_Dist_300_LN_5_LD_25_RN_7_RD_14_1.png","C_Dist_300_LN_7_LD_14_RN_20_RD_25_1.png","C_Dist_300_LN_8_LD_15_RN_10_RD_12_1.png"]],"dist300_I":[["I_Dist_300_LN_1_LD_2_RN_2_RD_10_0.png","I_Dist_300_LN_1_LD_2_RN_3_RD_15_0.png","I_Dist_300_LN_2_LD_4_RN_6_RD_30_0.png","I_Dist_300_LN_3_LD_6_RN_4_RD_20_0.png","I_Dist_300_LN_4_LD_5_RN_6_RD_12_0.png","I_Dist_300_LN_4_LD_5_RN_8_RD_16_0.png","I_Dist_300_LN_7_LD_10_RN_8_RD_20_0.png","I_Dist_300_LN_8_LD_10_RN_14_RD_28_0.png","I_Dist_300_LN_8_LD_10_RN_9_RD_18_0.png"],["I_Dist_300_LN_13_LD_26_RN_12_RD_15_1.png","I_Dist_300_LN_4_LD_20_RN_2_RD_4_1.png"]],"dist300_S":[["E_Dist_300_LN_9_LD_12_RN_9_RD_20_0.png"],["E_Dist_300_LN_18_LD_30_RN_18_RD_20_1.png","E_Dist_300_LN_3_LD_10_RN_3_RD_5_1.png","E_Dist_300_LN_9_LD_20_RN_9_RD_12_1.png"]],"dist500_C":[["C_Dist_500_LN_10_LD_13_RN_7_RD_26_0.png","C_Dist_500_LN_10_LD_15_RN_4_RD_24_0.png","C_Dist_500_LN_12_LD_16_RN_3_RD_12_0.png","C_Dist_500_LN_12_LD_18_RN_4_RD_24_0.png","C_Dist_500_LN_15_LD_18_RN_5_RD_15_0.png","C_Dist_500_LN_15_LD_20_RN_1_RD_4_0.png","C_Dist_500_LN_18_LD_27_RN_1_RD_6_0.png","C_Dist_500_LN_20_LD_24_RN_1_RD_3_0.png","C_Dist_500_LN_20_LD_24_RN_3_RD_9_0.png","C_Dist_500_LN_20_LD_24_RN_7_RD_21_0.png","C_Dist_500_LN_20_LD_28_RN_3_RD_14_0.png","C_Dist_500_LN_21_LD_28_RN_6_RD_24_0.png","C_Dist_500_LN_22_LD_28_RN_2_RD_7_0.png","C_Dist_500_LN_25_LD_30_RN_9_RD_27_0.png","C_Dist_500_LN_4_LD_6_RN_1_RD_6_0.png","C_Dist_500_LN_5_LD_6_RN_2_RD_6_0.png","C_Dist_500_LN_6_LD_9_RN_1_RD_6_0.png","C_Dist_500_LN_7_LD_10_RN_1_RD_5_0.png","C_Dist_500_LN_8_LD_12_RN_1_RD_6_0.png","C_Dist_500_LN_8_LD_12_RN_4_RD_24_0.png"],["C_Dist_500_LN_1_LD_4_RN_12_RD_16_1.png","C_Dist_500_LN_1_LD_4_RN_9_RD_12_1.png","C_Dist_500_LN_1_LD_9_RN_11_RD_18_1.png","C_Dist_500_LN_10_LD_24_RN_22_RD_24_1.png","C_Dist_500_LN_2_LD_12_RN_10_RD_15_1.png","C_Dist_500_LN_2_LD_12_RN_12_RD_18_1.png","C_Dist_500_LN_2_LD_12_RN_4_RD_6_1.png","C_Dist_500_LN_2_LD_24_RN_7_RD_12_1.png","C_Dist_500_LN_2_LD_5_RN_18_RD_20_1.png","C_Dist_500_LN_2_LD_5_RN_9_RD_10_1.png","C_Dist_500_LN_2_LD_8_RN_12_RD_16_1.png","C_Dist_500_LN_2_LD_8_RN_21_RD_28_1.png","C_Dist_500_LN_3_LD_10_RN_4_RD_5_1.png","C_Dist_500_LN_3_LD_12_RN_15_RD_20_1.png","C_Dist_500_LN_3_LD_30_RN_6_RD_10_1.png","C_Dist_500_LN_3_LD_8_RN_14_RD_16_1.png","C_Dist_500_LN_4_LD_16_RN_15_RD_20_1.png","C_Dist_500_LN_4_LD_24_RN_12_RD_18_1.png","C_Dist_500_LN_5_LD_14_RN_6_RD_7_1.png","C_Dist_500_LN_7_LD_21_RN_20_RD_24_1.png","C_Dist_500_LN_7_LD_28_RN_12_RD_16_1.png","C_Dist_500_LN_7_LD_28_RN_9_RD_12_1.png","C_Dist_500_LN_9_LD_27_RN_20_RD_24_1.png"]],"dist500_I":[["I_Dist_500_LN_2_LD_3_RN_4_RD_24_0.png","I_Dist_500_LN_5_LD_6_RN_6_RD_18_0.png","I_Dist_500_LN_7_LD_8_RN_9_RD_24_0.png"],["I_Dist_500_LN_7_LD_21_RN_5_RD_6_1.png"]],"dist500_S":[["E_Dist_500_LN_6_LD_8_RN_6_RD_24_0.png"],["E_Dist_500_LN_2_LD_12_RN_2_RD_3_1.png","E_Dist_500_LN_6_LD_24_RN_6_RD_8_1.png"]]}},{"start_time":1551899643129,"click_time":1551899644850,"finger_time":1551899644349,"fix_duration":1138.8016763180865,"trial":1,"RT":1220,"MT":501,"sideResp":2,"stimulus":[],"xmouse":[787,787,787,787,787,787,787,787,787,787,787,787,787,787,787,787,787,787,787,787,787,787,787,787,787,787,787,787,787,787,787,787,787,787,787,787,787,787,787,787,787,787,787,787,787,787,787,787,787,787,787,787,787,787,787,787,787,787,793,801,811,824,836,868,887,901,912,923,931,952,962,975,981,997,1007,1017,1025,1029,1034,1037,1040,1043,1044,1048,1052,1057,1060],"ymouse":[535,535,535,535,535,535,535,535,535,535,535,535,535,535,535,535,535,535,535,535,535,535,535,535,535,535,535,536,536,536,536,536,536,536,536,536,536,536,536,536,536,536,536,536,536,536,536,536,536,536,536,536,536,536,536,536,536,536,531,522,509,493,479,437,408,385,365,347,330,289,271,251,241,209,186,161,141,127,108,102,97,92,90,84,81,78,75],"timestamp_mouse":[9,20,51,60,80,100,120,139,159,179,199,219,239,260,280,300,320,340,360,380,400,420,439,459,479,499,519,539,560,579,600,619,640,659,679,699,720,741,761,780,800,821,840,861,881,900,920,940,960,980,999,1020,1040,1060,1080,1100,1120,1140,1159,1179,1199,1220,1239,1260,1280,1300,1319,1339,1359,1379,1400,1419,1440,1460,1480,1500,1520,1540,1560,1581,1600,1620,1640,1659,1681,1700,1721],"xSR":741.5,"ySR":501.8,"xT1":424.9,"yT1":0,"xT2":1058.1,"yT2":0,"toosoon":0,"cond_shown":"Congruent","ratio_trial":100,"L_num":7,"L_den":14,"R_num":15,"R_den":25,"correct_side":2,"subjID":"mariasalomesuarezvenegas10","gender":"1","school":"6","age":"11"},{"start_time":1551899647758,"click_time":1551899649750,"finger_time":1551899649229,"fix_duration":867.9437781381209,"trial":2,"RT":1471,"MT":521,"sideResp":2,"stimulus":[],"xmouse":[781,781,781,781,781,781,781,781,781,781,781,781,781,781,781,781,781,781,781,781,781,781,781,781,781,781,781,781,781,781,781,781,781,781,781,781,781,781,781,781,781,781,781,781,781,781,781,781,781,781,781,781,781,781,781,781,781,781,781,781,781,781,781,781,781,781,781,781,781,781,783,803,815,824,838,850,866,872,878,887,896,928,941,952,959,967,980,986,993,999,1009,1027,1037,1045,1053,1061,1075,1086,1100,1111],"ymouse":[538,538,538,538,538,538,538,538,538,538,538,538,538,538,538,538,538,538,538,538,538,538,538,538,538,538,538,538,538,538,538,538,538,538,538,538,538,538,538,538,538,538,538,538,538,538,538,538,538,538,538,538,538,538,538,538,538,538,538,538,538,538,538,538,538,538,538,538,538,538,538,521,506,494,481,470,450,442,430,417,405,369,357,349,341,329,297,281,263,250,234,209,197,185,176,165,142,127,111,98],"timestamp_mouse":[13,30,51,71,91,112,131,151,172,191,211,231,252,271,291,311,331,351,370,391,410,430,450,470,492,511,531,552,572,591,612,631,652,671,691,711,732,752,772,791,812,831,851,871,891,911,932,951,972,992,1011,1031,1051,1071,1091,1112,1131,1151,1170,1191,1211,1231,1250,1270,1291,1310,1330,1350,1370,1390,1410,1431,1450,1471,1490,1510,1531,1550,1571,1590,1610,1631,1652,1670,1692,1710,1730,1752,1771,1790,1810,1831,1851,1872,1891,1912,1931,1952,1972,1992],"xSR":741.5,"ySR":501.8,"xT1":424.9,"yT1":0,"xT2":1058.1,"yT2":0,"toosoon":0,"cond_shown":"Congruent","ratio_trial":100,"L_num":2,"L_den":5,"R_num":11,"R_den":22,"correct_side":2,"subjID":"mariasalomesuarezvenegas10","gender":"1","school":"6","age":"11"},{"start_time":1551899652239,"click_time":1551899654068,"finger_time":1551899653269,"fix_duration":768.7344848763464,"trial":3,"RT":1030,"MT":799,"sideResp":1,"stimulus":[],"xmouse":[815,814,812,812,812,812,812,812,812,812,811,811,810,810,809,809,809,809,809,809,809,809,809,809,809,809,809,808,807,807,807,806,801,797,791,785,783,783,783,783,783,783,783,783,783,783,783,782,781,779,775,768,758,758,758,757,756,750,746,741,736,733,725,720,715,702,698,682,666,662,659,656,652,650,643,636,628,608,599,592,585,577,561,554,549,545,541,526,520,515,511,509],"ymouse":[534,534,533,533,533,533,533,533,532,532,532,532,532,532,531,531,531,531,531,531,531,531,531,531,531,531,531,531,531,531,531,531,531,531,532,533,533,533,533,533,533,533,533,533,533,533,533,533,530,518,503,486,469,468,468,466,459,432,421,412,401,396,379,371,361,344,338,318,295,290,283,279,274,273,269,263,256,234,225,214,204,193,175,166,160,153,145,122,112,106,101,99],"timestamp_mouse":[10,31,61,70,90,110,129,150,170,190,210,230,249,269,289,309,330,350,370,390,410,430,450,470,490,510,530,550,570,590,610,630,649,669,689,709,729,750,771,790,810,829,849,869,889,909,929,949,970,989,1010,1030,1050,1070,1090,1110,1130,1149,1171,1190,1210,1230,1250,1269,1290,1309,1329,1350,1369,1389,1409,1429,1450,1471,1491,1510,1530,1550,1570,1591,1610,1630,1650,1670,1690,1710,1729,1750,1770,1789,1809,1829],"xSR":741.5,"ySR":501.8,"xT1":424.9,"yT1":0,"xT2":1058.1,"yT2":0,"toosoon":0,"cond_shown":"Incongruent","ratio_trial":100,"L_num":11,"L_den":22,"R_num":9,"R_den":15,"correct_side":2,"subjID":"mariasalomesuarezvenegas10","gender":"1","school":"6","age":"11"},{"start_time":1551899656310,"click_time":1551899659749,"finger_time":1551899657988,"fix_duration":899.1654317833,"trial":4,"RT":1678,"MT":1761,"sideResp":1,"stimulus":[],"xmouse":[800,800,800,800,800,800,800,800,800,800,800,800,800,800,800,800,800,800,800,800,800,800,800,800,800,800,800,800,800,800,800,800,800,800,800,800,800,800,800,800,800,800,800,800,800,800,800,800,800,800,800,800,800,800,800,800,800,800,800,800,800,800,800,800,800,800,800,800,800,800,800,800,800,800,800,800,801,801,812,818,822,829,836,866,877,886,893,901,920,930,936,942,942,948,951,953,954,954,954,954,954,954,954,954,954,954,954,954,949,945,943,940,939,939,939,939,939,939,939,938,937,931,930,926,922,921,920,920,918,916,913,904,892,885,877,876,876,876,874,872,871,871,870,870,870,869,863,848,822,807,796,784,768,715,698,684,671,657,629,617,602,589,581,572,565,557,550,542,532,524,512,498],"ymouse":[552,552,552,552,552,552,552,552,552,552,552,552,552,552,552,552,552,552,552,552,552,552,552,552,552,552,552,552,552,552,552,552,552,552,552,552,552,552,552,552,552,552,552,552,552,552,552,552,552,552,552,552,552,552,552,552,552,552,552,552,552,552,552,552,552,552,552,552,552,552,552,552,552,552,552,552,552,551,538,531,525,517,507,475,459,443,429,411,382,368,361,355,354,344,339,335,334,334,334,334,334,334,334,334,334,334,333,333,334,335,337,341,343,343,343,343,343,343,343,343,344,350,351,355,358,358,359,360,361,362,365,376,387,394,403,403,403,403,405,406,407,407,407,407,407,407,408,408,408,408,405,399,386,347,334,322,311,297,266,253,241,230,223,206,196,185,175,162,143,129,114,96],"timestamp_mouse":[18,41,59,80,100,119,139,159,179,199,219,239,258,278,298,318,338,358,379,399,419,439,459,479,499,519,538,558,578,598,618,639,659,678,698,718,739,759,778,798,818,838,858,879,899,919,940,960,980,999,1018,1039,1059,1079,1099,1119,1139,1159,1179,1199,1219,1239,1258,1279,1299,1318,1339,1359,1379,1399,1419,1439,1459,1479,1499,1519,1539,1559,1579,1599,1620,1639,1658,1678,1700,1718,1739,1759,1779,1799,1819,1839,1859,1879,1898,1918,1939,1958,1979,1999,2019,2040,2059,2079,2098,2119,2139,2159,2178,2200,2219,2238,2259,2279,2299,2319,2339,2359,2379,2399,2419,2438,2458,2478,2499,2518,2539,2558,2578,2598,2618,2638,2659,2679,2699,2718,2738,2758,2779,2798,2818,2838,2858,2879,2899,2919,2940,2959,2980,2999,3019,3039,3059,3078,3100,3119,3140,3159,3179,3198,3219,3239,3259,3279,3299,3318,3338,3359,3379,3400,3420,3439],"xSR":741.5,"ySR":501.8,"xT1":424.9,"yT1":0,"xT2":1058.1,"yT2":0,"toosoon":0,"cond_shown":"Incongruent","ratio_trial":300,"L_num":1,"L_den":2,"R_num":2,"R_den":10,"correct_side":1,"subjID":"mariasalomesuarezvenegas10","gender":"1","school":"6","age":"11"},{"start_time":1551899662305,"click_time":1551899665229,"finger_time":1551899664688,"fix_duration":1215.2396737102374,"trial":5,"RT":2383,"MT":541,"sideResp":1,"stimulus":[],"xmouse":[779,779,779,779,779,779,779,779,779,779,779,779,779,779,779,779,779,779,779,779,779,779,779,779,779,779,779,779,779,779,779,779,779,779,779,779,779,779,779,779,779,779,779,779,779,779,779,779,779,779,779,779,779,779,779,779,779,779,779,779,779,779,779,779,779,779,779,779,779,779,779,779,779,779,779,779,779,779,779,779,779,779,779,779,779,779,779,779,779,779,779,779,779,779,779,779,779,779,779,779,779,779,779,779,779,779,779,779,779,779,779,779,779,779,779,779,779,779,779,775,771,764,757,750,728,716,702,691,676,651,642,630,619,615,611,607,599,591,579,573,561,549,535,523,503,498,496],"ymouse":[551,551,551,551,551,551,551,551,551,551,551,551,551,551,551,551,551,551,551,551,551,551,551,551,551,551,551,551,551,551,551,551,551,551,551,551,551,551,551,551,551,551,551,551,551,551,551,551,551,551,551,551,551,551,551,551,551,551,551,551,551,551,551,551,551,551,551,551,551,551,551,551,551,551,551,551,551,551,551,551,551,551,551,551,551,551,551,551,551,551,551,551,551,551,551,551,551,551,551,551,551,551,551,551,551,551,551,551,551,551,551,551,551,551,551,546,537,523,513,487,475,454,431,412,370,354,339,323,305,270,257,242,225,219,205,196,184,174,164,159,152,145,136,127,107,102,97],"timestamp_mouse":[9,24,44,64,84,104,125,145,165,184,204,224,244,265,285,304,324,344,364,384,403,423,443,463,483,503,523,543,563,583,603,623,643,663,683,703,723,743,763,784,804,824,844,864,884,905,925,945,964,983,1003,1023,1044,1063,1084,1103,1124,1144,1165,1184,1204,1224,1244,1264,1285,1304,1324,1344,1364,1383,1403,1423,1444,1463,1483,1503,1523,1543,1563,1583,1604,1624,1644,1665,1684,1704,1724,1744,1763,1783,1803,1823,1844,1863,1884,1905,1924,1945,1965,1984,2004,2024,2044,2064,2083,2103,2123,2143,2163,2184,2204,2224,2244,2264,2283,2304,2323,2344,2364,2383,2404,2423,2443,2463,2484,2503,2523,2544,2564,2584,2605,2624,2644,2664,2684,2705,2724,2745,2763,2783,2804,2823,2844,2864,2884,2904,2924],"xSR":741.5,"ySR":501.8,"xT1":424.9,"yT1":0,"xT2":1058.1,"yT2":0,"toosoon":0,"cond_shown":"Congruent","ratio_trial":300,"L_num":4,"L_den":5,"R_num":2,"R_den":4,"correct_side":1,"subjID":"mariasalomesuarezvenegas10","gender":"1","school":"6","age":"11"},{"start_time":1551899667639,"click_time":1551899670010,"finger_time":1551899669488,"fix_duration":1407.1415035578534,"trial":6,"RT":1849,"MT":522,"sideResp":2,"stimulus":[],"xmouse":[785,785,785,785,785,785,785,785,785,785,785,785,785,785,785,785,785,785,785,785,785,785,785,785,785,785,785,785,785,785,785,785,785,785,785,785,785,785,785,785,785,785,785,785,785,785,785,785,785,785,785,785,785,785,785,785,785,785,785,785,785,785,785,785,785,785,785,785,785,785,785,785,785,785,785,785,785,785,785,785,785,785,785,785,785,785,785,785,785,789,806,826,860,884,909,936,965,1011,1019,1025,1030,1034,1043,1049,1055,1060,1067,1072,1073,1075,1077,1082,1092,1094,1096,1096,1096,1099,1104],"ymouse":[544,544,544,544,544,544,544,544,544,544,544,544,544,544,544,544,544,544,544,544,544,544,544,544,544,544,544,544,544,544,544,544,544,544,544,544,544,544,544,544,544,544,544,544,544,544,544,544,544,544,544,544,544,544,544,544,544,544,544,544,544,544,544,544,544,544,544,544,544,544,544,544,544,544,544,544,544,544,544,544,544,544,544,544,544,544,544,544,544,545,541,530,504,484,468,448,424,382,370,359,350,340,309,287,265,244,219,193,181,170,159,146,125,118,113,110,108,101,91],"timestamp_mouse":[9,36,50,69,89,109,129,150,169,189,209,229,249,269,289,309,329,349,370,390,410,431,450,470,491,510,530,550,570,590,610,630,650,670,690,710,730,751,769,789,810,830,849,869,889,909,929,950,969,989,1010,1029,1050,1071,1090,1110,1130,1150,1170,1190,1210,1230,1250,1271,1290,1309,1329,1349,1369,1389,1409,1429,1449,1469,1489,1509,1529,1549,1570,1589,1609,1629,1649,1669,1689,1710,1730,1750,1769,1790,1809,1829,1849,1870,1889,1910,1929,1949,1969,1989,2009,2029,2050,2069,2089,2110,2130,2150,2170,2191,2210,2230,2250,2270,2290,2310,2330,2349,2371],"xSR":741.5,"ySR":501.8,"xT1":424.9,"yT1":0,"xT2":1058.1,"yT2":0,"toosoon":0,"cond_shown":"Congruent","ratio_trial":100,"L_num":3,"L_den":20,"R_num":4,"R_den":16,"correct_side":2,"subjID":"mariasalomesuarezvenegas10","gender":"1","school":"6","age":"11"},{"start_time":1551899672458,"click_time":1551899679069,"finger_time":1551899678788,"fix_duration":907.0613348548611,"trial":7,"RT":6330,"MT":281,"sideResp":2,"stimulus":[],"xmouse":[781,781,781,781,781,781,781,781,781,781,781,781,781,781,781,781,781,781,781,781,781,781,781,781,781,781,781,781,781,781,781,781,781,781,781,781,781,781,781,781,781,781,781,781,781,781,781,781,781,781,781,781,781,781,781,781,781,781,781,781,781,781,781,781,781,781,781,781,781,781,781,781,781,781,781,781,781,781,781,781,781,781,781,781,781,781,781,781,781,781,781,781,781,781,781,781,781,781,781,781,781,781,781,781,781,781,781,781,781,781,781,781,781,781,781,781,781,781,781,781,781,781,781,781,781,781,781,781,781,781,781,781,781,781,781,781,781,781,781,781,781,781,781,781,781,781,781,781,781,781,781,781,781,781,781,781,781,781,781,781,781,781,781,781,781,781,781,781,781,781,781,781,781,781,781,781,781,781,781,781,781,781,781,781,781,781,781,781,781,781,781,781,781,781,781,781,781,781,781,781,781,781,781,781,781,781,781,781,781,781,781,781,781,781,781,781,781,781,781,781,781,781,781,781,781,781,781,781,781,781,781,781,781,781,781,781,781,781,781,781,781,781,781,781,781,781,781,781,781,781,781,781,781,781,781,781,781,781,781,781,781,781,781,781,781,781,781,781,781,781,781,781,781,781,781,781,781,781,781,781,781,781,781,781,781,781,781,781,781,781,781,781,781,781,781,781,781,781,781,781,781,781,781,781,781,781,781,781,781,781,784,788,795,802,815,823,867,886,908,932,954,986,1000,1012,1024,1048,1071,1078,1086,1093,1101],"ymouse":[557,557,557,557,557,557,557,557,557,557,557,557,557,557,557,557,557,557,557,557,557,557,557,557,557,557,557,557,557,557,557,557,557,557,557,557,557,557,557,557,557,557,557,557,557,557,557,557,557,557,557,557,557,557,557,557,557,557,557,557,557,557,557,557,557,557,557,557,557,557,557,557,557,557,557,557,557,557,557,557,557,557,557,557,557,557,557,557,557,557,557,557,557,557,557,557,557,557,557,557,557,557,557,557,557,557,557,557,557,557,557,557,557,557,557,557,557,557,557,557,557,557,557,557,557,557,557,557,557,557,557,557,557,557,557,557,557,557,557,557,557,557,557,557,557,557,557,557,557,557,557,557,557,557,557,557,557,557,557,557,557,557,557,557,557,557,557,557,557,557,557,557,557,557,557,557,557,557,557,557,557,557,557,557,557,557,557,557,557,557,557,557,557,557,557,557,557,557,557,557,557,557,557,557,557,557,557,557,557,557,557,557,557,557,557,557,557,557,557,557,557,557,557,557,557,557,557,557,557,557,557,557,557,557,557,557,557,557,557,557,557,557,557,557,557,557,557,557,557,557,557,557,557,557,557,557,557,557,557,557,557,557,557,557,557,557,557,557,557,557,557,557,557,557,557,557,557,557,557,557,557,557,557,557,557,557,557,557,557,557,557,557,557,557,557,557,557,557,557,557,557,557,557,557,557,557,557,557,557,557,557,557,555,552,547,543,514,500,484,465,443,397,369,340,304,227,161,141,125,112,96],"timestamp_mouse":[10,31,58,71,91,111,131,151,171,191,211,231,251,270,291,311,330,351,372,391,412,431,451,471,491,512,531,552,570,591,611,631,651,670,690,711,731,751,771,791,810,830,850,870,890,910,930,951,971,991,1011,1032,1051,1070,1090,1111,1132,1151,1172,1192,1211,1231,1250,1270,1290,1311,1330,1351,1371,1390,1410,1430,1451,1471,1492,1511,1531,1551,1571,1590,1611,1630,1650,1670,1691,1711,1731,1751,1771,1792,1811,1831,1850,1871,1890,1910,1930,1951,1970,1991,2011,2030,2050,2071,2092,2111,2132,2151,2171,2191,2211,2230,2251,2270,2291,2311,2331,2350,2370,2392,2411,2431,2451,2471,2491,2510,2530,2550,2570,2591,2611,2631,2652,2672,2690,2710,2730,2750,2770,2791,2810,2830,2850,2870,2890,2911,2930,2950,2970,2990,3011,3032,3051,3071,3091,3112,3130,3150,3170,3191,3210,3231,3252,3271,3291,3312,3331,3351,3372,3392,3411,3430,3451,3470,3491,3510,3531,3550,3570,3590,3610,3630,3650,3670,3691,3712,3731,3751,3771,3791,3810,3830,3850,3870,3890,3910,3930,3951,3970,3990,4011,4030,4050,4070,4090,4110,4131,4151,4171,4191,4211,4230,4251,4271,4291,4310,4330,4350,4370,4391,4410,4430,4450,4470,4490,4510,4530,4550,4570,4591,4610,4630,4652,4670,4690,4710,4730,4750,4770,4791,4810,4831,4851,4871,4892,4911,4930,4950,4971,4991,5011,5031,5050,5070,5090,5110,5130,5150,5171,5190,5210,5230,5251,5271,5292,5311,5332,5351,5370,5391,5411,5430,5450,5470,5490,5510,5530,5551,5570,5590,5610,5630,5650,5671,5692,5711,5731,5752,5771,5792,5811,5831,5851,5871,5891,5911,5930,5950,5970,5990,6012,6032,6051,6071,6091,6111,6131,6151,6171,6190,6210,6230,6250,6270,6290,6310,6330,6352,6371,6391,6411,6431,6451,6470,6490,6510,6531,6550,6571,6591,6611],"xSR":741.5,"ySR":501.8,"xT1":424.9,"yT1":0,"xT2":1058.1,"yT2":0,"toosoon":0,"cond_shown":"Incongruent","ratio_trial":200,"L_num":4,"L_den":30,"R_num":1,"R_den":3,"correct_side":2,"subjID":"mariasalomesuarezvenegas10","gender":"1","school":"6","age":"11"},{"start_time":1551899681444,"click_time":1551899683088,"finger_time":1551899682569,"fix_duration":1274.1343441460506,"trial":8,"RT":1125,"MT":519,"sideResp":1,"stimulus":[],"xmouse":[816,816,816,816,816,816,816,816,816,816,816,816,816,816,816,816,816,816,816,816,816,816,816,816,816,816,816,816,816,816,816,816,816,816,816,816,816,816,816,816,816,816,816,816,816,816,816,816,816,816,816,816,816,816,816,816,807,798,793,786,777,767,727,702,677,657,639,597,592,583,575,567,555,550,548,547,546,545,544,544,542,535,497],"ymouse":[521,521,521,521,521,521,521,521,521,521,521,521,521,521,521,521,521,521,521,521,521,521,521,521,521,521,521,521,521,521,521,521,521,521,521,521,521,521,521,521,521,521,521,521,521,521,521,521,521,521,521,521,521,521,516,508,482,447,430,414,396,378,309,269,231,198,162,94,85,73,65,57,47,43,42,42,42,42,42,42,42,43,47],"timestamp_mouse":[9,24,44,65,84,104,124,145,164,185,205,226,245,265,284,305,324,345,364,384,404,425,446,465,485,505,525,545,565,584,605,624,644,665,685,704,724,744,764,784,806,825,845,865,884,904,924,944,964,985,1004,1025,1045,1065,1085,1105,1125,1144,1165,1185,1205,1225,1245,1265,1284,1304,1324,1344,1364,1385,1404,1424,1445,1464,1484,1505,1525,1545,1564,1584,1605,1624,1644],"xSR":741.5,"ySR":501.8,"xT1":424.9,"yT1":0,"xT2":1058.1,"yT2":0,"toosoon":0,"cond_shown":"Congruent","ratio_trial":300,"L_num":20,"L_den":25,"R_num":13,"R_den":26,"correct_side":1,"subjID":"mariasalomesuarezvenegas10","gender":"1","school":"6","age":"11"},{"start_time":1551899684766,"click_time":1551899686309,"finger_time":1551899685629,"fix_duration":417.31435376261084,"trial":9,"RT":863,"MT":680,"sideResp":1,"stimulus":[],"xmouse":[783,783,783,783,783,783,783,783,783,783,783,783,783,783,783,783,783,783,783,783,783,783,783,783,783,783,783,783,783,783,783,783,783,783,783,783,783,783,783,780,775,748,743,741,740,739,739,739,739,739,737,733,732,731,730,730,728,725,724,723,717,693,671,651,638,626,607,595,582,569,554,538,530,522,514,504,484,476],"ymouse":[553,553,553,553,553,553,553,553,553,553,553,553,553,553,553,553,553,553,553,553,553,553,553,553,553,553,553,553,553,553,553,553,553,553,553,553,553,553,553,552,547,524,520,518,515,512,510,509,509,509,504,492,487,485,485,485,479,471,466,463,451,414,383,359,346,335,309,292,268,248,223,193,178,165,152,137,108,96],"timestamp_mouse":[6,23,42,63,83,103,123,142,162,182,202,223,243,262,283,303,322,342,362,382,403,423,443,462,483,503,523,543,562,582,603,624,643,662,682,702,722,742,762,782,803,823,843,863,883,902,923,942,962,982,1002,1023,1043,1063,1082,1102,1122,1143,1162,1183,1203,1223,1243,1262,1283,1302,1323,1342,1363,1382,1403,1422,1442,1463,1482,1503,1523,1543],"xSR":741.5,"ySR":501.8,"xT1":424.9,"yT1":0,"xT2":1058.1,"yT2":0,"toosoon":0,"cond_shown":"Congruent","ratio_trial":200,"L_num":21,"L_den":30,"R_num":2,"R_den":4,"correct_side":1,"subjID":"mariasalomesuarezvenegas10","gender":"1","school":"6","age":"11"},{"start_time":1551899688890,"click_time":1551899690829,"finger_time":1551899690369,"fix_duration":1320.3491264371573,"trial":10,"RT":1479,"MT":460,"sideResp":1,"stimulus":[],"xmouse":[772,772,772,772,772,772,772,772,772,772,772,772,772,772,772,772,772,772,772,772,772,772,772,772,772,772,772,772,772,772,772,772,772,772,772,772,772,772,772,772,772,772,772,772,772,772,772,772,772,772,772,772,772,772,772,772,772,772,772,772,772,772,772,772,772,772,772,772,772,772,772,768,762,756,750,747,742,732,721,702,695,688,674,668,630,618,606,597,588,564,550,543,541,540,531,527,522],"ymouse":[548,548,548,548,548,548,548,548,548,548,548,548,548,548,548,548,548,548,548,548,548,548,548,548,548,548,548,548,548,548,548,548,548,548,548,548,548,548,548,548,548,548,548,548,548,548,548,548,548,548,548,548,548,548,548,548,548,548,548,548,548,548,548,548,548,548,548,548,548,546,539,525,512,492,462,443,419,388,361,326,313,297,264,250,188,173,161,152,142,109,93,84,82,81,69,64,61],"timestamp_mouse":[18,38,58,79,98,119,139,159,179,200,219,239,259,280,299,319,339,360,379,399,419,439,459,479,499,518,540,560,579,599,618,639,658,679,698,718,738,758,778,798,818,838,859,878,898,918,938,958,978,998,1018,1039,1059,1079,1099,1118,1138,1158,1179,1198,1218,1239,1259,1278,1298,1319,1339,1360,1379,1399,1419,1439,1460,1479,1498,1519,1539,1559,1579,1599,1620,1640,1659,1679,1699,1719,1740,1760,1778,1799,1820,1839,1858,1878,1899,1919,1939],"xSR":741.5,"ySR":501.8,"xT1":424.9,"yT1":0,"xT2":1058.1,"yT2":0,"toosoon":0,"cond_shown":"Congruent","ratio_trial":300,"L_num":18,"L_den":20,"R_num":9,"R_den":15,"correct_side":1,"subjID":"mariasalomesuarezvenegas10","gender":"1","school":"6","age":"11"},{"start_time":1551899692239,"click_time":1551899694568,"finger_time":1551899694089,"fix_duration":250,"trial":11,"RT":1850,"MT":479,"sideResp":2,"stimulus":[],"xmouse":[789,789,789,789,789,789,789,789,789,789,789,789,789,789,789,789,789,789,789,789,789,789,789,789,789,789,789,789,789,789,789,789,789,789,789,789,789,789,789,789,789,789,789,789,789,789,789,789,789,789,789,789,789,789,789,789,789,789,789,789,789,789,789,789,789,789,789,789,789,789,789,789,789,789,789,789,789,789,789,789,789,789,789,789,789,789,789,789,789,792,795,808,844,863,878,895,914,959,973,981,991,998,1004,1007,1011,1015,1020,1028,1032,1035,1038,1042,1055,1062,1067,1071,1077],"ymouse":[551,551,551,551,551,551,551,551,551,551,551,551,551,551,551,551,551,551,551,551,551,551,551,551,551,551,551,551,551,551,551,551,551,551,551,551,551,551,551,551,551,551,551,551,551,551,551,551,551,551,551,551,551,551,551,551,551,551,551,551,551,551,551,551,551,551,551,551,551,551,551,551,551,551,551,551,551,551,551,551,551,551,551,551,551,551,551,551,551,552,552,544,518,500,482,466,445,406,392,379,358,335,295,283,270,257,246,208,193,183,173,161,137,125,112,100,84],"timestamp_mouse":[9,29,50,70,91,110,130,151,170,190,210,229,249,269,289,309,329,350,370,389,409,430,449,469,503,509,529,550,570,590,611,631,650,669,689,709,729,750,770,790,810,830,850,871,890,910,930,950,970,990,1010,1030,1050,1070,1090,1110,1130,1149,1169,1189,1209,1229,1250,1269,1289,1310,1329,1349,1369,1389,1410,1429,1449,1471,1491,1510,1530,1549,1569,1590,1609,1629,1650,1670,1689,1710,1730,1751,1770,1791,1810,1830,1850,1871,1890,1910,1930,1951,1971,1990,2010,2030,2049,2069,2090,2110,2130,2149,2170,2189,2209,2230,2250,2270,2289,2309,2329],"xSR":741.5,"ySR":501.8,"xT1":424.9,"yT1":0,"xT2":1058.1,"yT2":0,"toosoon":0,"cond_shown":"Incongruent","ratio_trial":100,"L_num":8,"L_den":16,"R_num":6,"R_den":10,"correct_side":2,"subjID":"mariasalomesuarezvenegas10","gender":"1","school":"6","age":"11"},{"start_time":1551899696500,"click_time":1551899698208,"finger_time":1551899697389,"fix_duration":689.2743583671161,"trial":12,"RT":889,"MT":819,"sideResp":2,"stimulus":[],"xmouse":[795,795,795,795,795,795,795,795,795,795,795,795,795,795,795,795,795,795,795,795,795,795,795,795,795,795,795,795,795,795,795,795,795,795,795,795,795,795,797,804,809,814,819,826,831,832,833,833,833,833,833,833,833,833,833,833,834,835,838,852,861,871,878,885,910,920,929,938,949,970,982,994,1002,1012,1023,1027,1032,1035,1038,1056,1070,1083,1091,1095,1099,1103],"ymouse":[537,537,537,537,537,537,537,537,537,537,537,537,537,537,537,537,537,537,537,537,537,537,537,537,537,537,537,537,537,537,537,537,537,537,537,537,537,537,537,532,526,520,514,505,496,495,493,493,493,493,493,493,493,493,493,493,492,491,487,468,455,443,432,423,389,376,364,350,337,305,283,265,250,232,213,203,192,187,181,159,143,128,117,109,101,93],"timestamp_mouse":[10,29,49,69,89,109,129,149,169,189,208,230,249,270,289,310,329,350,369,389,409,429,448,469,488,509,528,548,569,589,609,629,649,669,689,709,729,749,769,788,808,829,850,869,889,910,929,949,969,989,1010,1029,1049,1069,1089,1109,1129,1149,1169,1189,1209,1228,1249,1269,1289,1309,1329,1350,1369,1389,1409,1430,1449,1469,1488,1510,1528,1549,1568,1589,1609,1629,1649,1669,1689,1708],"xSR":741.5,"ySR":501.8,"xT1":424.9,"yT1":0,"xT2":1058.1,"yT2":0,"toosoon":0,"cond_shown":"Incongruent","ratio_trial":300,"L_num":13,"L_den":26,"R_num":12,"R_den":15,"correct_side":2,"subjID":"mariasalomesuarezvenegas10","gender":"1","school":"6","age":"11"},{"start_time":1551899700001,"click_time":1551899702750,"finger_time":1551899702289,"fix_duration":609.1250402500181,"trial":13,"RT":2288,"MT":461,"sideResp":2,"stimulus":[],"xmouse":[776,776,776,776,776,776,776,776,776,776,776,776,776,776,776,776,776,776,776,776,776,776,776,776,776,776,776,776,776,776,776,776,776,776,776,776,776,776,776,776,776,776,776,776,776,776,776,776,776,776,776,778,778,779,779,779,779,779,779,779,779,779,779,779,779,779,779,779,780,781,781,781,781,781,781,781,781,781,781,781,781,781,781,781,781,781,781,781,781,781,781,781,781,781,781,781,781,781,781,781,781,781,781,781,781,781,781,781,781,781,781,782,785,794,820,826,833,841,850,867,879,892,905,915,928,937,950,961,973,985,994,1007,1020,1034,1046,1064,1074,1091],"ymouse":[548,548,548,548,548,548,548,548,548,548,548,548,548,548,548,548,548,548,548,548,548,548,548,548,548,548,548,548,548,548,548,548,548,548,548,548,548,548,548,548,548,548,548,548,548,548,548,548,548,548,548,548,548,548,548,548,548,547,547,547,547,547,547,547,547,546,546,545,545,543,543,543,543,541,541,540,539,538,537,537,537,537,537,536,536,536,536,536,536,536,536,536,536,536,536,536,536,536,536,536,536,536,536,536,536,536,536,536,536,536,536,533,531,524,496,488,476,459,433,393,367,346,328,313,292,275,256,241,227,210,200,184,169,153,137,115,104,85],"timestamp_mouse":[11,28,49,68,88,108,128,149,169,189,209,228,248,268,288,308,328,348,369,388,408,428,448,468,487,507,527,547,567,588,607,628,648,668,688,708,728,749,768,788,808,828,848,868,888,909,927,948,967,988,1009,1028,1048,1068,1088,1109,1128,1148,1168,1188,1208,1228,1249,1268,1288,1308,1328,1348,1368,1387,1408,1427,1447,1467,1487,1509,1528,1548,1567,1589,1608,1627,1648,1668,1688,1708,1728,1749,1768,1788,1808,1828,1849,1868,1888,1908,1928,1949,1969,1988,2008,2028,2048,2068,2088,2108,2128,2148,2169,2188,2207,2227,2247,2268,2288,2308,2329,2348,2368,2388,2409,2429,2449,2468,2489,2507,2528,2548,2568,2588,2609,2628,2647,2668,2688,2708,2727,2748],"xSR":741.5,"ySR":501.8,"xT1":424.9,"yT1":0,"xT2":1058.1,"yT2":0,"toosoon":0,"cond_shown":"Incongruent","ratio_trial":100,"L_num":9,"L_den":15,"R_num":13,"R_den":26,"correct_side":1,"subjID":"mariasalomesuarezvenegas10","gender":"1","school":"6","age":"11"},{"start_time":1551899718210,"click_time":1551899719589,"finger_time":1551899718988,"fix_duration":799.0123798255739,"trial":14,"RT":778,"MT":601,"sideResp":1,"stimulus":[],"xmouse":[781,781,781,781,781,781,781,781,781,781,781,781,781,781,781,781,781,781,781,781,781,781,781,781,781,781,781,781,781,781,781,781,781,781,781,780,777,770,739,727,718,712,708,698,692,686,679,669,658,651,643,637,633,623,618,611,602,590,578,574,570,565,560,543,538,534,528,527,505],"ymouse":[529,529,529,529,529,529,530,530,530,530,530,530,530,530,530,530,530,530,530,530,530,530,530,530,530,530,530,530,530,530,530,530,530,530,530,530,529,512,449,426,413,403,396,374,360,345,329,312,298,288,277,270,262,247,241,231,218,195,176,166,157,146,133,109,101,94,85,84,70],"timestamp_mouse":[19,47,59,79,98,118,138,158,179,199,219,240,259,279,300,320,339,359,379,399,419,439,459,479,500,520,539,559,578,598,619,638,658,679,699,719,738,758,778,799,819,839,860,879,898,920,939,958,979,999,1019,1039,1059,1078,1099,1120,1139,1159,1179,1199,1220,1239,1260,1279,1299,1318,1338,1358,1379],"xSR":741.5,"ySR":501.8,"xT1":424.9,"yT1":0,"xT2":1058.1,"yT2":0,"toosoon":0,"cond_shown":"Congruent","ratio_trial":300,"L_num":9,"L_den":10,"R_num":3,"R_den":5,"correct_side":1,"subjID":"mariasalomesuarezvenegas10","gender":"1","school":"6","age":"11"},{"start_time":1551899721607,"click_time":1551899723669,"finger_time":1551899723289,"fix_duration":477.541777066368,"trial":15,"RT":1682,"MT":380,"sideResp":2,"stimulus":[],"xmouse":[806,806,806,806,806,806,806,806,806,806,806,806,806,806,806,806,806,806,806,806,806,806,806,806,806,806,806,806,806,806,806,806,806,805,800,798,797,797,797,797,797,797,797,797,797,797,797,797,797,797,797,797,797,797,797,797,797,797,797,797,797,797,797,797,797,797,797,797,797,797,797,797,797,797,797,797,797,797,797,797,796,800,806,816,843,866,888,916,924,954,959,964,968,971,979,987,999,1009,1018,1038,1044,1051,1058,1062],"ymouse":[539,539,539,539,539,539,539,539,539,539,539,539,539,539,539,539,539,539,539,539,539,539,539,539,540,540,540,540,540,540,540,540,540,540,540,540,540,540,540,540,540,540,540,540,540,540,540,540,540,540,540,540,540,540,540,540,540,540,540,540,540,540,540,540,540,540,540,540,540,540,540,540,540,540,540,540,540,540,540,540,539,535,528,516,473,435,396,355,345,308,300,290,279,265,225,199,176,159,145,109,94,81,72,67],"timestamp_mouse":[9,22,42,63,82,102,122,142,162,183,202,222,242,262,282,302,322,341,361,381,401,422,442,462,482,502,522,542,562,582,602,622,642,663,682,702,722,742,762,783,802,822,842,861,881,902,922,942,963,982,1002,1022,1042,1062,1082,1102,1122,1142,1162,1182,1202,1222,1243,1263,1282,1302,1322,1342,1362,1383,1403,1423,1442,1461,1481,1502,1521,1542,1561,1582,1602,1622,1642,1662,1682,1702,1723,1743,1761,1782,1803,1822,1842,1862,1882,1901,1922,1943,1962,1982,2002,2022,2042,2062],"xSR":741.5,"ySR":501.8,"xT1":424.9,"yT1":0,"xT2":1058.1,"yT2":0,"toosoon":0,"cond_shown":"Incongruent","ratio_trial":100,"L_num":13,"L_den":26,"R_num":6,"R_den":10,"correct_side":2,"subjID":"mariasalomesuarezvenegas10","gender":"1","school":"6","age":"11"},{"start_time":1551899725411,"click_time":1551899727869,"finger_time":1551899727389,"fix_duration":581.7042104448107,"trial":16,"RT":1978,"MT":480,"sideResp":2,"stimulus":[],"xmouse":[765,765,765,765,765,765,765,765,765,765,765,765,765,765,765,765,765,765,765,765,765,765,765,765,765,765,765,765,765,765,765,765,765,765,765,765,765,765,765,765,765,765,765,765,765,765,765,765,765,765,765,765,765,765,765,765,765,765,765,765,765,765,765,765,765,765,765,765,765,765,765,765,765,765,765,765,765,765,765,765,765,765,765,765,765,765,765,765,765,765,765,765,765,765,765,765,772,785,867,908,944,966,981,1015,1031,1040,1048,1061,1090,1108,1121,1131,1135,1144,1151,1158,1163,1163,1163,1162,1161,1160,1158],"ymouse":[541,541,541,541,541,541,541,541,541,541,541,541,541,541,541,541,541,541,541,541,541,541,541,541,541,541,541,541,541,541,541,541,541,541,541,541,541,541,541,541,541,541,541,541,541,541,541,541,541,541,541,541,541,541,541,541,541,541,541,541,541,541,541,541,541,541,541,541,541,541,541,541,541,541,541,541,541,541,541,541,541,541,541,541,541,541,541,541,541,541,541,541,541,541,541,541,540,530,472,443,417,402,388,348,330,317,307,290,252,232,214,203,196,177,162,144,130,114,103,100,95,90,85],"timestamp_mouse":[24,38,58,78,98,118,138,158,178,199,218,238,258,279,298,318,338,358,379,398,418,438,457,478,497,517,537,557,578,598,618,638,658,678,699,718,738,758,778,798,818,838,858,878,898,918,938,959,978,998,1018,1038,1058,1077,1098,1118,1137,1157,1178,1198,1218,1238,1258,1278,1297,1317,1338,1357,1377,1397,1417,1438,1458,1478,1499,1519,1538,1558,1578,1598,1619,1638,1658,1677,1697,1717,1737,1757,1778,1797,1818,1839,1858,1877,1898,1919,1938,1958,1978,1998,2018,2038,2058,2077,2098,2118,2138,2158,2178,2198,2218,2238,2259,2278,2298,2318,2338,2359,2378,2398,2418,2438,2458],"xSR":741.5,"ySR":501.8,"xT1":424.9,"yT1":0,"xT2":1058.1,"yT2":0,"toosoon":0,"cond_shown":"Congruent","ratio_trial":100,"L_num":3,"L_den":20,"R_num":4,"R_den":16,"correct_side":2,"subjID":"mariasalomesuarezvenegas10","gender":"1","school":"6","age":"11"},{"start_time":1551899729394,"click_time":1551899731130,"finger_time":1551899730789,"fix_duration":303.0104051187086,"trial":17,"RT":1395,"MT":341,"sideResp":2,"stimulus":[],"xmouse":[801,801,801,801,801,801,801,801,801,801,801,801,801,801,801,801,801,801,801,801,801,801,801,801,801,801,801,801,801,801,801,801,801,801,801,801,801,801,801,801,801,801,801,801,801,801,801,801,801,801,801,801,801,801,801,801,801,801,801,801,801,801,801,801,801,801,801,804,814,904,957,1007,1039,1055,1076,1084,1090,1094,1096,1101,1103,1103,1103,1103,1103,1103,1103],"ymouse":[574,574,574,574,574,574,574,574,574,574,574,574,574,574,574,574,574,574,574,574,574,574,574,574,574,574,574,574,574,574,574,574,574,574,574,574,574,574,574,574,574,574,574,574,574,574,574,574,574,574,574,574,574,574,574,574,574,574,574,574,574,574,574,574,574,574,574,573,566,488,424,355,299,274,235,213,189,163,139,112,108,106,105,104,102,100,97],"timestamp_mouse":[16,35,55,75,95,115,134,154,174,195,214,234,254,274,294,316,335,355,376,395,415,436,455,475,495,516,536,555,574,594,615,634,654,674,694,715,736,756,775,794,814,834,855,875,894,915,935,955,975,995,1015,1035,1055,1075,1095,1115,1135,1155,1175,1195,1215,1235,1255,1274,1294,1314,1335,1354,1374,1395,1415,1435,1455,1475,1495,1516,1535,1554,1574,1594,1615,1635,1655,1675,1695,1716,1736],"xSR":741.5,"ySR":501.8,"xT1":424.9,"yT1":0,"xT2":1058.1,"yT2":0,"toosoon":0,"cond_shown":"Congruent","ratio_trial":300,"L_num":5,"L_den":25,"R_num":6,"R_den":12,"correct_side":2,"subjID":"mariasalomesuarezvenegas10","gender":"1","school":"6","age":"11"},{"start_time":1551899733446,"click_time":1551899735589,"finger_time":1551899734649,"fix_duration":1256.1524258300597,"trial":18,"RT":1203,"MT":940,"sideResp":1,"stimulus":[],"xmouse":[807,807,807,807,807,807,807,807,807,807,807,807,807,807,807,807,807,807,807,807,807,807,807,807,807,807,807,807,807,807,807,807,807,807,807,807,807,807,807,807,807,807,807,807,807,808,810,814,814,815,815,815,815,818,820,821,823,827,831,838,846,856,868,869,870,871,879,901,911,919,927,937,952,955,957,958,959,959,959,959,959,959,959,959,959,959,959,959,956,950,935,897,745,677,634,606,600,584,575,563,550,536,520,516,513,510,506,502],"ymouse":[549,549,549,549,549,549,549,549,549,549,549,549,549,549,549,549,549,549,549,549,549,549,549,549,549,549,549,549,549,549,549,549,549,549,549,549,549,549,549,549,549,549,549,549,549,549,549,548,548,548,548,548,547,544,542,540,539,536,533,528,520,506,487,485,485,481,460,396,360,338,320,300,261,245,235,231,229,229,228,228,228,228,228,228,228,228,228,228,228,228,228,229,238,227,211,192,189,181,179,175,168,156,133,123,116,110,103,94],"timestamp_mouse":[9,24,42,62,83,102,123,144,163,183,202,222,242,262,282,303,324,343,363,384,403,423,443,463,483,503,523,543,563,583,603,623,643,663,683,705,723,743,763,783,803,823,843,862,882,902,922,943,962,982,1003,1023,1043,1063,1083,1103,1123,1143,1163,1183,1203,1223,1242,1264,1283,1303,1323,1343,1363,1383,1403,1423,1443,1464,1483,1503,1522,1544,1563,1584,1603,1623,1643,1662,1682,1702,1722,1742,1763,1782,1803,1823,1843,1863,1883,1904,1924,1943,1963,1983,2003,2023,2042,2063,2083,2104,2123,2143],"xSR":741.5,"ySR":501.8,"xT1":424.9,"yT1":0,"xT2":1058.1,"yT2":0,"toosoon":0,"cond_shown":"Incongruent","ratio_trial":100,"L_num":6,"L_den":10,"R_num":11,"R_den":22,"correct_side":1,"subjID":"mariasalomesuarezvenegas10","gender":"1","school":"6","age":"11"},{"start_time":1551899736801,"click_time":1551899738469,"finger_time":1551899738109,"fix_duration":250,"trial":19,"RT":1308,"MT":360,"sideResp":2,"stimulus":[],"xmouse":[806,806,806,806,806,806,806,806,806,806,806,806,806,806,806,806,806,806,806,806,806,806,806,806,806,806,806,806,806,806,806,806,806,806,806,806,806,806,806,806,806,806,806,806,806,806,806,806,806,806,806,806,806,806,806,806,806,806,806,806,806,806,806,807,822,837,854,871,887,910,922,935,949,958,975,983,992,1005,1011,1023,1034,1044,1058,1072],"ymouse":[530,530,530,530,530,530,530,530,530,530,530,530,530,530,530,530,530,530,530,530,530,530,530,530,530,530,530,530,530,530,530,530,530,530,530,530,530,530,530,530,530,530,530,530,530,530,530,530,530,530,530,530,530,530,530,530,530,530,530,530,530,530,530,529,507,481,445,407,370,331,310,291,268,249,220,207,195,179,172,153,142,128,111,95],"timestamp_mouse":[9,32,48,68,89,108,128,148,168,188,208,229,248,269,288,308,328,349,369,388,408,428,448,468,488,508,528,548,568,588,609,628,648,668,688,708,728,748,768,788,808,828,848,868,888,907,928,948,968,988,1009,1029,1048,1067,1087,1107,1127,1148,1168,1189,1208,1228,1248,1268,1288,1308,1328,1348,1369,1387,1407,1428,1448,1468,1488,1508,1528,1548,1568,1588,1608,1628,1648,1667],"xSR":741.5,"ySR":501.8,"xT1":424.9,"yT1":0,"xT2":1058.1,"yT2":0,"toosoon":0,"cond_shown":"Incongruent","ratio_trial":200,"L_num":11,"L_den":20,"R_num":3,"R_den":4,"correct_side":2,"subjID":"mariasalomesuarezvenegas10","gender":"1","school":"6","age":"11"},{"start_time":1551899740014,"click_time":1551899741769,"finger_time":1551899741309,"fix_duration":823.4046390161658,"trial":20,"RT":1295,"MT":460,"sideResp":2,"stimulus":[],"xmouse":[822,822,822,822,822,822,822,822,822,822,822,822,822,822,822,822,822,822,822,822,822,822,822,822,822,822,822,822,822,822,822,822,822,822,822,822,822,822,822,823,823,823,823,823,823,823,823,823,823,824,825,826,827,827,827,827,827,827,827,827,827,827,828,836,846,856,871,880,912,928,942,953,964,980,983,987,992,1001,1031,1034,1036,1037,1039,1051,1056,1061,1065,1069],"ymouse":[550,550,550,550,550,550,550,550,550,550,550,550,550,550,550,550,550,550,550,550,550,550,550,550,550,550,550,550,550,550,550,550,550,550,550,550,550,550,550,550,550,550,550,550,550,550,550,550,550,549,549,548,548,548,548,548,548,548,548,547,547,546,545,536,524,510,492,474,427,407,388,367,351,322,312,299,277,246,170,157,144,136,129,112,107,103,100,95],"timestamp_mouse":[15,36,56,74,94,114,134,154,175,194,214,235,255,275,294,315,335,355,375,396,415,436,455,476,495,515,536,555,576,596,615,635,656,675,695,715,735,754,774,794,815,835,855,875,895,915,936,955,975,995,1015,1035,1055,1075,1095,1115,1135,1155,1175,1195,1215,1236,1255,1274,1295,1315,1335,1355,1375,1395,1415,1435,1455,1476,1495,1514,1536,1556,1576,1596,1614,1636,1656,1674,1695,1716,1735,1755],"xSR":741.5,"ySR":501.8,"xT1":424.9,"yT1":0,"xT2":1058.1,"yT2":0,"toosoon":0,"cond_shown":"Congruent","ratio_trial":200,"L_num":5,"L_den":10,"R_num":14,"R_den":20,"correct_side":2,"subjID":"mariasalomesuarezvenegas10","gender":"1","school":"6","age":"11"},{"start_time":1551899743312,"click_time":1551899744569,"finger_time":1551899744088,"fix_duration":761.2587930293038,"trial":21,"RT":776,"MT":481,"sideResp":1,"stimulus":[],"xmouse":[772,772,772,772,772,772,772,772,772,772,772,772,772,772,772,772,772,772,772,772,772,772,772,772,772,772,772,772,772,772,772,772,772,772,772,769,761,752,735,727,723,718,711,700,690,682,674,666,651,642,633,622,619,610,602,594,586,578,564,554,544,530,519],"ymouse":[566,566,566,566,566,566,566,566,566,566,566,566,566,566,566,566,566,566,566,566,566,566,566,566,566,566,566,566,566,566,566,566,566,566,566,566,561,551,522,511,506,499,483,449,432,421,409,397,367,346,328,310,303,285,269,257,245,234,204,179,151,116,90],"timestamp_mouse":[16,37,57,77,97,117,137,157,177,197,217,237,257,278,296,317,337,357,377,397,417,437,457,477,497,517,538,557,577,597,616,636,656,676,696,716,736,756,776,797,816,836,856,876,898,917,937,958,977,997,1018,1037,1057,1077,1098,1117,1137,1157,1176,1198,1217,1237,1257],"xSR":741.5,"ySR":501.8,"xT1":424.9,"yT1":0,"xT2":1058.1,"yT2":0,"toosoon":0,"cond_shown":"Congruent","ratio_trial":200,"L_num":21,"L_den":30,"R_num":2,"R_den":4,"correct_side":1,"subjID":"mariasalomesuarezvenegas10","gender":"1","school":"6","age":"11"},{"start_time":1551899746173,"click_time":1551899748050,"finger_time":1551899747569,"fix_duration":582.5653248475478,"trial":22,"RT":1396,"MT":481,"sideResp":2,"stimulus":[],"xmouse":[793,793,793,793,793,793,793,793,793,793,793,793,793,793,793,793,793,793,793,793,793,793,793,793,793,793,793,793,793,793,793,793,793,793,793,793,793,793,793,795,802,804,807,807,807,807,807,807,807,807,807,807,807,807,807,807,807,807,807,807,807,807,807,807,807,807,809,813,820,836,852,860,865,869,874,880,884,888,897,909,940,950,958,967,979,1011,1019,1029,1038,1051,1081,1087,1091,1094],"ymouse":[540,540,540,540,540,540,540,540,540,540,540,540,540,540,540,540,540,540,540,540,540,540,540,540,540,540,540,540,540,540,540,540,540,540,540,540,540,540,540,540,539,538,536,535,535,535,535,535,535,535,535,535,535,535,535,535,535,535,535,535,535,535,535,535,535,535,534,531,522,493,459,443,425,409,399,389,384,375,360,341,298,287,275,261,244,210,201,191,179,161,124,113,105,99],"timestamp_mouse":[32,37,57,76,96,116,136,156,176,196,216,237,256,276,296,316,336,356,376,396,416,436,456,476,495,516,535,555,576,596,616,636,656,676,696,716,736,756,776,796,816,836,856,876,896,916,935,955,975,996,1016,1035,1055,1075,1096,1116,1136,1157,1176,1196,1216,1236,1256,1276,1297,1316,1336,1356,1376,1396,1417,1436,1456,1476,1496,1516,1536,1557,1576,1596,1616,1636,1656,1677,1696,1716,1736,1757,1776,1795,1816,1836,1856,1877],"xSR":741.5,"ySR":501.8,"xT1":424.9,"yT1":0,"xT2":1058.1,"yT2":0,"toosoon":0,"cond_shown":"Incongruent","ratio_trial":300,"L_num":13,"L_den":26,"R_num":12,"R_den":15,"correct_side":2,"subjID":"mariasalomesuarezvenegas10","gender":"1","school":"6","age":"11"},{"start_time":1551899749659,"click_time":1551899751429,"finger_time":1551899751050,"fix_duration":488.8856461561939,"trial":23,"RT":1391,"MT":379,"sideResp":1,"stimulus":[],"xmouse":[801,799,797,796,796,796,792,789,787,787,787,787,787,787,787,787,787,787,787,787,787,787,787,787,787,787,787,787,787,787,787,787,787,787,787,787,787,787,787,787,787,787,787,787,787,787,787,787,787,787,787,787,787,787,787,787,787,787,787,787,787,787,787,787,787,787,783,768,749,721,690,622,581,534,476,466,449,449,449,450,452,456,457,459,460,461,462,464,467],"ymouse":[540,542,542,542,542,542,546,548,549,549,549,549,549,549,549,549,549,549,549,549,549,549,549,549,549,549,549,549,549,549,549,549,549,549,549,549,549,549,549,549,549,549,549,549,549,549,549,549,549,549,549,549,549,549,549,549,549,549,549,549,549,549,549,549,549,549,549,533,510,476,441,361,315,270,217,207,176,173,169,163,155,138,132,126,122,117,113,108,98],"timestamp_mouse":[13,37,50,70,90,109,129,150,171,190,210,231,250,270,290,310,331,350,370,390,410,430,450,470,490,510,530,550,569,589,609,629,649,669,689,709,729,749,769,789,809,829,850,870,890,910,930,950,971,990,1010,1029,1049,1069,1089,1109,1129,1150,1170,1190,1209,1230,1251,1270,1291,1310,1330,1350,1370,1391,1410,1430,1451,1470,1490,1510,1530,1550,1570,1590,1610,1630,1651,1670,1690,1710,1729,1750,1770],"xSR":741.5,"ySR":501.8,"xT1":424.9,"yT1":0,"xT2":1058.1,"yT2":0,"toosoon":0,"cond_shown":"Congruent","ratio_trial":300,"L_num":11,"L_den":22,"R_num":4,"R_den":20,"correct_side":1,"subjID":"mariasalomesuarezvenegas10","gender":"1","school":"6","age":"11"},{"start_time":1551899752872,"click_time":1551899754389,"finger_time":1551899753650,"fix_duration":440.2829076770375,"trial":24,"RT":778,"MT":739,"sideResp":2,"stimulus":[],"xmouse":[784,784,784,784,784,784,784,784,784,784,784,784,784,784,784,784,784,784,784,784,784,784,784,784,784,784,784,784,784,784,784,785,785,785,786,789,798,809,820,826,830,830,831,831,831,831,831,831,831,831,831,836,843,860,867,895,903,915,928,945,968,975,981,989,999,1025,1033,1045,1059,1073,1095,1103,1107,1111,1112,1114],"ymouse":[536,536,536,536,536,536,536,536,536,536,536,536,536,536,536,536,536,536,536,536,536,536,536,536,536,536,536,536,536,536,536,536,536,536,535,532,524,511,496,488,484,483,483,483,483,483,483,483,483,483,482,477,471,453,443,409,396,380,362,342,314,300,285,272,257,222,207,190,170,152,120,110,105,101,100,93],"timestamp_mouse":[17,37,57,77,97,117,138,158,177,197,217,237,257,278,297,317,337,358,378,397,417,437,457,478,497,517,537,557,577,597,616,636,657,677,697,717,737,756,778,797,817,837,856,877,897,918,937,957,977,997,1019,1036,1058,1077,1098,1117,1136,1157,1176,1196,1217,1237,1257,1277,1298,1317,1338,1357,1377,1397,1417,1438,1458,1478,1496,1516],"xSR":741.5,"ySR":501.8,"xT1":424.9,"yT1":0,"xT2":1058.1,"yT2":0,"toosoon":0,"cond_shown":"Incongruent","ratio_trial":300,"L_num":13,"L_den":26,"R_num":12,"R_den":15,"correct_side":2,"subjID":"mariasalomesuarezvenegas10","gender":"1","school":"6","age":"11"},{"start_time":1551899756762,"click_time":1551899760468,"finger_time":1551899759970,"fix_duration":1432.139382787495,"trial":25,"RT":3208,"MT":498,"sideResp":1,"stimulus":[],"xmouse":[761,761,761,761,761,761,761,761,761,761,761,761,761,761,761,761,761,761,761,761,761,761,761,761,761,761,761,761,761,761,761,761,761,761,760,760,760,759,759,757,757,757,757,757,756,756,755,755,754,754,754,754,754,754,754,754,753,753,753,753,753,753,753,753,753,753,753,753,753,753,753,753,753,753,753,753,753,753,753,753,753,753,753,753,753,753,753,753,753,753,753,753,753,753,753,753,753,753,753,753,753,753,753,753,753,753,753,753,753,753,753,753,753,753,753,753,753,753,753,753,753,753,753,753,753,753,753,753,753,753,753,753,753,753,753,753,753,753,753,752,752,751,751,750,750,750,749,749,749,749,749,749,749,749,749,749,749,749,747,743,741,725,707,687,670,654,640,637,632,618,613,582,567,554,544,537,531,528,519,507,496,487,486,482,473,460],"ymouse":[577,577,577,577,577,577,577,577,577,577,577,577,577,577,577,577,577,577,577,577,577,577,576,575,574,574,574,574,574,574,574,574,573,573,572,572,572,572,572,572,572,572,572,572,572,572,572,572,572,572,572,572,572,572,572,572,572,572,572,572,572,572,572,572,572,572,572,572,572,572,572,572,572,572,572,572,572,572,572,572,572,572,572,572,572,572,572,572,572,572,572,572,572,572,572,572,572,572,572,572,572,572,572,572,572,572,572,572,572,572,572,572,572,572,572,572,572,572,572,572,572,572,572,572,572,572,572,572,572,572,572,572,572,572,572,572,572,572,572,572,572,572,572,572,572,572,573,573,573,574,575,577,578,578,578,578,578,578,569,556,551,505,474,448,429,416,405,402,395,371,361,311,289,266,247,229,202,189,172,154,140,131,130,124,108,86],"timestamp_mouse":[9,37,46,66,86,108,127,147,167,187,207,227,247,267,287,307,327,347,367,386,407,426,446,466,486,506,527,547,567,588,607,628,648,667,688,707,726,746,766,786,807,827,846,867,887,907,928,946,966,986,1006,1029,1047,1066,1087,1107,1126,1146,1166,1187,1207,1227,1247,1267,1287,1307,1327,1346,1366,1386,1407,1426,1446,1467,1487,1507,1526,1546,1567,1587,1607,1626,1646,1667,1688,1707,1726,1746,1766,1786,1806,1827,1847,1867,1887,1907,1927,1947,1966,1986,2006,2027,2046,2066,2086,2107,2127,2147,2167,2187,2206,2226,2247,2268,2287,2307,2327,2347,2366,2387,2406,2426,2446,2467,2487,2508,2527,2546,2567,2587,2607,2626,2646,2667,2686,2706,2727,2746,2766,2787,2806,2827,2846,2866,2887,2907,2927,2947,2967,2987,3007,3026,3047,3067,3087,3107,3127,3147,3168,3187,3208,3226,3247,3268,3287,3307,3326,3347,3367,3388,3408,3427,3447,3467,3487,3506,3527,3547,3566,3587,3606,3626,3646,3667,3686,3706],"xSR":741.5,"ySR":501.8,"xT1":424.9,"yT1":0,"xT2":1058.1,"yT2":0,"toosoon":0,"cond_shown":"Congruent","ratio_trial":100,"L_num":1,"L_den":2,"R_num":3,"R_den":5,"correct_side":2,"subjID":"mariasalomesuarezvenegas10","gender":"1","school":"6","age":"11"},{"start_time":1551899762240,"click_time":1551899763629,"finger_time":1551899762930,"fix_duration":250,"trial":26,"RT":690,"MT":699,"sideResp":2,"stimulus":[],"xmouse":[820,820,820,820,820,820,820,820,820,820,820,820,820,820,820,820,820,820,820,820,820,820,820,820,820,820,820,820,821,821,821,822,824,832,843,855,864,866,866,868,872,879,886,888,892,898,906,943,956,967,978,986,1001,1006,1008,1008,1008,1011,1016,1020,1025,1029,1045,1051,1053,1054,1056,1059,1064,1071],"ymouse":[566,566,566,566,566,566,566,566,566,566,566,566,566,566,566,566,566,566,566,566,566,566,566,566,566,566,566,566,563,562,561,559,552,541,525,507,491,490,489,486,479,468,457,453,447,438,422,351,325,305,291,279,261,256,254,253,253,244,232,217,201,185,152,140,130,123,115,107,103,98],"timestamp_mouse":[9,29,59,69,90,109,129,149,170,189,209,229,249,269,290,308,329,349,368,389,409,429,449,469,489,509,529,549,570,589,609,630,648,670,690,709,729,748,768,788,808,828,848,869,888,908,928,948,968,989,1008,1029,1048,1068,1088,1109,1128,1148,1168,1188,1208,1228,1248,1269,1288,1308,1328,1348,1369,1389],"xSR":741.5,"ySR":501.8,"xT1":424.9,"yT1":0,"xT2":1058.1,"yT2":0,"toosoon":0,"cond_shown":"Congruent","ratio_trial":300,"L_num":8,"L_den":15,"R_num":10,"R_den":12,"correct_side":2,"subjID":"mariasalomesuarezvenegas10","gender":"1","school":"6","age":"11"},{"start_time":1551899766038,"click_time":1551899767850,"finger_time":1551899767588,"fix_duration":1368.5880337147887,"trial":27,"RT":1550,"MT":262,"sideResp":1,"stimulus":[],"xmouse":[784,784,784,784,784,784,784,784,784,784,784,784,784,784,784,784,784,784,784,784,784,784,784,784,784,784,784,784,784,784,784,784,784,784,784,784,784,784,784,784,784,784,784,784,784,784,784,784,784,784,784,784,784,784,784,784,784,784,784,784,784,784,784,784,784,784,784,784,784,784,784,784,784,782,780,767,749,678,647,619,595,576,547,534,523,513,504,494,493,493,492],"ymouse":[583,583,583,583,583,583,583,583,583,583,583,583,583,583,583,583,583,583,583,583,583,583,583,583,583,583,583,583,583,583,583,583,583,583,583,583,583,583,583,583,583,583,583,583,583,583,583,583,583,583,583,583,583,583,583,583,583,583,583,583,583,583,583,583,583,583,583,583,583,583,583,583,583,581,577,561,534,448,406,367,332,298,245,226,209,194,178,145,127,112,98],"timestamp_mouse":[10,30,62,71,91,110,130,150,171,190,210,231,250,270,290,310,331,350,370,390,410,431,451,471,492,511,531,551,571,591,611,631,650,670,690,711,730,750,770,790,810,830,850,871,891,910,930,950,970,990,1010,1030,1051,1070,1090,1110,1130,1150,1170,1190,1211,1231,1251,1272,1291,1311,1330,1350,1370,1391,1412,1431,1450,1470,1491,1510,1530,1550,1571,1591,1611,1630,1650,1670,1690,1710,1731,1751,1772,1792,1812],"xSR":741.5,"ySR":501.8,"xT1":424.9,"yT1":0,"xT2":1058.1,"yT2":0,"toosoon":0,"cond_shown":"Congruent","ratio_trial":200,"L_num":15,"L_den":25,"R_num":4,"R_den":10,"correct_side":1,"subjID":"mariasalomesuarezvenegas10","gender":"1","school":"6","age":"11"},{"start_time":1551899769951,"click_time":1551899771088,"finger_time":1551899770708,"fix_duration":1361.6329009133963,"trial":28,"RT":757,"MT":380,"sideResp":2,"stimulus":[],"xmouse":[787,787,786,786,785,785,785,785,785,784,784,783,783,783,783,783,783,783,783,783,783,783,783,783,783,783,783,782,782,783,786,791,791,791,792,794,800,809,817,826,842,868,880,889,896,902,908,912,922,938,952,985,997,1013,1036,1064,1126],"ymouse":[550,550,550,550,550,550,550,550,550,550,550,550,550,550,550,550,550,550,550,550,550,550,550,550,550,550,550,549,547,544,537,529,529,528,527,522,508,496,484,471,446,408,391,378,368,358,339,324,303,281,261,211,194,175,149,126,93],"timestamp_mouse":[17,38,57,77,97,118,139,158,178,198,219,239,258,278,299,318,339,358,378,398,418,438,458,479,498,518,537,557,578,597,618,637,657,677,697,717,737,757,777,798,817,838,858,878,898,918,937,958,978,997,1019,1037,1058,1078,1097,1117,1137],"xSR":741.5,"ySR":501.8,"xT1":424.9,"yT1":0,"xT2":1058.1,"yT2":0,"toosoon":0,"cond_shown":"Congruent","ratio_trial":100,"L_num":4,"L_den":10,"R_num":15,"R_den":30,"correct_side":2,"subjID":"mariasalomesuarezvenegas10","gender":"1","school":"6","age":"11"},{"start_time":1551899773362,"click_time":1551899777368,"finger_time":1551899776790,"fix_duration":1172.6072052984769,"trial":29,"RT":3428,"MT":578,"sideResp":1,"stimulus":[],"xmouse":[816,817,817,817,818,818,818,818,819,819,819,819,819,819,819,819,819,819,819,819,819,819,819,819,819,819,819,819,819,819,819,819,819,819,819,819,819,819,819,819,819,819,819,819,819,819,819,819,819,819,819,819,819,819,819,819,819,819,819,819,819,819,819,819,819,819,819,819,819,819,819,819,819,819,819,819,819,819,819,819,819,819,819,819,819,819,819,819,819,819,819,819,819,819,819,819,819,819,819,819,819,819,819,819,819,819,819,819,819,819,819,819,819,819,819,819,819,819,819,819,819,819,819,819,819,819,819,819,819,819,819,819,819,819,819,819,819,819,819,819,819,819,819,819,819,819,819,819,819,819,819,819,819,819,819,819,819,819,819,819,819,819,819,819,819,819,819,819,817,815,785,734,716,706,699,694,681,673,664,651,638,596,581,571,563,555,539,535,532,527,523,517,517,514,511,509,502,501,501,500,499],"ymouse":[540,539,539,539,539,539,539,539,539,539,539,539,539,539,539,539,539,539,539,539,539,539,539,539,539,539,539,539,539,539,539,539,539,539,539,539,539,539,539,539,539,539,539,539,539,539,539,539,539,539,539,539,539,539,539,539,539,539,539,539,539,539,539,539,539,539,539,539,539,539,539,539,539,539,539,539,539,539,539,539,539,539,539,539,539,539,539,539,539,539,539,539,539,539,539,539,539,539,539,539,539,539,539,539,539,539,539,539,539,539,539,539,539,539,539,539,539,539,539,539,539,539,539,539,539,539,539,539,539,539,539,539,539,539,539,539,539,539,539,539,539,539,539,539,539,539,539,539,539,539,539,539,539,539,539,539,539,539,539,539,539,539,539,539,539,539,539,539,537,537,519,490,479,470,465,459,445,436,427,413,399,358,343,330,317,296,244,226,207,190,174,137,126,118,113,111,104,102,101,100,98],"timestamp_mouse":[10,27,56,67,87,107,126,146,166,186,206,227,246,267,286,306,326,346,367,387,407,428,447,467,487,507,526,547,566,586,607,626,646,666,687,707,727,746,766,786,806,827,846,867,887,907,927,947,968,988,1007,1027,1047,1066,1086,1107,1126,1146,1167,1187,1206,1226,1246,1266,1287,1306,1326,1346,1366,1386,1406,1427,1447,1466,1486,1506,1526,1547,1567,1587,1608,1627,1647,1668,1687,1707,1728,1747,1767,1787,1807,1826,1847,1866,1886,1906,1928,1947,1967,1988,2008,2028,2047,2067,2087,2106,2126,2146,2166,2186,2206,2226,2246,2266,2286,2307,2326,2346,2366,2386,2406,2426,2446,2466,2486,2506,2526,2546,2567,2587,2607,2626,2646,2666,2686,2706,2727,2747,2766,2788,2807,2826,2846,2867,2886,2907,2927,2946,2967,2986,3006,3026,3046,3066,3087,3108,3128,3148,3167,3188,3207,3226,3248,3266,3286,3306,3326,3346,3367,3388,3408,3428,3447,3467,3488,3507,3526,3547,3567,3586,3607,3626,3646,3666,3686,3708,3727,3746,3767,3787,3806,3826,3847,3867,3887,3907,3928,3947,3968,3987,4006],"xSR":741.5,"ySR":501.8,"xT1":424.9,"yT1":0,"xT2":1058.1,"yT2":0,"toosoon":0,"cond_shown":"Congruent","ratio_trial":100,"L_num":2,"L_den":5,"R_num":6,"R_den":12,"correct_side":2,"subjID":"mariasalomesuarezvenegas10","gender":"1","school":"6","age":"11"},{"start_time":1551899779961,"click_time":1551899783189,"finger_time":1551899782808,"fix_duration":250,"trial":30,"RT":2847,"MT":381,"sideResp":1,"stimulus":[],"xmouse":[803,803,803,803,803,803,803,803,803,803,803,803,803,803,803,803,803,803,803,803,803,803,803,803,803,803,803,803,803,803,803,803,803,803,803,803,803,803,803,803,803,803,803,803,803,803,803,803,803,803,803,803,803,803,803,803,803,803,803,803,803,803,803,803,803,803,803,803,803,803,803,803,803,803,803,803,803,803,803,803,803,803,803,803,803,803,803,803,803,803,803,803,803,803,803,803,803,803,803,803,803,803,803,803,803,803,803,803,803,803,803,803,803,803,803,803,803,803,803,803,803,803,803,803,803,803,803,803,803,803,803,803,803,803,803,803,803,803,803,803,802,772,757,741,720,686,639,625,610,595,591,591,591,592,594,595,593,580,567,553,547,522],"ymouse":[566,566,566,566,566,566,566,566,566,566,566,566,566,566,566,566,566,566,566,566,566,566,566,566,566,566,566,566,566,566,566,566,566,566,566,566,566,566,566,566,566,566,566,566,566,566,566,566,566,566,566,566,566,566,566,566,566,566,566,566,566,566,566,566,566,566,566,566,566,566,566,566,566,566,566,566,566,566,566,566,566,566,566,566,566,566,566,566,566,566,566,566,566,566,566,566,566,566,566,566,566,566,566,566,566,566,566,566,566,566,566,566,566,566,566,566,566,566,566,566,566,566,566,566,566,566,566,566,566,566,566,566,566,566,566,566,566,566,566,566,562,512,498,482,456,420,370,337,305,255,238,226,224,219,213,204,182,162,135,102,92,43],"timestamp_mouse":[8,28,47,68,87,108,128,147,168,188,207,228,249,267,287,307,327,347,367,387,407,427,447,467,487,508,527,547,567,587,608,627,647,667,687,707,727,747,767,788,808,829,848,868,888,908,928,948,968,988,1008,1028,1048,1068,1088,1108,1127,1147,1167,1187,1207,1228,1247,1268,1287,1307,1327,1347,1367,1387,1407,1428,1447,1468,1487,1507,1528,1549,1568,1589,1609,1628,1648,1667,1687,1707,1728,1747,1767,1787,1807,1827,1847,1867,1887,1907,1927,1948,1967,1987,2008,2028,2048,2067,2088,2107,2127,2148,2167,2187,2207,2227,2247,2267,2287,2307,2327,2347,2367,2387,2407,2427,2447,2467,2487,2508,2528,2548,2568,2589,2608,2627,2647,2667,2688,2707,2727,2747,2768,2788,2807,2827,2847,2867,2887,2907,2928,2947,2967,2988,3008,3028,3047,3067,3088,3107,3127,3148,3168,3188,3209,3227],"xSR":741.5,"ySR":501.8,"xT1":424.9,"yT1":0,"xT2":1058.1,"yT2":0,"toosoon":0,"cond_shown":"Incongruent","ratio_trial":200,"L_num":1,"L_den":3,"R_num":2,"R_den":15,"correct_side":1,"subjID":"mariasalomesuarezvenegas10","gender":"1","school":"6","age":"11"},{"start_time":1551899784795,"click_time":1551899787370,"finger_time":1551899786249,"fix_duration":465.150756855515,"trial":31,"RT":1454,"MT":1121,"sideResp":1,"stimulus":[],"xmouse":[755,755,755,755,755,755,755,755,755,755,755,755,755,755,755,755,755,755,755,755,755,759,761,761,761,761,761,761,761,761,761,761,761,761,761,761,761,761,761,761,761,761,761,761,761,761,761,761,761,761,761,761,761,761,761,761,761,761,762,762,762,762,762,762,762,762,762,762,763,763,763,762,755,751,746,745,744,743,743,739,734,724,715,706,698,697,697,697,697,697,697,697,697,697,697,697,697,697,697,697,697,697,697,697,694,691,688,683,682,679,675,668,661,655,649,646,640,629,625,624,623,620,619,619,603,594,583,567,513],"ymouse":[538,538,538,538,538,538,538,538,538,538,538,538,538,538,538,538,538,538,538,538,538,538,537,537,537,537,537,537,537,537,537,537,537,537,537,537,537,537,537,537,537,537,537,537,537,537,537,537,537,537,537,537,537,537,537,537,537,537,537,537,537,537,537,537,537,537,537,537,537,536,529,513,497,490,482,481,480,479,479,474,465,449,434,421,412,410,410,410,410,410,410,410,410,410,410,410,410,410,410,410,410,410,410,409,379,362,350,339,338,335,329,320,309,302,291,283,272,253,246,242,238,232,231,230,207,195,178,154,91],"timestamp_mouse":[13,35,53,74,94,114,134,155,174,194,213,233,253,273,293,313,334,353,373,393,413,433,453,474,493,513,533,554,573,594,613,634,654,674,694,714,734,754,775,794,815,834,855,874,894,913,933,953,973,993,1014,1033,1053,1073,1093,1114,1133,1154,1174,1194,1213,1234,1253,1275,1293,1314,1333,1353,1373,1393,1413,1433,1454,1474,1494,1513,1533,1553,1573,1593,1613,1633,1654,1674,1693,1714,1733,1753,1773,1793,1813,1833,1854,1873,1895,1914,1934,1953,1973,1993,2013,2033,2053,2074,2093,2114,2133,2153,2173,2194,2213,2235,2255,2274,2294,2314,2335,2354,2374,2395,2414,2434,2454,2474,2494,2514,2535,2554,2575],"xSR":741.5,"ySR":501.8,"xT1":424.9,"yT1":0,"xT2":1058.1,"yT2":0,"toosoon":0,"cond_shown":"Congruent","ratio_trial":200,"L_num":4,"L_den":8,"R_num":3,"R_den":10,"correct_side":1,"subjID":"mariasalomesuarezvenegas10","gender":"1","school":"6","age":"11"},{"start_time":1551899790455,"click_time":1551899791789,"finger_time":1551899791428,"fix_duration":1465.50511731049,"trial":32,"RT":973,"MT":361,"sideResp":2,"stimulus":[],"xmouse":[800,800,800,800,800,800,800,800,800,800,800,800,800,800,800,800,800,800,800,800,800,800,800,800,800,800,800,800,800,800,800,800,800,800,800,800,800,800,800,800,800,800,800,800,800,801,823,837,851,862,872,883,891,902,914,935,962,976,992,1014,1028,1052,1058,1063,1068,1069,1073],"ymouse":[555,555,555,555,555,555,555,555,555,555,555,555,555,555,555,555,555,555,555,555,555,555,555,555,555,555,555,555,555,555,555,555,555,555,555,555,555,555,555,555,555,555,555,555,555,554,525,508,485,466,448,430,415,396,373,340,295,273,249,216,197,156,141,129,108,101,65],"timestamp_mouse":[13,33,62,73,93,113,133,153,173,193,213,233,253,275,295,314,335,354,374,395,414,434,454,474,494,514,534,554,574,594,614,634,653,674,694,714,734,753,773,794,814,833,853,873,893,913,933,954,973,994,1013,1033,1053,1073,1094,1114,1133,1153,1173,1193,1213,1234,1253,1273,1293,1313,1334],"xSR":741.5,"ySR":501.8,"xT1":424.9,"yT1":0,"xT2":1058.1,"yT2":0,"toosoon":0,"cond_shown":"Congruent","ratio_trial":300,"L_num":1,"L_den":30,"R_num":8,"R_den":24,"correct_side":2,"subjID":"mariasalomesuarezvenegas10","gender":"1","school":"6","age":"11"},{"start_time":1551899794081,"click_time":1551899795510,"finger_time":1551899795188,"fix_duration":1111.5179719407877,"trial":33,"RT":1107,"MT":322,"sideResp":2,"stimulus":[],"xmouse":[762,762,762,762,762,762,762,762,762,762,762,762,762,762,762,762,762,762,762,762,762,762,762,762,762,762,762,762,762,762,762,762,762,762,762,762,762,762,761,759,757,755,754,753,753,753,753,753,753,753,753,754,759,770,785,830,846,858,870,884,902,914,927,944,980,1015,1027,1037,1051,1068,1102,1115],"ymouse":[569,569,569,569,569,569,569,569,569,569,569,569,569,569,569,569,569,569,569,569,569,569,569,569,569,569,569,569,569,569,569,569,569,569,569,569,569,569,569,569,569,569,569,569,569,569,569,569,569,569,569,569,566,553,534,473,454,436,413,391,359,341,317,290,235,184,168,155,140,127,104,93],"timestamp_mouse":[11,36,48,68,88,108,129,148,168,188,208,228,248,268,289,308,328,348,368,388,408,428,447,467,487,507,528,547,567,588,607,627,648,669,687,707,728,748,768,788,808,828,849,868,888,908,928,948,967,988,1008,1028,1047,1067,1088,1107,1128,1147,1168,1187,1207,1228,1247,1267,1288,1307,1328,1348,1368,1387,1408,1428],"xSR":741.5,"ySR":501.8,"xT1":424.9,"yT1":0,"xT2":1058.1,"yT2":0,"toosoon":0,"cond_shown":"Congruent","ratio_trial":200,"L_num":5,"L_den":10,"R_num":14,"R_den":20,"correct_side":2,"subjID":"mariasalomesuarezvenegas10","gender":"1","school":"6","age":"11"},{"start_time":1551899797440,"click_time":1551899799289,"finger_time":1551899798889,"fix_duration":930.7486741796725,"trial":34,"RT":1449,"MT":400,"sideResp":2,"stimulus":[],"xmouse":[793,793,793,793,793,793,793,793,793,793,793,793,793,793,793,793,793,793,793,793,793,793,793,793,793,793,793,793,793,793,793,793,793,793,793,793,793,793,793,793,793,793,793,793,793,793,793,793,793,793,793,793,793,793,793,793,793,793,793,793,793,793,793,793,793,793,793,793,793,794,802,812,843,862,876,886,889,897,899,905,911,922,943,950,955,962,972,993,1000,1010,1026,1047,1079],"ymouse":[579,579,579,579,579,579,579,579,579,579,579,579,579,579,579,579,579,579,579,579,579,579,579,579,579,579,579,579,579,579,579,579,579,579,579,579,579,579,579,579,579,579,579,579,579,579,579,579,579,579,579,579,579,579,579,579,579,579,579,579,579,579,579,579,579,579,579,579,579,572,554,537,490,456,428,396,385,359,350,335,314,275,201,176,160,143,126,101,94,83,67,49,30],"timestamp_mouse":[10,28,48,68,89,108,128,148,168,189,209,229,248,269,288,309,329,349,369,389,408,429,448,468,489,509,528,548,569,588,608,628,648,668,688,708,728,749,769,789,810,829,849,868,888,908,928,948,968,988,1008,1028,1049,1069,1088,1108,1129,1149,1168,1188,1209,1229,1249,1269,1289,1309,1329,1348,1369,1390,1409,1429,1449,1469,1489,1510,1530,1549,1569,1589,1610,1629,1649,1669,1690,1710,1729,1750,1769,1789,1810,1828,1848],"xSR":741.5,"ySR":501.8,"xT1":424.9,"yT1":0,"xT2":1058.1,"yT2":0,"toosoon":0,"cond_shown":"Incongruent","ratio_trial":200,"L_num":14,"L_den":30,"R_num":12,"R_den":18,"correct_side":2,"subjID":"mariasalomesuarezvenegas10","gender":"1","school":"6","age":"11"},{"start_time":1551899801143,"click_time":1551899802429,"finger_time":1551899802189,"fix_duration":853.3928451179518,"trial":35,"RT":1046,"MT":240,"sideResp":2,"stimulus":[],"xmouse":[789,789,789,789,789,789,789,789,789,789,789,789,789,789,789,789,789,789,789,789,789,789,789,789,789,789,788,788,788,788,788,788,788,788,788,788,788,788,788,788,788,788,788,788,788,788,788,788,788,791,797,816,858,871,883,896,908,937,951,967,988,1014,1076,1079,1077],"ymouse":[543,543,544,544,544,544,544,544,544,544,544,544,544,544,544,544,544,544,544,544,544,544,544,544,544,544,544,544,544,544,544,544,544,544,544,544,544,544,544,544,544,544,544,544,544,544,544,544,544,543,537,518,471,452,430,410,388,345,323,301,273,241,129,103,88],"timestamp_mouse":[17,25,46,66,85,105,125,145,166,186,205,225,245,265,285,306,325,345,365,386,405,425,445,465,485,505,525,546,565,587,607,626,646,665,685,705,725,745,767,786,806,827,846,866,886,905,925,946,967,987,1006,1026,1046,1066,1086,1107,1127,1146,1166,1187,1206,1226,1245,1266,1286],"xSR":741.5,"ySR":501.8,"xT1":424.9,"yT1":0,"xT2":1058.1,"yT2":0,"toosoon":0,"cond_shown":"Incongruent","ratio_trial":300,"L_num":13,"L_den":26,"R_num":12,"R_den":15,"correct_side":2,"subjID":"mariasalomesuarezvenegas10","gender":"1","school":"6","age":"11"},{"start_time":1551899804996,"click_time":1551899811689,"finger_time":1551899810269,"fix_duration":1486.2368611071659,"trial":36,"RT":5273,"MT":1420,"sideResp":2,"stimulus":[],"xmouse":[815,815,815,815,815,815,815,815,815,815,815,815,815,815,815,815,815,815,815,815,815,815,815,815,815,815,815,815,815,815,815,815,815,815,815,815,815,815,815,815,815,815,814,813,813,812,812,812,812,812,812,812,812,812,812,811,811,811,811,811,811,811,811,811,811,811,811,811,811,811,811,811,811,811,811,811,811,811,811,811,811,811,811,811,811,811,811,811,811,811,811,811,811,811,811,811,811,811,811,811,811,811,811,811,811,811,811,811,811,811,811,811,811,811,811,811,811,811,811,811,811,811,811,811,811,811,811,811,811,811,811,811,811,811,811,811,811,811,811,811,811,811,811,811,811,811,811,811,811,811,811,811,811,811,811,811,811,811,811,811,811,811,811,811,811,811,811,811,811,811,811,811,811,811,811,811,811,811,811,811,810,810,810,810,810,810,810,810,810,810,810,810,810,810,810,810,810,810,810,810,810,810,810,810,810,810,810,810,810,810,810,810,810,810,810,810,810,810,810,810,810,810,810,810,810,810,810,810,810,810,810,810,810,810,810,810,810,810,810,810,810,810,810,810,810,810,810,810,810,810,810,810,810,810,810,810,810,810,810,808,805,801,793,784,771,765,758,751,735,721,716,709,704,702,701,696,684,664,642,597,589,581,576,573,572,572,572,572,572,572,572,572,572,572,572,572,572,572,572,572,572,572,572,573,578,592,609,623,637,685,709,734,754,773,800,823,858,919,940,1028,1050,1067,1080,1091,1106,1117,1131,1146,1157,1160,1160,1160,1160,1160,1156],"ymouse":[536,536,536,536,536,536,536,536,536,536,536,536,536,536,536,536,536,536,536,536,536,536,536,536,536,536,536,536,536,536,536,536,536,536,536,536,536,536,536,536,536,536,536,536,536,536,537,537,537,537,537,537,537,537,537,537,537,537,537,537,537,537,537,537,537,537,537,537,537,537,537,537,537,537,537,537,537,537,537,537,537,537,537,537,537,537,537,537,537,537,537,537,537,537,537,537,537,537,537,537,537,537,537,537,537,537,537,537,537,537,537,537,537,537,537,537,537,537,537,537,537,537,537,537,537,537,537,537,537,537,537,537,537,537,537,537,537,537,537,537,537,537,537,537,537,537,537,537,537,537,537,537,537,537,537,537,537,537,537,537,537,537,537,537,537,537,537,537,537,537,537,537,537,537,537,537,537,537,537,537,537,537,537,537,537,537,537,537,537,537,537,537,537,537,537,537,537,537,537,537,537,537,537,537,537,537,537,537,537,537,537,537,537,537,537,537,537,537,537,537,537,537,537,537,537,537,537,537,537,537,537,537,537,537,537,537,537,537,537,537,537,537,537,537,537,537,537,537,537,537,537,537,537,537,537,537,537,537,537,536,531,522,509,496,474,459,442,423,388,363,350,339,334,331,329,325,317,304,289,263,256,249,243,240,238,238,238,238,238,238,238,237,237,237,236,236,236,236,236,236,236,236,236,236,235,235,235,235,235,235,233,233,233,231,226,219,209,200,198,180,173,168,163,158,152,149,143,134,126,116,112,110,107,101,90],"timestamp_mouse":[12,38,52,72,92,112,133,153,172,193,213,233,252,272,293,313,333,352,372,392,412,432,452,472,492,513,532,553,573,593,613,632,653,673,692,712,732,754,773,793,813,833,853,873,893,913,933,954,974,994,1013,1034,1052,1073,1093,1113,1133,1152,1172,1193,1212,1232,1252,1272,1292,1312,1332,1352,1372,1392,1413,1432,1452,1472,1492,1512,1532,1552,1572,1593,1613,1633,1653,1673,1693,1713,1733,1753,1773,1793,1812,1832,1852,1872,1893,1912,1932,1953,1972,1992,2012,2033,2052,2072,2092,2113,2132,2153,2173,2193,2213,2232,2252,2273,2293,2313,2333,2353,2373,2393,2413,2432,2453,2473,2492,2513,2533,2553,2573,2593,2612,2632,2652,2672,2692,2712,2733,2753,2773,2793,2813,2833,2853,2873,2893,2913,2933,2953,2972,2992,3013,3032,3052,3073,3093,3113,3133,3153,3173,3193,3214,3233,3253,3273,3293,3313,3333,3354,3373,3394,3413,3434,3453,3472,3492,3512,3533,3553,3572,3592,3612,3632,3653,3673,3693,3714,3733,3754,3773,3792,3812,3833,3852,3872,3892,3912,3932,3952,3972,3992,4012,4032,4052,4072,4092,4112,4133,4152,4172,4192,4212,4232,4252,4273,4292,4313,4333,4353,4373,4393,4414,4433,4453,4473,4494,4513,4533,4553,4574,4592,4612,4632,4652,4673,4693,4712,4732,4752,4773,4792,4812,4832,4853,4872,4892,4923,4932,4952,4973,4993,5012,5032,5052,5072,5093,5113,5133,5153,5173,5194,5213,5233,5253,5273,5292,5313,5333,5352,5374,5392,5412,5433,5453,5473,5493,5514,5534,5553,5574,5592,5613,5634,5654,5674,5692,5712,5733,5753,5772,5792,5813,5832,5852,5872,5892,5913,5932,5952,5973,5993,6013,6032,6052,6073,6093,6112,6132,6152,6172,6192,6213,6233,6253,6273,6293,6313,6333,6353,6374,6392,6413,6433,6453,6473,6492,6513,6533,6553,6572,6592,6613,6633,6653,6672,6693],"xSR":741.5,"ySR":501.8,"xT1":424.9,"yT1":0,"xT2":1058.1,"yT2":0,"toosoon":0,"cond_shown":"Congruent","ratio_trial":100,"L_num":7,"L_den":14,"R_num":15,"R_den":25,"correct_side":2,"subjID":"mariasalomesuarezvenegas10","gender":"1","school":"6","age":"11"},{"start_time":1551899814153,"click_time":1551899816248,"finger_time":1551899815788,"fix_duration":1162.0475051353471,"trial":37,"RT":1635,"MT":460,"sideResp":2,"stimulus":[],"xmouse":[799,799,799,799,799,799,799,799,799,799,799,799,799,799,799,799,799,799,799,799,799,799,799,799,799,799,799,799,799,799,799,799,799,799,799,799,799,799,799,799,799,799,799,799,799,799,799,799,799,799,799,799,799,799,799,799,799,799,799,799,799,799,799,799,799,799,799,799,799,799,799,799,799,799,799,799,799,799,799,801,806,829,837,842,844,847,851,853,858,864,872,899,910,919,925,932,947,957,966,975,987,1030,1048,1066,1083],"ymouse":[540,540,540,540,540,540,540,540,540,540,540,540,540,540,540,540,540,540,540,540,540,540,540,540,540,540,540,540,540,540,540,540,540,540,540,540,540,540,540,540,540,540,540,540,540,540,540,540,540,540,540,540,540,540,540,540,540,540,540,540,540,540,540,540,540,540,540,540,540,540,540,540,540,540,540,540,540,540,540,538,527,475,458,443,434,429,418,410,399,387,375,337,322,309,298,289,267,254,242,228,211,151,130,109,91],"timestamp_mouse":[31,35,55,75,95,116,135,155,175,195,215,237,255,276,296,317,335,355,375,395,415,435,456,477,496,515,535,555,575,595,616,636,655,675,696,715,736,756,776,796,816,836,856,875,895,915,935,955,975,996,1015,1035,1055,1075,1096,1115,1136,1155,1175,1196,1215,1235,1255,1275,1296,1317,1337,1357,1376,1396,1417,1436,1456,1475,1495,1516,1535,1555,1576,1596,1616,1635,1656,1676,1697,1716,1736,1756,1776,1796,1816,1835,1855,1876,1896,1915,1935,1955,1975,1995,2015,2035,2055,2076,2095],"xSR":741.5,"ySR":501.8,"xT1":424.9,"yT1":0,"xT2":1058.1,"yT2":0,"toosoon":0,"cond_shown":"Incongruent","ratio_trial":200,"L_num":4,"L_den":30,"R_num":1,"R_den":3,"correct_side":2,"subjID":"mariasalomesuarezvenegas10","gender":"1","school":"6","age":"11"},{"start_time":1551899817776,"click_time":1551899820308,"finger_time":1551899819628,"fix_duration":585.1146598509777,"trial":38,"RT":1852,"MT":680,"sideResp":1,"stimulus":[],"xmouse":[790,790,790,790,790,790,790,790,790,790,790,790,790,790,790,790,790,790,790,789,788,788,787,787,787,787,787,787,787,787,787,787,786,786,786,786,786,786,786,786,786,786,787,787,787,787,787,787,787,787,787,787,787,787,787,787,787,787,787,787,787,787,787,787,787,787,787,787,787,787,787,787,787,787,787,787,787,787,787,787,787,787,787,787,787,787,787,787,787,785,765,748,735,728,725,721,714,707,701,696,684,678,671,662,653,633,624,616,610,598,580,572,566,559,554,549,549,548,544,543,534,529,524,519,515,506,498],"ymouse":[590,590,590,590,590,590,590,590,590,590,590,590,590,590,590,590,590,590,590,590,588,586,584,583,582,582,582,582,582,582,582,582,581,581,581,581,581,581,581,580,579,579,578,578,576,576,576,576,576,576,576,576,576,576,576,576,576,576,576,576,576,576,576,576,576,576,576,576,576,576,576,576,576,576,576,576,576,576,576,576,576,576,576,576,576,576,576,576,575,572,540,515,497,486,481,470,458,449,440,432,414,400,388,373,361,338,329,317,308,286,254,244,234,223,218,204,197,191,180,178,153,143,132,122,116,105,96],"timestamp_mouse":[11,33,52,72,92,112,133,153,173,193,212,232,253,273,293,312,332,353,373,392,412,433,452,472,492,513,532,552,572,592,612,632,652,672,692,712,733,752,772,792,813,832,852,873,892,913,933,953,972,992,1012,1032,1051,1071,1092,1111,1132,1153,1172,1193,1212,1233,1252,1273,1293,1312,1332,1352,1372,1393,1412,1433,1452,1472,1492,1512,1532,1552,1572,1592,1613,1632,1653,1672,1692,1712,1732,1751,1773,1793,1812,1833,1852,1873,1893,1912,1932,1952,1973,1993,2013,2032,2052,2073,2092,2111,2132,2152,2173,2192,2212,2232,2252,2272,2292,2312,2332,2352,2372,2392,2412,2433,2452,2473,2492,2512,2532],"xSR":741.5,"ySR":501.8,"xT1":424.9,"yT1":0,"xT2":1058.1,"yT2":0,"toosoon":0,"cond_shown":"Incongruent","ratio_trial":300,"L_num":1,"L_den":2,"R_num":3,"R_den":15,"correct_side":1,"subjID":"mariasalomesuarezvenegas10","gender":"1","school":"6","age":"11"},{"start_time":1551899822129,"click_time":1551899824249,"finger_time":1551899823608,"fix_duration":820.8241157207689,"trial":39,"RT":1479,"MT":641,"sideResp":1,"stimulus":[],"xmouse":[766,766,773,773,773,773,773,773,773,773,773,773,773,773,773,773,773,773,773,773,773,773,772,772,772,772,772,772,772,772,772,772,772,772,772,772,772,772,772,772,772,772,772,772,772,772,772,772,772,772,772,772,772,772,772,772,772,772,772,772,772,772,771,769,766,763,759,758,758,758,756,755,747,740,733,723,706,674,661,651,642,626,600,583,571,563,557,555,552,548,542,540,538,535,532,526,523,520,518,516,514,509,503,502,499,496],"ymouse":[548,548,554,554,554,554,554,554,554,554,554,555,555,555,555,555,555,555,555,555,555,555,555,555,555,555,555,555,555,555,555,555,555,555,555,555,555,555,555,555,555,555,555,555,555,555,555,555,555,555,555,555,555,555,555,555,555,555,555,555,555,555,555,556,556,558,558,558,558,558,558,558,555,550,538,514,476,420,404,396,388,375,337,301,274,253,239,233,227,220,210,203,187,177,167,156,150,146,140,138,132,121,111,107,100,93],"timestamp_mouse":[19,39,59,79,99,119,139,160,179,200,219,239,259,279,300,319,339,359,379,399,419,440,459,479,499,519,539,559,579,599,619,640,660,679,700,719,739,759,779,799,819,840,859,879,899,919,939,959,979,999,1019,1040,1059,1079,1099,1119,1139,1159,1179,1199,1219,1240,1259,1280,1299,1320,1339,1359,1379,1400,1419,1439,1459,1479,1500,1519,1539,1560,1579,1600,1620,1639,1659,1680,1699,1720,1739,1759,1780,1800,1819,1839,1860,1880,1899,1919,1940,1959,1980,1999,2019,2039,2060,2079,2100,2120],"xSR":741.5,"ySR":501.8,"xT1":424.9,"yT1":0,"xT2":1058.1,"yT2":0,"toosoon":0,"cond_shown":"Incongruent","ratio_trial":200,"L_num":7,"L_den":10,"R_num":12,"R_den":24,"correct_side":1,"subjID":"mariasalomesuarezvenegas10","gender":"1","school":"6","age":"11"},{"start_time":1551899825501,"click_time":1551899827370,"finger_time":1551899826588,"fix_duration":250,"trial":40,"RT":1087,"MT":782,"sideResp":2,"stimulus":[],"xmouse":[784,784,784,784,784,784,784,784,784,784,784,784,784,784,784,784,784,784,784,784,784,784,784,784,784,784,784,784,784,784,784,784,784,784,784,784,784,784,784,785,789,795,798,800,801,801,802,802,802,803,804,806,811,824,844,852,857,860,863,869,872,875,883,889,921,935,946,956,966,988,997,1003,1008,1010,1024,1030,1036,1040,1041,1044,1047,1051,1057,1058,1064,1065,1068,1073,1078,1088,1090,1092,1095,1098],"ymouse":[574,574,574,574,574,574,574,574,574,574,574,574,574,574,574,574,574,574,574,574,574,574,574,574,574,574,574,574,574,574,574,574,574,574,574,574,574,574,574,574,569,562,557,555,554,552,551,549,549,548,546,544,537,525,508,501,496,492,490,484,481,480,472,468,438,424,411,400,386,361,348,337,327,318,281,266,251,240,227,211,199,187,171,167,151,147,140,132,125,113,110,108,101,94],"timestamp_mouse":[9,39,48,67,87,108,127,147,167,187,207,227,247,267,287,307,327,347,368,387,407,428,447,467,487,507,527,547,567,587,607,627,647,667,687,707,728,748,766,787,807,827,848,867,887,907,927,947,968,987,1008,1027,1047,1068,1087,1108,1127,1148,1167,1187,1208,1227,1248,1267,1287,1307,1327,1347,1367,1387,1408,1427,1447,1467,1488,1507,1527,1548,1567,1587,1607,1628,1647,1668,1687,1707,1728,1748,1767,1787,1807,1827,1847,1868],"xSR":741.5,"ySR":501.8,"xT1":424.9,"yT1":0,"xT2":1058.1,"yT2":0,"toosoon":0,"cond_shown":"Congruent","ratio_trial":200,"L_num":1,"L_den":2,"R_num":21,"R_den":30,"correct_side":2,"subjID":"mariasalomesuarezvenegas10","gender":"1","school":"6","age":"11"},{"start_time":1551899829217,"click_time":1551899831228,"finger_time":1551899830588,"fix_duration":826.9951613776983,"trial":41,"RT":1371,"MT":640,"sideResp":1,"stimulus":[],"xmouse":[815,815,815,815,815,815,815,815,815,815,815,815,815,815,815,815,815,815,815,815,815,815,815,815,808,801,780,775,771,770,770,770,770,770,770,770,770,770,770,770,770,770,770,770,770,770,769,769,769,769,769,769,769,769,769,769,768,767,763,762,761,760,760,760,760,760,760,759,751,747,746,745,743,742,740,740,736,730,716,711,704,696,685,651,633,615,598,590,577,570,563,556,549,534,530,525,520,515,507,504,499],"ymouse":[542,542,542,542,542,542,542,542,542,542,542,542,542,542,542,542,542,542,542,542,542,542,542,542,542,542,542,542,541,541,541,541,541,541,541,541,541,541,541,541,541,541,541,541,541,541,541,541,541,541,541,541,541,541,541,541,540,538,521,516,514,513,513,513,513,513,512,507,481,468,463,458,455,452,450,449,444,436,419,414,404,387,369,322,301,285,265,257,240,232,224,214,204,182,175,166,154,144,121,110,96],"timestamp_mouse":[11,31,52,72,92,111,131,151,173,192,211,232,251,271,291,311,331,351,371,391,411,431,451,471,491,512,531,552,571,591,611,631,652,671,691,711,732,751,771,791,811,831,851,872,891,910,930,951,971,991,1012,1032,1051,1071,1092,1112,1131,1151,1171,1192,1212,1232,1251,1271,1291,1312,1331,1352,1371,1391,1412,1432,1452,1472,1492,1511,1531,1551,1572,1591,1611,1631,1651,1671,1692,1711,1731,1751,1772,1791,1811,1831,1851,1871,1891,1912,1931,1952,1971,1991,2011],"xSR":741.5,"ySR":501.8,"xT1":424.9,"yT1":0,"xT2":1058.1,"yT2":0,"toosoon":0,"cond_shown":"Congruent","ratio_trial":300,"L_num":11,"L_de