[{"start_time":1551800594442,"click_time":1551800596285,"finger_time":1551800595842,"fix_duration":374.17989750156323,"trial":0,"RT":1400,"MT":443,"sideResp":2,"stimulus":[],"xmouse":[775,775,775,775,775,775,775,775,775,775,775,775,775,775,775,775,775,775,775,775,775,775,775,775,775,775,775,775,775,775,775,775,775,775,775,775,775,775,775,775,775,775,775,775,775,775,775,775,775,775,775,775,775,775,775,775,775,775,775,775,775,775,775,775,775,775,775,775,773,770,753,737,719,693,684,679,679,679,679,679,679,679,681,693,700,709,719,734,778,818,880,982,1115],"ymouse":[497,497,497,497,497,497,497,497,497,497,497,497,497,497,497,497,497,497,497,497,497,497,497,497,497,497,497,497,497,497,497,497,497,497,497,497,497,497,497,497,497,497,497,497,497,497,497,497,497,497,497,497,497,497,497,497,497,497,497,497,497,497,497,497,497,497,497,497,480,469,405,351,303,246,233,226,225,225,225,225,225,225,227,238,245,253,255,255,236,208,169,119,83],"timestamp_mouse":[9,22,42,61,80,101,120,140,160,181,201,221,240,260,280,300,320,341,361,380,402,422,441,460,480,500,521,540,560,581,600,620,640,662,681,701,720,741,760,780,802,822,840,861,881,901,921,941,961,981,1000,1020,1041,1060,1080,1101,1120,1141,1160,1180,1200,1220,1240,1260,1282,1300,1321,1341,1361,1381,1400,1421,1440,1460,1480,1502,1520,1541,1561,1582,1600,1620,1640,1661,1680,1702,1720,1741,1761,1781,1800,1820,1842],"xSR":741.5,"ySR":458.25,"xT1":424.9,"yT1":0,"xT2":1058.1,"yT2":0,"toosoon":0,"cond_shown":"Congruent","ratio_trial":300,"L_num":3,"L_den":12,"R_num":11,"R_den":20,"correct_side":2,"subjID":"MaríaValentinaRincónParada6","gender":"1","age":"10","school":"6","test":{"fix_dur":[250,1500],"timestim":1000,"targets_dim":[100,100],"targets_relative_coord":[0.3,0.7],"size_stim":[880,420],"start_dim":[100,100],"size_start":[300,300],"size_fix":60,"samplingrate":20,"img_types":["Congruent","Incongruent"],"ratios":[100,200,300],"rep_conds":19,"nTrials":120,"trials_to_rest":500,"Trials_order":[94,84,68,92,1,115,20,28,60,27,54,77,71,63,46,12,26,16,9,85,15,70,59,107,10,91,2,90,81,6,98,24,82,105,36,102,111,57,110,45,100,43,75,21,30,47,67,74,39,7,61,118,35,104,8,5,18,33,73,106,44,52,66,0,95,19,22,55,64,69,4,31,101,40,108,56,117,3,11,23,29,72,79,53,97,93,83,58,80,113,48,87,34,109,37,103,116,13,119,78,49,99,86,42,14,38,25,51,88,50,89,112,41,114,65,17,96,32,62,76],"cond_shown":["Congruent","Congruent","Congruent","Congruent","Incongruent","Incongruent","Congruent","Congruent","Congruent","Incongruent","Congruent","Incongruent","Incongruent","Incongruent","Congruent","Congruent","Congruent","Congruent","Incongruent","Incongruent","Incongruent","Congruent","Incongruent","Incongruent","Congruent","Incongruent","Congruent","Congruent","Incongruent","Congruent","Congruent","Congruent","Congruent","Incongruent","Congruent","Congruent","Incongruent","Incongruent","Congruent","Incongruent","Congruent","Incongruent","Incongruent","Incongruent","Congruent","Incongruent","Incongruent","Congruent","Incongruent","Incongruent","Incongruent","Congruent","Incongruent","Congruent","Congruent","Incongruent","Congruent","Incongruent","Incongruent","Congruent","Congruent","Congruent","Congruent","Congruent","Incongruent","Incongruent","Congruent","Incongruent","Congruent","Incongruent","Congruent","Incongruent","Incongruent","Congruent","Congruent","Congruent","Incongruent","Incongruent","Incongruent","Incongruent","Incongruent","Congruent","Incongruent","Incongruent","Incongruent","Incongruent","Incongruent","Congruent","Congruent","Incongruent","Congruent","Incongruent","Congruent","Incongruent","Incongruent","Incongruent","Congruent","Incongruent","Incongruent","Congruent","Incongruent","Incongruent","Congruent","Congruent","Congruent","Congruent","Incongruent","Incongruent","Congruent","Congruent","Incongruent","Congruent","Incongruent","Congruent","Incongruent","Incongruent","Congruent","Congruent","Congruent","Congruent"],"ratio_trial":[300,100,200,200,100,100,200,300,100,200,100,300,300,200,300,100,200,300,200,100,200,300,300,300,300,100,200,100,200,100,200,100,300,200,100,100,200,200,200,200,300,100,200,200,100,300,100,200,200,100,100,300,300,200,200,300,100,200,100,300,200,300,100,100,300,100,300,100,300,200,300,100,300,300,100,200,200,200,300,300,300,100,100,300,100,200,300,300,200,300,100,200,300,100,100,100,200,100,300,100,100,200,200,100,200,200,100,200,300,200,300,300,300,100,300,300,100,200,200,300],"left_num":[3,2,3,20,17,9,6,3,9,7,8,7,4,7,20,1,3,1,4,2,1,11,1,8,11,6,8,9,4,7,6,3,3,7,9,9,6,3,8,4,4,4,1,14,4,1,9,7,14,11,1,20,4,3,3,8,6,4,10,24,13,24,7,2,4,9,5,11,20,7,1,9,4,2,4,5,14,3,13,13,8,15,4,13,9,3,8,4,8,1,11,7,4,9,3,3,6,9,13,11,9,1,8,11,3,9,9,3,1,11,8,7,1,1,4,4,8,1,9,8],"right_num":[11,11,14,9,10,14,3,4,8,6,2,8,2,8,8,3,14,19,6,8,2,4,2,14,2,7,3,8,1,15,7,4,11,12,8,8,3,11,2,6,1,8,2,6,6,2,13,18,12,9,8,9,2,11,14,9,5,6,9,8,14,8,15,6,2,20,6,9,9,6,19,6,2,10,15,14,6,11,12,12,9,13,8,12,6,1,9,13,3,3,4,6,13,14,11,4,3,6,12,6,6,2,2,4,9,13,6,11,8,3,9,20,3,3,2,2,2,21,4,1],"left_den":[12,5,6,25,30,15,15,6,15,15,16,10,20,10,25,2,10,3,5,4,3,22,2,10,22,10,15,15,30,14,12,20,12,10,15,15,20,4,15,5,10,8,3,30,8,2,15,15,30,22,2,25,20,10,10,10,20,5,25,30,26,30,14,5,20,10,25,22,25,15,3,18,20,20,10,10,30,4,26,26,10,25,8,26,18,10,10,20,15,2,22,15,20,15,5,6,15,18,26,22,18,3,15,22,12,30,18,4,30,22,10,14,2,2,20,20,16,2,20,16],"right_den":[20,22,20,15,15,28,15,5,16,9,5,20,4,16,16,5,28,30,10,20,15,20,10,28,10,14,9,16,3,25,10,16,20,24,16,16,6,20,6,10,10,20,15,9,10,10,26,27,18,15,20,18,4,22,28,18,25,10,18,16,20,16,25,12,4,25,12,15,18,9,30,10,4,25,30,20,9,20,15,15,18,26,20,15,10,2,18,26,9,15,10,9,26,28,22,10,15,10,15,15,10,15,6,10,20,26,10,20,24,10,18,25,15,5,4,4,5,30,16,5],"correct_side":[2,2,2,1,2,1,1,2,1,2,1,1,2,1,1,2,2,2,1,1,1,1,1,1,1,1,1,1,2,2,2,2,2,1,1,1,2,1,1,1,1,1,1,2,2,1,1,2,2,2,1,1,2,2,2,1,1,1,2,1,2,1,2,2,2,1,2,2,1,2,2,2,2,2,2,2,2,1,2,2,1,1,1,2,2,2,1,2,1,1,1,2,2,1,1,1,1,2,2,1,2,1,1,1,2,2,2,1,2,1,1,2,1,2,2,2,1,2,1,1],"img_shown":["img2/300/Congruent/R/C_Dist_300_LN_3_LD_12_RN_11_RD_20_1.png","img2/100/Congruent/R/C_Dist_100_LN_2_LD_5_RN_11_RD_22_1.png","img2/200/Congruent/R/C_Dist_200_LN_3_LD_6_RN_14_RD_20_1.png","img2/200/Congruent/L/C_Dist_200_LN_20_LD_25_RN_9_RD_15_0.png","img2/100/Incongruent/R/I_Dist_100_LN_17_LD_30_RN_10_RD_15_1.png","img2/100/Incongruent/L/I_Dist_100_LN_9_LD_15_RN_14_RD_28_0.png","img2/200/Congruent/L/C_Dist_200_LN_6_LD_15_RN_3_RD_15_0.png","img2/300/Congruent/R/C_Dist_300_LN_3_LD_6_RN_4_RD_5_1.png","img2/100/Congruent/L/C_Dist_100_LN_9_LD_15_RN_8_RD_16_0.png","img2/200/Incongruent/R/I_Dist_200_LN_7_LD_15_RN_6_RD_9_1.png","img2/100/Congruent/L/C_Dist_100_LN_8_LD_16_RN_2_RD_5_0.png","img2/300/Incongruent/L/I_Dist_300_LN_7_LD_10_RN_8_RD_20_0.png","img2/300/Incongruent/R/I_Dist_300_LN_4_LD_20_RN_2_RD_4_1.png","img2/200/Incongruent/L/I_Dist_200_LN_7_LD_10_RN_8_RD_16_0.png","img2/300/Congruent/L/C_Dist_300_LN_20_LD_25_RN_8_RD_16_0.png","img2/100/Congruent/R/C_Dist_100_LN_1_LD_2_RN_3_RD_5_1.png","img2/200/Congruent/R/C_Dist_200_LN_3_LD_10_RN_14_RD_28_1.png","img2/300/Congruent/R/C_Dist_300_LN_1_LD_3_RN_19_RD_30_1.png","img2/200/Incongruent/L/I_Dist_200_LN_4_LD_5_RN_6_RD_10_0.png","img2/100/Incongruent/L/I_Dist_100_LN_2_LD_4_RN_8_RD_20_0.png","img2/200/Incongruent/L/I_Dist_200_LN_1_LD_3_RN_2_RD_15_0.png","img2/300/Congruent/L/C_Dist_300_LN_11_LD_22_RN_4_RD_20_0.png","img2/300/Incongruent/L/I_Dist_300_LN_1_LD_2_RN_2_RD_10_0.png","img2/300/Incongruent/L/I_Dist_300_LN_8_LD_10_RN_14_RD_28_0.png","img2/300/Congruent/L/C_Dist_300_LN_11_LD_22_RN_2_RD_10_0.png","img2/100/Incongruent/L/I_Dist_100_LN_6_LD_10_RN_7_RD_14_0.png","img2/200/Congruent/L/C_Dist_200_LN_8_LD_15_RN_3_RD_9_0.png","img2/100/Congruent/L/C_Dist_100_LN_9_LD_15_RN_8_RD_16_0.png","img2/200/Incongruent/R/I_Dist_200_LN_4_LD_30_RN_1_RD_3_1.png","img2/100/Congruent/R/C_Dist_100_LN_7_LD_14_RN_15_RD_25_1.png","img2/200/Congruent/R/C_Dist_200_LN_6_LD_12_RN_7_RD_10_1.png","img2/100/Congruent/R/C_Dist_100_LN_3_LD_20_RN_4_RD_16_1.png","img2/300/Congruent/R/C_Dist_300_LN_3_LD_12_RN_11_RD_20_1.png","img2/200/Incongruent/L/I_Dist_200_LN_7_LD_10_RN_12_RD_24_0.png","img2/100/Congruent/L/C_Dist_100_LN_9_LD_15_RN_8_RD_16_0.png","img2/100/Congruent/L/C_Dist_100_LN_9_LD_15_RN_8_RD_16_0.png","img2/200/Incongruent/R/I_Dist_200_LN_6_LD_20_RN_3_RD_6_1.png","img2/200/Incongruent/L/I_Dist_200_LN_3_LD_4_RN_11_RD_20_0.png","img2/200/Congruent/L/C_Dist_200_LN_8_LD_15_RN_2_RD_6_0.png","img2/200/Incongruent/L/I_Dist_200_LN_4_LD_5_RN_6_RD_10_0.png","img2/300/Congruent/L/C_Dist_300_LN_4_LD_10_RN_1_RD_10_0.png","img2/100/Incongruent/L/I_Dist_100_LN_4_LD_8_RN_8_RD_20_0.png","img2/200/Incongruent/L/I_Dist_200_LN_1_LD_3_RN_2_RD_15_0.png","img2/200/Incongruent/R/I_Dist_200_LN_14_LD_30_RN_6_RD_9_1.png","img2/100/Congruent/R/C_Dist_100_LN_4_LD_8_RN_6_RD_10_1.png","img2/300/Incongruent/L/I_Dist_300_LN_1_LD_2_RN_2_RD_10_0.png","img2/100/Incongruent/L/I_Dist_100_LN_9_LD_15_RN_13_RD_26_0.png","img2/200/Congruent/R/C_Dist_200_LN_7_LD_15_RN_18_RD_27_1.png","img2/200/Incongruent/R/I_Dist_200_LN_14_LD_30_RN_12_RD_18_1.png","img2/100/Incongruent/R/I_Dist_100_LN_11_LD_22_RN_9_RD_15_1.png","img2/100/Incongruent/L/I_Dist_100_LN_1_LD_2_RN_8_RD_20_0.png","img2/300/Congruent/L/C_Dist_300_LN_20_LD_25_RN_9_RD_18_0.png","img2/300/Incongruent/R/I_Dist_300_LN_4_LD_20_RN_2_RD_4_1.png","img2/200/Congruent/R/C_Dist_200_LN_3_LD_10_RN_11_RD_22_1.png","img2/200/Congruent/R/C_Dist_200_LN_3_LD_10_RN_14_RD_28_1.png","img2/300/Incongruent/L/I_Dist_300_LN_8_LD_10_RN_9_RD_18_0.png","img2/100/Congruent/L/C_Dist_100_LN_6_LD_20_RN_5_RD_25_0.png","img2/200/Incongruent/L/I_Dist_200_LN_4_LD_5_RN_6_RD_10_0.png","img2/100/Incongruent/R/I_Dist_100_LN_10_LD_25_RN_9_RD_18_1.png","img2/300/Congruent/L/C_Dist_300_LN_24_LD_30_RN_8_RD_16_0.png","img2/200/Congruent/R/C_Dist_200_LN_13_LD_26_RN_14_RD_20_1.png","img2/300/Congruent/L/C_Dist_300_LN_24_LD_30_RN_8_RD_16_0.png","img2/100/Congruent/R/C_Dist_100_LN_7_LD_14_RN_15_RD_25_1.png","img2/100/Congruent/R/C_Dist_100_LN_2_LD_5_RN_6_RD_12_1.png","img2/300/Incongruent/R/I_Dist_300_LN_4_LD_20_RN_2_RD_4_1.png","img2/100/Incongruent/L/I_Dist_100_LN_9_LD_10_RN_20_RD_25_0.png","img2/300/Congruent/R/C_Dist_300_LN_5_LD_25_RN_6_RD_12_1.png","img2/100/Incongruent/R/I_Dist_100_LN_11_LD_22_RN_9_RD_15_1.png","img2/300/Congruent/L/C_Dist_300_LN_20_LD_25_RN_9_RD_18_0.png","img2/200/Incongruent/R/I_Dist_200_LN_7_LD_15_RN_6_RD_9_1.png","img2/300/Congruent/R/C_Dist_300_LN_1_LD_3_RN_19_RD_30_1.png","img2/100/Incongruent/R/I_Dist_100_LN_9_LD_18_RN_6_RD_10_1.png","img2/300/Incongruent/R/I_Dist_300_LN_4_LD_20_RN_2_RD_4_1.png","img2/300/Congruent/R/C_Dist_300_LN_2_LD_20_RN_10_RD_25_1.png","img2/100/Congruent/R/C_Dist_100_LN_4_LD_10_RN_15_RD_30_1.png","img2/200/Congruent/R/C_Dist_200_LN_5_LD_10_RN_14_RD_20_1.png","img2/200/Incongruent/R/I_Dist_200_LN_14_LD_30_RN_6_RD_9_1.png","img2/200/Incongruent/L/I_Dist_200_LN_3_LD_4_RN_11_RD_20_0.png","img2/300/Incongruent/R/I_Dist_300_LN_13_LD_26_RN_12_RD_15_1.png","img2/300/Incongruent/R/I_Dist_300_LN_13_LD_26_RN_12_RD_15_1.png","img2/300/Incongruent/L/I_Dist_300_LN_8_LD_10_RN_9_RD_18_0.png","img2/100/Congruent/L/C_Dist_100_LN_15_LD_25_RN_13_RD_26_0.png","img2/100/Incongruent/L/I_Dist_100_LN_4_LD_8_RN_8_RD_20_0.png","img2/300/Incongruent/R/I_Dist_300_LN_13_LD_26_RN_12_RD_15_1.png","img2/100/Incongruent/R/I_Dist_100_LN_9_LD_18_RN_6_RD_10_1.png","img2/200/Incongruent/R/I_Dist_200_LN_3_LD_10_RN_1_RD_2_1.png","img2/300/Incongruent/L/I_Dist_300_LN_8_LD_10_RN_9_RD_18_0.png","img2/300/Congruent/R/C_Dist_300_LN_4_LD_20_RN_13_RD_26_1.png","img2/200/Congruent/L/C_Dist_200_LN_8_LD_15_RN_3_RD_9_0.png","img2/300/Incongruent/L/I_Dist_300_LN_1_LD_2_RN_3_RD_15_0.png","img2/100/Congruent/L/C_Dist_100_LN_11_LD_22_RN_4_RD_10_0.png","img2/200/Incongruent/R/I_Dist_200_LN_7_LD_15_RN_6_RD_9_1.png","img2/300/Congruent/R/C_Dist_300_LN_4_LD_20_RN_13_RD_26_1.png","img2/100/Incongruent/L/I_Dist_100_LN_9_LD_15_RN_14_RD_28_0.png","img2/100/Incongruent/L/I_Dist_100_LN_3_LD_5_RN_11_RD_22_0.png","img2/100/Incongruent/L/I_Dist_100_LN_3_LD_6_RN_4_RD_10_0.png","img2/200/Congruent/L/C_Dist_200_LN_6_LD_15_RN_3_RD_15_0.png","img2/100/Incongruent/R/I_Dist_100_LN_9_LD_18_RN_6_RD_10_1.png","img2/300/Incongruent/R/I_Dist_300_LN_13_LD_26_RN_12_RD_15_1.png","img2/100/Congruent/L/C_Dist_100_LN_11_LD_22_RN_6_RD_15_0.png","img2/100/Incongruent/R/I_Dist_100_LN_9_LD_18_RN_6_RD_10_1.png","img2/200/Incongruent/L/I_Dist_200_LN_1_LD_3_RN_2_RD_15_0.png","img2/200/Congruent/L/C_Dist_200_LN_8_LD_15_RN_2_RD_6_0.png","img2/100/Congruent/L/C_Dist_100_LN_11_LD_22_RN_4_RD_10_0.png","img2/200/Congruent/R/C_Dist_200_LN_3_LD_12_RN_9_RD_20_1.png","img2/200/Congruent/R/C_Dist_200_LN_9_LD_30_RN_13_RD_26_1.png","img2/100/Incongruent/R/I_Dist_100_LN_9_LD_18_RN_6_RD_10_1.png","img2/200/Incongruent/L/I_Dist_200_LN_3_LD_4_RN_11_RD_20_0.png","img2/300/Congruent/R/C_Dist_300_LN_1_LD_30_RN_8_RD_24_1.png","img2/200/Congruent/L/C_Dist_200_LN_11_LD_22_RN_3_RD_10_0.png","img2/300/Incongruent/L/I_Dist_300_LN_8_LD_10_RN_9_RD_18_0.png","img2/300/Congruent/R/C_Dist_300_LN_7_LD_14_RN_20_RD_25_1.png","img2/300/Incongruent/L/I_Dist_300_LN_1_LD_2_RN_3_RD_15_0.png","img2/100/Congruent/R/C_Dist_100_LN_1_LD_2_RN_3_RD_5_1.png","img2/300/Incongruent/R/I_Dist_300_LN_4_LD_20_RN_2_RD_4_1.png","img2/300/Incongruent/R/I_Dist_300_LN_4_LD_20_RN_2_RD_4_1.png","img2/100/Congruent/L/C_Dist_100_LN_8_LD_16_RN_2_RD_5_0.png","img2/200/Congruent/R/C_Dist_200_LN_1_LD_2_RN_21_RD_30_1.png","img2/200/Congruent/L/C_Dist_200_LN_9_LD_20_RN_4_RD_16_0.png","img2/300/Congruent/L/C_Dist_300_LN_8_LD_16_RN_1_RD_5_0.png"],"dist100_C":[["C_Dist_100_LN_10_LD_25_RN_3_RD_10_0.png","C_Dist_100_LN_11_LD_22_RN_4_RD_10_0.png","C_Dist_100_LN_11_LD_22_RN_6_RD_15_0.png","C_Dist_100_LN_15_LD_25_RN_13_RD_26_0.png","C_Dist_100_LN_3_LD_6_RN_2_RD_5_0.png","C_Dist_100_LN_6_LD_20_RN_5_RD_25_0.png","C_Dist_100_LN_8_LD_16_RN_2_RD_5_0.png","C_Dist_100_LN_9_LD_15_RN_8_RD_16_0.png"],["C_Dist_100_LN_1_LD_2_RN_18_RD_30_1.png","C_Dist_100_LN_1_LD_2_RN_3_RD_5_1.png","C_Dist_100_LN_12_LD_30_RN_13_RD_26_1.png","C_Dist_100_LN_2_LD_5_RN_11_RD_22_1.png","C_Dist_100_LN_2_LD_5_RN_6_RD_12_1.png","C_Dist_100_LN_3_LD_20_RN_4_RD_16_1.png","C_Dist_100_LN_4_LD_10_RN_15_RD_30_1.png","C_Dist_100_LN_4_LD_8_RN_6_RD_10_1.png","C_Dist_100_LN_6_LD_12_RN_15_RD_25_1.png","C_Dist_100_LN_7_LD_14_RN_15_RD_25_1.png","C_Dist_100_LN_7_LD_14_RN_9_RD_15_1.png"]],"dist100_I":[["I_Dist_100_LN_1_LD_2_RN_8_RD_20_0.png","I_Dist_100_LN_2_LD_4_RN_6_RD_15_0.png","I_Dist_100_LN_2_LD_4_RN_8_RD_20_0.png","I_Dist_100_LN_3_LD_5_RN_11_RD_22_0.png","I_Dist_100_LN_3_LD_5_RN_8_RD_16_0.png","I_Dist_100_LN_3_LD_6_RN_4_RD_10_0.png","I_Dist_100_LN_3_LD_9_RN_7_RD_30_0.png","I_Dist_100_LN_4_LD_8_RN_8_RD_20_0.png","I_Dist_100_LN_6_LD_10_RN_11_RD_22_0.png","I_Dist_100_LN_6_LD_10_RN_13_RD_26_0.png","I_Dist_100_LN_6_LD_10_RN_7_RD_14_0.png","I_Dist_100_LN_9_LD_10_RN_20_RD_25_0.png","I_Dist_100_LN_9_LD_15_RN_13_RD_26_0.png","I_Dist_100_LN_9_LD_15_RN_14_RD_28_0.png"],["I_Dist_100_LN_10_LD_25_RN_8_RD_16_1.png","I_Dist_100_LN_10_LD_25_RN_9_RD_18_1.png","I_Dist_100_LN_11_LD_22_RN_9_RD_15_1.png","I_Dist_100_LN_12_LD_24_RN_9_RD_15_1.png","I_Dist_100_LN_12_LD_30_RN_2_RD_4_1.png","I_Dist_100_LN_13_LD_26_RN_12_RD_20_1.png","I_Dist_100_LN_13_LD_26_RN_6_RD_10_1.png","I_Dist_100_LN_17_LD_30_RN_10_RD_15_1.png","I_Dist_100_LN_6_LD_12_RN_3_RD_5_1.png","I_Dist_100_LN_8_LD_16_RN_6_RD_10_1.png","I_Dist_100_LN_8_LD_20_RN_1_RD_2_1.png","I_Dist_100_LN_9_LD_18_RN_6_RD_10_1.png"]],"dist100_S":[["E_Dist_100_LN_2_LD_12_RN_2_RD_30_0.png","E_Dist_100_LN_6_LD_10_RN_6_RD_12_0.png"],["E_Dist_100_LN_6_LD_12_RN_6_RD_10_1.png"]],"dist200_C":[["C_Dist_200_LN_11_LD_22_RN_3_RD_10_0.png","C_Dist_200_LN_12_LD_15_RN_6_RD_10_0.png","C_Dist_200_LN_12_LD_20_RN_6_RD_15_0.png","C_Dist_200_LN_14_LD_28_RN_6_RD_20_0.png","C_Dist_200_LN_15_LD_25_RN_4_RD_10_0.png","C_Dist_200_LN_16_LD_20_RN_12_RD_20_0.png","C_Dist_200_LN_16_LD_30_RN_9_RD_27_0.png","C_Dist_200_LN_20_LD_25_RN_9_RD_15_0.png","C_Dist_200_LN_21_LD_30_RN_2_RD_4_0.png","C_Dist_200_LN_4_LD_10_RN_3_RD_15_0.png","C_Dist_200_LN_4_LD_8_RN_3_RD_10_0.png","C_Dist_200_LN_6_LD_15_RN_3_RD_15_0.png","C_Dist_200_LN_7_LD_21_RN_2_RD_15_0.png","C_Dist_200_LN_8_LD_15_RN_2_RD_6_0.png","C_Dist_200_LN_8_LD_15_RN_3_RD_9_0.png","C_Dist_200_LN_8_LD_15_RN_7_RD_21_0.png","C_Dist_200_LN_9_LD_20_RN_4_RD_16_0.png"],["C_Dist_200_LN_1_LD_2_RN_21_RD_30_1.png","C_Dist_200_LN_13_LD_26_RN_14_RD_20_1.png","C_Dist_200_LN_3_LD_10_RN_11_RD_22_1.png","C_Dist_200_LN_3_LD_10_RN_14_RD_28_1.png","C_Dist_200_LN_3_LD_10_RN_7_RD_14_1.png","C_Dist_200_LN_3_LD_12_RN_9_RD_20_1.png","C_Dist_200_LN_3_LD_6_RN_14_RD_20_1.png","C_Dist_200_LN_5_LD_10_RN_14_RD_20_1.png","C_Dist_200_LN_6_LD_12_RN_7_RD_10_1.png","C_Dist_200_LN_6_LD_20_RN_11_RD_22_1.png","C_Dist_200_LN_7_LD_15_RN_18_RD_27_1.png","C_Dist_200_LN_9_LD_30_RN_13_RD_26_1.png"]],"dist200_I":[["I_Dist_200_LN_1_LD_2_RN_3_RD_10_0.png","I_Dist_200_LN_1_LD_3_RN_2_RD_15_0.png","I_Dist_200_LN_3_LD_4_RN_11_RD_20_0.png","I_Dist_200_LN_4_LD_5_RN_6_RD_10_0.png","I_Dist_200_LN_4_LD_6_RN_14_RD_30_0.png","I_Dist_200_LN_7_LD_10_RN_12_RD_24_0.png","I_Dist_200_LN_7_LD_10_RN_14_RD_28_0.png","I_Dist_200_LN_7_LD_10_RN_8_RD_16_0.png"],["I_Dist_200_LN_11_LD_20_RN_3_RD_4_1.png","I_Dist_200_LN_14_LD_30_RN_12_RD_18_1.png","I_Dist_200_LN_14_LD_30_RN_6_RD_9_1.png","I_Dist_200_LN_3_LD_10_RN_1_RD_2_1.png","I_Dist_200_LN_4_LD_30_RN_1_RD_3_1.png","I_Dist_200_LN_6_LD_20_RN_3_RD_6_1.png","I_Dist_200_LN_7_LD_15_RN_4_RD_6_1.png","I_Dist_200_LN_7_LD_15_RN_6_RD_9_1.png","I_Dist_200_LN_9_LD_15_RN_8_RD_10_1.png"]],"dist200_S":[["E_Dist_200_LN_3_LD_6_RN_3_RD_10_0.png"],["E_Dist_200_LN_3_LD_10_RN_3_RD_6_1.png"]],"dist300_C":[["C_Dist_300_LN_11_LD_22_RN_1_RD_5_0.png","C_Dist_300_LN_11_LD_22_RN_2_RD_10_0.png","C_Dist_300_LN_11_LD_22_RN_4_RD_20_0.png","C_Dist_300_LN_12_LD_24_RN_2_RD_10_0.png","C_Dist_300_LN_18_LD_20_RN_9_RD_15_0.png","C_Dist_300_LN_20_LD_25_RN_13_RD_26_0.png","C_Dist_300_LN_20_LD_25_RN_14_RD_28_0.png","C_Dist_300_LN_20_LD_25_RN_5_RD_10_0.png","C_Dist_300_LN_20_LD_25_RN_8_RD_16_0.png","C_Dist_300_LN_20_LD_25_RN_9_RD_18_0.png","C_Dist_300_LN_24_LD_30_RN_2_RD_4_0.png","C_Dist_300_LN_24_LD_30_RN_8_RD_16_0.png","C_Dist_300_LN_3_LD_6_RN_2_RD_10_0.png","C_Dist_300_LN_4_LD_10_RN_1_RD_10_0.png","C_Dist_300_LN_4_LD_5_RN_2_RD_4_0.png","C_Dist_300_LN_8_LD_16_RN_1_RD_5_0.png","C_Dist_300_LN_9_LD_10_RN_3_RD_5_0.png"],["C_Dist_300_LN_1_LD_20_RN_7_RD_20_1.png","C_Dist_300_LN_1_LD_3_RN_19_RD_30_1.png","C_Dist_300_LN_1_LD_30_RN_8_RD_24_1.png","C_Dist_300_LN_1_LD_5_RN_11_RD_22_1.png","C_Dist_300_LN_1_LD_5_RN_3_RD_6_1.png","C_Dist_300_LN_1_LD_5_RN_6_RD_12_1.png","C_Dist_300_LN_2_LD_10_RN_12_RD_24_1.png","C_Dist_300_LN_2_LD_20_RN_10_RD_25_1.png","C_Dist_300_LN_3_LD_12_RN_11_RD_20_1.png","C_Dist_300_LN_3_LD_6_RN_4_RD_5_1.png","C_Dist_300_LN_4_LD_20_RN_13_RD_26_1.png","C_Dist_300_LN_5_LD_25_RN_6_RD_12_1.png","C_Dist_300_LN_5_LD_25_RN_7_RD_14_1.png","C_Dist_300_LN_7_LD_14_RN_20_RD_25_1.png","C_Dist_300_LN_8_LD_15_RN_10_RD_12_1.png"]],"dist300_I":[["I_Dist_300_LN_1_LD_2_RN_2_RD_10_0.png","I_Dist_300_LN_1_LD_2_RN_3_RD_15_0.png","I_Dist_300_LN_2_LD_4_RN_6_RD_30_0.png","I_Dist_300_LN_3_LD_6_RN_4_RD_20_0.png","I_Dist_300_LN_4_LD_5_RN_6_RD_12_0.png","I_Dist_300_LN_4_LD_5_RN_8_RD_16_0.png","I_Dist_300_LN_7_LD_10_RN_8_RD_20_0.png","I_Dist_300_LN_8_LD_10_RN_14_RD_28_0.png","I_Dist_300_LN_8_LD_10_RN_9_RD_18_0.png"],["I_Dist_300_LN_13_LD_26_RN_12_RD_15_1.png","I_Dist_300_LN_4_LD_20_RN_2_RD_4_1.png"]],"dist300_S":[["E_Dist_300_LN_9_LD_12_RN_9_RD_20_0.png"],["E_Dist_300_LN_18_LD_30_RN_18_RD_20_1.png","E_Dist_300_LN_3_LD_10_RN_3_RD_5_1.png","E_Dist_300_LN_9_LD_20_RN_9_RD_12_1.png"]],"dist500_C":[["C_Dist_500_LN_10_LD_13_RN_7_RD_26_0.png","C_Dist_500_LN_10_LD_15_RN_4_RD_24_0.png","C_Dist_500_LN_12_LD_16_RN_3_RD_12_0.png","C_Dist_500_LN_12_LD_18_RN_4_RD_24_0.png","C_Dist_500_LN_15_LD_18_RN_5_RD_15_0.png","C_Dist_500_LN_15_LD_20_RN_1_RD_4_0.png","C_Dist_500_LN_18_LD_27_RN_1_RD_6_0.png","C_Dist_500_LN_20_LD_24_RN_1_RD_3_0.png","C_Dist_500_LN_20_LD_24_RN_3_RD_9_0.png","C_Dist_500_LN_20_LD_24_RN_7_RD_21_0.png","C_Dist_500_LN_20_LD_28_RN_3_RD_14_0.png","C_Dist_500_LN_21_LD_28_RN_6_RD_24_0.png","C_Dist_500_LN_22_LD_28_RN_2_RD_7_0.png","C_Dist_500_LN_25_LD_30_RN_9_RD_27_0.png","C_Dist_500_LN_4_LD_6_RN_1_RD_6_0.png","C_Dist_500_LN_5_LD_6_RN_2_RD_6_0.png","C_Dist_500_LN_6_LD_9_RN_1_RD_6_0.png","C_Dist_500_LN_7_LD_10_RN_1_RD_5_0.png","C_Dist_500_LN_8_LD_12_RN_1_RD_6_0.png","C_Dist_500_LN_8_LD_12_RN_4_RD_24_0.png"],["C_Dist_500_LN_1_LD_4_RN_12_RD_16_1.png","C_Dist_500_LN_1_LD_4_RN_9_RD_12_1.png","C_Dist_500_LN_1_LD_9_RN_11_RD_18_1.png","C_Dist_500_LN_10_LD_24_RN_22_RD_24_1.png","C_Dist_500_LN_2_LD_12_RN_10_RD_15_1.png","C_Dist_500_LN_2_LD_12_RN_12_RD_18_1.png","C_Dist_500_LN_2_LD_12_RN_4_RD_6_1.png","C_Dist_500_LN_2_LD_24_RN_7_RD_12_1.png","C_Dist_500_LN_2_LD_5_RN_18_RD_20_1.png","C_Dist_500_LN_2_LD_5_RN_9_RD_10_1.png","C_Dist_500_LN_2_LD_8_RN_12_RD_16_1.png","C_Dist_500_LN_2_LD_8_RN_21_RD_28_1.png","C_Dist_500_LN_3_LD_10_RN_4_RD_5_1.png","C_Dist_500_LN_3_LD_12_RN_15_RD_20_1.png","C_Dist_500_LN_3_LD_30_RN_6_RD_10_1.png","C_Dist_500_LN_3_LD_8_RN_14_RD_16_1.png","C_Dist_500_LN_4_LD_16_RN_15_RD_20_1.png","C_Dist_500_LN_4_LD_24_RN_12_RD_18_1.png","C_Dist_500_LN_5_LD_14_RN_6_RD_7_1.png","C_Dist_500_LN_7_LD_21_RN_20_RD_24_1.png","C_Dist_500_LN_7_LD_28_RN_12_RD_16_1.png","C_Dist_500_LN_7_LD_28_RN_9_RD_12_1.png","C_Dist_500_LN_9_LD_27_RN_20_RD_24_1.png"]],"dist500_I":[["I_Dist_500_LN_2_LD_3_RN_4_RD_24_0.png","I_Dist_500_LN_5_LD_6_RN_6_RD_18_0.png","I_Dist_500_LN_7_LD_8_RN_9_RD_24_0.png"],["I_Dist_500_LN_7_LD_21_RN_5_RD_6_1.png"]],"dist500_S":[["E_Dist_500_LN_6_LD_8_RN_6_RD_24_0.png"],["E_Dist_500_LN_2_LD_12_RN_2_RD_3_1.png","E_Dist_500_LN_6_LD_24_RN_6_RD_8_1.png"]]}},{"start_time":1551800598258,"click_time":1551800601603,"finger_time":1551800599322,"fix_duration":473.93948428393054,"trial":1,"RT":1064,"MT":2281,"sideResp":2,"stimulus":[],"xmouse":[823,823,823,823,823,823,823,823,823,823,823,823,823,823,823,823,823,823,823,823,823,823,823,823,823,823,823,823,823,823,823,823,823,823,823,823,823,823,823,823,823,823,823,823,823,823,823,823,823,823,823,823,825,845,875,910,969,996,1017,1043,1050,1051,1052,1052,1051,1051,1049,1044,1042,1042,1041,1041,1041,1041,1041,1041,1041,1041,1041,1041,1041,1041,1041,1041,1041,1041,1041,1041,1041,1041,1041,1041,1041,1041,1041,1041,1041,1045,1046,1048,1048,1048,1048,1048,1048,1047,1046,1044,1044,1042,1041,1032,1007,989,969,942,911,828,789,741,711,678,630,618,612,609,607,606,606,606,606,605,605,605,605,606,628,642,660,695,726,765,855,891,914,924,925,925,927,943,955,971,972,972,972,972,972,972,973,976,983,998,1037,1044,1046,1051,1057,1062],"ymouse":[491,491,491,491,491,491,491,491,491,491,491,491,491,491,491,491,491,491,491,491,491,491,491,491,491,491,491,491,491,491,491,491,491,491,491,491,491,491,491,491,491,491,491,491,491,491,491,491,491,491,491,491,491,474,452,428,387,358,323,278,259,248,236,233,228,223,211,178,157,146,142,141,140,140,140,140,140,140,140,140,140,140,140,140,140,140,140,140,140,140,140,140,140,138,135,132,129,117,114,111,109,109,109,109,109,109,109,109,109,111,111,112,115,115,115,115,110,95,84,70,61,53,47,47,47,47,48,49,49,49,49,49,49,49,49,49,49,49,49,49,51,57,70,75,76,76,76,76,76,73,69,64,63,63,63,63,63,63,63,61,60,56,47,47,46,46,46,46],"timestamp_mouse":[9,25,45,65,85,105,125,144,164,184,205,226,244,265,284,305,324,345,364,384,405,426,445,465,484,505,525,546,564,584,604,624,645,665,686,704,726,745,765,785,804,826,845,865,884,904,926,946,964,984,1004,1024,1044,1064,1085,1104,1126,1145,1165,1185,1205,1224,1244,1264,1284,1304,1324,1344,1365,1385,1405,1425,1444,1465,1485,1505,1526,1544,1566,1584,1604,1626,1644,1665,1684,1705,1724,1745,1764,1784,1805,1826,1844,1864,1884,1904,1924,1944,1964,1984,2004,2024,2044,2064,2085,2105,2125,2144,2166,2185,2204,2224,2244,2264,2286,2304,2325,2344,2364,2385,2404,2424,2445,2465,2485,2505,2526,2544,2564,2585,2605,2625,2645,2666,2685,2704,2725,2744,2765,2785,2805,2824,2844,2865,2884,2904,2924,2944,2965,2984,3004,3025,3045,3066,3085,3105,3125,3144,3165,3184,3204,3224,3244,3264,3286,3305,3325,3344],"xSR":741.5,"ySR":458.25,"xT1":424.9,"yT1":0,"xT2":1058.1,"yT2":0,"toosoon":0,"cond_shown":"Congruent","ratio_trial":100,"L_num":2,"L_den":5,"R_num":11,"R_den":22,"correct_side":2,"subjID":"MaríaValentinaRincónParada6","gender":"1","school":"6","age":"10"},{"start_time":1551800603748,"click_time":1551800605704,"finger_time":1551800605362,"fix_duration":764.3551695879062,"trial":2,"RT":1614,"MT":342,"sideResp":2,"stimulus":[],"xmouse":[803,803,803,803,803,803,803,803,803,803,803,803,803,803,803,803,803,803,803,803,803,802,802,802,802,802,802,802,802,802,802,802,802,802,802,802,802,802,802,802,802,802,802,802,802,802,802,802,802,802,802,802,802,802,802,802,802,802,802,802,802,802,802,802,802,802,802,807,809,809,809,809,810,810,810,810,812,815,819,828,854,939,972,996,1019,1030,1033,1033,1033,1033,1034,1039,1050,1051,1055,1057,1057,1070],"ymouse":[504,504,504,504,504,504,504,504,504,504,504,504,504,504,504,504,504,504,504,503,503,502,502,502,502,502,502,502,502,502,502,502,502,502,502,502,502,502,502,502,502,502,502,502,502,502,502,502,502,502,502,502,502,502,502,502,502,502,502,502,502,502,502,502,500,498,496,491,490,489,489,489,489,489,489,489,487,482,475,463,425,307,263,230,175,139,116,96,92,87,81,78,71,70,69,68,68,62],"timestamp_mouse":[23,37,54,74,94,115,134,155,174,196,214,235,254,275,296,314,336,356,376,394,415,434,455,475,495,515,535,554,574,594,616,635,654,676,695,714,734,756,775,795,814,835,855,876,895,914,935,955,974,994,1014,1036,1054,1074,1095,1114,1135,1155,1174,1195,1214,1236,1254,1275,1295,1314,1334,1354,1374,1396,1414,1434,1455,1474,1496,1514,1534,1554,1574,1594,1614,1635,1655,1675,1694,1715,1734,1754,1775,1796,1814,1835,1854,1874,1894,1914,1934,1956],"xSR":741.5,"ySR":458.25,"xT1":424.9,"yT1":0,"xT2":1058.1,"yT2":0,"toosoon":0,"cond_shown":"Congruent","ratio_trial":200,"L_num":3,"L_den":6,"R_num":14,"R_den":20,"correct_side":2,"subjID":"MaríaValentinaRincónParada6","gender":"1","school":"6","age":"10"},{"start_time":1551800611169,"click_time":1551800612402,"finger_time":1551800611802,"fix_duration":764.2536143776216,"trial":3,"RT":633,"MT":600,"sideResp":1,"stimulus":[],"xmouse":[801,801,801,801,801,801,801,801,801,801,801,801,801,801,801,801,801,801,801,801,801,801,801,801,801,801,801,801,795,790,773,699,651,579,541,484,458,424,388,361,342,313,303,294,286,285,285,285,285,285,289,306,320,338,344,345,349,356,373,394,411,436],"ymouse":[496,496,496,496,496,496,496,496,496,496,496,496,496,496,496,496,496,496,496,496,496,496,496,496,496,496,496,496,490,485,467,405,367,315,289,249,229,206,178,153,131,81,62,45,28,25,23,23,21,21,21,22,26,32,36,36,38,41,45,51,58,68],"timestamp_mouse":[14,34,53,74,94,113,134,154,173,194,214,233,253,273,293,314,333,354,375,393,415,433,453,474,494,514,534,554,575,595,614,633,653,673,693,718,733,754,773,793,813,833,854,873,893,913,933,953,973,994,1013,1034,1053,1074,1093,1113,1133,1153,1174,1194,1213,1233],"xSR":741.5,"ySR":458.25,"xT1":424.9,"yT1":0,"xT2":1058.1,"yT2":0,"toosoon":0,"cond_shown":"Congruent","ratio_trial":200,"L_num":20,"L_den":25,"R_num":9,"R_den":15,"correct_side":1,"subjID":"MaríaValentinaRincónParada6","gender":"1","school":"6","age":"10"},{"start_time":1551800615819,"click_time":1551800618102,"finger_time":1551800617403,"fix_duration":574.1581240779731,"trial":4,"RT":1584,"MT":699,"sideResp":1,"stimulus":[],"xmouse":[798,798,798,798,798,798,798,798,798,798,798,798,798,798,798,798,798,798,798,798,798,798,798,798,798,798,798,798,798,798,798,798,798,798,798,798,798,798,798,798,798,798,798,798,798,798,798,798,798,798,798,798,798,798,798,798,798,798,798,798,798,798,798,798,798,798,798,798,798,798,798,798,798,798,798,798,798,798,797,785,764,756,730,698,685,673,667,662,658,657,656,653,648,641,624,614,606,598,583,568,548,520,504,495,493,493,493,492,491,491,491,491,491,491,492],"ymouse":[473,473,473,473,473,473,473,473,473,473,473,473,473,473,473,473,473,473,473,473,473,473,473,473,473,473,473,473,473,473,473,473,473,473,473,473,473,473,473,473,473,473,473,473,473,473,473,473,473,473,473,473,473,473,473,473,473,473,473,473,473,473,473,473,473,473,473,473,473,473,473,473,473,473,473,473,473,473,468,447,418,408,384,358,349,341,335,330,324,322,319,310,300,285,247,229,211,197,170,154,139,124,112,109,108,107,106,105,104,104,103,103,103,103,99],"timestamp_mouse":[8,34,45,63,84,103,124,144,163,184,204,224,244,264,284,303,324,344,364,383,404,424,444,465,484,503,524,544,564,585,604,624,645,665,685,703,724,743,765,784,803,825,843,863,883,905,925,944,963,983,1004,1023,1044,1065,1083,1103,1124,1143,1163,1185,1204,1224,1244,1263,1283,1303,1325,1344,1365,1384,1404,1423,1443,1463,1483,1503,1523,1544,1563,1584,1603,1625,1644,1665,1683,1704,1723,1743,1765,1783,1804,1823,1843,1863,1883,1903,1924,1943,1964,1983,2003,2023,2043,2064,2083,2103,2124,2143,2164,2183,2204,2225,2243,2263,2283],"xSR":741.5,"ySR":458.25,"xT1":424.9,"yT1":0,"xT2":1058.1,"yT2":0,"toosoon":0,"cond_shown":"Incongruent","ratio_trial":100,"L_num":17,"L_den":30,"R_num":10,"R_den":15,"correct_side":2,"subjID":"MaríaValentinaRincónParada6","gender":"1","school":"6","age":"10"},{"start_time":1551800621155,"click_time":1551800623103,"finger_time":1551800622562,"fix_duration":911.2070072772077,"trial":5,"RT":1407,"MT":541,"sideResp":1,"stimulus":[],"xmouse":[797,797,797,797,797,797,797,797,797,797,797,797,797,797,797,797,797,797,797,797,797,797,797,797,797,797,797,797,797,797,797,797,797,797,797,797,797,797,797,797,797,797,797,797,797,797,797,797,797,797,797,797,797,797,797,797,797,797,797,797,797,797,797,797,797,797,797,797,806,831,861,882,894,895,901,904,909,910,911,911,912,912,912,908,898,878,840,807,766,726,694,629,602,583,557,548,539,519],"ymouse":[533,533,533,533,533,533,533,533,533,533,533,533,533,533,533,533,533,533,533,533,533,533,533,533,533,533,533,533,533,533,533,533,533,533,533,533,533,533,533,533,533,533,533,533,533,533,533,533,533,533,533,533,533,533,533,533,533,533,533,533,533,533,533,533,533,533,533,533,526,522,518,514,509,507,500,497,487,484,481,478,473,469,455,444,430,405,373,349,315,281,246,159,123,95,61,48,37,12],"timestamp_mouse":[9,32,47,67,88,108,129,148,167,189,208,228,248,267,288,309,329,347,368,389,409,428,447,468,488,508,527,547,567,587,608,629,648,669,688,708,728,748,768,788,808,827,849,868,889,908,928,947,968,988,1007,1028,1048,1068,1088,1108,1128,1149,1168,1187,1208,1227,1248,1269,1288,1309,1327,1349,1367,1388,1407,1428,1448,1468,1487,1508,1528,1547,1569,1588,1609,1628,1647,1667,1687,1707,1728,1748,1768,1787,1808,1828,1847,1868,1887,1907,1927,1948],"xSR":741.5,"ySR":458.25,"xT1":424.9,"yT1":0,"xT2":1058.1,"yT2":0,"toosoon":0,"cond_shown":"Incongruent","ratio_trial":100,"L_num":9,"L_den":15,"R_num":14,"R_den":28,"correct_side":1,"subjID":"MaríaValentinaRincónParada6","gender":"1","school":"6","age":"10"},{"start_time":1551800624114,"click_time":1551800626383,"finger_time":1551800625702,"fix_duration":250,"trial":6,"RT":1588,"MT":681,"sideResp":1,"stimulus":[],"xmouse":[757,757,757,757,757,757,757,757,757,757,757,757,757,757,757,757,757,757,757,757,757,757,757,757,757,757,757,757,757,757,757,757,757,757,757,757,757,757,757,757,757,757,757,757,757,757,757,757,757,757,757,757,757,757,757,757,757,757,757,757,757,757,757,757,757,757,757,757,757,757,757,757,757,757,760,768,775,790,798,815,819,820,821,823,823,822,809,796,781,767,761,754,745,734,711,703,694,679,651,635,621,606,591,578,563,555,551,547,546,537,524,507,489,476],"ymouse":[513,513,513,513,513,513,513,513,513,513,513,513,513,513,513,513,513,513,513,513,513,513,513,513,513,513,513,513,513,513,513,513,513,513,513,513,513,513,513,513,513,513,513,513,513,513,513,513,513,513,513,513,513,513,513,513,513,513,513,513,513,513,513,513,513,513,513,513,513,513,513,513,513,513,510,503,496,482,473,457,454,453,452,451,450,447,441,436,428,415,408,399,386,372,340,327,316,300,278,265,251,235,219,204,186,176,171,165,160,148,136,127,110,90],"timestamp_mouse":[8,36,50,68,90,108,128,150,169,188,210,228,249,270,288,308,330,348,369,390,409,430,448,470,489,508,528,548,570,589,608,629,648,668,688,709,728,749,769,789,809,829,848,868,888,909,929,950,968,989,1008,1030,1049,1070,1088,1110,1128,1150,1169,1188,1210,1229,1249,1270,1289,1308,1330,1348,1368,1388,1408,1429,1449,1469,1488,1509,1530,1550,1568,1588,1609,1628,1650,1670,1688,1709,1730,1748,1768,1789,1810,1828,1850,1869,1889,1909,1930,1948,1970,1989,2009,2028,2048,2068,2088,2109,2128,2149,2168,2188,2209,2229,2248,2269],"xSR":741.5,"ySR":458.25,"xT1":424.9,"yT1":0,"xT2":1058.1,"yT2":0,"toosoon":0,"cond_shown":"Congruent","ratio_trial":200,"L_num":6,"L_den":15,"R_num":3,"R_den":15,"correct_side":1,"subjID":"MaríaValentinaRincónParada6","gender":"1","school":"6","age":"10"},{"start_time":1551800628061,"click_time":1551800629783,"finger_time":1551800629402,"fix_duration":617.2839379120823,"trial":7,"RT":1341,"MT":381,"sideResp":2,"stimulus":[],"xmouse":[824,824,824,824,824,824,824,824,824,824,824,824,824,824,824,824,824,824,824,824,824,824,824,824,824,824,824,824,824,824,824,824,824,824,824,824,824,824,824,824,824,824,824,824,824,824,824,824,824,824,824,824,824,824,824,824,824,824,824,824,824,824,824,824,824,824,824,862,919,989,1010,1028,1038,1037,1034,1033,1032,1032,1032,1029,1029,1040,1055,1068,1081,1093,1108],"ymouse":[525,525,525,525,525,525,525,525,525,525,525,525,525,525,525,525,525,525,525,525,525,525,525,525,525,525,525,525,525,525,525,525,525,525,525,525,525,525,525,525,525,525,525,525,525,525,525,525,525,525,525,525,525,525,525,525,525,525,525,525,525,525,525,525,525,525,523,505,487,455,439,421,386,367,354,343,316,301,284,253,229,184,156,134,116,100,73],"timestamp_mouse":[8,36,42,62,82,102,121,141,162,181,202,221,243,263,281,302,323,342,362,382,401,422,441,461,482,501,522,541,562,582,602,621,642,662,681,701,721,741,762,781,802,822,843,861,883,901,921,941,961,982,1001,1022,1043,1061,1081,1102,1122,1143,1162,1181,1202,1222,1241,1261,1282,1301,1322,1341,1361,1381,1403,1421,1442,1462,1481,1501,1522,1542,1562,1581,1602,1622,1641,1662,1683,1701,1722],"xSR":741.5,"ySR":458.25,"xT1":424.9,"yT1":0,"xT2":1058.1,"yT2":0,"toosoon":0,"cond_shown":"Congruent","ratio_trial":300,"L_num":3,"L_den":6,"R_num":4,"R_den":5,"correct_side":2,"subjID":"MaríaValentinaRincónParada6","gender":"1","school":"6","age":"10"},{"start_time":1551800631239,"click_time":1551800633082,"finger_time":1551800632702,"fix_duration":436.9647821564777,"trial":8,"RT":1463,"MT":380,"sideResp":1,"stimulus":[],"xmouse":[796,796,796,796,796,796,796,796,796,796,796,796,796,796,796,796,796,796,796,796,796,796,796,796,796,796,796,796,796,796,796,796,796,796,796,796,796,796,796,796,796,796,796,796,796,796,796,796,796,796,796,796,796,796,796,796,796,796,796,796,796,796,796,796,796,796,794,779,776,773,772,771,765,746,730,713,697,682,666,660,647,638,622,616,611,604,596,568,554,545,533,525,514],"ymouse":[535,535,535,535,535,535,535,535,535,535,535,535,535,535,535,535,535,535,535,535,535,535,535,535,535,535,535,535,535,535,535,535,535,535,535,535,535,535,535,535,535,535,535,535,535,535,535,535,535,535,535,535,535,535,535,535,535,535,535,535,535,535,535,535,535,536,536,528,525,522,517,514,496,455,429,403,379,359,325,309,279,258,214,196,179,166,157,142,134,126,115,108,98],"timestamp_mouse":[9,24,45,63,85,104,123,145,164,183,203,224,244,264,284,304,323,345,365,384,403,424,443,464,484,504,524,544,565,584,604,623,643,663,684,703,724,744,764,783,805,825,845,864,883,905,924,943,964,983,1005,1025,1043,1064,1085,1103,1123,1143,1164,1183,1203,1225,1244,1263,1284,1304,1323,1345,1363,1384,1403,1423,1443,1463,1485,1504,1525,1543,1563,1583,1604,1624,1645,1663,1683,1703,1723,1744,1763,1784,1803,1824,1843],"xSR":741.5,"ySR":458.25,"xT1":424.9,"yT1":0,"xT2":1058.1,"yT2":0,"toosoon":0,"cond_shown":"Congruent","ratio_trial":100,"L_num":9,"L_den":15,"R_num":8,"R_den":16,"correct_side":1,"subjID":"MaríaValentinaRincónParada6","gender":"1","school":"6","age":"10"},{"start_time":1551800634926,"click_time":1551800636482,"finger_time":1551800635743,"fix_duration":443.112625041584,"trial":9,"RT":817,"MT":739,"sideResp":2,"stimulus":[],"xmouse":[789,789,789,789,789,789,789,789,789,789,789,789,789,789,789,789,789,789,789,789,789,789,789,789,789,789,789,789,789,789,789,787,782,779,779,779,779,777,767,763,760,756,746,741,735,732,730,730,731,733,736,740,763,779,792,805,824,855,875,893,910,924,947,956,960,967,979,986,992,994,998,1007,1016,1045,1054,1061,1066,1070],"ymouse":[502,502,502,502,502,502,502,502,502,502,502,502,502,502,502,502,502,502,502,502,502,502,502,502,502,502,502,502,502,502,497,494,490,486,484,484,484,481,467,463,456,444,418,402,388,378,365,362,356,354,353,352,348,345,339,331,315,286,269,255,239,228,210,203,199,195,188,184,177,172,166,159,152,136,128,112,100,89],"timestamp_mouse":[17,37,56,77,96,117,137,157,177,198,217,236,258,278,296,317,336,358,378,397,417,437,456,477,496,517,536,556,577,596,618,636,656,676,696,717,736,756,778,796,816,838,858,877,896,916,936,957,976,996,1017,1037,1058,1076,1097,1116,1136,1157,1177,1197,1217,1237,1258,1276,1297,1316,1337,1357,1378,1396,1416,1436,1456,1476,1497,1518,1536,1556],"xSR":741.5,"ySR":458.25,"xT1":424.9,"yT1":0,"xT2":1058.1,"yT2":0,"toosoon":0,"cond_shown":"Incongruent","ratio_trial":200,"L_num":7,"L_den":15,"R_num":6,"R_den":9,"correct_side":2,"subjID":"MaríaValentinaRincónParada6","gender":"1","school":"6","age":"10"},{"start_time":1551800638033,"click_time":1551800639243,"finger_time":1551800638602,"fix_duration":649.809021443354,"trial":10,"RT":569,"MT":641,"sideResp":1,"stimulus":[],"xmouse":[793,793,793,793,793,793,793,793,793,793,793,793,793,793,793,793,793,793,793,793,793,793,793,793,793,786,778,756,723,718,718,720,723,724,724,724,724,724,720,719,717,716,715,709,701,688,669,650,626,618,600,587,575,554,548,544,541,537,532,525,508],"ymouse":[485,485,485,485,485,485,485,485,485,485,485,485,485,485,485,485,485,485,485,485,485,485,485,485,485,482,478,463,426,406,387,368,355,354,354,353,349,343,325,319,310,304,301,285,275,260,242,228,205,194,172,155,139,110,103,100,98,97,96,93,89],"timestamp_mouse":[10,34,51,69,91,110,130,149,170,189,210,230,249,269,289,309,330,350,371,390,409,430,450,469,489,510,529,549,569,591,609,630,650,669,689,709,731,750,769,790,809,831,849,870,889,909,931,950,970,990,1009,1031,1050,1069,1089,1109,1130,1151,1169,1191,1210],"xSR":741.5,"ySR":458.25,"xT1":424.9,"yT1":0,"xT2":1058.1,"yT2":0,"toosoon":0,"cond_shown":"Congruent","ratio_trial":100,"L_num":8,"L_den":16,"R_num":2,"R_den":5,"correct_side":1,"subjID":"MaríaValentinaRincónParada6","gender":"1","school":"6","age":"10"},{"start_time":1551800640649,"click_time":1551800642163,"finger_time":1551800641802,"fix_duration":286.9679481974483,"trial":11,"RT":1153,"MT":361,"sideResp":1,"stimulus":[],"xmouse":[785,785,785,785,785,785,785,785,785,785,785,785,785,785,785,785,785,785,785,785,785,785,785,785,785,785,785,785,785,785,785,785,785,785,785,785,785,785,785,787,787,787,787,787,787,787,787,787,787,787,787,787,788,785,776,764,743,736,728,717,699,653,625,600,583,572,559,552,547,542,534,532,531,529,526,522],"ymouse":[531,531,531,531,531,531,531,531,531,531,531,531,531,531,531,531,531,531,531,531,531,531,531,531,531,531,531,531,531,531,531,531,531,531,531,531,531,531,531,531,532,532,532,532,532,532,532,532,532,532,532,532,531,526,514,501,471,458,444,431,406,352,320,282,251,224,179,158,139,123,99,87,69,63,58,54],"timestamp_mouse":[14,33,54,74,93,115,133,154,173,194,213,233,253,273,293,314,334,355,373,393,413,434,453,474,495,515,533,555,573,595,614,633,654,675,695,714,735,753,773,793,815,833,854,873,893,914,933,954,973,994,1014,1034,1053,1074,1093,1113,1134,1153,1174,1193,1215,1235,1254,1274,1293,1313,1334,1353,1373,1393,1414,1434,1454,1473,1493,1514],"xSR":741.5,"ySR":458.25,"xT1":424.9,"yT1":0,"xT2":1058.1,"yT2":0,"toosoon":0,"cond_shown":"Incongruent","ratio_trial":300,"L_num":7,"L_den":10,"R_num":8,"R_den":20,"correct_side":1,"subjID":"MaríaValentinaRincónParada6","gender":"1","school":"6","age":"10"},{"start_time":1551800643475,"click_time":1551800645003,"finger_time":1551800644062,"fix_duration":451.5470399466588,"trial":12,"RT":587,"MT":941,"sideResp":2,"stimulus":[],"xmouse":[792,792,792,792,792,792,792,792,792,792,792,792,792,792,792,792,792,792,792,792,792,792,792,792,792,792,784,774,742,724,703,696,684,670,655,642,632,632,634,639,650,681,696,708,720,737,799,827,854,862,869,873,879,891,910,932,977,995,1015,1027,1040,1060,1066,1071,1074,1076,1080,1083,1086,1089,1096,1097,1097,1097,1097,1098,1100],"ymouse":[543,543,543,543,543,543,543,543,543,543,543,543,543,543,543,543,543,543,543,543,543,543,543,543,543,543,540,534,511,494,443,410,366,324,289,267,251,251,251,251,254,262,265,268,271,276,292,297,300,300,299,296,293,285,276,266,241,229,212,204,198,189,184,180,177,172,166,163,159,155,140,133,126,117,108,101,89],"timestamp_mouse":[9,41,47,69,87,108,128,147,169,188,207,227,248,267,287,307,327,347,369,388,409,427,447,468,488,508,527,547,568,587,608,628,648,667,687,707,727,748,768,788,807,827,847,869,888,907,927,947,968,989,1010,1027,1049,1069,1088,1108,1128,1149,1168,1187,1208,1228,1249,1268,1288,1308,1327,1348,1367,1387,1409,1428,1448,1467,1487,1508,1528],"xSR":741.5,"ySR":458.25,"xT1":424.9,"yT1":0,"xT2":1058.1,"yT2":0,"toosoon":0,"cond_shown":"Incongruent","ratio_trial":300,"L_num":4,"L_den":20,"R_num":2,"R_den":4,"correct_side":2,"subjID":"MaríaValentinaRincónParada6","gender":"1","school":"6","age":"10"},{"start_time":1551800651613,"click_time":1551800653204,"finger_time":1551800652685,"fix_duration":948.2314044001156,"trial":13,"RT":1072,"MT":519,"sideResp":1,"stimulus":[],"xmouse":[765,765,765,765,765,765,765,765,765,765,765,765,765,765,765,765,765,765,765,765,765,765,765,765,765,765,765,765,765,765,765,765,765,765,765,765,765,765,765,765,765,765,765,765,765,765,765,765,765,765,764,762,748,675,601,518,444,386,348,306,300,293,292,294,299,307,319,333,345,366,372,375,382,383,389,392,394,399,404,426],"ymouse":[501,501,501,501,501,501,501,501,501,501,501,501,501,501,501,501,501,501,501,501,501,501,501,501,501,501,501,501,501,501,501,501,501,501,501,501,501,501,501,501,501,501,501,501,501,501,501,501,501,501,499,495,481,434,393,342,292,244,205,148,131,111,104,94,94,94,94,94,95,95,95,93,91,91,90,90,90,90,90,90],"timestamp_mouse":[10,35,50,71,91,111,130,151,171,192,211,231,251,272,292,311,331,351,370,391,411,431,450,470,491,510,532,551,571,592,611,630,650,671,691,711,730,750,770,792,811,830,852,872,890,910,932,951,971,991,1010,1031,1051,1072,1090,1111,1131,1152,1171,1190,1211,1231,1252,1271,1290,1312,1332,1351,1371,1391,1410,1431,1450,1471,1492,1511,1532,1551,1570,1591],"xSR":741.5,"ySR":458.25,"xT1":424.9,"yT1":0,"xT2":1058.1,"yT2":0,"toosoon":0,"cond_shown":"Incongruent","ratio_trial":200,"L_num":7,"L_den":10,"R_num":8,"R_den":16,"correct_side":1,"subjID":"MaríaValentinaRincónParada6","gender":"1","school":"6","age":"10"},{"start_time":1551800655201,"click_time":1551800656443,"finger_time":1551800655824,"fix_duration":996.2535621057199,"trial":14,"RT":623,"MT":619,"sideResp":1,"stimulus":[],"xmouse":[789,789,789,789,789,789,789,789,789,789,789,789,789,789,789,789,789,789,789,789,789,789,789,789,789,789,789,789,785,773,771,771,771,774,775,777,777,777,777,775,771,771,766,761,741,725,704,675,648,624,601,596,590,583,561,549,543,543,543,540,532,518,494],"ymouse":[481,481,481,481,481,481,481,481,481,481,481,481,481,481,481,481,481,481,481,481,481,481,481,481,481,481,481,481,479,470,465,458,456,450,446,439,435,431,428,423,417,415,404,392,350,327,303,268,238,213,185,175,164,153,130,121,116,114,113,111,108,105,95],"timestamp_mouse":[9,35,43,63,84,102,122,142,162,184,202,222,242,263,284,302,323,342,364,383,402,423,442,463,483,503,522,544,562,583,604,623,642,663,682,702,734,743,763,784,803,823,843,862,884,902,922,942,964,983,1002,1023,1043,1063,1084,1102,1124,1142,1162,1183,1202,1223,1242],"xSR":741.5,"ySR":458.25,"xT1":424.9,"yT1":0,"xT2":1058.1,"yT2":0,"toosoon":0,"cond_shown":"Congruent","ratio_trial":300,"L_num":20,"L_den":25,"R_num":8,"R_den":16,"correct_side":1,"subjID":"MaríaValentinaRincónParada6","gender":"1","school":"6","age":"10"},{"start_time":1551800658166,"click_time":1551800661045,"finger_time":1551800660445,"fix_duration":880.0412923256984,"trial":15,"RT":2279,"MT":600,"sideResp":2,"stimulus":[],"xmouse":[787,787,787,787,787,787,787,787,787,787,787,787,787,787,787,787,787,787,787,787,787,787,787,787,787,787,787,787,787,787,787,787,787,787,787,787,787,787,787,787,787,787,787,787,787,787,787,787,787,787,787,787,787,787,787,787,787,787,787,787,787,787,787,787,787,787,787,787,787,787,787,787,787,787,787,787,787,787,787,787,787,787,787,787,787,787,787,787,787,787,787,787,787,787,787,787,787,787,787,787,787,787,787,787,787,787,787,787,787,787,787,803,817,876,903,936,941,945,945,944,936,933,930,930,930,930,930,934,938,943,949,964,976,995,1006,1014,1027,1032,1041,1053,1067,1098,1119,1126],"ymouse":[529,529,529,529,529,529,529,529,529,529,529,529,529,529,529,529,529,529,529,529,529,529,529,529,529,529,529,529,529,529,529,529,529,529,529,529,529,529,529,529,529,529,529,529,529,529,529,529,529,529,529,529,529,529,529,529,529,529,529,529,529,529,529,529,529,529,529,529,529,529,529,529,529,529,529,529,529,529,529,529,529,529,529,529,529,529,529,529,529,529,529,529,529,529,529,529,529,529,529,529,529,529,529,529,529,529,529,529,529,529,529,520,513,478,455,411,394,380,373,362,347,341,335,331,325,310,303,295,290,285,283,272,261,241,226,212,188,181,171,159,146,121,103,96],"timestamp_mouse":[17,38,57,78,98,118,138,157,178,199,217,238,258,277,298,317,337,357,377,397,417,438,457,477,498,518,538,558,579,597,618,639,658,678,699,717,737,759,777,798,817,839,857,878,898,917,937,959,978,999,1018,1039,1058,1078,1097,1118,1138,1158,1178,1197,1217,1237,1257,1277,1297,1318,1338,1358,1377,1398,1417,1439,1458,1479,1498,1518,1538,1558,1578,1597,1618,1637,1658,1677,1699,1718,1738,1758,1779,1797,1818,1838,1858,1878,1898,1918,1939,1958,1977,1998,2018,2037,2058,2079,2097,2117,2138,2159,2178,2197,2218,2237,2257,2279,2297,2319,2337,2358,2377,2398,2418,2438,2458,2477,2498,2518,2537,2557,2577,2599,2618,2639,2658,2677,2699,2717,2737,2757,2777,2798,2817,2837,2858,2879],"xSR":741.5,"ySR":458.25,"xT1":424.9,"yT1":0,"xT2":1058.1,"yT2":0,"toosoon":0,"cond_shown":"Congruent","ratio_trial":100,"L_num":1,"L_den":2,"R_num":3,"R_den":5,"correct_side":2,"subjID":"MaríaValentinaRincónParada6","gender":"1","school":"6","age":"10"},{"start_time":1551800663731,"click_time":1551800665185,"finger_time":1551800664984,"fix_duration":1386.4921000268475,"trial":16,"RT":1253,"MT":201,"sideResp":2,"stimulus":[],"xmouse":[801,801,801,801,801,801,801,801,801,801,801,801,801,801,801,801,801,801,801,801,801,801,801,801,801,801,801,801,801,801,801,801,801,801,801,801,801,801,801,801,801,801,801,801,801,801,801,801,801,801,801,801,802,805,807,810,812,814,818,819,821,826,845,856,865,887,905,925,972,1000,1028,1052,1085],"ymouse":[487,487,487,487,487,487,487,487,487,487,487,487,487,487,487,487,487,487,487,487,487,487,487,487,487,487,487,487,487,487,487,487,487,487,487,487,487,487,487,487,487,487,487,487,487,487,487,487,487,487,487,487,487,487,487,486,484,481,477,476,473,470,459,449,435,404,380,352,286,242,185,138,64],"timestamp_mouse":[13,36,53,73,93,112,133,152,173,192,214,232,253,273,294,312,333,352,372,392,413,434,452,473,492,512,533,552,572,592,614,632,652,672,692,714,732,753,772,792,813,832,852,872,892,912,934,952,972,993,1014,1032,1053,1074,1094,1112,1132,1153,1174,1192,1213,1232,1253,1272,1293,1314,1332,1352,1372,1393,1413,1434,1454],"xSR":741.5,"ySR":458.25,"xT1":424.9,"yT1":0,"xT2":1058.1,"yT2":0,"toosoon":0,"cond_shown":"Congruent","ratio_trial":200,"L_num":3,"L_den":10,"R_num":14,"R_den":28,"correct_side":2,"subjID":"MaríaValentinaRincónParada6","gender":"1","school":"6","age":"10"},{"start_time":1551800669365,"click_time":1551800671603,"finger_time":1551800671265,"fix_duration":1360.1030538956861,"trial":17,"RT":1900,"MT":338,"sideResp":2,"stimulus":[],"xmouse":[798,798,798,798,798,798,798,798,798,798,798,798,798,798,798,798,798,798,798,798,798,798,798,798,798,798,798,798,798,798,798,798,798,798,798,798,798,798,798,798,798,798,798,798,798,798,798,798,798,798,798,798,798,798,798,798,798,798,798,798,798,798,798,798,798,798,798,798,798,798,798,799,800,801,802,803,805,806,807,808,808,810,810,810,810,810,810,810,810,810,810,811,813,820,832,849,910,955,994,1033,1069,1075,1076,1076,1078,1081,1083,1084,1085,1085,1085,1088],"ymouse":[536,536,536,536,536,536,536,536,536,536,536,536,536,536,536,536,536,536,536,536,536,536,536,536,536,536,536,536,536,536,536,536,536,536,536,536,536,536,536,536,536,536,536,536,536,536,536,536,536,536,536,536,536,536,536,536,536,536,536,536,536,536,536,536,536,536,536,536,536,536,534,528,522,514,509,505,495,491,487,484,483,479,479,479,479,479,479,479,479,479,479,476,474,465,451,429,363,319,277,240,194,182,177,175,171,161,152,145,137,124,111,89],"timestamp_mouse":[19,38,58,78,100,118,138,158,179,199,218,239,260,279,300,318,338,359,378,400,420,440,458,480,499,518,539,558,580,598,619,638,659,678,698,719,738,759,778,798,820,838,858,878,899,919,939,958,978,999,1020,1039,1058,1078,1098,1119,1139,1158,1178,1199,1218,1238,1258,1279,1298,1318,1338,1358,1378,1400,1419,1440,1458,1478,1499,1518,1538,1558,1578,1600,1619,1638,1658,1678,1700,1718,1740,1759,1779,1800,1818,1838,1860,1879,1900,1918,1938,1959,1979,2000,2020,2038,2059,2078,2099,2119,2138,2158,2179,2199,2219,2238],"xSR":741.5,"ySR":458.25,"xT1":424.9,"yT1":0,"xT2":1058.1,"yT2":0,"toosoon":0,"cond_shown":"Congruent","ratio_trial":300,"L_num":1,"L_den":3,"R_num":19,"R_den":30,"correct_side":2,"subjID":"MaríaValentinaRincónParada6","gender":"1","school":"6","age":"10"},{"start_time":1551800674223,"click_time":1551800675724,"finger_time":1551800675584,"fix_duration":1318.152545861128,"trial":18,"RT":1361,"MT":140,"sideResp":1,"stimulus":[],"xmouse":[813,813,813,813,813,813,813,813,813,813,813,813,813,813,813,813,813,813,813,813,813,813,813,813,813,813,813,813,813,813,813,813,813,813,813,813,813,813,813,813,813,813,813,813,813,813,811,810,810,810,810,810,810,810,810,810,810,810,809,803,792,781,771,768,768,767,764,758,744,733,722,691,662,577,537,507],"ymouse":[506,506,506,506,506,506,506,506,506,506,506,506,506,506,506,506,506,506,506,506,506,506,506,506,506,506,506,506,506,506,506,506,506,506,506,506,506,506,506,506,506,506,506,506,506,506,505,504,504,504,504,504,504,504,504,504,504,504,504,503,501,499,497,496,495,495,490,481,450,423,387,315,267,154,106,71],"timestamp_mouse":[9,20,45,62,81,100,121,141,161,181,200,221,241,260,281,300,320,341,361,380,400,420,440,460,481,501,520,541,560,581,601,621,642,661,681,700,722,740,760,781,802,821,841,861,882,901,921,941,960,981,1001,1021,1041,1060,1081,1101,1121,1142,1160,1181,1200,1222,1240,1261,1282,1300,1321,1341,1361,1380,1400,1422,1440,1461,1480,1500],"xSR":741.5,"ySR":458.25,"xT1":424.9,"yT1":0,"xT2":1058.1,"yT2":0,"toosoon":0,"cond_shown":"Incongruent","ratio_trial":200,"L_num":4,"L_den":5,"R_num":6,"R_den":10,"correct_side":1,"subjID":"MaríaValentinaRincónParada6","gender":"1","school":"6","age":"10"},{"start_time":1551800676956,"click_time":1551800678404,"finger_time":1551800677903,"fix_duration":250,"trial":19,"RT":947,"MT":501,"sideResp":2,"stimulus":[],"xmouse":[794,794,794,794,794,794,794,794,794,794,794,794,794,794,794,794,794,794,794,794,794,794,794,794,794,794,794,794,794,794,794,794,794,794,794,794,794,794,794,794,794,797,808,814,819,823,829,842,847,853,859,866,887,903,922,932,950,957,963,967,970,974,980,982,986,987,992,998,1009,1023,1040,1056,1074],"ymouse":[505,505,505,505,505,505,505,505,505,505,505,505,505,505,505,505,505,505,505,505,505,505,505,505,505,505,505,505,505,505,505,505,505,505,505,505,505,505,505,505,504,504,505,505,504,502,498,485,480,467,451,430,381,353,317,297,264,252,243,235,230,224,215,213,207,204,195,189,175,159,139,120,86],"timestamp_mouse":[8,31,47,67,88,107,128,148,168,187,208,228,248,267,287,308,328,347,369,387,407,429,447,467,489,507,528,548,569,588,609,628,648,667,688,707,729,747,767,788,807,827,848,869,888,908,927,947,968,988,1007,1027,1047,1067,1087,1107,1129,1147,1168,1188,1208,1228,1247,1267,1287,1307,1329,1347,1367,1388,1409,1429,1448],"xSR":741.5,"ySR":458.25,"xT1":424.9,"yT1":0,"xT2":1058.1,"yT2":0,"toosoon":0,"cond_shown":"Incongruent","ratio_trial":100,"L_num":2,"L_den":4,"R_num":8,"R_den":20,"correct_side":1,"subjID":"MaríaValentinaRincónParada6","gender":"1","school":"6","age":"10"},{"start_time":1551800685725,"click_time":1551800688544,"finger_time":1551800687083,"fix_duration":1261.790338669631,"trial":20,"RT":1358,"MT":1461,"sideResp":2,"stimulus":[],"xmouse":[779,777,775,774,773,772,772,772,772,772,772,772,772,772,772,772,772,772,772,772,772,772,772,772,772,772,772,772,772,772,772,772,772,772,772,772,772,772,772,772,772,772,772,772,772,772,772,772,772,772,772,772,772,772,772,772,772,772,772,772,772,772,772,772,769,767,750,736,707,696,693,693,698,708,715,727,739,767,777,780,782,784,789,791,794,794,796,796,796,796,796,797,798,809,828,836,845,853,883,896,907,911,915,915,917,920,934,950,984,1001,1014,1026,1035,1053,1061,1070,1076,1082,1084,1084,1087,1088,1092,1095,1100,1102,1104,1104,1104,1104,1104,1104,1104,1104,1104,1105,1106,1108,1113,1116,1117],"ymouse":[528,529,531,532,532,534,534,534,534,534,534,534,534,534,534,534,534,534,534,534,534,534,534,534,534,534,534,534,534,534,534,534,534,534,534,534,534,534,534,534,534,534,534,534,534,534,534,534,534,534,534,534,534,534,534,534,534,534,534,534,534,534,534,534,534,531,507,483,432,407,387,375,366,363,363,364,366,370,372,372,373,373,373,373,371,371,369,369,369,369,369,368,367,357,346,336,326,318,292,282,276,272,269,269,268,267,266,262,251,243,236,227,217,191,180,171,164,153,147,141,135,131,121,118,112,110,110,110,110,110,110,110,110,110,110,110,110,108,103,100,97],"timestamp_mouse":[18,43,59,79,100,118,139,158,178,198,219,238,258,278,299,320,340,359,380,398,419,438,459,478,499,519,538,559,578,598,618,639,658,678,698,719,740,759,778,798,818,838,858,878,899,918,938,959,978,1000,1019,1038,1058,1079,1099,1118,1138,1158,1178,1199,1219,1239,1258,1278,1299,1319,1339,1358,1378,1399,1418,1439,1459,1479,1499,1518,1539,1559,1578,1599,1618,1639,1659,1678,1698,1719,1739,1760,1778,1799,1819,1838,1859,1880,1898,1919,1940,1960,1979,1998,2020,2039,2060,2078,2099,2118,2139,2158,2179,2198,2218,2239,2258,2279,2299,2318,2339,2359,2378,2398,2419,2440,2460,2478,2508,2518,2538,2559,2580,2599,2619,2639,2658,2679,2699,2719,2739,2758,2778,2798,2819],"xSR":741.5,"ySR":458.25,"xT1":424.9,"yT1":0,"xT2":1058.1,"yT2":0,"toosoon":0,"cond_shown":"Incongruent","ratio_trial":200,"L_num":1,"L_den":3,"R_num":2,"R_den":15,"correct_side":1,"subjID":"MaríaValentinaRincónParada6","gender":"1","school":"6","age":"10"},{"start_time":1551800691518,"click_time":1551800692984,"finger_time":1551800692464,"fix_duration":992.266398399337,"trial":21,"RT":946,"MT":520,"sideResp":1,"stimulus":[],"xmouse":[786,786,786,786,786,786,786,786,786,786,786,786,786,786,786,786,786,786,786,786,786,786,786,786,786,786,786,786,786,786,786,786,786,786,786,786,786,786,786,786,786,786,786,786,786,784,780,773,750,737,716,696,677,648,639,633,631,631,627,617,606,597,593,589,581,573,554,540,521,515,512,508,504,493],"ymouse":[480,480,480,480,480,480,480,480,480,480,480,480,480,480,480,480,480,480,480,480,480,480,480,480,480,480,480,480,480,480,480,480,480,480,480,480,480,480,480,480,480,480,480,480,480,472,463,450,416,396,372,348,324,281,264,247,226,216,193,177,163,153,142,136,126,122,117,113,107,104,103,102,101,98],"timestamp_mouse":[9,33,46,66,85,107,126,145,165,185,205,226,245,267,287,305,326,345,366,385,405,427,445,466,485,506,526,545,566,586,607,626,646,665,687,707,726,745,766,787,805,826,847,865,887,907,927,946,966,986,1005,1026,1046,1066,1085,1105,1127,1145,1166,1185,1206,1225,1245,1266,1285,1306,1326,1346,1367,1385,1405,1427,1445,1466],"xSR":741.5,"ySR":458.25,"xT1":424.9,"yT1":0,"xT2":1058.1,"yT2":0,"toosoon":0,"cond_shown":"Congruent","ratio_trial":300,"L_num":11,"L_den":22,"R_num":4,"R_den":20,"correct_side":1,"subjID":"MaríaValentinaRincónParada6","gender":"1","school":"6","age":"10"},{"start_time":1551800695395,"click_time":1551800697805,"finger_time":1551800697224,"fix_duration":1408.6633723327388,"trial":22,"RT":1829,"MT":581,"sideResp":2,"stimulus":[],"xmouse":[785,785,785,785,785,785,785,785,785,785,785,785,785,785,785,785,785,785,785,785,785,785,785,785,785,785,785,785,785,785,785,785,785,785,785,785,785,785,785,785,785,785,785,785,785,785,785,785,785,785,785,785,785,785,785,785,785,785,785,785,785,785,785,785,785,785,785,785,785,785,785,785,785,785,785,785,785,785,786,786,786,786,786,786,786,786,787,789,790,797,810,817,845,865,883,921,936,948,957,966,980,982,983,983,984,988,995,1004,1016,1028,1033,1033,1033,1033,1034,1035,1039,1043,1047,1054,1073],"ymouse":[539,539,539,539,539,539,539,539,539,539,539,539,539,539,539,539,539,539,539,539,539,539,539,539,539,539,539,539,539,539,539,539,539,539,539,539,539,539,539,539,539,539,539,539,539,539,539,539,539,539,539,539,539,539,539,539,539,539,539,539,539,539,539,539,539,539,539,539,539,539,539,539,539,539,537,533,529,525,522,519,518,518,518,518,518,517,516,514,513,500,471,454,393,347,302,213,175,147,123,105,83,82,81,81,81,81,81,82,84,86,87,87,87,87,87,87,87,86,85,84,82],"timestamp_mouse":[8,40,48,68,89,110,128,148,168,188,209,230,249,268,290,309,329,349,368,388,410,428,449,469,490,509,529,550,569,588,610,630,648,668,688,710,729,749,770,788,808,829,848,869,889,909,929,948,969,988,1009,1028,1049,1068,1088,1110,1128,1149,1169,1190,1209,1229,1249,1269,1288,1308,1329,1348,1370,1388,1409,1428,1449,1469,1488,1508,1529,1549,1569,1589,1609,1629,1648,1668,1688,1710,1728,1749,1769,1789,1808,1829,1848,1869,1888,1909,1928,1950,1969,1988,2008,2028,2049,2068,2090,2108,2129,2150,2169,2188,2208,2229,2249,2270,2288,2309,2328,2350,2368,2388,2410],"xSR":741.5,"ySR":458.25,"xT1":424.9,"yT1":0,"xT2":1058.1,"yT2":0,"toosoon":0,"cond_shown":"Incongruent","ratio_trial":300,"L_num":1,"L_den":2,"R_num":2,"R_den":10,"correct_side":1,"subjID":"MaríaValentinaRincónParada6","gender":"1","school":"6","age":"10"},{"start_time":1551800701402,"click_time":1551800702563,"finger_time":1551800702124,"fix_duration":1438.8661398278282,"trial":23,"RT":722,"MT":439,"sideResp":1,"stimulus":[],"xmouse":[816,818,818,820,820,820,820,820,820,820,820,820,820,820,819,819,819,819,819,819,819,819,819,819,819,819,819,819,819,819,819,819,816,815,814,811,810,808,805,802,799,797,794,782,757,747,735,723,712,686,671,656,635,622,610,582,561,539,520],"ymouse":[510,511,511,511,511,511,511,511,511,511,511,511,511,511,511,511,511,511,511,511,511,511,511,511,511,511,511,511,511,511,511,511,506,499,486,462,451,441,429,423,411,406,397,376,341,323,306,289,274,239,219,200,170,151,136,113,102,91,83],"timestamp_mouse":[1,36,41,62,83,102,121,141,162,181,201,221,241,262,281,301,322,341,361,382,402,422,441,461,482,501,522,542,562,582,602,622,642,663,681,702,722,742,761,783,803,821,841,862,882,901,921,943,962,982,1001,1021,1041,1062,1082,1101,1122,1142,1161],"xSR":741.5,"ySR":458.25,"xT1":424.9,"yT1":0,"xT2":1058.1,"yT2":0,"toosoon":0,"cond_shown":"Incongruent","ratio_trial":300,"L_num":8,"L_den":10,"R_num":14,"R_den":28,"correct_side":1,"subjID":"MaríaValentinaRincónParada6","gender":"1","school":"6","age":"10"},{"start_time":1551800705104,"click_time":1551800706423,"finger_time":1551800706204,"fix_duration":1339.2069126456497,"trial":24,"RT":1100,"MT":219,"sideResp":1,"stimulus":[],"xmouse":[775,775,775,775,775,775,775,775,775,775,775,775,775,775,775,775,775,775,775,775,775,775,775,775,775,775,775,775,775,775,775,775,775,775,775,775,775,775,775,775,775,775,775,775,775,775,775,775,775,775,773,768,760,749,707,654,616,581,538,527,517,506,499,488,481,474],"ymouse":[538,538,538,538,538,538,538,538,538,538,538,538,538,538,538,538,538,538,538,538,538,538,538,538,538,538,538,538,538,538,538,538,538,538,538,538,538,538,538,538,538,538,538,538,538,538,538,538,538,538,532,520,508,491,444,381,333,284,209,183,162,147,134,115,106,95],"timestamp_mouse":[34,39,59,80,99,120,141,160,180,200,220,240,260,280,299,320,340,359,381,399,419,440,459,479,500,519,540,559,579,599,620,640,660,681,700,719,739,759,780,799,819,840,860,880,900,921,940,960,979,1000,1021,1039,1059,1081,1100,1119,1140,1160,1180,1199,1219,1241,1259,1281,1299,1319],"xSR":741.5,"ySR":458.25,"xT1":424.9,"yT1":0,"xT2":1058.1,"yT2":0,"toosoon":0,"cond_shown":"Congruent","ratio_trial":300,"L_num":11,"L_den":22,"R_num":2,"R_den":10,"correct_side":1,"subjID":"MaríaValentinaRincónParada6","gender":"1","school":"6","age":"10"},{"start_time":1551800708832,"click_time":1551800710104,"finger_time":1551800709664,"fix_duration":1326.6668828142065,"trial":25,"RT":832,"MT":440,"sideResp":2,"stimulus":[],"xmouse":[816,816,816,816,816,816,816,816,816,816,816,816,816,815,815,815,815,815,813,813,813,813,813,813,813,813,813,813,813,813,813,813,813,813,813,814,814,815,821,831,835,849,855,864,869,877,886,894,909,919,934,946,958,982,992,1003,1015,1023,1044,1048,1059,1065,1069,1072],"ymouse":[527,527,527,527,527,527,527,527,527,527,527,527,527,527,527,527,527,527,527,527,527,527,527,527,527,527,527,527,527,527,527,527,526,524,521,519,517,511,493,473,466,441,425,396,383,368,357,344,319,302,275,254,235,204,192,180,170,162,141,135,119,111,102,91],"timestamp_mouse":[11,33,52,71,91,111,131,152,171,192,211,231,251,271,291,311,331,351,372,392,411,431,452,472,492,512,532,552,571,592,612,631,652,671,691,712,733,753,771,792,812,832,852,872,893,911,933,952,971,991,1011,1031,1053,1073,1092,1111,1132,1152,1171,1193,1212,1233,1251,1272],"xSR":741.5,"ySR":458.25,"xT1":424.9,"yT1":0,"xT2":1058.1,"yT2":0,"toosoon":0,"cond_shown":"Incongruent","ratio_trial":100,"L_num":6,"L_den":10,"R_num":7,"R_den":14,"correct_side":1,"subjID":"MaríaValentinaRincónParada6","gender":"1","school":"6","age":"10"},{"start_time":1551800717277,"click_time":1551800718483,"finger_time":1551800718144,"fix_duration":972.0883811006835,"trial":26,"RT":867,"MT":339,"sideResp":1,"stimulus":[],"xmouse":[810,811,811,812,813,814,814,816,816,816,817,817,818,818,818,818,818,818,818,818,818,818,818,818,818,819,822,822,822,822,822,822,824,825,825,825,825,825,825,825,825,825,819,809,797,761,741,724,710,698,693,677,667,654,643,636,622,608,576,554,522],"ymouse":[537,537,537,538,538,539,540,540,540,541,541,541,542,542,542,542,542,542,542,542,542,542,542,542,542,542,543,543,543,543,543,543,542,541,538,537,535,534,532,527,519,485,462,438,419,369,346,328,310,285,269,230,210,188,168,148,110,89,50,29,2],"timestamp_mouse":[9,40,47,67,87,106,128,146,166,187,206,227,246,267,286,306,326,346,366,387,406,426,446,467,488,506,526,547,567,587,606,626,646,667,687,707,727,746,766,786,806,826,847,867,886,908,926,947,966,986,1006,1027,1047,1067,1086,1106,1126,1146,1166,1187,1206],"xSR":741.5,"ySR":458.25,"xT1":424.9,"yT1":0,"xT2":1058.1,"yT2":0,"toosoon":0,"cond_shown":"Congruent","ratio_trial":200,"L_num":8,"L_den":15,"R_num":3,"R_den":9,"correct_side":1,"subjID":"MaríaValentinaRincónParada6","gender":"1","school":"6","age":"10"},{"start_time":1551800725437,"click_time":1551800726985,"finger_time":1551800726403,"fix_duration":1393.0300375743864,"trial":27,"RT":966,"MT":582,"sideResp":1,"stimulus":[],"xmouse":[784,784,784,784,785,785,785,785,785,785,785,785,785,785,785,785,785,785,785,785,785,785,785,785,785,786,786,786,786,786,786,786,786,786,786,786,786,786,786,786,786,786,786,786,786,786,777,747,728,713,701,696,695,695,688,676,657,638,632,630,615,596,579,561,555,551,550,546,545,544,542,542,538,533,525,519,512,505],"ymouse":[504,504,504,504,505,505,505,505,505,505,505,505,505,505,505,505,505,505,505,505,505,505,505,505,505,505,505,505,505,505,505,505,505,505,505,505,505,505,505,505,505,505,505,505,505,505,494,470,456,442,425,411,396,359,339,315,284,243,224,221,210,201,195,183,175,168,162,154,154,153,152,149,139,131,123,115,105,94],"timestamp_mouse":[10,27,47,66,86,106,126,147,166,186,207,226,248,266,287,306,327,346,366,386,406,428,446,466,486,506,526,547,566,586,607,626,647,667,688,708,727,747,767,788,807,827,846,867,888,906,926,947,966,987,1006,1026,1046,1066,1086,1106,1127,1147,1166,1186,1206,1226,1246,1267,1287,1307,1327,1347,1366,1386,1407,1427,1447,1466,1487,1507,1527,1547],"xSR":741.5,"ySR":458.25,"xT1":424.9,"yT1":0,"xT2":1058.1,"yT2":0,"toosoon":0,"cond_shown":"Congruent","ratio_trial":100,"L_num":9,"L_den":15,"R_num":8,"R_den":16,"correct_side":1,"subjID":"MaríaValentinaRincónParada6","gender":"1","school":"6","age":"10"},{"start_time":1551800728905,"click_time":1551800732605,"finger_time":1551800730283,"fix_duration":581.20291613306,"trial":28,"RT":1378,"MT":2322,"sideResp":2,"stimulus":[],"xmouse":[800,800,800,800,800,800,800,800,800,800,800,800,800,800,800,800,800,800,800,800,800,800,800,800,800,800,800,800,800,800,800,800,800,800,800,800,800,800,800,800,800,800,800,800,800,800,800,800,800,799,799,796,794,787,784,784,783,783,783,783,783,781,780,779,774,770,769,769,769,769,769,769,769,780,787,790,791,791,791,791,791,791,791,791,791,791,791,791,791,791,791,791,790,790,790,790,790,790,790,790,790,790,781,760,701,700,700,705,710,727,737,748,761,768,770,771,772,772,772,771,760,748,733,719,718,724,755,780,816,818,818,818,818,818,806,777,741,735,740,758,777,790,794,794,794,789,779,772,771,770,784,808,855,970,1016,1051,1069,1081,1084,1086,1087,1089,1091,1095,1095,1093,1090,1089,1089,1089,1089,1089,1089,1089,1089,1089,1089,1089,1092,1093,1095,1096,1098,1098,1099],"ymouse":[547,547,547,547,547,547,547,547,547,547,547,547,547,547,547,547,547,547,547,547,547,547,547,547,547,547,547,547,547,547,547,547,547,547,547,547,547,547,547,547,547,547,547,547,547,547,547,547,547,546,546,546,545,543,542,540,538,536,534,532,529,524,519,511,487,472,468,461,458,458,458,458,457,458,459,459,459,459,459,459,459,459,459,459,459,459,459,459,459,459,459,459,459,459,459,459,459,459,459,459,459,459,459,457,449,449,449,449,449,453,455,456,459,462,462,462,463,463,463,463,463,463,465,469,470,474,483,490,500,502,502,502,502,502,502,502,504,505,508,513,518,520,521,521,521,521,520,519,519,517,506,489,457,377,334,296,269,241,231,222,218,215,209,197,188,177,169,163,153,148,144,141,139,136,136,135,134,132,125,120,115,110,104,101,97],"timestamp_mouse":[23,41,59,80,99,118,139,159,178,199,220,238,259,280,298,318,339,359,379,399,419,439,458,478,498,520,538,558,579,598,619,639,659,691,698,718,740,759,778,798,820,839,859,879,898,920,938,958,979,998,1020,1039,1058,1079,1100,1118,1139,1158,1178,1199,1219,1239,1258,1278,1299,1318,1339,1358,1378,1398,1418,1438,1458,1479,1498,1519,1539,1558,1579,1599,1618,1639,1658,1680,1698,1718,1738,1759,1779,1799,1820,1839,1860,1878,1898,1919,1939,1959,1978,1998,2018,2040,2058,2078,2098,2118,2138,2158,2178,2198,2218,2239,2259,2280,2298,2319,2338,2359,2379,2400,2419,2438,2459,2480,2498,2519,2539,2559,2579,2600,2618,2639,2658,2679,2699,2719,2739,2758,2779,2798,2819,2838,2858,2880,2899,2918,2939,2958,2978,2998,3018,3038,3060,3079,3098,3119,3139,3158,3180,3198,3218,3239,3259,3279,3298,3318,3339,3359,3379,3398,3418,3438,3459,3479,3498,3519,3539,3559,3579,3598,3619,3638,3659,3678,3700],"xSR":741.5,"ySR":458.25,"xT1":424.9,"yT1":0,"xT2":1058.1,"yT2":0,"toosoon":0,"cond_shown":"Incongruent","ratio_trial":200,"L_num":4,"L_den":30,"R_num":1,"R_den":3,"correct_side":2,"subjID":"MaríaValentinaRincónParada6","gender":"1","school":"6","age":"10"},{"start_time":1551800735666,"click_time":1551800736983,"finger_time":1551800736765,"fix_duration":1220.990247279356,"trial":29,"RT":1099,"MT":218,"sideResp":2,"stimulus":[],"xmouse":[807,807,807,807,807,807,807,807,807,807,807,807,807,807,807,807,807,807,807,807,807,807,807,807,807,807,807,807,807,807,807,807,807,807,807,807,807,807,807,807,807,807,807,807,807,807,807,807,807,807,808,811,820,834,853,883,897,910,928,943,981,1000,1018,1036,1053,1068],"ymouse":[517,517,517,517,517,517,517,517,517,517,517,517,517,517,517,517,517,517,517,517,517,517,517,517,517,517,517,517,517,517,517,517,517,517,517,517,517,517,517,517,517,517,517,517,517,517,517,517,517,517,517,517,518,518,518,504,491,478,447,412,315,262,212,167,127,89],"timestamp_mouse":[33,38,58,78,97,119,137,158,178,197,218,237,257,277,297,317,338,357,377,397,417,438,457,478,497,517,538,557,577,597,618,637,657,678,697,718,737,757,778,798,817,837,858,878,898,917,937,957,977,997,1018,1037,1058,1077,1099,1118,1137,1158,1177,1197,1219,1237,1257,1277,1298,1317],"xSR":741.5,"ySR":458.25,"xT1":424.9,"yT1":0,"xT2":1058.1,"yT2":0,"toosoon":0,"cond_shown":"Congruent","ratio_trial":100,"L_num":7,"L_den":14,"R_num":15,"R_den":25,"correct_side":2,"subjID":"MaríaValentinaRincónParada6","gender":"1","school":"6","age":"10"},{"start_time":1551800738851,"click_time":1551800740504,"finger_time":1551800739905,"fix_duration":966.3670228846427,"trial":30,"RT":1054,"MT":599,"sideResp":2,"stimulus":[],"xmouse":[804,804,804,804,804,804,804,804,804,804,804,804,804,804,804,804,804,804,804,804,804,804,804,804,804,804,804,804,804,804,804,804,804,802,801,801,797,796,794,793,793,793,793,793,793,793,793,793,795,797,800,803,805,808,815,821,838,846,855,864,872,889,898,909,920,933,946,975,987,1000,1018,1037,1045,1053,1057,1058,1059,1060,1062,1064,1067,1071,1081],"ymouse":[499,499,499,499,499,499,499,499,499,499,499,499,499,499,499,499,499,499,499,499,499,499,499,499,499,499,499,499,499,499,499,499,499,499,499,498,495,494,492,492,492,492,492,492,492,492,491,488,484,478,471,461,456,449,438,430,407,396,383,365,352,323,309,292,275,259,242,204,187,170,149,130,125,120,118,117,116,116,114,111,108,104,94],"timestamp_mouse":[13,36,53,72,94,112,133,152,173,193,212,233,252,272,293,312,333,354,374,392,413,433,452,474,493,514,533,553,572,593,612,632,652,673,693,712,733,753,772,792,813,833,853,872,892,914,933,953,973,992,1013,1033,1054,1072,1093,1114,1133,1153,1172,1193,1212,1233,1252,1273,1293,1313,1332,1353,1373,1394,1413,1433,1452,1473,1493,1513,1534,1553,1572,1593,1612,1633,1653],"xSR":741.5,"ySR":458.25,"xT1":424.9,"yT1":0,"xT2":1058.1,"yT2":0,"toosoon":0,"cond_shown":"Congruent","ratio_trial":200,"L_num":6,"L_den":12,"R_num":7,"R_den":10,"correct_side":2,"subjID":"MaríaValentinaRincónParada6","gender":"1","school":"6","age":"10"},{"start_time":1551800742796,"click_time":1551800745023,"finger_time":1551800744144,"fix_duration":1310.8968738518136,"trial":31,"RT":1348,"MT":879,"sideResp":2,"stimulus":[],"xmouse":[814,814,815,815,815,815,815,815,815,815,815,815,815,815,815,815,815,815,815,815,815,815,815,815,815,815,815,815,815,815,815,815,815,815,815,815,815,815,815,816,819,822,823,823,823,823,823,823,824,825,827,828,828,828,828,828,828,828,828,827,817,814,806,786,775,770,767,763,757,744,740,738,737,733,727,721,712,703,693,680,646,625,607,605,633,663,699,746,784,813,852,867,884,897,924,939,951,963,975,992,997,1006,1022,1035,1046,1063,1067,1069,1071,1074,1076,1081],"ymouse":[484,484,484,484,484,484,484,484,484,484,484,484,484,484,484,484,484,484,484,484,484,484,484,484,484,484,484,484,484,484,484,484,484,484,484,484,484,484,484,484,485,486,486,486,486,486,486,486,486,486,486,486,486,486,486,486,486,486,486,486,486,485,483,477,475,471,466,457,446,419,406,386,379,354,319,297,276,255,237,217,185,171,160,158,160,163,168,176,181,185,191,192,190,186,175,169,162,156,149,137,135,132,127,123,120,112,109,107,105,102,100,95],"timestamp_mouse":[8,36,47,67,87,107,128,147,168,189,208,229,248,268,288,307,327,348,367,387,407,427,447,468,487,508,527,547,567,588,608,627,648,667,687,709,727,747,767,787,809,827,849,867,887,908,927,947,968,987,1007,1027,1047,1067,1087,1108,1127,1148,1167,1187,1207,1229,1248,1267,1287,1307,1327,1348,1369,1388,1407,1427,1448,1467,1488,1507,1529,1547,1567,1589,1609,1627,1647,1667,1688,1707,1727,1747,1768,1787,1807,1827,1848,1867,1888,1907,1929,1948,1967,1989,2007,2028,2047,2067,2089,2108,2127,2148,2168,2189,2207,2227],"xSR":741.5,"ySR":458.25,"xT1":424.9,"yT1":0,"xT2":1058.1,"yT2":0,"toosoon":0,"cond_shown":"Congruent","ratio_trial":100,"L_num":3,"L_den":20,"R_num":4,"R_den":16,"correct_side":2,"subjID":"MaríaValentinaRincónParada6","gender":"1","school":"6","age":"10"},{"start_time":1551800747249,"click_time":1551800748864,"finger_time":1551800748284,"fix_duration":1263.107778116027,"trial":32,"RT":1035,"MT":580,"sideResp":2,"stimulus":[],"xmouse":[788,788,788,788,788,788,788,788,788,788,788,788,788,788,788,788,788,788,788,788,788,788,788,788,788,788,788,788,788,788,788,788,788,788,788,788,788,788,788,788,788,788,788,788,788,787,787,786,786,784,784,784,787,791,799,808,838,852,871,892,921,962,983,1003,1022,1040,1071,1086,1096,1107,1111,1116,1117,1118,1118,1118,1118,1118,1119,1120,1122],"ymouse":[497,497,497,497,497,497,497,497,497,497,497,497,497,497,497,497,497,497,497,497,497,497,497,497,497,497,497,497,497,497,497,497,497,497,497,497,497,497,497,497,497,497,497,497,497,497,493,489,483,470,462,453,438,430,423,416,403,395,387,376,355,319,301,282,260,239,196,175,159,141,134,126,124,122,122,121,120,114,109,100,93],"timestamp_mouse":[15,35,54,74,95,115,134,155,174,195,215,234,256,274,294,314,335,354,376,395,415,434,456,474,495,516,534,555,576,594,615,634,655,676,695,715,734,755,774,795,815,835,854,874,895,915,935,954,974,995,1014,1035,1055,1075,1095,1114,1136,1154,1175,1194,1214,1235,1254,1275,1294,1314,1335,1354,1375,1395,1414,1435,1455,1475,1494,1515,1534,1554,1574,1595,1615],"xSR":741.5,"ySR":458.25,"xT1":424.9,"yT1":0,"xT2":1058.1,"yT2":0,"toosoon":0,"cond_shown":"Congruent","ratio_trial":300,"L_num":3,"L_den":12,"R_num":11,"R_den":20,"correct_side":2,"subjID":"MaríaValentinaRincónParada6","gender":"1","school":"6","age":"10"},{"start_time":1551800751120,"click_time":1551800752303,"finger_time":1551800751743,"fix_duration":1114.1021331063562,"trial":33,"RT":623,"MT":560,"sideResp":2,"stimulus":[],"xmouse":[791,791,791,791,791,791,791,791,791,791,791,791,791,791,791,791,791,791,791,791,791,791,791,791,791,791,791,791,792,805,823,844,862,899,912,921,933,942,967,983,999,1011,1018,1024,1027,1027,1027,1028,1032,1037,1040,1042,1045,1055,1059,1061,1064,1064,1067,1070],"ymouse":[529,529,529,529,529,529,529,529,529,529,529,529,529,529,529,529,529,529,529,529,529,529,529,529,529,529,529,529,531,532,532,528,517,485,464,444,411,387,333,304,275,251,232,214,194,186,185,180,171,164,160,154,150,135,128,122,111,106,100,89],"timestamp_mouse":[9,33,44,65,84,104,124,144,165,185,205,223,245,263,283,303,323,344,364,383,403,424,443,463,484,503,524,544,563,584,603,623,643,665,683,704,724,743,764,783,804,823,843,863,883,905,923,943,964,983,1003,1024,1044,1064,1083,1103,1124,1144,1163,1183],"xSR":741.5,"ySR":458.25,"xT1":424.9,"yT1":0,"xT2":1058.1,"yT2":0,"toosoon":0,"cond_shown":"Incongruent","ratio_trial":200,"L_num":7,"L_den":10,"R_num":12,"R_den":24,"correct_side":1,"subjID":"MaríaValentinaRincónParada6","gender":"1","school":"6","age":"10"},{"start_time":1551800755046,"click_time":1551800756284,"finger_time":1551800755604,"fix_duration":1482.913538331359,"trial":34,"RT":558,"MT":680,"sideResp":1,"stimulus":[],"xmouse":[772,772,772,772,772,772,772,772,772,772,772,772,772,772,772,772,772,772,772,772,772,772,772,772,772,772,772,774,777,778,778,779,779,779,779,779,779,779,779,779,779,773,767,759,748,735,709,704,700,697,695,689,684,672,658,644,625,586,562,546,532,510],"ymouse":[491,491,491,491,491,491,491,491,491,491,491,491,491,491,491,491,491,491,491,491,488,481,476,472,468,465,460,447,436,430,426,423,423,422,421,418,411,405,402,393,387,362,346,330,310,290,264,258,252,246,241,230,222,208,193,176,157,125,108,96,85,66],"timestamp_mouse":[18,38,57,77,97,119,138,158,179,198,218,237,257,278,297,317,338,358,379,397,418,439,458,477,497,518,537,558,577,598,618,638,657,677,697,717,739,757,777,797,817,839,857,878,898,918,938,957,977,998,1018,1038,1058,1078,1098,1118,1137,1158,1177,1197,1217,1237],"xSR":741.5,"ySR":458.25,"xT1":424.9,"yT1":0,"xT2":1058.1,"yT2":0,"toosoon":0,"cond_shown":"Congruent","ratio_trial":100,"L_num":9,"L_den":15,"R_num":8,"R_den":16,"correct_side":1,"subjID":"MaríaValentinaRincónParada6","gender":"1","school":"6","age":"10"},{"start_time":1551800757988,"click_time":1551800760564,"finger_time":1551800759403,"fix_duration":743.1834772305477,"trial":35,"RT":1415,"MT":1161,"sideResp":1,"stimulus":[],"xmouse":[762,762,762,762,762,762,762,762,762,762,762,762,762,762,762,762,762,762,762,762,762,762,762,762,762,762,762,762,762,762,762,762,762,762,762,762,762,762,762,762,760,760,760,760,760,760,760,760,760,760,760,760,760,760,760,760,760,760,760,760,760,760,760,760,760,760,772,791,809,824,845,853,856,858,858,858,858,858,858,858,861,866,871,877,884,887,890,892,893,894,894,891,879,863,829,815,806,798,790,760,739,720,696,683,671,656,645,630,615,572,553,535,509,499,493,492,490,489,489,489,491,491,494,496,497,499,501,502,502],"ymouse":[497,497,497,497,497,497,497,497,497,497,497,497,497,497,497,497,497,497,497,497,497,497,497,497,497,497,497,497,497,497,497,497,497,497,497,497,497,497,497,496,495,495,495,495,495,495,495,495,495,495,495,495,495,495,495,495,495,495,495,495,495,495,495,495,495,494,489,482,473,462,445,437,433,432,432,432,432,432,431,431,429,426,422,416,399,389,380,370,360,341,331,322,306,293,275,268,265,262,259,251,244,239,230,226,221,213,207,198,190,168,157,145,130,126,123,122,122,121,121,121,120,120,117,116,114,109,104,100,96],"timestamp_mouse":[15,36,55,77,96,116,135,156,175,195,217,235,255,276,296,316,337,356,376,396,415,436,455,476,497,516,536,556,575,596,617,635,655,675,695,716,735,756,775,795,817,836,855,876,895,915,935,957,976,996,1015,1035,1055,1076,1095,1117,1137,1155,1177,1196,1215,1236,1255,1276,1297,1316,1335,1356,1376,1395,1415,1435,1455,1476,1495,1517,1535,1555,1575,1597,1615,1635,1656,1676,1696,1715,1735,1756,1775,1797,1815,1835,1855,1875,1897,1915,1936,1956,1975,1996,2015,2035,2055,2075,2095,2115,2136,2156,2175,2196,2215,2236,2255,2276,2296,2315,2336,2356,2376,2397,2416,2436,2455,2476,2495,2515,2536,2555,2576],"xSR":741.5,"ySR":458.25,"xT1":424.9,"yT1":0,"xT2":1058.1,"yT2":0,"toosoon":0,"cond_shown":"Congruent","ratio_trial":100,"L_num":9,"L_den":15,"R_num":8,"R_den":16,"correct_side":1,"subjID":"MaríaValentinaRincónParada6","gender":"1","school":"6","age":"10"},{"start_time":1551800762980,"click_time":1551800763964,"finger_time":1551800763463,"fix_duration":915.768049334196,"trial":36,"RT":483,"MT":501,"sideResp":1,"stimulus":[],"xmouse":[768,768,768,768,768,768,768,768,768,768,768,768,768,768,768,768,768,768,768,768,768,768,767,761,752,719,702,686,673,660,647,620,609,597,584,577,567,562,558,554,550,543,539,532,529,525,513,506,500,497],"ymouse":[498,498,498,498,498,498,498,498,498,498,498,498,498,498,498,498,496,492,488,484,478,475,472,462,455,429,412,395,376,358,337,292,270,249,223,212,199,193,187,182,176,164,157,146,139,131,116,109,102,97],"timestamp_mouse":[9,34,44,63,84,103,123,143,165,183,204,223,244,263,283,303,324,343,363,384,404,424,443,463,483,504,523,545,564,584,603,623,644,664,683,703,723,744,763,783,803,824,844,863,883,904,923,943,963,984],"xSR":741.5,"ySR":458.25,"xT1":424.9,"yT1":0,"xT2":1058.1,"yT2":0,"toosoon":0,"cond_shown":"Incongruent","ratio_trial":200,"L_num":6,"L_den":20,"R_num":3,"R_den":6,"correct_side":2,"subjID":"MaríaValentinaRincónParada6","gender":"1","school":"6","age":"10"},{"start_time":1551800768955,"click_time":1551800770803,"finger_time":1551800769663,"fix_duration":250,"trial":37,"RT":708,"MT":1140,"sideResp":1,"stimulus":[],"xmouse":[798,798,798,798,798,798,798,798,798,798,798,798,798,798,798,798,798,798,798,798,798,798,798,798,797,797,796,795,795,795,795,795,797,801,820,843,918,963,1003,1029,1042,1045,1045,1046,1046,1048,1049,1051,1052,1052,1052,1052,1052,1052,1052,1051,1052,1053,1055,1056,1057,1057,1057,1057,1050,1038,1006,992,984,976,962,897,836,746,693,648,587,563,546,535,527,519,505,500,497,494,494,492,492,492,491,490,490],"ymouse":[502,502,502,502,502,502,502,502,502,502,502,502,502,502,502,502,502,502,502,502,501,501,501,501,501,501,501,501,501,501,501,501,496,494,474,449,367,316,266,225,191,154,150,148,146,144,141,134,132,131,131,130,130,130,130,130,128,126,123,122,120,120,120,119,118,115,111,110,110,112,116,120,123,135,143,147,149,149,148,146,144,142,138,135,132,128,125,117,115,112,108,101,98],"timestamp_mouse":[9,35,48,68,89,108,129,148,169,188,208,228,248,268,289,308,328,349,369,388,408,430,449,470,490,509,529,549,568,588,610,629,648,668,688,708,729,748,769,788,809,830,848,869,888,909,929,949,968,989,1008,1029,1048,1068,1089,1110,1129,1148,1168,1188,1208,1229,1249,1268,1289,1310,1328,1348,1368,1388,1408,1429,1448,1468,1488,1508,1529,1548,1569,1588,1609,1628,1648,1669,1689,1708,1728,1748,1769,1790,1808,1828,1848],"xSR":741.5,"ySR":458.25,"xT1":424.9,"yT1":0,"xT2":1058.1,"yT2":0,"toosoon":0,"cond_shown":"Incongruent","ratio_trial":200,"L_num":3,"L_den":4,"R_num":11,"R_den":20,"correct_side":1,"subjID":"MaríaValentinaRincónParada6","gender":"1","school":"6","age":"10"},{"start_time":1551800773094,"click_time":1551800773903,"finger_time":1551800773623,"fix_duration":1350.6997499519898,"trial":38,"RT":529,"MT":280,"sideResp":1,"stimulus":[],"xmouse":[765,765,765,765,765,765,765,765,765,765,765,765,765,765,765,765,765,765,765,765,765,765,765,765,764,760,737,711,682,663,646,642,637,631,627,614,604,589,561,545,509],"ymouse":[507,507,507,507,507,507,507,507,507,507,507,507,507,507,507,507,507,507,507,507,507,507,507,507,507,505,491,476,460,445,420,406,389,365,336,253,208,161,102,81,56],"timestamp_mouse":[9,41,49,70,90,110,129,149,169,189,209,229,250,270,289,310,329,350,370,391,409,429,450,470,491,511,529,549,569,590,610,630,651,670,689,709,729,751,771,789,809],"xSR":741.5,"ySR":458.25,"xT1":424.9,"yT1":0,"xT2":1058.1,"yT2":0,"toosoon":0,"cond_shown":"Congruent","ratio_trial":200,"L_num":8,"L_den":15,"R_num":2,"R_den":6,"correct_side":1,"subjID":"MaríaValentinaRincónParada6","gender":"1","school":"6","age":"10"},{"start_time":1551800775616,"click_time":1551800776704,"finger_time":1551800776263,"fix_duration":250.94100100717677,"trial":39,"RT":647,"MT":441,"sideResp":1,"stimulus":[],"xmouse":[772,772,772,772,772,772,772,772,772,772,772,772,772,772,772,772,772,772,772,772,772,772,772,772,772,772,772,773,781,797,816,831,848,854,855,853,848,838,806,786,765,739,728,722,711,701,687,670,649,602,564,546,527,509,486],"ymouse":[525,525,525,525,525,525,525,525,524,524,524,524,524,524,524,524,524,524,524,524,524,524,524,524,524,524,524,523,515,502,488,474,455,442,440,438,438,434,429,422,418,412,408,406,401,396,386,369,349,292,234,196,155,121,80],"timestamp_mouse":[10,39,48,68,88,107,128,149,168,188,208,227,248,267,287,307,328,347,367,387,407,427,447,467,488,507,527,548,568,588,607,628,647,669,687,708,728,748,768,787,807,827,847,868,887,907,927,947,968,988,1007,1029,1047,1067,1087],"xSR":741.5,"ySR":458.25,"xT1":424.9,"yT1":0,"xT2":1058.1,"yT2":0,"toosoon":0,"cond_shown":"Incongruent","ratio_trial":200,"L_num":4,"L_den":5,"R_num":6,"R_den":10,"correct_side":1,"subjID":"MaríaValentinaRincónParada6","gender":"1","school":"6","age":"10"},{"start_time":1551800779190,"click_time":1551800780524,"finger_time":1551800779862,"fix_duration":1386.0465517629987,"trial":40,"RT":672,"MT":662,"sideResp":1,"stimulus":[],"xmouse":[789,789,789,789,789,789,789,789,789,789,789,789,789,789,789,789,789,789,789,789,789,789,789,789,789,789,789,789,789,789,784,771,754,741,736,736,736,736,736,736,736,736,737,738,738,738,738,737,733,714,697,678,652,629,610,578,570,566,563,556,535,525,517,515,514,511,507],"ymouse":[532,532,532,532,532,532,532,532,532,532,532,532,532,532,532,532,532,532,532,532,532,532,532,532,532,532,532,532,532,532,530,521,512,502,496,496,496,496,496,495,494,493,490,488,485,482,477,470,457,418,386,347,293,256,229,191,180,172,166,159,145,139,131,126,115,105,95],"timestamp_mouse":[12,47,53,72,93,113,133,152,174,194,213,232,253,272,292,313,333,353,373,392,413,432,453,473,492,512,533,552,573,593,612,632,654,672,693,712,733,752,772,794,812,832,852,873,893,912,933,953,974,993,1012,1032,1052,1073,1094,1113,1133,1153,1172,1192,1212,1233,1253,1272,1293,1313,1333],"xSR":741.5,"ySR":458.25,"xT1":424.9,"yT1":0,"xT2":1058.1,"yT2":0,"toosoon":0,"cond_shown":"Congruent","ratio_trial":300,"L_num":4,"L_den":10,"R_num":1,"R_den":10,"correct_side":1,"subjID":"MaríaValentinaRincónParada6","gender":"1","school":"6","age":"10"},{"start_time":1551800782216,"click_time":1551800783922,"finger_time":1551800783324,"fix_duration":951.6866311020567,"trial":41,"RT":1108,"MT":598,"sideResp":2,"stimulus":[],"xmouse":[782,782,782,782,782,782,782,782,782,782,782,782,782,782,782,782,782,782,782,782,782,782,782,782,782,782,782,782,782,782,782,782,782,782,782,782,782,782,782,782,782,782,782,782,782,781,781,781,781,783,784,790,796,802,813,819,822,826,834,839,848,855,870,887,895,901,910,920,938,948,962,966,974,978,980,982,987,993,1004,1025,1035,1051,1059,1069,1088,1100],"ymouse":[528,528,528,528,528,528,528,528,528,528,528,528,528,528,528,528,528,528,528,528,528,528,528,528,528,528,528,528,528,528,528,528,528,528,528,528,528,528,528,528,528,528,528,528,528,528,527,526,525,520,518,507,497,485,462,451,446,440,429,421,411,401,381,352,337,322,305,289,262,250,234,228,217,212,210,208,206,202,196,184,177,162,152,141,114,97],"timestamp_mouse":[8,35,46,66,86,107,126,146,167,186,206,227,248,267,286,306,327,346,366,386,406,427,446,467,486,507,527,546,567,586,607,627,646,667,688,708,728,746,767,788,808,826,847,867,886,907,926,946,966,987,1006,1027,1048,1066,1086,1108,1126,1146,1167,1186,1207,1227,1246,1267,1286,1307,1328,1348,1367,1386,1406,1428,1447,1467,1486,1507,1527,1548,1567,1588,1606,1626,1647,1666,1686,1706],"xSR":741.5,"ySR":458.25,"xT1":424.9,"yT1":0,"xT2":1058.1,"yT2":0,"toosoon":0,"cond_shown":"Incongruent","ratio_trial":100,"L_num":4,"L_den":8,"R_num":8,"R_den":20,"correct_side":1,"subjID":"MaríaValentinaRincónParada6","gender":"1","school":"6","age":"10"},{"start_time":1551800786881,"click_time":1551800787743,"finger_time":1551800787643,"fix_duration":437.76154819524584,"trial":42,"RT":762,"MT":100,"sideResp":2,"stimulus":[],"xmouse":[784,784,784,784,784,784,784,784,784,784,784,784,784,784,784,784,784,784,784,784,784,784,784,784,784,784,784,784,784,784,784,784,784,784,784,792,803,827,860,925,972,1052,1078,1092],"ymouse":[518,518,518,518,518,518,518,518,518,518,518,518,518,518,518,518,518,518,518,518,518,518,518,518,518,518,518,518,518,518,518,518,518,518,516,505,489,461,423,344,281,159,107,75],"timestamp_mouse":[9,33,43,61,81,101,121,141,161,181,202,222,242,261,282,301,322,343,361,382,401,423,442,461,482,502,523,541,561,581,601,623,642,662,681,702,721,742,762,781,802,821,841,861],"xSR":741.5,"ySR":458.25,"xT1":424.9,"yT1":0,"xT2":1058.1,"yT2":0,"toosoon":0,"cond_shown":"Incongruent","ratio_trial":200,"L_num":1,"L_den":3,"R_num":2,"R_den":15,"correct_side":1,"subjID":"MaríaValentinaRincónParada6","gender":"1","school":"6","age":"10"},{"start_time":1551800789588,"click_time":1551800790502,"finger_time":1551800790263,"fix_duration":424.59952132790556,"trial":43,"RT":675,"MT":239,"sideResp":1,"stimulus":[],"xmouse":[807,807,807,807,807,807,807,807,807,807,807,807,807,807,807,807,807,807,807,807,807,807,807,807,807,807,807,807,807,807,802,797,765,736,715,708,702,696,686,656,626,594,555,538,525,524],"ymouse":[507,507,507,507,507,507,507,507,507,507,507,507,507,507,507,507,507,507,507,507,507,507,507,507,507,507,507,507,507,507,505,502,485,469,455,437,419,399,374,306,256,209,147,120,93,85],"timestamp_mouse":[16,46,56,74,95,114,134,154,174,195,215,234,254,275,294,314,334,355,374,395,415,436,454,474,496,514,534,555,575,595,614,634,655,675,695,714,735,754,774,796,814,834,854,875,895,914],"xSR":741.5,"ySR":458.25,"xT1":424.9,"yT1":0,"xT2":1058.1,"yT2":0,"toosoon":0,"cond_shown":"Incongruent","ratio_trial":200,"L_num":14,"L_den":30,"R_num":6,"R_den":9,"correct_side":2,"subjID":"MaríaValentinaRincónParada6","gender":"1","school":"6","age":"10"},{"start_time":1551800793221,"click_time":1551800794483,"finger_time":1551800794183,"fix_duration":1435.1844123045134,"trial":44,"RT":962,"MT":300,"sideResp":2,"stimulus":[],"xmouse":[753,753,753,753,753,753,753,753,753,753,753,753,753,753,753,753,753,753,753,753,753,753,753,753,753,753,753,753,753,753,753,753,753,753,753,753,753,753,753,753,753,753,753,753,753,756,762,780,846,897,947,1010,1038,1061,1065,1067,1070,1071,1073,1084,1095,1109,1132,1155],"ymouse":[486,486,486,486,486,486,486,486,486,486,486,486,486,486,486,486,486,486,486,486,486,486,486,486,486,486,486,486,486,486,486,486,486,486,486,486,486,486,486,486,486,486,486,486,486,486,481,470,421,381,338,285,260,232,227,222,217,213,208,182,163,143,114,85],"timestamp_mouse":[9,27,42,62,82,103,121,143,162,183,201,223,241,261,282,302,321,341,362,381,401,422,442,461,482,502,522,541,562,583,602,622,643,661,682,702,722,741,762,782,802,823,841,862,881,902,921,943,962,981,1001,1022,1041,1063,1082,1101,1122,1141,1161,1182,1201,1222,1241,1262],"xSR":741.5,"ySR":458.25,"xT1":424.9,"yT1":0,"xT2":1058.1,"yT2":0,"toosoon":0,"cond_shown":"Congruent","ratio_trial":100,"L_num":4,"L_den":8,"R_num":6,"R_den":10,"correct_side":2,"subjID":"MaríaValentinaRincónParada6","gender":"1","school":"6","age":"10"},{"start_time":1551800795935,"click_time":1551800797343,"finger_time":1551800796563,"fix_duration":250,"trial":45,"RT":628,"MT":780,"sideResp":1,"stimulus":[],"xmouse":[781,781,781,784,787,789,791,795,796,797,797,797,797,797,797,797,797,797,797,797,797,797,797,797,797,797,797,798,805,814,828,845,870,880,896,915,930,942,959,965,967,970,971,971,971,972,974,992,1008,1021,1030,1037,1041,1047,1048,1049,1049,1049,1049,1045,1038,1026,1005,943,917,876,840,723,655,584,516],"ymouse":[507,507,507,512,519,528,536,546,550,551,552,552,552,552,552,552,552,552,552,552,552,552,552,552,552,552,552,552,541,522,498,466,394,358,321,278,254,235,208,200,196,193,193,193,192,191,189,178,166,155,146,136,126,114,111,110,110,110,110,107,105,102,99,88,84,78,73,57,47,37,26],"timestamp_mouse":[10,34,47,69,87,107,127,148,168,187,209,227,247,268,288,307,328,348,369,388,409,427,448,469,487,508,527,548,567,587,607,628,649,667,687,707,727,748,767,788,809,828,849,867,887,907,927,948,967,988,1008,1027,1047,1067,1089,1108,1127,1151,1167,1188,1208,1227,1247,1268,1288,1307,1327,1349,1367,1387,1408],"xSR":741.5,"ySR":458.25,"xT1":424.9,"yT1":0,"xT2":1058.1,"yT2":0,"toosoon":0,"cond_shown":"Incongruent","ratio_trial":300,"L_num":1,"L_den":2,"R_num":2,"R_den":10,"correct_side":1,"subjID":"MaríaValentinaRincónParada6","gender":"1","school":"6","age":"10"},{"start_time":1551800799588,"click_time":1551800801443,"finger_time":1551800801163,"fix_duration":524.9863600173178,"trial":46,"RT":1575,"MT":280,"sideResp":2,"stimulus":[],"xmouse":[774,774,774,774,774,774,774,774,774,774,774,774,774,774,774,774,774,774,774,774,774,774,774,774,774,774,772,769,764,761,761,761,761,761,761,761,761,761,761,761,761,761,761,761,761,761,761,761,761,761,761,760,760,760,760,760,760,760,760,760,760,760,760,760,760,760,760,760,760,760,760,760,760,760,760,760,775,806,850,925,944,964,968,984,998,1032,1055,1078,1101,1118,1132,1135,1136],"ymouse":[496,496,496,496,496,496,496,496,496,496,496,496,496,496,496,496,496,496,496,496,496,496,496,496,496,496,494,491,488,486,486,486,486,486,486,486,486,486,486,486,486,486,486,486,486,486,486,486,486,486,486,486,486,486,486,486,486,486,486,486,486,486,486,486,486,486,486,486,486,486,486,486,486,486,486,486,479,467,446,400,384,356,349,323,308,268,242,213,184,157,121,103,99],"timestamp_mouse":[15,34,55,74,94,115,135,154,176,195,216,234,255,276,295,315,334,356,375,395,416,436,455,474,496,515,534,555,574,595,616,635,655,676,694,715,735,754,775,794,814,834,854,874,895,916,935,954,975,995,1015,1034,1054,1074,1094,1114,1134,1155,1175,1194,1214,1235,1254,1275,1295,1315,1335,1354,1375,1395,1415,1435,1456,1475,1494,1516,1534,1555,1575,1595,1614,1635,1656,1674,1695,1714,1734,1754,1775,1796,1816,1835,1855],"xSR":741.5,"ySR":458.25,"xT1":424.9,"yT1":0,"xT2":1058.1,"yT2":0,"toosoon":0,"cond_shown":"Incongruent","ratio_trial":100,"L_num":9,"L_den":15,"R_num":13,"R_den":26,"correct_side":1,"subjID":"MaríaValentinaRincónParada6","gender":"1","school":"6","age":"10"},{"start_time":1551800802634,"click_time":1551800804242,"finger_time":1551800802942,"fix_duration":251.9147435789343,"trial":47,"RT":308,"MT":1300,"sideResp":2,"stimulus":[],"xmouse":[794,794,794,794,794,794,794,794,794,794,794,794,794,793,777,739,693,659,659,659,659,660,661,667,670,671,671,668,666,663,656,647,635,610,601,595,590,587,580,577,574,568,561,541,533,530,530,530,530,530,530,530,530,530,563,570,581,587,590,593,611,637,711,753,794,834,866,890,918,932,948,969,980,1001,1009,1020,1030,1041,1061,1077,1086],"ymouse":[481,481,481,481,481,481,481,481,481,481,481,481,481,481,471,444,412,382,371,363,350,343,333,313,303,292,286,271,267,261,248,234,220,195,183,171,158,149,125,116,105,84,67,32,13,5,5,5,5,5,5,5,5,5,1,5,13,22,33,37,57,72,107,122,133,144,153,157,162,165,170,171,173,175,174,168,159,149,124,105,95],"timestamp_mouse":[9,36,50,68,88,109,130,149,170,188,208,228,248,269,288,308,328,349,368,388,409,428,448,468,488,508,529,549,568,589,608,628,648,668,689,708,728,748,769,789,809,828,848,869,889,908,929,949,968,988,1008,1028,1048,1068,1088,1108,1128,1149,1168,1188,1208,1228,1249,1268,1289,1309,1328,1348,1368,1388,1409,1428,1449,1469,1489,1508,1528,1548,1569,1589,1608],"xSR":741.5,"ySR":458.25,"xT1":424.9,"yT1":0,"xT2":1058.1,"yT2":0,"toosoon":0,"cond_shown":"Congruent","ratio_trial":200,"L_num":7,"L_den":15,"R_num":18,"R_den":27,"correct_side":2,"subjID":"MaríaValentinaRincónParada6","gender":"1","school":"6","age":"10"},{"start_time":1551800805514,"click_time":1551800806623,"finger_time":1551800805903,"fix_duration":250,"trial":48,"RT":389,"MT":720,"sideResp":1,"stimulus":[],"xmouse":[810,810,810,809,807,804,799,798,798,798,798,798,798,797,795,794,786,783,779,773,770,768,764,759,744,736,731,725,714,705,697,688,683,671,659,655,644,636,629,609,596,578,578,578,578,578,578,578,578,578,578,578,578,578,578,437],"ymouse":[517,517,517,517,516,514,510,509,509,509,509,509,509,508,506,503,491,484,475,444,425,402,376,353,311,293,280,262,245,236,229,221,212,192,172,164,144,131,114,70,43,13,13,13,13,13,13,13,13,13,13,13,13,13,13,8],"timestamp_mouse":[21,38,48,68,88,108,128,149,169,189,208,229,248,268,288,310,329,349,368,389,408,429,448,468,489,509,529,549,569,588,608,628,648,669,688,708,728,748,768,788,808,828,848,869,888,908,928,948,969,988,1009,1029,1049,1068,1089,1109],"xSR":741.5,"ySR":458.25,"xT1":424.9,"yT1":0,"xT2":1058.1,"yT2":0,"toosoon":0,"cond_shown":"Incongruent","ratio_trial":200,"L_num":14,"L_den":30,"R_num":12,"R_den":18,"correct_side":2,"subjID":"MaríaValentinaRincónParada6","gender":"1","school":"6","age":"10"},{"start_time":1551800811847,"click_time":1551800813002,"finger_time":1551800812462,"fix_duration":1024.762886987251,"trial":49,"RT":615,"MT":540,"sideResp":1,"stimulus":[],"xmouse":[777,777,777,777,777,777,777,777,777,777,777,777,777,777,777,777,777,777,777,777,777,777,777,777,777,777,777,782,783,784,789,790,788,781,771,754,727,689,678,675,674,674,674,674,674,674,661,653,646,637,621,610,590,583,575,564,539,520],"ymouse":[497,497,497,497,497,497,497,497,497,497,497,497,497,497,497,497,497,497,497,497,497,497,497,497,497,497,495,480,475,466,446,436,403,381,356,322,283,233,218,212,210,210,210,210,209,206,196,190,184,177,164,154,133,124,115,106,88,77],"timestamp_mouse":[16,36,56,76,96,115,136,157,175,195,216,236,255,275,295,315,335,357,375,395,417,435,456,475,496,516,536,557,575,596,615,635,655,676,696,716,735,755,775,797,816,836,856,875,897,916,936,955,975,995,1016,1036,1055,1075,1095,1115,1136,1155],"xSR":741.5,"ySR":458.25,"xT1":424.9,"yT1":0,"xT2":1058.1,"yT2":0,"toosoon":0,"cond_shown":"Incongruent","ratio_trial":100,"L_num":11,"L_den":22,"R_num":9,"R_den":15,"correct_side":2,"subjID":"MaríaValentinaRincónParada6","gender":"1","school":"6","age":"10"},{"start_time":1551800814699,"click_time":1551800815802,"finger_time":1551800815264,"fix_duration":847.9499809661487,"trial":50,"RT":565,"MT":538,"sideResp":2,"stimulus":[],"xmouse":[819,819,819,819,819,819,819,819,819,819,819,819,819,819,819,819,819,819,819,819,819,819,819,820,821,829,831,840,852,872,885,900,914,928,947,956,963,968,969,969,969,969,969,969,969,969,970,975,980,994,1009,1026,1047,1063,1081,1106],"ymouse":[511,511,511,511,511,511,511,511,511,511,511,511,511,511,511,511,511,511,511,511,511,511,511,511,511,488,483,466,438,392,365,330,295,251,184,161,146,138,136,135,135,135,135,135,135,135,135,136,136,137,134,128,119,112,102,87],"timestamp_mouse":[12,33,43,64,84,104,124,144,163,183,204,223,244,264,285,303,323,343,364,384,404,423,443,464,483,503,523,545,565,584,603,623,643,663,685,703,724,744,764,784,805,823,844,863,884,903,924,943,963,984,1003,1023,1043,1063,1084,1103],"xSR":741.5,"ySR":458.25,"xT1":424.9,"yT1":0,"xT2":1058.1,"yT2":0,"toosoon":0,"cond_shown":"Incongruent","ratio_trial":100,"L_num":1,"L_den":2,"R_num":8,"R_den":20,"correct_side":1,"subjID":"MaríaValentinaRincónParada6","gender":"1","school":"6","age":"10"},{"start_time":1551800817518,"click_time":1551800818322,"finger_time":1551800817882,"fix_duration":714.3790626803433,"trial":51,"RT":364,"MT":440,"sideResp":1,"stimulus":[],"xmouse":[776,776,776,776,776,776,777,777,777,777,777,777,777,777,777,777,777,774,756,742,732,719,704,682,676,673,667,662,654,629,606,580,560,535,530,529,529,529,529,527,521],"ymouse":[519,518,518,512,509,508,504,501,500,497,496,495,494,494,493,492,487,480,442,419,400,380,362,344,336,333,319,304,285,223,186,145,117,79,67,62,60,60,60,59,58],"timestamp_mouse":[8,35,45,64,84,105,124,144,165,184,204,224,244,265,284,304,325,345,364,384,405,424,446,465,484,504,524,545,565,584,604,624,644,666,684,705,725,746,766,785,804],"xSR":741.5,"ySR":458.25,"xT1":424.9,"yT1":0,"xT2":1058.1,"yT2":0,"toosoon":0,"cond_shown":"Congruent","ratio_trial":300,"L_num":20,"L_den":25,"R_num":9,"R_den":18,"correct_side":1,"subjID":"MaríaValentinaRincónParada6","gender":"1","school":"6","age":"10"},{"start_time":1551800820889,"click_time":1551800822063,"finger_time":1551800821483,"fix_duration":1266.6571485650766,"trial":52,"RT":594,"MT":580,"sideResp":1,"stimulus":[],"xmouse":[789,789,789,789,789,789,789,789,789,789,789,789,789,789,789,789,789,789,789,789,789,789,789,789,789,789,789,785,769,729,706,691,674,655,618,598,579,572,565,559,559,559,559,559,561,561,561,562,563,563,549,541,535,530,528,525,525,525,524],"ymouse":[493,493,493,493,493,493,493,493,493,493,493,493,493,493,493,493,493,493,493,493,493,493,493,493,493,493,490,480,462,416,389,369,350,337,309,294,273,261,249,229,222,216,210,205,196,193,189,184,174,166,139,126,114,107,102,97,96,96,95],"timestamp_mouse":[14,41,53,74,94,114,135,154,175,193,214,234,255,274,294,313,334,354,373,395,413,434,454,473,495,513,533,554,573,594,613,633,654,673,694,713,734,754,773,793,813,833,853,873,895,913,934,955,973,994,1013,1033,1053,1073,1093,1114,1134,1153,1173],"xSR":741.5,"ySR":458.25,"xT1":424.9,"yT1":0,"xT2":1058.1,"yT2":0,"toosoon":0,"cond_shown":"Incongruent","ratio_trial":300,"L_num":4,"L_den":20,"R_num":2,"R_den":4,"correct_side":2,"subjID":"MaríaValentinaRincónParada6","gender":"1","school":"6","age":"10"},{"start_time":1551800827765,"click_time":1551800828702,"finger_time":1551800828362,"fix_duration":1342.6810125443676,"trial":53,"RT":597,"MT":340,"sideResp":2,"stimulus":[],"xmouse":[805,805,805,805,805,805,806,806,806,806,806,807,807,809,809,810,810,810,811,812,813,813,814,814,814,816,822,830,841,855,885,904,924,954,972,981,997,1000,1006,1010,1014,1025,1031,1042,1049,1069,1078],"ymouse":[501,501,501,501,501,501,501,501,501,501,501,501,501,501,501,501,501,501,501,502,502,502,502,502,502,502,502,501,497,490,464,442,416,373,348,328,296,283,270,257,247,222,208,182,163,116,95],"timestamp_mouse":[17,39,57,77,98,117,137,157,177,198,217,238,258,277,297,317,338,359,378,399,418,438,457,477,498,517,537,558,578,597,619,637,657,677,697,717,737,758,777,798,818,837,857,877,897,919,937],"xSR":741.5,"ySR":458.25,"xT1":424.9,"yT1":0,"xT2":1058.1,"yT2":0,"toosoon":0,"cond_shown":"Congruent","ratio_trial":200,"L_num":3,"L_den":10,"R_num":11,"R_den":22,"correct_side":2,"subjID":"MaríaValentinaRincónParada6","gender":"1","school":"6","age":"10"},{"start_time":1551800829995,"click_time":1551800831244,"finger_time":1551800830743,"fix_duration":410.3950709999766,"trial":54,"RT":748,"MT":501,"sideResp":2,"stimulus":[],"xmouse":[787,787,787,787,787,787,787,787,787,787,787,787,787,787,787,787,787,787,7