[{"start_time":1551801190239,"click_time":1551801191224,"finger_time":1551801191063,"fix_duration":250,"trial":0,"RT":824,"MT":161,"sideResp":2,"stimulus":"img/900/equaldotanddens/R/7_Ratio_900_L_9_R_10.png","xmouse":[765,765,765,765,765,765,765,765,765,765,765,765,765,765,765,765,765,765,765,765,765,765,765,765,765,765,765,765,765,765,765,765,765,765,765,765,766,768,769,772,777,787,819,854,892,935,971,1017,1037,1070],"ymouse":[483,483,483,483,483,483,483,483,483,483,483,483,483,483,483,483,483,483,483,483,483,483,483,483,483,483,483,483,483,483,483,483,483,483,483,481,480,478,476,471,465,456,427,399,366,325,278,156,95,30],"timestamp_mouse":[9,25,44,64,85,104,124,144,164,184,204,225,244,265,284,304,325,344,364,385,405,424,444,464,485,504,524,544,565,584,606,625,644,664,685,704,725,744,764,784,805,824,844,864,884,905,924,945,965,984],"xSR":741.5,"ySR":458.25,"xT1":424.9,"yT1":0,"xT2":1058.1,"yT2":0,"toosoon":0,"cond_shown":"equaldotanddens","ratio_trial":900,"smaller_num":"9","larger_num":"10","correct_side":2,"subjID":"MaríaValentinaRincónParada6","gender":"1","age":"10","school":"6","test":{"fix_dur":[250,1500],"timestim":300,"targets_dim":[100,100],"targets_relative_coord":[0.3,0.7],"size_stim":[880,420],"start_dim":[100,100],"size_start":[300,300],"size_fix":60,"samplingrate":20,"img_types":["equaldotsize","equaldotanddens","randomdotsizeEA"],"ratios":[250,500,750,900],"rep_conds":9,"nTrials":120,"trials_to_rest":500,"Trials_order":[34,88,2,53,61,106,92,102,1,116,98,11,107,72,89,28,118,71,39,12,97,117,108,46,49,119,96,14,4,7,104,94,114,80,83,100,6,35,67,56,21,47,69,27,51,29,73,20,101,3,8,103,52,95,64,76,63,74,66,82,85,10,54,58,84,50,90,42,57,65,37,55,16,17,70,38,30,99,81,40,111,13,68,48,19,109,26,18,112,32,78,15,62,93,22,91,44,45,9,25,105,31,60,23,24,86,87,75,77,41,113,115,33,59,5,0,110,79,36,43],"cond_shown":["equaldotanddens","equaldotanddens","randomdotsizeEA","randomdotsizeEA","equaldotanddens","equaldotanddens","randomdotsizeEA","equaldotsize","equaldotanddens","randomdotsizeEA","randomdotsizeEA","randomdotsizeEA","randomdotsizeEA","equaldotsize","randomdotsizeEA","equaldotanddens","equaldotanddens","randomdotsizeEA","equaldotsize","equaldotsize","equaldotanddens","equaldotsize","equaldotsize","equaldotanddens","equaldotanddens","randomdotsizeEA","equaldotsize","randomdotsizeEA","equaldotanddens","equaldotanddens","randomdotsizeEA","equaldotanddens","equaldotsize","randomdotsizeEA","randomdotsizeEA","equaldotanddens","equaldotsize","randomdotsizeEA","equaldotanddens","randomdotsizeEA","equaldotsize","randomdotsizeEA","equaldotsize","equaldotsize","equaldotsize","randomdotsizeEA","equaldotanddens","randomdotsizeEA","randomdotsizeEA","equaldotsize","randomdotsizeEA","equaldotanddens","equaldotanddens","randomdotsizeEA","equaldotanddens","equaldotanddens","equaldotsize","randomdotsizeEA","equaldotsize","equaldotanddens","equaldotanddens","equaldotanddens","equaldotsize","equaldotanddens","equaldotsize","randomdotsizeEA","equaldotsize","equaldotsize","equaldotsize","randomdotsizeEA","equaldotanddens","equaldotanddens","equaldotanddens","randomdotsizeEA","equaldotanddens","randomdotsizeEA","equaldotsize","equaldotsize","equaldotsize","equaldotanddens","equaldotsize","equaldotanddens","randomdotsizeEA","equaldotsize","equaldotanddens","equaldotanddens","randomdotsizeEA","equaldotsize","equaldotanddens","randomdotsizeEA","equaldotsize","equaldotsize","randomdotsizeEA","equaldotsize","equaldotanddens","equaldotanddens","randomdotsizeEA","equaldotsize","equaldotsize","equaldotanddens","equaldotsize","equaldotanddens","equaldotsize","randomdotsizeEA","equaldotsize","randomdotsizeEA","equaldotsize","equaldotsize","randomdotsizeEA","randomdotsizeEA","randomdotsizeEA","equaldotanddens","equaldotsize","randomdotsizeEA","randomdotsizeEA","equaldotsize","randomdotsizeEA","equaldotanddens","equaldotsize","equaldotanddens"],"ratio_trial":[900,500,250,500,250,900,750,750,250,750,250,900,900,250,500,500,900,900,500,250,250,900,250,900,250,900,250,250,500,750,750,900,750,750,900,500,750,900,750,750,900,900,900,500,500,500,250,750,500,500,750,750,500,900,500,500,500,250,750,900,250,900,750,900,250,250,750,750,900,500,250,750,500,500,900,250,750,500,900,500,500,250,750,250,750,250,250,750,500,750,750,500,250,900,900,750,750,900,900,250,900,750,250,900,250,250,500,500,500,500,500,750,900,900,500,250,250,750,250,750],"smaller_num":["9","5","3","3","1","18","3","15","4","15","4","9","9","4","1","3","9","18","9","6","3","18","6","18","2","18","3","3","4","3","6","18","15","6","18","9","15","18","15","15","18","18","9","10","9","2","3","15","9","10","15","6","6","18","4","9","9","3","6","9","6","9","15","18","2","2","3","3","18","1","1","3","3","2","9","1","6","5","9","6","3","6","6","6","3","3","2","3","2","15","15","1","2","9","18","3","3","9","18","2","18","15","2","18","4","6","6","9","5","2","9","3","18","18","1","6","3","3","4","15"],"larger_num":["10","10","12","6","4","20","4","20","16","20","16","10","10","16","2","6","10","20","18","24","12","20","24","20","8","20","12","12","8","4","8","20","20","8","20","18","20","20","20","20","20","20","10","20","18","4","12","20","18","20","20","8","12","20","8","18","18","12","8","10","24","10","20","20","8","8","4","4","20","2","4","4","6","4","10","4","8","10","10","12","6","24","8","24","4","12","8","4","4","20","20","2","8","10","20","4","4","10","20","8","20","20","8","20","16","24","12","18","10","4","18","4","20","20","2","24","12","4","16","20"],"correct_side":[2,2,2,2,2,2,1,2,2,2,1,2,1,1,2,2,2,1,1,2,2,2,2,1,1,2,1,2,1,2,1,1,1,2,2,2,2,1,2,2,2,1,1,2,1,1,1,2,2,2,2,1,1,1,1,2,1,2,1,1,1,2,2,1,2,1,1,1,2,2,2,2,2,1,1,2,1,1,2,1,2,2,1,1,2,2,2,2,1,2,2,2,1,2,2,1,1,2,2,2,1,2,1,1,2,1,1,1,1,1,2,2,1,1,2,1,1,1,1,2],"img_shown":["img/900/equaldotanddens/R/7_Ratio_900_L_9_R_10.png","img/500/equaldotanddens/R/14_Ratio_500_L_5_R_10.png","img/250/randomdotsizeEA/R/11_Ratio_250_L_3_R_12.png","img/500/randomdotsizeEA/R/2_Ratio_500_L_3_R_6.png","img/250/equaldotanddens/R/8_Ratio_250_L_1_R_4.png","img/900/equaldotanddens/R/9_Ratio_900_L_18_R_20.png","img/750/randomdotsizeEA/L/8_Ratio_750_L_4_R_3.png","img/750/equaldotsize/R/3_Ratio_750_L_15_R_20.png","img/250/equaldotanddens/R/10_Ratio_250_L_4_R_16.png","img/750/randomdotsizeEA/R/5_Ratio_750_L_15_R_20.png","img/250/randomdotsizeEA/L/2_Ratio_250_L_16_R_4.png","img/900/randomdotsizeEA/R/3_Ratio_900_L_9_R_10.png","img/900/randomdotsizeEA/L/1_Ratio_900_L_10_R_9.png","img/250/equaldotsize/L/2_Ratio_250_L_16_R_4.png","img/500/randomdotsizeEA/R/15_Ratio_500_L_1_R_2.png","img/500/equaldotanddens/R/2_Ratio_500_L_3_R_6.png","img/900/equaldotanddens/R/3_Ratio_900_L_9_R_10.png","img/900/randomdotsizeEA/L/8_Ratio_900_L_20_R_18.png","img/500/equaldotsize/L/4_Ratio_500_L_18_R_9.png","img/250/equaldotsize/R/6_Ratio_250_L_6_R_24.png","img/250/equaldotanddens/R/9_Ratio_250_L_3_R_12.png","img/900/equaldotsize/R/14_Ratio_900_L_18_R_20.png","img/250/equaldotsize/R/6_Ratio_250_L_6_R_24.png","img/900/equaldotanddens/L/4_Ratio_900_L_20_R_18.png","img/250/equaldotanddens/L/3_Ratio_250_L_8_R_2.png","img/900/randomdotsizeEA/R/9_Ratio_900_L_18_R_20.png","img/250/equaldotsize/L/14_Ratio_250_L_12_R_3.png","img/250/randomdotsizeEA/R/4_Ratio_250_L_3_R_12.png","img/500/equaldotanddens/L/8_Ratio_500_L_8_R_4.png","img/750/equaldotanddens/R/12_Ratio_750_L_3_R_4.png","img/750/randomdotsizeEA/L/14_Ratio_750_L_8_R_6.png","img/900/equaldotanddens/L/10_Ratio_900_L_20_R_18.png","img/750/equaldotsize/L/1_Ratio_750_L_20_R_15.png","img/750/randomdotsizeEA/R/2_Ratio_750_L_6_R_8.png","img/900/randomdotsizeEA/R/11_Ratio_900_L_18_R_20.png","img/500/equaldotanddens/R/6_Ratio_500_L_9_R_18.png","img/750/equaldotsize/R/4_Ratio_750_L_15_R_20.png","img/900/randomdotsizeEA/L/10_Ratio_900_L_20_R_18.png","img/750/equaldotanddens/R/4_Ratio_750_L_15_R_20.png","img/750/randomdotsizeEA/R/4_Ratio_750_L_15_R_20.png","img/900/equaldotsize/R/13_Ratio_900_L_18_R_20.png","img/900/randomdotsizeEA/L/4_Ratio_900_L_20_R_18.png","img/900/equaldotsize/L/1_Ratio_900_L_10_R_9.png","img/500/equaldotsize/R/3_Ratio_500_L_10_R_20.png","img/500/equaldotsize/L/4_Ratio_500_L_18_R_9.png","img/500/randomdotsizeEA/L/10_Ratio_500_L_4_R_2.png","img/250/equaldotanddens/L/15_Ratio_250_L_12_R_3.png","img/750/randomdotsizeEA/R/5_Ratio_750_L_15_R_20.png","img/500/randomdotsizeEA/R/6_Ratio_500_L_9_R_18.png","img/500/equaldotsize/R/3_Ratio_500_L_10_R_20.png","img/750/randomdotsizeEA/R/5_Ratio_750_L_15_R_20.png","img/750/equaldotanddens/L/14_Ratio_750_L_8_R_6.png","img/500/equaldotanddens/L/11_Ratio_500_L_12_R_6.png","img/900/randomdotsizeEA/L/4_Ratio_900_L_20_R_18.png","img/500/equaldotanddens/L/8_Ratio_500_L_8_R_4.png","img/500/equaldotanddens/R/1_Ratio_500_L_9_R_18.png","img/500/equaldotsize/L/4_Ratio_500_L_18_R_9.png","img/250/randomdotsizeEA/R/4_Ratio_250_L_3_R_12.png","img/750/equaldotsize/L/14_Ratio_750_L_8_R_6.png","img/900/equaldotanddens/L/1_Ratio_900_L_10_R_9.png","img/250/equaldotanddens/L/5_Ratio_250_L_24_R_6.png","img/900/equaldotanddens/R/15_Ratio_900_L_9_R_10.png","img/750/equaldotsize/R/4_Ratio_750_L_15_R_20.png","img/900/equaldotanddens/L/4_Ratio_900_L_20_R_18.png","img/250/equaldotsize/R/13_Ratio_250_L_2_R_8.png","img/250/randomdotsizeEA/L/1_Ratio_250_L_8_R_2.png","img/750/equaldotsize/L/8_Ratio_750_L_4_R_3.png","img/750/equaldotsize/L/10_Ratio_750_L_4_R_3.png","img/900/equaldotsize/R/11_Ratio_900_L_18_R_20.png","img/500/randomdotsizeEA/R/15_Ratio_500_L_1_R_2.png","img/250/equaldotanddens/R/8_Ratio_250_L_1_R_4.png","img/750/equaldotanddens/R/7_Ratio_750_L_3_R_4.png","img/500/equaldotanddens/R/2_Ratio_500_L_3_R_6.png","img/500/randomdotsizeEA/L/10_Ratio_500_L_4_R_2.png","img/900/equaldotanddens/L/1_Ratio_900_L_10_R_9.png","img/250/randomdotsizeEA/R/8_Ratio_250_L_1_R_4.png","img/750/equaldotsize/L/14_Ratio_750_L_8_R_6.png","img/500/equaldotsize/L/7_Ratio_500_L_10_R_5.png","img/900/equaldotsize/R/6_Ratio_900_L_9_R_10.png","img/500/equaldotanddens/L/11_Ratio_500_L_12_R_6.png","img/500/equaldotsize/R/2_Ratio_500_L_3_R_6.png","img/250/equaldotanddens/R/6_Ratio_250_L_6_R_24.png","img/750/randomdotsizeEA/L/14_Ratio_750_L_8_R_6.png","img/250/equaldotsize/L/5_Ratio_250_L_24_R_6.png","img/750/equaldotanddens/R/12_Ratio_750_L_3_R_4.png","img/250/equaldotanddens/R/9_Ratio_250_L_3_R_12.png","img/250/randomdotsizeEA/R/13_Ratio_250_L_2_R_8.png","img/750/equaldotsize/R/7_Ratio_750_L_3_R_4.png","img/500/equaldotanddens/L/5_Ratio_500_L_4_R_2.png","img/750/randomdotsizeEA/R/5_Ratio_750_L_15_R_20.png","img/750/equaldotsize/R/5_Ratio_750_L_15_R_20.png","img/500/equaldotsize/R/12_Ratio_500_L_1_R_2.png","img/250/randomdotsizeEA/L/3_Ratio_250_L_8_R_2.png","img/900/equaldotsize/R/6_Ratio_900_L_9_R_10.png","img/900/equaldotanddens/R/12_Ratio_900_L_18_R_20.png","img/750/equaldotanddens/L/8_Ratio_750_L_4_R_3.png","img/750/randomdotsizeEA/L/8_Ratio_750_L_4_R_3.png","img/900/equaldotsize/R/7_Ratio_900_L_9_R_10.png","img/900/equaldotsize/R/14_Ratio_900_L_18_R_20.png","img/250/equaldotanddens/R/13_Ratio_250_L_2_R_8.png","img/900/equaldotsize/L/10_Ratio_900_L_20_R_18.png","img/750/equaldotanddens/R/5_Ratio_750_L_15_R_20.png","img/250/equaldotsize/L/7_Ratio_250_L_8_R_2.png","img/900/randomdotsizeEA/L/10_Ratio_900_L_20_R_18.png","img/250/equaldotsize/R/10_Ratio_250_L_4_R_16.png","img/250/randomdotsizeEA/L/5_Ratio_250_L_24_R_6.png","img/500/equaldotsize/L/13_Ratio_500_L_12_R_6.png","img/500/equaldotsize/L/4_Ratio_500_L_18_R_9.png","img/500/randomdotsizeEA/L/7_Ratio_500_L_10_R_5.png","img/500/randomdotsizeEA/L/5_Ratio_500_L_4_R_2.png","img/500/randomdotsizeEA/R/1_Ratio_500_L_9_R_18.png","img/750/equaldotanddens/R/7_Ratio_750_L_3_R_4.png","img/900/equaldotsize/L/10_Ratio_900_L_20_R_18.png","img/900/randomdotsizeEA/L/10_Ratio_900_L_20_R_18.png","img/500/randomdotsizeEA/R/15_Ratio_500_L_1_R_2.png","img/250/equaldotsize/L/5_Ratio_250_L_24_R_6.png","img/250/randomdotsizeEA/L/14_Ratio_250_L_12_R_3.png","img/750/equaldotanddens/L/10_Ratio_750_L_4_R_3.png","img/250/equaldotsize/L/2_Ratio_250_L_16_R_4.png","img/750/equaldotanddens/R/3_Ratio_750_L_15_R_20.png"],"Rat0":[["12_Ratio_0_L_9_R_0.png","13_Ratio_0_L_6_R_0.png","5_Ratio_0_L_2_R_0.png","6_Ratio_0_L_4_R_0.png","8_Ratio_0_L_6_R_0.png"],["1_Ratio_0_L_0_R_17.png","10_Ratio_0_L_0_R_22.png","11_Ratio_0_L_0_R_1.png","14_Ratio_0_L_0_R_24.png","15_Ratio_0_L_0_R_4.png","2_Ratio_0_L_0_R_5.png","3_Ratio_0_L_0_R_17.png","4_Ratio_0_L_0_R_7.png","7_Ratio_0_L_0_R_19.png","9_Ratio_0_L_0_R_15.png"]],"Rat250":[["1_Ratio_250_L_8_R_2.png","14_Ratio_250_L_12_R_3.png","15_Ratio_250_L_12_R_3.png","2_Ratio_250_L_16_R_4.png","3_Ratio_250_L_8_R_2.png","5_Ratio_250_L_24_R_6.png","7_Ratio_250_L_8_R_2.png"],["10_Ratio_250_L_4_R_16.png","11_Ratio_250_L_3_R_12.png","12_Ratio_250_L_5_R_20.png","13_Ratio_250_L_2_R_8.png","4_Ratio_250_L_3_R_12.png","6_Ratio_250_L_6_R_24.png","8_Ratio_250_L_1_R_4.png","9_Ratio_250_L_3_R_12.png"]],"Rat500":[["10_Ratio_500_L_4_R_2.png","11_Ratio_500_L_12_R_6.png","13_Ratio_500_L_12_R_6.png","4_Ratio_500_L_18_R_9.png","5_Ratio_500_L_4_R_2.png","7_Ratio_500_L_10_R_5.png","8_Ratio_500_L_8_R_4.png"],["1_Ratio_500_L_9_R_18.png","12_Ratio_500_L_1_R_2.png","14_Ratio_500_L_5_R_10.png","15_Ratio_500_L_1_R_2.png","2_Ratio_500_L_3_R_6.png","3_Ratio_500_L_10_R_20.png","6_Ratio_500_L_9_R_18.png","9_Ratio_500_L_2_R_4.png"]],"Rat750":[["1_Ratio_750_L_20_R_15.png","10_Ratio_750_L_4_R_3.png","13_Ratio_750_L_8_R_6.png","14_Ratio_750_L_8_R_6.png","6_Ratio_750_L_24_R_18.png","8_Ratio_750_L_4_R_3.png","9_Ratio_750_L_4_R_3.png"],["11_Ratio_750_L_12_R_16.png","12_Ratio_750_L_3_R_4.png","15_Ratio_750_L_9_R_12.png","2_Ratio_750_L_6_R_8.png","3_Ratio_750_L_15_R_20.png","4_Ratio_750_L_15_R_20.png","5_Ratio_750_L_15_R_20.png","7_Ratio_750_L_3_R_4.png"]],"Rat900":[["1_Ratio_900_L_10_R_9.png","10_Ratio_900_L_20_R_18.png","2_Ratio_900_L_20_R_18.png","4_Ratio_900_L_20_R_18.png","8_Ratio_900_L_20_R_18.png"],["11_Ratio_900_L_18_R_20.png","12_Ratio_900_L_18_R_20.png","13_Ratio_900_L_18_R_20.png","14_Ratio_900_L_18_R_20.png","15_Ratio_900_L_9_R_10.png","3_Ratio_900_L_9_R_10.png","5_Ratio_900_L_9_R_10.png","6_Ratio_900_L_9_R_10.png","7_Ratio_900_L_9_R_10.png","9_Ratio_900_L_18_R_20.png"]],"Rat1000":[["10_Ratio_1000_L_16_R_16.png","11_Ratio_1000_L_6_R_6.png","12_Ratio_1000_L_14_R_14.png","13_Ratio_1000_L_20_R_20.png","15_Ratio_1000_L_15_R_15.png","2_Ratio_1000_L_17_R_17.png","4_Ratio_1000_L_9_R_9.png","5_Ratio_1000_L_6_R_6.png","6_Ratio_1000_L_19_R_19.png","8_Ratio_1000_L_14_R_14.png","9_Ratio_1000_L_25_R_25.png"],["1_Ratio_1000_L_1_R_1.png","14_Ratio_1000_L_17_R_17.png","3_Ratio_1000_L_17_R_17.png","7_Ratio_1000_L_6_R_6.png"]]}},{"start_time":1551801193224,"click_time":1551801194304,"finger_time":1551801193763,"fix_duration":577.3181313228552,"trial":1,"RT":539,"MT":541,"sideResp":2,"stimulus":"img/500/equaldotanddens/R/14_Ratio_500_L_5_R_10.png","xmouse":[776,776,776,776,776,776,776,776,776,776,776,777,777,778,778,779,779,779,779,779,779,779,779,779,779,783,789,800,834,881,917,954,983,1021,1025,1026,1026,1026,1026,1025,1024,1024,1024,1024,1025,1028,1029,1031,1037,1040,1041,1044,1048,1057,1059],"ymouse":[469,469,469,469,469,469,469,469,469,469,469,469,469,469,469,469,469,469,469,469,469,469,469,469,469,465,459,445,393,304,235,173,120,58,50,48,48,48,48,48,49,54,57,61,62,62,62,62,60,60,59,57,56,55,54],"timestamp_mouse":[9,19,39,60,79,100,121,139,159,179,199,219,239,259,279,300,319,339,359,381,400,419,439,459,479,499,519,539,560,579,599,619,639,659,679,699,720,739,759,780,799,820,839,859,879,900,919,939,959,980,999,1019,1039,1060,1079],"xSR":741.5,"ySR":458.25,"xT1":424.9,"yT1":0,"xT2":1058.1,"yT2":0,"toosoon":0,"cond_shown":"equaldotanddens","ratio_trial":500,"smaller_num":"5","larger_num":"10","correct_side":2,"subjID":"MaríaValentinaRincónParada6","gender":"1","age":"10","school":"6"},{"start_time":1551801195981,"click_time":1551801197324,"finger_time":1551801196644,"fix_duration":615.9099469279851,"trial":2,"RT":663,"MT":680,"sideResp":2,"stimulus":"img/250/randomdotsizeEA/R/11_Ratio_250_L_3_R_12.png","xmouse":[788,788,788,788,788,788,788,788,788,788,788,788,788,788,788,788,788,788,788,788,788,788,789,789,789,789,789,789,790,790,791,791,791,789,779,755,751,746,741,736,730,730,729,728,725,716,712,711,711,714,748,775,817,845,875,914,927,938,954,969,994,1004,1008,1016,1020,1039,1055,1072],"ymouse":[481,481,481,481,481,481,481,481,481,481,481,481,481,481,481,481,481,481,481,481,482,482,482,482,482,482,482,482,481,481,477,468,463,436,412,367,352,339,331,324,317,315,311,306,298,279,270,265,263,260,256,256,249,238,226,202,191,181,171,163,149,141,137,131,127,110,99,92],"timestamp_mouse":[9,30,42,63,82,102,122,143,163,182,202,222,243,262,282,302,322,342,362,382,403,423,442,462,483,502,523,543,562,582,602,622,642,662,683,702,722,742,762,783,802,822,842,862,883,902,922,942,962,983,1002,1022,1042,1063,1082,1102,1123,1142,1163,1183,1202,1222,1242,1263,1284,1302,1322,1343],"xSR":741.5,"ySR":458.25,"xT1":424.9,"yT1":0,"xT2":1058.1,"yT2":0,"toosoon":0,"cond_shown":"randomdotsizeEA","ratio_trial":250,"smaller_num":"3","larger_num":"12","correct_side":2,"subjID":"MaríaValentinaRincónParada6","gender":"1","age":"10","school":"6"},{"start_time":1551801199212,"click_time":1551801200184,"finger_time":1551801199843,"fix_duration":1027.3766476643962,"trial":3,"RT":631,"MT":341,"sideResp":2,"stimulus":"img/500/randomdotsizeEA/R/2_Ratio_500_L_3_R_6.png","xmouse":[818,818,818,818,818,818,818,818,818,818,818,818,818,818,818,818,818,818,818,818,818,818,818,818,818,818,818,818,818,821,825,858,892,961,990,1017,1042,1066,1119,1139,1150,1155,1156,1156,1155,1154,1153,1152,1144],"ymouse":[514,514,514,514,514,514,514,514,514,514,514,514,514,514,514,514,514,514,514,514,514,514,514,514,514,514,514,514,514,514,510,487,464,412,390,367,343,318,259,236,218,201,195,188,183,176,162,142,85],"timestamp_mouse":[12,31,51,72,91,111,131,152,173,192,212,231,252,271,292,313,331,352,371,391,411,431,451,472,492,512,532,552,572,593,612,631,651,671,691,712,731,752,772,792,813,832,851,871,891,912,932,951,971],"xSR":741.5,"ySR":458.25,"xT1":424.9,"yT1":0,"xT2":1058.1,"yT2":0,"toosoon":0,"cond_shown":"randomdotsizeEA","ratio_trial":500,"smaller_num":"3","larger_num":"6","correct_side":2,"subjID":"MaríaValentinaRincónParada6","gender":"1","age":"10","school":"6"},{"start_time":1551801201467,"click_time":1551801202383,"finger_time":1551801201965,"fix_duration":301.84059621591996,"trial":4,"RT":498,"MT":418,"sideResp":2,"stimulus":"img/250/equaldotanddens/R/8_Ratio_250_L_1_R_4.png","xmouse":[790,790,790,790,790,790,790,790,790,790,790,790,790,790,790,790,790,790,790,790,792,795,800,815,838,885,901,924,938,951,975,990,1006,1020,1031,1039,1042,1042,1044,1045,1054,1061,1065,1071,1075,1080],"ymouse":[483,483,483,483,483,483,483,483,483,483,483,483,483,483,483,483,483,483,483,483,483,479,474,462,450,411,392,362,338,314,271,245,225,211,201,185,173,169,158,151,137,129,122,114,107,96],"timestamp_mouse":[28,36,56,78,97,117,136,156,177,197,217,236,257,277,296,317,338,357,376,397,416,436,456,476,498,516,536,556,577,597,616,636,657,676,698,717,737,756,777,797,817,837,856,876,898,916],"xSR":741.5,"ySR":458.25,"xT1":424.9,"yT1":0,"xT2":1058.1,"yT2":0,"toosoon":0,"cond_shown":"equaldotanddens","ratio_trial":250,"smaller_num":"1","larger_num":"4","correct_side":2,"subjID":"MaríaValentinaRincónParada6","gender":"1","age":"10","school":"6"},{"start_time":1551801204471,"click_time":1551801205564,"finger_time":1551801205083,"fix_duration":1185.648561373857,"trial":5,"RT":612,"MT":481,"sideResp":1,"stimulus":"img/900/equaldotanddens/R/9_Ratio_900_L_18_R_20.png","xmouse":[812,812,812,812,812,812,812,812,812,812,812,812,812,812,812,812,812,812,812,812,812,812,812,812,812,812,812,812,812,811,804,798,789,776,761,717,687,657,644,637,623,619,613,608,605,600,594,589,573,567,550,543,539,532,521],"ymouse":[494,494,494,494,494,494,494,494,494,494,494,494,494,494,494,494,494,494,494,494,494,494,494,494,494,494,494,494,490,480,441,416,393,368,344,299,278,255,240,225,194,184,172,159,151,130,113,106,89,83,75,74,72,71,70],"timestamp_mouse":[12,39,53,73,93,112,133,152,172,194,212,234,256,273,292,313,332,352,372,393,412,433,453,472,493,512,532,552,572,593,612,632,652,672,693,712,733,752,772,793,813,832,852,872,892,912,932,953,974,992,1013,1032,1052,1074,1093],"xSR":741.5,"ySR":458.25,"xT1":424.9,"yT1":0,"xT2":1058.1,"yT2":0,"toosoon":0,"cond_shown":"equaldotanddens","ratio_trial":900,"smaller_num":"18","larger_num":"20","correct_side":2,"subjID":"MaríaValentinaRincónParada6","gender":"1","age":"10","school":"6"},{"start_time":1551801207322,"click_time":1551801208363,"finger_time":1551801208123,"fix_duration":836.610936842207,"trial":6,"RT":801,"MT":240,"sideResp":1,"stimulus":"img/750/randomdotsizeEA/L/8_Ratio_750_L_4_R_3.png","xmouse":[828,828,828,828,828,828,828,828,828,828,828,828,828,828,828,828,828,828,828,828,828,828,828,828,828,828,828,829,823,822,822,822,822,822,822,822,822,822,819,814,801,787,774,739,711,642,587,547,507,497,482,468,455],"ymouse":[511,511,511,511,511,511,511,511,511,511,511,511,511,511,511,511,511,511,511,511,511,511,511,511,511,511,511,511,502,502,502,502,502,502,500,499,496,492,477,465,447,423,400,354,327,276,236,202,155,137,118,102,90],"timestamp_mouse":[9,22,43,62,82,102,123,141,161,181,202,221,241,263,281,301,322,341,363,382,403,422,442,462,482,502,523,542,561,582,601,621,641,661,682,701,722,741,761,781,801,822,841,861,881,901,921,941,961,981,1003,1022,1041],"xSR":741.5,"ySR":458.25,"xT1":424.9,"yT1":0,"xT2":1058.1,"yT2":0,"toosoon":0,"cond_shown":"randomdotsizeEA","ratio_trial":750,"smaller_num":"3","larger_num":"4","correct_side":1,"subjID":"MaríaValentinaRincónParada6","gender":"1","age":"10","school":"6"},{"start_time":1551801210128,"click_time":1551801211183,"finger_time":1551801210764,"fix_duration":1123.4346594421734,"trial":7,"RT":636,"MT":419,"sideResp":2,"stimulus":"img/750/equaldotsize/R/3_Ratio_750_L_15_R_20.png","xmouse":[819,819,819,819,819,819,819,819,819,819,819,819,819,819,819,819,819,819,819,819,819,819,819,819,819,819,819,819,821,826,838,856,920,963,972,991,999,1009,1016,1020,1023,1025,1032,1038,1044,1046,1050,1064,1072,1078,1082,1084,1090],"ymouse":[537,537,537,537,537,537,537,537,537,537,537,537,537,537,537,537,537,537,537,537,537,537,537,537,536,536,536,535,532,527,513,498,441,400,390,362,347,322,308,296,285,274,253,240,217,202,188,161,149,139,130,119,99],"timestamp_mouse":[17,37,57,76,95,117,136,156,175,197,215,235,255,276,295,316,336,355,376,396,416,435,456,476,495,515,535,556,575,596,615,636,656,675,696,716,735,757,776,795,815,837,855,877,895,915,936,955,976,995,1015,1036,1055],"xSR":741.5,"ySR":458.25,"xT1":424.9,"yT1":0,"xT2":1058.1,"yT2":0,"toosoon":0,"cond_shown":"equaldotsize","ratio_trial":750,"smaller_num":"15","larger_num":"20","correct_side":2,"subjID":"MaríaValentinaRincónParada6","gender":"1","age":"10","school":"6"},{"start_time":1551801214578,"click_time":1551801215723,"finger_time":1551801215243,"fix_duration":1073.9051475004399,"trial":8,"RT":665,"MT":480,"sideResp":2,"stimulus":"img/250/equaldotanddens/R/10_Ratio_250_L_4_R_16.png","xmouse":[801,801,801,801,801,801,801,801,801,801,801,801,801,801,801,801,801,801,801,801,801,801,801,801,801,801,801,801,801,801,807,826,834,871,893,922,934,942,949,955,967,975,983,998,1008,1019,1022,1027,1032,1036,1047,1053,1064,1072,1082,1103,1112,1122],"ymouse":[511,511,511,511,511,511,511,511,511,511,511,511,511,511,511,511,511,511,511,511,511,511,511,511,511,511,511,511,511,508,502,487,479,452,436,413,403,395,386,378,361,349,337,315,303,284,275,264,253,243,218,205,186,171,158,128,114,97],"timestamp_mouse":[9,31,46,66,86,106,126,147,166,186,207,226,247,267,286,305,327,345,365,386,405,426,446,465,487,506,525,545,567,586,606,627,646,665,687,706,725,745,766,787,806,826,845,866,885,905,925,946,965,986,1006,1025,1045,1065,1085,1106,1125,1145],"xSR":741.5,"ySR":458.25,"xT1":424.9,"yT1":0,"xT2":1058.1,"yT2":0,"toosoon":0,"cond_shown":"equaldotanddens","ratio_trial":250,"smaller_num":"4","larger_num":"16","correct_side":2,"subjID":"MaríaValentinaRincónParada6","gender":"1","age":"10","school":"6"},{"start_time":1551801217397,"click_time":1551801218784,"finger_time":1551801218124,"fix_duration":772.3783653269754,"trial":9,"RT":727,"MT":660,"sideResp":2,"stimulus":"img/750/randomdotsizeEA/R/5_Ratio_750_L_15_R_20.png","xmouse":[811,811,811,811,811,811,811,811,811,811,811,811,811,811,811,811,811,811,811,811,811,811,811,811,811,811,811,811,811,811,811,811,811,815,826,829,832,834,835,843,861,881,920,965,1028,1042,1055,1067,1076,1093,1101,1111,1114,1116,1118,1118,1118,1118,1119,1119,1119,1119,1119,1119,1120,1120,1120,1120,1120,1120],"ymouse":[491,491,491,491,491,491,491,491,491,491,491,491,491,491,491,491,491,491,491,491,491,491,491,491,491,491,491,491,491,491,491,491,490,484,466,459,454,452,450,437,419,402,373,338,283,263,243,228,216,192,181,163,152,143,133,131,129,127,124,122,120,118,114,111,106,104,103,101,100,97],"timestamp_mouse":[10,29,46,66,87,108,127,147,166,186,208,228,248,268,286,306,327,346,366,388,407,427,446,466,487,507,526,546,566,586,606,626,647,667,686,706,727,746,767,787,806,826,847,866,886,907,926,946,968,986,1007,1026,1046,1067,1086,1106,1126,1146,1167,1186,1206,1226,1247,1267,1286,1308,1327,1346,1366,1386],"xSR":741.5,"ySR":458.25,"xT1":424.9,"yT1":0,"xT2":1058.1,"yT2":0,"toosoon":0,"cond_shown":"randomdotsizeEA","ratio_trial":750,"smaller_num":"15","larger_num":"20","correct_side":2,"subjID":"MaríaValentinaRincónParada6","gender":"1","age":"10","school":"6"},{"start_time":1551801221164,"click_time":1551801222265,"finger_time":1551801221783,"fix_duration":1398.950788895721,"trial":10,"RT":619,"MT":482,"sideResp":1,"stimulus":"img/250/randomdotsizeEA/L/2_Ratio_250_L_16_R_4.png","xmouse":[793,793,793,793,793,793,793,793,793,793,793,793,793,793,793,793,793,793,793,793,793,793,793,793,793,793,793,793,792,792,792,782,771,755,749,747,742,738,734,732,729,718,709,695,685,675,655,641,627,614,602,581,563,550,535,519],"ymouse":[500,500,500,500,500,500,500,500,500,500,500,500,500,500,500,500,500,500,500,500,500,500,500,500,500,500,500,500,497,493,482,447,427,395,374,357,319,298,277,257,236,198,182,167,162,158,151,147,142,136,129,117,107,99,90,80],"timestamp_mouse":[1,28,39,59,80,100,119,140,159,179,201,220,241,261,280,300,320,341,359,380,401,419,440,461,480,501,519,539,560,580,599,619,640,659,680,699,719,739,759,779,800,820,840,859,879,900,919,939,960,980,1001,1019,1040,1059,1080,1100],"xSR":741.5,"ySR":458.25,"xT1":424.9,"yT1":0,"xT2":1058.1,"yT2":0,"toosoon":0,"cond_shown":"randomdotsizeEA","ratio_trial":250,"smaller_num":"4","larger_num":"16","correct_side":1,"subjID":"MaríaValentinaRincónParada6","gender":"1","age":"10","school":"6"},{"start_time":1551801223767,"click_time":1551801225144,"finger_time":1551801224583,"fix_duration":700.1075333156194,"trial":11,"RT":816,"MT":561,"sideResp":2,"stimulus":"img/900/randomdotsizeEA/R/3_Ratio_900_L_9_R_10.png","xmouse":[786,786,786,786,786,786,786,786,786,786,786,786,786,787,787,787,787,787,787,787,787,787,787,787,787,787,787,787,787,787,787,787,787,787,787,789,791,792,795,797,807,814,818,820,824,849,869,888,904,919,950,968,973,984,987,1000,1008,1018,1030,1040,1051,1056,1060,1068,1075,1086,1092,1099,1104],"ymouse":[507,507,507,507,507,507,507,507,507,507,507,507,507,508,508,508,508,508,508,508,508,508,508,508,508,508,508,508,508,508,508,508,508,508,508,503,497,490,480,465,428,411,394,388,383,373,362,350,337,322,292,276,272,260,255,240,230,221,208,198,183,175,168,155,145,126,115,105,92],"timestamp_mouse":[28,37,57,77,96,116,137,156,178,197,218,237,257,278,298,316,337,357,376,398,416,436,458,476,496,518,537,557,577,596,616,638,658,676,696,716,736,756,777,797,816,837,856,877,897,916,936,957,977,998,1016,1036,1057,1076,1096,1116,1136,1156,1176,1196,1216,1237,1256,1277,1297,1317,1337,1357,1376],"xSR":741.5,"ySR":458.25,"xT1":424.9,"yT1":0,"xT2":1058.1,"yT2":0,"toosoon":0,"cond_shown":"randomdotsizeEA","ratio_trial":900,"smaller_num":"9","larger_num":"10","correct_side":2,"subjID":"MaríaValentinaRincónParada6","gender":"1","age":"10","school":"6"},{"start_time":1551801226439,"click_time":1551801227463,"finger_time":1551801227084,"fix_duration":473.76283169737275,"trial":12,"RT":645,"MT":379,"sideResp":1,"stimulus":"img/900/randomdotsizeEA/L/1_Ratio_900_L_10_R_9.png","xmouse":[788,788,788,788,788,788,788,788,788,788,788,788,788,788,788,788,788,788,788,788,788,788,788,788,788,788,788,788,788,788,787,786,770,763,755,743,730,703,679,664,622,601,578,573,569,563,557,549,545,540,532,524],"ymouse":[494,494,494,494,494,494,494,494,494,494,494,494,494,494,494,494,494,494,494,494,494,494,494,494,494,494,494,494,494,494,488,480,450,433,416,397,376,325,287,270,223,196,162,149,140,131,126,116,112,104,96,88],"timestamp_mouse":[8,25,45,64,85,104,126,144,165,186,204,224,244,265,285,304,325,346,365,384,405,425,444,464,484,506,524,544,565,584,604,624,645,664,684,704,725,745,765,785,805,825,844,864,885,904,924,945,965,984,1004,1024],"xSR":741.5,"ySR":458.25,"xT1":424.9,"yT1":0,"xT2":1058.1,"yT2":0,"toosoon":0,"cond_shown":"randomdotsizeEA","ratio_trial":900,"smaller_num":"9","larger_num":"10","correct_side":1,"subjID":"MaríaValentinaRincónParada6","gender":"1","age":"10","school":"6"},{"start_time":1551801228455,"click_time":1551801229503,"finger_time":1551801228943,"fix_duration":250,"trial":13,"RT":488,"MT":560,"sideResp":1,"stimulus":"img/250/equaldotsize/L/2_Ratio_250_L_16_R_4.png","xmouse":[785,785,785,785,785,785,785,785,785,785,785,785,785,785,785,785,785,785,785,785,785,785,774,758,741,729,719,715,709,704,692,663,645,630,614,603,586,577,571,568,566,562,558,550,542,537,527,520,517,511,508,502,502],"ymouse":[513,513,513,513,513,513,513,513,513,513,513,513,513,513,513,513,513,513,513,513,513,513,513,509,501,494,477,463,438,420,397,348,324,303,280,262,233,219,208,200,190,170,161,153,148,146,142,139,137,131,124,103,88],"timestamp_mouse":[8,28,48,69,89,110,128,148,170,188,210,228,248,269,288,308,329,348,369,388,409,428,448,468,488,509,528,548,568,588,608,628,648,668,689,709,728,749,768,789,809,829,848,869,889,909,928,948,968,988,1009,1029,1048],"xSR":741.5,"ySR":458.25,"xT1":424.9,"yT1":0,"xT2":1058.1,"yT2":0,"toosoon":0,"cond_shown":"equaldotsize","ratio_trial":250,"smaller_num":"4","larger_num":"16","correct_side":1,"subjID":"MaríaValentinaRincónParada6","gender":"1","age":"10","school":"6"},{"start_time":1551801230796,"click_time":1551801231983,"finger_time":1551801231464,"fix_duration":411.92778032392954,"trial":14,"RT":668,"MT":519,"sideResp":2,"stimulus":"img/500/randomdotsizeEA/R/15_Ratio_500_L_1_R_2.png","xmouse":[784,784,784,784,784,784,784,784,784,784,784,784,784,784,784,784,784,784,784,784,784,784,784,784,784,784,784,785,785,790,795,807,813,821,846,867,888,910,928,958,972,985,999,1005,1018,1027,1035,1043,1050,1061,1064,1068,1071,1074,1080,1084,1090,1097,1101,1109],"ymouse":[524,524,524,524,524,524,524,524,524,524,524,524,524,524,524,524,524,524,524,524,524,524,524,524,524,524,524,523,523,513,503,487,472,457,421,402,384,366,348,313,297,284,265,256,238,227,215,203,191,169,163,154,148,143,134,127,119,112,106,96],"timestamp_mouse":[10,30,47,68,87,108,128,149,167,188,207,227,248,268,287,308,328,347,368,387,407,428,449,467,487,508,529,547,568,587,609,627,647,668,687,708,728,748,768,787,808,828,848,868,888,907,927,948,968,988,1009,1027,1048,1067,1087,1107,1127,1148,1168,1187],"xSR":741.5,"ySR":458.25,"xT1":424.9,"yT1":0,"xT2":1058.1,"yT2":0,"toosoon":0,"cond_shown":"randomdotsizeEA","ratio_trial":500,"smaller_num":"1","larger_num":"2","correct_side":2,"subjID":"MaríaValentinaRincónParada6","gender":"1","age":"10","school":"6"},{"start_time":1551801233323,"click_time":1551801234344,"finger_time":1551801233983,"fix_duration":338.59427962419863,"trial":15,"RT":660,"MT":361,"sideResp":2,"stimulus":"img/500/equaldotanddens/R/2_Ratio_500_L_3_R_6.png","xmouse":[792,792,792,792,792,792,792,792,792,792,792,792,792,792,792,792,792,792,792,792,792,792,792,792,792,792,792,792,792,792,804,812,836,904,944,966,993,1008,1029,1039,1048,1057,1067,1088,1095,1099,1100,1100,1102,1104,1104,1104],"ymouse":[486,486,486,486,486,486,486,486,486,486,486,486,486,486,486,486,486,486,486,486,486,486,486,486,486,486,486,486,486,486,479,475,460,409,375,354,319,298,267,251,232,212,188,150,137,125,122,119,113,108,103,98],"timestamp_mouse":[8,21,41,61,81,102,121,142,161,181,202,221,240,261,280,301,321,340,361,380,401,421,441,460,481,500,521,540,561,580,600,620,642,660,680,700,720,741,760,780,800,821,840,861,881,900,920,940,960,980,1001,1020],"xSR":741.5,"ySR":458.25,"xT1":424.9,"yT1":0,"xT2":1058.1,"yT2":0,"toosoon":0,"cond_shown":"equaldotanddens","ratio_trial":500,"smaller_num":"3","larger_num":"6","correct_side":2,"subjID":"MaríaValentinaRincónParada6","gender":"1","age":"10","school":"6"},{"start_time":1551801236321,"click_time":1551801237524,"finger_time":1551801236963,"fix_duration":973.6915558997906,"trial":16,"RT":642,"MT":561,"sideResp":2,"stimulus":"img/900/equaldotanddens/R/3_Ratio_900_L_9_R_10.png","xmouse":[803,803,803,803,803,803,803,803,803,803,803,803,803,803,803,803,803,803,803,803,803,803,803,803,803,803,803,803,803,807,816,835,855,870,872,872,872,872,869,867,867,867,867,868,871,875,885,893,919,935,952,970,985,1013,1024,1042,1053,1063,1075,1081,1085],"ymouse":[511,511,511,511,511,511,511,511,511,511,511,511,511,511,511,511,511,511,511,511,511,511,511,511,511,511,511,511,511,509,500,489,475,457,454,453,452,452,450,449,448,445,441,426,414,401,378,361,327,310,295,278,261,225,210,184,166,148,119,107,98],"timestamp_mouse":[8,23,43,64,82,103,123,142,163,182,204,224,244,263,284,303,322,342,364,383,402,422,444,463,483,502,523,544,563,582,604,623,642,662,684,703,723,742,762,783,802,822,843,862,883,902,922,942,964,982,1003,1022,1044,1062,1083,1102,1122,1142,1162,1182,1203],"xSR":741.5,"ySR":458.25,"xT1":424.9,"yT1":0,"xT2":1058.1,"yT2":0,"toosoon":0,"cond_shown":"equaldotanddens","ratio_trial":900,"smaller_num":"9","larger_num":"10","correct_side":2,"subjID":"MaríaValentinaRincónParada6","gender":"1","age":"10","school":"6"},{"start_time":1551801238377,"click_time":1551801239843,"finger_time":1551801239083,"fix_duration":250,"trial":17,"RT":706,"MT":760,"sideResp":1,"stimulus":"img/900/randomdotsizeEA/L/8_Ratio_900_L_20_R_18.png","xmouse":[769,769,769,769,769,769,769,769,769,769,769,769,769,769,769,769,769,769,769,769,769,769,769,769,769,769,769,769,769,768,768,767,765,765,761,757,756,751,745,738,721,712,702,696,692,686,684,682,680,678,674,670,661,653,646,631,624,615,608,598,584,579,574,568,560,550,548,548,545,544,538,534,526,524],"ymouse":[511,511,511,511,511,511,511,511,511,511,511,511,511,511,511,511,511,511,511,511,511,511,511,511,511,511,511,511,511,511,505,496,482,476,467,452,442,427,413,398,360,340,318,303,294,280,275,268,262,256,239,229,211,199,191,181,177,170,165,158,146,143,138,134,129,121,118,115,113,110,101,95,85,83],"timestamp_mouse":[7,33,47,66,87,107,127,148,166,188,207,227,248,266,287,306,328,348,367,387,407,426,448,466,487,507,526,546,567,586,606,627,646,666,687,706,726,747,766,786,806,826,846,866,887,907,926,946,966,987,1007,1026,1046,1067,1086,1106,1126,1146,1166,1188,1206,1226,1246,1267,1286,1307,1326,1347,1367,1388,1406,1426,1446,1466],"xSR":741.5,"ySR":458.25,"xT1":424.9,"yT1":0,"xT2":1058.1,"yT2":0,"toosoon":0,"cond_shown":"randomdotsizeEA","ratio_trial":900,"smaller_num":"18","larger_num":"20","correct_side":1,"subjID":"MaríaValentinaRincónParada6","gender":"1","age":"10","school":"6"},{"start_time":1551801242063,"click_time":1551801243163,"finger_time":1551801242703,"fix_duration":1378.8772258311403,"trial":18,"RT":640,"MT":460,"sideResp":1,"stimulus":"img/500/equaldotsize/L/4_Ratio_500_L_18_R_9.png","xmouse":[771,771,771,771,771,771,771,771,771,771,771,771,771,771,771,771,771,771,771,771,771,771,771,771,771,771,771,771,771,771,773,775,775,774,759,748,719,704,666,638,611,579,569,560,549,542,541,540,540,540,539,536,531,527,522,518],"ymouse":[504,504,504,504,504,504,504,504,504,504,504,504,504,504,504,504,504,504,504,504,504,504,504,504,504,504,504,504,504,504,504,479,457,425,383,344,277,255,223,211,197,175,165,157,148,143,142,141,140,138,133,121,113,108,101,97],"timestamp_mouse":[12,28,40,61,80,100,121,141,162,180,200,220,240,260,281,301,321,341,361,380,401,420,442,460,481,502,520,542,562,580,600,621,640,661,681,701,721,740,760,780,801,821,840,861,880,900,921,942,960,980,1001,1021,1040,1061,1080,1100],"xSR":741.5,"ySR":458.25,"xT1":424.9,"yT1":0,"xT2":1058.1,"yT2":0,"toosoon":0,"cond_shown":"equaldotsize","ratio_trial":500,"smaller_num":"9","larger_num":"18","correct_side":1,"subjID":"MaríaValentinaRincónParada6","gender":"1","age":"10","school":"6"},{"start_time":1551801244253,"click_time":1551801245423,"finger_time":1551801244764,"fix_duration":468.0143063848615,"trial":19,"RT":511,"MT":659,"sideResp":2,"stimulus":"img/250/equaldotsize/R/6_Ratio_250_L_6_R_24.png","xmouse":[822,822,822,822,822,822,822,822,822,822,822,822,822,822,822,822,822,822,822,822,822,821,822,826,833,844,864,886,896,924,940,981,998,1013,1025,1031,1036,1038,1042,1044,1045,1045,1045,1045,1045,1046,1050,1053,1059,1063,1065,1070,1073,1077,1080,1083,1086,1087,1088],"ymouse":[534,534,534,534,534,534,534,534,534,534,534,534,534,534,534,534,534,534,534,534,534,534,528,519,508,493,468,443,434,408,393,355,337,318,300,284,258,248,231,221,210,189,180,170,165,162,158,156,152,149,147,143,139,135,129,124,111,105,94],"timestamp_mouse":[10,31,50,70,91,111,131,150,171,191,210,232,252,271,292,311,331,352,370,392,412,432,450,470,491,511,530,550,571,592,611,631,650,670,690,711,730,751,770,790,811,830,851,870,891,910,931,951,970,992,1010,1031,1050,1071,1091,1112,1130,1151,1170],"xSR":741.5,"ySR":458.25,"xT1":424.9,"yT1":0,"xT2":1058.1,"yT2":0,"toosoon":0,"cond_shown":"equaldotsize","ratio_trial":250,"smaller_num":"6","larger_num":"24","correct_side":2,"subjID":"MaríaValentinaRincónParada6","gender":"1","age":"10","school":"6"},{"start_time":1551801246661,"click_time":1551801247784,"finger_time":1551801247183,"fix_duration":377.12339649995687,"trial":20,"RT":522,"MT":601,"sideResp":2,"stimulus":"img/250/equaldotanddens/R/9_Ratio_250_L_3_R_12.png","xmouse":[753,753,753,753,753,753,753,753,753,753,753,753,753,753,753,753,753,753,753,753,753,753,753,754,770,792,860,902,925,943,958,988,1002,1013,1025,1036,1049,1050,1051,1053,1057,1063,1067,1071,1073,1075,1078,1079,1081,1084,1085,1087,1089,1091,1095,1098,1103],"ymouse":[495,495,495,495,495,495,495,495,495,495,495,495,495,495,495,495,495,495,495,495,495,495,495,496,490,479,444,412,393,372,354,314,294,274,256,240,218,216,213,209,203,192,184,176,170,165,159,156,152,148,145,136,131,122,113,102,83],"timestamp_mouse":[9,32,43,62,84,103,124,142,163,183,202,223,242,263,284,302,323,344,363,382,402,424,442,464,483,502,522,542,562,582,603,622,642,662,682,703,722,743,763,783,803,824,842,862,882,902,923,943,974,983,1002,1023,1042,1063,1082,1104,1123],"xSR":741.5,"ySR":458.25,"xT1":424.9,"yT1":0,"xT2":1058.1,"yT2":0,"toosoon":0,"cond_shown":"equaldotanddens","ratio_trial":250,"smaller_num":"3","larger_num":"12","correct_side":2,"subjID":"MaríaValentinaRincónParada6","gender":"1","age":"10","school":"6"},{"start_time":1551801250304,"click_time":1551801251423,"finger_time":1551801250811,"fix_duration":419.59874899362757,"trial":21,"RT":507,"MT":612,"sideResp":2,"stimulus":"img/900/equaldotsize/R/14_Ratio_900_L_18_R_20.png","xmouse":[810,810,810,810,810,810,810,810,810,810,810,810,810,810,810,810,810,810,810,810,810,810,810,810,822,830,839,845,866,879,889,904,921,938,940,940,940,940,940,940,943,953,965,1003,1024,1047,1053,1053,1053,1053,1053,1053,1053,1058,1061,1078],"ymouse":[472,472,472,472,472,472,472,472,472,472,472,472,472,472,472,472,472,472,472,472,472,472,472,472,457,442,418,397,341,311,282,250,207,164,154,146,143,143,143,143,142,139,136,125,123,117,115,115,115,115,115,115,115,110,107,95],"timestamp_mouse":[24,39,61,79,100,119,140,161,180,199,220,239,261,279,299,321,340,360,379,401,420,440,459,479,507,519,540,559,580,599,619,639,660,679,701,719,739,760,780,799,819,840,859,879,899,919,940,960,980,1001,1020,1039,1060,1079,1101,1119],"xSR":741.5,"ySR":458.25,"xT1":424.9,"yT1":0,"xT2":1058.1,"yT2":0,"toosoon":0,"cond_shown":"equaldotsize","ratio_trial":900,"smaller_num":"18","larger_num":"20","correct_side":2,"subjID":"MaríaValentinaRincónParada6","gender":"1","age":"10","school":"6"},{"start_time":1551801253203,"click_time":1551801254165,"finger_time":1551801253683,"fix_duration":518.2124689228508,"trial":22,"RT":480,"MT":482,"sideResp":2,"stimulus":"img/250/equaldotsize/R/6_Ratio_250_L_6_R_24.png","xmouse":[776,776,776,776,776,776,776,776,776,776,776,776,776,776,776,776,776,776,776,776,776,776,778,793,854,899,932,964,988,1026,1043,1049,1064,1069,1070,1070,1070,1069,1068,1067,1069,1074,1076,1079,1086,1090,1093,1095,1097],"ymouse":[525,525,525,525,525,525,525,525,525,525,525,525,525,525,525,525,525,525,525,525,525,525,525,521,498,474,452,420,382,312,270,255,224,207,191,186,181,176,171,160,153,143,137,130,115,109,104,101,97],"timestamp_mouse":[8,27,40,62,81,100,121,140,160,181,200,222,240,262,281,301,321,341,360,380,401,422,441,461,480,500,520,541,562,580,600,620,641,661,681,700,720,741,760,780,801,820,840,861,880,900,920,941,961],"xSR":741.5,"ySR":458.25,"xT1":424.9,"yT1":0,"xT2":1058.1,"yT2":0,"toosoon":0,"cond_shown":"equaldotsize","ratio_trial":250,"smaller_num":"6","larger_num":"24","correct_side":2,"subjID":"MaríaValentinaRincónParada6","gender":"1","age":"10","school":"6"},{"start_time":1551801255436,"click_time":1551801256484,"finger_time":1551801256084,"fix_duration":250,"trial":23,"RT":648,"MT":400,"sideResp":1,"stimulus":"img/900/equaldotanddens/L/4_Ratio_900_L_20_R_18.png","xmouse":[809,809,809,809,809,809,809,809,809,809,809,809,809,809,809,809,809,809,809,809,809,809,809,809,809,809,809,808,801,775,759,749,737,731,719,709,698,663,642,624,615,610,598,590,581,569,558,537,527,521,512,508,503],"ymouse":[508,508,508,508,508,508,508,508,508,508,508,508,508,508,508,508,508,508,508,508,508,508,508,508,508,508,508,507,498,487,479,474,464,456,441,427,410,369,345,316,297,282,248,229,210,191,171,139,126,116,106,101,97],"timestamp_mouse":[8,28,48,69,88,108,128,148,169,188,207,228,247,267,287,307,327,348,369,389,408,428,447,467,489,509,528,547,568,587,608,628,648,667,688,708,727,747,768,787,808,828,848,867,888,907,928,947,968,987,1009,1028,1048],"xSR":741.5,"ySR":458.25,"xT1":424.9,"yT1":0,"xT2":1058.1,"yT2":0,"toosoon":0,"cond_shown":"equaldotanddens","ratio_trial":900,"smaller_num":"18","larger_num":"20","correct_side":1,"subjID":"MaríaValentinaRincónParada6","gender":"1","age":"10","school":"6"},{"start_time":1551801257796,"click_time":1551801258684,"finger_time":1551801258324,"fix_duration":371.9936704257013,"trial":24,"RT":528,"MT":360,"sideResp":1,"stimulus":"img/250/equaldotanddens/L/3_Ratio_250_L_8_R_2.png","xmouse":[809,809,809,809,809,809,809,809,809,809,809,809,809,809,809,809,809,809,809,809,809,809,809,809,794,762,723,681,649,587,550,519,498,493,489,487,487,487,488,498,503,508,510,510,505],"ymouse":[507,507,507,507,507,507,507,507,507,507,507,507,507,507,507,507,507,507,507,507,507,507,507,507,498,476,447,415,390,336,303,274,236,212,177,167,163,161,157,148,140,126,115,102,82],"timestamp_mouse":[16,33,49,67,87,107,128,147,168,188,207,229,247,268,287,307,328,348,367,388,407,427,448,467,487,507,528,547,568,587,607,627,647,667,687,707,728,748,767,787,808,827,848,868,888],"xSR":741.5,"ySR":458.25,"xT1":424.9,"yT1":0,"xT2":1058.1,"yT2":0,"toosoon":0,"cond_shown":"equaldotanddens","ratio_trial":250,"smaller_num":"2","larger_num":"8","correct_side":1,"subjID":"MaríaValentinaRincónParada6","gender":"1","age":"10","school":"6"},{"start_time":1551801262190,"click_time":1551801263483,"finger_time":1551801262782,"fix_duration":1365.505069046141,"trial":25,"RT":592,"MT":701,"sideResp":2,"stimulus":"img/900/randomdotsizeEA/R/9_Ratio_900_L_18_R_20.png","xmouse":[795,795,795,795,795,795,795,795,795,795,795,795,795,795,795,795,795,795,795,795,795,794,794,793,792,792,792,792,792,797,808,818,826,832,851,866,887,909,926,962,978,1000,1009,1014,1019,1022,1025,1027,1027,1028,1035,1048,1060,1069,1075,1075,1076,1076,1078,1080,1081,1083,1083,1087,1094],"ymouse":[510,510,510,510,510,510,510,510,510,510,510,510,510,510,510,510,510,510,510,510,510,508,502,495,485,480,475,468,459,434,416,392,375,361,336,327,317,307,298,273,259,238,226,217,207,201,195,189,185,180,172,163,153,144,131,128,124,121,118,115,113,110,106,100,85],"timestamp_mouse":[14,35,53,73,93,114,132,153,173,194,212,233,253,272,294,313,332,354,372,392,413,432,454,473,492,512,533,553,573,592,613,632,652,672,693,712,733,753,772,792,813,832,852,873,893,912,934,953,972,992,1012,1032,1054,1073,1093,1112,1134,1154,1174,1192,1213,1232,1254,1274,1293],"xSR":741.5,"ySR":458.25,"xT1":424.9,"yT1":0,"xT2":1058.1,"yT2":0,"toosoon":0,"cond_shown":"randomdotsizeEA","ratio_trial":900,"smaller_num":"18","larger_num":"20","correct_side":2,"subjID":"MaríaValentinaRincónParada6","gender":"1","age":"10","school":"6"},{"start_time":1551801265421,"click_time":1551801266582,"finger_time":1551801265963,"fix_duration":1095.9447590485634,"trial":26,"RT":542,"MT":619,"sideResp":1,"stimulus":"img/250/equaldotsize/L/14_Ratio_250_L_12_R_3.png","xmouse":[811,811,811,811,811,811,811,811,811,811,811,811,811,811,811,811,811,811,811,811,811,811,811,809,804,797,789,781,756,737,711,698,688,669,652,631,612,599,593,593,593,591,585,574,572,568,564,559,552,550,550,550,549,542,539,536,534,532,524],"ymouse":[501,501,501,501,501,501,501,501,501,501,501,501,501,501,501,501,501,501,501,501,501,501,501,501,491,479,464,450,419,403,379,361,337,275,237,200,171,152,142,142,142,140,136,129,128,126,125,122,119,118,118,117,116,113,111,108,106,104,98],"timestamp_mouse":[9,23,42,62,82,102,121,143,163,183,203,221,242,262,282,301,322,341,361,383,403,422,442,462,481,510,522,542,561,582,601,621,642,661,681,702,722,741,762,782,801,822,842,862,881,902,922,942,961,982,1001,1022,1042,1062,1081,1101,1126,1143,1161],"xSR":741.5,"ySR":458.25,"xT1":424.9,"yT1":0,"xT2":1058.1,"yT2":0,"toosoon":0,"cond_shown":"equaldotsize","ratio_trial":250,"smaller_num":"3","larger_num":"12","correct_side":1,"subjID":"MaríaValentinaRincónParada6","gender":"1","age":"10","school":"6"},{"start_time":1551801268594,"click_time":1551801269843,"finger_time":1551801269143,"fix_duration":1190.9794089838826,"trial":27,"RT":549,"MT":700,"sideResp":2,"stimulus":"img/250/randomdotsizeEA/R/4_Ratio_250_L_3_R_12.png","xmouse":[756,757,757,757,757,757,757,757,757,757,757,757,757,757,757,757,757,757,757,758,759,759,759,759,760,764,771,782,796,832,859,866,890,901,920,928,935,942,947,953,956,961,965,969,981,989,996,1005,1011,1021,1026,1031,1040,1044,1049,1050,1052,1054,1057,1062,1065,1068,1069],"ymouse":[527,527,527,527,527,527,527,527,527,527,527,527,527,527,527,527,527,527,526,522,517,511,507,505,496,486,472,458,441,408,383,375,345,328,300,291,283,276,272,266,264,258,252,247,232,222,212,201,190,174,166,157,144,139,132,130,127,123,119,112,106,100,98],"timestamp_mouse":[13,31,49,69,88,108,128,148,169,190,208,229,250,268,288,308,329,350,369,388,408,428,450,469,488,508,528,549,569,588,608,629,650,669,690,708,728,749,770,788,809,828,849,869,888,908,928,949,969,988,1008,1029,1050,1069,1088,1108,1128,1148,1168,1189,1210,1228,1249],"xSR":741.5,"ySR":458.25,"xT1":424.9,"yT1":0,"xT2":1058.1,"yT2":0,"toosoon":0,"cond_shown":"randomdotsizeEA","ratio_trial":250,"smaller_num":"3","larger_num":"12","correct_side":2,"subjID":"MaríaValentinaRincónParada6","gender":"1","age":"10","school":"6"},{"start_time":1551801271454,"click_time":1551801272364,"finger_time":1551801271923,"fix_duration":250,"trial":28,"RT":469,"MT":441,"sideResp":1,"stimulus":"img/500/equaldotanddens/L/8_Ratio_500_L_8_R_4.png","xmouse":[793,793,793,793,793,793,793,793,793,793,793,793,793,793,793,793,793,793,793,794,795,801,802,802,792,776,740,719,688,666,647,602,581,570,560,555,553,553,553,553,552,546,539,533,528,524],"ymouse":[502,502,502,502,502,501,500,500,500,500,500,500,500,500,500,500,500,500,500,499,498,485,472,450,426,398,351,329,297,275,255,212,186,166,145,128,112,105,104,96,91,77,65,57,51,48],"timestamp_mouse":[11,38,49,68,90,110,130,150,169,188,209,230,248,268,289,309,329,349,370,390,409,428,448,469,488,509,528,549,568,588,609,629,648,669,689,709,728,749,768,788,809,828,848,868,888,909],"xSR":741.5,"ySR":458.25,"xT1":424.9,"yT1":0,"xT2":1058.1,"yT2":0,"toosoon":0,"cond_shown":"equaldotanddens","ratio_trial":500,"smaller_num":"4","larger_num":"8","correct_side":1,"subjID":"MaríaValentinaRincónParada6","gender":"1","age":"10","school":"6"},{"start_time":1551801273375,"click_time":1551801274003,"finger_time":1551801273763,"fix_duration":250,"trial":29,"RT":388,"MT":240,"sideResp":2,"stimulus":"img/750/equaldotanddens/R/12_Ratio_750_L_3_R_4.png","xmouse":[801,801,801,801,801,801,801,801,801,801,801,801,801,801,803,812,819,826,834,844,866,879,900,916,930,960,968,977,992,1010,1055,1074],"ymouse":[528,528,528,528,528,528,528,528,528,528,528,528,528,528,527,517,507,498,488,476,449,431,400,370,336,263,239,214,184,152,93,72],"timestamp_mouse":[9,34,48,68,87,108,128,147,169,187,208,227,249,267,287,307,327,348,368,388,407,428,447,468,487,507,528,548,568,588,607,628],"xSR":741.5,"ySR":458.25,"xT1":424.9,"yT1":0,"xT2":1058.1,"yT2":0,"toosoon":0,"cond_shown":"equaldotanddens","ratio_trial":750,"smaller_num":"3","larger_num":"4","correct_side":2,"subjID":"MaríaValentinaRincónParada6","gender":"1","age":"10","school":"6"},{"start_time":1551801275623,"click_time":1551801276562,"finger_time":1551801276063,"fix_duration":719.5898865204719,"trial":30,"RT":440,"MT":499,"sideResp":1,"stimulus":"img/750/randomdotsizeEA/L/14_Ratio_750_L_8_R_6.png","xmouse":[790,790,790,790,790,790,790,790,790,790,790,790,790,790,790,790,790,790,797,808,821,841,851,867,877,886,894,897,899,896,887,880,868,838,815,794,769,747,705,684,658,646,635,600,580,558,533,504],"ymouse":[529,529,529,529,529,529,529,529,529,529,529,529,529,529,529,529,529,529,524,518,511,502,493,473,459,443,425,406,365,343,315,297,280,246,229,212,195,181,160,152,142,138,135,125,117,107,96,83],"timestamp_mouse":[1,19,41,60,81,99,121,141,160,180,199,221,241,259,280,299,319,341,359,379,400,420,440,460,479,500,520,539,559,579,599,620,640,660,679,700,720,740,760,780,799,820,840,859,879,900,919,939],"xSR":741.5,"ySR":458.25,"xT1":424.9,"yT1":0,"xT2":1058.1,"yT2":0,"toosoon":0,"cond_shown":"randomdotsizeEA","ratio_trial":750,"smaller_num":"6","larger_num":"8","correct_side":1,"subjID":"MaríaValentinaRincónParada6","gender":"1","age":"10","school":"6"},{"start_time":1551801279263,"click_time":1551801280143,"finger_time":1551801279863,"fix_duration":259.71766587058977,"trial":31,"RT":600,"MT":280,"sideResp":1,"stimulus":"img/900/equaldotanddens/L/10_Ratio_900_L_20_R_18.png","xmouse":[786,786,786,786,786,786,786,786,786,786,786,786,786,786,786,786,786,786,786,786,786,786,786,786,786,786,784,784,777,769,754,726,711,698,682,667,634,620,600,585,569,541,532,525,520],"ymouse":[525,525,525,525,525,525,525,525,525,525,525,525,525,525,525,525,525,525,525,525,525,525,525,525,525,524,513,511,495,478,457,403,365,336,300,271,225,209,188,175,161,126,110,97,87],"timestamp_mouse":[1,29,40,59,80,100,120,140,160,179,201,219,241,259,281,299,320,340,360,381,399,420,439,460,479,499,520,540,559,580,600,620,639,659,679,699,720,741,759,779,799,820,840,861,880],"xSR":741.5,"ySR":458.25,"xT1":424.9,"yT1":0,"xT2":1058.1,"yT2":0,"toosoon":0,"cond_shown":"equaldotanddens","ratio_trial":900,"smaller_num":"18","larger_num":"20","correct_side":1,"subjID":"MaríaValentinaRincónParada6","gender":"1","age":"10","school":"6"},{"start_time":1551801282242,"click_time":1551801283203,"finger_time":1551801282882,"fix_duration":1258.5945457844077,"trial":32,"RT":640,"MT":321,"sideResp":1,"stimulus":"img/750/equaldotsize/L/1_Ratio_750_L_20_R_15.png","xmouse":[766,766,766,766,766,766,766,766,766,766,766,766,766,766,766,766,766,766,766,766,766,766,766,766,766,766,766,766,766,766,766,763,739,716,691,672,659,644,639,634,632,628,626,624,618,607,587,527,498],"ymouse":[480,480,480,480,480,480,480,480,480,480,480,480,480,480,480,480,480,480,480,480,480,480,480,480,480,480,480,480,480,480,478,470,431,400,370,347,329,308,300,291,284,278,270,264,252,233,204,112,63],"timestamp_mouse":[9,21,40,61,81,100,120,141,162,181,201,222,240,262,280,301,322,341,362,381,402,420,442,462,481,500,522,541,562,582,600,621,640,661,681,701,720,741,761,780,801,821,840,860,880,901,921,941,960],"xSR":741.5,"ySR":458.25,"xT1":424.9,"yT1":0,"xT2":1058.1,"yT2":0,"toosoon":0,"cond_shown":"equaldotsize","ratio_trial":750,"smaller_num":"15","larger_num":"20","correct_side":1,"subjID":"MaríaValentinaRincónParada6","gender":"1","age":"10","school":"6"},{"start_time":1551801285273,"click_time":1551801286443,"finger_time":1551801285863,"fix_duration":1228.3147875526245,"trial":33,"RT":590,"MT":580,"sideResp":2,"stimulus":"img/750/randomdotsizeEA/R/2_Ratio_750_L_6_R_8.png","xmouse":[822,822,822,822,822,822,822,822,822,822,822,822,822,822,822,822,822,822,822,822,822,822,822,822,822,822,822,827,839,852,867,873,878,883,890,904,912,926,936,946,969,983,996,1012,1026,1058,1063,1073,1079,1083,1091,1092,1092,1092,1092,1088,1086,1085,1085],"ymouse":[518,518,518,518,518,518,518,518,518,518,518,518,518,518,518,518,518,518,518,518,518,518,518,518,518,518,518,515,509,501,485,474,465,457,443,416,402,377,362,343,304,284,261,240,221,174,167,153,143,139,128,127,125,124,123,115,107,104,95],"timestamp_mouse":[10,35,49,69,90,110,129,149,169,191,211,229,250,270,289,310,330,350,370,389,410,429,449,471,489,510,530,549,571,590,610,629,650,669,689,710,729,749,769,790,810,829,849,869,891,910,930,951,971,990,1010,1029,1050,1070,1090,1110,1129,1149,1170],"xSR":741.5,"ySR":458.25,"xT1":424.9,"yT1":0,"xT2":1058.1,"yT2":0,"toosoon":0,"cond_shown":"randomdotsizeEA","ratio_trial":750,"smaller_num":"6","larger_num":"8","correct_side":2,"subjID":"MaríaValentinaRincónParada6","gender":"1","age":"10","school":"6"},{"start_time":1551801288094,"click_time":1551801289043,"finger_time":1551801288703,"fix_duration":850.9053445896194,"trial":34,"RT":609,"MT":340,"sideResp":1,"stimulus":"img/900/randomdotsizeEA/R/11_Ratio_900_L_18_R_20.png","xmouse":[807,807,807,807,807,807,807,807,807,807,807,807,807,807,807,807,807,807,807,807,807,807,807,807,807,807,807,807,801,780,747,721,705,693,675,663,659,650,639,629,622,613,602,588,553,537,519,513],"ymouse":[504,504,504,504,504,504,504,504,504,504,504,504,504,504,504,504,504,504,504,504,504,504,504,504,504,504,504,504,502,484,456,428,406,388,351,328,321,308,292,274,260,246,226,205,158,134,106,94],"timestamp_mouse":[9,31,49,68,88,109,129,149,176,189,209,228,250,270,288,310,328,349,368,390,409,428,449,470,489,509,530,548,570,588,609,630,650,668,689,710,729,750,769,791,809,829,849,869,889,910,928,949],"xSR":741.5,"ySR":458.25,"xT1":424.9,"yT1":0,"xT2":1058.1,"yT2":0,"toosoon":0,"cond_shown":"randomdotsizeEA","ratio_trial":900,"smaller_num":"18","larger_num":"20","correct_side":2,"subjID":"MaríaValentinaRincónParada6","gender":"1","age":"10","school":"6"},{"start_time":1551801291090,"click_time":1551801292183,"finger_time":1551801291644,"fix_duration":1326.6235536001393,"trial":35,"RT":554,"MT":539,"sideResp":2,"stimulus":"img/500/equaldotanddens/R/6_Ratio_500_L_9_R_18.png","xmouse":[796,796,796,796,796,796,796,796,796,796,796,796,796,796,796,796,796,796,796,796,796,796,796,796,796,800,817,844,878,950,980,1013,1043,1066,1078,1077,1076,1078,1079,1078,1072,1062,1056,1056,1056,1056,1056,1056,1057,1061,1062,1062,1062,1062,1065],"ymouse":[523,523,523,523,523,523,523,523,523,523,523,523,523,523,523,523,523,523,523,523,523,523,523,523,523,523,512,493,467,407,382,350,321,296,266,253,250,245,241,231,222,213,204,198,184,175,168,161,152,130,122,116,111,105,98],"timestamp_mouse":[12,35,53,73,93,114,134,152,172,193,212,232,252,273,293,313,333,352,372,392,414,433,452,474,494,513,533,554,574,593,612,633,653,674,693,712,733,752,772,792,812,833,853,873,892,912,932,952,972,993,1013,1033,1053,1073,1093],"xSR":741.5,"ySR":458.25,"xT1":424.9,"yT1":0,"xT2":1058.1,"yT2":0,"toosoon":0,"cond_shown":"equaldotanddens","ratio_trial":500,"smaller_num":"9","larger_num":"18","correct_side":2,"subjID":"MaríaValentinaRincónParada6","gender":"1","age":"10","school":"6"},{"start_time":1551801293592,"click_time":1551801294583,"finger_time":1551801294022,"fix_duration":307.91585696551607,"trial":36,"RT":430,"MT":561,"sideResp":2,"stimulus":"img/750/equaldotsize/R/4_Ratio_750_L_15_R_20.png","xmouse":[792,792,792,792,792,792,792,792,792,792,792,792,792,792,792,792,792,792,794,814,829,854,867,872,892,907,921,935,952,982,1001,1021,1046,1060,1080,1085,1088,1089,1091,1097,1101,1104,1105,1105,1105,1105,1105,1105,1104,1097],"ymouse":[515,515,515,515,515,515,515,515,515,515,515,515,515,515,515,515,515,515,513,510,508,501,495,491,467,448,427,405,374,310,269,232,199,183,160,155,151,150,146,141,137,136,133,132,124,119,113,108,102,87],"timestamp_mouse":[11,30,50,71,92,110,131,152,171,190,212,230,251,271,291,310,331,351,371,390,412,430,451,471,491,511,531,551,572,590,611,631,651,671,690,710,730,751,771,791,811,831,851,871,891,910,931,951,970,991],"xSR":741.5,"ySR":458.25,"xT1":424.9,"yT1":0,"xT2":1058.1,"yT2":0,"toosoon":0,"cond_shown":"equaldotsize","ratio_trial":750,"smaller_num":"15","larger_num":"20","correct_side":2,"subjID":"MaríaValentinaRincónParada6","gender":"1","age":"10","school":"6"},{"start_time":1551801296111,"click_time":1551801297264,"finger_time":1551801296623,"fix_duration":727.742254857708,"trial":37,"RT":512,"MT":641,"sideResp":1,"stimulus":"img/900/randomdotsizeEA/L/10_Ratio_900_L_20_R_18.png","xmouse":[771,771,771,771,771,771,771,771,771,771,771,771,771,771,771,771,771,771,771,771,773,779,794,819,826,827,830,830,830,830,824,815,801,743,706,662,639,618,580,563,546,533,516,497,494,494,494,494,494,494,494,494,494,494,494,494,494,494],"ymouse":[527,527,527,527,527,527,527,527,527,527,527,527,527,527,527,527,527,527,527,527,523,518,506,477,463,452,429,415,382,365,344,325,303,260,238,207,192,177,147,135,126,117,110,101,100,100,100,100,100,100,100,100,100,100,100,100,100,99],"timestamp_mouse":[20,33,51,73,93,113,131,153,171,192,213,232,252,272,293,313,333,353,371,393,412,432,452,471,491,512,533,552,572,591,612,632,652,672,692,711,731,752,772,791,812,832,852,872,892,912,931,952,973,992,1013,1032,1052,1072,1092,1111,1131,1153],"xSR":741.5,"ySR":458.25,"xT1":424.9,"yT1":0,"xT2":1058.1,"yT2":0,"toosoon":0,"cond_shown":"randomdotsizeEA","ratio_trial":900,"smaller_num":"18","larger_num":"20","correct_side":1,"subjID":"MaríaValentinaRincónParada6","gender":"1","age":"10","school":"6"},{"start_time":1551801298442,"click_time":1551801299444,"finger_time":1551801299022,"fix_duration":296.52669617048923,"trial":38,"RT":580,"MT":422,"sideResp":2,"stimulus":"img/750/equaldotanddens/R/4_Ratio_750_L_15_R_20.png","xmouse":[780,780,780,780,780,780,780,780,780,780,780,780,780,780,780,780,780,780,780,780,780,780,780,780,780,781,782,805,822,852,878,901,960,984,1015,1037,1055,1073,1076,1077,1077,1077,1078,1079,1079,1082,1083,1083,1083,1083,1088],"ymouse":[541,541,541,541,541,541,541,541,541,541,541,541,541,541,541,541,541,541,541,541,541,541,541,541,541,540,538,520,504,473,444,410,332,303,266,242,220,188,179,176,174,173,170,166,162,156,148,128,116,104,81],"timestamp_mouse":[8,22,41,62,81,102,120,141,160,180,200,221,241,262,280,300,320,341,361,381,402,420,442,460,481,500,521,540,561,580,601,621,641,660,681,700,722,741,761,781,801,820,842,860,881,901,921,940,962,980,1002],"xSR":741.5,"ySR":458.25,"xT1":424.9,"yT1":0,"xT2":1058.1,"yT2":0,"toosoon":0,"cond_shown":"equaldotanddens","ratio_trial":750,"smaller_num":"15","larger_num":"20","correct_side":2,"subjID":"MaríaValentinaRincónParada6","gender":"1","age":"10","school":"6"},{"start_time":1551801301091,"click_time":1551801302063,"finger_time":1551801301702,"fix_duration":748.2292399067411,"trial":39,"RT":611,"MT":361,"sideResp":1,"stimulus":"img/750/randomdotsizeEA/R/4_Ratio_750_L_15_R_20.png","xmouse":[792,792,792,792,792,792,792,792,792,792,792,792,792,792,792,792,792,792,792,792,792,792,792,792,792,792,792,792,791,791,791,789,784,775,752,730,722,694,677,646,635,627,621,613,595,581,559,538,518],"ymouse":[500,500,500,500,500,500,500,500,500,500,500,500,500,500,500,500,500,500,500,500,500,500,500,500,500,500,500,500,499,478,457,434,401,372,311,275,265,237,224,201,191,184,178,173,151,136,111,89,67],"timestamp_mouse":[11,35,52,71,91,111,132,152,173,191,211,233,252,273,293,311,332,352,372,391,412,433,451,472,492,511,532,551,571,592,611,632,652,673,692,711,731,752,772,792,811,832,852,871,891,912,931,951,972],"xSR":741.5,"ySR":458.25,"xT1":424.9,"yT1":0,"xT2":1058.1,"yT2":0,"toosoon":0,"cond_shown":"randomdotsizeEA","ratio_trial":750,"smaller_num":"15","larger_num":"20","correct_side":2,"subjID":"MaríaValentinaRincónParada6","gender":"1","age":"10","school":"6"},{"start_time":1551801303477,"click_time":1551801304483,"finger_time":1551801303982,"fix_duration":294.01668837521066,"trial":40,"RT":505,"MT":501,"sideResp":2,"stimulus":"img/900/equaldotsize/R/13_Ratio_900_L_18_R_20.png","xmouse":[806,806,806,806,806,806,806,807,807,807,807,807,807,807,807,807,807,807,807,807,807,809,815,824,838,869,880,893,902,910,930,942,960,979,993,1017,1023,1029,1032,1035,1043,1048,1054,1062,1068,1086,1093,1095,1095,1095,1099],"ymouse":[520,520,520,520,520,519,519,519,519,519,519,519,519,519,519,519,519,519,519,519,519,517,511,504,492,463,444,416,398,380,335,312,287,261,240,203,191,182,177,174,169,166,163,159,155,139,131,118,109,103,89],"timestamp_mouse":[9,33,45,67,87,105,126,147,165,186,206,226,246,267,286,306,327,346,367,385,405,425,446,466,486,505,526,545,566,586,605,625,646,665,685,705,726,745,765,786,806,825,847,866,886,905,926,946,967,986,1006],"xSR":741.5,"ySR":458.25,"xT1":424.9,"yT1":0,"xT2":1058.1,"yT2":0,"toosoon":0,"cond_shown":"equaldotsize","ratio_trial":900,"smaller_num":"18","larger_num":"20","correct_side":2,"subjID":"MaríaValentinaRincónParada6","gender":"1","age":"10","school":"6"},{"start_time":1551801305628,"click_time":1551801306883,"finger_time":1551801306284,"fix_duration":304.3414045378294,"trial":41,"RT":656,"MT":599,"sideResp":1,"stimulus":"img/900/randomdotsizeEA/L/4_Ratio_900_L_20_R_18.png","xmouse":[797,797,797,797,797,797,797,797,797,797,797,797,797,797,797,797,797,797,797,797,797,797,797,797,797,797,797,797,797,797,795,787,754,737,722,704,688,665,658,646,639,635,626,620,612,604,594,572,559,541,528,517,505,500,498,497,497,496,491,487,481,479,474],"ymouse":[505,505,505,505,505,505,505,505,505,505,505,505,505,505,505,505,505,505,505,505,505,505,505,505,505,505,505,505,505,505,500,491,449,426,403,379,356,320,307,287,272,261,239,228,221,213,207,191,181,163,152,141,126,122,119,118,118,116,113,110,106,101,95],"timestamp_mouse":[14,34,55,74,95,115,135,155,176,196,215,235,255,276,296,315,335,355,375,395,415,435,454,476,495,514,535,555,575,595,615,635,656,674,695,715,734,754,775,794,815,835,854,874,894,914,935,954,975,994,1015,1034,1055,1076,1095,1114,1135,1155,1176,1194,1216,1235,1255],"xSR":741.5,"ySR":458.25,"xT1":424.9,"yT1":0,"xT2":1058.1,"yT2":0,"toosoon":0,"cond_shown":"randomdotsizeEA","ratio_trial":900,"smaller_num":"18","larger_num":"20","correct_side":1,"subjID":"MaríaValentinaRincónParada6","gender":"1","age":"10","school":"6"},{"start_time":1551801308277,"click_time":1551801310164,"finger_time":1551801308844,"fix_duration":433.3618787303639,"trial":42,"RT":567,"MT":1320,"sideResp":1,"stimulus":"img/900/equaldotsize/L/1_Ratio_900_L_10_R_9.png","xmouse":[802,802,802,802,802,802,802,802,802,802,802,802,802,802,802,802,802,802,802,802,802,802,802,802,802,802,808,827,848,869,905,924,942,956,970,984,988,993,997,1005,1025,1032,1038,1044,1047,1053,1058,1059,1063,1064,1065,1065,1065,1065,1065,1064,1064,1064,1064,1064,1060,1054,1046,1034,1018,992,976,962,950,937,903,885,866,849,829,772,738,694,666,639,600,586,574,571,571,571,571,571,571,569,558,547,536,527,522],"ymouse":[474,474,474,474,474,474,474,474,474,474,474,474,474,474,474,474,474,474,474,474,474,474,474,474,474,474,472,461,446,432,396,373,352,335,320,300,290,273,256,239,208,194,183,172,168,159,155,154,151,150,148,147,146,144,144,141,140,139,139,139,135,134,133,131,130,130,130,130,130,130,131,133,136,136,136,136,135,128,122,115,106,102,98,97,97,97,97,97,97,97,97,97,97,97,97],"timestamp_mouse":[8,32,45,66,87,105,126,146,165,185,206,226,245,267,285,305,326,346,365,385,406,426,446,476,486,505,525,546,567,586,605,625,646,666,685,705,726,745,767,786,806,825,846,866,886,905,926,946,965,987,1006,1027,1046,1066,1085,1105,1126,1147,1166,1187,1206,1225,1245,1266,1287,1306,1326,1347,1366,1386,1405,1425,1445,1466,1486,1505,1527,1546,1566,1587,1607,1626,1645,1666,1686,1706,1727,1746,1767,1785,1805,1826,1846,1866,1887],"xSR":741.5,"ySR":458.25,"xT1":424.9,"yT1":0,"xT2":1058.1,"yT2":0,"toosoon":0,"cond_shown":"equaldotsize","ratio_trial":900,"smaller_num":"9","larger_num":"10","correct_side":1,"subjID":"MaríaValentinaRincónParada6","gender":"1","age":"10","school":"6"},{"start_time":1551801312412,"click_time":1551801313523,"finger_time":1551801313022,"fix_duration":1188.874964292361,"trial":43,"RT":610,"MT":501,"sideResp":2,"stimulus":"img/500/equaldotsize/R/3_Ratio_500_L_10_R_20.png","xmouse":[771,771,771,771,771,771,771,771,771,771,771,771,771,771,771,771,771,771,771,771,771,771,771,771,771,771,777,783,815,838,856,888,939,1064,1123,1172,1214,1233,1252,1255,1256,1257,1257,1257,1257,1256,1254,1246,1210,1192,1182,1181,1181,1177,1166,1151],"ymouse":[532,532,532,532,532,532,532,532,532,532,532,532,532,532,532,532,532,532,532,532,532,532,532,532,532,532,530,529,519,507,495,469,424,304,246,198,156,135,107,99,96,93,93,90,86,83,81,77,76,76,76,76,76,76,74,72],"timestamp_mouse":[11,30,51,71,91,111,130,152,170,192,210,232,250,271,290,311,331,350,370,391,410,430,452,471,490,512,530,551,570,590,610,632,651,671,690,710,730,752,771,791,810,831,851,871,890,911,931,951,970,990,1011,1031,1050,1071,1090,1111],"xSR":741.5,"ySR":458.25,"xT1":424.9,"yT1":0,"xT2":1058.1,"yT2":0,"toosoon":0,"cond_shown":"equaldotsize","ratio_trial":500,"smaller_num":"10","larger_num":"20","correct_side":2,"subjID":"MaríaValentinaRincónParada6","gender":"1","age":"10","school":"6"},{"start_time":1551801314895,"click_time":1551801316283,"finger_time":1551801315483,"fix_duration":250,"trial":44,"RT":588,"MT":800,"sideResp":1,"stimulus":"img/500/equaldotsize/L/4_Ratio_500_L_18_R_9.png","xmouse":[802,801,801,801,801,801,801,800,800,799,799,799,799,799,799,799,799,799,799,799,799,799,799,799,799,797,796,792,783,760,748,736,727,717,706,701,696,687,682,674,670,666,662,659,655,649,633,620,608,594,592,591,591,591,591,591,589,586,581,571,566,562,559,557,552,545,540,531,526,520],"ymouse":[517,517,517,517,517,517,517,517,517,518,518,518,518,518,518,518,518,518,518,518,518,518,518,518,518,516,507,494,476,436,414,387,365,344,312,295,279,251,237,216,209,205,203,201,200,196,185,176,166,148,143,140,139,139,137,136,132,129,125,114,108,105,101,99,96,95,94,91,90,88],"timestamp_mouse":[9,31,47,69,87,107,128,149,168,188,207,228,247,269,287,307,328,349,368,388,408,429,448,467,488,508,527,549,568,588,607,627,648,668,688,708,727,748,768,788,809,828,848,867,887,909,928,949,969,988,1007,1027,1048,1068,1087,1109,1127,1149,1168,1188,1207,1228,1248,1269,1287,1307,1328,1349,1368,1388],"xSR":741.5,"ySR":458.25,"xT1":424.9,"yT1":0,"xT2":1058.1,"yT2":0,"toosoon":0,"cond_shown":"equaldotsize","ratio_trial":500,"smaller_num":"9","larger_num":"18","correct_side":1,"subjID":"MaríaValentinaRincónParada6","gender":"1","age":"10","school":"6"},{"start_time":1551801319410,"click_time":1551801320863,"finger_time":1551801319982,"fix_duration":986.3361014262417,"trial":45,"RT":572,"MT":881,"sideResp":1,"stimulus":"img/500/randomdotsizeEA/L/10_Ratio_500_L_4_R_2.png","xmouse":[803,803,803,803,803,803,803,803,803,803,803,803,803,803,803,803,803,803,803,803,803,803,803,803,803,803,803,803,795,784,759,741,723,691,681,673,670,669,669,669,666,666,664,660,658,653,646,637,626,622,618,616,616,616,616,616,616,616,614,613,611,610,609,608,605,600,592,587,577,571,559,539,518],"ymouse":[488,488,488,488,488,488,488,488,488,488,488,488,488,488,488,488,488,488,488,488,488,488,488,488,488,484,479,469,452,437,415,399,384,356,344,329,319,309,295,289,281,279,276,267,264,259,249,233,204,190,172,164,160,157,157,157,157,155,150,146,140,138,135,127,120,113,103,98,86,80,72,59,47],"timestamp_mouse":[13,32,54,72,94,112,134,152,172,192,213,233,254,273,293,312,332,353,372,392,413,433,453,473,492,514,533,552,572,592,612,634,653,673,692,712,732,754,772,793,812,834,853,873,892,913,933,952,972,993,1012,1033,1054,1072,1093,1114,1133,1152,1172,1192,1212,1233,1253,1273,1294,1313,1332,1353,1372,1393,1412,1434,1453],"xSR":741.5,"ySR":458.25,"xT1":424.9,"yT1":0,"xT2":1058.1,"yT2":0,"toosoon":0,"cond_shown":"randomdotsizeEA","ratio_trial":500,"smaller_num":"2","larger_num":"4","correct_side":1,"subjID":"MaríaValentinaRincónParada6","gender":"1","age":"10","school":"6"},{"start_time":1551801324778,"click_time":1551801327564,"finger_time":1551801325423,"fix_duration":1272.6966268643089,"trial":46,"RT":645,"MT":2141,"sideResp":1,"stimulus":"img/250/equaldotanddens/L/15_Ratio_250_L_12_R_3.png","xmouse":[798,798,798,798,798,798,798,798,798,798,798,798,798,798,798,798,798,798,798,798,798,798,798,798,798,798,798,798,791,785,764,762,760,759,758,751,745,740,735,730,727,726,719,712,707,698,694,690,686,680,671,664,658,651,643,632,628,625,623,623,623,623,622,622,621,621,621,621,621,621,621,621,621,621,621,621,621,621,621,621,621,621,621,621,621,621,621,621,621,621,621,621,621,621,621,621,621,621,621,621,621,621,621,621,621,621,621,621,621,621,621,621,621,621,621,621,621,621,621,621,619,618,615,611,608,605,605,605,605,605,605,605,605,602,595,579,570,558,542,523],"ymouse":[506,506,506,506,506,506,506,506,506,506,506,506,506,506,506,506,506,506,506,506,506,506,506,506,506,506,506,506,497,491,466,461,458,451,443,406,388,369,355,343,328,321,308,300,292,279,274,270,265,260,253,249,245,239,234,225,221,219,217,217,217,217,217,217,217,217,217,217,217,217,217,217,217,217,217,217,217,217,217,217,217,217,217,217,217,217,217,217,217,217,217,217,217,217,217,217,217,217,217,217,217,217,217,217,217,217,217,217,217,217,217,217,217,217,217,217,217,217,217,215,207,204,197,186,171,156,153,153,153,153,153,153,151,145,135,118,105,89,70,52],"timestamp_mouse":[8,31,46,65,86,105,126,146,167,186,205,225,245,266,287,306,325,347,365,386,405,426,446,465,485,505,526,545,565,585,606,625,645,666,686,706,726,746,766,785,805,826,845,865,885,905,925,946,966,986,1005,1025,1045,1065,1086,1107,1125,1145,1165,1186,1206,1227,1246,1266,1286,1306,1326,1346,1365,1386,1406,1425,1445,1466,1486,1505,1526,1546,1566,1585,1606,1626,1645,1666,1687,1706,1725,1746,1765,1785,1805,1825,1846,1867,1886,1905,1925,1946,1965,1987,2005,2025,2047,2065,2085,2105,2126,2146,2165,2185,2206,2226,2245,2265,2285,2305,2326,2347,2366,2385,2405,2425,2445,2466,2485,2506,2525,2545,2565,2586,2606,2627,2645,2666,2685,2705,2725,2746,2766,2786],"xSR":741.5,"ySR":458.25,"xT1":424.9,"yT1":0,"xT2":1058.1,"yT2":0,"toosoon":0,"cond_shown":"equaldotanddens","ratio_trial":250,"smaller_num":"3","larger_num":"12","correct_side":1,"subjID":"MaríaValentinaRincónParada6","gender":"1","age":"10","school":"6"},{"start_time":1551801329660,"click_time":1551801330583,"finger_time":1551801330325,"fix_duration":1076.4901885081993,"trial":47,"RT":665,"MT":258,"sideResp":2,"stimulus":"img/750/randomdotsizeEA/R/5_Ratio_750_L_15_R_20.png","xmouse":[794,794,794,794,794,794,794,795,796,797,799,801,802,803,804,804,804,804,804,804,804,804,804,804,804,804,804,804,804,805,805,805,807,812,819,825,838,845,860,873,890,944,978,1007,1028,1047,1073],"ymouse":[495,495,495,496,496,496,496,496,496,496,495,494,494,493,493,492,492,492,492,492,492,492,492,492,492,492,492,492,492,492,488,473,461,444,429,416,392,377,348,324,297,224,180,143,122,106,72],"timestamp_mouse":[12,33,43,64,84,103,123,143,163,185,204,223,244,264,283,303,324,343,363,383,404,423,443,463,484,503,524,543,564,585,603,624,643,665,684,703,723,743,764,783,804,823,843,863,883,903,923],"xSR":741.5,"ySR":458.25,"xT1":424.9,"yT1":0,"xT2":1058.1,"yT2":0,"toosoon":0,"cond_shown":"randomdotsizeEA","ratio_trial":750,"smaller_num":"15","larger_num":"20","correct_side":2,"subjID":"MaríaValentinaRincónParada6","gender":"1","age":"10","school":"6"},{"start_time":1551801331915,"click_time":1551801333504,"finger_time":1551801332743,"fix_duration":250,"trial":48,"RT":828,"MT":761,"sideResp":2,"stimulus":"img/500/randomdotsizeEA/R/6_Ratio_500_L_9_R_18.png","xmouse":[804,804,804,804,804,804,804,804,804,804,804,804,804,804,804,804,804,804,804,804,804,804,804,804,804,804,804,804,804,804,805,807,811,813,813,813,813,813,813,812,806,799,792,785,783,781,775,771,769,776,785,796,810,841,861,888,899,904,909,912,922,937,949,955,956,963,978,996,1025,1028,1028,1029,1029,1034,1045,1048,1048,1048,1051,1062],"ymouse":[514,514,514,514,514,514,514,514,514,514,514,514,514,514,514,514,514,514,514,514,514,514,514,514,514,514,514,514,514,514,513,510,505,502,502,502,502,501,493,483,469,452,436,411,400,387,354,328,282,259,239,220,202,168,153,135,124,116,106,103,100,97,95,92,91,89,88,84,82,81,81,80,80,79,74,74,74,74,73,71],"timestamp_mouse":[9,29,49,69,89,109,128,149,170,188,208,229,248,268,289,309,328,348,368,389,410,428,449,469,489,510,528,548,568,589,608,629,648,668,688,709,729,748,769,788,809,828,848,868,888,908,929,949,968,988,1008,1028,1049,1068,1089,1109,1130,1149,1168,1188,1209,1229,1248,1268,1288,1308,1329,1348,1368,1388,1409,1428,1449,1468,1490,1509,1529,1548,1569,1588],"xSR":741.5,"ySR":458.25,"xT1":424.9,"yT1":0,"xT2":1058.1,"yT2":0,"toosoon":0,"cond_shown":"randomdotsizeEA","ratio_trial":500,"smaller_num":"9","larger_num":"18","correct_side":2,"subjID":"MaríaValentinaRincónParada6","gender":"1","age":"10","school":"6"},{"start_time":1551801335612,"click_time":1551801336823,"finger_time":1551801336243,"fix_duration":1266.7226441419216,"trial":49,"RT":631,"MT":580,"sideResp":2,"stimulus":"img/500/equaldotsize/R/3_Ratio_500_L_10_R_20.png","xmouse":[812,812,812,812,812,812,812,812,812,812,812,812,812,812,812,812,812,812,812,812,812,812,812,812,812,812,812,812,814,816,829,839,849,872,883,896,909,920,936,946,952,960,968,986,995,1006,1015,1025,1042,1050,1053,1056,1056,1056,1056,1056,1056,1056,1056,1056,1080],"ymouse":[515,515,515,515,515,515,515,515,515,515,515,515,515,515,515,515,515,515,515,515,515,515,515,515,515,515,515,515,506,502,470,438,400,335,315,298,281,269,246,228,214,200,185,157,141,123,102,79,36,11,5,0,0,0,0,0,0,0,0,0,13],"timestamp_mouse":[13,31,52,71,93,112,131,152,171,191,212,232,253,271,291,312,332,351,371,393,411,431,453,471,491,512,533,552,571,591,611,631,652,671,691,712,731,752,771,791,812,832,851,871,891,911,931,952,971,991,1011,1031,1051,1071,1091,1113,1133,1152,1173,1191,1211],"xSR":741.5,"ySR":458.25,"xT1":424.9,"yT1":0,"xT2":1058.1,"yT2":0,"toosoon":0,"cond_shown":"equaldotsize","ratio_trial":500,"smaller_num":"10","larger_num":"20","correct_side":2,"subjID":"MaríaValentinaRincónParada6","gender":"1","age":"10","school":"6"},{"start_time":1551801339076,"click_time":1551801340503,"finger_time":1551801339823,"fix_duration":1292.7575247859781,"trial":50,"RT":747,"MT":680,"sideResp":1,"stimulus":"img/750/randomdotsizeEA/R/5_Ratio_750_L_15_R_20.png","xmouse":[803,803,803,803,803,803,803,803,803,803,803,803,803,803,803,803,803,803,803,803,803,803,803,803,803,803,803,803,803,803,803,803,803,803,803,802,795,786,771,753,716,702,687,666,645,612,607,605,605,605,596,584,570,557,545,539,539,539,539,539,539,539,539,539,539,539,539,539,539,539,537,524],"ymouse":[523,523,523,523,523,523,523,523,523,523,523,523,523,523,523,523,523,523,523,523,523,523,523,523,523,523,523,523,523,523,523,523,519,514,505,483,465,449,430,407,360,339,316,288,264,224,214,202,193,183,148,124,102,81,65,57,57,57,57,57,57,57,57,57,57,57,57,57,57,57,57,55],"timestamp_mouse":[10,34,47,68,88,107,129,147,168,187,207,227,248,267,288,307,329,349,367,388,409,427,447,467,488,508,527,548,567,588,607,627,648,667,688,708,727,747,769,788,808,828,848,867,888,907,928,947,967,987,1008,1027,1047,1068,1088,1108,1128,1147,1167,1188,1208,1228,1247,1267,1287,1307,1328,1348,1368,1387,1409,1427],"xSR":741.5,"ySR":458.25,"xT1":424.9,"yT1":0,"xT2":1058.1,"yT2":0,"toosoon":0,"cond_shown":"randomdotsizeEA","ratio_trial":750,"smaller_num":"15","larger_num":"20","correct_side":2,"subjID":"MaríaValentinaRincónParada6","gender":"1","age":"10","school":"6"},{"start_time":1551801341816,"click_time":1551801343083,"finger_time":1551801342223,"fix_duration":250,"trial":51,"RT":407,"MT":860,"sideResp":1,"stimulus":"img/750/equaldotanddens/L/14_Ratio_750_L_8_R_6.png","xmouse":[782,782,782,782,782,782,782,782,782,782,782,782,782,782,782,782,782,782,788,800,812,823,830,835,835,835,837,844,871,896,937,956,972,993,1005,1014,1021,1026,1034,1038,1044,1052,1054,1058,1058,1058,1058,1058,1058,1055,1036,998,972,930,914,900,885,865,809,754,672,618,571,498],"ymouse":[503,503,503,503,503,503,503,503,503,503,503,503,503,503,503,503,503,503,490,469,450,437,429,425,425,425,423,414,376,348,302,279,262,235,222,211,202,195,183,179,171,161,158,150,147,146,146,146,146,146,150,160,168,177,179,179,176,168,144,126,104,88,74,54],"timestamp_mouse":[8,27,48,68,87,107,128,147,167,189,207,228,248,268,288,308,327,347,367,389,407,427,447,467,488,507,527,547,567,587,607,627,647,668,688,708,728,748,767,788,808,827,847,868,887,909,927,948,968,987,1009,1027,1047,1067,1087,1107,1128,1148,1167,1187,1208,1227,1247,1267],"xSR":741.5,"ySR":458.25,"xT1":424.9,"yT1":0,"xT2":1058.1,"yT2":0,"toosoon":0,"cond_shown":"equaldotanddens","ratio_trial":750,"smaller_num":"6","larger_num":"8","correct_side":1,"subjID":"MaríaValentinaRincónParada6","gender":"1","age":"10","school":"6"},{"start_time":1551801346192,"click_time":1551801346983,"finger_time":1551801346704,"fix_duration":587.4373971819588,"trial":52,"RT":512,"MT":279,"sideResp":1,"stimulus":"img/500/equaldotanddens/L/11_Ratio_500_L_12_R_6.png","xmouse":[804,804,804,804,804,804,804,804,804,804,804,804,804,804,804,804,804,804,804,804,804,804,804,803,772,752,737,720,699,669,658,653,650,645,623,603,573,539,505,466],"ymouse":[513,513,513,513,513,513,513,513,513,513,513,513,513,513,513,513,513,513,513,513,513,513,513,512,477,455,434,407,376,331,309,296,285,269,224,195,164,136,110,77],"timestamp_mouse":[20,31,51,72,91,113,131,151,172,191,211,233,251,271,291,312,331,352,371,392,411,431,453,472,491,512,532,551,571,591,612,632,652,671,691,711,731,752,773,791],"xSR":741.5,"ySR":458.25,"xT1":424.9,"yT1":0,"xT2":1058.1,"yT2":0,"toosoon":0,"cond_shown":"equaldotanddens","ratio_trial":500,"smaller_num":"6","larger_num":"12","correct_side":1,"subjID":"MaríaValentinaRincónParada6","gender":"1","age":"10","school":"6"},{"start_time":1551801349409,"click_time":1551801350365,"finger_time":1551801349965,"fix_duration":1384.700047265288,"trial":53,"RT":556,"MT":400,"sideResp":2,"stimulus":"img/900/randomdotsizeEA/L/4_Ratio_900_L_20_R_18.png","xmouse":[771,771,771,771,771,771,771,771,771,771,771,771,771,771,771,771,771,771,771,771,771,771,771,771,784,794,813,836,890,935,949,979,992,1011,1016,1021,1027,1031,1037,1039,1041,1041,1041,1045,1048,1052,1058,1063],"ymouse":[497,497,497,497,497,497,497,497,497,497,497,497,497,497,497,497,497,497,497,497,497,497,497,497,485,477,460,440,394,355,343,315,299,266,255,243,230,218,193,176,150,133,120,100,94,86,78,72],"timestamp_mouse":[15,34,54,74,94,115,134,154,174,194,214,235,256,274,295,316,335,354,374,394,414,436,456,474,494,514,534,556,574,595,614,636,655,674,694,714,735,755,776,795,815,836,855,876,894,914,934,955],"xSR":741.5,"ySR":458.25,"xT1":424.9,"yT1":0,"xT2":1058.1,"yT2":0,"toosoon":0,"cond_shown":"randomdotsizeEA","ratio_trial":900,"smaller_num":"18","larger_num":"20","correct_side":1,"subjID":"MaríaValentinaRincónParada6","gender":"1","age":"10","school":"6"},{"start_time":1551801352181,"click_time":1551801353084,"finger_time":1551801352684,"fix_duration":1055.3940358005907,"trial":54,"RT":503,"MT":400,"sideResp":1,"stimulus":"img/500/equaldotanddens/L/8_Ratio_500_L_8_R_4.png","xmouse":[790,790,790,790,790,790,790,790,790,790,790,790,790,790,790,790,790,790,790,790,790,790,790,788,765,589,481,398,341,316,306,306,311,314,315,321,324,332,349,362,385,395,409,414,421,447],"ymouse":[524,524,524,524,524,524,524,524,524,524,524,524,524,524,524,524,524,524,524,524,524,524,524,524,500,408,359,311,269,243,204,190,170,163,158,149,146,143,139,135,123,116,105,101,93,72],"timestamp_mouse":[9,28,42,63,83,102,123,143,162,183,202,222,242,264,282,302,323,343,363,384,403,422,442,462,482,503,522,542,563,582,602,623,643,662,682,702,723,742,763,782,802,822,843,863,882,902],"xSR":741.5,"ySR":458.25,"xT1":424.9,"yT1":0,"xT2":1058.1,"yT2":0,"toosoon":0,"cond_shown":"equaldotanddens","ratio_trial":500,"smaller_num":"4","larger_num":"8","correct_side":1,"subjID":"MaríaValentinaRincónParada6","gender":"1","age":"10","school":"6"},{"start_time":1551801354634,"click_time":1551801355583,"finger_time":1551801355204,"fix_duration":829.5916620534314,"trial":55,"RT":570,"MT":379,"sideResp":2,"stimulus":"img/500/equaldotanddens/R/1_Ratio_500_L_9_R_18.png","xmouse":[796,796,796,796,796,796,796,796,796,796,796,796,796,796,796,796,796,796,796,796,796,796,796,800,803,808,817,835,842,856,869,892,944,970,987,996,1004,1011,1012,1015,1020,1025,1040,1047,1054,1063,1070,1085],"ymouse":[526,526,526,526,526,526,526,526,526,526,526,526,526,526,526,526,526,526,526,526,526,526,526,520,519,515,507,486,471,440,413,369,290,256,235,222,210,201,199,195,190,182,162,150,138,123,112,85],"timestamp_mouse":[9,29,50,70,90,110,129,149,171,189,209,229,249,271,289,310,329,351,370,390,410,430,449,469,491,509,529,549,569,589,610,630,650,670,689,710,729,749,769,789,809,829,849,869,889,910,930,949],"xSR":741.5,"ySR":458.25,"xT1":424.9,"yT1":0,"xT2":1058.1,"yT2":0,"toosoon":0,"cond_shown":"equaldotanddens","ratio_trial":500,"smaller_num":"9","larger_num":"18","correct_side":2,"subjID":"MaríaValentinaRincónParada6","gender":"1","age":"10","school":"6"},{"start_time":1551801356943,"click_time":1551801357623,"finger_time":1551801357404,"fix_duration":538.5878177210011,"trial":56,"RT":461,"MT":219,"sideResp":1,"stimulus":"img/500/equaldotsize/L/4_Ratio_500_L_18_R_9.png","xmouse":[816,816,816,816,816,816,816,816,816,816,816,816,816,816,816,816,816,816,816,815,815,814,804,775,743,703,663,591,575,566,563,558,535,500,444],"ymouse":[510,510,510,510,510,510,510,510,510,510,510,510,510,510,510,510,510,510,510,508,505,496,463,415,378,336,300,250,236,226,219,208,162,113,38],"timestamp_mouse":[8,20,40,61,80,101,120,140,162,180,200,220,240,260,280,301,321,341,361,380,400,420,440,461,481,501,522,541,560,581,601,620,640,660,680],"xSR":741.5,"ySR":458.25,"xT1":424.9,"yT1":0,"xT2":1058.1,"yT2":0,"toosoon":0,"cond_shown":"equaldotsize","ratio_trial":500,"smaller_num":"9","larger_num":"18","correct_side":1,"subjID":"MaríaValentinaRincónParada6","gender":"1","age":"10","school":"6"},{"start_time":1551801360221,"click_time":1551801360983,"finger_time":1551801360664,"fix_duration":1435.907031021955,"trial":57,"RT":443,"MT":319,"sideResp":2,"stimulus":"img/250/randomdotsizeEA/R/4_Ratio_250_L_3_R_12.png","xmouse":[777,777,777,777,777,777,777,777,777,777,777,777,777,777,777,777,777,777,777,777,779,782,805,836,891,953,1009,1048,1077,1078,1079,1080,1083,1093,1099,1102,1102,1102,1093],"ymouse":[480,480,480,480,480,480,480,480,480,480,480,480,480,480,480,480,480,480,480,477,470,460,422,384,333,290,260,238,223,221,218,214,209,187,173,156,136,117,82],"timestamp_mouse":[9,27,42,63,83,104,124,144,162,182,202,222,243,262,283,303,322,343,362,383,402,422,443,462,482,502,524,543,562,582,603,623,643,663,682,702,723,744,762],"xSR":741.5,"ySR":458.25,"xT1":424.9,"yT1":0,"xT2":1058.1,"yT2":0,"toosoon":0,"cond_shown":"randomdotsizeEA","ratio_trial":250,"smaller_num":"3","larger_num":"12","correct_side":2,"subjID":"MaríaValentinaRincónParada6","gender":"1","age":"10","school":"6"},{"start_time":1551801363199,"click_time":1551801364463,"finger_time":1551801363803,"fix_duration":1233.352032908398,"trial":58,"RT":604,"MT":660,"sideResp":1,"stimulus":"img/750/equaldotsize/L/14_Ratio_750_L_8_R_6.png","xmouse":[827,827,827,827,827,827,827,827,827,827,827,827,827,827,827,827,827,827,827,827,827,827,827,827,827,827,827,827,827,827,828,830,839,847,861,866,871,872,873,873,872,869,845,797,619,506,402,331,311,307,307,307,307,307,307,315,330,350,369,396,401,405,422,441],"ymouse":[518,518,518,518,518,518,518,518,518,518,518,518,518,518,518,518,518,518,518,518,518,518,518,518,518,518,518,510,499,463,438,431,412,400,376,360,344,329,318,305,301,299,288,270,194,147,103,72,61,59,59,59,59,59,59,57,55,53,51,47,47,47,47,49],"timestamp_mouse":[14,33,44,65,85,106,124,146,164,184,204,226,245,265,286,305,324,344,364,384,404,425,444,465,485,505,525,545,565,584,604,624,644,665,685,705,724,744,765,784,806,824,844,864,884,905,924,945,964,984,1004,1024,1045,1064,1085,1105,1124,1145,1165,1185,1205,1225,1244,1264],"xSR":741.5,"ySR":458.25,"xT1":424.9,"yT1":0,"xT2":1058.1,"yT2":0,"toosoon":0,"cond_shown":"equaldotsize","ratio_trial":750,"smaller_num":"6","larger_num":"8","correct_side":1,"subjID":"MaríaValentinaRincónParada6","gender":"1","age":"10","school":"6"},{"start_time":1551801366641,"click_time":1551801368324,"finger_time":1551801367285,"fix_duration":1355.0328166605682,"trial":59,"RT":644,"MT":1039,"sideResp":2,"stimulus":"img/900/equaldotanddens/L/1_Ratio_900_L_10_R_9.png","xmouse":[806,806,806,806,806,806,806,806,806,806,806,806,806,806,806,806,806,806,806,806,806,806,806,806,808,810,814,820,825,828,831,835,842,845,850,854,860,868,870,876,879,882,890,894,896,899,902,908,910,915,918,921,928,932,935,937,940,949,953,959,961,963,964,967,971,978,986,1002,1011,1029,1044,1059,1083,1089,1098,1105,1110,1113,1113,1113,1113,1114,1115,1117,1118],"ymouse":[509,509,509,509,509,509,509,509,509,509,509,509,509,509,509,509,509,509,509,509,509,509,509,509,507,504,500,491,486,480,474,467,455,447,438,431,421,405,396,385,377,369,350,339,335,329,325,317,314,310,306,302,295,290,286,282,277,264,259,251,248,246,245,243,240,236,231,214,202,177,163,151,131,126,121,117,115,114,114,113,113,112,107,101,94],"timestamp_mouse":[8,22,42,62,83,102,122,142,163,183,202,223,243,262,282,303,323,342,363,382,402,423,442,462,482,503,523,543,563,582,602,623,644,663,682,702,723,742,762,783,802,822,843,863,882,902,922,942,962,983,1003,1023,1042,1062,1083,1102,1122,1142,1164,1183,1203,1222,1242,1262,1282,1303,1323,1342,1362,1382,1403,1423,1442,1462,1483,1503,1523,1542,1564,1584,1602,1622,1642,1663,1682],"xSR":741.5,"ySR":458.25,"xT1":424.9,"yT1":0,"xT2":1058.1,"yT2":0,"toosoon":0,"cond_shown":"equaldotanddens","ratio_trial":900,"smaller_num":"9","larger_num":"10","correct_side":1,"subjID":"MaríaValentinaRincónParada6","gender":"1","age":"10","school":"6"},{"start_time":1551801369674,"click_time":1551801370583,"finger_time":1551801370203,"fix_duration":629.4961038384632,"trial":60,"RT":529,"MT":380,"sideResp":1,"stimulus":"img/250/equaldotanddens/L/5_Ratio_250_L_24_R_6.png","xmouse":[759,759,759,759,759,759,759,759,759,759,759,759,759,759,759,759,759,759,759,759,759,759,759,757,755,742,731,709,689,671,649,643,638,633,628,616,608,599,588,583,567,551,527,500,476,462],"ymouse":[509,509,509,509,509,509,509,509,509,509,509,509,509,509,509,509,509,509,509,509,509,509,509,507,500,476,455,423,399,380,351,335,322,310,300,286,280,273,259,248,212,187,158,130,109,89],"timestamp_mouse":[10,35,50,70,90,109,131,150,169,189,209,231,249,269,291,309,330,349,370,390,410,429,450,470,489,509,529,549,570,589,610,631,651,669,690,709,731,750,769,789,809,829,849,870,890,909],"xSR":741.5,"ySR":458.25,"xT1":424.9,"yT1":0,"xT2":1058.1,"yT2":0,"toosoon":0,"cond_shown":"equaldotanddens","ratio_trial":250,"smaller_num":"6","larger_num":"24","correct_side":1,"subjID":"MaríaValentinaRincónParada6","gender":"1","age":"10","school":"6"},{"start_time":1551801372093,"click_time":1551801373084,"finger_time":1551801372703,"fix_duration":406.2786317540552,"trial":61,"RT":610,"MT":381,"sideResp":2,"stimulus":"img/900/equaldotanddens/R/15_Ratio_900_L_9_R_10.png","xmouse":[801,801,801,801,801,801,801,801,801,801,801,801,801,801,801,801,801,801,801,801,801,801,801,801,801,801,801,802,807,827,843,861,876,896,929,941,955,959,960,964,966,971,978,985,999,1005,1017,1029,1041,1077],"ymouse":[544,544,544,544,544,544,544,544,544,544,543,543,543,543,543,543,543,543,543,543,543,543,543,543,543,543,543,542,536,507,474,431,386,340,260,237,211,198,186,161,150,139,131,121,114,110,102,95,86,71],"timestamp_mouse":[11,33,51,70,91,112,130,150,171,191,211,230,250,271,292,312,331,350,370,392,411,430,451,471,490,511,531,550,571,590,610,631,651,670,690,710,731,750,770,790,810,830,851,870,890,911,931,950,970,990],"xSR":741.5,"ySR":458.25,"xT1":424.9,"yT1":0,"xT2":1058.1,"yT2":0,"toosoon":0,"cond_shown":"equaldotanddens","ratio_trial":900,"smaller_num":"9","larger_num":"10","correct_side":2,"subjID":"MaríaValentinaRincónParada6","gender":"1","age":"10","school":"6"},{"start_time":1551801375463,"click_time":1551801376765,"finger_time":1551801376143,"fix_duration":1498.6084378179019,"trial":62,"RT":680,"MT":622,"sideResp":2,"stimulus":"img/750/equaldotsize/R/4_Ratio_750_L_15_R_20.png","xmouse":[792,792,792,792,792,792,792,792,792,792,792,792,792,792,792,792,792,792,792,792,792,792,792,792,792,792,792,792,792,792,792,797,804,820,846,886,964,988,1006,1014,1023,1035,1039,1040,1040,1040,1035,1034,1034,1034,1034,1040,1045,1053,1066,1079,1099,1103,1107,1110,1115,1128,1132,1136,1137,1138],"ymouse":[528,528,528,528,528,528,528,528,528,528,528,528,528,528,528,528,528,528,528,528,528,528,528,528,528,528,528,528,528,528,528,525,521,510,490,456,375,335,293,274,257,233,224,220,217,214,205,192,186,171,161,147,139,133,127,123,113,110,108,106,106,104,103,101,100,98],"timestamp_mouse":[8,29,41,60,81,100,120,140,160,181,200,220,240,261,280,301,321,340,360,382,401,420,440,460,482,500,520,540,562,582,601,620,641,660,680,701,720,742,761,780,800,820,841,860,881,901,920,942,961,980,1001,1022,1041,1061,1081,1100,1121,1140,1160,1181,1201,1221,1240,1260,1281,1302],"xSR":741.5,"ySR":458.25,"xT1":424.9,"yT1":0,"xT2":1058.1,"yT2":0,"toosoon":0,"cond_shown":"equaldotsize","ratio_trial":750,"smaller_num":"15","larger_num":"20","correct_side":2,"subjID":"MaríaValentinaRincónParada6","gender":"1","age":"10","school":"6"},{"start_time":1551801380132,"click_time":1551801381144,"finger_time":1551801380863,"fix_duration":1184.0917521834099,"trial":63,"RT":731,"MT":281,"sideResp":1,"stimulus":"img/900/equaldotanddens/L/4_Ratio_900_L_20_R_18.png","xmouse":[786,786,786,786,786,786,786,786,786,786,786,786,786,786,786,786,786,786,786,786,786,786,786,786,786,786,786,786,786,786,786,786,786,785,785,777,769,740,726,716,708,699,671,648,626,599,585,546,521,495,479],"ymouse":[495,495,495,495,495,495,495,495,495,495,495,495,495,495,495,495,495,495,495,495,495,495,495,495,495,495,495,495,495,495,495,495,495,493,484,468,455,422,409,395,381,366,333,314,298,275,258,194,146,103,77],"timestamp_mouse":[12,33,52,71,91,113,131,152,171,192,212,231,252,271,292,312,332,352,371,392,412,431,451,471,491,511,531,553,571,592,611,632,651,672,691,713,731,751,772,792,811,831,851,872,892,911,931,951,972,991,1012],"xSR":741.5,"ySR":458.25,"xT1":424.9,"yT1":0,"xT2":1058.1,"yT2":0,"toosoon":0,"cond_shown":"equaldotanddens","ratio_trial":900,"smaller_num":"18","larger_num":"20","correct_side":1,"subjID":"MaríaValentinaRincónParada6","gender":"1","age":"10","school":"6"},{"start_time":1551801384979,"click_time":1551801386264,"finger_time":1551801385583,"fix_duration":1294.0871971663485,"trial":64,"RT":604,"MT":681,"sideResp":2,"stimulus":"img/250/equaldotsize/R/13_Ratio_250_L_2_R_8.png","xmouse":[779,779,779,779,779,779,779,779,779,779,779,779,779,779,779,779,779,779,779,779,779,779,779,779,779,779,780,783,795,815,858,886,896,920,936,964,977,987,997,1001,1004,1004,1005,1010,1015,1023,1026,1027,1029,1030,1035,1038,1048,1053,1059,1063,1063,1065,1066,1066,1066,1066,1066,1066,1069],"ymouse":[517,517,517,517,517,517,517,517,517,517,517,517,517,517,517,517,517,517,517,517,517,517,517,517,517,517,515,514,507,495,474,461,458,445,435,411,396,383,368,357,332,321,308,297,283,261,252,245,240,236,223,211,186,167,149,119,110,105,104,103,103,103,102,102,93],"timestamp_mouse":[9,24,45,64,83,104,124,143,165,183,205,223,244,263,284,304,324,344,365,383,403,425,444,463,485,503,524,544,564,584,604,625,644,664,683,703,724,743,763,783,803,824,843,863,883,904,923,943,963,984,1003,1024,1044,1064,1084,1104,1124,1143,1164,1183,1203,1224,1244,1263,1285],"xSR":741.5,"ySR":458.25,"xT1":424.9,"yT1":0,"xT2":1058.1,"yT2":0,"toosoon":0,"cond_shown":"equaldotsize","ratio_trial":250,"smaller_num":"2","larger_num":"8","correct_side":2,"subjID":"MaríaValentinaRincónParada6","gender":"1","age":"10","school":"6"},{"start_time":1551801387332,"click_time":1551801388583,"finger_time":1551801388062,"fix_duration":388.39715662948447,"trial":65,"RT":730,"MT":521,"sideResp":1,"stimulus":"img/250/randomdotsizeEA/L/1_Ratio_250_L_8_R_2.png","xmouse":[819,819,819,819,819,819,819,819,815,814,814,814,814,814,814,814,814,814,814,814,814,814,814,814,814,814,814,814,814,814,814,814,814,813,811,796,782,745,725,698,680,669,659,653,645,639,633,613,598,584,573,566,559,557,555,553,550,543,539,538,535,532,523],"ymouse":[521,521,521,521,521,521,521,520,520,520,520,520,520,520,520,520,520,520,520,520,520,520,520,520,520,520,520,520,520,520,520,520,520,516,509,475,450,386,354,315,290,271,241,231,218,211,205,191,180,170,159,150,141,138,136,132,127,117,111,105,99,91,83],"timestamp_mouse":[10,31,51,72,90,122,131,152,171,192,210,230,250,270,291,311,331,350,372,391,411,432,450,472,490,511,532,551,572,591,612,631,650,670,691,711,730,751,770,790,810,830,850,871,891,911,931,951,970,991,1010,1032,1050,1071,1090,1110,1131,1150,1172,1191,1210,1232,1251],"xSR":741.5,"ySR":458.25,"xT1":424.9,"yT1":0,"xT2":1058.1,"yT2":0,"toosoon":0,"cond_shown":"randomdotsizeEA","ratio_trial":250,"smaller_num":"2","larger_num":"8","correct_side":1,"subjID":"MaríaValentinaRincónParada6","gender":"1","age":"10","school":"6"},{"start_time":1551801390015,"click_time":1551801391564,"finger_time":1551801390982,"fix_duration":431.6614581430265,"trial":66,"RT":967,"MT":582,"sideResp":1,"stimulus":"img/750/equaldotsize/L/8_Ratio_750_L_4_R_3.png","xmouse":[819,819,819,819,819,819,819,819,819,819,819,819,819,819,819,819,819,819,819,819,819,819,819,819,819,819,819,819,819,819,819,819,819,819,819,819,819,819,819,819,819,816,810,785,778,772,764,756,718,701,687,675,671,663,655,648,641,635,620,611,603,597,589,574,565,557,547,536,511,502,493,489,488,486,485,485,484,481],"ymouse":[510,510,510,510,510,510,510,510,510,510,510,510,510,510,510,510,510,510,510,510,510,510,510,510,510,510,510,510,510,510,510,510,510,510,510,510,510,510,510,510,510,509,506,498,496,492,488,486,474,466,457,443,429,396,379,364,350,336,302,278,265,253,243,223,211,201,191,181,163,154,143,137,131,123,119,114,105,89],"timestamp_mouse":[8,27,47,69,88,109,128,147,168,187,207,228,248,269,287,308,327,347,369,387,407,428,449,467,489,508,528,548,568,587,608,629,648,668,689,709,727,748,769,788,807,828,847,867,887,907,928,948,967,989,1008,1029,1048,1068,1087,1107,1127,1148,1167,1188,1207,1228,1248,1268,1288,1307,1327,1347,1368,1388,1407,1428,1447,1468,1487,1507,1528,1549],"xSR":741.5,"ySR":458.25,"xT1":424.9,"yT1":0,"xT2":1058.1,"yT2":0,"toosoon":0,"cond_shown":"equaldotsize","ratio_trial":750,"smaller_num":"3","larger_num":"4","correct_side":1,"subjID":"MaríaValentinaRincónParada6","gender":"1","age":"10","school":"6"},{"start_time":1551801392575,"click_time":1551801393903,"finger_time":1551801393284,"fix_duration":250,"trial":67,"RT":709,"MT":619,"sideResp":1,"stimulus":"img/750/equaldotsize/L/10_Ratio_750_L_4_R_3.png","xmouse":[820,820,820,820,820,820,820,820,820,819,819,817,814,812,811,809,809,809,809,807,805,805,805,805,805,804,803,803,803,803,803,805,809,813,817,834,846,864,894,939,1002,1017,1018,1016,1007,979,965,946,926,903,837,790,746,682,645,606,601,597,591,580,563,560,557,555,549,528,518],"ymouse":[527,527,527,527,527,527,527,527,526,526,526,526,527,527,527,529,529,529,529,529,527,526,524,521,518,512,509,506,502,497,488,484,477,474,469,456,445,427,403,372,321,304,299,296,296,296,294,291,288,282,260,239,214,167,138,101,92,85,82,81,81,80,80,80,80,80,80],"timestamp_mouse":[7,33,49,67,87,108,128,148,169,187,207,228,248,267,288,307,327,348,367,389,408,428,447,468,487,507,528,548,568,588,607,629,647,667,687,709,729,747,768,787,807,828,849,869,887,907,927,948,968,988,1008,1029,1048,1067,1088,1109,1127,1147,1167,1188,1207,1227,1248,1267,1288,1308,1328],"xSR":741.5,"ySR":458.25,"xT1":424.9,"yT1":0,"xT2":1058.1,"yT2":0,"toosoon":0,"cond_shown":"equaldotsize","ratio_trial":750,"smaller_num":"3","larger_num":"4","correct_side":1,"subjID":"MaríaValentinaRincónParada6","gender":"1","age":"10","school":"6"},{"start_time":1551801395240,"click_time":1551801396063,"finger_time":1551801395782,"fix_duration":496.9046149101306,"trial":68,"RT":542,"MT":281,"sideResp":2,"stimulus":"img/900/equaldotsize/R/11_Ratio_900_L_18_R_20.png","xmouse":[787,787,787,787,787,787,787,787,787,787,787,787,787,787,787,787,787,787,787,787,787,787,787,787,795,800,813,874,915,959,978,990,1005,1012,1021,1030,1039,1051,1053,1056,1058,1060],"ymouse":[498,498,498,498,498,498,498,498,498,498,498,498,498,498,498,498,498,498,498,498,498,498,498,498,494,486,469,391,343,284,252,226,191,179,167,155,141,120,109,93,86,78],"timestamp_mouse":[9,22,43,64,82,103,122,142,162,182,202,224,242,263,284,302,322,342,363,382,403,422,443,462,482,502,523,542,562,583,603,623,643,663,682,702,723,742,762,782,802,822],"xSR":741.5,"ySR":458.25,"xT1":424.9,"yT1":0,"xT2":1058.1,"yT2":0,"toosoon":0,"cond_shown":"equaldotsize","ratio_trial":900,"smaller_num":"18","larger_num":"20","correct_side":2,"subjID":"MaríaValentinaRincónParada6","gender":"1","age":"10","school":"6"},{"start_time":1551801397828,"click_time":1551801399382,"finger_time":1551801398543,"fix_duration":843.621568682249,"trial":69,"RT":715,"MT":839,"sideResp":2,"stimulus":"img/500/randomdotsizeEA/R/15_Ratio_500_L_1_R_2.png","xmouse":[774,774,774,775,775,775,775,775,775,775,775,775,775,775,775,775,775,775,775,775,775,775,775,775,775,775,775,775,775,774,771,768,758,752,742,729,716,689,677,664,655,644,611,590,569,552,536,517,515,515,515,518,520,524,526,533,543,581,616,678,720,762,845,874,901,928,957,997,1008,1023,1029,1033,1034,1035,1036,1039,1045,1062],"ymouse":[513,513,513,513,513,513,513,513,513,513,513,513,513,513,513,513,513,513,513,513,513,513,513,513,513,513,513,513,513,510,506,501,489,480,467,455,442,424,415,405,399,392,375,364,352,341,330,310,307,305,303,301,299,296,293,285,274,250,235,212,199,191,177,173,168,160,149,127,118,109,105,103,102,102,100,96,90,79],"timestamp_mouse":[15,35,55,75,94,115,136,154,176,194,214,234,256,275,294,315,335,354,376,394,416,434,454,475,494,514,536,554,575,595,614,634,654,674,696,715,734,755,775,794,816,834,854,875,894,914,934,954,975,995,1015,1034,1055,1074,1094,1115,1135,1154,1174,1195,1215,1234,1254,1274,1295,1315,1335,1354,1375,1395,1415,1435,1454,1475,1495,1514,1534,1554],"xSR":741.5,"ySR":458.25,"xT1":424.9,"yT1":0,"xT2":1058.1,"yT2":0,"toosoon":0,"cond_shown":"randomdotsizeEA","ratio_trial":500,"smaller_num":"1","larger_num":"2","correct_side":2,"subjID":"MaríaValentinaRincónParada6","gender":"1","age":"10","school":"6"},{"start_time":1551801400534,"click_time":1551801401182,"finger_time":1551801401003,"fix_duration":250,"trial":70,"RT":469,"MT":179,"sideResp":2,"stimulus":"img/250/equaldotanddens/R/8_Ratio_250_L_1_R_4.png","xmouse":[821,821,821,821,821,821,821,821,821,821,821,821,821,821,821,821,821,820,820,822,823,824,833,846,873,896,921,962,985,1008,1030,1049,1078],"ymouse":[516,516,516,516,516,516,516,516,516,516,516,516,516,516,516,516,516,515,511,505,500,492,468,445,400,365,318,221,176,139,106,87,62],"timestamp_mouse":[9,28,48,69,89,108,130,150,169,190,208,230,249,268,289,309,328,349,368,388,408,430,448,469,488,510,528,548,568,588,608,628,648],"xSR":741.5,"ySR":458.25,"xT1":424.9,"yT1":0,"xT2":1058.1,"yT2":0,"toosoon":0,"cond_shown":"equaldotanddens","ratio_trial":250,"smaller_num":"1","large