[{"start_time":1551880549891,"click_time":1551880565068,"finger_time":1551880549908,"fix_duration":658.5338653919488,"trial":0,"RT":17,"MT":15160,"sideResp":2,"stimulus":[],"xmouse":[804,804,804,804,804,804,804,804,803,803,803,803,803,803,803,803,803,803,803,803,803,803,803,803,803,803,803,803,803,803,803,803,806,812,812,812,812,812,812,812,813,813,813,813,813,813,813,813,813,813,815,820,825,827,827,828,828,828,828,828,828,828,828,828,828,828,828,828,828,825,817,813,811,810,809,805,803,799,798,797,797,797,797,797,795,792,791,790,790,790,790,790,790,790,790,790,790,790,789,787,786,786,786,786,786,786,786,786,786,786,786,786,786,786,786,786,786,786,786,786,786,786,786,786,786,786,786,786,786,786,786,786,786,786,786,786,786,786,786,786,786,786,785,783,779,778,777,777,777,777,777,777,777,777,777,777,777,777,777,777,777,777,777,777,777,777,777,777,777,777,777,777,777,777,777,777,777,777,777,777,777,777,777,777,777,777,777,777,777,777,777,777,777,777,777,777,777,777,777,777,777,777,780,782,783,784,785,790,791,794,796,797,798,799,799,799,799,799,799,799,799,799,799,799,799,799,799,799,799,799,799,799,799,799,799,799,799,799,799,799,799,799,799,799,799,799,799,799,799,799,799,799,799,799,799,799,799,799,799,799,799,799,799,799,799,799,799,799,799,799,799,799,799,799,799,799,799,799,799,799,799,799,799,799,799,799,799,799,799,799,799,799,799,799,799,799,799,793,793,793,793,793,793,793,793,793,793,793,793,793,793,793,793,793,793,793,793,793,793,793,793,793,793,793,793,793,793,793,793,793,793,793,793,793,793,793,793,793,793,793,793,793,793,793,793,793,793,792,792,792,792,792,792,792,792,792,792,792,792,792,792,792,792,792,792,792,792,792,792,792,792,792,792,792,792,792,792,792,792,792,792,792,792,792,792,792,792,792,792,792,792,792,792,792,792,792,792,792,792,792,792,792,792,792,792,792,792,792,792,792,792,792,792,792,792,792,792,792,792,792,792,792,792,792,792,792,792,792,792,792,792,792,792,792,792,792,791,769,758,756,756,756,756,755,755,755,755,755,755,755,755,755,755,755,753,750,749,749,749,749,749,749,749,749,758,767,773,774,776,777,785,791,804,808,808,809,809,809,809,809,809,809,810,813,814,816,817,817,817,817,817,817,817,817,817,817,817,812,809,807,804,800,790,781,772,770,770,770,770,770,770,772,779,785,788,790,791,792,792,792,792,792,792,792,792,792,792,792,792,792,792,792,792,792,792,792,792,792,792,792,792,792,792,792,792,792,792,792,792,792,792,791,791,791,791,791,791,791,791,791,791,791,791,791,791,791,791,791,791,791,791,791,791,791,791,791,791,791,791,791,791,790,790,789,789,789,789,789,789,789,789,789,789,789,789,789,789,789,789,789,789,789,789,789,789,789,789,789,789,789,789,789,789,789,789,789,791,795,796,804,827,843,849,849,849,849,849,849,849,849,849,849,849,849,849,849,849,849,850,846,827,806,785,785,785,785,785,785,785,785,785,785,785,785,785,785,785,785,785,785,785,785,785,785,785,785,785,785,785,785,785,785,785,785,785,785,785,785,785,785,785,785,785,785,785,785,785,785,785,785,785,785,781,767,755,752,752,752,752,752,752,752,752,752,752,752,752,752,752,752,752,752,752,752,752,752,752,752,752,752,752,752,752,752,752,752,752,752,753,756,760,768,792,805,826,847,864,889,898,901,908,922,963,986,1011,1033,1046,1057,1066,1070,1071,1071,1078,1084,1088,1090,1090,1094,1099],"ymouse":[505,505,505,505,505,505,505,505,505,505,505,505,505,505,505,505,505,505,505,505,505,505,505,505,505,505,505,505,505,505,505,505,500,496,496,496,496,496,496,496,495,495,495,495,495,495,495,495,495,495,494,492,491,491,491,491,491,491,491,491,491,491,491,491,491,491,491,491,494,503,519,526,530,532,536,544,551,560,562,564,567,569,571,573,579,585,590,594,594,594,594,594,594,594,594,594,594,594,600,610,612,612,612,612,612,612,612,612,612,612,612,612,612,612,612,612,612,612,612,612,612,613,613,613,613,613,613,613,613,613,613,613,613,613,613,613,613,613,613,613,613,613,613,613,611,611,610,610,610,610,610,610,610,610,610,610,610,610,610,610,610,610,610,610,610,610,610,610,610,610,610,610,610,610,610,610,610,610,610,610,610,610,610,610,610,610,610,610,610,610,610,610,610,610,610,610,610,610,610,610,610,610,609,609,609,609,608,606,606,604,603,602,601,601,601,601,601,601,601,601,601,601,601,601,601,601,601,601,601,601,601,601,601,601,601,601,601,601,601,601,601,601,601,601,601,601,601,601,601,601,601,601,601,601,601,601,601,601,601,601,601,601,601,601,601,601,601,601,601,601,601,601,601,601,601,601,601,601,601,601,601,601,601,601,601,601,601,601,601,601,601,601,601,601,601,601,600,598,598,598,598,598,598,598,598,598,598,598,598,598,598,598,598,598,598,598,598,598,598,598,598,598,598,598,598,598,598,598,598,598,598,598,598,598,598,598,598,598,598,598,598,598,598,598,598,598,598,597,597,597,597,597,597,597,597,597,597,597,597,597,597,597,597,597,597,597,597,597,597,597,597,597,597,597,597,597,597,597,597,597,597,597,597,597,597,597,597,597,597,597,597,597,597,597,597,597,597,597,597,597,597,597,597,597,597,597,597,597,597,597,597,597,597,597,597,597,597,597,597,597,597,597,597,597,597,597,597,597,597,597,597,597,597,597,597,597,597,582,571,569,568,568,568,567,567,567,567,567,567,567,567,565,555,542,530,521,515,515,515,515,515,515,515,515,515,518,519,519,519,519,519,519,512,511,510,509,509,509,509,509,509,509,509,506,504,502,501,501,501,501,501,501,501,501,501,502,506,527,538,546,556,568,605,629,646,652,652,652,652,652,652,651,641,633,626,621,620,619,619,619,619,619,619,619,619,619,619,619,619,619,619,619,619,619,619,619,619,619,619,619,619,619,619,619,619,619,619,619,619,619,619,619,619,619,619,619,619,619,619,619,619,619,619,619,619,619,619,619,619,619,619,619,619,619,619,619,619,619,619,619,619,621,624,626,626,626,626,626,626,626,626,626,626,626,626,626,626,626,626,626,626,626,626,626,626,626,626,626,626,626,626,626,626,626,626,626,624,621,621,620,619,619,619,619,619,619,619,619,619,619,619,619,619,619,619,619,619,619,619,619,619,619,616,616,616,616,616,616,616,616,616,616,616,616,616,616,616,616,616,616,616,616,616,616,616,616,616,616,616,616,616,616,616,616,616,616,616,616,616,616,616,616,616,616,616,616,616,616,616,616,616,616,616,616,616,616,616,616,616,616,616,616,616,616,616,616,616,616,616,616,616,616,616,616,616,616,616,616,616,616,616,616,616,616,616,616,616,616,611,606,601,593,563,544,517,482,455,428,419,416,407,394,369,357,344,325,304,257,225,202,178,154,126,119,115,114,112,102,92],"timestamp_mouse":[17,36,56,76,96,116,136,156,176,196,216,236,257,276,296,315,337,357,376,397,416,436,457,476,496,516,536,556,576,595,617,636,656,677,696,715,736,756,776,795,815,836,856,876,896,916,936,957,977,996,1016,1036,1057,1076,1096,1116,1136,1156,1177,1197,1217,1236,1257,1276,1297,1317,1336,1356,1377,1397,1417,1436,1457,1476,1496,1517,1536,1556,1576,1595,1616,1637,1656,1676,1696,1717,1737,1756,1776,1796,1817,1837,1856,1876,1896,1916,1937,1956,1977,1996,2016,2037,2056,2077,2095,2116,2136,2156,2177,2196,2216,2236,2256,2277,2295,2316,2336,2356,2377,2395,2416,2437,2456,2477,2496,2515,2536,2556,2576,2595,2616,2636,2656,2676,2695,2716,2736,2757,2777,2797,2817,2836,2857,2876,2896,2916,2936,2956,2977,2996,3017,3037,3055,3076,3097,3116,3135,3156,3177,3195,3217,3235,3257,3275,3297,3315,3336,3356,3376,3396,3416,3437,3456,3476,3496,3517,3537,3556,3576,3596,3616,3636,3656,3676,3696,3717,3737,3756,3776,3796,3815,3837,3856,3875,3896,3916,3937,3955,3976,3997,4017,4035,4056,4076,4096,4116,4136,4156,4175,4195,4217,4236,4256,4277,4296,4316,4336,4356,4377,4396,4415,4436,4456,4477,4495,4516,4537,4557,4576,4596,4616,4636,4656,4675,4696,4716,4737,4756,4777,4796,4817,4836,4856,4877,4897,4916,4936,4956,4975,4997,5015,5037,5057,5075,5096,5117,5137,5156,5176,5197,5217,5236,5256,5276,5297,5317,5337,5355,5376,5396,5416,5435,5456,5476,5496,5516,5536,5556,5576,5597,5617,5635,5656,5677,5695,5717,5736,5756,5776,5796,5817,5837,5856,5877,5897,5916,5936,5956,5975,5996,6017,6036,6056,6075,6097,6117,6136,6156,6176,6197,6216,6237,6257,6277,6297,6316,6337,6357,6377,6396,6417,6437,6457,6476,6497,6517,6536,6556,6576,6596,6617,6635,6657,6676,6696,6716,6737,6756,6776,6795,6816,6837,6856,6877,6896,6916,6936,6956,6975,6996,7015,7037,7056,7077,7097,7115,7136,7155,7177,7196,7216,7237,7256,7276,7296,7316,7337,7356,7377,7397,7416,7435,7457,7477,7496,7515,7537,7556,7577,7596,7616,7635,7656,7677,7695,7716,7737,7756,7776,7796,7816,7836,7856,7876,7895,7917,7936,7955,7976,7996,8015,8037,8057,8077,8097,8117,8137,8156,8177,8197,8216,8237,8257,8277,8296,8316,8337,8356,8376,8396,8417,8436,8457,8475,8497,8517,8536,8557,8576,8597,8616,8637,8657,8677,8696,8717,8736,8756,8777,8796,8816,8837,8856,8876,8896,8917,8936,8957,8976,8997,9017,9036,9056,9076,9096,9117,9137,9156,9177,9195,9217,9236,9257,9276,9296,9316,9336,9356,9376,9396,9416,9437,9456,9475,9496,9516,9536,9557,9576,9597,9617,9636,9655,9676,9697,9716,9737,9756,9775,9796,9816,9837,9856,9876,9897,9916,9935,9955,9976,9996,10016,10036,10056,10076,10096,10115,10137,10157,10177,10196,10217,10236,10256,10276,10297,10316,10337,10357,10376,10396,10417,10437,10456,10476,10496,10516,10536,10556,10576,10597,10616,10636,10656,10676,10696,10716,10736,10756,10776,10797,10817,10836,10857,10877,10897,10916,10936,10957,10977,10996,11016,11037,11056,11076,11097,11116,11136,11156,11176,11196,11216,11236,11257,11276,11297,11317,11335,11357,11376,11397,11415,11436,11456,11476,11497,11516,11535,11556,11577,11597,11616,11636,11655,11676,11696,11717,11737,11756,11776,11797,11816,11837,11856,11877,11896,11916,11937,11956,11977,11996,12016,12036,12056,12076,12095,12116,12136,12157,12176,12197,12216,12236,12256,12277,12296,12316,12336,12355,12377,12396,12416,12437,12455,12476,12496,12517,12537,12556,12576,12596,12616,12637,12656,12676,12697,12717,12737,12756,12776,12796,12817,12837,12855,12876,12896,12916,12937,12956,12976,12997,13017,13036,13055,13077,13096,13116,13136,13156,13175,13196,13216,13236,13257,13275,13297,13316,13337,13357,13376,13396,13417,13437,13456,13476,13496,13516,13536,13556,13577,13596,13616,13637,13656,13676,13696,13716,13737,13755,13777,13797,13817,13837,13856,13876,13896,13917,13937,13956,13976,13997,14015,14036,14056,14076,14096,14116,14136,14156,14176,14196,14216,14236,14256,14277,14296,14316,14335,14356,14376,14396,14416,14437,14456,14477,14496,14516,14537,14556,14577,14596,14616,14636,14655,14676,14696,14716,14735,14756,14776,14796,14816,14837,14855,14876,14896,14917,14937,14956,14976,14996,15015,15036,15056,15076,15096,15116,15136,15155,15177],"xSR":741.5,"ySR":469.95,"xT1":424.9,"yT1":0,"xT2":1058.1,"yT2":0,"toosoon":0,"cond_shown":"Congruent","ratio_trial":300,"L_num":11,"L_den":22,"R_num":4,"R_den":20,"correct_side":1,"subjID":"MARTINARANGOTRISTANCHO30","gender":"0","age":"11","school":"6","test":{"fix_dur":[250,1500],"timestim":1000,"targets_dim":[100,100],"targets_relative_coord":[0.3,0.7],"size_stim":[880,420],"start_dim":[100,100],"size_start":[300,300],"size_fix":60,"samplingrate":20,"img_types":["Congruent","Incongruent"],"ratios":[100,200,300],"rep_conds":19,"nTrials":120,"trials_to_rest":500,"Trials_order":[64,59,60,80,10,104,12,94,90,57,81,18,91,56,20,76,50,61,49,21,62,25,85,45,37,31,41,29,69,58,53,24,70,43,73,75,115,96,79,84,55,38,74,19,4,78,101,11,77,17,30,54,109,51,13,86,7,119,116,16,71,28,46,15,63,95,105,97,26,36,114,68,103,89,67,5,40,0,110,102,52,14,39,87,65,34,1,99,106,32,8,6,47,108,92,111,22,118,48,2,27,44,100,72,88,35,112,66,93,83,9,107,113,3,98,82,42,23,33,117],"cond_shown":["Congruent","Incongruent","Congruent","Congruent","Congruent","Congruent","Congruent","Congruent","Congruent","Incongruent","Incongruent","Congruent","Incongruent","Congruent","Congruent","Congruent","Congruent","Incongruent","Incongruent","Incongruent","Congruent","Incongruent","Incongruent","Incongruent","Incongruent","Incongruent","Incongruent","Incongruent","Incongruent","Congruent","Incongruent","Congruent","Congruent","Incongruent","Incongruent","Incongruent","Incongruent","Congruent","Incongruent","Congruent","Incongruent","Congruent","Congruent","Incongruent","Congruent","Congruent","Incongruent","Incongruent","Incongruent","Incongruent","Congruent","Congruent","Incongruent","Incongruent","Incongruent","Congruent","Incongruent","Incongruent","Congruent","Congruent","Incongruent","Congruent","Congruent","Incongruent","Incongruent","Incongruent","Incongruent","Incongruent","Congruent","Congruent","Congruent","Congruent","Incongruent","Incongruent","Incongruent","Incongruent","Congruent","Congruent","Congruent","Congruent","Congruent","Congruent","Incongruent","Incongruent","Incongruent","Congruent","Incongruent","Incongruent","Congruent","Congruent","Congruent","Congruent","Incongruent","Congruent","Congruent","Incongruent","Congruent","Congruent","Congruent","Congruent","Incongruent","Congruent","Congruent","Congruent","Congruent","Incongruent","Congruent","Congruent","Incongruent","Incongruent","Incongruent","Incongruent","Incongruent","Incongruent","Congruent","Congruent","Congruent","Incongruent","Incongruent","Incongruent"],"ratio_trial":[300,300,100,200,300,200,100,300,100,200,200,100,100,200,200,300,200,100,100,200,200,100,100,200,100,100,300,300,200,300,300,100,300,100,100,200,100,100,100,100,100,200,200,100,300,100,300,300,300,300,100,100,100,200,100,200,100,300,200,300,300,300,300,200,200,300,200,100,200,100,100,200,100,300,100,300,300,100,200,100,300,200,200,200,300,300,100,200,300,200,200,100,300,100,200,200,300,300,100,200,200,200,300,100,300,300,300,100,200,300,200,300,300,200,200,300,100,300,200,200],"left_num":[11,4,12,3,20,6,6,11,7,3,4,10,11,3,9,1,8,6,12,3,12,9,2,14,12,10,13,13,7,1,4,1,2,6,6,4,2,11,2,10,6,8,3,6,5,11,13,13,4,13,7,9,10,3,13,3,6,13,4,18,1,20,1,4,7,4,4,1,4,6,6,12,13,4,11,4,4,10,4,2,9,12,7,3,4,1,1,14,5,1,16,11,13,4,6,3,8,8,4,6,4,7,3,12,5,7,7,1,4,13,7,13,4,4,3,9,15,7,1,7],"right_num":[4,2,13,11,13,3,5,1,15,11,6,3,9,7,4,8,3,3,9,11,6,13,8,12,9,8,12,12,14,19,2,18,10,3,13,6,6,4,6,3,11,7,7,3,6,6,12,12,2,12,9,8,9,11,12,7,3,12,3,9,2,14,7,14,12,8,14,8,3,15,15,6,6,2,9,2,2,3,3,6,3,6,12,11,2,8,8,12,6,21,12,6,12,15,11,11,10,10,6,11,14,2,2,13,6,8,20,3,1,12,14,12,2,6,14,3,13,8,2,14],"left_den":[22,20,30,10,25,15,20,22,14,4,5,25,22,10,20,30,15,12,24,4,15,15,4,30,24,25,26,26,10,3,20,2,20,12,10,5,4,22,4,25,10,15,10,12,25,22,26,26,20,26,14,15,25,4,26,10,12,26,8,20,2,25,20,6,10,5,6,2,10,12,12,15,26,20,22,20,5,25,8,5,10,20,10,4,20,30,2,30,25,2,20,22,26,10,20,4,15,15,8,20,6,21,6,30,25,10,14,2,30,26,10,26,20,5,6,10,25,10,3,10],"right_den":[20,4,26,22,26,15,25,5,25,20,10,10,15,14,16,24,9,5,15,20,10,26,20,18,15,16,15,15,28,30,4,30,25,5,26,10,15,10,15,10,22,21,14,5,12,15,15,15,4,15,15,16,18,20,20,14,5,15,10,15,10,28,20,30,24,16,30,20,15,25,25,10,10,4,15,4,4,10,10,12,5,15,24,20,4,24,20,18,12,30,20,15,15,30,22,20,12,12,10,22,30,15,10,26,12,20,25,5,3,15,28,15,4,10,20,5,26,20,15,28],"correct_side":[1,2,2,2,1,1,1,1,2,1,1,1,2,2,1,2,1,2,2,1,1,1,1,2,2,2,2,2,1,2,2,2,2,2,1,1,1,1,1,1,1,1,2,2,2,1,2,2,2,2,2,1,2,1,2,2,2,2,1,1,1,1,2,1,1,1,1,1,1,2,2,1,2,2,2,2,1,1,1,2,1,1,1,1,2,2,1,2,2,2,1,1,2,2,2,1,2,2,2,2,1,1,1,2,2,1,2,2,2,2,1,2,2,1,2,1,1,1,1,1],"img_shown":["img2/300/Congruent/L/C_Dist_300_LN_11_LD_22_RN_4_RD_20_0.png","img2/300/Incongruent/R/I_Dist_300_LN_4_LD_20_RN_2_RD_4_1.png","img2/100/Congruent/R/C_Dist_100_LN_12_LD_30_RN_13_RD_26_1.png","img2/200/Congruent/R/C_Dist_200_LN_3_LD_10_RN_11_RD_22_1.png","img2/300/Congruent/L/C_Dist_300_LN_20_LD_25_RN_13_RD_26_0.png","img2/200/Congruent/L/C_Dist_200_LN_6_LD_15_RN_3_RD_15_0.png","img2/100/Congruent/L/C_Dist_100_LN_6_LD_20_RN_5_RD_25_0.png","img2/300/Congruent/L/C_Dist_300_LN_11_LD_22_RN_1_RD_5_0.png","img2/100/Congruent/R/C_Dist_100_LN_7_LD_14_RN_15_RD_25_1.png","img2/200/Incongruent/L/I_Dist_200_LN_3_LD_4_RN_11_RD_20_0.png","img2/200/Incongruent/L/I_Dist_200_LN_4_LD_5_RN_6_RD_10_0.png","img2/100/Congruent/L/C_Dist_100_LN_10_LD_25_RN_3_RD_10_0.png","img2/100/Incongruent/R/I_Dist_100_LN_11_LD_22_RN_9_RD_15_1.png","img2/200/Congruent/R/C_Dist_200_LN_3_LD_10_RN_7_RD_14_1.png","img2/200/Congruent/L/C_Dist_200_LN_9_LD_20_RN_4_RD_16_0.png","img2/300/Congruent/R/C_Dist_300_LN_1_LD_30_RN_8_RD_24_1.png","img2/200/Congruent/L/C_Dist_200_LN_8_LD_15_RN_3_RD_9_0.png","img2/100/Incongruent/R/I_Dist_100_LN_6_LD_12_RN_3_RD_5_1.png","img2/100/Incongruent/R/I_Dist_100_LN_12_LD_24_RN_9_RD_15_1.png","img2/200/Incongruent/L/I_Dist_200_LN_3_LD_4_RN_11_RD_20_0.png","img2/200/Congruent/L/C_Dist_200_LN_12_LD_15_RN_6_RD_10_0.png","img2/100/Incongruent/L/I_Dist_100_LN_9_LD_15_RN_13_RD_26_0.png","img2/100/Incongruent/L/I_Dist_100_LN_2_LD_4_RN_8_RD_20_0.png","img2/200/Incongruent/R/I_Dist_200_LN_14_LD_30_RN_12_RD_18_1.png","img2/100/Incongruent/R/I_Dist_100_LN_12_LD_24_RN_9_RD_15_1.png","img2/100/Incongruent/R/I_Dist_100_LN_10_LD_25_RN_8_RD_16_1.png","img2/300/Incongruent/R/I_Dist_300_LN_13_LD_26_RN_12_RD_15_1.png","img2/300/Incongruent/R/I_Dist_300_LN_13_LD_26_RN_12_RD_15_1.png","img2/200/Incongruent/L/I_Dist_200_LN_7_LD_10_RN_14_RD_28_0.png","img2/300/Congruent/R/C_Dist_300_LN_1_LD_3_RN_19_RD_30_1.png","img2/300/Incongruent/R/I_Dist_300_LN_4_LD_20_RN_2_RD_4_1.png","img2/100/Congruent/R/C_Dist_100_LN_1_LD_2_RN_18_RD_30_1.png","img2/300/Congruent/R/C_Dist_300_LN_2_LD_20_RN_10_RD_25_1.png","img2/100/Incongruent/R/I_Dist_100_LN_6_LD_12_RN_3_RD_5_1.png","img2/100/Incongruent/L/I_Dist_100_LN_6_LD_10_RN_13_RD_26_0.png","img2/200/Incongruent/L/I_Dist_200_LN_4_LD_5_RN_6_RD_10_0.png","img2/100/Incongruent/L/I_Dist_100_LN_2_LD_4_RN_6_RD_15_0.png","img2/100/Congruent/L/C_Dist_100_LN_11_LD_22_RN_4_RD_10_0.png","img2/100/Incongruent/L/I_Dist_100_LN_2_LD_4_RN_6_RD_15_0.png","img2/100/Congruent/L/C_Dist_100_LN_10_LD_25_RN_3_RD_10_0.png","img2/100/Incongruent/L/I_Dist_100_LN_6_LD_10_RN_11_RD_22_0.png","img2/200/Congruent/L/C_Dist_200_LN_8_LD_15_RN_7_RD_21_0.png","img2/200/Congruent/R/C_Dist_200_LN_3_LD_10_RN_7_RD_14_1.png","img2/100/Incongruent/R/I_Dist_100_LN_6_LD_12_RN_3_RD_5_1.png","img2/300/Congruent/R/C_Dist_300_LN_5_LD_25_RN_6_RD_12_1.png","img2/100/Congruent/L/C_Dist_100_LN_11_LD_22_RN_6_RD_15_0.png","img2/300/Incongruent/R/I_Dist_300_LN_13_LD_26_RN_12_RD_15_1.png","img2/300/Incongruent/R/I_Dist_300_LN_13_LD_26_RN_12_RD_15_1.png","img2/300/Incongruent/R/I_Dist_300_LN_4_LD_20_RN_2_RD_4_1.png","img2/300/Incongruent/R/I_Dist_300_LN_13_LD_26_RN_12_RD_15_1.png","img2/100/Congruent/R/C_Dist_100_LN_7_LD_14_RN_9_RD_15_1.png","img2/100/Congruent/L/C_Dist_100_LN_9_LD_15_RN_8_RD_16_0.png","img2/100/Incongruent/R/I_Dist_100_LN_10_LD_25_RN_9_RD_18_1.png","img2/200/Incongruent/L/I_Dist_200_LN_3_LD_4_RN_11_RD_20_0.png","img2/100/Incongruent/R/I_Dist_100_LN_13_LD_26_RN_12_RD_20_1.png","img2/200/Congruent/R/C_Dist_200_LN_3_LD_10_RN_7_RD_14_1.png","img2/100/Incongruent/R/I_Dist_100_LN_6_LD_12_RN_3_RD_5_1.png","img2/300/Incongruent/R/I_Dist_300_LN_13_LD_26_RN_12_RD_15_1.png","img2/200/Congruent/L/C_Dist_200_LN_4_LD_8_RN_3_RD_10_0.png","img2/300/Congruent/L/C_Dist_300_LN_18_LD_20_RN_9_RD_15_0.png","img2/300/Incongruent/L/I_Dist_300_LN_1_LD_2_RN_2_RD_10_0.png","img2/300/Congruent/L/C_Dist_300_LN_20_LD_25_RN_14_RD_28_0.png","img2/300/Congruent/R/C_Dist_300_LN_1_LD_20_RN_7_RD_20_1.png","img2/200/Incongruent/L/I_Dist_200_LN_4_LD_6_RN_14_RD_30_0.png","img2/200/Incongruent/L/I_Dist_200_LN_7_LD_10_RN_12_RD_24_0.png","img2/300/Incongruent/L/I_Dist_300_LN_4_LD_5_RN_8_RD_16_0.png","img2/200/Incongruent/L/I_Dist_200_LN_4_LD_6_RN_14_RD_30_0.png","img2/100/Incongruent/L/I_Dist_100_LN_1_LD_2_RN_8_RD_20_0.png","img2/200/Congruent/L/C_Dist_200_LN_4_LD_10_RN_3_RD_15_0.png","img2/100/Congruent/R/C_Dist_100_LN_6_LD_12_RN_15_RD_25_1.png","img2/100/Congruent/R/C_Dist_100_LN_6_LD_12_RN_15_RD_25_1.png","img2/200/Congruent/L/C_Dist_200_LN_12_LD_15_RN_6_RD_10_0.png","img2/100/Incongruent/R/I_Dist_100_LN_13_LD_26_RN_6_RD_10_1.png","img2/300/Incongruent/R/I_Dist_300_LN_4_LD_20_RN_2_RD_4_1.png","img2/100/Incongruent/R/I_Dist_100_LN_11_LD_22_RN_9_RD_15_1.png","img2/300/Incongruent/R/I_Dist_300_LN_4_LD_20_RN_2_RD_4_1.png","img2/300/Congruent/L/C_Dist_300_LN_4_LD_5_RN_2_RD_4_0.png","img2/100/Congruent/L/C_Dist_100_LN_10_LD_25_RN_3_RD_10_0.png","img2/200/Congruent/L/C_Dist_200_LN_4_LD_8_RN_3_RD_10_0.png","img2/100/Congruent/R/C_Dist_100_LN_2_LD_5_RN_6_RD_12_1.png","img2/300/Congruent/L/C_Dist_300_LN_9_LD_10_RN_3_RD_5_0.png","img2/200/Congruent/L/C_Dist_200_LN_12_LD_20_RN_6_RD_15_0.png","img2/200/Incongruent/L/I_Dist_200_LN_7_LD_10_RN_12_RD_24_0.png","img2/200/Incongruent/L/I_Dist_200_LN_3_LD_4_RN_11_RD_20_0.png","img2/300/Incongruent/R/I_Dist_300_LN_4_LD_20_RN_2_RD_4_1.png","img2/300/Congruent/R/C_Dist_300_LN_1_LD_30_RN_8_RD_24_1.png","img2/100/Incongruent/L/I_Dist_100_LN_1_LD_2_RN_8_RD_20_0.png","img2/200/Incongruent/R/I_Dist_200_LN_14_LD_30_RN_12_RD_18_1.png","img2/300/Congruent/R/C_Dist_300_LN_5_LD_25_RN_6_RD_12_1.png","img2/200/Congruent/R/C_Dist_200_LN_1_LD_2_RN_21_RD_30_1.png","img2/200/Congruent/L/C_Dist_200_LN_16_LD_20_RN_12_RD_20_0.png","img2/100/Congruent/L/C_Dist_100_LN_11_LD_22_RN_6_RD_15_0.png","img2/300/Incongruent/R/I_Dist_300_LN_13_LD_26_RN_12_RD_15_1.png","img2/100/Congruent/R/C_Dist_100_LN_4_LD_10_RN_15_RD_30_1.png","img2/200/Congruent/R/C_Dist_200_LN_6_LD_20_RN_11_RD_22_1.png","img2/200/Incongruent/L/I_Dist_200_LN_3_LD_4_RN_11_RD_20_0.png","img2/300/Congruent/R/C_Dist_300_LN_8_LD_15_RN_10_RD_12_1.png","img2/300/Congruent/R/C_Dist_300_LN_8_LD_15_RN_10_RD_12_1.png","img2/100/Congruent/R/C_Dist_100_LN_4_LD_8_RN_6_RD_10_1.png","img2/200/Congruent/R/C_Dist_200_LN_6_LD_20_RN_11_RD_22_1.png","img2/200/Incongruent/L/I_Dist_200_LN_4_LD_6_RN_14_RD_30_0.png","img2/200/Congruent/L/C_Dist_200_LN_7_LD_21_RN_2_RD_15_0.png","img2/300/Congruent/L/C_Dist_300_LN_3_LD_6_RN_2_RD_10_0.png","img2/100/Congruent/R/C_Dist_100_LN_12_LD_30_RN_13_RD_26_1.png","img2/300/Congruent/R/C_Dist_300_LN_5_LD_25_RN_6_RD_12_1.png","img2/300/Incongruent/L/I_Dist_300_LN_7_LD_10_RN_8_RD_20_0.png","img2/300/Congruent/R/C_Dist_300_LN_7_LD_14_RN_20_RD_25_1.png","img2/100/Congruent/R/C_Dist_100_LN_1_LD_2_RN_3_RD_5_1.png","img2/200/Incongruent/R/I_Dist_200_LN_4_LD_30_RN_1_RD_3_1.png","img2/300/Incongruent/R/I_Dist_300_LN_13_LD_26_RN_12_RD_15_1.png","img2/200/Incongruent/L/I_Dist_200_LN_7_LD_10_RN_14_RD_28_0.png","img2/300/Incongruent/R/I_Dist_300_LN_13_LD_26_RN_12_RD_15_1.png","img2/300/Incongruent/R/I_Dist_300_LN_4_LD_20_RN_2_RD_4_1.png","img2/200/Incongruent/L/I_Dist_200_LN_4_LD_5_RN_6_RD_10_0.png","img2/200/Congruent/R/C_Dist_200_LN_3_LD_6_RN_14_RD_20_1.png","img2/300/Congruent/L/C_Dist_300_LN_9_LD_10_RN_3_RD_5_0.png","img2/100/Congruent/L/C_Dist_100_LN_15_LD_25_RN_13_RD_26_0.png","img2/300/Incongruent/L/I_Dist_300_LN_7_LD_10_RN_8_RD_20_0.png","img2/200/Incongruent/L/I_Dist_200_LN_1_LD_3_RN_2_RD_15_0.png","img2/200/Incongruent/L/I_Dist_200_LN_7_LD_10_RN_14_RD_28_0.png"],"dist100_C":[["C_Dist_100_LN_10_LD_25_RN_3_RD_10_0.png","C_Dist_100_LN_11_LD_22_RN_4_RD_10_0.png","C_Dist_100_LN_11_LD_22_RN_6_RD_15_0.png","C_Dist_100_LN_15_LD_25_RN_13_RD_26_0.png","C_Dist_100_LN_3_LD_6_RN_2_RD_5_0.png","C_Dist_100_LN_6_LD_20_RN_5_RD_25_0.png","C_Dist_100_LN_8_LD_16_RN_2_RD_5_0.png","C_Dist_100_LN_9_LD_15_RN_8_RD_16_0.png"],["C_Dist_100_LN_1_LD_2_RN_18_RD_30_1.png","C_Dist_100_LN_1_LD_2_RN_3_RD_5_1.png","C_Dist_100_LN_12_LD_30_RN_13_RD_26_1.png","C_Dist_100_LN_2_LD_5_RN_11_RD_22_1.png","C_Dist_100_LN_2_LD_5_RN_6_RD_12_1.png","C_Dist_100_LN_3_LD_20_RN_4_RD_16_1.png","C_Dist_100_LN_4_LD_10_RN_15_RD_30_1.png","C_Dist_100_LN_4_LD_8_RN_6_RD_10_1.png","C_Dist_100_LN_6_LD_12_RN_15_RD_25_1.png","C_Dist_100_LN_7_LD_14_RN_15_RD_25_1.png","C_Dist_100_LN_7_LD_14_RN_9_RD_15_1.png"]],"dist100_I":[["I_Dist_100_LN_1_LD_2_RN_8_RD_20_0.png","I_Dist_100_LN_2_LD_4_RN_6_RD_15_0.png","I_Dist_100_LN_2_LD_4_RN_8_RD_20_0.png","I_Dist_100_LN_3_LD_5_RN_11_RD_22_0.png","I_Dist_100_LN_3_LD_5_RN_8_RD_16_0.png","I_Dist_100_LN_3_LD_6_RN_4_RD_10_0.png","I_Dist_100_LN_3_LD_9_RN_7_RD_30_0.png","I_Dist_100_LN_4_LD_8_RN_8_RD_20_0.png","I_Dist_100_LN_6_LD_10_RN_11_RD_22_0.png","I_Dist_100_LN_6_LD_10_RN_13_RD_26_0.png","I_Dist_100_LN_6_LD_10_RN_7_RD_14_0.png","I_Dist_100_LN_9_LD_10_RN_20_RD_25_0.png","I_Dist_100_LN_9_LD_15_RN_13_RD_26_0.png","I_Dist_100_LN_9_LD_15_RN_14_RD_28_0.png"],["I_Dist_100_LN_10_LD_25_RN_8_RD_16_1.png","I_Dist_100_LN_10_LD_25_RN_9_RD_18_1.png","I_Dist_100_LN_11_LD_22_RN_9_RD_15_1.png","I_Dist_100_LN_12_LD_24_RN_9_RD_15_1.png","I_Dist_100_LN_12_LD_30_RN_2_RD_4_1.png","I_Dist_100_LN_13_LD_26_RN_12_RD_20_1.png","I_Dist_100_LN_13_LD_26_RN_6_RD_10_1.png","I_Dist_100_LN_17_LD_30_RN_10_RD_15_1.png","I_Dist_100_LN_6_LD_12_RN_3_RD_5_1.png","I_Dist_100_LN_8_LD_16_RN_6_RD_10_1.png","I_Dist_100_LN_8_LD_20_RN_1_RD_2_1.png","I_Dist_100_LN_9_LD_18_RN_6_RD_10_1.png"]],"dist100_S":[["E_Dist_100_LN_2_LD_12_RN_2_RD_30_0.png","E_Dist_100_LN_6_LD_10_RN_6_RD_12_0.png"],["E_Dist_100_LN_6_LD_12_RN_6_RD_10_1.png"]],"dist200_C":[["C_Dist_200_LN_11_LD_22_RN_3_RD_10_0.png","C_Dist_200_LN_12_LD_15_RN_6_RD_10_0.png","C_Dist_200_LN_12_LD_20_RN_6_RD_15_0.png","C_Dist_200_LN_14_LD_28_RN_6_RD_20_0.png","C_Dist_200_LN_15_LD_25_RN_4_RD_10_0.png","C_Dist_200_LN_16_LD_20_RN_12_RD_20_0.png","C_Dist_200_LN_16_LD_30_RN_9_RD_27_0.png","C_Dist_200_LN_20_LD_25_RN_9_RD_15_0.png","C_Dist_200_LN_21_LD_30_RN_2_RD_4_0.png","C_Dist_200_LN_4_LD_10_RN_3_RD_15_0.png","C_Dist_200_LN_4_LD_8_RN_3_RD_10_0.png","C_Dist_200_LN_6_LD_15_RN_3_RD_15_0.png","C_Dist_200_LN_7_LD_21_RN_2_RD_15_0.png","C_Dist_200_LN_8_LD_15_RN_2_RD_6_0.png","C_Dist_200_LN_8_LD_15_RN_3_RD_9_0.png","C_Dist_200_LN_8_LD_15_RN_7_RD_21_0.png","C_Dist_200_LN_9_LD_20_RN_4_RD_16_0.png"],["C_Dist_200_LN_1_LD_2_RN_21_RD_30_1.png","C_Dist_200_LN_13_LD_26_RN_14_RD_20_1.png","C_Dist_200_LN_3_LD_10_RN_11_RD_22_1.png","C_Dist_200_LN_3_LD_10_RN_14_RD_28_1.png","C_Dist_200_LN_3_LD_10_RN_7_RD_14_1.png","C_Dist_200_LN_3_LD_12_RN_9_RD_20_1.png","C_Dist_200_LN_3_LD_6_RN_14_RD_20_1.png","C_Dist_200_LN_5_LD_10_RN_14_RD_20_1.png","C_Dist_200_LN_6_LD_12_RN_7_RD_10_1.png","C_Dist_200_LN_6_LD_20_RN_11_RD_22_1.png","C_Dist_200_LN_7_LD_15_RN_18_RD_27_1.png","C_Dist_200_LN_9_LD_30_RN_13_RD_26_1.png"]],"dist200_I":[["I_Dist_200_LN_1_LD_2_RN_3_RD_10_0.png","I_Dist_200_LN_1_LD_3_RN_2_RD_15_0.png","I_Dist_200_LN_3_LD_4_RN_11_RD_20_0.png","I_Dist_200_LN_4_LD_5_RN_6_RD_10_0.png","I_Dist_200_LN_4_LD_6_RN_14_RD_30_0.png","I_Dist_200_LN_7_LD_10_RN_12_RD_24_0.png","I_Dist_200_LN_7_LD_10_RN_14_RD_28_0.png","I_Dist_200_LN_7_LD_10_RN_8_RD_16_0.png"],["I_Dist_200_LN_11_LD_20_RN_3_RD_4_1.png","I_Dist_200_LN_14_LD_30_RN_12_RD_18_1.png","I_Dist_200_LN_14_LD_30_RN_6_RD_9_1.png","I_Dist_200_LN_3_LD_10_RN_1_RD_2_1.png","I_Dist_200_LN_4_LD_30_RN_1_RD_3_1.png","I_Dist_200_LN_6_LD_20_RN_3_RD_6_1.png","I_Dist_200_LN_7_LD_15_RN_4_RD_6_1.png","I_Dist_200_LN_7_LD_15_RN_6_RD_9_1.png","I_Dist_200_LN_9_LD_15_RN_8_RD_10_1.png"]],"dist200_S":[["E_Dist_200_LN_3_LD_6_RN_3_RD_10_0.png"],["E_Dist_200_LN_3_LD_10_RN_3_RD_6_1.png"]],"dist300_C":[["C_Dist_300_LN_11_LD_22_RN_1_RD_5_0.png","C_Dist_300_LN_11_LD_22_RN_2_RD_10_0.png","C_Dist_300_LN_11_LD_22_RN_4_RD_20_0.png","C_Dist_300_LN_12_LD_24_RN_2_RD_10_0.png","C_Dist_300_LN_18_LD_20_RN_9_RD_15_0.png","C_Dist_300_LN_20_LD_25_RN_13_RD_26_0.png","C_Dist_300_LN_20_LD_25_RN_14_RD_28_0.png","C_Dist_300_LN_20_LD_25_RN_5_RD_10_0.png","C_Dist_300_LN_20_LD_25_RN_8_RD_16_0.png","C_Dist_300_LN_20_LD_25_RN_9_RD_18_0.png","C_Dist_300_LN_24_LD_30_RN_2_RD_4_0.png","C_Dist_300_LN_24_LD_30_RN_8_RD_16_0.png","C_Dist_300_LN_3_LD_6_RN_2_RD_10_0.png","C_Dist_300_LN_4_LD_10_RN_1_RD_10_0.png","C_Dist_300_LN_4_LD_5_RN_2_RD_4_0.png","C_Dist_300_LN_8_LD_16_RN_1_RD_5_0.png","C_Dist_300_LN_9_LD_10_RN_3_RD_5_0.png"],["C_Dist_300_LN_1_LD_20_RN_7_RD_20_1.png","C_Dist_300_LN_1_LD_3_RN_19_RD_30_1.png","C_Dist_300_LN_1_LD_30_RN_8_RD_24_1.png","C_Dist_300_LN_1_LD_5_RN_11_RD_22_1.png","C_Dist_300_LN_1_LD_5_RN_3_RD_6_1.png","C_Dist_300_LN_1_LD_5_RN_6_RD_12_1.png","C_Dist_300_LN_2_LD_10_RN_12_RD_24_1.png","C_Dist_300_LN_2_LD_20_RN_10_RD_25_1.png","C_Dist_300_LN_3_LD_12_RN_11_RD_20_1.png","C_Dist_300_LN_3_LD_6_RN_4_RD_5_1.png","C_Dist_300_LN_4_LD_20_RN_13_RD_26_1.png","C_Dist_300_LN_5_LD_25_RN_6_RD_12_1.png","C_Dist_300_LN_5_LD_25_RN_7_RD_14_1.png","C_Dist_300_LN_7_LD_14_RN_20_RD_25_1.png","C_Dist_300_LN_8_LD_15_RN_10_RD_12_1.png"]],"dist300_I":[["I_Dist_300_LN_1_LD_2_RN_2_RD_10_0.png","I_Dist_300_LN_1_LD_2_RN_3_RD_15_0.png","I_Dist_300_LN_2_LD_4_RN_6_RD_30_0.png","I_Dist_300_LN_3_LD_6_RN_4_RD_20_0.png","I_Dist_300_LN_4_LD_5_RN_6_RD_12_0.png","I_Dist_300_LN_4_LD_5_RN_8_RD_16_0.png","I_Dist_300_LN_7_LD_10_RN_8_RD_20_0.png","I_Dist_300_LN_8_LD_10_RN_14_RD_28_0.png","I_Dist_300_LN_8_LD_10_RN_9_RD_18_0.png"],["I_Dist_300_LN_13_LD_26_RN_12_RD_15_1.png","I_Dist_300_LN_4_LD_20_RN_2_RD_4_1.png"]],"dist300_S":[["E_Dist_300_LN_9_LD_12_RN_9_RD_20_0.png"],["E_Dist_300_LN_18_LD_30_RN_18_RD_20_1.png","E_Dist_300_LN_3_LD_10_RN_3_RD_5_1.png","E_Dist_300_LN_9_LD_20_RN_9_RD_12_1.png"]],"dist500_C":[["C_Dist_500_LN_10_LD_13_RN_7_RD_26_0.png","C_Dist_500_LN_10_LD_15_RN_4_RD_24_0.png","C_Dist_500_LN_12_LD_16_RN_3_RD_12_0.png","C_Dist_500_LN_12_LD_18_RN_4_RD_24_0.png","C_Dist_500_LN_15_LD_18_RN_5_RD_15_0.png","C_Dist_500_LN_15_LD_20_RN_1_RD_4_0.png","C_Dist_500_LN_18_LD_27_RN_1_RD_6_0.png","C_Dist_500_LN_20_LD_24_RN_1_RD_3_0.png","C_Dist_500_LN_20_LD_24_RN_3_RD_9_0.png","C_Dist_500_LN_20_LD_24_RN_7_RD_21_0.png","C_Dist_500_LN_20_LD_28_RN_3_RD_14_0.png","C_Dist_500_LN_21_LD_28_RN_6_RD_24_0.png","C_Dist_500_LN_22_LD_28_RN_2_RD_7_0.png","C_Dist_500_LN_25_LD_30_RN_9_RD_27_0.png","C_Dist_500_LN_4_LD_6_RN_1_RD_6_0.png","C_Dist_500_LN_5_LD_6_RN_2_RD_6_0.png","C_Dist_500_LN_6_LD_9_RN_1_RD_6_0.png","C_Dist_500_LN_7_LD_10_RN_1_RD_5_0.png","C_Dist_500_LN_8_LD_12_RN_1_RD_6_0.png","C_Dist_500_LN_8_LD_12_RN_4_RD_24_0.png"],["C_Dist_500_LN_1_LD_4_RN_12_RD_16_1.png","C_Dist_500_LN_1_LD_4_RN_9_RD_12_1.png","C_Dist_500_LN_1_LD_9_RN_11_RD_18_1.png","C_Dist_500_LN_10_LD_24_RN_22_RD_24_1.png","C_Dist_500_LN_2_LD_12_RN_10_RD_15_1.png","C_Dist_500_LN_2_LD_12_RN_12_RD_18_1.png","C_Dist_500_LN_2_LD_12_RN_4_RD_6_1.png","C_Dist_500_LN_2_LD_24_RN_7_RD_12_1.png","C_Dist_500_LN_2_LD_5_RN_18_RD_20_1.png","C_Dist_500_LN_2_LD_5_RN_9_RD_10_1.png","C_Dist_500_LN_2_LD_8_RN_12_RD_16_1.png","C_Dist_500_LN_2_LD_8_RN_21_RD_28_1.png","C_Dist_500_LN_3_LD_10_RN_4_RD_5_1.png","C_Dist_500_LN_3_LD_12_RN_15_RD_20_1.png","C_Dist_500_LN_3_LD_30_RN_6_RD_10_1.png","C_Dist_500_LN_3_LD_8_RN_14_RD_16_1.png","C_Dist_500_LN_4_LD_16_RN_15_RD_20_1.png","C_Dist_500_LN_4_LD_24_RN_12_RD_18_1.png","C_Dist_500_LN_5_LD_14_RN_6_RD_7_1.png","C_Dist_500_LN_7_LD_21_RN_20_RD_24_1.png","C_Dist_500_LN_7_LD_28_RN_12_RD_16_1.png","C_Dist_500_LN_7_LD_28_RN_9_RD_12_1.png","C_Dist_500_LN_9_LD_27_RN_20_RD_24_1.png"]],"dist500_I":[["I_Dist_500_LN_2_LD_3_RN_4_RD_24_0.png","I_Dist_500_LN_5_LD_6_RN_6_RD_18_0.png","I_Dist_500_LN_7_LD_8_RN_9_RD_24_0.png"],["I_Dist_500_LN_7_LD_21_RN_5_RD_6_1.png"]],"dist500_S":[["E_Dist_500_LN_6_LD_8_RN_6_RD_24_0.png"],["E_Dist_500_LN_2_LD_12_RN_2_RD_3_1.png","E_Dist_500_LN_6_LD_24_RN_6_RD_8_1.png"]]}},{"start_time":1551880571298,"click_time":1551880575567,"finger_time":1551880575228,"fix_duration":250,"trial":1,"RT":3930,"MT":339,"sideResp":2,"stimulus":[],"xmouse":[798,798,798,798,798,798,798,798,798,798,798,798,798,798,798,798,798,798,798,798,798,798,798,798,798,798,798,798,798,798,798,798,798,798,798,798,798,798,798,798,798,798,798,798,798,798,798,798,798,798,798,798,798,798,798,798,798,798,798,798,798,798,798,798,798,798,798,798,798,798,798,798,798,798,798,798,798,798,798,798,798,798,798,798,798,798,798,798,798,798,798,798,798,798,798,798,798,798,798,798,798,798,798,798,798,798,798,798,798,798,798,798,798,798,798,798,798,798,798,798,798,798,798,798,798,798,798,798,798,798,798,798,798,798,798,798,798,798,798,798,798,798,798,798,798,798,798,798,798,798,798,798,798,798,798,798,798,798,798,798,798,798,798,798,798,798,798,798,798,798,798,798,798,798,798,798,798,798,798,804,806,806,806,806,806,806,806,806,806,806,806,806,806,806,807,807,786,737,738,740,740,750,760,762,762,763,767,791,815,843,893,925,1028,1076],"ymouse":[609,609,609,609,609,609,609,609,609,609,609,609,609,609,609,609,609,609,609,609,609,609,609,609,609,609,609,609,609,609,609,609,609,609,609,609,609,609,609,609,609,609,609,609,609,609,609,609,609,609,609,609,609,609,609,609,609,609,609,609,609,609,609,609,609,609,609,609,609,609,609,609,609,609,609,609,609,609,609,609,609,609,609,609,609,609,609,609,609,609,609,609,609,609,609,609,609,609,609,609,609,609,609,609,609,609,609,609,609,609,609,609,609,609,609,609,609,609,609,609,609,609,609,609,609,609,609,609,609,609,609,609,609,609,609,609,609,609,609,609,609,609,609,609,609,609,609,609,609,609,609,609,609,609,609,609,609,609,609,609,609,609,609,609,609,609,609,609,609,609,609,609,609,609,609,609,609,609,609,609,609,609,609,609,609,609,609,609,609,609,609,609,609,609,605,599,568,480,459,451,413,394,390,389,389,388,383,342,309,270,214,172,71,30],"timestamp_mouse":[11,46,50,69,89,109,129,149,169,190,208,229,248,270,288,310,329,350,369,389,410,429,449,470,489,510,529,550,569,588,610,630,650,670,690,709,729,750,769,789,809,829,850,869,889,909,929,949,968,990,1009,1029,1049,1070,1089,1109,1129,1149,1170,1190,1209,1229,1249,1270,1289,1310,1329,1350,1370,1390,1410,1430,1449,1470,1490,1509,1529,1550,1569,1589,1609,1629,1649,1670,1689,1710,1729,1749,1769,1790,1810,1829,1849,1869,1890,1909,1930,1950,1970,1990,2008,2029,2050,2070,2090,2110,2130,2150,2170,2189,2209,2230,2249,2270,2290,2309,2330,2349,2370,2390,2409,2429,2450,2469,2489,2510,2529,2550,2569,2590,2610,2629,2649,2669,2689,2709,2730,2749,2770,2789,2808,2829,2849,2870,2890,2909,2928,2950,2970,2989,3010,3030,3050,3070,3089,3110,3130,3149,3170,3190,3209,3229,3250,3269,3290,3310,3329,3350,3369,3389,3409,3430,3448,3469,3490,3510,3529,3549,3570,3589,3609,3629,3649,3670,3688,3710,3728,3749,3770,3789,3809,3829,3850,3869,3889,3909,3930,3949,3968,3989,4010,4029,4049,4069,4089,4109,4129,4148,4170,4189,4209,4230,4249,4269],"xSR":741.5,"ySR":573.95,"xT1":424.9,"yT1":0,"xT2":1058.1,"yT2":0,"toosoon":0,"cond_shown":"Incongruent","ratio_trial":300,"L_num":4,"L_den":20,"R_num":2,"R_den":4,"correct_side":2,"subjID":"MARTINARANGOTRISTANCHO30","gender":"0","school":"6","age":"11"},{"start_time":1551880578039,"click_time":1551880581047,"finger_time":1551880580607,"fix_duration":250,"trial":2,"RT":2568,"MT":440,"sideResp":2,"stimulus":[],"xmouse":[778,778,778,778,778,778,778,778,778,778,778,778,778,778,778,778,778,778,778,778,778,778,778,778,778,778,778,778,778,778,778,778,778,778,778,778,778,778,778,778,778,778,778,778,778,778,778,778,778,778,778,778,778,778,778,778,778,778,778,778,778,778,778,778,778,778,778,778,778,778,778,778,778,778,778,778,778,778,778,778,778,778,778,778,778,778,778,778,778,778,778,778,778,778,778,778,778,778,778,778,778,778,778,778,778,778,778,778,778,778,778,778,778,778,778,778,778,778,778,778,778,778,778,778,778,778,777,761,749,744,744,743,740,720,713,713,713,713,734,771,822,847,892,924,970,1045,1079,1099,1109,1112,1112],"ymouse":[611,611,611,611,611,611,611,611,611,611,611,611,611,611,611,611,611,611,611,611,611,611,611,611,611,611,611,611,611,611,611,611,611,611,611,611,611,611,611,611,611,611,611,611,611,611,611,611,611,611,611,611,611,611,611,611,611,611,611,611,611,611,611,611,611,611,611,611,611,611,611,611,611,611,611,611,611,611,611,611,611,611,611,611,611,611,611,611,611,611,611,611,611,611,611,611,611,611,611,611,611,611,611,611,611,611,611,611,611,611,611,611,611,611,611,611,611,611,611,611,611,611,611,611,611,611,611,585,568,563,563,562,559,541,537,537,537,536,524,502,472,449,407,375,334,248,201,162,131,103,65],"timestamp_mouse":[9,41,48,69,89,109,128,149,169,188,209,228,248,269,289,308,329,349,369,388,409,428,448,468,488,508,527,548,568,588,607,628,648,668,688,708,728,748,768,789,808,828,848,869,888,908,928,948,968,989,1007,1028,1049,1068,1088,1107,1128,1147,1169,1189,1207,1228,1248,1268,1288,1309,1327,1348,1368,1387,1409,1429,1448,1468,1488,1508,1528,1549,1568,1588,1608,1629,1648,1668,1688,1709,1728,1749,1769,1788,1808,1828,1848,1868,1888,1909,1929,1947,1968,1989,2008,2029,2048,2068,2088,2108,2128,2148,2168,2189,2208,2228,2248,2268,2289,2308,2327,2349,2369,2388,2408,2428,2447,2468,2488,2509,2528,2548,2568,2589,2608,2628,2648,2669,2689,2708,2728,2748,2768,2788,2808,2828,2848,2869,2889,2908,2928,2948,2968,2989,3008],"xSR":741.5,"ySR":573.95,"xT1":424.9,"yT1":0,"xT2":1058.1,"yT2":0,"toosoon":0,"cond_shown":"Congruent","ratio_trial":100,"L_num":12,"L_den":30,"R_num":13,"R_den":26,"correct_side":2,"subjID":"MARTINARANGOTRISTANCHO30","gender":"0","school":"6","age":"11"},{"start_time":1551880583081,"click_time":1551880584988,"finger_time":1551880584487,"fix_duration":333.7553671187113,"trial":3,"RT":1406,"MT":501,"sideResp":2,"stimulus":[],"xmouse":[781,781,781,781,781,781,781,781,781,781,781,781,781,781,781,781,781,781,781,781,781,781,781,781,781,781,781,781,781,781,781,781,781,781,781,781,781,781,781,781,781,781,781,781,781,781,781,781,781,781,781,781,781,781,781,781,781,781,781,781,781,781,781,781,781,781,781,785,795,811,875,932,984,1105,1160,1202,1222,1229,1231,1231,1230,1224,1214,1188,1182,1182,1182,1182,1177,1167,1164,1164,1164,1164,1161,1152],"ymouse":[647,647,647,647,647,647,647,647,647,647,647,647,647,647,647,647,647,647,647,647,647,647,647,647,647,647,647,647,647,647,647,647,647,647,647,647,647,647,647,647,647,647,647,647,647,647,647,647,647,647,647,647,647,647,647,647,647,647,647,647,647,647,647,647,647,647,647,645,637,623,563,510,450,286,212,157,129,113,81,62,42,32,21,5,3,3,3,3,8,21,26,28,28,28,31,35],"timestamp_mouse":[11,41,45,66,87,105,126,146,166,186,207,227,247,266,285,306,327,347,367,386,406,426,446,466,487,506,527,547,566,586,606,626,647,666,686,706,726,746,766,786,806,827,847,865,887,906,927,946,967,986,1005,1026,1046,1066,1087,1106,1126,1146,1166,1187,1207,1225,1246,1266,1286,1306,1326,1346,1366,1386,1406,1426,1446,1466,1486,1506,1526,1547,1566,1586,1605,1626,1646,1666,1687,1707,1726,1747,1766,1785,1806,1826,1847,1866,1886,1907],"xSR":741.5,"ySR":573.95,"xT1":424.9,"yT1":0,"xT2":1058.1,"yT2":0,"toosoon":0,"cond_shown":"Congruent","ratio_trial":200,"L_num":3,"L_den":10,"R_num":11,"R_den":22,"correct_side":2,"subjID":"MARTINARANGOTRISTANCHO30","gender":"0","school":"6","age":"11"},{"start_time":1551880588562,"click_time":1551880590447,"finger_time":1551880589947,"fix_duration":253.83514382117556,"trial":4,"RT":1385,"MT":500,"sideResp":1,"stimulus":[],"xmouse":[793,793,793,793,793,793,793,793,793,793,793,793,793,793,793,793,793,793,793,793,793,793,793,793,793,793,793,793,793,793,793,793,793,793,793,793,793,793,793,793,793,793,793,793,793,793,793,793,793,793,793,793,793,793,793,793,793,793,793,793,794,794,794,794,795,800,804,805,805,792,774,750,723,700,668,661,658,656,655,635,617,606,602,602,600,591,577,568,559,557,557,557,541,528,524],"ymouse":[613,613,613,613,613,613,613,613,613,613,613,613,613,613,613,613,613,613,613,613,613,613,613,613,613,613,613,613,613,613,613,613,613,613,613,613,613,613,613,613,613,613,613,613,613,613,613,613,613,613,613,613,613,613,613,613,613,613,613,613,613,613,613,613,612,608,597,588,581,550,521,492,462,431,378,356,337,328,318,253,226,208,203,201,200,193,182,172,164,161,159,152,127,113,98],"timestamp_mouse":[9,25,48,66,85,105,125,144,165,185,205,225,244,266,285,305,325,344,365,386,405,426,446,465,486,505,526,545,565,585,605,626,646,666,685,706,724,746,765,785,804,825,846,866,886,905,925,945,964,986,1005,1026,1046,1065,1085,1106,1125,1145,1165,1185,1205,1225,1245,1266,1285,1305,1325,1345,1365,1385,1405,1425,1444,1464,1485,1505,1525,1545,1565,1584,1606,1625,1645,1666,1685,1705,1725,1745,1765,1785,1805,1825,1846,1865,1885],"xSR":741.5,"ySR":573.95,"xT1":424.9,"yT1":0,"xT2":1058.1,"yT2":0,"toosoon":0,"cond_shown":"Congruent","ratio_trial":300,"L_num":20,"L_den":25,"R_num":13,"R_den":26,"correct_side":1,"subjID":"MARTINARANGOTRISTANCHO30","gender":"0","school":"6","age":"11"},{"start_time":1551880592563,"click_time":1551880595387,"finger_time":1551880594867,"fix_duration":1293.7715310247968,"trial":5,"RT":2304,"MT":520,"sideResp":1,"stimulus":[],"xmouse":[778,778,778,778,778,778,778,778,778,778,778,778,778,778,778,778,778,778,778,778,778,778,778,778,778,778,778,778,778,778,778,778,778,778,778,778,778,778,778,778,778,778,778,778,778,778,778,778,778,778,778,778,778,778,778,778,778,778,778,778,778,778,778,778,778,774,772,770,769,769,769,769,768,768,768,768,768,768,768,768,768,768,768,768,768,768,768,768,768,768,768,768,768,768,768,768,768,768,768,767,766,766,766,766,766,766,766,766,766,766,766,766,763,759,744,735,730,724,718,660,642,629,624,622,622,617,613,577,546,515,509,506,505,504,504,504,503,503,503,511,513,513],"ymouse":[613,613,613,613,613,613,613,613,613,613,613,613,613,613,613,613,613,613,613,613,613,613,613,613,613,613,613,613,613,613,613,613,613,613,613,613,613,613,613,613,613,613,613,613,613,613,613,613,613,613,613,613,613,613,613,613,613,613,613,613,613,613,613,613,612,609,607,606,606,606,606,606,605,605,605,605,605,605,605,605,605,605,605,605,605,605,605,605,605,605,605,605,605,605,605,605,605,605,605,604,603,603,603,603,603,603,603,603,603,603,603,603,600,597,586,578,573,563,549,464,438,420,413,411,411,400,388,325,274,218,202,194,188,182,170,166,163,159,155,133,113,90],"timestamp_mouse":[9,24,44,66,84,105,125,144,165,184,204,224,244,264,285,304,324,345,365,385,404,424,444,464,485,503,524,545,564,584,603,625,644,664,684,705,725,745,765,785,804,824,844,864,884,903,924,945,963,983,1004,1025,1044,1064,1084,1105,1124,1144,1165,1183,1205,1224,1244,1265,1284,1304,1324,1343,1364,1384,1405,1424,1445,1463,1484,1504,1525,1545,1565,1584,1604,1625,1645,1664,1685,1705,1724,1744,1764,1785,1805,1823,1844,1864,1885,1904,1924,1944,1964,1984,2004,2024,2044,2064,2085,2105,2125,2145,2165,2184,2204,2224,2244,2264,2284,2304,2324,2344,2365,2384,2404,2424,2444,2464,2484,2504,2524,2543,2565,2584,2604,2624,2644,2665,2684,2704,2724,2744,2765,2784,2804,2824],"xSR":741.5,"ySR":573.95,"xT1":424.9,"yT1":0,"xT2":1058.1,"yT2":0,"toosoon":0,"cond_shown":"Congruent","ratio_trial":200,"L_num":6,"L_den":15,"R_num":3,"R_den":15,"correct_side":1,"subjID":"MARTINARANGOTRISTANCHO30","gender":"0","school":"6","age":"11"},{"start_time":1551880597714,"click_time":1551880600607,"finger_time":1551880599687,"fix_duration":464.54764402623704,"trial":6,"RT":1973,"MT":920,"sideResp":1,"stimulus":[],"xmouse":[809,809,809,809,809,809,809,809,809,809,809,809,809,809,809,809,809,809,809,809,809,809,809,809,809,809,809,809,809,809,809,809,809,809,809,809,809,809,809,809,809,809,809,809,809,809,809,809,809,809,809,809,809,809,809,809,809,809,809,809,809,809,809,809,809,809,809,809,809,809,809,809,809,809,809,809,809,809,809,809,809,809,809,809,809,809,809,809,809,809,809,809,809,809,807,805,800,793,779,768,754,714,698,677,659,648,635,633,633,633,633,615,612,612,613,613,610,588,555,548,548,545,542,537,537,537,537,537,537,535,534,534,534,534,534,535,532,531,531,531,531,531,531,531,506],"ymouse":[631,631,631,631,631,631,631,631,631,631,631,631,631,631,631,631,631,631,631,631,631,631,631,631,631,631,631,631,631,631,631,631,631,631,631,631,631,631,631,631,631,631,631,631,631,631,631,631,631,631,631,631,631,631,631,631,631,631,631,631,631,631,631,631,631,631,631,631,631,631,631,631,631,631,631,631,631,631,631,631,631,631,631,631,631,631,631,631,631,631,631,631,631,631,626,622,603,592,572,555,535,475,418,347,292,258,238,236,236,235,228,193,184,181,179,179,174,165,149,145,145,142,137,131,131,131,131,131,131,129,127,122,118,116,114,112,107,105,103,103,101,99,98,94,74],"timestamp_mouse":[13,33,65,74,93,114,134,153,174,193,214,233,253,273,294,313,332,354,373,393,413,434,453,473,494,514,534,553,573,592,614,633,654,674,693,714,734,752,774,793,814,834,853,874,894,914,933,953,973,993,1013,1034,1054,1073,1094,1113,1133,1154,1173,1194,1214,1233,1252,1274,1292,1312,1334,1354,1374,1393,1413,1433,1454,1473,1492,1513,1534,1552,1574,1594,1613,1632,1654,1674,1693,1713,1734,1753,1774,1792,1814,1833,1853,1873,1893,1913,1933,1954,1973,1994,2013,2033,2053,2072,2092,2113,2133,2152,2173,2193,2214,2233,2252,2273,2293,2314,2332,2353,2373,2394,2414,2433,2453,2473,2493,2513,2533,2553,2573,2593,2613,2633,2653,2673,2693,2712,2732,2753,2773,2793,2813,2832,2853,2873,2893],"xSR":741.5,"ySR":573.95,"xT1":424.9,"yT1":0,"xT2":1058.1,"yT2":0,"toosoon":0,"cond_shown":"Congruent","ratio_trial":100,"L_num":6,"L_den":20,"R_num":5,"R_den":25,"correct_side":1,"subjID":"MARTINARANGOTRISTANCHO30","gender":"0","school":"6","age":"11"},{"start_time":1551880605390,"click_time":1551880607187,"finger_time":1551880606888,"fix_duration":642.3828612083936,"trial":7,"RT":1498,"MT":299,"sideResp":1,"stimulus":[],"xmouse":[785,785,785,785,785,785,785,785,785,785,785,785,785,785,785,785,785,785,785,785,785,785,785,785,785,785,785,785,785,785,785,785,785,785,785,785,785,785,785,785,785,785,785,785,785,785,785,785,785,785,785,785,785,785,785,785,785,785,785,785,785,785,785,785,785,785,785,785,785,785,785,784,783,773,766,724,697,633,617,608,598,588,576,570,565,562,561,548,535,520],"ymouse":[603,603,603,603,603,603,603,603,603,603,603,603,603,603,603,603,603,603,603,603,603,603,603,603,603,603,603,603,603,603,603,603,603,603,603,603,603,603,603,603,603,603,603,603,603,603,603,603,603,603,603,603,603,603,603,603,603,603,603,603,603,603,603,603,603,603,603,603,603,603,603,601,599,577,561,455,384,284,259,239,216,195,171,163,157,155,150,114,87,63],"timestamp_mouse":[18,40,58,77,98,117,137,157,178,197,218,238,257,278,298,319,338,357,379,397,417,438,458,478,498,519,539,558,578,598,617,639,657,678,698,718,739,757,779,797,818,838,857,878,899,918,937,958,978,997,1019,1039,1058,1079,1097,1117,1138,1158,1177,1198,1219,1237,1258,1279,1297,1318,1339,1357,1377,1398,1419,1437,1457,1478,1498,1518,1537,1557,1577,1597,1618,1637,1657,1678,1698,1718,1737,1757,1777,1797],"xSR":741.5,"ySR":573.95,"xT1":424.9,"yT1":0,"xT2":1058.1,"yT2":0,"toosoon":0,"cond_shown":"Congruent","ratio_trial":300,"L_num":11,"L_den":22,"R_num":1,"R_den":5,"correct_side":1,"subjID":"MARTINARANGOTRISTANCHO30","gender":"0","school":"6","age":"11"},{"start_time":1551880608699,"click_time":1551880610348,"finger_time":1551880609987,"fix_duration":310.6488300278643,"trial":8,"RT":1288,"MT":361,"sideResp":2,"stimulus":[],"xmouse":[764,764,764,764,764,764,764,764,764,764,764,764,764,764,764,764,764,764,764,764,764,764,764,764,764,764,764,764,764,764,764,764,764,764,764,764,764,764,764,764,764,764,764,764,764,764,764,764,764,764,764,764,760,755,754,754,754,754,754,754,754,754,754,759,795,839,896,999,1028,1052,1063,1069,1078,1079,1079,1079,1079,1079,1079,1079,1076,1076,1100],"ymouse":[615,615,615,615,615,615,615,615,615,615,615,615,615,615,615,615,615,615,615,615,615,615,615,615,615,615,615,615,615,615,615,615,615,615,615,615,615,615,615,615,615,615,615,615,615,615,615,615,615,615,615,615,617,620,620,620,620,620,620,620,620,620,620,609,561,510,459,379,352,306,279,266,250,249,249,246,240,220,205,184,131,103,41],"timestamp_mouse":[20,28,48,68,90,108,128,150,168,189,208,230,248,268,290,309,328,350,369,390,409,429,448,468,489,510,528,549,570,588,608,628,649,669,689,708,729,749,769,788,808,830,848,869,889,909,929,950,968,989,1008,1029,1048,1068,1090,1109,1129,1149,1169,1189,1210,1229,1249,1268,1288,1308,1329,1348,1369,1388,1408,1429,1448,1468,1488,1509,1528,1548,1569,1589,1608,1628,1649],"xSR":741.5,"ySR":573.95,"xT1":424.9,"yT1":0,"xT2":1058.1,"yT2":0,"toosoon":0,"cond_shown":"Congruent","ratio_trial":100,"L_num":7,"L_den":14,"R_num":15,"R_den":25,"correct_side":2,"subjID":"MARTINARANGOTRISTANCHO30","gender":"0","school":"6","age":"11"},{"start_time":1551880612084,"click_time":1551880613687,"finger_time":1551880613388,"fix_duration":335.42908094766665,"trial":9,"RT":1304,"MT":299,"sideResp":2,"stimulus":[],"xmouse":[794,794,794,794,794,794,794,794,794,794,794,794,794,794,794,794,794,794,794,794,794,794,794,794,794,794,794,794,794,794,794,794,794,794,794,794,794,794,794,794,794,794,794,794,794,794,794,794,794,794,794,794,794,794,794,794,794,794,794,794,794,794,794,794,797,826,874,931,989,998,1009,1016,1022,1032,1038,1044,1045,1045,1047,1056,1076],"ymouse":[612,612,612,612,612,612,612,612,612,612,612,612,612,612,612,612,612,612,612,612,612,612,612,612,612,612,612,612,612,612,612,612,612,612,612,612,612,612,612,612,612,612,612,612,612,612,612,612,612,612,612,612,612,612,612,612,612,612,612,612,612,612,612,612,612,553,455,333,227,208,175,149,128,109,101,97,96,96,93,81,58],"timestamp_mouse":[9,40,43,64,83,104,125,143,163,184,204,223,243,264,284,303,324,345,363,384,404,424,444,464,484,505,523,545,564,583,603,623,645,663,684,703,724,744,763,784,804,824,843,864,883,904,925,944,964,984,1004,1024,1044,1064,1083,1103,1123,1143,1163,1185,1203,1224,1244,1265,1283,1304,1324,1343,1363,1383,1403,1425,1444,1463,1483,1503,1524,1543,1563,1585,1603],"xSR":741.5,"ySR":573.95,"xT1":424.9,"yT1":0,"xT2":1058.1,"yT2":0,"toosoon":0,"cond_shown":"Incongruent","ratio_trial":200,"L_num":3,"L_den":4,"R_num":11,"R_den":20,"correct_side":1,"subjID":"MARTINARANGOTRISTANCHO30","gender":"0","school":"6","age":"11"},{"start_time":1551880617549,"click_time":1551880619808,"finger_time":1551880619607,"fix_duration":516.5727725744076,"trial":10,"RT":2058,"MT":201,"sideResp":1,"stimulus":[],"xmouse":[764,764,764,764,764,764,764,764,764,764,764,764,764,764,764,764,764,764,764,764,764,764,764,764,764,764,764,764,764,764,764,763,763,763,763,763,763,763,763,763,763,763,763,763,763,763,763,763,763,763,763,763,763,763,763,763,763,763,763,763,763,763,763,763,763,763,763,763,763,763,763,763,763,763,763,763,763,763,763,763,763,763,763,763,763,763,763,763,763,763,763,763,763,763,763,763,763,763,763,763,763,766,765,726,651,631,603,578,569,549,530,502,479],"ymouse":[628,628,628,628,628,628,628,628,628,628,628,628,628,628,628,628,628,628,628,628,628,628,628,628,628,628,628,628,628,628,628,629,629,629,629,629,629,629,629,629,629,629,629,629,629,629,629,629,629,629,629,629,629,629,629,629,629,629,629,629,629,629,629,629,629,629,629,629,629,629,629,629,629,629,629,629,629,629,629,629,629,629,629,629,629,629,629,629,629,629,629,629,629,629,629,629,629,629,629,629,629,612,562,445,268,222,169,136,126,114,109,102,96],"timestamp_mouse":[19,38,59,79,98,119,139,160,179,199,219,239,258,280,300,318,340,359,378,400,418,439,459,478,498,519,538,560,578,598,618,639,659,680,698,718,739,759,779,798,820,839,859,880,899,918,939,959,979,998,1020,1038,1059,1079,1099,1120,1138,1158,1179,1198,1218,1238,1259,1279,1299,1319,1338,1360,1378,1398,1419,1439,1460,1478,1499,1520,1538,1559,1578,1599,1619,1638,1659,1680,1699,1720,1739,1758,1778,1800,1818,1838,1860,1878,1898,1919,1938,1960,1979,1999,2018,2038,2058,2079,2099,2119,2138,2159,2179,2198,2218,2239,2259],"xSR":741.5,"ySR":573.95,"xT1":424.9,"yT1":0,"xT2":1058.1,"yT2":0,"toosoon":0,"cond_shown":"Incongruent","ratio_trial":200,"L_num":4,"L_den":5,"R_num":6,"R_den":10,"correct_side":1,"subjID":"MARTINARANGOTRISTANCHO30","gender":"0","school":"6","age":"11"},{"start_time":1551880621925,"click_time":1551880623948,"finger_time":1551880623547,"fix_duration":676.2991676742531,"trial":11,"RT":1622,"MT":401,"sideResp":1,"stimulus":[],"xmouse":[782,779,778,778,777,777,777,777,776,776,776,776,776,776,776,776,776,776,776,776,776,776,776,776,776,776,776,776,776,776,776,776,776,776,776,776,776,776,776,776,776,776,776,776,776,776,776,776,776,776,776,776,776,776,776,776,776,776,776,776,776,776,776,776,776,776,776,776,776,776,776,776,776,776,776,776,776,776,776,773,768,708,646,586,550,540,538,539,540,535,531,525,523,523,523,521,513,505,497,487,481,478],"ymouse":[596,598,599,599,599,600,600,600,601,601,601,601,601,601,601,601,601,601,601,601,601,601,601,601,601,601,601,601,601,601,601,601,601,601,601,601,601,601,601,601,601,601,601,601,601,601,601,601,601,601,601,601,601,601,601,601,601,601,601,601,601,601,601,601,601,601,601,601,601,601,601,601,601,601,601,601,601,601,601,599,588,473,379,299,255,234,219,215,205,195,188,172,167,163,161,156,141,130,122,109,102,84],"timestamp_mouse":[2,23,56,62,83,103,123,142,163,184,204,222,244,263,282,303,322,343,362,382,402,424,442,462,483,502,524,542,562,583,603,623,642,662,683,702,723,742,763,782,803,822,842,863,882,903,924,942,964,983,1002,1022,1042,1062,1083,1103,1122,1143,1163,1184,1203,1223,1243,1263,1283,1304,1322,1342,1363,1383,1404,1423,1443,1462,1484,1503,1522,1543,1563,1582,1602,1622,1642,1662,1682,1703,1722,1743,1762,1784,1802,1822,1842,1862,1883,1902,1922,1943,1962,1984,2003,2023],"xSR":741.5,"ySR":573.95,"xT1":424.9,"yT1":0,"xT2":1058.1,"yT2":0,"toosoon":0,"cond_shown":"Congruent","ratio_trial":100,"L_num":10,"L_den":25,"R_num":3,"R_den":10,"correct_side":1,"subjID":"MARTINARANGOTRISTANCHO30","gender":"0","school":"6","age":"11"},{"start_time":1551880625781,"click_time":1551880628348,"finger_time":1551880627687,"fix_duration":751.3172632180383,"trial":12,"RT":1906,"MT":661,"sideResp":1,"stimulus":[],"xmouse":[804,804,804,804,804,804,804,804,804,804,804,804,804,804,804,804,804,804,804,804,804,804,804,804,804,804,804,804,804,804,804,804,804,804,804,804,804,804,804,804,804,804,804,804,804,804,804,804,804,804,804,804,804,804,804,804,804,804,804,804,804,804,804,804,804,804,804,804,804,804,804,804,804,804,804,804,804,804,804,804,804,804,804,804,804,804,804,804,804,804,801,801,797,777,769,757,745,732,713,706,697,687,682,673,668,659,654,650,623,594,567,555,555,568,570,570,570,564,563,562,562,560,554,541,536,533,530,526,511],"ymouse":[622,622,622,622,622,622,622,622,622,622,622,622,622,622,622,622,622,622,622,622,622,622,622,622,622,622,622,622,622,622,622,622,622,622,622,622,622,622,622,622,622,622,622,622,622,622,622,622,622,622,622,622,622,622,622,622,622,622,622,622,622,622,622,622,622,622,622,622,622,622,622,622,622,622,622,622,622,622,622,622,622,622,622,622,622,622,622,622,622,622,618,617,613,590,581,558,530,498,452,434,406,370,339,291,277,259,252,244,198,153,112,94,90,82,81,78,74,67,61,61,59,56,51,43,41,40,38,38,35],"timestamp_mouse":[8,26,47,67,87,107,127,146,166,187,208,226,248,266,286,308,326,347,368,386,407,427,446,466,486,508,526,548,567,586,607,627,646,666,686,706,727,747,766,787,807,828,848,866,888,906,927,947,968,988,1008,1026,1046,1067,1086,1107,1128,1147,1167,1187,1207,1226,1248,1267,1286,1306,1326,1347,1366,1387,1406,1427,1447,1466,1486,1508,1527,1547,1567,1587,1606,1626,1648,1666,1687,1707,1726,1746,1766,1788,1807,1827,1847,1866,1886,1906,1927,1946,1967,1986,2007,2027,2046,2066,2086,2106,2126,2146,2166,2186,2207,2227,2246,2266,2288,2306,2326,2346,2367,2386,2406,2426,2447,2466,2486,2506,2526,2547,2567],"xSR":741.5,"ySR":573.95,"xT1":424.9,"yT1":0,"xT2":1058.1,"yT2":0,"toosoon":0,"cond_shown":"Incongruent","ratio_trial":100,"L_num":11,"L_den":22,"R_num":9,"R_den":15,"correct_side":2,"subjID":"MARTINARANGOTRISTANCHO30","gender":"0","school":"6","age":"11"},{"start_time":1551880635281,"click_time":1551880636888,"finger_time":1551880636688,"fix_duration":570.0869984688578,"trial":13,"RT":1407,"MT":200,"sideResp":2,"stimulus":[],"xmouse":[779,779,779,779,779,779,779,779,779,780,781,781,781,781,781,781,781,781,781,781,781,781,781,781,781,781,781,781,781,781,781,781,781,781,781,781,781,781,781,781,781,781,781,781,781,781,781,781,781,781,781,781,781,781,781,781,781,781,781,781,781,781,781,781,781,781,781,781,791,801,817,843,869,943,982,1017,1038,1046,1051,1055,1066],"ymouse":[638,638,638,638,638,638,638,638,638,638,638,638,638,638,638,638,638,638,638,638,638,638,638,638,638,638,638,638,638,638,638,638,638,638,638,638,638,638,638,638,638,638,638,638,638,638,638,638,638,638,638,638,638,638,638,638,638,638,638,638,638,638,638,638,638,638,638,638,619,595,552,462,388,260,200,146,118,102,92,85,70],"timestamp_mouse":[9,42,47,67,87,107,127,148,166,186,207,227,247,267,286,306,327,346,366,388,407,428,447,468,486,508,527,547,567,586,608,626,646,667,686,707,728,747,768,787,808,828,846,866,887,907,926,946,968,987,1006,1027,1047,1066,1088,1107,1127,1146,1168,1188,1207,1228,1248,1268,1287,1306,1328,1346,1366,1387,1407,1427,1446,1466,1486,1506,1526,1547,1566,1587,1607],"xSR":741.5,"ySR":573.95,"xT1":424.9,"yT1":0,"xT2":1058.1,"yT2":0,"toosoon":0,"cond_shown":"Congruent","ratio_trial":200,"L_num":3,"L_den":10,"R_num":7,"R_den":14,"correct_side":2,"subjID":"MARTINARANGOTRISTANCHO30","gender":"0","school":"6","age":"11"},{"start_time":1551880639005,"click_time":1551880640528,"finger_time":1551880640307,"fix_duration":915.1928703756073,"trial":14,"RT":1302,"MT":221,"sideResp":1,"stimulus":[],"xmouse":[790,790,790,790,790,790,790,790,790,790,790,790,790,790,790,790,790,790,790,790,790,790,790,790,790,790,790,790,790,790,790,790,790,790,790,790,790,790,790,790,790,790,790,790,790,790,790,790,790,790,790,790,790,790,790,790,790,790,790,790,790,790,790,790,787,763,728,661,646,636,633,633,619,594,555,519,512],"ymouse":[619,619,619,619,619,619,619,619,619,619,619,619,619,619,619,619,619,619,619,619,619,619,619,619,619,619,619,619,619,619,619,619,619,619,619,619,619,619,619,619,619,619,619,619,619,619,619,619,619,619,619,619,619,619,619,619,619,619,619,619,619,619,619,619,616,560,489,383,368,358,353,346,308,246,172,111,91],"timestamp_mouse":[9,23,46,64,82,103,123,144,162,182,204,222,243,262,284,304,323,343,363,384,402,422,443,462,483,503,522,544,563,582,602,622,642,663,683,702,724,742,764,784,802,822,842,863,882,904,922,943,963,982,1002,1024,1043,1063,1084,1102,1123,1144,1162,1183,1203,1222,1243,1262,1282,1302,1322,1343,1362,1382,1402,1422,1442,1462,1482,1502,1523],"xSR":741.5,"ySR":573.95,"xT1":424.9,"yT1":0,"xT2":1058.1,"yT2":0,"toosoon":0,"cond_shown":"Congruent","ratio_trial":200,"L_num":9,"L_den":20,"R_num":4,"R_den":16,"correct_side":1,"subjID":"MARTINARANGOTRISTANCHO30","gender":"0","school":"6","age":"11"},{"start_time":1551880642381,"click_time":1551880644247,"finger_time":1551880643667,"fix_duration":250,"trial":15,"RT":1286,"MT":580,"sideResp":2,"stimulus":[],"xmouse":[768,768,768,768,768,768,768,768,768,768,768,768,768,768,768,768,768,768,768,768,768,768,768,768,768,768,768,768,768,768,768,768,768,768,768,768,768,768,768,768,768,768,768,768,768,768,768,768,768,768,768,768,768,768,768,768,768,768,768,768,768,768,773,813,820,839,854,869,899,906,912,916,918,924,930,935,941,944,950,962,972,984,995,1012,1022,1030,1039,1047,1056,1059,1061,1065,1068,1072],"ymouse":[613,613,613,613,613,613,613,613,613,613,613,613,613,613,613,613,613,613,613,613,613,613,613,613,613,613,613,613,613,613,613,613,613,613,613,613,613,613,613,613,613,613,613,613,613,613,613,613,613,613,613,613,613,613,613,613,613,613,613,613,613,613,609,579,572,541,518,496,460,443,426,412,393,346,313,283,248,231,212,196,185,176,169,158,150,143,137,131,123,119,116,111,105,93],"timestamp_mouse":[9,26,46,67,88,106,127,146,166,187,206,226,246,268,286,307,328,346,367,388,406,427,446,467,486,506,526,546,568,586,607,626,648,666,687,706,726,747,766,787,807,826,846,868,888,907,927,947,968,987,1006,1027,1047,1068,1088,1107,1128,1146,1166,1188,1208,1226,1247,1267,1286,1306,1327,1347,1366,1386,1407,1426,1447,1466,1486,1507,1528,1547,1567,1586,1606,1627,1647,1666,1686,1706,1727,1746,1767,1786,1807,1827,1847,1866],"xSR":741.5,"ySR":573.95,"xT1":424.9,"yT1":0,"xT2":1058.1,"yT2":0,"toosoon":0,"cond_shown":"Congruent","ratio_trial":300,"L_num":1,"L_den":30,"R_num":8,"R_den":24,"correct_side":2,"subjID":"MARTINARANGOTRISTANCHO30","gender":"0","school":"6","age":"11"},{"start_time":1551880645861,"click_time":1551880647629,"finger_time":1551880647187,"fix_duration":250,"trial":16,"RT":1326,"MT":442,"sideResp":1,"stimulus":[],"xmouse":[765,765,765,765,766,768,769,771,772,772,772,772,772,772,772,772,772,772,772,772,772,772,772,772,772,772,772,772,772,772,772,772,772,772,772,772,772,772,772,772,772,772,772,772,772,772,772,772,772,772,772,772,772,772,772,772,772,772,772,772,772,772,772,772,774,774,771,761,743,700,685,676,669,668,650,634,608,586,574,570,566,550,536,528,527,527,526,525,522],"ymouse":[620,620,620,620,620,620,620,620,620,620,620,620,620,620,620,620,620,620,620,620,620,620,620,620,620,620,620,620,620,620,620,620,620,620,620,620,620,620,620,620,620,620,620,620,620,620,620,620,620,620,620,620,620,620,620,620,620,620,620,620,620,620,620,620,608,594,570,537,477,374,330,297,266,255,216,192,162,137,125,114,106,80,61,46,40,38,37,34,32],"timestamp_mouse":[9,27,47,66,86,106,127,147,167,187,206,226,246,266,286,308,327,347,366,386,407,428,448,467,487,507,527,546,568,587,606,627,647,666,687,707,726,747,767,788,806,826,846,867,886,907,926,947,967,986,1006,1026,1047,1067,1086,1107,1126,1148,1167,1187,1206,1228,1247,1266,1287,1306,1326,1346,1367,1386,1407,1427,1447,1467,1487,1506,1526,1546,1566,1586,1607,1626,1647,1667,1687,1706,1726,1747,1768],"xSR":741.5,"ySR":573.95,"xT1":424.9,"yT1":0,"xT2":1058.1,"yT2":0,"toosoon":0,"cond_shown":"Congruent","ratio_trial":200,"L_num":8,"L_den":15,"R_num":3,"R_den":9,"correct_side":1,"subjID":"MARTINARANGOTRISTANCHO30","gender":"0","school":"6","age":"11"},{"start_time":1551880650068,"click_time":1551880651608,"finger_time":1551880651328,"fix_duration":1419.4689945869798,"trial":17,"RT":1260,"MT":280,"sideResp":1,"stimulus":[],"xmouse":[765,765,765,765,765,765,765,765,765,765,765,765,765,765,765,765,765,765,765,765,765,765,765,765,765,765,765,765,765,765,765,765,765,765,765,765,765,765,765,765,765,765,765,765,765,765,765,765,765,765,765,765,765,765,765,765,765,765,765,765,765,765,763,748,690,662,646,640,638,638,638,638,635,624,588,567,534,500],"ymouse":[636,636,636,636,636,636,636,636,636,636,636,636,636,636,636,636,636,636,636,636,636,636,636,636,636,636,636,636,636,636,636,636,636,636,636,636,636,636,636,636,636,636,636,636,636,636,636,636,636,636,636,636,636,636,636,636,636,636,636,636,636,636,615,561,343,251,201,182,173,170,170,170,165,144,109,97,81,62],"timestamp_mouse":[1,32,40,60,79,101,119,139,160,181,199,220,239,259,280,300,320,341,361,379,399,419,440,460,481,499,520,539,561,579,600,620,641,660,681,699,721,739,759,779,800,820,840,859,879,899,920,939,961,980,1000,1021,1040,1059,1080,1100,1120,1139,1161,1179,1200,1219,1239,1260,1279,1299,1320,1340,1359,1380,1400,1419,1439,1460,1480,1499,1520,1540],"xSR":741.5,"ySR":573.95,"xT1":424.9,"yT1":0,"xT2":1058.1,"yT2":0,"toosoon":0,"cond_shown":"Incongruent","ratio_trial":100,"L_num":6,"L_den":12,"R_num":3,"R_den":5,"correct_side":2,"subjID":"MARTINARANGOTRISTANCHO30","gender":"0","school":"6","age":"11"},{"start_time":1551880657399,"click_time":1551880660088,"finger_time":1551880659528,"fix_duration":250,"trial":18,"RT":2129,"MT":560,"sideResp":2,"stimulus":[],"xmouse":[795,795,795,795,795,795,795,795,793,792,789,789,789,789,789,789,789,789,789,789,789,789,789,789,789,789,789,789,789,789,789,789,789,789,789,789,789,789,789,789,789,789,789,789,789,789,789,789,789,789,789,789,789,789,789,789,789,789,789,789,789,789,789,789,789,789,789,789,789,789,789,789,789,789,789,789,789,789,789,789,789,789,789,789,789,789,789,789,789,789,790,795,796,796,796,796,796,796,796,796,796,796,796,798,800,805,813,835,843,850,862,895,1007,1047,1078,1083,1086,1099,1114,1137,1160,1175,1193,1196,1196,1196,1196,1196,1187,1175,1166,1164,1163,1160,1155],"ymouse":[596,596,596,596,596,596,596,595,595,595,596,596,596,596,596,596,596,596,596,596,597,597,598,599,599,599,599,599,599,599,599,599,599,599,599,599,599,599,599,599,599,599,599,599,599,599,599,599,599,599,599,599,599,599,599,599,599,599,599,599,599,599,599,599,599,599,599,599,599,599,599,599,599,599,599,599,599,599,599,599,599,599,599,599,599,599,599,599,599,600,600,598,598,598,598,598,598,598,598,598,598,598,598,596,594,586,573,528,500,476,452,410,319,288,236,211,188,157,142,127,113,98,61,46,38,37,35,35,34,34,34,34,34,35,37],"timestamp_mouse":[10,28,62,68,89,109,128,149,168,188,208,229,249,269,288,309,329,350,368,388,409,428,449,469,490,508,528,550,570,588,608,628,650,669,688,709,728,748,768,790,808,829,849,869,889,908,930,949,968,989,1008,1029,1048,1069,1089,1109,1128,1149,1168,1188,1209,1228,1249,1269,1290,1310,1328,1349,1370,1388,1409,1428,1450,1469,1488,1509,1529,1549,1568,1589,1609,1630,1648,1668,1690,1709,1730,1748,1769,1790,1809,1829,1849,1869,1889,1908,1928,1950,1969,1988,2009,2029,2048,2069,2089,2110,2129,2148,2168,2190,2209,2229,2248,2269,2288,2309,2328,2350,2368,2388,2409,2430,2448,2469,2488,2509,2529,2549,2568,2589,2609,2628,2648,2668,2688],"xSR":741.5,"ySR":573.95,"xT1":424.9,"yT1":0,"xT2":1058.1,"yT2":0,"toosoon":0,"cond_shown":"Incongruent","ratio_trial":100,"L_num":12,"L_den":24,"R_num":9,"R_den":15,"correct_side":2,"subjID":"MARTINARANGOTRISTANCHO30","gender":"0","school":"6","age":"11"},{"start_time":1551880661580,"click_time":1551880663047,"finger_time":1551880662947,"fix_duration":250,"trial":19,"RT":1367,"MT":100,"sideResp":1,"stimulus":[],"xmouse":[807,807,807,807,807,807,807,807,807,807,807,807,807,807,807,807,807,807,807,807,807,807,807,807,807,807,807,807,807,807,807,807,807,807,807,807,807,807,807,807,807,807,807,807,807,807,807,807,807,807,807,807,807,807,807,807,807,807,807,807,807,807,807,807,805,795,786,781,765,740,695,639,586,513],"ymouse":[643,643,643,643,643,643,643,643,643,643,643,643,643,643,643,643,643,643,643,643,643,643,643,643,643,643,643,643,643,643,643,643,643,643,643,643,643,643,643,643,643,643,643,643,643,643,643,643,643,643,643,643,643,643,643,643,643,643,643,643,643,643,643,643,641,634,625,612,520,423,321,234,175,96],"timestamp_mouse":[10,34,48,68,87,108,128,148,167,188,207,227,247,269,287,307,329,349,367,387,407,427,447,468,487,508,527,547,567,587,609,628,647,668,688,708,728,749,767,787,808,828,849,867,887,907,927,947,967,987,1007,1028,1049,1069,1087,1107,1128,1147,1168,1189,1208,1229,1247,1268,1288,1307,1328,1348,1367,1387,1407,1428,1448,1467],"xSR":741.5,"ySR":573.95,"xT1":424.9,"yT1":0,"xT2":1058.1,"yT2":0,"toosoon":0,"cond_shown":"Incongruent","ratio_trial":200,"L_num":3,"L_den":4,"R_num":11,"R_den":20,"correct_side":1,"subjID":"MARTINARANGOTRISTANCHO30","gender":"0","school":"6","age":"11"},{"start_time":1551880665291,"click_time":1551880666588,"finger_time":1551880666427,"fix_duration":1061.324133702322,"trial":20,"RT":1136,"MT":161,"sideResp":1,"stimulus":[],"xmouse":[773,773,773,773,773,773,773,773,773,773,773,773,773,773,773,773,773,773,773,773,773,773,773,773,773,773,773,773,773,773,773,773,773,773,773,773,773,773,773,773,773,773,773,773,773,773,773,773,773,773,773,773,773,773,774,774,770,753,740,722,697,675,600,525,481],"ymouse":[609,609,609,609,609,609,609,609,609,609,609,609,609,609,609,609,609,609,609,609,609,609,609,609,609,609,609,609,609,609,609,609,609,609,609,609,609,609,609,609,609,609,609,609,609,609,609,609,609,609,609,609,609,609,604,592,565,484,440,397,361,339,262,131,62],"timestamp_mouse":[17,38,58,78,96,117,137,156,177,196,216,236,257,278,298,316,337,356,376,396,416,437,456,478,496,516,537,557,577,596,616,637,657,676,696,717,737,756,776,798,816,837,856,876,897,916,936,957,976,997,1017,1036,1056,1076,1096,1117,1136,1156,1176,1197,1218,1237,1257,1277,1296],"xSR":741.5,"ySR":573.95,"xT1":424.9,"yT1":0,"xT2":1058.1,"yT2":0,"toosoon":0,"cond_shown":"Congruent","ratio_trial":200,"L_num":12,"L_den":15,"R_num":6,"R_den":10,"correct_side":1,"subjID":"MARTINARANGOTRISTANCHO30","gender":"0","school":"6","age":"11"},{"start_time":1551880669280,"click_time":1551880670887,"finger_time":1551880670588,"fix_duration":1231.6217913509556,"trial":21,"RT":1308,"MT":299,"sideResp":1,"stimulus":[],"xmouse":[778,778,778,778,778,778,778,778,778,778,778,778,778,778,778,778,778,778,778,778,778,778,778,778,778,778,778,778,778,778,778,778,778,778,778,778,778,778,778,778,778,778,778,778,778,778,778,778,778,778,778,778,778,778,778,778,778,778,778,778,778,778,778,778,768,755,710,667,604,576,544,536,536,528,519,513,512,512,508,491,442],"ymouse":[608,608,608,608,608,608,608,608,608,608,608,608,608,608,608,608,608,608,608,608,608,608,608,608,608,608,608,608,608,608,608,608,608,608,608,608,608,608,608,608,608,608,608,608,608,608,608,608,608,608,608,608,608,608,608,608,608,608,608,608,608,608,608,608,585,559,496,438,339,274,203,191,191,179,167,160,159,159,153,129,51],"timestamp_mouse":[8,45,47,67,88,108,128,147,168,187,207,228,247,267,288,308,328,347,368,388,407,428,447,468,488,508,528,548,568,587,608,628,647,668,687,707,727,747,767,787,808,827,847,868,887,907,947,947,967,987,1007,1028,1047,1068,1088,1107,1127,1147,1169,1188,1207,1227,1248,1267,1287,1308,1327,1347,1368,1388,1407,1428,1447,1467,1488,1507,1528,1547,1567,1587,1607],"xSR":741.5,"ySR":573.95,"xT1":424.9,"yT1":0,"xT2":1058.1,"yT2":0,"toosoon":0,"cond_shown":"Incongruent","ratio_trial":100,"L_num":9,"L_den":15,"R_num":13,"R_den":26,"correct_side":1,"subjID":"MARTINARANGOTRISTANCHO30","gender":"0","school":"6","age":"11"},{"start_time":1551880672765,"click_time":1551880674967,"finger_time":1551880674348,"fix_duration":575.6317413272951,"trial":22,"RT":1583,"MT":619,"sideResp":2,"stimulus":[],"xmouse":[787,787,787,787,787,787,787,787,787,787,787,787,787,787,787,787,787,787,787,787,787,787,787,787,787,787,787,787,787,787,787,787,787,787,787,787,787,787,787,787,787,787,787,787,787,787,787,787,787,787,787,787,787,787,787,787,787,787,787,787,787,787,787,787,787,787,787,787,787,787,787,787,787,787,787,787,787,788,789,794,797,800,804,811,842,862,873,880,885,895,902,913,925,935,952,978,1026,1051,1074,1098,1100,1100,1100,1099,1099,1099,1099,1099,1099,1099,1099],"ymouse":[584,584,584,584,584,584,584,584,584,584,584,584,584,584,584,584,584,584,584,584,584,584,584,584,584,584,584,584,584,584,584,584,584,584,584,584,584,584,584,584,584,584,584,584,584,584,584,584,584,584,584,584,584,584,584,584,584,584,584,584,584,584,584,584,584,584,584,584,584,584,584,584,584,584,584,584,584,582,576,557,550,542,532,519,485,464,448,437,431,414,397,373,353,336,302,267,212,182,160,138,134,132,131,129,122,117,111,104,101,100,97],"timestamp_mouse":[8,22,45,62,82,103,122,142,162,182,204,222,242,264,283,303,322,343,363,382,402,422,442,464,483,502,522,543,564,583,602,623,643,662,682,703,722,742,762,783,802,823,842,864,882,902,923,943,964,982,1002,1022,1044,1062,1083,1103,1123,1142,1162,1183,1203,1224,1242,1264,1282,1303,1323,1342,1363,1384,1403,1422,1444,1462,1482,1503,1522,1543,1563,1583,1602,1623,1642,1663,1682,1702,1722,1744,1763,1782,1802,1823,1842,1864,1882,1903,1922,1942,1962,1982,2002,2023,2043,2063,2082,2102,2122,2143,2162,2183,2202],"xSR":741.5,"ySR":573.95,"xT1":424.9,"yT1":0,"xT2":1058.1,"yT2":0,"toosoon":0,"cond_shown":"Incongruent","ratio_trial":100,"L_num":2,"L_den":4,"R_num":8,"R_den":20,"correct_side":1,"subjID":"MARTINARANGOTRISTANCHO30","gender":"0","school":"6","age":"11"},{"start_time":1551880680032,"click_time":1551880682007,"finger_time":1551880681487,"fix_duration":423.9682141560344,"trial":23,"RT":1455,"MT":520,"sideResp":2,"stimulus":[],"xmouse":[782,782,782,782,782,782,782,782,782,782,782,782,782,782,782,782,782,782,782,782,782,782,782,782,782,782,782,782,782,782,782,782,782,782,782,782,782,782,782,782,782,782,782,782,782,782,782,782,782,782,782,782,782,782,782,782,782,782,782,782,782,782,782,782,782,782,782,782,782,784,792,812,839,865,889,921,942,970,988,1001,1016,1028,1031,1037,1042,1057,1082,1100,1117,1123,1129,1129,1129,1129,1129,1129,1130,1130,1130],"ymouse":[629,629,629,629,629,629,629,629,629,629,629,629,629,629,629,629,629,629,629,629,629,629,629,629,629,629,629,629,629,629,629,629,629,629,629,629,629,629,629,629,629,629,629,629,629,629,629,629,629,629,629,629,629,629,629,629,629,629,629,629,629,629,629,629,629,629,629,629,629,628,617,581,524,457,410,355,308,229,154,112,77,57,51,36,25,7,0,0,0,0,0,0,0,0,0,0,0,0,2],"timestamp_mouse":[16,36,64,77,95,115,135,155,176,196,216,237,257,276,297,315,335,355,375,395,416,436,455,477,497,516,535,556,575,595,616,636,656,675,695,715,735,755,775,795,816,836,856,875,895,916,935,955,975,995,1015,1035,1056,1075,1097,1115,1135,1155,1175,1196,1217,1235,1255,1275,1296,1316,1336,1355,1375,1397,1415,1436,1455,1477,1496,1515,1535,1556,1576,1595,1615,1636,1655,1675,1696,1715,1736,1755,1775,1795,1816,1835,1855,1875,1896,1915,1935,1956,1975],"xSR":741.5,"ySR":573.95,"xT1":424.9,"yT1":0,"xT2":1058.1,"yT2":0,"toosoon":0,"cond_shown":"Incongruent","ratio_trial":200,"L_num":14,"L_den":30,"R_num":12,"R_den":18,"correct_side":2,"subjID":"MARTINARANGOTRISTANCHO30","gender":"0","school":"6","age":"11"},{"start_time":1551880687324,"click_time":1551880690408,"finger_time":1551880689887,"fix_duration":935.7387532706861,"trial":24,"RT":2563,"MT":521,"sideResp":2,"stimulus":[],"xmouse":[798,798,798,798,798,798,798,798,798,798,798,798,798,798,798,798,798,798,798,798,798,798,798,798,798,798,798,798,798,798,798,798,798,798,798,798,798,798,798,798,798,798,798,798,798,798,798,798,798,798,798,798,798,798,798,798,798,798,798,798,798,798,798,798,798,798,798,798,798,798,798,798,798,798,798,799,799,799,799,800,800,800,800,800,800,800,800,800,800,800,800,800,800,800,800,800,800,800,800,800,800,800,800,800,800,800,800,800,800,800,800,800,800,800,800,800,800,800,800,800,800,800,800,802,803,807,819,830,866,921,985,1027,1029,1031,1031,1031,1031,1031,1032,1039,1047,1056,1057,1058,1059,1060,1075,1082,1086,1090,1090,1093,1095,1098,1099],"ymouse":[628,628,628,628,628,628,628,628,628,628,628,628,628,628,628,628,628,628,628,628,628,628,628,628,628,628,628,628,628,628,628,628,628,628,628,628,628,628,628,628,628,628,628,627,627,627,627,627,627,627,627,627,627,627,627,627,627,627,627,627,626,626,626,626,626,626,626,626,626,626,626,626,626,626,626,626,626,626,626,626,626,626,626,626,626,626,626,626,626,626,626,626,626,626,626,626,626,626,626,626,626,626,626,626,626,626,626,626,626,626,626,626,626,626,626,626,626,626,626,626,626,626,626,624,622,618,598,580,529,452,375,281,262,251,247,244,244,244,242,228,211,190,186,185,184,181,161,149,141,130,127,119,111,102,97],"timestamp_mouse":[20,36,44,64,84,105,124,144,164,184,205,224,243,265,283,303,324,344,364,384,404,424,444,463,484,505,523,544,565,583,604,624,643,663,683,705,723,743,765,783,804,824,843,865,884,904,925,944,964,983,1003,1023,1044,1063,1083,1104,1124,1143,1165,1183,1204,1223,1243,1265,1283,1304,1324,1345,1364,1384,1404,1424,1444,1464,1484,1503,1524,1545,1563,1584,1604,1623,1643,1665,1683,1704,1723,1743,1764,1784,1803,1823,1845,1864,1883,1903,1924,1943,1965,1983,2004,2024,2043,2064,2083,2104,2124,2144,2163,2184,2203,2225,2243,2263,2283,2303,2324,2344,2363,2385,2403,2424,2445,2463,2483,2503,2523,2544,2563,2583,2603,2623,2643,2664,2684,2703,2723,2743,2763,2783,2804,2825,2843,2864,2883,2904,2923,2944,2963,2984,3004,3024,3043,3064,3084],"xSR":741.5,"ySR":573.95,"xT1":424.9,"yT1":0,"xT2":1058.1,"yT2":0,"toosoon":0,"cond_shown":"Incongruent","ratio_trial":100,"L_num":12,"L_den":24,"R_num":9,"R_den":15,"correct_side":2,"subjID":"MARTINARANGOTRISTANCHO30","gender":"0","school":"6","age":"11"},{"start_time":1551880692523,"click_time":1551880694949,"finger_time":1551880694607,"fix_duration":893.0271338453748,"trial":25,"RT":2084,"MT":342,"sideResp":2,"stimulus":[],"xmouse":[809,809,809,809,809,809,809,809,809,809,809,809,809,809,809,809,809,809,809,809,809,809,809,809,809,809,809,809,809,809,809,809,809,809,809,809,809,809,809,809,809,809,809,809,809,809,809,809,809,809,809,809,809,809,809,809,809,809,809,809,809,809,809,809,809,809,809,809,809,809,809,809,809,809,809,809,809,809,809,809,809,809,809,809,809,809,809,809,809,809,809,809,809,809,809,809,809,809,809,809,809,809,809,809,815,818,827,827,830,831,833,850,869,890,914,943,980,992,1002,1024,1047,1094],"ymouse":[595,595,595,595,595,595,595,595,595,595,595,595,595,595,595,595,595,595,595,595,595,595,595,595,595,595,595,595,595,595,595,595,595,595,595,595,595,595,595,595,595,595,595,595,595,595,595,595,595,595,595,595,595,595,595,595,595,595,595,595,595,595,595,595,595,595,595,595,595,595,595,595,595,595,595,595,595,595,595,595,595,595,595,595,595,595,595,595,595,595,595,595,595,595,595,595,595,595,595,595,595,595,595,595,570,541,323,255,242,239,236,217,201,185,170,154,133,127,121,105,91,68],"timestamp_mouse":[8,24,47,66,85,104,126,145,165,185,205,225,246,265,285,306,325,344,365,384,404,424,444,464,484,506,524,544,565,584,604,624,645,666,685,705,724,745,764,786,804,824,846,864,884,906,924,945,964,984,1005,1024,1045,1065,1085,1106,1124,1144,1165,1184,1205,1225,1246,1265,1285,1305,1325,1345,1365,1384,1405,1425,1445,1465,1484,1505,1525,1544,1564,1585,1604,1625,1644,1665,1685,1706,1725,1744,1765,1785,1806,1825,1845,1865,1886,1906,1924,1945,1965,1986,2005,2024,2046,2064,2084,2105,2124,2144,2164,2185,2205,2224,2244,2264,2284,2305,2324,2345,2364,2385,2404,2426],"xSR":741.5,"ySR":573.95,"xT1":424.9,"yT1":0,"xT2":1058.1,"yT2":0,"toosoon":0,"cond_shown":"Incongruent","ratio_trial":100,"L_num":10,"L_den":25,"R_num":8,"R_den":16,"correct_side":2,"subjID":"MARTINARANGOTRISTANCHO30","gender":"0","school":"6","age":"11"},{"start_time":1551880696360,"click_time":1551880697747,"finger_time":1551880697367,"fix_duration":250,"trial":26,"RT":1007,"MT":380,"sideResp":2,"stimulus":[],"xmouse":[768,768,768,768,768,768,768,768,768,768,768,768,768,768,768,768,768,768,768,768,768,768,768,768,768,768,768,768,768,768,768,768,768,768,768,768,768,768,768,768,768,768,768,768,768,768,775,783,790,798,802,805,806,807,807,807,809,823,843,869,881,895,915,945,1000,1017,1028,1049,1067,1093],"ymouse":[628,628,628,628,628,628,628,628,628,628,628,628,628,628,628,628,628,628,628,628,628,628,628,628,628,628,628,628,628,628,628,628,628,628,628,628,628,628,628,628,628,628,628,628,628,627,618,607,596,579,572,567,563,559,559,559,551,522,461,368,344,320,296,261,200,175,157,126,109,92],"timestamp_mouse":[8,27,47,67,88,107,127,147,167,188,207,228,248,267,289,308,327,347,368,389,407,427,447,467,487,509,527,547,567,587,607,627,647,668,687,707,727,748,768,787,808,829,848,868,888,907,927,948,968,987,1007,1028,1048,1068,1088,1108,1127,1147,1168,1188,1207,1227,1247,1268,1287,1308,1328,1348,1367,1387],"xSR":741.5,"ySR":573.95,"xT1":424.9,"yT1":0,"xT2":1058.1,"yT2":0,"toosoon":0,"cond_shown":"Incongruent","ratio_trial":300,"L_num":13,"L_den":26,"R_num":12,"R_den":15,"correct_side":2,"subjID":"MARTINARANGOTRISTANCHO30","gender":"0","school":"6","age":"11"},{"start_time":1551880705180,"click_time":1551880706967,"finger_time":1551880706428,"fix_duration":250,"trial":27,"RT":1248,"MT":539,"sideResp":2,"stimulus":[],"xmouse":[802,805,807,812,813,815,816,818,818,818,818,818,818,818,818,818,818,818,818,818,818,818,818,818,818,818,818,818,818,817,815,814,812,809,807,807,807,807,807,807,807,807,807,807,807,807,807,807,807,807,807,807,807,808,810,811,813,813,818,822,828,836,852,925,1041,1119,1180,1217,1235,1235,1235,1236,1236,1237,1227,1195,1174,1157,1112,1093,1081,1080,1079,1080,1080,1083,1087,1091,1107,1110],"ymouse":[619,623,630,643,645,645,645,644,644,644,642,641,641,641,641,641,641,641,641,641,641,641,641,641,641,641,641,641,641,640,640,639,638,637,636,636,636,636,636,636,636,636,636,636,636,636,636,636,636,636,636,636,636,637,638,639,639,639,639,636,628,614,586,484,396,348,311,284,261,256,252,248,245,235,228,214,201,187,152,136,127,125,123,121,121,119,116,112,101,98],"timestamp_mouse":[8,28,47,67,88,107,127,148,167,188,208,227,247,268,288,308,328,348,367,387,408,428,447,467,488,507,528,549,568,587,607,627,648,667,689,708,727,749,767,787,807,829,848,868,887,907,928,947,967,987,1007,1028,1047,1067,1088,1107,1127,1147,1169,1187,1207,1227,1248,1267,1297,1307,1328,1348,1368,1387,1407,1428,1448,1467,1488,1508,1527,1547,1569,1588,1607,1628,1647,1667,1688,1707,1729,1748,1767,1787],"xSR":741.5,"ySR":573.95,"xT1":424.9,"yT1":0,"xT2":1058.1,"yT2":0,"toosoon":0,"cond_shown":"Incongruent","ratio_trial":300,"L_num":13,"L_den":26,"R_num":12,"R_den":15,"correct_side":2,"subjID":"MARTINARANGOTRISTANCHO30","gender":"0","school":"6","age":"11"},{"start_time":1551880708808,"click_time":1551880710328,"finger_time":1551880710247,"fix_duration":378.25928983227743,"trial":28,"RT":1439,"MT":81,"sideResp":1,"stimulus":[],"xmouse":[812,812,812,812,812,812,812,812,812,812,812,812,812,812,812,812,812,812,812,812,812,812,812,812,812,812,812,812,812,812,812,812,812,812,812,812,812,812,812,812,812,812,812,812,812,812,812,812,812,812,812,812,812,812,812,812,812,812,812,812,812,812,812,812,812,812,812,812,812,812,811,802,773,710,609,516,480],"ymouse":[612,612,612,612,612,612,612,612,612,612,612,612,612,612,612,612,612,612,612,612,612,612,612,612,612,612,612,612,612,612,612,612,612,612,612,612,612,612,612,612,612,612,612,612,612,612,612,612,612,612,612,612,612,612,612,612,612,612,612,612,612,612,612,612,612,612,612,612,612,612,612,584,514,389,251,143,97],"timestamp_mouse":[1,19,40,59,80,99,119,139,159,179,199,219,240,260,280,300,319,340,359,379,399,419,440,460,481,500,519,539,560,580,599,619,639,659,680,699,720,740,759,781,800,819,839,859,880,899,921,939,961,979,1000,1021,1040,1060,1079,1100,1120,1139,1159,1181,1199,1220,1240,1259,1279,1300,1320,1339,1360,1379,1399,1420,1439,1460,1479,1499,1520],"xSR":741.5,"ySR":573.95,"xT1":424.9,"yT1":0,"xT2":1058.1,"yT2":0,"toosoon":0,"cond_shown":"Incongruent","ratio_trial":200,"L_num":7,"L_den":10,"R_num":14,"R_den":28,"correct_side":1,"subjID":"MARTINARANGOTRISTANCHO30","gender":"0","school":"6","age":"11"},{"start_time":1551880712282,"click_time":1551880713767,"finger_time":1551880713528,"fix_duration":651.5425552528801,"trial":29,"RT":1246,"MT":239,"sideResp":2,"stimulus":[],"xmouse":[800,800,800,800,800,800,800,800,800,800,800,800,800,800,800,800,800,800,800,800,800,800,800,800,800,800,800,800,800,800,800,800,800,800,800,800,800,800,800,800,800,800,800,800,800,800,800,800,800,800,800,800,800,800,800,800,800,801,805,806,808,813,830,885,910,925,932,936,953,965,978,989,1006,1051,1068],"ymouse":[599,599,599,599,599,599,599,599,599,599,599,599,599,599,599,599,599,599,599,599,599,599,599,599,599,599,599,599,599,599,599,599,599,599,599,599,599,599,599,599,599,599,599,599,599,599,599,599,599,599,599,599,599,599,599,599,599,599,601,601,601,600,558,421,350,306,280,260,221,197,178,164,138,72,62],"timestamp_mouse":[10,26,46,67,85,105,125,147,165,185,205,225,245,267,285,306,325,346,365,385,406,425,445,465,487,505,525,546,566,585,607,625,646,667,685,705,726,745,765,785,805,827,845,865,885,906,925,945,965,985,1005,1027,1045,1065,1087,1106,1126,1145,1165,1185,1205,1226,1246,1265,1285,1307,1326,1346,1366,1386,1406,1426,1446,1466,1485],"xSR":741.5,"ySR":573.95,"xT1":424.9,"yT1":0,"xT2":1058.1,"yT2":0,"toosoon":0,"cond_shown":"Congruent","ratio_trial":300,"L_num":1,"L_den":3,"R_num":19,"R_den":30,"correct_side":2,"subjID":"MARTINARANGOTRISTANCHO30","gender":"0","school":"6","age":"11"},{"start_time":1551880715898,"click_time":1551880717668,"finger_time":1551880717247,"fix_duration":1048.8632820133903,"trial":30,"RT":1349,"MT":421,"sideResp":1,"stimulus":[],"xmouse":[771,771,771,771,771,771,771,771,771,771,771,771,771,771,771,771,771,771,771,771,771,771,771,771,771,771,771,771,771,771,771,771,771,771,771,771,771,771,771,771,771,771,771,771,771,771,771,771,771,771,771,771,771,771,771,771,771,771,771,771,771,771,771,771,771,771,766,751,723,683,627,564,518,528,547,563,572,573,573,573,573,572,536,506,489,487,487,494,498],"ymouse":[609,609,609,609,609,609,609,609,609,609,609,609,609,609,609,609,609,609,609,609,609,609,609,609,609,609,609,609,609,609,609,609,609,609,609,609,609,609,609,609,609,609,609,609,609,609,609,609,609,609,609,609,609,609,609,609,609,609,609,609,609,609,609,609,609,609,600,552,465,327,159,11,0,0,0,0,0,0,0,0,2,11,79,109,126,127,127,103,89],"timestamp_mouse":[10,34,51,69,89,110,130,149,170,190,211,229,249,271,289,310,330,350,369,389,410,430,450,470,489,509,530,550,569,590,610,629,650,670,690,710,731,751,770,790,810,829,850,870,890,910,929,949,969,991,1009,1030,1049,1070,1089,1110,1130,1150,1169,1189,1210,1230,1249,1271,1289,1310,1330,1349,1369,1389,1409,1429,1449,1469,1490,1510,1530,1549,1569,1589,1609,1629,1649,1671,1690,1710,1730,1749,1770],"xSR":741.5,"ySR":573.95,"xT1":424.9,"yT1":0,"xT2":1058.1,"yT2":0,"toosoon":0,"cond_shown":"Incongruent","ratio_trial":300,"L_num":4,"L_den":20,"R_num":2,"R_den":4,"correct_side":2,"subjID":"MARTINARANGOTRISTANCHO30","gender":"0","school":"6","age":"11"},{"start_time":1551880722430,"click_time":1551880723949,"finger_time":1551880723687,"fix_duration":440.0329441372184,"trial":31,"RT":1257,"MT":262,"sideResp":2,"stimulus":[],"xmouse":[814,814,814,814,814,814,814,814,814,814,814,814,814,814,814,814,814,814,814,814,814,814,814,814,814,814,814,814,814,814,814,814,814,814,814,814,814,814,814,814,814,814,814,814,814,814,814,814,814,814,814,814,814,814,814,814,814,814,814,814,814,814,823,835,870,1005,1068,1099,1112,1116,1116,1116,1116,1116,1115,1107],"ymouse":[616,616,616,616,616,616,616,616,616,616,616,616,616,616,616,616,616,616,616,616,616,616,616,616,616,616,616,616,616,616,616,616,616,616,616,616,616,616,616,616,616,616,616,616,616,616,616,616,616,616,616,616,616,616,616,616,616,616,616,616,616,604,560,514,441,255,196,163,140,128,118,116,115,112,106,89],"timestamp_mouse":[18,38,57,78,98,118,137,158,178,197,218,239,258,278,299,318,339,357,377,398,417,439,458,477,497,519,538,558,577,598,618,637,658,678,699,717,738,757,778,797,819,838,857,878,897,918,937,957,979,998,1017,1037,1057,1078,1098,1117,1138,1158,1178,1197,1217,1238,1257,1279,1298,1317,1339,1358,1377,1398,1417,1438,1457,1478,1498,1519],"xSR":741.5,"ySR":573.95,"xT1":424.9,"yT1":0,"xT2":1058.1,"yT2":0,"toosoon":0,"cond_shown":"Congruent","ratio_trial":100,"L_num":1,"L_den":2,"R_num":18,"R_den":30,"correct_side":2,"subjID":"MARTINARANGOTRISTANCHO30","gender":"0","school":"6","age":"11"},{"start_time":1551880725159,"click_time":1551880726788,"finger_time":1551880726507,"fix_duration":250,"trial":32,"RT":1348,"MT":281,"sideResp":2,"stimulus":[],"xmouse":[772,772,772,772,772,772,772,772,772,772,772,772,772,772,772,772,772,772,772,772,772,772,772,772,772,772,772,772,772,772,772,772,772,772,772,772,772,772,772,772,772,772,772,772,772,772,772,772,772,772,772,772,772,772,772,772,772,772,772,772,772,772,772,772,781,793,799,806,806,811,823,844,859,869,887,898,922,944,979,1039,1057,1069],"ymouse":[662,662,662,661,661,660,660,660,660,660,660,660,660,660,660,659,659,659,659,659,659,659,659,659,659,659,659,659,659,659,659,659,659,659,659,659,659,659,659,659,659,659,659,659,659,659,659,657,657,656,656,656,656,656,656,656,656,656,656,656,656,656,656,656,640,617,595,560,538,471,407,331,277,251,213,198,173,156,135,108,100,94],"timestamp_mouse":[8,37,48,68,89,109,128,148,168,189,209,229,250,268,289,309,328,348,368,388,409,428,448,468,488,509,529,549,568,588,608,628,648,668,690,709,729,748,769,788,808,828,849,868,888,909,928,948,968,988,1009,1028,1048,1070,1088,1109,1128,1150,1168,1188,1208,1229,1248,1268,1288,1309,1328,1348,1369,1388,1408,1428,1448,1469,1488,1509,1529,1548,1568,1589,1610,1629],"xSR":741.5,"ySR":573.95,"xT1":424.9,"yT1":0,"xT2":1058.1,"yT2":0,"toosoon":0,"cond_shown":"Congruent","ratio_trial":300,"L_num":2,"L_den":20,"R_num":10,"R_den":25,"correct_side":2,"subjID":"MARTINARANGOTRISTANCHO30","gender":"0","school":"6","age":"11"},{"start_time":1551880730245,"click_time":1551880732108,"finger_time":1551880731687,"fix_duration":1054.0952611644648,"trial":33,"RT":1442,"MT":421,"sideResp":1,"stimulus":[],"xmouse":[805,805,805,805,805,805,805,805,805,805,805,805,805,805,805,805,805,805,805,805,805,805,805,805,805,805,805,805,805,805,805,805,805,805,805,805,805,805,805,805,805,805,805,805,805,805,805,805,805,805,805,805,805,805,805,805,805,805,805,805,805,805,805,805,805,805,805,805,805,805,805,802,781,758,724,662,647,641,638,635,623,614,611,598,589,579,578,578,578,577,570,561,534,517],"ymouse":[598,598,598,598,598,598,598,598,598,598,598,598,598,598,598,598,598,598,598,598,598,598,598,598,598,598,598,598,598,598,598,598,598,598,598,598,598,598,598,598,598,598,598,598,598,598,598,598,598,598,598,598,598,598,598,598,598,598,598,598,598,598,598,598,598,598,598,598,598,598,598,580,501,427,339,208,180,159,144,129,95,74,68,49,35,22,20,19,19,18,18,18,18,18],"timestamp_mouse":[10,31,43,63,83,103,122,142,163,183,202,223,244,263,282,302,323,343,363,383,402,423,443,462,484,502,523,544,562,582,604,623,642,662,683,703,723,744,763,783,803,822,842,864,883,903,922,942,962,982,1002,1022,1044,1062,1082,1103,1123,1142,1163,1182,1202,1223,1242,1262,1283,1302,1322,1343,1363,1383,1402,1422,1442,1464,1483,1502,1522,1542,1562,1583,1602,1623,1642,1663,1682,1702,1723,1743,1762,1783,1802,1822,1842,1863],"xSR":741.5,"ySR":573.95,"xT1":424.9,"yT1":0,"xT2":1058.1,"yT2":0,"toosoon":0,"cond_shown":"Incongruent","ratio_trial":100,"L_num":6,"L_den":12,"R_num":3,"R_den":5,"correct_side":2,"subjID":"MARTINARANGOTRISTANCHO30","gender":"0","school":"6","age":"11"},{"start_time":1551880738080,"click_time":1551880744488,"finger_time":1551880739688,"fix_duration":250,"trial":34,"RT":1608,"MT":4800,"sideResp":1,"stimulus":[],"xmouse":[779,779,779,779,779,779,779,779,779,779,779,779,779,779,779,779,779,779,779,779,779,779,779,779,779,779,779,779,779,779,779,779,779,779,779,779,779,779,779,779,779,779,779,779,779,779,779,779,779,779,779,779,779,779,779,779,779,779,779,779,779,779,779,779,779,779,779,779,779,779,779,779,779,779,789,805,806,806,809,809,809,826,850,870,873,877,883,893,927,955,983,1012,1017,1017,1017,1017,1017,1017,996,978,960,926,904,861,842,822,802,782,737,717,703,701,701,701,701,701,701,701,705,723,737,745,746,746,746,746,746,748,753,754,755,763,783,809,812,813,814,814,814,814,814,814,814,814,814,814,814,814,814,814,814,814,814,814,814,814,814,814,814,814,814,814,814,814,814,814,814,814,814,814,814,814,814,814,814,814,814,814,814,814,814,814,814,814,814,814,814,814,814,814,814,814,814,814,814,814,814,814,814,814,814,814,814,814,814,814,814,814,814,814,814,814,814,814,814,814,814,814,814,814,814,814,814,814,814,814,814,814,814,814,814,814,814,814,814,814,814,814,814,814,814,814,814,814,814,814,814,814,814,814,814,814,814,814,814,814,814,814,814,814,814,814,814,814,814,814,814,814,814,814,814,814,814,814,814,814,814,814,814,814,814,814,814,814,814,814,814,814,814,814,814,814,814,814,814,814,814,814,814,814,814,814,814,814,814,815,823,842,887,891,877,869,869,869,869,869,866,846,638,556,463],"ymouse":[610,610,610,610,610,610,610,610,610,610,610,610,610,610,610,610,610,610,610,610,610,610,610,610,610,610,610,610,610,610,610,610,610,610,610,610,610,610,610,610,610,610,610,610,610,610,610,610,610,610,610,610,610,610,610,610,610,610,610,610,610,610,610,610,610,610,610,610,610,610,610,610,610,610,610,612,613,613,610,580,566,492,408,338,331,323,316,310,290,281,274,266,264,264,264,264,264,264,264,264,264,269,279,307,318,325,328,328,328,328,327,327,327,327,327,327,327,327,327,328,331,333,333,333,333,333,333,334,337,338,339,345,366,407,411,411,411,411,411,411,411,411,411,411,411,411,411,411,411,411,411,411,411,411,411,411,411,411,411,411,411,411,411,411,411,411,411,411,411,411,411,411,411,411,411,411,411,411,411,411,411,411,411,411,411,411,411,411,411,411,411,411,411,411,411,411,411,411,411,411,411,411,411,411,411,411,411,411,411,411,411,411,411,411,411,411,411,411,411,411,411,411,411,411,411,411,411,411,411,411,411,411,411,411,411,411,411,411,411,411,411,411,411,411,411,411,411,411,411,411,411,411,411,411,411,411,411,411,411,411,411,411,411,411,411,411,411,411,411,411,411,411,411,411,411,411,411,411,411,411,411,411,411,411,411,411,411,411,411,411,411,411,411,411,411,411,411,411,411,411,411,411,411,411,411,411,390,252,0,0,0,0,0,0,0,0,0,0,0,2,29],"timestamp_mouse":[9,27,47,67,88,108,127,147,167,187,208,227,247,268,289,307,327,347,369,387,408,428,448,467,487,508,527,547,568,587,607,627,647,667,688,707,727,747,768,788,808,828,847,868,887,908,928,948,968,987,1008,1028,1047,1067,1088,1108,1127,1147,1167,1189,1207,1228,1247,1267,1288,1307,1327,1347,1368,1387,1408,1427,1448,1467,1487,1507,1528,1548,1567,1588,1608,1628,1648,1667,1687,1707,1728,1748,1767,1787,1808,1827,1848,1868,1888,1907,1929,1949,1967,1988,2007,2028,2047,2068,2087,2107,2127,2148,2168,2187,2207,2227,2248,2267,2287,2309,2327,2347,2367,2387,2407,2428,2447,2467,2487,2508,2527,2548,2567,2587,2608,2628,2647,2667,2688,2707,2729,2747,2768,2787,2808,2827,2848,2867,2887,2909,2928,2947,2967,2988,3008,3028,3047,3067,3087,3107,3127,3148,3167,3187,3207,3228,3248,3267,3287,3307,3328,3348,3368,3388,3408,3427,3447,3468,3488,3507,3529,3548,3567,3587,3607,3627,3648,3667,3687,3708,3727,3748,3767,3787,3809,3827,3848,3867,3887,3907,3927,3948,3968,3987,4008,4028,4047,4067,4087,4108,4128,4147,4168,4187,4208,4228,4247,4267,4288,4308,4327,4348,4367,4388,4408,4427,4449,4468,4488,4507,4527,4548,4568,4587,4608,4627,4648,4667,4687,4709,4728,4748,4767,4788,4807,4827,4848,4869,4887,4908,4928,4949,4969,4988,5007,5028,5047,5069,5088,5107,5128,5147,5167,5187,5208,5227,5248,5268,5288,5307,5327,5348,5367,5387,5409,5428,5448,5468,5487,5509,5527,5549,5567,5587,5608,5629,5648,5667,5689,5707,5728,5747,5768,5787,5808,5827,5848,5867,5887,5907,5929,5949,5969,5988,6007,6028,6049,6069,6088,6108,6127,6148,6167,6187,6207,6227,6247,6267,6287,6308,6327,6348,6367,6388,6407],"xSR":741.5,"ySR":573.95,"xT1":424.9,"yT1":0,"xT2":1058.1,"yT2":0,"toosoon":0,"cond_shown":"Incongruent","ratio_trial":100,"L_num":6,"L_den":10,"R_num":13,"R_den":26,"correct_side":1,"subjID":"MARTINARANGOTRISTANCHO30","gender":"0","school":"6","age":"11"},{"start_time":1551880746267,"click_time":1551880748847,"finger_time":1551880748167,"fix_duration":319.6930771728139,"trial":35,"RT":1900,"MT":680,"sideResp":1,"stimulus":[],"xmouse":[799,799,799,799,799,799,799,799,799,799,799,799,799,799,799,799,799,799,799,799,799,799,799,799,798,798,798,798,798,798,798,798,798,798,798,798,798,798,798,798,798,798,798,798,798,798,798,798,798,798,798,798,798,798,798,798,798,798,798,798,798,798,798,798,798,798,798,798,798,798,798,798,798,798,798,798,798,798,798,798,798,798,798,798,798,798,798,798,798,798,798,798,797,791,757,731,709,694,690,689,688,686,682,679,675,673,672,670,668,664,661,655,650,640,620,616,614,613,609,587,567,531,517,508,488,473,466,461,457,452],"ymouse":[599,599,599,599,599,599,599,599,599,599,599,599,599,599,599,599,599,599,599,599,599,599,599,599,599,599,599,599,599,599,599,599,599,599,599,599,599,599,599,599,599,599,599,599,599,599,599,599,599,599,599,599,599,599,599,599,599,599,599,599,599,599,599,599,599,599,599,599,599,599,599,599,599,599,599,599,599,599,599,599,599,599,599,599,599,599,599,599,599,599,599,599,599,598,585,579,576,574,574,574,572,571,560,552,543,539,537,532,528,523,522,520,517,512,494,488,483,479,467,415,376,322,289,257,193,160,140,127,114,96],"timestamp_mouse":[8,31,40,61,82,101,120,141,161,181,200,220,240,261,281,301,320,340,361,380,401,420,440,461,480,500,520,540,565,580,600,620,642,661,681,700,722,741,761,780,802,821,841,862,880,900,920,940,961,980,1000,1020,1041,1060,1081,1101,1120,1141,1160,1180,1202,1222,1240,1261,1280,1301,1320,1341,1360,1381,1401,1421,1440,1460,1481,1501,1522,1540,1561,1580,1600,1621,1641,1660,1680,1701,1720,1742,1760,1780,1801,1820,1840,1860,1880,1900,1920,1941,1960,1980,2001,2020,2041,2060,2080,2100,2121,2141,2160,2180,2200,2220,2242,2261,2280,2300,2320,2340,2360,2380,2400,2420,2441,2461,2480,2501,2521,2540,2560,2580],"xSR":741.5,"ySR":573.95,"xT1":424.9,"yT1":0,"xT2":1058.1,"yT2":0,"toosoon":0,"cond_shown":"Incongruent","ratio_trial":200,"L_num":4,"L_den":5,"R_num":6,"R_den":10,"correct_side":1,"subjID":"MARTINARANGOTRISTANCHO30","gender":"0","school":"6","age":"11"},{"start_time":1551880750628,"click_time":1551880753048,"finger_time":1551880752747,"fix_duration":680.2404462478054,"trial":36,"RT":2119,"MT":301,"sideResp":2,"stimulus":[],"xmouse":[825,825,825,825,825,825,825,825,825,825,825,825,825,825,825,825,825,825,825,825,825,825,825,825,825,825,825,825,825,825,825,825,825,825,825,825,825,825,825,825,825,825,825,825,825,825,825,825,825,825,825,825,825,825,825,825,825,825,825,825,825,825,825,825,825,825,825,825,825,825,825,825,825,825,825,825,825,825,825,825,825,825,825,825,825,825,825,825,825,825,825,825,825,825,825,825,825,825,825,825,825,825,825,825,824,844,854,862,874,892,922,928,934,955,985,1112,1160,1171,1171,1168,1158],"ymouse":[631,631,631,631,631,631,631,631,631,631,631,631,631,631,631,631,631,631,631,631,631,631,631,631,631,631,631,631,631,631,631,631,631,631,631,631,631,631,631,631,631,631,631,631,631,631,631,631,631,631,631,631,631,631,631,631,631,631,631,631,631,631,631,631,631,631,631,631,631,631,631,631,631,631,631,631,631,631,631,631,631,631,631,631,631,631,631,631,631,631,631,631,631,631,631,631,631,631,631,631,631,631,631,631,631,611,602,592,576,550,477,431,396,342,302,205,167,151,136,118,84],"timestamp_mouse":[19,49,59,80,99,119,139,160,179,199,219,240,260,281,299,320,340,359,379,400,420,440,459,479,500,519,539,561,579,599,620,639,659,679,699,719,739,760,779,799,819,839,859,880,901,920,940,959,980,1000,1020,1039,1059,1080,1100,1121,1140,1159,1179,1199,1220,1239,1259,1279,1299,1320,1340,1359,1379,1400,1419,1439,1459,1479,1500,1519,1539,1560,1579,1599,1619,1640,1659,1679,1699,1720,1739,1759,1779,1800,1819,1840,1859,1879,1901,1919,1940,1959,1980,1999,2019,2040,2060,2080,2099,2119,2139,2159,2180,2201,2219,2241,2259,2279,2299,2319,2339,2359,2379,2400,2420],"xSR":741.5,"ySR":573.95,"xT1":424.9,"yT1":0,"xT2":1058.1,"yT2":0,"toosoon":0,"cond_shown":"Incongruent","ratio_trial":100,"L_num":2,"L_den":4,"R_num":6,"R_den":15,"correct_side":1,"subjID":"MARTINARANGOTRISTANCHO30","gender":"0","school":"6","age":"11"},{"start_time":1551880756130,"click_time":1551880758667,"finger_time":1551880758587,"fix_duration":920.6183326004865,"trial":37,"RT":2457,"MT":80,"sideResp":2,"stimulus":[],"xmouse":[762,761,761,761,761,761,761,761,761,761,761,761,761,761,761,761,761,761,761,761,761,761,761,761,761,761,761,761,761,761,761,761,761,761,761,761,761,761,761,761,761,761,761,761,761,761,761,761,761,761,761,761,761,761,761,761,761,761,761,761,761,761,761,761,761,761,761,761,761,761,761,761,761,761,761,761,761,761,761,761,761,761,761,761,761,761,761,761,761,761,761,761,761,761,761,761,761,761,761,761,761,761,761,761,761,764,765,766,766,766,766,766,766,766,766,766,766,766,766,766,772,784,805,839,911,1088,1154],"ymouse":[642,642,642,642,642,642,642,642,642,642,642,642,642,642,642,642,642,642,642,642,642,642,642,642,642,642,642,642,642,642,642,642,642,642,642,642,642,642,642,642,642,642,642,642,642,642,642,642,642,642,642,642,642,642,642,642,642,642,642,642,642,642,642,642,642,642,642,642,642,642,642,642,642,642,642,642,642,642,642,642,642,642,642,642,642,642,642,642,642,642,642,642,642,642,642,642,642,642,642,642,642,641,639,637,633,620,614,610,610,610,610,610,610,610,610,610,610,610,610,609,595,574,538,482,386,165,62],"timestamp_mouse":[20,37,57,77,98,118,137,158,178,198,218,238,258,278,297,318,338,358,377,397,418,437,457,478,497,517,538,559,577,597,618,637,659,677,697,719,737,758,778,798,818,837,858,877,899,917,938,957,978,997,1018,1037,1057,1077,1099,1118,1138,1159,1178,1197,1217,1239,1258,1278,1299,1317,1338,1358,1378,1397,1418,1437,1457,1477,1498,1518,1538,1557,1578,1598,1617,1638,1657,1679,1698,1717,1738,1758,1777,1797,1817,1837,1857,1877,1898,1917,1937,1958,1977,1997,2018,2038,2057,2078,2099,2117,2138,2157,2177,2197,2217,2238,2258,2277,2298,2317,2338,2359,2378,2398,2417,2437,2457,2478,2497,2517,2537],"xSR":741.5,"ySR":573.95,"xT1":424.9,"yT1":0,"xT2":1058.1,"yT2":0,"toosoon":0,"cond_shown":"Congruent","ratio_trial":100,"L_num":11,"L_den":22,"R_num":4,"R_den":10,"correct_side":1,"subjID":"MARTINARANGOTRISTANCHO30","gender":"0","school":"6","age":"11"},{"start_time":1551880763159,"click_time":1551880784748,"finger_time":1551880768047,"fix_duration":270.3807552839098,"trial":38,"RT":4888,"MT":16701,"sideResp":2,"stimulus":[],"xmouse":[765,765,765,765,765,765,765,765,765,765,765,765,765,765,765,765,765,765,765,765,765,765,765,765,765,765,765,765,765,765,765,765,765,765,765,765,765,765,765,765,765,765,765,765,765,765,765,765,765,766,766,766,766,766,766,766,766,766,766,766,766,766,766,766,766,766,766,766,766,766,766,766,766,766,766,766,766,766,766,766,766,766,766,766,766,766,766,766,766,766,766,766,766,766,766,766,766,766,766,766,766,766,766,766,766,766,766,766,766,766,766,766,766,766,766,766,766,766,766,766,766,766,766,766,766,766,766,766,766,766,766,766,766,766,766,766,766,766,766,766,766,766,766,766,766,766,766,766,766,766,766,766,766,766,766,766,766,766,766,766,766,766,766,766,766,766,766,766,766,766,766,766,766,766,766,766,766,766,766,766,766,766,766,766,766,766,766,766,766,766,766,766,766,766,766,766,766,766,766,766,766,766,766,766,766,766,766,766,766,766,766,766,766,766,766,766,766,766,766,766,766,766,766,766,766,766,766,766,766,766,766,766,766,766,766,766,766,766,766,766,766,766,770,775,805,814,815,815,815,815,815,815,815,815,815,815,815,815,815,815,815,815,815,816,845,871,875,874,864,838,833,831,831,831,831,831,832,832,832,832,832,832,832,832,832,835,841,846,850,857,859,859,861,867,873,873,872,871,871,871,871,871,871,871,894,909,930,944,950,977,1