[{"start_time":1551881410144,"click_time":1551881413550,"finger_time":1551881411569,"fix_duration":250,"trial":0,"RT":1425,"MT":1981,"sideResp":2,"stimulus":"img/900/randomdotsizeEA/L/8_Ratio_900_L_20_R_18.png","xmouse":[769,769,769,769,769,769,769,769,769,769,769,769,769,769,769,769,769,769,769,769,769,769,769,769,769,769,769,769,769,769,769,769,769,769,769,769,769,769,769,769,769,769,769,769,769,769,769,769,769,769,769,769,769,769,769,769,769,769,769,769,769,769,769,769,769,769,769,769,769,769,795,992,1177,1416,1466,1467,1462,1462,1462,1462,1462,1462,1462,1462,1462,1459,1426,1405,1397,1396,1394,1398,1413,1427,1437,1443,1447,1447,1446,1439,1422,1340,1264,1209,1178,1158,1122,1108,1093,1065,1024,929,901,896,894,892,876,862,846,833,831,829,825,792,732,681,652,652,657,662,664,665,674,685,699,709,714,716,717,719,720,721,731,738,745,751,759,773,780,789,799,822,844,856,867,876,898,908,917,925,943,982,1009,1023,1033,1041,1058,1064,1073,1080,1086],"ymouse":[531,531,531,531,531,531,531,531,531,531,531,531,531,531,531,531,531,531,531,531,531,531,531,531,531,531,531,531,531,531,531,531,531,531,531,531,531,531,531,531,531,531,531,531,531,531,531,531,531,531,531,531,531,531,531,531,531,531,531,531,531,531,531,531,531,531,531,531,531,531,500,340,221,111,95,95,97,97,97,97,97,97,97,97,97,98,109,126,147,164,181,223,268,322,355,377,396,398,401,404,409,413,413,413,413,413,410,413,417,425,436,462,467,467,468,469,476,484,494,501,502,503,507,518,534,548,556,556,554,552,552,552,549,544,538,534,533,532,531,531,531,530,529,528,526,525,523,519,514,506,498,462,431,412,396,378,338,329,321,314,296,243,214,200,187,175,148,138,122,110,98],"timestamp_mouse":[6,34,45,65,85,106,127,146,166,185,205,226,246,267,286,305,326,346,365,386,405,425,445,466,485,505,526,547,565,587,607,626,647,665,685,706,725,745,765,787,805,825,845,865,887,906,926,946,966,986,1005,1027,1045,1067,1087,1105,1126,1145,1166,1187,1205,1226,1245,1265,1286,1305,1326,1345,1367,1385,1405,1425,1445,1465,1485,1505,1526,1546,1566,1585,1606,1626,1646,1666,1686,1706,1725,1745,1765,1786,1805,1826,1846,1865,1885,1906,1925,1945,1965,1985,2006,2026,2045,2065,2087,2106,2126,2145,2165,2185,2207,2226,2245,2265,2285,2305,2325,2345,2365,2386,2405,2425,2446,2465,2485,2506,2525,2545,2565,2585,2606,2626,2645,2665,2686,2706,2726,2745,2765,2785,2805,2825,2845,2866,2885,2906,2925,2945,2967,2986,3006,3026,3045,3065,3086,3105,3126,3145,3165,3186,3206,3226,3245,3266,3285,3307,3327,3345,3365,3386,3405],"xSR":741.5,"ySR":469.95,"xT1":424.9,"yT1":0,"xT2":1058.1,"yT2":0,"toosoon":0,"cond_shown":"randomdotsizeEA","ratio_trial":900,"smaller_num":"18","larger_num":"20","correct_side":1,"subjID":"mateoalexandervega19","gender":"0","age":"11","school":"6","test":{"fix_dur":[250,1500],"timestim":300,"targets_dim":[100,100],"targets_relative_coord":[0.3,0.7],"size_stim":[880,420],"start_dim":[100,100],"size_start":[300,300],"size_fix":60,"samplingrate":20,"img_types":["equaldotsize","equaldotanddens","randomdotsizeEA"],"ratios":[250,500,750,900],"rep_conds":9,"nTrials":120,"trials_to_rest":500,"Trials_order":[11,114,31,88,25,67,24,119,53,58,109,78,59,21,65,8,101,104,12,92,60,87,7,113,0,27,74,91,102,57,43,30,19,107,71,77,82,56,35,80,89,2,10,93,26,96,52,32,50,83,15,97,68,112,85,100,81,98,62,117,61,103,73,70,3,34,33,9,44,28,38,72,51,111,49,16,110,99,39,90,94,46,20,29,106,36,14,105,40,48,6,79,75,115,45,17,1,41,22,108,23,66,63,55,95,13,116,69,42,37,5,86,47,54,64,76,18,118,84,4],"cond_shown":["randomdotsizeEA","equaldotsize","equaldotanddens","equaldotanddens","equaldotanddens","equaldotanddens","equaldotsize","randomdotsizeEA","randomdotsizeEA","equaldotanddens","equaldotanddens","equaldotsize","randomdotsizeEA","equaldotsize","randomdotsizeEA","randomdotsizeEA","randomdotsizeEA","randomdotsizeEA","equaldotsize","randomdotsizeEA","equaldotsize","equaldotsize","equaldotanddens","randomdotsizeEA","equaldotsize","equaldotsize","randomdotsizeEA","equaldotanddens","equaldotsize","equaldotsize","equaldotanddens","equaldotsize","equaldotanddens","randomdotsizeEA","randomdotsizeEA","randomdotsizeEA","equaldotanddens","randomdotsizeEA","randomdotsizeEA","randomdotsizeEA","randomdotsizeEA","randomdotsizeEA","equaldotanddens","equaldotsize","randomdotsizeEA","equaldotsize","equaldotanddens","randomdotsizeEA","randomdotsizeEA","randomdotsizeEA","equaldotsize","equaldotanddens","randomdotsizeEA","equaldotanddens","equaldotanddens","equaldotanddens","equaldotsize","randomdotsizeEA","randomdotsizeEA","equaldotsize","equaldotanddens","equaldotanddens","equaldotanddens","equaldotanddens","equaldotsize","equaldotanddens","equaldotsize","equaldotsize","randomdotsizeEA","equaldotanddens","randomdotsizeEA","equaldotsize","equaldotsize","equaldotsize","equaldotanddens","equaldotanddens","randomdotsizeEA","equaldotsize","equaldotsize","equaldotsize","equaldotanddens","equaldotanddens","randomdotsizeEA","randomdotsizeEA","equaldotanddens","equaldotsize","randomdotsizeEA","equaldotsize","equaldotanddens","equaldotsize","equaldotsize","equaldotanddens","equaldotsize","equaldotanddens","equaldotsize","randomdotsizeEA","equaldotanddens","randomdotsizeEA","equaldotanddens","equaldotsize","randomdotsizeEA","equaldotsize","equaldotsize","equaldotanddens","randomdotsizeEA","equaldotanddens","randomdotsizeEA","equaldotsize","equaldotsize","equaldotanddens","randomdotsizeEA","randomdotsizeEA","randomdotsizeEA","equaldotsize","equaldotanddens","equaldotanddens","equaldotsize","equaldotanddens","equaldotsize","equaldotanddens"],"ratio_trial":[900,750,750,500,250,750,250,900,500,900,250,750,900,900,500,750,500,750,250,750,250,500,750,500,250,500,250,750,750,900,750,750,750,900,900,500,900,750,900,750,500,250,900,900,250,250,500,750,250,900,500,250,750,500,250,500,900,250,250,900,250,750,250,900,500,900,900,900,750,500,250,250,500,500,250,500,250,500,500,750,900,900,750,500,900,250,250,900,500,250,750,750,500,750,900,500,250,500,900,250,900,750,500,750,900,250,750,900,750,250,500,250,900,750,500,500,750,900,250,500],"smaller_num":["18","3","3","5","3","6","3","18","2","18","2","3","9","18","9","6","3","3","2","15","3","9","6","4","2","4","3","15","15","18","6","18","15","18","18","9","9","15","18","15","5","3","18","18","6","2","2","3","1","18","10","4","9","3","2","6","9","3","2","9","3","15","2","9","5","18","9","18","3","6","4","1","2","9","3","4","3","2","1","3","18","9","3","6","18","2","6","9","1","5","3","6","10","6","18","9","1","1","9","4","9","6","2","15","18","2","18","18","6","6","2","3","9","3","5","9","6","18","5","3"],"larger_num":["20","4","4","10","12","8","12","20","4","20","8","4","10","20","18","8","6","4","8","20","12","18","8","8","8","8","12","20","20","20","8","24","20","20","20","18","10","20","20","20","10","12","20","20","24","8","4","4","4","20","20","16","12","6","8","12","10","12","8","10","12","20","8","10","10","20","10","20","4","12","16","4","4","18","12","8","12","4","2","4","20","10","4","12","20","8","24","10","2","20","4","8","20","8","20","18","4","2","10","16","10","8","4","20","20","8","24","20","8","24","4","12","10","4","10","18","8","20","20","6"],"correct_side":[1,1,1,1,2,1,1,2,1,2,1,1,1,1,1,1,2,1,2,1,2,2,1,1,2,1,2,2,2,1,2,1,1,1,1,1,2,2,1,2,2,1,2,2,1,1,1,2,2,1,2,1,2,2,1,1,2,2,1,2,2,2,1,2,2,1,2,1,1,1,1,2,1,1,1,1,2,1,2,2,2,2,1,1,1,2,1,2,2,2,1,2,2,1,1,2,2,2,2,2,2,2,2,2,2,1,1,1,1,2,1,2,1,1,2,2,1,2,2,2],"img_shown":["img/900/randomdotsizeEA/L/8_Ratio_900_L_20_R_18.png","img/750/equaldotsize/L/8_Ratio_750_L_4_R_3.png","img/750/equaldotanddens/L/9_Ratio_750_L_4_R_3.png","img/500/equaldotanddens/L/7_Ratio_500_L_10_R_5.png","img/250/equaldotanddens/R/11_Ratio_250_L_3_R_12.png","img/750/equaldotanddens/L/13_Ratio_750_L_8_R_6.png","img/250/equaldotsize/L/15_Ratio_250_L_12_R_3.png","img/900/randomdotsizeEA/R/9_Ratio_900_L_18_R_20.png","img/500/randomdotsizeEA/L/5_Ratio_500_L_4_R_2.png","img/900/equaldotanddens/R/13_Ratio_900_L_18_R_20.png","img/250/equaldotanddens/L/7_Ratio_250_L_8_R_2.png","img/750/equaldotsize/L/9_Ratio_750_L_4_R_3.png","img/900/randomdotsizeEA/L/1_Ratio_900_L_10_R_9.png","img/900/equaldotsize/L/10_Ratio_900_L_20_R_18.png","img/500/randomdotsizeEA/L/4_Ratio_500_L_18_R_9.png","img/750/randomdotsizeEA/L/13_Ratio_750_L_8_R_6.png","img/500/randomdotsizeEA/R/2_Ratio_500_L_3_R_6.png","img/750/randomdotsizeEA/L/10_Ratio_750_L_4_R_3.png","img/250/equaldotsize/R/13_Ratio_250_L_2_R_8.png","img/750/randomdotsizeEA/L/1_Ratio_750_L_20_R_15.png","img/250/equaldotsize/R/9_Ratio_250_L_3_R_12.png","img/500/equaldotsize/R/6_Ratio_500_L_9_R_18.png","img/750/equaldotanddens/L/14_Ratio_750_L_8_R_6.png","img/500/randomdotsizeEA/L/8_Ratio_500_L_8_R_4.png","img/250/equaldotsize/R/13_Ratio_250_L_2_R_8.png","img/500/equaldotsize/L/8_Ratio_500_L_8_R_4.png","img/250/randomdotsizeEA/R/4_Ratio_250_L_3_R_12.png","img/750/equaldotanddens/R/4_Ratio_750_L_15_R_20.png","img/750/equaldotsize/R/4_Ratio_750_L_15_R_20.png","img/900/equaldotsize/L/10_Ratio_900_L_20_R_18.png","img/750/equaldotanddens/R/2_Ratio_750_L_6_R_8.png","img/750/equaldotsize/L/6_Ratio_750_L_24_R_18.png","img/750/equaldotanddens/L/1_Ratio_750_L_20_R_15.png","img/900/randomdotsizeEA/L/10_Ratio_900_L_20_R_18.png","img/900/randomdotsizeEA/L/8_Ratio_900_L_20_R_18.png","img/500/randomdotsizeEA/L/4_Ratio_500_L_18_R_9.png","img/900/equaldotanddens/R/6_Ratio_900_L_9_R_10.png","img/750/randomdotsizeEA/R/4_Ratio_750_L_15_R_20.png","img/900/randomdotsizeEA/L/2_Ratio_900_L_20_R_18.png","img/750/randomdotsizeEA/R/4_Ratio_750_L_15_R_20.png","img/500/randomdotsizeEA/R/14_Ratio_500_L_5_R_10.png","img/250/randomdotsizeEA/L/14_Ratio_250_L_12_R_3.png","img/900/equaldotanddens/R/11_Ratio_900_L_18_R_20.png","img/900/equaldotsize/R/11_Ratio_900_L_18_R_20.png","img/250/randomdotsizeEA/L/5_Ratio_250_L_24_R_6.png","img/250/equaldotsize/L/3_Ratio_250_L_8_R_2.png","img/500/equaldotanddens/L/5_Ratio_500_L_4_R_2.png","img/750/randomdotsizeEA/R/12_Ratio_750_L_3_R_4.png","img/250/randomdotsizeEA/R/8_Ratio_250_L_1_R_4.png","img/900/randomdotsizeEA/L/10_Ratio_900_L_20_R_18.png","img/500/equaldotsize/R/3_Ratio_500_L_10_R_20.png","img/250/equaldotanddens/L/2_Ratio_250_L_16_R_4.png","img/750/randomdotsizeEA/R/15_Ratio_750_L_9_R_12.png","img/500/equaldotanddens/R/2_Ratio_500_L_3_R_6.png","img/250/equaldotanddens/L/1_Ratio_250_L_8_R_2.png","img/500/equaldotanddens/L/13_Ratio_500_L_12_R_6.png","img/900/equaldotsize/R/7_Ratio_900_L_9_R_10.png","img/250/randomdotsizeEA/R/9_Ratio_250_L_3_R_12.png","img/250/randomdotsizeEA/L/1_Ratio_250_L_8_R_2.png","img/900/equaldotsize/R/3_Ratio_900_L_9_R_10.png","img/250/equaldotanddens/R/9_Ratio_250_L_3_R_12.png","img/750/equaldotanddens/R/4_Ratio_750_L_15_R_20.png","img/250/equaldotanddens/L/3_Ratio_250_L_8_R_2.png","img/900/equaldotanddens/R/5_Ratio_900_L_9_R_10.png","img/500/equaldotsize/R/14_Ratio_500_L_5_R_10.png","img/900/equaldotanddens/L/8_Ratio_900_L_20_R_18.png","img/900/equaldotsize/R/5_Ratio_900_L_9_R_10.png","img/900/equaldotsize/L/4_Ratio_900_L_20_R_18.png","img/750/randomdotsizeEA/L/10_Ratio_750_L_4_R_3.png","img/500/equaldotanddens/L/11_Ratio_500_L_12_R_6.png","img/250/randomdotsizeEA/L/2_Ratio_250_L_16_R_4.png","img/250/equaldotsize/R/8_Ratio_250_L_1_R_4.png","img/500/equaldotsize/L/10_Ratio_500_L_4_R_2.png","img/500/equaldotsize/L/4_Ratio_500_L_18_R_9.png","img/250/equaldotanddens/L/15_Ratio_250_L_12_R_3.png","img/500/equaldotanddens/L/8_Ratio_500_L_8_R_4.png","img/250/randomdotsizeEA/R/11_Ratio_250_L_3_R_12.png","img/500/equaldotsize/L/5_Ratio_500_L_4_R_2.png","img/500/equaldotsize/R/15_Ratio_500_L_1_R_2.png","img/750/equaldotsize/R/7_Ratio_750_L_3_R_4.png","img/900/equaldotanddens/R/11_Ratio_900_L_18_R_20.png","img/900/equaldotanddens/R/5_Ratio_900_L_9_R_10.png","img/750/randomdotsizeEA/L/9_Ratio_750_L_4_R_3.png","img/500/randomdotsizeEA/L/11_Ratio_500_L_12_R_6.png","img/900/equaldotanddens/L/10_Ratio_900_L_20_R_18.png","img/250/equaldotsize/R/13_Ratio_250_L_2_R_8.png","img/250/randomdotsizeEA/L/5_Ratio_250_L_24_R_6.png","img/900/equaldotsize/R/15_Ratio_900_L_9_R_10.png","img/500/equaldotanddens/R/15_Ratio_500_L_1_R_2.png","img/250/equaldotsize/R/12_Ratio_250_L_5_R_20.png","img/750/equaldotsize/L/10_Ratio_750_L_4_R_3.png","img/750/equaldotanddens/R/2_Ratio_750_L_6_R_8.png","img/500/equaldotsize/R/3_Ratio_500_L_10_R_20.png","img/750/equaldotanddens/L/14_Ratio_750_L_8_R_6.png","img/900/equaldotsize/L/8_Ratio_900_L_20_R_18.png","img/500/randomdotsizeEA/R/6_Ratio_500_L_9_R_18.png","img/250/equaldotanddens/R/8_Ratio_250_L_1_R_4.png","img/500/randomdotsizeEA/R/12_Ratio_500_L_1_R_2.png","img/900/equaldotanddens/R/3_Ratio_900_L_9_R_10.png","img/250/equaldotsize/R/10_Ratio_250_L_4_R_16.png","img/900/randomdotsizeEA/R/15_Ratio_900_L_9_R_10.png","img/750/equaldotsize/R/2_Ratio_750_L_6_R_8.png","img/500/equaldotsize/R/9_Ratio_500_L_2_R_4.png","img/750/equaldotanddens/R/4_Ratio_750_L_15_R_20.png","img/900/randomdotsizeEA/R/12_Ratio_900_L_18_R_20.png","img/250/equaldotanddens/L/3_Ratio_250_L_8_R_2.png","img/750/randomdotsizeEA/L/6_Ratio_750_L_24_R_18.png","img/900/equaldotsize/L/2_Ratio_900_L_20_R_18.png","img/750/equaldotsize/L/13_Ratio_750_L_8_R_6.png","img/250/equaldotanddens/R/6_Ratio_250_L_6_R_24.png","img/500/randomdotsizeEA/L/5_Ratio_500_L_4_R_2.png","img/250/randomdotsizeEA/R/4_Ratio_250_L_3_R_12.png","img/900/randomdotsizeEA/L/1_Ratio_900_L_10_R_9.png","img/750/equaldotsize/L/8_Ratio_750_L_4_R_3.png","img/500/equaldotanddens/R/14_Ratio_500_L_5_R_10.png","img/500/equaldotanddens/R/1_Ratio_500_L_9_R_18.png","img/750/equaldotsize/L/13_Ratio_750_L_8_R_6.png","img/900/equaldotanddens/R/11_Ratio_900_L_18_R_20.png","img/250/equaldotsize/R/12_Ratio_250_L_5_R_20.png","img/500/equaldotanddens/R/2_Ratio_500_L_3_R_6.png"],"Rat0":[["12_Ratio_0_L_9_R_0.png","13_Ratio_0_L_6_R_0.png","5_Ratio_0_L_2_R_0.png","6_Ratio_0_L_4_R_0.png","8_Ratio_0_L_6_R_0.png"],["1_Ratio_0_L_0_R_17.png","10_Ratio_0_L_0_R_22.png","11_Ratio_0_L_0_R_1.png","14_Ratio_0_L_0_R_24.png","15_Ratio_0_L_0_R_4.png","2_Ratio_0_L_0_R_5.png","3_Ratio_0_L_0_R_17.png","4_Ratio_0_L_0_R_7.png","7_Ratio_0_L_0_R_19.png","9_Ratio_0_L_0_R_15.png"]],"Rat250":[["1_Ratio_250_L_8_R_2.png","14_Ratio_250_L_12_R_3.png","15_Ratio_250_L_12_R_3.png","2_Ratio_250_L_16_R_4.png","3_Ratio_250_L_8_R_2.png","5_Ratio_250_L_24_R_6.png","7_Ratio_250_L_8_R_2.png"],["10_Ratio_250_L_4_R_16.png","11_Ratio_250_L_3_R_12.png","12_Ratio_250_L_5_R_20.png","13_Ratio_250_L_2_R_8.png","4_Ratio_250_L_3_R_12.png","6_Ratio_250_L_6_R_24.png","8_Ratio_250_L_1_R_4.png","9_Ratio_250_L_3_R_12.png"]],"Rat500":[["10_Ratio_500_L_4_R_2.png","11_Ratio_500_L_12_R_6.png","13_Ratio_500_L_12_R_6.png","4_Ratio_500_L_18_R_9.png","5_Ratio_500_L_4_R_2.png","7_Ratio_500_L_10_R_5.png","8_Ratio_500_L_8_R_4.png"],["1_Ratio_500_L_9_R_18.png","12_Ratio_500_L_1_R_2.png","14_Ratio_500_L_5_R_10.png","15_Ratio_500_L_1_R_2.png","2_Ratio_500_L_3_R_6.png","3_Ratio_500_L_10_R_20.png","6_Ratio_500_L_9_R_18.png","9_Ratio_500_L_2_R_4.png"]],"Rat750":[["1_Ratio_750_L_20_R_15.png","10_Ratio_750_L_4_R_3.png","13_Ratio_750_L_8_R_6.png","14_Ratio_750_L_8_R_6.png","6_Ratio_750_L_24_R_18.png","8_Ratio_750_L_4_R_3.png","9_Ratio_750_L_4_R_3.png"],["11_Ratio_750_L_12_R_16.png","12_Ratio_750_L_3_R_4.png","15_Ratio_750_L_9_R_12.png","2_Ratio_750_L_6_R_8.png","3_Ratio_750_L_15_R_20.png","4_Ratio_750_L_15_R_20.png","5_Ratio_750_L_15_R_20.png","7_Ratio_750_L_3_R_4.png"]],"Rat900":[["1_Ratio_900_L_10_R_9.png","10_Ratio_900_L_20_R_18.png","2_Ratio_900_L_20_R_18.png","4_Ratio_900_L_20_R_18.png","8_Ratio_900_L_20_R_18.png"],["11_Ratio_900_L_18_R_20.png","12_Ratio_900_L_18_R_20.png","13_Ratio_900_L_18_R_20.png","14_Ratio_900_L_18_R_20.png","15_Ratio_900_L_9_R_10.png","3_Ratio_900_L_9_R_10.png","5_Ratio_900_L_9_R_10.png","6_Ratio_900_L_9_R_10.png","7_Ratio_900_L_9_R_10.png","9_Ratio_900_L_18_R_20.png"]],"Rat1000":[["10_Ratio_1000_L_16_R_16.png","11_Ratio_1000_L_6_R_6.png","12_Ratio_1000_L_14_R_14.png","13_Ratio_1000_L_20_R_20.png","15_Ratio_1000_L_15_R_15.png","2_Ratio_1000_L_17_R_17.png","4_Ratio_1000_L_9_R_9.png","5_Ratio_1000_L_6_R_6.png","6_Ratio_1000_L_19_R_19.png","8_Ratio_1000_L_14_R_14.png","9_Ratio_1000_L_25_R_25.png"],["1_Ratio_1000_L_1_R_1.png","14_Ratio_1000_L_17_R_17.png","3_Ratio_1000_L_17_R_17.png","7_Ratio_1000_L_6_R_6.png"]]}},{"start_time":1551881415203,"click_time":1551881416471,"finger_time":1551881416189,"fix_duration":250,"trial":1,"RT":986,"MT":282,"sideResp":1,"stimulus":"img/750/equaldotsize/L/8_Ratio_750_L_4_R_3.png","xmouse":[782,782,782,782,782,782,782,782,782,782,782,782,782,782,782,782,782,782,782,782,782,782,782,782,782,782,782,782,782,782,782,782,782,782,782,782,782,782,782,782,782,782,782,782,782,782,781,778,765,707,697,694,691,685,668,662,654,644,611,597,575,550,528,507],"ymouse":[515,515,515,515,515,515,515,515,515,515,515,515,515,515,515,515,515,515,515,515,515,515,515,515,515,515,515,515,515,515,515,515,515,515,515,515,515,515,515,515,515,515,515,515,515,515,514,506,476,285,206,161,141,121,79,66,54,44,23,17,11,11,11,19],"timestamp_mouse":[9,26,48,67,87,107,127,146,168,186,208,228,247,268,287,307,327,346,366,386,407,427,447,468,487,506,527,548,567,586,608,627,646,668,687,707,726,746,768,787,807,826,846,867,888,908,926,946,967,986,1006,1026,1046,1066,1086,1106,1127,1147,1168,1187,1207,1227,1247,1268],"xSR":741.5,"ySR":469.95,"xT1":424.9,"yT1":0,"xT2":1058.1,"yT2":0,"toosoon":0,"cond_shown":"equaldotsize","ratio_trial":750,"smaller_num":"3","larger_num":"4","correct_side":1,"subjID":"mateoalexandervega19","gender":"0","age":"11","school":"6"},{"start_time":1551881418531,"click_time":1551881420389,"finger_time":1551881420049,"fix_duration":1218.064401295009,"trial":2,"RT":1518,"MT":340,"sideResp":1,"stimulus":"img/750/equaldotanddens/L/9_Ratio_750_L_4_R_3.png","xmouse":[783,783,783,783,783,783,783,783,783,783,783,783,783,783,783,783,783,783,783,783,783,783,783,783,783,783,783,783,783,783,783,783,783,783,783,783,783,783,783,783,783,783,783,783,783,783,783,783,783,783,783,783,783,783,783,783,783,783,783,783,783,783,783,783,783,783,783,783,783,783,783,783,783,783,771,758,728,618,618,618,618,618,618,618,618,618,618,398,403,407,413,421,429],"ymouse":[537,537,537,537,537,537,537,537,537,537,537,537,537,537,537,537,537,537,537,537,537,537,537,537,537,537,537,537,537,537,537,537,537,537,537,537,537,537,537,537,537,537,537,537,537,537,537,537,537,537,537,537,537,537,537,537,537,537,537,537,537,537,537,537,537,537,537,537,537,537,537,537,537,537,507,466,356,88,88,88,88,88,88,88,88,88,88,20,50,65,72,79,86],"timestamp_mouse":[19,46,59,78,100,119,139,159,178,200,220,239,258,279,298,319,339,359,378,400,418,440,459,478,500,520,540,558,579,600,620,639,659,679,700,718,739,759,779,798,820,838,859,878,899,920,939,959,978,999,1020,1039,1059,1078,1100,1118,1138,1158,1179,1198,1220,1238,1258,1279,1298,1318,1339,1358,1378,1399,1418,1440,1458,1479,1498,1518,1538,1558,1578,1600,1619,1638,1659,1678,1698,1719,1739,1759,1779,1798,1820,1840,1858],"xSR":741.5,"ySR":469.95,"xT1":424.9,"yT1":0,"xT2":1058.1,"yT2":0,"toosoon":0,"cond_shown":"equaldotanddens","ratio_trial":750,"smaller_num":"3","larger_num":"4","correct_side":1,"subjID":"mateoalexandervega19","gender":"0","age":"11","school":"6"},{"start_time":1551881421889,"click_time":1551881423071,"finger_time":1551881422609,"fix_duration":478.16840645421445,"trial":3,"RT":720,"MT":462,"sideResp":1,"stimulus":"img/500/equaldotanddens/L/7_Ratio_500_L_10_R_5.png","xmouse":[761,761,761,761,761,761,761,761,761,761,761,761,761,761,761,761,761,761,761,761,761,761,761,761,761,761,761,761,761,761,761,761,761,761,761,749,701,648,625,621,620,620,613,599,579,565,552,546,539,531,527,525,525,525,525,525,524,519,510,503],"ymouse":[503,503,503,503,503,503,503,503,503,503,503,503,503,503,503,503,503,503,503,503,503,503,503,503,503,503,503,503,503,503,503,503,503,503,503,493,434,370,319,306,304,300,286,258,228,208,192,184,175,161,151,145,145,145,145,145,141,127,105,86],"timestamp_mouse":[8,20,40,61,81,100,122,140,160,182,200,222,240,260,281,301,320,342,361,382,401,421,441,462,480,500,520,541,562,580,600,622,642,662,680,701,720,740,761,780,801,821,841,862,881,900,920,941,961,980,1000,1020,1040,1062,1081,1101,1120,1141,1161,1181],"xSR":741.5,"ySR":469.95,"xT1":424.9,"yT1":0,"xT2":1058.1,"yT2":0,"toosoon":0,"cond_shown":"equaldotanddens","ratio_trial":500,"smaller_num":"5","larger_num":"10","correct_side":1,"subjID":"mateoalexandervega19","gender":"0","age":"11","school":"6"},{"start_time":1551881425217,"click_time":1551881426431,"finger_time":1551881425869,"fix_duration":1364.5533555691718,"trial":4,"RT":652,"MT":562,"sideResp":2,"stimulus":"img/250/equaldotanddens/R/11_Ratio_250_L_3_R_12.png","xmouse":[793,793,793,793,793,793,793,793,793,793,793,793,793,793,793,793,793,793,793,793,793,793,793,793,793,793,793,795,801,811,819,832,857,883,968,1001,1026,1046,1069,1138,1161,1176,1183,1187,1187,1187,1187,1186,1183,1172,1165,1159,1151,1149,1141,1137,1131,1124,1114,1111,1109],"ymouse":[532,532,532,532,532,532,532,532,532,532,532,532,532,532,532,532,532,532,532,532,532,532,532,532,532,532,531,527,518,502,492,475,453,441,425,414,402,390,372,323,309,296,288,275,260,254,247,240,231,211,199,190,177,171,156,150,140,128,109,100,95],"timestamp_mouse":[13,33,52,73,94,113,132,153,174,193,214,232,253,273,293,312,334,352,372,394,413,434,452,473,493,513,533,553,573,592,613,633,652,672,692,713,732,754,773,792,813,833,854,873,893,912,933,953,973,992,1013,1033,1052,1073,1092,1112,1133,1153,1174,1192,1214],"xSR":741.5,"ySR":469.95,"xT1":424.9,"yT1":0,"xT2":1058.1,"yT2":0,"toosoon":0,"cond_shown":"equaldotanddens","ratio_trial":250,"smaller_num":"3","larger_num":"12","correct_side":2,"subjID":"mateoalexandervega19","gender":"0","age":"11","school":"6"},{"start_time":1551881428941,"click_time":1551881430030,"finger_time":1551881429570,"fix_duration":369.0104960400764,"trial":5,"RT":629,"MT":460,"sideResp":1,"stimulus":"img/750/equaldotanddens/L/13_Ratio_750_L_8_R_6.png","xmouse":[790,790,790,790,790,790,790,790,790,790,790,790,790,790,790,790,790,790,790,790,790,790,790,790,790,790,790,789,783,776,767,750,725,678,660,658,658,655,636,615,581,555,537,533,533,533,532,527,512,507,506,507,509,511,506],"ymouse":[530,530,530,530,530,530,530,530,530,530,530,530,530,530,530,530,530,530,530,529,528,528,527,527,527,527,527,527,521,509,490,466,439,386,363,360,360,357,337,317,292,274,262,255,248,236,221,203,163,150,141,134,131,112,88],"timestamp_mouse":[8,36,48,70,88,109,129,150,169,188,208,229,250,269,289,308,329,348,369,388,409,428,449,468,490,508,528,548,568,588,608,629,649,668,688,709,729,749,769,788,808,828,850,869,888,908,928,949,968,988,1010,1029,1048,1068,1088],"xSR":741.5,"ySR":469.95,"xT1":424.9,"yT1":0,"xT2":1058.1,"yT2":0,"toosoon":0,"cond_shown":"equaldotanddens","ratio_trial":750,"smaller_num":"6","larger_num":"8","correct_side":1,"subjID":"mateoalexandervega19","gender":"0","age":"11","school":"6"},{"start_time":1551881431141,"click_time":1551881432029,"finger_time":1551881431630,"fix_duration":250,"trial":6,"RT":489,"MT":399,"sideResp":1,"stimulus":"img/250/equaldotsize/L/15_Ratio_250_L_12_R_3.png","xmouse":[776,776,776,776,776,776,776,776,776,776,776,776,776,776,776,776,776,775,775,775,774,771,766,747,720,701,669,632,581,564,540,520,505,502,499,495,493,490,488,487,486,486,482,479,479],"ymouse":[535,535,535,535,535,535,535,535,535,535,535,535,535,535,535,535,534,531,530,529,527,523,518,499,469,450,422,394,345,323,288,249,224,207,195,183,173,160,154,143,135,123,112,103,94],"timestamp_mouse":[9,44,49,70,89,109,128,148,169,189,209,229,249,270,288,308,328,348,370,388,410,429,449,468,489,508,529,548,570,588,609,629,649,668,689,709,729,749,769,788,810,829,849,868,888],"xSR":741.5,"ySR":469.95,"xT1":424.9,"yT1":0,"xT2":1058.1,"yT2":0,"toosoon":0,"cond_shown":"equaldotsize","ratio_trial":250,"smaller_num":"3","larger_num":"12","correct_side":1,"subjID":"mateoalexandervega19","gender":"0","age":"11","school":"6"},{"start_time":1551881433663,"click_time":1551881435230,"finger_time":1551881434790,"fix_duration":1051.9240525903897,"trial":7,"RT":1127,"MT":440,"sideResp":1,"stimulus":"img/900/randomdotsizeEA/R/9_Ratio_900_L_18_R_20.png","xmouse":[762,762,762,762,762,762,762,762,762,762,762,762,762,762,762,762,762,762,762,762,762,762,762,762,762,762,762,762,762,762,762,762,763,764,764,764,764,764,763,762,762,762,762,762,762,762,762,762,762,762,761,761,760,757,753,750,738,729,700,690,680,671,662,642,629,608,572,557,542,536,533,530,526,519,519,519,519,518,504],"ymouse":[496,496,496,496,496,496,496,496,496,496,496,496,496,496,496,496,496,496,496,496,496,496,496,496,496,496,496,496,496,496,496,496,496,495,492,492,489,488,486,485,485,485,485,485,485,485,485,485,485,485,485,484,483,478,472,470,454,442,402,391,379,368,356,328,310,280,234,214,189,179,170,157,147,132,128,125,122,117,94],"timestamp_mouse":[8,26,61,67,88,107,126,147,167,188,207,227,247,267,288,306,326,348,366,388,406,428,446,466,488,506,527,547,567,588,606,626,647,666,687,706,727,746,768,788,807,827,846,868,888,906,926,947,968,987,1007,1026,1048,1066,1087,1107,1127,1146,1167,1188,1206,1227,1246,1267,1287,1307,1326,1347,1367,1387,1408,1427,1446,1467,1487,1506,1528,1547,1567],"xSR":741.5,"ySR":469.95,"xT1":424.9,"yT1":0,"xT2":1058.1,"yT2":0,"toosoon":0,"cond_shown":"randomdotsizeEA","ratio_trial":900,"smaller_num":"18","larger_num":"20","correct_side":2,"subjID":"mateoalexandervega19","gender":"0","age":"11","school":"6"},{"start_time":1551881437051,"click_time":1551881438230,"finger_time":1551881437890,"fix_duration":739.2318124954844,"trial":8,"RT":839,"MT":340,"sideResp":1,"stimulus":"img/500/randomdotsizeEA/L/5_Ratio_500_L_4_R_2.png","xmouse":[798,798,798,798,798,798,798,798,798,798,798,798,798,798,798,798,798,798,798,798,798,798,798,798,798,798,798,798,798,798,798,798,798,798,798,798,798,798,796,788,781,772,761,749,717,702,696,689,675,647,636,624,608,589,571,568,565,555,537,514],"ymouse":[511,511,511,511,511,511,511,511,511,511,511,511,511,511,511,511,511,511,511,511,511,511,511,511,511,511,511,511,511,511,511,511,511,511,511,511,511,511,510,500,493,479,459,430,357,323,310,298,280,240,221,201,182,160,136,132,128,122,110,93],"timestamp_mouse":[1,18,39,59,78,99,119,139,158,178,199,220,239,258,279,299,318,339,358,380,398,418,440,458,479,499,518,538,559,580,599,619,638,660,678,699,719,738,758,779,798,819,839,860,879,899,918,938,958,978,998,1018,1039,1058,1079,1100,1119,1140,1159,1179],"xSR":741.5,"ySR":469.95,"xT1":424.9,"yT1":0,"xT2":1058.1,"yT2":0,"toosoon":0,"cond_shown":"randomdotsizeEA","ratio_trial":500,"smaller_num":"2","larger_num":"4","correct_side":1,"subjID":"mateoalexandervega19","gender":"0","age":"11","school":"6"},{"start_time":1551881439692,"click_time":1551881441069,"finger_time":1551881440630,"fix_duration":541.009528085035,"trial":9,"RT":938,"MT":439,"sideResp":2,"stimulus":"img/900/equaldotanddens/R/13_Ratio_900_L_18_R_20.png","xmouse":[792,792,792,792,792,792,792,792,792,792,792,792,792,792,792,792,791,791,791,791,791,791,791,791,791,791,791,791,791,791,791,791,791,791,791,791,791,791,791,790,785,781,780,780,780,782,787,808,828,864,903,931,945,949,955,963,976,981,988,995,1005,1009,1012,1013,1018,1032,1054,1086,1094],"ymouse":[534,534,534,534,534,534,534,534,534,534,534,534,534,534,534,534,534,534,534,534,534,534,534,534,534,534,534,534,534,534,534,534,534,534,534,534,534,534,531,527,516,500,486,481,476,470,463,441,421,380,334,298,253,238,226,216,198,190,178,170,157,147,140,139,135,127,117,102,98],"timestamp_mouse":[18,48,57,77,98,117,138,157,179,197,218,237,258,277,299,318,338,357,378,397,418,437,459,477,498,518,538,557,577,599,619,637,659,678,698,718,737,758,778,797,817,838,858,877,897,918,938,957,977,998,1018,1038,1059,1078,1097,1117,1138,1157,1177,1197,1219,1238,1257,1277,1298,1317,1338,1357,1377],"xSR":741.5,"ySR":469.95,"xT1":424.9,"yT1":0,"xT2":1058.1,"yT2":0,"toosoon":0,"cond_shown":"equaldotanddens","ratio_trial":900,"smaller_num":"18","larger_num":"20","correct_side":2,"subjID":"mateoalexandervega19","gender":"0","age":"11","school":"6"},{"start_time":1551881442551,"click_time":1551881443290,"finger_time":1551881443010,"fix_duration":621.0483840036778,"trial":10,"RT":459,"MT":280,"sideResp":1,"stimulus":"img/250/equaldotanddens/L/7_Ratio_250_L_8_R_2.png","xmouse":[802,802,802,802,802,802,802,802,802,802,802,802,802,802,802,802,802,802,802,800,795,783,767,740,727,713,696,667,603,535,518,507,497,486,473,470,463],"ymouse":[505,505,505,505,505,505,505,505,505,505,505,505,505,505,505,505,505,505,505,504,497,481,464,436,421,405,386,352,285,224,208,193,178,157,125,114,99],"timestamp_mouse":[18,44,58,78,99,119,139,158,179,198,219,238,259,279,300,319,339,358,379,398,418,439,459,480,499,519,538,558,579,598,618,638,658,679,698,719,739],"xSR":741.5,"ySR":469.95,"xT1":424.9,"yT1":0,"xT2":1058.1,"yT2":0,"toosoon":0,"cond_shown":"equaldotanddens","ratio_trial":250,"smaller_num":"2","larger_num":"8","correct_side":1,"subjID":"mateoalexandervega19","gender":"0","age":"11","school":"6"},{"start_time":1551881445257,"click_time":1551881446390,"finger_time":1551881445929,"fix_duration":1065.05307585739,"trial":11,"RT":672,"MT":461,"sideResp":1,"stimulus":"img/750/equaldotsize/L/9_Ratio_750_L_4_R_3.png","xmouse":[768,768,768,768,768,768,768,768,768,768,768,768,768,768,768,768,768,768,768,768,768,768,768,768,768,768,768,768,768,768,768,768,750,722,652,620,598,568,533,480,457,427,419,417,417,417,420,426,429,438,443,448,454,458,460,461,462],"ymouse":[537,537,537,537,537,537,537,537,537,537,537,537,537,537,537,537,537,537,537,537,537,537,537,537,537,537,537,537,537,537,537,522,487,441,375,347,327,300,269,220,199,170,158,149,131,123,120,113,110,106,104,102,102,102,101,100,99],"timestamp_mouse":[14,38,54,72,92,114,134,153,172,194,214,233,252,274,293,314,333,354,372,392,413,432,452,474,493,512,533,552,573,593,612,632,654,672,693,712,732,753,773,793,812,832,853,873,892,912,932,953,972,993,1013,1032,1052,1073,1094,1114,1133],"xSR":741.5,"ySR":469.95,"xT1":424.9,"yT1":0,"xT2":1058.1,"yT2":0,"toosoon":0,"cond_shown":"equaldotsize","ratio_trial":750,"smaller_num":"3","larger_num":"4","correct_side":1,"subjID":"mateoalexandervega19","gender":"0","age":"11","school":"6"},{"start_time":1551881447957,"click_time":1551881450289,"finger_time":1551881449749,"fix_duration":746.888930392553,"trial":12,"RT":1792,"MT":540,"sideResp":2,"stimulus":"img/900/randomdotsizeEA/L/1_Ratio_900_L_10_R_9.png","xmouse":[795,795,795,795,795,795,795,795,795,795,795,795,795,795,795,795,795,795,795,795,795,795,795,795,795,795,795,795,795,795,795,795,795,795,795,795,795,795,795,795,795,795,795,795,795,795,795,795,795,795,795,795,795,795,795,795,795,795,795,795,795,795,795,795,795,795,795,795,795,795,795,795,795,795,795,795,795,795,795,795,796,796,797,798,803,817,822,830,839,851,873,893,915,947,1023,1038,1049,1057,1067,1076,1091,1093,1095,1097,1100,1101,1104,1110,1113,1114,1114,1115,1115,1116,1116,1116,1113],"ymouse":[526,526,526,526,526,526,526,526,526,526,526,526,526,526,526,526,526,526,526,526,526,526,526,526,526,526,526,526,526,526,526,526,526,526,526,526,526,526,526,526,526,526,526,526,526,526,526,526,526,526,526,526,526,526,526,526,526,526,526,526,526,526,526,526,526,526,526,526,525,524,524,524,524,524,524,524,524,524,524,524,523,523,521,520,513,498,493,491,488,484,470,457,440,412,339,321,305,293,277,262,228,214,200,189,171,167,163,156,151,146,132,126,121,116,107,103,97],"timestamp_mouse":[13,42,54,74,92,113,132,154,173,193,212,233,252,273,292,313,334,354,372,394,412,433,452,474,493,513,533,552,572,592,612,634,654,673,693,714,732,753,773,793,813,833,854,873,893,913,933,952,972,993,1013,1033,1052,1073,1092,1112,1133,1154,1174,1193,1213,1232,1253,1273,1293,1312,1333,1354,1372,1393,1413,1434,1452,1473,1494,1514,1532,1554,1573,1593,1614,1632,1652,1674,1693,1712,1732,1754,1773,1792,1812,1832,1853,1872,1894,1912,1932,1952,1972,1993,2012,2032,2054,2073,2094,2112,2132,2153,2172,2193,2212,2233,2252,2272,2294,2312,2332],"xSR":741.5,"ySR":469.95,"xT1":424.9,"yT1":0,"xT2":1058.1,"yT2":0,"toosoon":0,"cond_shown":"randomdotsizeEA","ratio_trial":900,"smaller_num":"9","larger_num":"10","correct_side":1,"subjID":"mateoalexandervega19","gender":"0","age":"11","school":"6"},{"start_time":1551881452670,"click_time":1551881453849,"finger_time":1551881453470,"fix_duration":1180.6957148309002,"trial":13,"RT":800,"MT":379,"sideResp":1,"stimulus":"img/900/equaldotsize/L/10_Ratio_900_L_20_R_18.png","xmouse":[778,778,778,778,779,779,779,779,779,779,779,779,779,779,779,779,779,779,779,779,779,779,779,779,779,779,779,779,779,779,779,779,779,779,779,779,779,780,786,794,800,800,793,769,726,718,710,679,654,619,604,594,584,580,568,556,536,525,519],"ymouse":[515,515,515,515,516,516,516,516,516,516,516,516,516,516,516,516,516,516,516,516,516,516,516,516,516,516,516,516,516,516,516,516,516,516,516,516,516,515,497,464,449,425,391,329,246,229,218,189,170,134,118,109,104,101,97,96,96,96,96],"timestamp_mouse":[20,40,62,80,99,121,139,159,180,201,219,239,260,279,299,320,341,359,381,399,421,440,460,480,499,520,540,561,580,601,621,639,659,679,701,719,740,760,780,800,820,839,860,880,899,919,939,959,980,999,1019,1040,1059,1080,1099,1120,1139,1159,1179],"xSR":741.5,"ySR":469.95,"xT1":424.9,"yT1":0,"xT2":1058.1,"yT2":0,"toosoon":0,"cond_shown":"equaldotsize","ratio_trial":900,"smaller_num":"18","larger_num":"20","correct_side":1,"subjID":"mateoalexandervega19","gender":"0","age":"11","school":"6"},{"start_time":1551881455533,"click_time":1551881456591,"finger_time":1551881456249,"fix_duration":940.5248322209671,"trial":14,"RT":716,"MT":342,"sideResp":1,"stimulus":"img/500/randomdotsizeEA/L/4_Ratio_500_L_18_R_9.png","xmouse":[800,800,800,800,800,800,800,800,800,800,800,800,800,800,800,800,800,800,800,800,800,800,800,800,800,800,800,800,800,801,801,804,804,801,793,784,759,745,729,713,687,592,519,480,456,445,433,427,420,418,417,423,431],"ymouse":[519,519,519,519,519,519,519,519,519,519,519,519,519,519,519,519,519,519,519,519,519,519,519,519,519,519,519,519,519,519,517,502,497,489,475,463,435,424,413,399,377,300,242,207,178,160,138,119,101,87,72,54,47],"timestamp_mouse":[17,38,58,77,97,118,138,156,177,198,216,238,257,276,298,316,336,356,377,397,416,438,456,478,496,518,536,557,577,596,617,637,657,676,698,716,737,758,776,796,818,836,857,876,897,917,937,956,977,996,1016,1037,1058],"xSR":741.5,"ySR":469.95,"xT1":424.9,"yT1":0,"xT2":1058.1,"yT2":0,"toosoon":0,"cond_shown":"randomdotsizeEA","ratio_trial":500,"smaller_num":"9","larger_num":"18","correct_side":1,"subjID":"mateoalexandervega19","gender":"0","age":"11","school":"6"},{"start_time":1551881457588,"click_time":1551881458470,"finger_time":1551881458270,"fix_duration":337.3529281843388,"trial":15,"RT":682,"MT":200,"sideResp":1,"stimulus":"img/750/randomdotsizeEA/L/13_Ratio_750_L_8_R_6.png","xmouse":[768,768,768,768,768,768,768,768,768,768,768,768,768,768,768,768,767,767,767,767,767,767,767,767,767,767,767,767,767,767,767,767,763,753,740,702,675,652,632,594,574,550,534,527,524],"ymouse":[499,499,499,499,499,499,499,499,499,499,499,499,499,499,499,499,499,499,499,499,499,499,499,499,499,499,499,499,499,499,499,498,493,481,466,422,385,354,322,234,186,139,110,95,87],"timestamp_mouse":[4,23,41,62,82,101,122,143,162,182,201,222,242,261,283,302,322,341,362,382,402,421,443,463,481,502,523,542,563,581,601,621,641,662,682,701,722,741,763,782,802,821,843,862,882],"xSR":741.5,"ySR":469.95,"xT1":424.9,"yT1":0,"xT2":1058.1,"yT2":0,"toosoon":0,"cond_shown":"randomdotsizeEA","ratio_trial":750,"smaller_num":"6","larger_num":"8","correct_side":1,"subjID":"mateoalexandervega19","gender":"0","age":"11","school":"6"},{"start_time":1551881459824,"click_time":1551881461130,"finger_time":1551881460489,"fix_duration":492.97138481088143,"trial":16,"RT":665,"MT":641,"sideResp":2,"stimulus":"img/500/randomdotsizeEA/R/2_Ratio_500_L_3_R_6.png","xmouse":[781,781,781,781,781,781,781,781,781,781,781,781,781,781,781,781,781,781,781,781,781,781,781,781,780,778,774,772,769,768,767,766,765,765,765,766,773,788,801,816,847,891,917,949,972,1007,1053,1123,1149,1174,1189,1199,1204,1204,1205,1205,1199,1192,1177,1171,1165,1162,1161,1159,1159,1157],"ymouse":[493,493,493,493,493,493,493,493,493,493,493,493,493,493,493,493,493,493,493,493,493,493,493,493,490,487,483,481,478,476,475,472,470,469,467,465,460,452,442,423,372,295,252,215,201,185,172,153,148,140,134,128,121,116,110,101,86,75,57,53,49,49,49,50,50,51],"timestamp_mouse":[10,25,47,65,86,107,125,147,167,186,205,227,245,267,287,306,326,347,365,386,406,425,445,465,486,506,526,545,565,586,606,625,647,665,686,705,727,747,766,785,805,825,847,865,886,906,926,947,965,985,1006,1025,1047,1066,1085,1105,1126,1145,1166,1185,1206,1226,1246,1265,1285,1306],"xSR":741.5,"ySR":469.95,"xT1":424.9,"yT1":0,"xT2":1058.1,"yT2":0,"toosoon":0,"cond_shown":"randomdotsizeEA","ratio_trial":500,"smaller_num":"3","larger_num":"6","correct_side":2,"subjID":"mateoalexandervega19","gender":"0","age":"11","school":"6"},{"start_time":1551881462451,"click_time":1551881463911,"finger_time":1551881463070,"fix_duration":640.725553670449,"trial":17,"RT":619,"MT":841,"sideResp":1,"stimulus":"img/750/randomdotsizeEA/L/10_Ratio_750_L_4_R_3.png","xmouse":[765,765,765,765,765,765,765,765,765,765,765,765,765,765,765,765,765,765,765,765,765,765,765,765,765,765,764,757,753,745,739,731,730,727,724,719,704,699,697,690,678,643,622,599,583,572,564,564,564,564,564,566,588,612,639,667,709,718,718,719,711,687,663,647,629,613,594,588,584,579,570,539,523],"ymouse":[511,511,511,511,511,511,511,511,511,511,511,511,511,511,511,511,511,511,511,511,511,511,511,511,511,511,510,502,495,484,475,456,449,429,411,391,356,344,335,322,305,256,232,207,194,186,182,182,182,182,182,182,187,191,195,196,189,186,186,184,174,144,128,120,112,107,98,94,92,89,86,80,80],"timestamp_mouse":[20,39,58,78,100,119,140,160,178,199,218,240,259,278,298,320,338,359,379,398,420,438,459,480,499,520,539,558,579,598,619,638,660,678,700,719,738,758,778,799,818,838,859,878,899,919,939,958,979,998,1019,1038,1059,1080,1099,1120,1138,1159,1178,1198,1220,1238,1258,1278,1298,1319,1338,1359,1378,1399,1418,1439,1460],"xSR":741.5,"ySR":469.95,"xT1":424.9,"yT1":0,"xT2":1058.1,"yT2":0,"toosoon":0,"cond_shown":"randomdotsizeEA","ratio_trial":750,"smaller_num":"3","larger_num":"4","correct_side":1,"subjID":"mateoalexandervega19","gender":"0","age":"11","school":"6"},{"start_time":1551881465564,"click_time":1551881466429,"finger_time":1551881466090,"fix_duration":852.0535212482557,"trial":18,"RT":526,"MT":339,"sideResp":2,"stimulus":"img/250/equaldotsize/R/13_Ratio_250_L_2_R_8.png","xmouse":[807,807,807,807,807,807,807,807,807,807,807,807,807,807,807,807,807,807,807,807,807,807,807,809,810,817,858,878,890,897,901,911,922,941,966,992,1022,1026,1033,1040,1047,1054,1056,1061],"ymouse":[537,537,537,537,537,537,537,537,537,537,537,537,537,537,537,537,537,537,537,537,537,537,537,537,537,534,488,462,435,407,385,353,334,310,283,251,196,184,164,142,116,87,78,69],"timestamp_mouse":[8,26,48,65,87,105,125,147,167,186,205,226,245,266,287,307,325,347,366,385,407,426,445,467,486,506,526,545,565,586,606,626,645,665,686,706,726,746,765,786,806,826,845,865],"xSR":741.5,"ySR":469.95,"xT1":424.9,"yT1":0,"xT2":1058.1,"yT2":0,"toosoon":0,"cond_shown":"equaldotsize","ratio_trial":250,"smaller_num":"2","larger_num":"8","correct_side":2,"subjID":"mateoalexandervega19","gender":"0","age":"11","school":"6"},{"start_time":1551881469119,"click_time":1551881470010,"finger_time":1551881469710,"fix_duration":548.7027804699055,"trial":19,"RT":591,"MT":300,"sideResp":1,"stimulus":"img/750/randomdotsizeEA/L/1_Ratio_750_L_20_R_15.png","xmouse":[767,767,767,767,767,767,767,767,767,767,767,767,767,767,767,767,767,767,767,767,767,767,768,768,768,768,768,768,760,718,700,677,653,613,549,538,528,511,504,496,495,495,495,495,495],"ymouse":[546,546,546,546,546,546,546,546,546,546,546,546,546,546,546,546,546,546,546,546,546,546,545,544,544,543,539,528,489,413,386,357,330,284,187,165,148,130,125,118,116,112,107,102,96],"timestamp_mouse":[10,38,51,71,91,111,131,152,170,190,210,231,251,272,291,311,332,351,372,391,411,432,451,471,491,512,531,551,572,591,611,632,652,672,691,711,732,751,771,791,811,831,851,872,891],"xSR":741.5,"ySR":469.95,"xT1":424.9,"yT1":0,"xT2":1058.1,"yT2":0,"toosoon":0,"cond_shown":"randomdotsizeEA","ratio_trial":750,"smaller_num":"15","larger_num":"20","correct_side":1,"subjID":"mateoalexandervega19","gender":"0","age":"11","school":"6"},{"start_time":1551881470962,"click_time":1551881471810,"finger_time":1551881471410,"fix_duration":311.16127927796833,"trial":20,"RT":448,"MT":400,"sideResp":2,"stimulus":"img/250/equaldotsize/R/9_Ratio_250_L_3_R_12.png","xmouse":[769,769,769,769,769,769,769,769,769,769,769,769,769,769,769,769,769,769,769,770,770,768,763,778,786,794,805,840,865,889,913,927,930,930,938,957,979,1011,1027,1040,1047,1054,1061],"ymouse":[506,506,506,506,506,506,506,506,506,506,506,506,506,506,506,506,506,506,506,506,502,477,433,411,405,400,396,382,362,339,287,213,126,103,67,50,40,34,34,34,34,34,34],"timestamp_mouse":[9,35,48,68,90,108,128,148,168,189,210,228,248,269,289,308,329,348,370,388,408,428,448,468,488,508,528,548,568,589,609,629,648,669,688,708,729,748,768,789,809,828,848],"xSR":741.5,"ySR":469.95,"xT1":424.9,"yT1":0,"xT2":1058.1,"yT2":0,"toosoon":0,"cond_shown":"equaldotsize","ratio_trial":250,"smaller_num":"3","larger_num":"12","correct_side":2,"subjID":"mateoalexandervega19","gender":"0","age":"11","school":"6"},{"start_time":1551881473002,"click_time":1551881474091,"finger_time":1551881473430,"fix_duration":390.38721221708573,"trial":21,"RT":428,"MT":661,"sideResp":2,"stimulus":"img/500/equaldotsize/R/6_Ratio_500_L_9_R_18.png","xmouse":[785,785,785,785,785,785,785,785,785,785,785,785,785,785,785,783,782,779,778,777,777,781,787,793,800,827,846,863,879,894,904,947,971,1013,1057,1117,1142,1160,1168,1170,1174,1179,1183,1185,1186,1186,1186,1186,1186,1186,1181,1175,1165,1161,1157],"ymouse":[527,527,527,527,527,527,527,527,527,527,527,527,527,526,524,517,509,502,496,489,483,464,451,442,428,396,378,361,342,322,304,239,218,187,164,123,110,101,97,95,91,88,85,83,82,81,81,81,80,80,78,76,73,71,69],"timestamp_mouse":[8,28,55,68,89,108,128,148,168,188,208,229,248,268,288,309,328,349,368,389,408,428,448,468,489,508,529,549,568,588,608,628,648,668,689,708,729,748,769,789,808,829,848,868,888,909,928,950,969,990,1008,1028,1048,1069,1089],"xSR":741.5,"ySR":469.95,"xT1":424.9,"yT1":0,"xT2":1058.1,"yT2":0,"toosoon":0,"cond_shown":"equaldotsize","ratio_trial":500,"smaller_num":"9","larger_num":"18","correct_side":2,"subjID":"mateoalexandervega19","gender":"0","age":"11","school":"6"},{"start_time":1551881477287,"click_time":1551881478250,"finger_time":1551881477930,"fix_duration":1055.377890913079,"trial":22,"RT":643,"MT":320,"sideResp":1,"stimulus":"img/750/equaldotanddens/L/14_Ratio_750_L_8_R_6.png","xmouse":[786,786,786,786,786,786,786,786,786,786,786,786,786,786,786,786,786,786,786,786,787,788,792,796,799,800,801,801,801,801,799,780,719,694,667,632,563,522,474,435,417,410,408,407,406,404,407,417,431],"ymouse":[532,532,532,532,532,532,532,532,532,532,532,532,532,532,532,532,532,532,532,532,532,531,528,524,520,519,519,519,519,515,506,478,399,370,331,287,226,197,170,148,139,137,135,134,131,124,112,102,94],"timestamp_mouse":[8,40,43,63,83,103,124,143,164,184,204,223,243,264,284,304,324,343,363,383,403,423,443,463,483,503,523,544,563,583,604,623,643,664,683,704,725,743,763,783,804,823,843,863,883,903,924,943,963],"xSR":741.5,"ySR":469.95,"xT1":424.9,"yT1":0,"xT2":1058.1,"yT2":0,"toosoon":0,"cond_shown":"equaldotanddens","ratio_trial":750,"smaller_num":"6","larger_num":"8","correct_side":1,"subjID":"mateoalexandervega19","gender":"0","age":"11","school":"6"},{"start_time":1551881480643,"click_time":1551881481450,"finger_time":1551881481230,"fix_duration":250,"trial":23,"RT":587,"MT":220,"sideResp":1,"stimulus":"img/500/randomdotsizeEA/L/8_Ratio_500_L_8_R_4.png","xmouse":[785,785,785,785,785,785,785,785,785,785,785,785,785,785,785,785,785,785,785,785,785,783,781,778,776,771,768,761,748,704,670,640,625,618,596,566,541,518,502,489,489],"ymouse":[537,537,537,537,537,537,537,537,537,537,537,537,537,537,537,537,537,537,537,537,537,534,529,525,522,514,511,502,486,430,387,343,313,289,234,170,139,120,109,100,97],"timestamp_mouse":[8,33,47,67,87,107,128,147,167,187,207,228,248,267,287,307,327,348,368,387,408,428,448,467,487,508,527,547,567,587,607,627,647,667,687,708,727,748,768,787,807],"xSR":741.5,"ySR":469.95,"xT1":424.9,"yT1":0,"xT2":1058.1,"yT2":0,"toosoon":0,"cond_shown":"randomdotsizeEA","ratio_trial":500,"smaller_num":"4","larger_num":"8","correct_side":1,"subjID":"mateoalexandervega19","gender":"0","age":"11","school":"6"},{"start_time":1551881484970,"click_time":1551881486030,"finger_time":1551881485530,"fix_duration":1319.8298790844044,"trial":24,"RT":560,"MT":500,"sideResp":2,"stimulus":"img/250/equaldotsize/R/13_Ratio_250_L_2_R_8.png","xmouse":[797,797,797,797,797,797,797,797,797,797,797,797,797,797,797,797,797,797,797,796,795,793,789,785,782,782,787,796,821,881,910,942,986,1081,1131,1162,1185,1203,1206,1217,1218,1218,1218,1218,1218,1218,1218,1218,1218,1218,1218,1218,1218,1144],"ymouse":[516,516,516,516,516,516,516,516,516,516,516,516,516,516,516,516,516,516,516,515,513,511,506,503,500,495,489,475,430,340,303,269,225,155,134,121,109,88,80,20,8,8,8,8,8,8,8,8,8,8,8,8,8,1],"timestamp_mouse":[12,20,45,60,80,101,120,140,162,180,200,222,240,261,280,301,321,340,360,380,400,420,440,460,480,500,520,540,560,580,600,621,640,662,680,700,720,740,760,782,800,821,841,860,881,901,920,940,961,980,1000,1021,1040,1060],"xSR":741.5,"ySR":469.95,"xT1":424.9,"yT1":0,"xT2":1058.1,"yT2":0,"toosoon":0,"cond_shown":"equaldotsize","ratio_trial":250,"smaller_num":"2","larger_num":"8","correct_side":2,"subjID":"mateoalexandervega19","gender":"0","age":"11","school":"6"},{"start_time":1551881489023,"click_time":1551881490030,"finger_time":1551881489471,"fix_duration":751.1579156249827,"trial":25,"RT":448,"MT":559,"sideResp":1,"stimulus":"img/500/equaldotsize/L/8_Ratio_500_L_8_R_4.png","xmouse":[796,796,796,796,796,796,796,796,796,796,796,795,794,794,793,791,787,786,786,784,784,783,772,758,736,714,679,661,644,618,593,553,548,548,548,548,544,538,533,530,529,524,515,509,502,495,486,484,482,481,481],"ymouse":[538,538,538,538,538,538,537,536,536,535,534,531,529,528,526,519,509,505,501,499,497,488,464,439,410,385,353,337,314,278,244,196,188,180,176,171,162,155,149,147,145,139,128,123,118,113,106,103,101,100,99],"timestamp_mouse":[8,27,47,67,87,107,128,148,168,187,208,227,247,267,287,308,327,347,368,387,408,427,448,467,488,507,528,547,567,587,607,627,647,667,688,707,728,747,767,787,807,827,849,867,888,908,927,947,967,987,1007],"xSR":741.5,"ySR":469.95,"xT1":424.9,"yT1":0,"xT2":1058.1,"yT2":0,"toosoon":0,"cond_shown":"equaldotsize","ratio_trial":500,"smaller_num":"4","larger_num":"8","correct_side":1,"subjID":"mateoalexandervega19","gender":"0","age":"11","school":"6"},{"start_time":1551881493274,"click_time":1551881494370,"finger_time":1551881493871,"fix_duration":483.3366008604788,"trial":26,"RT":597,"MT":499,"sideResp":2,"stimulus":"img/250/randomdotsizeEA/R/4_Ratio_250_L_3_R_12.png","xmouse":[805,805,805,805,805,805,805,805,805,805,805,805,805,805,805,805,805,805,804,801,800,799,798,797,797,797,797,797,799,813,826,836,843,844,846,850,859,880,955,982,1003,1017,1028,1037,1047,1051,1058,1061,1067,1067,1066,1064,1064,1068,1079],"ymouse":[527,527,527,527,527,527,527,527,527,527,527,527,527,527,527,527,527,527,526,514,507,503,499,497,494,493,491,490,482,452,433,412,396,365,345,323,300,270,220,208,202,197,192,188,184,182,177,174,158,147,134,125,118,109,97],"timestamp_mouse":[17,43,56,76,97,117,137,157,177,197,217,236,257,277,297,317,337,357,376,397,416,437,456,476,497,517,536,558,577,597,616,637,656,677,696,716,737,756,777,796,817,837,856,876,896,916,936,956,977,996,1016,1036,1056,1076,1096],"xSR":741.5,"ySR":469.95,"xT1":424.9,"yT1":0,"xT2":1058.1,"yT2":0,"toosoon":0,"cond_shown":"randomdotsizeEA","ratio_trial":250,"smaller_num":"3","larger_num":"12","correct_side":2,"subjID":"mateoalexandervega19","gender":"0","age":"11","school":"6"},{"start_time":1551881495722,"click_time":1551881496870,"finger_time":1551881496170,"fix_duration":551.3700738867051,"trial":27,"RT":448,"MT":700,"sideResp":2,"stimulus":"img/750/equaldotanddens/R/4_Ratio_750_L_15_R_20.png","xmouse":[768,768,768,768,768,768,768,768,768,768,768,768,768,768,768,769,769,769,769,769,774,781,798,804,807,813,816,820,820,820,820,820,817,816,813,811,811,820,831,844,865,894,977,1021,1050,1059,1063,1064,1065,1065,1065,1065,1065,1065,1067,1069,1072,1085],"ymouse":[539,539,539,539,539,539,539,539,539,539,539,539,539,539,539,539,525,518,512,507,496,482,462,456,451,440,430,406,396,382,369,358,343,337,326,317,311,291,282,273,263,251,225,212,198,190,186,181,178,173,168,161,147,139,130,118,110,94],"timestamp_mouse":[8,29,60,68,89,108,128,149,169,188,209,228,248,269,289,308,330,348,368,388,408,429,448,469,489,509,528,548,568,589,609,628,648,668,688,709,728,748,768,788,809,829,848,868,888,908,930,949,968,989,1008,1029,1048,1068,1088,1109,1128,1148],"xSR":741.5,"ySR":469.95,"xT1":424.9,"yT1":0,"xT2":1058.1,"yT2":0,"toosoon":0,"cond_shown":"equaldotanddens","ratio_trial":750,"smaller_num":"15","larger_num":"20","correct_side":2,"subjID":"mateoalexandervega19","gender":"0","age":"11","school":"6"},{"start_time":1551881498460,"click_time":1551881499392,"finger_time":1551881498890,"fix_duration":868.3409562834327,"trial":28,"RT":430,"MT":502,"sideResp":2,"stimulus":"img/750/equaldotsize/R/4_Ratio_750_L_15_R_20.png","xmouse":[823,822,822,822,822,822,822,822,822,822,822,822,822,822,822,821,820,818,817,815,815,816,825,848,881,901,907,913,920,932,963,973,980,986,990,997,999,1004,1016,1028,1044,1046,1048,1048,1050,1053,1060],"ymouse":[506,507,507,507,507,507,507,507,507,507,507,507,507,507,507,507,505,498,491,487,476,466,442,391,332,283,257,235,216,193,147,130,117,103,95,87,85,85,85,85,85,85,84,84,83,80,77],"timestamp_mouse":[11,30,58,72,91,110,130,152,171,190,211,230,251,270,290,311,330,350,370,390,410,430,450,470,490,510,531,550,570,590,610,630,650,670,690,710,731,750,770,790,810,830,850,870,890,910,932],"xSR":741.5,"ySR":469.95,"xT1":424.9,"yT1":0,"xT2":1058.1,"yT2":0,"toosoon":0,"cond_shown":"equaldotsize","ratio_trial":750,"smaller_num":"15","larger_num":"20","correct_side":2,"subjID":"mateoalexandervega19","gender":"0","age":"11","school":"6"},{"start_time":1551881501470,"click_time":1551881502450,"finger_time":1551881501911,"fix_duration":1438.841029751532,"trial":29,"RT":441,"MT":539,"sideResp":1,"stimulus":"img/900/equaldotsize/L/10_Ratio_900_L_20_R_18.png","xmouse":[802,802,802,802,802,802,802,802,802,802,802,802,802,802,802,802,802,802,802,802,802,802,802,801,801,797,788,783,779,775,754,737,711,693,680,676,671,665,659,650,629,618,606,597,593,582,557,538,516,495],"ymouse":[511,511,511,511,511,511,511,511,511,511,511,511,511,511,511,511,511,511,507,501,493,475,466,455,439,414,384,373,365,358,333,313,283,254,207,156,140,134,132,127,120,116,113,109,108,108,106,103,101,98],"timestamp_mouse":[8,20,40,60,80,100,121,141,160,180,200,220,240,260,280,301,321,340,361,380,400,420,441,460,480,500,520,541,560,580,601,620,640,660,680,700,721,740,761,781,801,820,840,860,880,901,920,940,961,980],"xSR":741.5,"ySR":469.95,"xT1":424.9,"yT1":0,"xT2":1058.1,"yT2":0,"toosoon":0,"cond_shown":"equaldotsize","ratio_trial":900,"smaller_num":"18","larger_num":"20","correct_side":1,"subjID":"mateoalexandervega19","gender":"0","age":"11","school":"6"},{"start_time":1551881503801,"click_time":1551881504931,"finger_time":1551881504551,"fix_duration":569.5821050562733,"trial":30,"RT":750,"MT":380,"sideResp":2,"stimulus":"img/750/equaldotanddens/R/2_Ratio_750_L_6_R_8.png","xmouse":[795,795,795,795,795,795,795,795,795,795,795,795,795,795,795,795,795,795,795,795,795,796,798,800,805,811,813,813,814,815,816,816,816,815,815,815,820,856,895,973,987,992,994,999,1002,1010,1020,1022,1024,1028,1029,1030,1030,1036,1062,1079,1096],"ymouse":[530,530,530,530,530,530,530,530,530,530,530,530,530,530,530,530,530,530,530,530,530,529,523,520,517,516,516,516,515,506,500,493,486,485,485,484,476,446,406,318,300,292,288,271,251,230,205,190,176,155,149,148,146,138,117,108,96],"timestamp_mouse":[9,34,50,69,90,109,130,149,170,189,210,229,251,269,290,309,329,349,369,389,409,430,449,469,489,510,529,549,569,591,609,629,649,669,689,709,729,750,770,789,809,829,849,871,889,910,929,950,969,989,1009,1029,1050,1070,1089,1110,1129],"xSR":741.5,"ySR":469.95,"xT1":424.9,"yT1":0,"xT2":1058.1,"yT2":0,"toosoon":0,"cond_shown":"equaldotanddens","ratio_trial":750,"smaller_num":"6","larger_num":"8","correct_side":2,"subjID":"mateoalexandervega19","gender":"0","age":"11","school":"6"},{"start_time":1551881506100,"click_time":1551881506891,"finger_time":1551881506630,"fix_duration":369.6993596167112,"trial":31,"RT":530,"MT":261,"sideResp":1,"stimulus":"img/750/equaldotsize/L/6_Ratio_750_L_24_R_18.png","xmouse":[810,810,810,810,810,810,810,810,810,810,810,810,810,810,810,810,810,810,810,810,810,810,808,805,787,774,758,742,720,663,621,598,578,564,550,546,542,538,528,471],"ymouse":[515,515,515,515,515,515,515,515,515,515,515,515,515,515,515,515,515,515,515,515,515,515,515,513,496,482,465,446,420,326,230,176,137,114,77,66,58,51,40,5],"timestamp_mouse":[11,37,50,71,90,110,149,150,170,190,211,230,250,270,291,311,330,350,370,391,411,431,451,470,490,510,530,551,570,590,611,630,651,670,690,710,730,750,770,791],"xSR":741.5,"ySR":469.95,"xT1":424.9,"yT1":0,"xT2":1058.1,"yT2":0,"toosoon":0,"cond_shown":"equaldotsize","ratio_trial":750,"smaller_num":"18","larger_num":"24","correct_side":1,"subjID":"mateoalexandervega19","gender":"0","age":"11","school":"6"},{"start_time":1551881511301,"click_time":1551881512272,"finger_time":1551881511711,"fix_duration":1449.4016725932001,"trial":32,"RT":410,"MT":561,"sideResp":1,"stimulus":"img/750/equaldotanddens/L/1_Ratio_750_L_20_R_15.png","xmouse":[803,803,803,803,803,803,803,803,803,803,803,803,803,803,803,803,803,803,803,801,789,779,764,740,682,667,655,647,638,620,608,607,606,604,601,600,600,598,593,578,541,522,509,506,505,501,500,500,498],"ymouse":[536,536,536,536,536,536,536,536,536,536,536,536,530,524,518,515,512,507,498,479,441,418,388,346,259,240,224,211,199,180,165,157,150,146,138,137,137,136,133,126,116,110,106,105,103,101,101,100,99],"timestamp_mouse":[10,40,49,69,89,109,129,149,169,191,209,229,249,269,291,309,329,349,369,390,410,429,450,469,490,509,529,550,569,589,610,630,650,669,690,709,730,749,769,789,809,829,850,869,889,909,929,949,971],"xSR":741.5,"ySR":469.95,"xT1":424.9,"yT1":0,"xT2":1058.1,"yT2":0,"toosoon":0,"cond_shown":"equaldotanddens","ratio_trial":750,"smaller_num":"15","larger_num":"20","correct_side":1,"subjID":"mateoalexandervega19","gender":"0","age":"11","school":"6"},{"start_time":1551881514994,"click_time":1551881515990,"finger_time":1551881515431,"fix_duration":642.6958201251143,"trial":33,"RT":437,"MT":559,"sideResp":1,"stimulus":"img/900/randomdotsizeEA/L/10_Ratio_900_L_20_R_18.png","xmouse":[763,763,763,763,765,765,765,765,765,765,765,765,765,765,765,766,768,772,775,778,779,778,777,777,777,774,772,767,761,750,715,693,663,645,632,625,625,626,630,633,628,611,602,595,588,567,545,514,486,465],"ymouse":[527,527,527,526,525,525,525,525,525,525,525,525,525,525,525,525,520,509,499,489,475,469,467,465,463,458,456,453,447,440,409,390,360,342,326,309,302,293,280,263,227,203,192,184,177,161,143,120,100,87],"timestamp_mouse":[16,47,56,77,96,117,136,156,176,196,217,236,257,276,296,317,336,356,376,396,416,437,456,477,496,516,536,557,576,596,616,636,656,677,696,717,736,756,776,796,816,837,856,876,896,916,937,956,977,996],"xSR":741.5,"ySR":469.95,"xT1":424.9,"yT1":0,"xT2":1058.1,"yT2":0,"toosoon":0,"cond_shown":"randomdotsizeEA","ratio_trial":900,"smaller_num":"18","larger_num":"20","correct_side":1,"subjID":"mateoalexandervega19","gender":"0","age":"11","school":"6"},{"start_time":1551881517192,"click_time":1551881518011,"finger_time":1551881517631,"fix_duration":501.4545621519556,"trial":34,"RT":439,"MT":380,"sideResp":2,"stimulus":"img/900/randomdotsizeEA/L/8_Ratio_900_L_20_R_18.png","xmouse":[796,796,796,796,796,796,796,796,796,796,795,795,795,795,794,793,793,793,792,790,750,725,712,707,707,707,709,720,750,796,925,957,976,996,1020,1072,1089,1101,1108,1115,1132],"ymouse":[512,512,512,512,512,512,512,512,512,512,514,514,514,514,514,515,515,515,515,515,470,432,410,397,393,392,391,388,381,367,334,323,311,290,254,193,174,159,143,125,78],"timestamp_mouse":[35,39,58,78,98,118,138,158,179,198,219,238,258,278,298,318,338,359,379,398,418,439,458,478,498,520,538,558,579,598,618,638,658,678,699,719,738,758,778,799,819],"xSR":741.5,"ySR":469.95,"xT1":424.9,"yT1":0,"xT2":1058.1,"yT2":0,"toosoon":0,"cond_shown":"randomdotsizeEA","ratio_trial":900,"smaller_num":"18","larger_num":"20","correct_side":1,"subjID":"mateoalexandervega19","gender":"0","age":"11","school":"6"},{"start_time":1551881519385,"click_time":1551881520170,"finger_time":1551881519890,"fix_duration":254.35657658690835,"trial":35,"RT":505,"MT":280,"sideResp":1,"stimulus":"img/500/randomdotsizeEA/L/4_Ratio_500_L_18_R_9.png","xmouse":[778,780,783,784,784,784,784,784,784,784,784,784,784,784,785,785,785,784,784,784,783,781,775,768,756,742,726,698,676,639,571,537,525,512,504,495,489,467,450,437],"ymouse":[534,534,534,534,534,534,534,534,534,534,534,534,534,534,533,533,530,529,528,526,525,519,507,495,479,463,443,405,377,332,250,202,186,167,153,138,130,111,104,96],"timestamp_mouse":[5,25,45,65,86,105,126,146,165,185,206,225,246,265,286,306,326,345,365,386,406,426,446,465,486,505,525,546,566,585,605,626,645,665,685,706,725,745,765,785],"xSR":741.5,"ySR":469.95,"xT1":424.9,"yT1":0,"xT2":1058.1,"yT2":0,"toosoon":0,"cond_shown":"randomdotsizeEA","ratio_trial":500,"smaller_num":"9","larger_num":"18","correct_side":1,"subjID":"mateoalexandervega19","gender":"0","age":"11","school":"6"},{"start_time":1551881521756,"click_time":1551881523111,"finger_time":1551881522431,"fix_duration":724.8097695229244,"trial":36,"RT":675,"MT":680,"sideResp":2,"stimulus":"img/900/equaldotanddens/R/6_Ratio_900_L_9_R_10.png","xmouse":[800,800,800,800,800,800,800,800,800,799,798,798,798,795,793,791,790,788,786,786,785,785,784,783,783,783,783,783,783,778,775,771,769,763,759,754,749,747,744,744,748,755,766,809,835,868,901,928,961,967,973,984,1007,1029,1031,1031,1031,1031,1031,1032,1036,1037,1038,1041,1048,1054,1057,1060],"ymouse":[528,528,528,528,528,528,528,528,528,528,528,528,528,528,527,527,527,527,526,526,526,526,525,524,523,522,521,520,516,501,488,479,473,458,451,440,426,411,381,374,372,371,371,367,362,349,327,302,277,272,264,245,219,192,186,183,181,178,161,150,137,132,129,118,103,91,83,79],"timestamp_mouse":[14,34,55,74,94,115,134,155,174,194,214,234,254,275,294,315,334,354,374,394,414,434,455,474,494,514,534,554,574,594,614,635,654,675,694,715,736,755,774,794,814,834,854,874,895,914,934,954,974,994,1014,1034,1055,1074,1095,1114,1136,1154,1174,1195,1214,1234,1254,1275,1294,1315,1334,1355],"xSR":741.5,"ySR":469.95,"xT1":424.9,"yT1":0,"xT2":1058.1,"yT2":0,"toosoon":0,"cond_shown":"equaldotanddens","ratio_trial":900,"smaller_num":"9","larger_num":"10","correct_side":2,"subjID":"mateoalexandervega19","gender":"0","age":"11","school":"6"},{"start_time":1551881525773,"click_time":1551881527011,"finger_time":1551881526250,"fix_duration":380.9209379448243,"trial":37,"RT":477,"MT":761,"sideResp":1,"stimulus":"img/750/randomdotsizeEA/R/4_Ratio_750_L_15_R_20.png","xmouse":[801,801,801,801,801,801,801,801,801,801,801,801,801,801,801,801,801,801,801,800,795,790,779,768,755,737,706,626,605,591,585,583,579,573,569,565,561,555,552,548,542,535,526,523,522,522,522,522,522,522,522,522,522,522,522,522,522,521,520,518,515,513],"ymouse":[526,526,526,526,526,526,526,526,526,526,526,526,526,526,526,526,526,526,526,520,509,498,475,457,438,414,384,316,298,285,277,273,263,257,250,242,233,207,187,171,155,138,115,109,106,106,106,106,106,106,106,106,106,106,106,106,106,106,105,103,100,96],"timestamp_mouse":[18,51,59,77,97,117,138,157,177,198,217,238,258,277,298,318,337,357,378,397,417,437,457,477,497,517,537,557,577,597,617,637,657,677,698,717,737,757,777,797,817,838,857,877,897,917,939,958,978,998,1017,1038,1058,1078,1097,1117,1138,1157,1177,1197,1218,1238],"xSR":741.5,"ySR":469.95,"xT1":424.9,"yT1":0,"xT2":1058.1,"yT2":0,"toosoon":0,"cond_shown":"randomdotsizeEA","ratio_trial":750,"smaller_num":"15","larger_num":"20","correct_side":2,"subjID":"mateoalexandervega19","gender":"0","age":"11","school":"6"},{"start_time":1551881530427,"click_time":1551881531249,"finger_time":1551881530950,"fix_duration":1015.7131810544753,"trial":38,"RT":523,"MT":299,"sideResp":1,"stimulus":"img/900/randomdotsizeEA/L/2_Ratio_900_L_20_R_18.png","xmouse":[791,791,791,791,791,791,791,791,791,791,791,791,791,792,792,792,794,795,795,795,795,795,795,795,795,795,790,785,773,758,738,697,672,653,624,602,579,569,553,530,502,473],"ymouse":[526,526,526,526,526,526,526,526,526,526,526,526,526,526,526,526,526,524,522,518,513,493,485,476,474,472,464,456,440,420,396,360,335,314,282,253,216,200,178,151,125,95],"timestamp_mouse":[9,38,43,62,83,104,122,144,162,182,204,222,244,263,282,302,322,342,362,383,404,422,442,463,484,502,523,542,563,583,603,622,643,663,683,702,722,743,762,783,804,822],"xSR":741.5,"ySR":469.95,"xT1":424.9,"yT1":0,"xT2":1058.1,"yT2":0,"toosoon":0,"cond_shown":"randomdotsizeEA","ratio_trial":900,"smaller_num":"18","larger_num":"20","correct_side":1,"subjID":"mateoalexandervega19","gender":"0","age":"11","school":"6"},{"start_time":1551881534486,"click_time":1551881535749,"finger_time":1551881534969,"fix_duration":395.4215757740122,"trial":39,"RT":483,"MT":780,"sideResp":1,"stimulus":"img/750/randomdotsizeEA/R/4_Ratio_750_L_15_R_20.png","xmouse":[802,802,802,802,802,802,802,802,802,802,802,802,802,802,802,802,802,802,797,791,783,779,778,772,769,764,755,736,680,660,640,617,594,579,561,555,551,549,548,542,538,531,524,514,507,500,493,486,484,484,484,484,484,484,484,484,484,484,484,484,484,484,484,490],"ymouse":[534,534,534,534,534,534,534,534,534,534,534,534,534,534,534,534,534,534,522,510,497,488,484,473,468,462,455,442,406,390,373,353,332,310,276,264,258,254,250,226,215,203,191,168,153,140,127,119,116,116,116,116,116,116,113,112,110,110,110,110,110,110,109,96],"timestamp_mouse":[10,31,44,63,84,104,124,144,165,183,204,225,244,263,283,303,324,344,363,383,403,424,444,463,483,503,523,544,564,583,603,625,644,664,683,704,725,743,763,784,803,824,844,864,883,904,923,943,964,984,1004,1023,1043,1064,1083,1104,1124,1143,1164,1184,1204,1225,1244,1263],"xSR":741.5,"ySR":469.95,"xT1":424.9,"yT1":0,"xT2":1058.1,"yT2":0,"toosoon":0,"cond_shown":"randomdotsizeEA","ratio_trial":750,"smaller_num":"15","larger_num":"20","correct_side":2,"subjID":"mateoalexandervega19","gender":"0","age":"11","school":"6"},{"start_time":1551881539543,"click_time":1551881540530,"finger_time":1551881540130,"fix_duration":1290.1919716556274,"trial":40,"RT":587,"MT":400,"sideResp":1,"stimulus":"img/500/randomdotsizeEA/R/14_Ratio_500_L_5_R_10.png","xmouse":[798,798,798,798,798,798,798,798,798,798,798,798,798,798,798,798,798,798,798,798,797,794,793,789,787,786,783,779,774,765,753,723,701,624,561,507,438,416,406,398,395,393,391,389,388,388,402,415,420,426],"ymouse":[540,540,540,540,540,540,540,540,540,540,540,540,540,540,540,540,540,540,538,537,532,520,514,505,499,495,487,480,470,453,433,397,375,322,277,244,202,184,171,155,145,135,132,127,124,121,108,102,100,97],"timestamp_mouse":[9,41,46,66,87,107,127,148,167,186,208,226,246,268,286,307,328,347,366,386,407,427,447,466,488,506,527,547,567,587,607,626,646,667,687,706,727,747,767,786,806,826,846,867,888,907,927,948,968,987],"xSR":741.5,"ySR":469.95,"xT1":424.9,"yT1":0,"xT2":1058.1,"yT2":0,"toosoon":0,"cond_shown":"randomdotsizeEA","ratio_trial":500,"smaller_num":"5","larger_num":"10","correct_side":2,"subjID":"mateoalexandervega19","gender":"0","age":"11","school":"6"},{"start_time":1551881541520,"click_time":1551881542609,"finger_time":1551881542290,"fix_duration":250,"trial":41,"RT":770,"MT":319,"sideResp":1,"stimulus":"img/250/randomdotsizeEA/L/14_Ratio_250_L_12_R_3.png","xmouse":[792,792,790,788,788,788,788,788,788,788,788,788,788,788,788,788,788,788,788,788,788,790,795,795,795,795,794,792,790,789,789,789,789,789,789,788,781,748,683,607,536,493,467,453,433,413,395,385,384,384,384,385,394,421,441],"ymouse":[529,529,530,530,530,530,530,530,530,530,530,530,530,530,530,530,530,530,530,530,530,529,520,520,520,520,521,524,526,526,527,527,527,527,527,528,526,493,423,348,281,235,178,134,104,80,66,56,49,48,47,46,46,54,65],"timestamp_mouse":[10,29,51,71,89,109,131,149,169,190,210,229,249,271,289,309,331,350,369,391,409,429,449,469,490,509,530,550,569,590,610,629,650,670,690,711,730,750,770,789,810,829,849,870,890,911,930,950,969,990,1011,1030,1050,1070,1089],"xSR":741.5,"ySR":469.95,"xT1":424.9,"yT1":0,"xT2":1058.1,"yT2":0,"toosoon":0,"cond_shown":"randomdotsizeEA","ratio_trial":250,"smaller_num":"3","larger_num":"12","correct_side":1,"subjID":"mateoalexandervega19","gender":"0","age":"11","school":"6"},{"start_time":1551881544849,"click_time":1551881546010,"finger_time":1551881545270,"fix_duration":1258.5833110834835,"trial":42,"RT":421,"MT":740,"sideResp":2,"stimulus":"img/900/equaldotanddens/R/11_Ratio_900_L_18_R_20.png","xmouse":[785,785,785,793,796,800,804,804,804,804,804,804,804,805,806,808,810,815,820,831,840,853,857,863,870,877,895,902,908,917,924,930,932,937,945,949,961,972,981,994,1008,1013,1014,1019,1023,1027,1030,1031,1031,1031,1033,1036,1045,1050,1051,1053,1056,1058,1060],"ymouse":[512,512,512,512,512,512,511,511,511,511,511,511,511,510,510,503,500,496,493,488,485,480,478,476,474,469,452,442,426,406,387,348,320,291,259,252,231,215,207,197,186,166,156,147,139,130,115,109,104,100,96,90,76,71,70,68,65,63,63],"timestamp_mouse":[8,20,40,60,80,101,121,140,160,181,202,220,242,261,280,300,320,341,360,381,400,421,440,461,480,502,521,540,560,581,600,621,640,660,681,702,720,740,760,780,800,822,840,861,881,901,921,940,960,981,1001,1021,1041,1060,1080,1100,1121,1140,1161],"xSR":741.5,"ySR":469.95,"xT1":424.9,"yT1":0,"xT2":1058.1,"yT2":0,"toosoon":0,"cond_shown":"equaldotanddens","ratio_trial":900,"smaller_num":"18","larger_num":"20","correct_side":2,"subjID":"mateoalexandervega19","gender":"0","age":"11","school":"6"},{"start_time":1551881547249,"click_time":1551881548190,"finger_time":1551881547871,"fix_duration":457.8310116612032,"trial":43,"RT":622,"MT":319,"sideResp":1,"stimulus":"img/900/equaldotsize/R/11_Ratio_900_L_18_R_20.png","xmouse":[809,809,809,809,809,809,809,809,809,809,809,809,809,809,809,809,809,809,809,809,809,809,809,809,809,810,810,810,810,810,808,798,785,748,736,700,693,683,673,653,629,609,597,594,590,572,551,517],"ymouse":[516,516,516,516,516,516,516,516,516,516,516,516,516,516,516,516,516,516,516,516,516,516,516,516,513,507,502,495,492,487,483,466,448,412,401,364,349,318,292,255,219,191,160,152,141,115,94,68],"timestamp_mouse":[3,21,41,60,81,101,121,142,161,181,201,221,240,260,281,300,320,341,362,381,402,420,441,462,480,501,520,541,561,581,600,622,640,660,681,701,721,741,760,780,800,820,841,861,880,900,920,941],"xSR":741.5,"ySR":469.95,"xT1":424.9,"yT1":0,"xT2":1058.1,"yT2":0,"toosoon":0,"cond_shown":"equaldotsize","ratio_trial":900,"smaller_num":"18","larger_num":"20","correct_side":2,"subjID":"mateoalexandervega19","gender":"0","age":"11","school":"6"},{"start_time":1551881549592,"click_time":1551881550570,"finger_time":1551881550189,"fix_duration":681.5821989916052,"trial":44,"RT":597,"MT":381,"sideResp":1,"stimulus":"img/250/randomdotsizeEA/L/5_Ratio_250_L_24_R_6.png","xmouse":[796,796,796,796,796,796,796,796,796,796,796,796,796,796,796,796,796,796,796,796,796,796,796,794,793,793,792,792,789,759,730,701,675,658,627,617,612,606,595,579,579,579,579,579,579,579,579,579,511],"ymouse":[535,535,535,535,535,535,535,535,535,535,535,535,535,535,535,535,535,535,535,535,535,535,535,533,532,532,531,531,522,454,387,309,247,195,111,74,57,43,27,7,7,7,7,7,7,7,7,7,4],"timestamp_mouse":[19,40,57,78,99,118,137,159,177,197,217,238,257,278,298,318,339,358,377,399,418,437,458,478,498,517,539,558,578,597,617,639,657,678,697,718,737,758,778,798,819,839,858,879,899,918,937,957,978],"xSR":741.5,"ySR":469.95,"xT1":424.9,"yT1":0,"xT2":1058.1,"yT2":0,"toosoon":0,"cond_shown":"randomdotsizeEA","ratio_trial":250,"smaller_num":"6","larger_num":"24","correct_side":1,"subjID":"mateoalexandervega19","gender":"0","age":"11","school":"6"},{"start_time":1551881553242,"click_time":1551881553969,"finger_time":1551881553769,"fix_duration":250,"trial":45,"RT":527,"MT":200,"sideResp":1,"stimulus":"img/250/equaldotsize/L/3_Ratio_250_L_8_R_2.png","xmouse":[788,788,788,788,788,788,788,788,788,788,788,788,788,788,788,788,788,788,788,788,788,788,788,784,777,763,724,600,556,545,541,541,534,520,499,474,451],"ymouse":[549,549,549,549,549,549,549,549,549,549,549,549,549,549,549,549,549,549,549,549,548,547,535,526,512,488,433,290,241,225,219,218,198,172,138,106,79],"timestamp_mouse":[9,33,48,67,88,109,129,147,168,187,209,227,248,268,289,307,327,348,368,387,407,427,448,468,487,508,527,549,567,588,609,628,648,667,687,708,727],"xSR":741.5,"ySR":469.95,"xT1":424.9,"yT1":0,"xT2":1058.1,"yT2":0,"toosoon":0,"cond_shown":"equaldotsize","ratio_trial":250,"smaller_num":"2","larger_num":"8","correct_side":1,"subjID":"mateoalexandervega19","gender":"0","age":"11","school":"6"},{"start_time":1551881555221,"click_time":1551881556510,"finger_time":1551881555649,"fix_duration":250,"trial":46,"RT":428,"MT":861,"sideResp":1,"stimulus":"img/500/equaldotanddens/L/5_Ratio_500_L_4_R_2.png","xmouse":[773,773,773,773,773,773,773,773,773,773,773,773,773,773,773,773,773,773,773,773,772,761,737,721,704,704,704,704,702,701,699,697,692,685,663,650,639,629,619,586,564,560,558,558,558,563,578,597,619,642,648,651,659,676,692,701,706,708,709,709,709,703,677,639,518],"ymouse":[489,489,489,489,489,489,489,489,489,489,489,489,489,489,489,489,489,489,489,487,480,460,426,406,383,383,383,383,378,370,362,357,347,335,296,275,260,249,238,206,184,180,177,177,177,178,193,215,235,251,251,251,251,247,240,236,233,232,230,230,227,218,193,164,61],"timestamp_mouse":[9,43,49,69,89,108,128,150,169,189,210,228,248,269,288,308,329,348,370,389,408,428,449,469,490,508,528,548,569,588,609,629,649,668,688,709,729,748,768,788,808,829,848,870,888,908,930,948,968,988,1008,1029,1049,1070,1089,1108,1129,1148,1170,1190,1209,1229,1248,1268,1289],"xSR":741.5,"ySR":469.95,"xT1":424.9,"yT1":0,"xT2":1058.1,"yT2":0,"toosoon":0,"cond_shown":"equaldotanddens","ratio_trial":500,"smaller_num":"2","larger_num":"4","correct_side":1,"subjID":"mateoalexandervega19","gender":"0","age":"11","school":"6"},{"start_time":1551881558856,"click_time":1551881559830,"finger_time":1551881559271,"fix_duration":1384.2842775743773,"trial":47,"RT":415,"MT":559,"sideResp":2,"stimulus":"img/750/randomdotsizeEA/R/12_Ratio_750_L_3_R_4.png","xmouse":[792,793,793,794,795,796,797,800,801,803,804,805,812,815,817,818,819,820,817,809,808,806,803,802,801,800,800,800,802,806,809,813,829,844,871,911,959,1050,1064,1079,1087,1095,1118,1113,1105,1103,1110,1136,1146],"ymouse":[537,537,537,535,535,535,534,531,530,529,529,528,525,523,521,520,519,509,485,470,466,462,454,450,446,441,437,433,432,432,432,431,431,427,416,398,380,359,353,344,333,313,237,196,161,141,126,101,90],"timestamp_mouse":[17,33,54,73,95,113,133,154,173,193,214,233,254,274,293,314,334,353,375,393,415,433,454,473,494,514,534,553,573,594,613,633,654,673,694,714,733,753,773,793,814,835,854,873,893,913,934,953,974],"xSR":741.5,"ySR":469.95,"xT1":424.9,"yT1":0,"xT2":1058.1,"yT2":0,"toosoon":0,"cond_shown":"randomdotsizeEA","ratio_trial":750,"smaller_num":"3","larger_num":"4","correct_side":2,"subjID":"mateoalexandervega19","gender":"0","age":"11","school":"6"},{"start_time":1551881561264,"click_time":1551881562110,"finger_time":1551881561730,"fix_duration":533.4424820105376,"trial":48,"RT":466,"MT":380,"sideResp":1,"stimulus":"img/250/randomdotsizeEA/R/8_Ratio_250_L_1_R_4.png","xmouse":[813,813,813,813,813,813,813,813,813,813,813,813,813,813,813,813,813,813,813,813,813,809,800,793,782,772,761,736,724,710,692,677,651,638,623,607,585,566,559,555,547,533,475],"ymouse":[519,519,519,519,519,519,519,519,519,519,519,519,519,519,519,519,519,519,519,519,519,509,483,464,447,430,414,379,365,349,327,311,284,271,258,249,235,219,210,202,188,166,90],"timestamp_mouse":[9,36,45,65,85,107,126,146,166,186,207,227,245,266,287,305,326,345,365,385,407,425,445,466,486,505,526,545,565,585,605,625,645,665,685,706,726,746,765,786,805,826,846],"xSR":741.5,"ySR":469.95,"xT1":424.9,"yT1":0,"xT2":1058.1,"yT2":0,"toosoon":0,"cond_shown":"randomdotsizeEA","ratio_trial":250,"smaller_num":"1","larger_num":"4","correct_side":2,"subjID":"mateoalexandervega19","gender":"0","age":"11","school":"6"},{"start_time":1551881563629,"click_time":1551881564750,"finger_time":1551881564290,"fix_duration":597.1982758245391,"trial":49,"RT":661,"MT":460,"sideResp":1,"stimulus":"img/900/randomdotsizeEA/L/10_Ratio_900_L_20_R_18.png","xmouse":[796,796,796,796,796,796,796,796,796,796,796,796,796,796,796,796,796,798,803,806,807,807,807,807,809,811,812,812,812,812,812,811,808,805,800,773,756,735,692,616,571,537,520,514,513,513,513,513,513,513,513,513,513,513,513,513,505],"ymouse":[522,522,522,522,522,522,522,522,522,522,522,522,522,522,522,522,522,515,508,502,502,502,502,499,496,492,491,491,491,489,480,476,472,468,462,428,409,387,342,253,199,159,137,128,127,127,127,126,125,124,123,123,123,123,120,108,90],"timestamp_mouse":[8,31,41,61,80,100,121,141,162,180,201,222,240,261,282,301,322,341,361,381,401,420,441,461,481,500,520,540,561,580,601,620,642,661,681,700,720,741,762,782,800,820,841,861,880,900,920,940,962,981,1000,1020,1040,1060,1082,1101,1121],"xSR":741.5,"ySR":469.95,"xT1":424.9,"yT1":0,"xT2":1058.1,"yT2":0,"toosoon":0,"cond_shown":"randomdotsizeEA","ratio_trial":900,"smaller_num":"18","larger_num":"20","correct_side":1,"subjID":"mateoalexandervega19","gender":"0","age":"11","school":"6"},{"start_time":1551881565802,"click_time":1551881566910,"finger_time":1551881566370,"fix_duration":250,"trial":50,"RT":568,"MT":540,"sideResp":2,"stimulus":"img/500/equaldotsize/R/3_Ratio_500_L_10_R_20.png","xmouse":[774,774,774,774,774,774,774,774,774,774,774,774,774,774,774,774,778,779,780,780,778,777,777,782,791,798,816,835,868,887,899,914,923,929,937,948,988,1004,1027,1039,1050,1058,1058,1059,1061,1062,1065,1066,1072,1075,1078,1081,1082,1084,1086,1088],"ymouse":[506,506,506,506,506,506,506,506,506,506,506,506,506,506,506,506,505,505,505,505,505,505,505,501,497,493,483,472,453,441,431,394,362,323,295,269,215,201,189,182,174,170,170,169,168,168,166,165,159,151,141,124,117,111,105,99],"timestamp_mouse":[8,29,47,68,87,107,127,147,167,187,208,228,248,269,287,308,327,347,369,388,407,429,448,467,488,509,527,549,568,587,607,627,647,668,687,707,727,748,767,788,808,827,848,868,888,909,928,949,968,987,1008,1027,1047,1067,1087,1108],"xSR":741.5,"ySR":469.95,"xT1":424.9,"yT1":0,"xT2":1058.1,"yT2":0,"toosoon":0,"cond_shown":"equaldotsize","ratio_trial":500,"smaller_num":"10","larger_num":"20","correct_side":2,"subjID":"mateoalexandervega19","gender":"0","age":"11","school":"6"},{"start_time":1551881569514,"click_time":1551881570170,"finger_time":1551881569830,"fix_duration":363.79664305415594,"trial":51,"RT":316,"MT":340,"sideResp":1,"stimulus":"img/250/equaldotanddens/L/2_Ratio_250_L_16_R_4.png","xmouse":[749,749,749,749,749,749,749,749,749,749,749,749,749,746,743,732,730,730,730,730,724,718,712,705,692,635,604,584,570,556,520,511,504],"ymouse":[535,535,535,535,535,535,535,535,535,535,535,535,535,532,527,508,506,506,505,501,476,459,445,428,403,305,254,217,190,166,116,103,94],"timestamp_mouse":[16,36,56,76,95,115,135,157,176,195,216,236,256,276,295,316,337,356,376,395,415,435,455,476,495,515,535,556,575,596,615,635,656],"xSR":741.5,"ySR":469.95,"xT1":424.9,"yT1":0,"xT2":1058.1,"yT2":0,"toosoon":0,"cond_shown":"equaldotanddens","ratio_trial":250,"smaller_num":"4","larger_num":"16","correct_side":1,"subjID":"mateoalexandervega19","gender":"0","age":"11","school":"6"},{"start_time":1551881572186,"click_time":1551881573509,"finger_time":1551881572930,"fix_duration":1235.433291451829,"trial":52,"RT":744,"MT":579,"sideResp":1,"stimulus":"img/750/randomdotsizeEA/R/15_Ratio_750_L_9_R_12.png","xmouse":[780,780,780,780,780,780,780,781,781,781,781,781,781,781,781,781,781,781,781,781,781,781,781,781,781,781,781,781,781,781,781,782,783,786,788,789,789,788,774,771,769,761,748,694,673,659,643,637,628,625,621,613,591,584,583,582,580,574,550,543,541,540,540,539,534,532,524],"ymouse":[489,489,489,489,489,489,489,489,489,489,489,489,489,489,489,489,489,489,489,489,489,489,489,489,489,489,489,489,489,489,489,489,489,489,488,482,471,459,430,422,412,395,374,295,264,244,222,215,204,199,191,179,151,143,139,138,135,128,98,90,87,87,87,86,85,83,80],"timestamp_mouse":[8,24,60,63,83,105,124,144,165,185,205,223,243,265,283,303,324,344,363,384,405,424,444,465,483,504,523,544,565,584,603,624,644,664,684,703,724,744,764,784,803,823,843,863,883,904,925,944,965,983,1003,1023,1044,1064,1085,1105,1124,1143,1163,1184,1204,1224,1243,1263,1283,1303,1323],"xSR":741.5,"ySR":469.95,"xT1":424.9,"yT1":0,"xT2":1058.1,"yT2":0,"toosoon":0,"cond_shown":"randomdotsizeEA","ratio_trial":750,"smaller_num":"9","larger_num":"12","correct_side":2,"subjID":"mateoalexandervega19","gender":"0","age":"11","school":"6"},{"start_time":1551881575806,"click_time":1551881577350,"finger_time":1551881576350,"fix_duration":1014.1028625860271,"trial":53,"RT":544,"MT":1000,"sideResp":2,"stimulus":"img/500/equaldotanddens/R/2_Ratio_500_L_3_R_6.png","xmouse":[800,800,800,800,800,799,798,798,798,798,798,798,798,798,798,798,798,798,798,798,798,798,803,814,822,828,833,844,857,870,883,895,948,984,996,1007,1015,1023,1024,1025,1026,1029,1038,1046,1052,1056,1060,1065,1068,1071,1075,1078,1085,1087,1088,1089,1089,1089,1089,1088,1088,1087,1080,1067,1060,1057,1057,1057,1057,1065,1074,1081,1087,1089,1092,1098,1103,1117],"ymouse":[521,521,521,521,523,525,526,526,527,527,527,527,527,527,527,527,527,527,527,526,525,523,516,503,495,487,482,471,462,449,437,419,348,294,273,257,242,226,223,221,220,217,206,192,182,171,162,152,148,145,139,134,120,111,108,106,106,106,106,105,105,105,109,121,128,131,132,132,133,130,125,119,111,110,107,104,100,82],"timestamp_mouse":[8,23,43,64,84,104,123,143,163,184,203,225,243,263,283,304,324,344,363,383,403,423,443,464,484,504,524,544,564,583,604,625,644,664,683,703,724,743,763,783,803,823,843,864,883,903,924,943,963,983,1003,1023,1043,1063,1084,1104,1123,1145,1164,1184,1204,1223,1243,1264,1284,1305,1324,1345,1363,1383,1403,1424,1444,1465,1483,1503,1523,1543],"xSR":741.5,"ySR":469.95,"xT1":424.9,"yT1":0,"xT2":1058.1,"yT2":0,"toosoon":0,"cond_shown":"equaldotanddens","ratio_trial":500,"smaller_num":"3","larger_num":"6","correct_side":2,"subjID":"mateoalexandervega19","gender":"0","age":"11","school":"6"},{"start_time":1551881580411,"click_time":1551881581229,"finger_time":1551881580769,"fix_duration":558.9766730593816,"trial":54,"RT":358,"MT":460,"sideResp":1,"stimulus":"img/250/equaldotanddens/L/1_Ratio_250_L_8_R_2.png","xmouse":[781,781,781,781,781,781,781,781,781,781,781,781,781,782,782,780,778,770,766,754,746,727,713,700,682,657,631,598,582,575,554,547,543,541,539,536,534,534,534,533,523],"ymouse":[525,525,525,525,525,525,525,525,525,525,525,525,525,524,515,500,486,458,443,409,392,359,339,322,298,269,239,191,164,156,131,124,120,118,114,110,107,107,105,105,95],"timestamp_mouse":[19,47,59,78,99,118,138,159,180,200,219,240,259,278,300,319,338,358,378,398,418,440,458,478,498,520,540,559,580,599,618,638,658,678,698,718,739,758,778,798,818],"xSR":741.5,"ySR":469.95,"xT1":424.9,"yT1":0,"xT2":1058.1,"yT2":0,"toosoon":0,"cond_shown":"equaldotanddens","ratio_trial":250,"smaller_num":"2","larger_num":"8","correct_side":1,"subjID":"mateoalexandervega19","gender":"0","age":"11","school":"6"},{"start_time":1551881582545,"click_time":1551881583429,"finger_time":1551881582870,"fix_duration":434.8663186623788,"trial":55,"RT":325,"MT":559,"sideResp":1,"stimulus":"img/500/equaldotanddens/L/13_Ratio_500_L_12_R_6.png","xmouse":[775,775,775,775,775,775,775,775,775,775,775,775,775,774,771,763,740,731,725,721,718,708,695,673,664,654,646,635,615,591,565,529,517,512,511,511,510,508,507,507,507,507,506,503,500],"ymouse":[494,494,494,494,494,494,494,494,494,494,494,494,494,494,494,483,455,441,431,424,418,400,380,355,344,329,320,301,274,242,213,168,151,142,142,142,135,129,124,124,122,117,112,102,91],"timestamp_mouse":[8,24,45,64,84,105,124,144,164,186,205,225,244,265,284,304,325,345,364,385,405,425,444,464,485,506,524,545,564,585,605,624,644,664,685,705,725,746,764,784,805,826,845,864,884],"xSR":741.5,"ySR":469.95,"xT1":424.9,"yT1":0,"xT2":1058.1,"yT2":0,"toosoon":0,"cond_shown":"equaldotanddens","ratio_trial":500,"smaller_num":"6","larger_num":"12","correct_side":1,"subjID":"mateoalexandervega19","gender":"0","age":"11","school":"6"},{"start_time":1551881584501,"click_time":1551881585470,"finger_time":1551881584831,"fix_duration":410.86959697348203,"trial":56,"RT":330,"MT":639,"sideResp":2,"stimulus":"img/900/equaldotsize/R/7_Ratio_900_L_9_R_10.png","xmouse":[785,785,785,785,785,785,785,785,785,785,785,784,782,775,768,758,751,747,746,746,746,752,768,811,819,822,823,827,852,878,892,904,914,935,959,974,987,1001,1024,1032,1037,1041,1044,1048,1050,1050,1051,1053,1059],"ymouse":[500,500,500,500,500,500,500,500,500,500,500,500,500,495,487,474,467,464,464,464,463,459,456,445,439,436,430,422,379,345,325,310,298,264,230,212,202,191,170,159,151,146,139,129,125,119,113,105,89],"timestamp_mouse":[8,34,48,68,89,108,129,149,169,189,209,228,248,268,289,309,330,348,369,388,408,429,449,469,488,508,528,548,568,588,609,628,648,669,688,709,729,748,768,789,810,829,849,868,888,909,929,949,969],"xSR":741.5,"ySR":469.95,"xT1":424.9,"yT1":0,"xT2":1058.1,"yT2":0,"toosoon":0,"cond_shown":"equaldotsize","ratio_trial":900,"smaller_num":"9","larger_num":"10","correct_side":2,"subjID":"mateoalexandervega19","gender":"0","age":"11","school":"6"},{"start_time":1551881587765,"click_time":1551881588711,"finger_time":1551881588469,"fix_duration":1394.9584156928984,"trial":57,"RT":704,"MT":242,"sideResp":2,"stimulus":"img/250/randomdotsizeEA/R/9_Ratio_250_L_3_R_12.png","xmouse":[772,772,772,772,772,772,772,772,772,772,772,772,772,772,772,772,772,772,772,772,772,772,772,772,772,772,772,772,772,772,772,779,790,805,819,838,869,888,917,952,1011,1023,1034,1044,1056,1074,1083,1094],"ymouse":[503,503,503,503,503,503,503,503,503,503,503,503,503,503,503,503,503,503,503,503,503,503,503,503,503,503,503,503,503,503,503,498,492,481,474,465,445,426,386,320,193,170,155,144,135,121,109,95],"timestamp_mouse":[9,34,45,65,85,104,126,146,165,186,205,224,245,265,285,305,325,345,365,385,404,426,446,464,486,504,526,544,564,585,604,624,645,664,685,704,724,744,764,785,805,824,844,866,884,906,924,946],"xSR":741.5,"ySR":469.95,"xT1":424.9,"yT1":0,"xT2":1058.1,"yT2":0,"toosoon":0,"cond_shown":"randomdotsizeEA","ratio_trial":250,"smaller_num":"3","larger_num":"12","correct_side":2,"subjID":"mateoalexandervega19","gender":"0","age":"11","school":"6"},{"start_time":1551881591075,"click_time":1551881591909,"finger_time":1551881591589,"fix_duration":1442.0214356556742,"trial":58,"RT":514,"MT":320,"sideResp":1,"stimulus":"img/250/randomdotsizeEA/L/1_Ratio_250_L_8_R_2.png","xmouse":[810,810,810,810,810,810,810,810,810,810,810,810,810,810,810,810,810,810,810,810,810,809,798,787,775,743,729,721,713,700,655,623,613,609,606,596,588,578,565,551,526,509],"ymouse":[547,547,547,547,547,547,547,547,547,547,547,547,547,547,547,547,547,547,546,545,536,530,512,494,477,440,423,412,402,387,335,298,285,276,264,225,201,178,158,137,102,81],"timestamp_mouse":[14,37,55,76,94,115,134,156,175,195,215,236,255,276,294,314,334,355,374,395,415,434,454,475,494,514,535,555,574,595,614,635,654,674,695,715,735,754,775,795,815,834],"xSR":741.5,"ySR":469.95,"xT1":424.9,"yT1":0,"xT2":1058.1,"yT2":0,"toosoon":0,"cond_shown":"randomdotsizeEA","ratio_trial":250,"smaller_num":"2","larger_num":"8","correct_side":1,"subjID":"mateoalexandervega19","gender":"0","age":"11","school":"6"},{"start_time":1551881595225,"click_time":1551881596249,"finger_time":1551881595770,"fix_duration":972.8848013680631,"trial":59,"RT":545,"MT":479,"sideResp":2,"stimulus":"img/900/equaldotsize/R/3_Ratio_900_L_9_R_10.png","xmouse":[790,790,790,790,790,790,790,790,790,790,790,790,790,790,790,790,790,790,790,790,790,794,796,805,815,823,832,847,874,888,901,917,932,971,984,1001,1014,1023,1039,1047,1053,1059,1065,1076,1080,1083,1085,1086,1088,1091,1094,1097],"ymouse":[535,535,535,535,535,535,535,535,535,535,535,535,535,535,535,535,535,535,535,534,534,534,534,530,525,519,511,498,465,439,413,385,360,281,259,237,217,200,169,158,152,146,137,124,119,117,114,113,111,109,104,98],"timestamp_mouse":[8,34,44,64,85,104,126,144,164,185,204,226,246,264,284,305,324,346,365,385,404,425,446,464,485,505,526,545,565,584,604,624,645,665,684,704,725,744,764,784,805,825,846,864,884,905,926,944,965,984,1005,1024],"xSR":741.5,"ySR":469.95,"xT1":424.9,"yT1":0,"xT2":1058.1,"yT2":0,"toosoon":0,"cond_shown":"equaldotsize","ratio_trial":900,"smaller_num":"9","larger_num":"10","correct_side":2,"subjID":"mateoalexandervega19","gender":"0","age":"11","school":"6"},{"start_time":1551881597321,"click_time":1551881598010,"finger_time":1551881597809,"fix_duration":250,"trial":60,"RT":488,"MT":201,"sideResp":2,"stimulus":"img/250/equaldotanddens/R/9_Ratio_250_L_3_R_12.png","xmouse":[821,821,821,821,821,821,821,821,821,821,821,821,821,820,820,819,819,819,818,818,818,818,820,829,869,892,910,927,986,1009,1032,1056,1068,1072,1076],"ymouse":[527,527,527,527,527,527,527,527,527,527,527,527,527,524,522,521,520,519,517,517,516,514,509,500,471,456,441,424,337,290,253,213,181,148,92],"timestamp_mouse":[8,29,50,69,88,108,130,150,169,190,208,228,250,269,288,308,329,349,368,388,408,428,449,468,488,508,528,549,570,588,608,628,648,670,689],"xSR":741.5,"ySR":469.95,"xT1":424.9,"yT1":0,"xT2":1058.1,"yT2":0,"toosoon":0,"cond_shown":"equaldotanddens","ratio_trial":250,"smaller_num":"3","larger_num":"12","correct_side":2,"subjID":"mateoalexandervega19","gender":"0","age":"11","school":"6"},{"start_time":1551881599767,"click_time":1551881600770,"finger_time":1551881600149,"fix_duration":515.9729474824168,"trial":61,"RT":382,"MT":621,"sideResp":2,"stimulus":"img/750/equaldotanddens/R/4_Ratio_750_L_15_R_20.png","xmouse":[778,778,778,778,778,778,778,778,778,778,778,778,778,778,778,781,787,801,810,819,832,848,880,904,911,925,934,956,974,995,1013,1023,1042,1054,1067,1069,1071,1073,1073,1073,1073,1073,1073,1073,1074,1075,1077,1083,1084,1085,1086],"ymouse":[541,541,541,541,541,541,541,541,541,541,541,541,541,541,540,531,520,487,470,455,438,415,374,353,347,331,319,294,280,267,254,243,215,195,163,144,132,126,126,126,126,126,126,125,124,121,119,114,111,104,96],"timestamp_mouse":[8,22,44,63,84,103,122,144,164,183,204,223,243,264,283,302,322,343,363,382,402,423,442,464,483,502,522,542,562,583,602,624,642,663,682,703,722,743,764,783,802,823,843,863,883,902,922,943,962,982,1002],"xSR":741.5,"ySR":469.95,"xT1":424.9,"yT1":0,"xT2":1058.1,"yT2":0,"toosoon":0,"cond_shown":"equaldotanddens","ratio_trial":750,"smaller_num":"15","larger_num":"20","correct_side":2,"subjID":"mateoalexandervega19","gender":"0","age":"11","school":"6"},{"start_time":1551881603677,"click_time":1551881604550,"finger_time":1551881604110,"fix_duration":446.4922729318601,"trial":62,"RT":433,"MT":440,"sideResp":1,"stimulus":"img/250/equaldotanddens/L/3_Ratio_250_L_8_R_2.png","xmouse":[797,797,797,797,797,797,797,797,797,797,797,797,797,797,797,797,797,797,797,797,799,799,796,789,778,764,748,705,695,684,669,644,638,636,634,629,600,591,583,572,560,549,526,519],"ymouse":[521,521,521,521,521,521,521,521,521,521,521,521,521,521,521,521,521,521,519,513,497,465,448,433,415,398,380,338,325,309,287,239,220,202,189,169,125,115,107,98,91,85,74,72],"timestamp_mouse":[13,40,53,74,94,113,133,154,173,194,213,233,253,274,293,312,332,353,373,393,412,433,452,472,493,512,532,553,572,592,612,632,653,672,693,712,732,752,773,792,812,832,852,873],"xSR":741.5,"ySR":469.95,"xT1":424.9,"yT1":0,"xT2":1058.1,"yT2":0,"toosoon":0,"cond_shown":"equaldotanddens","ratio_trial":250,"smaller_num":"2","larger_num":"8","correct_side":1,"subjID":"mateoalexandervega19","gender":"0","age":"11","school":"6"},{"start_time":1551881607860,"click_time":1551881608751,"finger_time":1551881608230,"fix_duration":1088.8145870179412,"trial":63,"RT":370,"MT":521,"sideResp":2,"stimulus":"img/900/equaldotanddens/R/5_Ratio_900_L_9_R_10.png","xmouse":[783,783,783,783,783,783,783,783,783,783,783,783,783,783,783,783,783,775,756,748,743,742,741,741,741,743,763,778,801,813,830,847,861,898,968,998,1047,1060,1086,1099,1111,1121,1129,1141,1142],"ymouse":[527,527,527,527,527,527,527,527,527,527,527,527,527,527,527,527,513,494,460,445,436,432,430,430,429,427,421,417,411,406,396,383,372,345,296,274,233,221,198,187,175,163,152,124,98],"timestamp_mouse":[10,31,51,69,91,109,129,150,169,191,210,230,249,270,290,309,329,349,370,390,409,429,451,469,489,510,529,549,569,589,610,629,650,669,690,709,731,749,769,790,809,829,849,869,891],"xSR":741.5,"ySR":469.95,"xT1":424.9,"yT1":0,"xT2":1058.1,"yT2":0,"toosoon":0,"cond_shown":"equaldotanddens","ratio_trial":900,"smaller_num":"9","larger_num":"10","correct_side":2,"subjID":"mateoalexandervega19","gender":"0","age":"11","school":"6"},{"start_time":1551881610914,"click_time":1551881611750,"finger_time":1551881611449,"fix_duration":1304.5680055782755,"trial":64,"RT":535,"MT":301,"sideResp":2,"stimulus":"img/500/equaldotsize/R/14_Ratio_500_L_5_R_10.png","xmouse":[818,818,818,818,818,818,818,818,818,818,818,818,818,818,818,818,818,818,818,818,818,818,818,821,830,836,848,857,869,887,931,958,976,990,1006,1033,1038,1041,1044,1048,1059,1062],"ymouse":[534,534,534,534,534,534,534,534,534,534,534,534,534,534,534,534,534,534,534,534,534,534,533,529,518,511,492,477,456,424,329,273,243,222,202,159,147,141,133,124,103,98],"timestamp_mouse":[16,40,56,75,96,116,136,156,175,196,217,235,257,277,295,316,335,357,375,395,416,435,456,476,495,515,535,556,575,595,615,637,655,676,695,716,736,756,776,795,816,835],"xSR":741.5,"ySR":469.95,"xT1":424.9,"yT1":0,"xT2":1058.1,"yT2":0,"toosoon":0,"cond_shown":"equaldotsize","ratio_trial":500,"smaller_num":"5","larger_num":"10","correct_side":2,"subjID":"mateoalexandervega19","gender":"0","age":"11","school":"6"},{"start_time":1551881613510,"click_time":1551881614789,"finger_time":1551881614409,"fix_duration":858.4341932795132,"trial":65,"RT":899,"MT":380,"sideResp":1,"stimulus":"img/900/equaldotanddens/L/8_Ratio_900_L_20_R_18.png","xmouse":[815,815,815,815,815,815,815,815,815,815,815,815,815,815,815,815,815,815,815,815,815,815,815,815,815,815,815,815,815,815,815,815,816,817,819,819,820,822,823,823,823,822,819,814,808,804,801,788,754,696,646,623,621,620,612,593,546,535,529,528,528,528,524,514,505],"ymouse":[512,512,512,512,512,512,512,512,512,512,512,512,512,512,512,512,512,512,512,512,512,512,512,512,512,512,512,512,512,512,512,512,512,510,506,503,500,491,487,486,485,481,479,475,471,469,466,453,423,379,343,326,324,320,304,280,222,209,203,200,199,171,137,101,83],"timestamp_mouse":[8,20,39,60,79,101,119,140,159,179,199,220,239,261,287,299,320,339,361,381,400,421,441,459,481,499,520,541,559,580,599,619,640,659,680,699,719,739,760,779,800,819,841,859,879,899,919,939,960,979,999,1019,1040,1060,1080,1099,1121,1139,1160,1180,1200,1220,1239,1260,1279],"xSR":741.5,"ySR":469.95,"xT1":424.9,"yT1":0,"xT2":1058.1,"yT2":0,"toosoon":0,"cond_shown":"equaldotanddens","ratio_trial":900,"smaller_num":"18","larger_num":"20","correct_side":1,"subjID":"mateoalexandervega19","gender":"0","age":"11","school":"6"},{"start_time":1551881616425,"click_time":1551881617349,"finger_time":1551881616990,"fix_duration":834.2182802607688,"trial":66,"RT":565,"MT":359,"sideResp":1,"stimulus":"img/900/equaldotsize/R/5_Ratio_900_L_9_R_10.png","xmouse":[781,781,781,781,781,781,781,781,781,781,781,781,781,781,781,781,781,781,781,781,781,781,782,782,787,788,789,789,789,784,758,735,701,689,666,651,621,607,596,587,582,572,562,543,530,520,504],"ymouse":[499,499,499,499,499,499,499,499,499,499,499,499,499,499,499,499,499,499,499,499,499,499,500,500,486,480,474,472,466,460,427,394,346,332,304,287,258,246,235,227,220,199,180,149,131,116,85],"timestamp_mouse":[9,38,45,66,86,106,126,144,166,186,205,225,244,264,285,304,325,344,365,385,405,424,445,465,484,504,525,545,565,584,606,624,644,664,684,705,725,744,764,784,804,824,845,865,884,904,924],"xSR":741.5,"ySR":469.95,"xT1":424.9,"yT1":0,"xT2":1058.1,"yT2":0,"toosoon":0,"cond_shown":"equaldotsize","ratio_trial":900,"smaller_num":"9","larger_num":"10","correct_side":2,"subjID":"mateoalexandervega19","gender":"0","age":"11","school":"6"},{"start_time":1551881620225,"click_time":1551881621170,"finger_time":1551881620729,"fix_duration":592.9081704930328,"trial":67,"RT":504,"MT":441,"sideResp":1,"stimulus":"img/900/equaldotsize/L/4_Ratio_900_L_20_R_18.png","xmouse":[763,763,763,763,763,765,769,771,772,772,772,772,772,772,772,772,772,772,772,772,772,773,773,770,766,762,755,750,738,721,699,637,612,594,582,574,555,544,533,522,510,489,486,485,485,485,485,485],"ymouse":[517,517,517,517,517,517,519,520,520,520,520,520,520,520,520,520,520,520,520,520,520,517,506,491,477,467,454,441,413,378,338,258,233,214,202,191,171,161,152,143,131,111,105,103,103,103,103,99],"timestamp_mouse":[8,24,45,64,86,105,124,144,165,186,204,224,246,265,284,304,325,346,364,385,406,424,445,465,484,504,525,545,565,584,605,625,645,664,684,704,725,745,764,784,805,825,846,864,884,906,925,945],"xSR":741.5,"ySR":469.95,"xT1":424.9,"yT1":0,"xT2":1058.1,"yT2":0,"toosoon":0,"cond_shown":"equaldotsize","ratio_trial":900,"smaller_num":"18","larger_num":"20","correct_side":1,"subjID":"mateoalexandervega19","gender":"0","age":"11","school":"6"},{"start_time":1551881622301,"click_time":1551881623670,"finger_time":1551881622930,"fix_duration":250,"trial":68,"RT":629,"MT":740,"sideResp":1,"stimulus":"img/750/randomdotsizeEA/L/10_Ratio_750_L_4_R_3.png","xmouse":[788,788,788,788,788,788,788,788,788,788,788,788,788,788,788,788,788,788,788,788,787,784,783,781,780,779,779,779,779,778,776,773,769,768,768,773,782,814,832,852,867,879,887,892,898,903,911,927,929,929,926,921,912,903,886,865,841,808,799,781,756,723,642,619,604,590,561,537,504],"ymouse":[521,521,521,521,521,521,521,521,521,521,521,521,521,521,521,518,516,512,510,506,500,492,486,480,478,477,477,477,477,473,470,458,435,425,420,414,407,385,372,355,336,313,271,256,240,227,214,188,180,176,170,168,167,170,176,179,181,182,182,182,181,174,147,136,128,121,108,98,88],"timestamp_mouse":[8,35,48,70,89,108,128,149,168,190,210,228,250,268,290,309,329,349,368,388,409,428,448,469,489,508,530,549,568,588,610,629,649,668,688,709,730,749,769,788,808,828,850,868,888,908,928,949,968,989,1010,1028,1049,1068,1088,1108,1129,1148,1169,1190,1208,1228,1249,1268,1288,1309,1328,1348,1368],"xSR":741.5,"ySR":469.95,"xT1":424.9,"yT1":0,"xT2":1058.1,"yT2":0,"toosoon":0,"cond_shown":"randomdotsizeEA","ratio_trial":750,"smaller_num":"3","larger_num":"4","correct_side":1,"subjID":"mateoalexandervega19","gender":"0","age":"11","school":"6"},{"start_time":1551881626541,"click_time":1551881627450,"finger_time":1551881627030,"fix_duration":250,"trial":69,"RT":489,"MT":420,"sideResp":1,"stimulus":"img/500/equaldotanddens/L/11_Ratio_500_L_12_R_6.png","xmouse":[809,809,809,809,809,809,809,809,809,809,809,808,808,807,807,806,806,805,804,801,800,798,794,788,783,778,764,752,732,700,666,606,572,553,538,524,512,512,512,512,512,513,514,514,514,513],"ymouse":[534,534,534,534,534,534,534,534,534,534,534,534,534,534,534,534,533,533,532,528,526,517,507,483,465,448,422,404,377,339,306,240,205,182,163,150,139,139,139,138,136,126,121,113,102,89],"timestamp_mouse":[9,28,49,69,88,109,129,149,168,189,208,229,248,268,289,311,328,349,368,389,409,428,449,470,489,508,528,549,568,589,608,628,648,668,689,708,728,748,769,789,809,829,849,869,889,909],"xSR":741.5,"ySR":469.95,"xT1":424.9,"yT1":0,"xT2":1058.1,"yT2":0,"toosoon":0,"cond_shown":"equaldotanddens","ratio_trial":500,"smaller_num":"6","larger_num":"12","correct_side":1,"subjID":"mateoalexandervega19","gender":"0","age":"11","school":"6"},{"start_time":1551881628641,"click_time":1551881629709,"finger_time":1551881629449,"fix_duration":250,"trial":70,"RT":808,"MT":260,"sideResp":1,"stimulus":"img/250/randomdotsizeEA/L/2_Ratio_250_L_16_R_4.png","xmouse":[787,787,787,787,787,787,787,787,787,787,786,786,784,782,779,776,774,774,774,774,774,774,774,774,774,774,774,774,774,774,774,774,774,774,774,774,772,766,757,744,726,687,667,640,613,598,580,575,569,564,555,526,510,497],"ymouse":[541,541,541,541,541,541,541,541,541,541,540,540,538,537,534,531,527,527,527,527,527,527,527,527,527,527,527,527,527,527,527,527,527,527,527,527,525,513,498,474,447,392,350,303,258,227,196,189,178,167,153,119,103,92],"timestamp_mouse":[8,28,48,68,90,110,128,149,169,189,208,233,249,268,288,309,329,350,369,389,410,428,448,470,489,510,528,548,569,589,609,628,648,670,689,709,729,749,768,789,808,828,849,868,888,910,928,949,969,988,1009,1028,1048,1068],"xSR":741.5,"ySR":469.95,"xT1":424.9,"yT1":0,"xT2":1058.1,"yT2":0,"toosoon":0,"cond_shown":"randomdotsizeEA","ratio_trial":250,"smaller_num":"4","larger_num":"16","correct_side":1,"subjID":"mateoalexandervega19","gender":"0","age":"11","school":"6"},{"start_time":1551881630987,"click_time":1551881632990,"finger_time":1551881631569,"fix_duration":634.3877559252836,"trial":71,"RT":582,"MT":1421,"sideResp":1,"stimulus":"img/250/equaldotsize/R/8_Ratio_250_L_1_R_4.png","xmouse":[803,803,803,803,803,803,803,803,803,803,803,803,803,803,803,803,803,803,803,803,803,803,803,803,803,803,803,803,804,817,823,829,836,842,847,849,853,858,864,880,887,894,900,905,913,925,932,936,937,937,937,937,937,937,930,914,899,883,868,837,833,831,830,830,830,829,827,819,799,773,758,748,743,741,740,730,718,709,705,702,702,700,694,680,663,631,614,597,574,556,537,532,532,532,532,532,531,530,524,512,475],"ymouse":[504,504,504,504,504,504,504,504,504,504,504,504,504,504,504,504,504,504,504,504,504,504,504,504,504,504,504,502,495,452,437,426,418,413,403,395,387,378,370,352,346,341,337,333,326,312,304,300,299,299,299,299,299,299,299,302,305,306,306,291,288,285,284,284,284,283,280,272,261,254,253,253,252,252,251,245,242,239,237,235,234,232,225,214,201,179,170,160,149,141,128,125,125,125,125,125,124,123,115,104,79],"timestamp_mouse":[10,35,43,62,82,103,122,143,162,182,203,223,244,262,284,302,322,343,362,383,404,422,443,462,482,504,522,542,563,582,602,623,644,664,683,703,722,742,762,783,802,822,844,862,883,902,922,942,962,982,1003,1023,1043,1064,1083,1103,1123,1142,1162,1184,1202,1223,1242,1262,1283,1303,1323,1343,1363,1383,1402,1422,1444,1462,1482,1502,1522,1542,1562,1583,1602,1623,1642,1662,1684,1703,1724,1742,1762,1783,1802,1822,1842,1863,1883,1904,1924,1944,1962,1983,2003],"xSR":741.5,"ySR":469.95,"xT1":424.9,"yT1":0,"xT2":1058.1,"yT2":0,"toosoon":0,"cond_shown":"equaldotsize","ratio_trial":250,"smaller_num":"1","larger_num":"4","correct_side":2,"subjID":"mateoalexandervega19","gender":"0","age":"11","school":"6"},{"start_time":1551881634789,"click_time":1551881636090,"finger_time":1551881635609,"fix_duration":978.9889186850728,"trial":72,"RT":820,"MT":481,"sideResp":1,"stimulus":"img/500/equaldotsize/L/10_Ratio_500_L_4_R_2.png","xmouse":[811,811,811,811,811,811,811,811,811,811,811,811,811,808,808,807,807,807,807,805,805,805,804,804,804,802,802,802,802,802,802,801,799,796,791,778,773,771,769,766,743,727,711,700,691,688,685,676,664,648,607,584,569,560,555,552,543,533,518,503,489,489,488,487,485,480],"ymouse":[552,552,552,552,552,552,552,552,552,552,552,552,552,551,551,550,550,550,550,549,549,549,548,548,548,547,547,547,547,547,547,546,545,542,538,525,519,516,513,509,478,458,439,427,414,411,408,395,379,358,307,280,261,249,242,233,214,194,168,146,122,118,112,105,100,85],"timestamp_mouse":[8,36,42,60,82,100,122,141,160,182,202,221,240,261,280,300,321,342,360,381,402,420,440,462,481,500,520,540,561,580,600,620,640,660,680,701