[{"start_time":1551892401401,"click_time":1551892422389,"finger_time":1551892401434,"fix_duration":250,"trial":0,"RT":33,"MT":20955,"sideResp":1,"stimulus":[],"xmouse":[771,779,784,789,791,793,795,795,798,799,799,799,799,799,799,799,799,799,799,799,799,799,799,799,799,799,799,799,799,799,799,799,799,799,799,799,799,799,799,799,799,799,799,799,799,799,799,799,797,796,794,793,793,794,797,800,802,805,810,811,811,812,812,812,812,812,812,812,812,812,812,812,812,812,812,812,812,812,812,815,825,839,844,817,712,618,557,510,472,469,468,468,468,472,480,486,491,493,494,494,494,494,493,474,474,473,470,469,468,468,468,468,468,468,478,489,492,495,496,496,496,496,496,500,506,512,519,528,537,538,538,538,538,538,538,538,538,538,538,538,538,538,538,538,538,538,540,544,571,594,619,643,662,694,726,747,761,771,780,783,785,786,788,792,794,798,804,814,841,853,860,866,868,871,889,908,950,995,1094,1135,1173,1206,1235,1300,1335,1345,1349,1350,1344,1339,1332,1327,1324,1322,1322,1322,1322,1322,1322,1322,1322,1321,1319,1319,1319,1319,1319,1319,1319,1319,1319,1319,1319,1319,1319,1319,1319,1319,1319,1319,1319,1319,1319,1319,1319,1316,1308,1300,1290,1286,1266,1223,1179,1109,1094,1094,1094,1094,1094,1094,1094,1094,1094,1094,1094,1094,1094,1094,1094,1094,1094,1094,1094,1094,1094,1094,1094,1094,1094,1094,1094,1094,1094,1094,1094,1094,1094,1094,1094,1094,1094,1094,1094,1094,1094,1094,1094,1094,1094,1094,1094,1094,1094,1087,1072,1062,1062,1066,1067,1067,1067,1067,1067,1067,1067,1067,1067,1067,1067,1067,1067,1063,1040,996,958,920,884,857,835,833,833,833,833,833,833,833,833,833,833,833,833,834,836,847,848,848,848,848,848,847,847,847,847,847,847,847,847,844,833,829,825,821,816,802,796,794,793,793,793,793,793,793,793,793,793,793,793,793,793,793,793,793,793,793,793,793,793,793,793,793,793,793,793,793,793,793,793,793,792,788,786,782,778,768,765,764,764,764,764,764,764,764,764,764,764,764,764,764,764,764,764,764,764,764,764,764,764,764,764,764,764,764,764,764,764,764,764,764,773,775,778,780,781,781,781,781,781,781,781,781,781,781,781,781,781,781,781,781,781,781,781,784,786,820,839,847,847,847,847,847,847,847,847,847,847,847,847,847,847,847,847,847,847,847,847,847,847,847,847,846,843,836,829,813,807,804,803,803,803,805,806,807,807,807,807,807,807,807,807,807,807,807,807,807,807,806,799,795,792,792,792,792,792,792,792,792,791,790,789,788,788,788,788,788,788,788,788,788,788,788,788,788,788,788,788,788,788,788,788,788,788,788,788,788,788,788,788,788,788,788,788,788,788,788,788,788,788,788,788,788,788,788,788,788,788,788,788,788,788,788,788,788,788,788,788,788,788,788,788,788,788,788,788,788,788,788,788,788,788,788,788,788,788,788,788,788,788,788,788,788,788,788,788,788,788,788,788,788,788,788,788,788,788,788,788,788,788,788,788,788,788,788,788,788,788,788,788,788,788,788,788,788,788,788,788,788,788,788,788,788,788,788,788,787,787,787,787,787,787,787,787,787,787,787,787,787,790,799,823,832,840,850,858,867,876,879,879,879,879,879,879,879,872,853,805,777,754,742,739,739,739,739,739,739,739,739,739,739,742,753,764,772,776,776,776,776,776,776,776,776,776,776,776,776,776,776,776,776,776,776,776,776,776,777,781,782,784,785,786,787,788,788,788,788,788,788,788,789,792,797,801,802,803,804,804,804,804,804,804,804,804,804,804,804,804,804,804,804,804,804,804,804,804,804,804,804,804,808,819,822,822,822,822,822,822,822,808,793,787,787,787,787,787,787,787,787,787,787,787,787,787,787,787,789,802,812,824,838,881,905,923,934,939,941,941,941,941,941,941,941,941,941,941,941,941,941,941,941,941,941,941,941,941,943,947,951,952,952,952,952,952,952,952,952,952,952,952,947,893,869,854,848,847,847,847,847,847,847,847,847,847,847,847,847,847,847,847,847,847,847,847,847,847,847,847,847,847,847,847,846,841,837,831,829,829,829,829,829,829,829,829,828,828,815,803,797,794,794,794,794,794,794,794,794,794,794,794,794,794,794,794,794,794,794,794,794,794,794,794,794,794,794,794,794,794,794,794,794,794,794,794,794,794,794,794,794,794,794,794,794,794,794,794,794,794,794,794,794,794,794,794,794,794,794,794,794,794,794,794,794,794,794,794,794,794,794,794,794,794,794,794,794,794,794,794,794,794,794,794,794,794,794,794,794,794,794,794,794,794,794,794,794,794,794,794,794,794,794,794,794,794,794,794,794,794,794,794,794,794,794,794,794,794,794,794,794,794,794,794,794,794,794,796,799,799,799,799,799,799,799,799,799,798,795,788,779,765,752,730,727,724,723,721,719,719,718,717,715,707,702,695,682,661,598,588,587,587,587,587,587,587,587,587,586,580,574,569,562,554,554,554,554,554,554,554,554,545,531,511],"ymouse":[533,516,503,485,477,469,462,455,438,429,424,418,414,404,403,403,403,403,403,403,403,403,403,403,403,403,403,403,403,403,403,403,403,403,403,403,403,403,403,403,403,403,403,403,403,403,403,403,413,422,431,438,444,453,459,463,467,471,473,474,474,474,474,474,474,474,474,474,474,474,474,474,474,474,474,474,474,474,474,474,474,476,480,509,575,614,647,683,706,706,706,706,706,700,688,680,674,671,669,669,669,667,661,620,620,618,617,616,616,616,616,616,616,616,616,616,616,616,616,616,616,616,616,612,606,600,594,588,584,584,584,584,584,584,584,584,584,584,584,584,584,583,584,584,584,585,585,582,578,575,575,575,572,562,553,547,539,533,523,519,514,511,508,505,504,503,500,497,489,486,483,481,479,477,458,440,406,379,358,358,362,371,378,402,417,423,426,432,448,457,466,475,480,482,482,482,482,482,482,482,483,483,485,485,485,485,485,485,485,485,485,485,485,485,485,485,485,485,485,485,485,485,485,485,486,488,494,498,499,499,502,505,505,487,482,482,482,482,482,482,482,482,482,482,482,482,482,482,482,482,482,482,482,482,482,482,482,482,482,482,482,482,482,482,482,482,482,482,482,482,482,482,482,482,482,482,482,482,482,482,482,482,482,483,523,576,602,609,609,609,609,609,609,609,609,609,609,609,609,609,609,608,597,577,549,512,479,461,448,447,447,447,447,447,447,447,447,447,447,447,447,447,447,462,471,480,489,496,504,505,506,506,506,506,506,508,515,531,557,568,574,581,587,608,618,620,621,621,621,621,621,621,621,621,621,621,621,621,621,621,621,621,621,621,621,621,621,621,621,621,621,621,621,621,621,621,621,621,616,603,596,583,568,536,528,525,525,525,525,525,525,525,525,525,525,525,525,525,525,525,525,525,525,525,525,525,525,525,525,525,525,525,525,525,525,525,525,528,568,590,609,620,622,622,622,622,622,622,622,622,622,622,622,622,622,622,622,622,622,622,622,612,599,437,369,317,287,271,269,269,269,269,269,269,269,269,269,269,269,269,269,269,269,269,269,269,269,268,268,272,284,307,330,387,432,459,484,505,530,538,542,544,544,544,544,544,544,544,544,544,544,544,544,544,544,550,561,568,572,572,572,572,572,572,572,575,576,579,582,582,582,582,582,582,582,582,582,582,582,582,582,582,582,582,582,582,582,582,582,582,582,582,582,582,582,582,582,582,582,582,582,582,582,582,582,582,581,581,581,581,581,581,581,581,581,581,581,581,581,581,581,581,581,581,581,581,581,581,581,581,581,581,581,581,581,581,580,580,580,580,580,580,580,580,580,580,580,580,580,580,580,580,580,580,580,580,580,580,580,580,580,580,580,580,580,580,580,580,580,580,580,580,580,580,580,580,580,580,580,580,580,580,580,580,580,580,580,580,580,580,580,580,576,572,571,571,571,571,571,571,571,571,571,571,570,570,570,574,600,609,619,626,629,631,635,637,637,637,637,637,637,637,637,629,617,609,603,599,598,598,598,598,598,598,598,598,598,598,598,598,598,598,598,598,598,598,598,598,598,598,598,598,598,598,598,598,598,598,598,598,598,598,598,598,595,591,587,585,577,573,570,567,567,567,567,567,567,566,556,548,540,538,536,533,533,533,533,533,533,533,533,533,529,528,528,528,528,528,528,528,528,528,528,528,530,538,552,571,619,635,646,649,649,649,649,648,637,631,629,629,629,629,629,629,629,629,629,629,629,629,629,629,629,623,600,583,556,524,424,382,352,331,320,314,314,314,314,314,314,314,314,314,314,314,314,314,314,314,314,316,321,321,321,321,323,326,333,340,347,347,347,347,347,347,347,347,348,358,416,442,459,467,468,468,468,468,468,468,468,468,468,468,468,468,468,468,468,468,468,468,468,468,468,468,468,468,468,468,468,476,484,491,498,500,500,500,500,500,500,500,500,502,502,531,559,573,585,591,598,598,598,598,598,598,598,598,598,598,598,598,598,598,598,598,598,598,598,598,598,598,598,598,598,598,598,598,598,598,598,598,598,598,598,598,598,598,598,598,598,598,598,598,598,598,598,598,598,598,598,598,598,598,598,598,598,598,598,598,598,598,598,598,598,598,598,598,598,598,598,598,598,598,598,598,598,598,598,598,598,598,598,598,598,598,598,598,598,598,598,598,598,598,598,598,598,598,598,598,598,598,598,598,598,598,598,598,598,598,598,598,598,598,598,598,598,598,598,598,598,598,560,536,477,430,338,313,293,279,258,253,249,248,246,243,230,216,194,177,149,143,139,135,131,117,114,112,111,109,108,107,107,107,107,107,107,107,107,107,107,107,107,107,107,107,94,85,74,63,55,55,55,55,55,55,55,54,52,52,52],"timestamp_mouse":[33,46,67,86,106,126,146,166,186,207,226,246,267,287,306,326,346,366,386,407,426,447,466,486,506,527,546,566,586,607,626,647,666,686,706,726,746,766,786,807,826,846,867,886,905,926,945,967,986,1006,1026,1046,1066,1086,1106,1127,1146,1167,1186,1207,1226,1246,1267,1287,1307,1326,1346,1367,1386,1406,1426,1447,1467,1487,1507,1526,1547,1566,1587,1606,1626,1647,1667,1686,1706,1725,1747,1767,1786,1808,1827,1846,1867,1886,1906,1925,1946,1967,1986,2006,2026,2046,2067,2087,2107,2127,2146,2167,2187,2206,2226,2246,2266,2285,2305,2326,2346,2367,2387,2407,2426,2446,2467,2486,2507,2527,2547,2567,2586,2607,2625,2646,2666,2687,2706,2726,2747,2767,2786,2806,2827,2847,2867,2887,2906,2926,2947,2967,2986,3006,3027,3046,3066,3087,3106,3126,3146,3166,3186,3207,3227,3246,3266,3286,3307,3327,3346,3366,3386,3405,3427,3446,3467,3486,3506,3527,3546,3566,3586,3606,3626,3647,3667,3686,3706,3727,3746,3766,3786,3806,3826,3845,3866,3887,3906,3927,3946,3966,3987,4006,4026,4046,4067,4086,4107,4125,4146,4166,4186,4207,4227,4246,4266,4286,4306,4327,4346,4367,4386,4406,4427,4447,4466,4487,4507,4527,4546,4566,4586,4606,4627,4647,4667,4686,4706,4727,4746,4767,4786,4806,4827,4846,4867,4887,4906,4926,4946,4967,4986,5006,5027,5046,5067,5086,5106,5127,5146,5166,5187,5206,5227,5246,5266,5286,5307,5326,5346,5366,5386,5406,5427,5447,5467,5486,5506,5527,5546,5566,5586,5606,5626,5646,5666,5686,5706,5726,5747,5767,5785,5807,5826,5847,5866,5886,5907,5927,5946,5966,5985,6007,6027,6047,6067,6086,6107,6125,6147,6166,6186,6207,6226,6246,6267,6287,6306,6327,6346,6366,6387,6406,6426,6446,6467,6486,6507,6527,6546,6567,6586,6606,6626,6647,6667,6687,6706,6726,6746,6767,6786,6806,6827,6847,6866,6886,6906,6926,6946,6967,6986,7006,7027,7046,7066,7086,7106,7126,7147,7166,7186,7206,7226,7246,7266,7286,7306,7326,7347,7367,7386,7408,7426,7447,7467,7486,7506,7526,7546,7566,7586,7606,7627,7646,7666,7686,7706,7727,7746,7766,7786,7806,7827,7846,7866,7887,7906,7927,7947,7967,7986,8006,8026,8046,8066,8087,8106,8126,8146,8166,8186,8206,8227,8246,8266,8286,8307,8327,8347,8366,8386,8406,8427,8446,8467,8487,8506,8526,8547,8566,8586,8607,8626,8646,8666,8686,8706,8726,8746,8766,8786,8807,8827,8846,8867,8886,8906,8926,8946,8967,8987,9006,9026,9045,9066,9086,9107,9126,9147,9166,9186,9207,9226,9246,9267,9287,9306,9326,9346,9366,9387,9406,9427,9447,9467,9486,9507,9526,9546,9566,9586,9606,9626,9646,9667,9687,9706,9726,9746,9767,9787,9807,9827,9847,9866,9886,9906,9926,9946,9966,9986,10006,10026,10046,10066,10087,10106,10126,10147,10166,10186,10206,10227,10247,10266,10286,10307,10326,10347,10366,10386,10406,10427,10446,10466,10486,10507,10527,10547,10566,10587,10607,10627,10646,10666,10686,10706,10726,10747,10767,10786,10807,10826,10847,10866,10886,10906,10926,10946,10967,10987,11006,11026,11047,11067,11086,11106,11126,11146,11167,11186,11207,11227,11246,11267,11287,11307,11327,11346,11366,11387,11406,11427,11447,11467,11487,11507,11527,11547,11567,11586,11607,11627,11646,11666,11687,11706,11726,11746,11766,11786,11807,11826,11847,11866,11886,11907,11926,11948,11967,11986,12006,12026,12046,12067,12087,12106,12127,12146,12167,12186,12206,12227,12247,12266,12286,12307,12326,12347,12367,12386,12407,12427,12446,12467,12486,12506,12527,12546,12567,12587,12606,12626,12646,12666,12686,12706,12726,12746,12766,12786,12807,12827,12846,12867,12886,12907,12926,12946,12966,12986,13006,13027,13046,13067,13086,13106,13127,13146,13167,13187,13206,13227,13247,13268,13287,13307,13326,13347,13366,13387,13408,13427,13447,13468,13488,13508,13528,13547,13567,13587,13606,13627,13648,13667,13687,13707,13728,13748,13767,13787,13807,13827,13848,13867,13887,13908,13927,13947,13968,13987,14008,14028,14047,14068,14087,14107,14127,14147,14167,14187,14207,14226,14248,14267,14287,14308,14327,14347,14367,14387,14407,14428,14448,14468,14487,14508,14527,14547,14567,14588,14608,14628,14647,14667,14687,14708,14728,14748,14768,14787,14808,14828,14847,14866,14888,14907,14927,14947,14967,14987,15008,15027,15048,15067,15087,15108,15126,15148,15167,15187,15208,15227,15247,15267,15289,15307,15328,15348,15367,15387,15407,15426,15448,15468,15486,15508,15527,15547,15567,15587,15606,15627,15647,15667,15688,15707,15728,15747,15767,15788,15807,15827,15847,15868,15888,15906,15928,15947,15967,15988,16008,16028,16047,16066,16087,16107,16127,16147,16168,16187,16206,16227,16247,16267,16288,16307,16327,16347,16368,16387,16408,16428,16447,16468,16487,16507,16528,16548,16567,16587,16607,16627,16648,16668,16688,16708,16727,16747,16767,16787,16807,16828,16847,16867,16888,16907,16927,16946,16966,16988,17006,17027,17046,17067,17088,17108,17127,17148,17168,17188,17206,17227,17247,17267,17287,17307,17328,17348,17367,17387,17408,17428,17446,17468,17487,17507,17527,17548,17567,17587,17608,17626,17648,17667,17687,17707,17727,17747,17768,17787,17807,17828,17848,17866,17888,17907,17926,17947,17966,17987,18008,18026,18047,18068,18087,18107,18127,18148,18167,18188,18207,18227,18248,18267,18288,18307,18327,18348,18367,18387,18407,18428,18447,18468,18487,18507,18527,18548,18567,18587,18608,18626,18647,18667,18687,18708,18728,18746,18768,18787,18807,18828,18847,18868,18888,18908,18928,18948,18967,18987,19007,19027,19047,19067,19088,19108,19127,19147,19167,19187,19208,19227,19247,19268,19287,19308,19328,19347,19367,19388,19407,19428,19447,19467,19487,19508,19528,19548,19568,19587,19608,19627,19648,19668,19686,19708,19728,19747,19767,19786,19808,19828,19847,19868,19887,19907,19928,19947,19967,19987,20007,20028,20047,20068,20087,20107,20128,20147,20168,20187,20207,20227,20247,20268,20287,20307,20327,20348,20367,20387,20407,20428,20446,20468,20487,20507,20527,20547,20568,20587,20607,20628,20646,20668,20687,20707,20727,20747,20768,20787,20807,20826,20847,20867,20887,20907,20927,20947,20967,20987],"xSR":741.5,"ySR":501.8,"xT1":424.9,"yT1":0,"xT2":1058.1,"yT2":0,"toosoon":0,"cond_shown":"Congruent","ratio_trial":100,"L_num":8,"L_den":16,"R_num":2,"R_den":5,"correct_side":1,"subjID":"maeocastiblanco36","gender":"0","age":"11","school":"6","test":{"fix_dur":[250,1500],"timestim":1000,"targets_dim":[100,100],"targets_relative_coord":[0.3,0.7],"size_stim":[880,420],"start_dim":[100,100],"size_start":[300,300],"size_fix":60,"samplingrate":20,"img_types":["Congruent","Incongruent"],"ratios":[100,200,300],"rep_conds":19,"nTrials":120,"trials_to_rest":500,"Trials_order":[84,62,88,71,16,68,47,32,110,27,73,53,104,14,19,83,41,113,115,10,72,44,31,70,34,109,75,11,37,13,114,85,64,80,9,55,50,117,79,74,25,42,87,107,100,52,48,21,102,43,95,118,33,96,7,51,90,15,103,54,58,59,0,119,78,5,61,82,26,94,3,99,77,60,18,105,112,40,28,93,69,30,38,8,20,24,39,86,56,36,98,116,89,49,106,1,4,2,97,46,45,81,22,76,67,101,12,17,29,108,57,111,6,65,35,63,92,66,91,23],"cond_shown":["Congruent","Congruent","Congruent","Incongruent","Congruent","Congruent","Incongruent","Congruent","Congruent","Incongruent","Incongruent","Incongruent","Congruent","Congruent","Incongruent","Incongruent","Incongruent","Incongruent","Incongruent","Congruent","Congruent","Congruent","Incongruent","Congruent","Congruent","Incongruent","Incongruent","Incongruent","Incongruent","Incongruent","Congruent","Incongruent","Congruent","Congruent","Incongruent","Incongruent","Congruent","Incongruent","Incongruent","Congruent","Incongruent","Congruent","Incongruent","Incongruent","Congruent","Congruent","Congruent","Incongruent","Congruent","Incongruent","Incongruent","Congruent","Incongruent","Congruent","Incongruent","Incongruent","Congruent","Incongruent","Incongruent","Congruent","Congruent","Incongruent","Congruent","Incongruent","Congruent","Incongruent","Incongruent","Congruent","Congruent","Congruent","Incongruent","Incongruent","Incongruent","Congruent","Congruent","Incongruent","Congruent","Congruent","Congruent","Incongruent","Incongruent","Congruent","Congruent","Congruent","Congruent","Congruent","Incongruent","Congruent","Congruent","Congruent","Congruent","Congruent","Incongruent","Incongruent","Congruent","Incongruent","Congruent","Congruent","Incongruent","Congruent","Incongruent","Incongruent","Congruent","Congruent","Incongruent","Incongruent","Congruent","Incongruent","Incongruent","Congruent","Incongruent","Incongruent","Congruent","Incongruent","Incongruent","Incongruent","Congruent","Congruent","Incongruent","Incongruent"],"ratio_trial":[100,200,300,300,300,200,300,200,200,200,100,300,200,200,100,300,300,300,100,300,100,200,100,300,300,100,200,300,100,100,100,100,300,200,200,100,200,200,100,200,100,100,200,300,300,300,100,200,100,100,300,300,200,100,100,200,100,200,100,100,300,300,100,300,100,300,100,300,200,300,200,200,300,100,100,200,300,300,300,200,200,100,200,200,200,100,200,200,200,100,200,200,300,100,300,100,300,200,100,300,200,200,300,300,100,300,100,300,300,100,200,200,100,300,300,200,200,100,100,300],"left_num":[8,5,4,1,11,3,1,5,3,7,13,2,7,13,1,13,13,13,12,20,7,7,9,2,1,1,1,2,17,6,15,12,20,8,11,3,6,1,2,21,17,10,14,13,4,18,8,7,6,13,7,3,4,11,6,3,12,11,10,3,3,7,7,1,1,4,10,3,7,1,7,7,8,3,2,9,24,2,5,7,3,15,21,6,5,4,6,15,13,15,12,3,13,13,3,10,8,6,13,1,1,6,20,1,17,4,10,4,13,8,7,6,1,7,13,3,6,4,9,1],"right_num":[2,14,2,2,2,14,2,14,9,8,6,6,18,14,8,12,12,12,9,8,15,2,20,12,7,8,3,6,10,7,13,2,9,2,3,4,7,3,6,2,10,3,6,12,13,9,2,6,5,6,8,4,14,4,7,1,13,3,9,2,11,8,15,3,18,6,9,11,2,11,6,14,14,4,11,8,8,12,7,4,1,13,2,7,14,15,3,4,14,13,6,7,12,12,11,9,1,3,6,11,2,3,9,3,10,8,3,2,12,2,6,3,18,8,12,11,7,6,14,2],"left_den":[16,10,5,2,22,10,2,10,12,10,26,4,15,26,2,26,26,26,24,25,14,21,10,10,20,2,2,4,30,10,25,30,25,15,20,6,12,2,4,30,30,25,30,26,20,20,16,15,20,26,10,6,6,22,10,10,30,20,25,6,12,10,14,2,2,5,25,12,21,5,15,10,10,20,5,15,30,10,25,15,10,25,30,12,10,10,20,25,26,25,15,10,26,26,12,25,16,15,26,5,3,20,25,5,30,5,25,20,26,16,15,20,2,10,26,4,12,8,15,2],"right_den":[5,20,4,10,10,28,10,20,20,16,10,30,27,20,20,15,15,15,15,16,25,15,25,24,20,20,10,30,15,14,26,4,18,6,4,10,10,10,15,4,15,10,9,15,26,15,5,9,25,10,20,5,30,10,14,2,26,4,18,5,20,20,25,15,30,12,18,20,15,22,9,28,28,16,22,10,16,24,14,6,2,26,4,10,20,30,6,10,20,26,10,14,15,20,20,18,5,15,10,22,15,6,18,6,15,16,10,4,15,5,9,6,30,20,15,20,10,10,28,10],"correct_side":[1,2,1,1,1,2,1,2,2,1,2,1,2,2,1,2,2,2,2,1,2,1,1,2,2,1,1,1,2,1,1,2,1,1,2,1,2,1,1,1,2,1,2,2,2,1,1,2,1,2,1,2,1,1,1,2,2,2,2,1,2,1,2,1,2,1,2,2,1,2,2,1,1,2,2,2,1,2,2,2,2,1,1,2,2,2,2,1,2,1,1,2,2,2,2,2,1,1,2,2,1,2,1,2,2,1,1,2,2,1,2,2,2,1,2,1,2,2,1,1],"img_shown":["img2/100/Congruent/L/C_Dist_100_LN_8_LD_16_RN_2_RD_5_0.png","img2/200/Congruent/R/C_Dist_200_LN_5_LD_10_RN_14_RD_20_1.png","img2/300/Congruent/L/C_Dist_300_LN_4_LD_5_RN_2_RD_4_0.png","img2/300/Incongruent/L/I_Dist_300_LN_1_LD_2_RN_2_RD_10_0.png","img2/300/Congruent/L/C_Dist_300_LN_11_LD_22_RN_2_RD_10_0.png","img2/200/Congruent/R/C_Dist_200_LN_3_LD_10_RN_14_RD_28_1.png","img2/300/Incongruent/L/I_Dist_300_LN_1_LD_2_RN_2_RD_10_0.png","img2/200/Congruent/R/C_Dist_200_LN_5_LD_10_RN_14_RD_20_1.png","img2/200/Congruent/R/C_Dist_200_LN_3_LD_12_RN_9_RD_20_1.png","img2/200/Incongruent/L/I_Dist_200_LN_7_LD_10_RN_8_RD_16_0.png","img2/100/Incongruent/R/I_Dist_100_LN_13_LD_26_RN_6_RD_10_1.png","img2/300/Incongruent/L/I_Dist_300_LN_2_LD_4_RN_6_RD_30_0.png","img2/200/Congruent/R/C_Dist_200_LN_7_LD_15_RN_18_RD_27_1.png","img2/200/Congruent/R/C_Dist_200_LN_13_LD_26_RN_14_RD_20_1.png","img2/100/Incongruent/L/I_Dist_100_LN_1_LD_2_RN_8_RD_20_0.png","img2/300/Incongruent/R/I_Dist_300_LN_13_LD_26_RN_12_RD_15_1.png","img2/300/Incongruent/R/I_Dist_300_LN_13_LD_26_RN_12_RD_15_1.png","img2/300/Incongruent/R/I_Dist_300_LN_13_LD_26_RN_12_RD_15_1.png","img2/100/Incongruent/R/I_Dist_100_LN_12_LD_24_RN_9_RD_15_1.png","img2/300/Congruent/L/C_Dist_300_LN_20_LD_25_RN_8_RD_16_0.png","img2/100/Congruent/R/C_Dist_100_LN_7_LD_14_RN_15_RD_25_1.png","img2/200/Congruent/L/C_Dist_200_LN_7_LD_21_RN_2_RD_15_0.png","img2/100/Incongruent/L/I_Dist_100_LN_9_LD_10_RN_20_RD_25_0.png","img2/300/Congruent/R/C_Dist_300_LN_2_LD_10_RN_12_RD_24_1.png","img2/300/Congruent/R/C_Dist_300_LN_1_LD_20_RN_7_RD_20_1.png","img2/100/Incongruent/L/I_Dist_100_LN_1_LD_2_RN_8_RD_20_0.png","img2/200/Incongruent/L/I_Dist_200_LN_1_LD_2_RN_3_RD_10_0.png","img2/300/Incongruent/L/I_Dist_300_LN_2_LD_4_RN_6_RD_30_0.png","img2/100/Incongruent/R/I_Dist_100_LN_17_LD_30_RN_10_RD_15_1.png","img2/100/Incongruent/L/I_Dist_100_LN_6_LD_10_RN_7_RD_14_0.png","img2/100/Congruent/L/C_Dist_100_LN_15_LD_25_RN_13_RD_26_0.png","img2/100/Incongruent/R/I_Dist_100_LN_12_LD_30_RN_2_RD_4_1.png","img2/300/Congruent/L/C_Dist_300_LN_20_LD_25_RN_9_RD_18_0.png","img2/200/Congruent/L/C_Dist_200_LN_8_LD_15_RN_2_RD_6_0.png","img2/200/Incongruent/R/I_Dist_200_LN_11_LD_20_RN_3_RD_4_1.png","img2/100/Incongruent/L/I_Dist_100_LN_3_LD_6_RN_4_RD_10_0.png","img2/200/Congruent/R/C_Dist_200_LN_6_LD_12_RN_7_RD_10_1.png","img2/200/Incongruent/L/I_Dist_200_LN_1_LD_2_RN_3_RD_10_0.png","img2/100/Incongruent/L/I_Dist_100_LN_2_LD_4_RN_6_RD_15_0.png","img2/200/Congruent/L/C_Dist_200_LN_21_LD_30_RN_2_RD_4_0.png","img2/100/Incongruent/R/I_Dist_100_LN_17_LD_30_RN_10_RD_15_1.png","img2/100/Congruent/L/C_Dist_100_LN_10_LD_25_RN_3_RD_10_0.png","img2/200/Incongruent/R/I_Dist_200_LN_14_LD_30_RN_6_RD_9_1.png","img2/300/Incongruent/R/I_Dist_300_LN_13_LD_26_RN_12_RD_15_1.png","img2/300/Congruent/R/C_Dist_300_LN_4_LD_20_RN_13_RD_26_1.png","img2/300/Congruent/L/C_Dist_300_LN_18_LD_20_RN_9_RD_15_0.png","img2/100/Congruent/L/C_Dist_100_LN_8_LD_16_RN_2_RD_5_0.png","img2/200/Incongruent/R/I_Dist_200_LN_7_LD_15_RN_6_RD_9_1.png","img2/100/Congruent/L/C_Dist_100_LN_6_LD_20_RN_5_RD_25_0.png","img2/100/Incongruent/R/I_Dist_100_LN_13_LD_26_RN_6_RD_10_1.png","img2/300/Incongruent/L/I_Dist_300_LN_7_LD_10_RN_8_RD_20_0.png","img2/300/Congruent/R/C_Dist_300_LN_3_LD_6_RN_4_RD_5_1.png","img2/200/Incongruent/L/I_Dist_200_LN_4_LD_6_RN_14_RD_30_0.png","img2/100/Congruent/L/C_Dist_100_LN_11_LD_22_RN_4_RD_10_0.png","img2/100/Incongruent/L/I_Dist_100_LN_6_LD_10_RN_7_RD_14_0.png","img2/200/Incongruent/R/I_Dist_200_LN_3_LD_10_RN_1_RD_2_1.png","img2/100/Congruent/R/C_Dist_100_LN_12_LD_30_RN_13_RD_26_1.png","img2/200/Incongruent/R/I_Dist_200_LN_11_LD_20_RN_3_RD_4_1.png","img2/100/Incongruent/R/I_Dist_100_LN_10_LD_25_RN_9_RD_18_1.png","img2/100/Congruent/L/C_Dist_100_LN_3_LD_6_RN_2_RD_5_0.png","img2/300/Congruent/R/C_Dist_300_LN_3_LD_12_RN_11_RD_20_1.png","img2/300/Incongruent/L/I_Dist_300_LN_7_LD_10_RN_8_RD_20_0.png","img2/100/Congruent/R/C_Dist_100_LN_7_LD_14_RN_15_RD_25_1.png","img2/300/Incongruent/L/I_Dist_300_LN_1_LD_2_RN_3_RD_15_0.png","img2/100/Congruent/R/C_Dist_100_LN_1_LD_2_RN_18_RD_30_1.png","img2/300/Incongruent/L/I_Dist_300_LN_4_LD_5_RN_6_RD_12_0.png","img2/100/Incongruent/R/I_Dist_100_LN_10_LD_25_RN_9_RD_18_1.png","img2/300/Congruent/R/C_Dist_300_LN_3_LD_12_RN_11_RD_20_1.png","img2/200/Congruent/L/C_Dist_200_LN_7_LD_21_RN_2_RD_15_0.png","img2/300/Congruent/R/C_Dist_300_LN_1_LD_5_RN_11_RD_22_1.png","img2/200/Incongruent/R/I_Dist_200_LN_7_LD_15_RN_6_RD_9_1.png","img2/200/Incongruent/L/I_Dist_200_LN_7_LD_10_RN_14_RD_28_0.png","img2/300/Incongruent/L/I_Dist_300_LN_8_LD_10_RN_14_RD_28_0.png","img2/100/Congruent/R/C_Dist_100_LN_3_LD_20_RN_4_RD_16_1.png","img2/100/Congruent/R/C_Dist_100_LN_2_LD_5_RN_11_RD_22_1.png","img2/200/Incongruent/R/I_Dist_200_LN_9_LD_15_RN_8_RD_10_1.png","img2/300/Congruent/L/C_Dist_300_LN_24_LD_30_RN_8_RD_16_0.png","img2/300/Congruent/R/C_Dist_300_LN_2_LD_10_RN_12_RD_24_1.png","img2/300/Congruent/R/C_Dist_300_LN_5_LD_25_RN_7_RD_14_1.png","img2/200/Incongruent/R/I_Dist_200_LN_7_LD_15_RN_4_RD_6_1.png","img2/200/Incongruent/R/I_Dist_200_LN_3_LD_10_RN_1_RD_2_1.png","img2/100/Congruent/L/C_Dist_100_LN_15_LD_25_RN_13_RD_26_0.png","img2/200/Congruent/L/C_Dist_200_LN_21_LD_30_RN_2_RD_4_0.png","img2/200/Congruent/R/C_Dist_200_LN_6_LD_12_RN_7_RD_10_1.png","img2/200/Congruent/R/C_Dist_200_LN_5_LD_10_RN_14_RD_20_1.png","img2/100/Congruent/R/C_Dist_100_LN_4_LD_10_RN_15_RD_30_1.png","img2/200/Incongruent/R/I_Dist_200_LN_6_LD_20_RN_3_RD_6_1.png","img2/200/Congruent/L/C_Dist_200_LN_15_LD_25_RN_4_RD_10_0.png","img2/200/Congruent/R/C_Dist_200_LN_13_LD_26_RN_14_RD_20_1.png","img2/100/Congruent/L/C_Dist_100_LN_15_LD_25_RN_13_RD_26_0.png","img2/200/Congruent/L/C_Dist_200_LN_12_LD_15_RN_6_RD_10_0.png","img2/200/Congruent/R/C_Dist_200_LN_3_LD_10_RN_7_RD_14_1.png","img2/300/Incongruent/R/I_Dist_300_LN_13_LD_26_RN_12_RD_15_1.png","img2/100/Incongruent/R/I_Dist_100_LN_13_LD_26_RN_12_RD_20_1.png","img2/300/Congruent/R/C_Dist_300_LN_3_LD_12_RN_11_RD_20_1.png","img2/100/Incongruent/R/I_Dist_100_LN_10_LD_25_RN_9_RD_18_1.png","img2/300/Congruent/L/C_Dist_300_LN_8_LD_16_RN_1_RD_5_0.png","img2/200/Congruent/L/C_Dist_200_LN_6_LD_15_RN_3_RD_15_0.png","img2/100/Incongruent/R/I_Dist_100_LN_13_LD_26_RN_6_RD_10_1.png","img2/300/Congruent/R/C_Dist_300_LN_1_LD_5_RN_11_RD_22_1.png","img2/200/Incongruent/L/I_Dist_200_LN_1_LD_3_RN_2_RD_15_0.png","img2/200/Incongruent/R/I_Dist_200_LN_6_LD_20_RN_3_RD_6_1.png","img2/300/Congruent/L/C_Dist_300_LN_20_LD_25_RN_9_RD_18_0.png","img2/300/Congruent/R/C_Dist_300_LN_1_LD_5_RN_3_RD_6_1.png","img2/100/Incongruent/R/I_Dist_100_LN_17_LD_30_RN_10_RD_15_1.png","img2/300/Incongruent/L/I_Dist_300_LN_4_LD_5_RN_8_RD_16_0.png","img2/100/Congruent/L/C_Dist_100_LN_10_LD_25_RN_3_RD_10_0.png","img2/300/Incongruent/R/I_Dist_300_LN_4_LD_20_RN_2_RD_4_1.png","img2/300/Incongruent/R/I_Dist_300_LN_13_LD_26_RN_12_RD_15_1.png","img2/100/Congruent/L/C_Dist_100_LN_8_LD_16_RN_2_RD_5_0.png","img2/200/Incongruent/R/I_Dist_200_LN_7_LD_15_RN_6_RD_9_1.png","img2/200/Incongruent/R/I_Dist_200_LN_6_LD_20_RN_3_RD_6_1.png","img2/100/Congruent/R/C_Dist_100_LN_1_LD_2_RN_18_RD_30_1.png","img2/300/Incongruent/L/I_Dist_300_LN_7_LD_10_RN_8_RD_20_0.png","img2/300/Incongruent/R/I_Dist_300_LN_13_LD_26_RN_12_RD_15_1.png","img2/200/Incongruent/L/I_Dist_200_LN_3_LD_4_RN_11_RD_20_0.png","img2/200/Congruent/R/C_Dist_200_LN_6_LD_12_RN_7_RD_10_1.png","img2/100/Congruent/R/C_Dist_100_LN_4_LD_8_RN_6_RD_10_1.png","img2/100/Incongruent/L/I_Dist_100_LN_9_LD_15_RN_14_RD_28_0.png","img2/300/Incongruent/L/I_Dist_300_LN_1_LD_2_RN_2_RD_10_0.png"],"dist100_C":[["C_Dist_100_LN_10_LD_25_RN_3_RD_10_0.png","C_Dist_100_LN_11_LD_22_RN_4_RD_10_0.png","C_Dist_100_LN_11_LD_22_RN_6_RD_15_0.png","C_Dist_100_LN_15_LD_25_RN_13_RD_26_0.png","C_Dist_100_LN_3_LD_6_RN_2_RD_5_0.png","C_Dist_100_LN_6_LD_20_RN_5_RD_25_0.png","C_Dist_100_LN_8_LD_16_RN_2_RD_5_0.png","C_Dist_100_LN_9_LD_15_RN_8_RD_16_0.png"],["C_Dist_100_LN_1_LD_2_RN_18_RD_30_1.png","C_Dist_100_LN_1_LD_2_RN_3_RD_5_1.png","C_Dist_100_LN_12_LD_30_RN_13_RD_26_1.png","C_Dist_100_LN_2_LD_5_RN_11_RD_22_1.png","C_Dist_100_LN_2_LD_5_RN_6_RD_12_1.png","C_Dist_100_LN_3_LD_20_RN_4_RD_16_1.png","C_Dist_100_LN_4_LD_10_RN_15_RD_30_1.png","C_Dist_100_LN_4_LD_8_RN_6_RD_10_1.png","C_Dist_100_LN_6_LD_12_RN_15_RD_25_1.png","C_Dist_100_LN_7_LD_14_RN_15_RD_25_1.png","C_Dist_100_LN_7_LD_14_RN_9_RD_15_1.png"]],"dist100_I":[["I_Dist_100_LN_1_LD_2_RN_8_RD_20_0.png","I_Dist_100_LN_2_LD_4_RN_6_RD_15_0.png","I_Dist_100_LN_2_LD_4_RN_8_RD_20_0.png","I_Dist_100_LN_3_LD_5_RN_11_RD_22_0.png","I_Dist_100_LN_3_LD_5_RN_8_RD_16_0.png","I_Dist_100_LN_3_LD_6_RN_4_RD_10_0.png","I_Dist_100_LN_3_LD_9_RN_7_RD_30_0.png","I_Dist_100_LN_4_LD_8_RN_8_RD_20_0.png","I_Dist_100_LN_6_LD_10_RN_11_RD_22_0.png","I_Dist_100_LN_6_LD_10_RN_13_RD_26_0.png","I_Dist_100_LN_6_LD_10_RN_7_RD_14_0.png","I_Dist_100_LN_9_LD_10_RN_20_RD_25_0.png","I_Dist_100_LN_9_LD_15_RN_13_RD_26_0.png","I_Dist_100_LN_9_LD_15_RN_14_RD_28_0.png"],["I_Dist_100_LN_10_LD_25_RN_8_RD_16_1.png","I_Dist_100_LN_10_LD_25_RN_9_RD_18_1.png","I_Dist_100_LN_11_LD_22_RN_9_RD_15_1.png","I_Dist_100_LN_12_LD_24_RN_9_RD_15_1.png","I_Dist_100_LN_12_LD_30_RN_2_RD_4_1.png","I_Dist_100_LN_13_LD_26_RN_12_RD_20_1.png","I_Dist_100_LN_13_LD_26_RN_6_RD_10_1.png","I_Dist_100_LN_17_LD_30_RN_10_RD_15_1.png","I_Dist_100_LN_6_LD_12_RN_3_RD_5_1.png","I_Dist_100_LN_8_LD_16_RN_6_RD_10_1.png","I_Dist_100_LN_8_LD_20_RN_1_RD_2_1.png","I_Dist_100_LN_9_LD_18_RN_6_RD_10_1.png"]],"dist100_S":[["E_Dist_100_LN_2_LD_12_RN_2_RD_30_0.png","E_Dist_100_LN_6_LD_10_RN_6_RD_12_0.png"],["E_Dist_100_LN_6_LD_12_RN_6_RD_10_1.png"]],"dist200_C":[["C_Dist_200_LN_11_LD_22_RN_3_RD_10_0.png","C_Dist_200_LN_12_LD_15_RN_6_RD_10_0.png","C_Dist_200_LN_12_LD_20_RN_6_RD_15_0.png","C_Dist_200_LN_14_LD_28_RN_6_RD_20_0.png","C_Dist_200_LN_15_LD_25_RN_4_RD_10_0.png","C_Dist_200_LN_16_LD_20_RN_12_RD_20_0.png","C_Dist_200_LN_16_LD_30_RN_9_RD_27_0.png","C_Dist_200_LN_20_LD_25_RN_9_RD_15_0.png","C_Dist_200_LN_21_LD_30_RN_2_RD_4_0.png","C_Dist_200_LN_4_LD_10_RN_3_RD_15_0.png","C_Dist_200_LN_4_LD_8_RN_3_RD_10_0.png","C_Dist_200_LN_6_LD_15_RN_3_RD_15_0.png","C_Dist_200_LN_7_LD_21_RN_2_RD_15_0.png","C_Dist_200_LN_8_LD_15_RN_2_RD_6_0.png","C_Dist_200_LN_8_LD_15_RN_3_RD_9_0.png","C_Dist_200_LN_8_LD_15_RN_7_RD_21_0.png","C_Dist_200_LN_9_LD_20_RN_4_RD_16_0.png"],["C_Dist_200_LN_1_LD_2_RN_21_RD_30_1.png","C_Dist_200_LN_13_LD_26_RN_14_RD_20_1.png","C_Dist_200_LN_3_LD_10_RN_11_RD_22_1.png","C_Dist_200_LN_3_LD_10_RN_14_RD_28_1.png","C_Dist_200_LN_3_LD_10_RN_7_RD_14_1.png","C_Dist_200_LN_3_LD_12_RN_9_RD_20_1.png","C_Dist_200_LN_3_LD_6_RN_14_RD_20_1.png","C_Dist_200_LN_5_LD_10_RN_14_RD_20_1.png","C_Dist_200_LN_6_LD_12_RN_7_RD_10_1.png","C_Dist_200_LN_6_LD_20_RN_11_RD_22_1.png","C_Dist_200_LN_7_LD_15_RN_18_RD_27_1.png","C_Dist_200_LN_9_LD_30_RN_13_RD_26_1.png"]],"dist200_I":[["I_Dist_200_LN_1_LD_2_RN_3_RD_10_0.png","I_Dist_200_LN_1_LD_3_RN_2_RD_15_0.png","I_Dist_200_LN_3_LD_4_RN_11_RD_20_0.png","I_Dist_200_LN_4_LD_5_RN_6_RD_10_0.png","I_Dist_200_LN_4_LD_6_RN_14_RD_30_0.png","I_Dist_200_LN_7_LD_10_RN_12_RD_24_0.png","I_Dist_200_LN_7_LD_10_RN_14_RD_28_0.png","I_Dist_200_LN_7_LD_10_RN_8_RD_16_0.png"],["I_Dist_200_LN_11_LD_20_RN_3_RD_4_1.png","I_Dist_200_LN_14_LD_30_RN_12_RD_18_1.png","I_Dist_200_LN_14_LD_30_RN_6_RD_9_1.png","I_Dist_200_LN_3_LD_10_RN_1_RD_2_1.png","I_Dist_200_LN_4_LD_30_RN_1_RD_3_1.png","I_Dist_200_LN_6_LD_20_RN_3_RD_6_1.png","I_Dist_200_LN_7_LD_15_RN_4_RD_6_1.png","I_Dist_200_LN_7_LD_15_RN_6_RD_9_1.png","I_Dist_200_LN_9_LD_15_RN_8_RD_10_1.png"]],"dist200_S":[["E_Dist_200_LN_3_LD_6_RN_3_RD_10_0.png"],["E_Dist_200_LN_3_LD_10_RN_3_RD_6_1.png"]],"dist300_C":[["C_Dist_300_LN_11_LD_22_RN_1_RD_5_0.png","C_Dist_300_LN_11_LD_22_RN_2_RD_10_0.png","C_Dist_300_LN_11_LD_22_RN_4_RD_20_0.png","C_Dist_300_LN_12_LD_24_RN_2_RD_10_0.png","C_Dist_300_LN_18_LD_20_RN_9_RD_15_0.png","C_Dist_300_LN_20_LD_25_RN_13_RD_26_0.png","C_Dist_300_LN_20_LD_25_RN_14_RD_28_0.png","C_Dist_300_LN_20_LD_25_RN_5_RD_10_0.png","C_Dist_300_LN_20_LD_25_RN_8_RD_16_0.png","C_Dist_300_LN_20_LD_25_RN_9_RD_18_0.png","C_Dist_300_LN_24_LD_30_RN_2_RD_4_0.png","C_Dist_300_LN_24_LD_30_RN_8_RD_16_0.png","C_Dist_300_LN_3_LD_6_RN_2_RD_10_0.png","C_Dist_300_LN_4_LD_10_RN_1_RD_10_0.png","C_Dist_300_LN_4_LD_5_RN_2_RD_4_0.png","C_Dist_300_LN_8_LD_16_RN_1_RD_5_0.png","C_Dist_300_LN_9_LD_10_RN_3_RD_5_0.png"],["C_Dist_300_LN_1_LD_20_RN_7_RD_20_1.png","C_Dist_300_LN_1_LD_3_RN_19_RD_30_1.png","C_Dist_300_LN_1_LD_30_RN_8_RD_24_1.png","C_Dist_300_LN_1_LD_5_RN_11_RD_22_1.png","C_Dist_300_LN_1_LD_5_RN_3_RD_6_1.png","C_Dist_300_LN_1_LD_5_RN_6_RD_12_1.png","C_Dist_300_LN_2_LD_10_RN_12_RD_24_1.png","C_Dist_300_LN_2_LD_20_RN_10_RD_25_1.png","C_Dist_300_LN_3_LD_12_RN_11_RD_20_1.png","C_Dist_300_LN_3_LD_6_RN_4_RD_5_1.png","C_Dist_300_LN_4_LD_20_RN_13_RD_26_1.png","C_Dist_300_LN_5_LD_25_RN_6_RD_12_1.png","C_Dist_300_LN_5_LD_25_RN_7_RD_14_1.png","C_Dist_300_LN_7_LD_14_RN_20_RD_25_1.png","C_Dist_300_LN_8_LD_15_RN_10_RD_12_1.png"]],"dist300_I":[["I_Dist_300_LN_1_LD_2_RN_2_RD_10_0.png","I_Dist_300_LN_1_LD_2_RN_3_RD_15_0.png","I_Dist_300_LN_2_LD_4_RN_6_RD_30_0.png","I_Dist_300_LN_3_LD_6_RN_4_RD_20_0.png","I_Dist_300_LN_4_LD_5_RN_6_RD_12_0.png","I_Dist_300_LN_4_LD_5_RN_8_RD_16_0.png","I_Dist_300_LN_7_LD_10_RN_8_RD_20_0.png","I_Dist_300_LN_8_LD_10_RN_14_RD_28_0.png","I_Dist_300_LN_8_LD_10_RN_9_RD_18_0.png"],["I_Dist_300_LN_13_LD_26_RN_12_RD_15_1.png","I_Dist_300_LN_4_LD_20_RN_2_RD_4_1.png"]],"dist300_S":[["E_Dist_300_LN_9_LD_12_RN_9_RD_20_0.png"],["E_Dist_300_LN_18_LD_30_RN_18_RD_20_1.png","E_Dist_300_LN_3_LD_10_RN_3_RD_5_1.png","E_Dist_300_LN_9_LD_20_RN_9_RD_12_1.png"]],"dist500_C":[["C_Dist_500_LN_10_LD_13_RN_7_RD_26_0.png","C_Dist_500_LN_10_LD_15_RN_4_RD_24_0.png","C_Dist_500_LN_12_LD_16_RN_3_RD_12_0.png","C_Dist_500_LN_12_LD_18_RN_4_RD_24_0.png","C_Dist_500_LN_15_LD_18_RN_5_RD_15_0.png","C_Dist_500_LN_15_LD_20_RN_1_RD_4_0.png","C_Dist_500_LN_18_LD_27_RN_1_RD_6_0.png","C_Dist_500_LN_20_LD_24_RN_1_RD_3_0.png","C_Dist_500_LN_20_LD_24_RN_3_RD_9_0.png","C_Dist_500_LN_20_LD_24_RN_7_RD_21_0.png","C_Dist_500_LN_20_LD_28_RN_3_RD_14_0.png","C_Dist_500_LN_21_LD_28_RN_6_RD_24_0.png","C_Dist_500_LN_22_LD_28_RN_2_RD_7_0.png","C_Dist_500_LN_25_LD_30_RN_9_RD_27_0.png","C_Dist_500_LN_4_LD_6_RN_1_RD_6_0.png","C_Dist_500_LN_5_LD_6_RN_2_RD_6_0.png","C_Dist_500_LN_6_LD_9_RN_1_RD_6_0.png","C_Dist_500_LN_7_LD_10_RN_1_RD_5_0.png","C_Dist_500_LN_8_LD_12_RN_1_RD_6_0.png","C_Dist_500_LN_8_LD_12_RN_4_RD_24_0.png"],["C_Dist_500_LN_1_LD_4_RN_12_RD_16_1.png","C_Dist_500_LN_1_LD_4_RN_9_RD_12_1.png","C_Dist_500_LN_1_LD_9_RN_11_RD_18_1.png","C_Dist_500_LN_10_LD_24_RN_22_RD_24_1.png","C_Dist_500_LN_2_LD_12_RN_10_RD_15_1.png","C_Dist_500_LN_2_LD_12_RN_12_RD_18_1.png","C_Dist_500_LN_2_LD_12_RN_4_RD_6_1.png","C_Dist_500_LN_2_LD_24_RN_7_RD_12_1.png","C_Dist_500_LN_2_LD_5_RN_18_RD_20_1.png","C_Dist_500_LN_2_LD_5_RN_9_RD_10_1.png","C_Dist_500_LN_2_LD_8_RN_12_RD_16_1.png","C_Dist_500_LN_2_LD_8_RN_21_RD_28_1.png","C_Dist_500_LN_3_LD_10_RN_4_RD_5_1.png","C_Dist_500_LN_3_LD_12_RN_15_RD_20_1.png","C_Dist_500_LN_3_LD_30_RN_6_RD_10_1.png","C_Dist_500_LN_3_LD_8_RN_14_RD_16_1.png","C_Dist_500_LN_4_LD_16_RN_15_RD_20_1.png","C_Dist_500_LN_4_LD_24_RN_12_RD_18_1.png","C_Dist_500_LN_5_LD_14_RN_6_RD_7_1.png","C_Dist_500_LN_7_LD_21_RN_20_RD_24_1.png","C_Dist_500_LN_7_LD_28_RN_12_RD_16_1.png","C_Dist_500_LN_7_LD_28_RN_9_RD_12_1.png","C_Dist_500_LN_9_LD_27_RN_20_RD_24_1.png"]],"dist500_I":[["I_Dist_500_LN_2_LD_3_RN_4_RD_24_0.png","I_Dist_500_LN_5_LD_6_RN_6_RD_18_0.png","I_Dist_500_LN_7_LD_8_RN_9_RD_24_0.png"],["I_Dist_500_LN_7_LD_21_RN_5_RD_6_1.png"]],"dist500_S":[["E_Dist_500_LN_6_LD_8_RN_6_RD_24_0.png"],["E_Dist_500_LN_2_LD_12_RN_2_RD_3_1.png","E_Dist_500_LN_6_LD_24_RN_6_RD_8_1.png"]]}},{"start_time":1551892436252,"click_time":1551892437789,"finger_time":1551892436927,"fix_duration":861.7008470949075,"trial":1,"RT":675,"MT":862,"sideResp":2,"stimulus":[],"xmouse":[762,762,759,759,758,758,758,758,758,758,758,758,758,758,758,758,758,758,758,758,758,758,758,758,758,758,758,758,758,758,758,758,758,758,751,742,687,637,607,600,600,600,601,603,604,606,609,611,614,617,620,624,624,625,626,626,626,626,626,626,626,626,650,701,753,818,954,1000,1033,1054,1062,1063,1063,1063,1068,1084,1111],"ymouse":[609,609,617,619,619,619,619,619,619,619,619,619,619,619,619,619,619,619,619,619,619,619,614,608,604,600,598,598,598,598,597,597,587,562,536,508,419,341,273,242,212,166,146,140,136,132,123,116,110,103,95,81,69,66,65,65,65,65,65,65,65,65,70,84,97,108,125,125,125,125,125,125,125,125,122,106,73],"timestamp_mouse":[17,36,56,75,96,117,137,156,176,197,216,236,256,276,296,316,336,356,376,396,416,437,456,475,496,516,536,556,576,596,616,635,657,675,696,716,736,756,775,796,816,836,856,876,897,916,936,958,976,996,1017,1036,1056,1075,1096,1116,1136,1156,1176,1197,1216,1236,1256,1276,1297,1316,1336,1357,1376,1396,1415,1437,1457,1475,1496,1515,1536],"xSR":741.5,"ySR":573.95,"xT1":424.9,"yT1":0,"xT2":1058.1,"yT2":0,"toosoon":0,"cond_shown":"Congruent","ratio_trial":200,"L_num":5,"L_den":10,"R_num":14,"R_den":20,"correct_side":2,"subjID":"maeocastiblanco36","gender":"0","school":"6","age":"11"},{"start_time":1551892440058,"click_time":1551892440828,"finger_time":1551892440229,"fix_duration":808.2554189973431,"trial":2,"RT":171,"MT":599,"sideResp":1,"stimulus":[],"xmouse":[784,763,753,751,750,750,749,745,739,731,724,713,710,707,704,698,692,691,691,691,691,691,691,691,691,691,691,691,691,691,690,674,655,613,573,540,503,495,492],"ymouse":[621,597,587,585,584,584,582,577,570,562,551,517,507,492,481,470,456,454,454,454,454,454,454,454,454,454,454,454,454,454,452,435,418,376,335,290,185,130,91],"timestamp_mouse":[11,42,51,70,91,111,130,150,171,190,210,230,250,270,291,310,331,351,370,390,409,430,451,470,491,511,530,551,570,590,611,631,650,670,690,710,730,751,770],"xSR":741.5,"ySR":573.95,"xT1":424.9,"yT1":0,"xT2":1058.1,"yT2":0,"toosoon":0,"cond_shown":"Congruent","ratio_trial":300,"L_num":4,"L_den":5,"R_num":2,"R_den":4,"correct_side":1,"subjID":"maeocastiblanco36","gender":"0","school":"6","age":"11"},{"start_time":1551892446668,"click_time":1551892448588,"finger_time":1551892447168,"fix_duration":1478.9781111952425,"trial":3,"RT":500,"MT":1420,"sideResp":1,"stimulus":[],"xmouse":[797,797,797,797,797,797,797,797,797,797,797,797,797,797,797,797,797,797,797,797,797,797,799,800,802,804,805,806,806,806,808,811,815,817,820,824,829,832,836,840,844,855,866,878,891,907,949,969,991,1011,1026,1047,1053,1056,1057,1058,1059,1060,1060,1060,1062,1065,1068,1069,1069,1069,1069,1069,1069,1065,1044,943,824,741,646,559,407,365,351,346,345,345,345,345,345,345,345,345,345,351,360,384,397,410,415,422,432],"ymouse":[593,593,593,593,593,593,593,593,593,593,593,593,593,593,593,593,593,593,593,593,593,593,589,582,577,571,566,564,562,560,557,548,540,535,530,524,514,510,503,496,488,468,452,436,418,395,326,293,260,232,211,179,167,161,158,155,153,152,150,148,143,132,123,118,116,116,116,116,115,115,116,141,161,170,170,158,103,87,77,73,72,72,72,72,72,72,72,72,71,70,68,65,64,62,62,59,58],"timestamp_mouse":[8,36,40,61,81,100,121,140,161,179,201,221,240,260,280,300,320,341,360,381,401,419,440,460,481,500,519,541,560,580,601,620,640,660,680,700,720,740,760,780,800,820,840,860,881,900,920,939,960,980,1001,1020,1040,1060,1080,1100,1121,1139,1161,1180,1200,1220,1240,1261,1280,1301,1320,1340,1360,1381,1400,1420,1441,1460,1481,1501,1520,1540,1560,1580,1601,1621,1640,1661,1680,1700,1721,1740,1761,1780,1801,1819,1840,1860,1880,1901,1920],"xSR":741.5,"ySR":573.95,"xT1":424.9,"yT1":0,"xT2":1058.1,"yT2":0,"toosoon":0,"cond_shown":"Incongruent","ratio_trial":300,"L_num":1,"L_den":2,"R_num":2,"R_den":10,"correct_side":1,"subjID":"maeocastiblanco36","gender":"0","school":"6","age":"11"},{"start_time":1551892456778,"click_time":1551892458568,"finger_time":1551892458129,"fix_duration":1328.0415900337898,"trial":4,"RT":1351,"MT":439,"sideResp":1,"stimulus":[],"xmouse":[794,794,794,794,794,794,794,794,794,794,794,794,794,794,794,794,794,794,794,794,794,794,794,794,794,794,794,794,794,794,794,794,794,794,794,794,794,794,794,794,794,794,794,794,794,794,794,794,794,794,794,794,794,794,794,794,794,794,794,794,794,794,794,794,796,798,808,816,823,828,832,833,833,833,833,833,833,832,818,781,655,606,576,556,541,511,494,473,459,452],"ymouse":[630,630,630,630,630,630,630,630,630,630,630,630,630,630,630,630,630,630,630,630,630,630,630,630,630,630,630,630,630,630,630,630,630,630,630,630,630,630,630,630,630,630,630,630,630,630,630,630,630,630,630,630,630,630,630,630,630,630,630,630,630,630,630,630,626,615,587,571,556,544,531,528,527,526,525,523,523,516,502,470,378,344,316,296,272,206,168,125,100,87],"timestamp_mouse":[10,39,49,71,90,111,131,150,170,191,209,231,251,271,290,310,330,351,370,391,409,431,451,470,491,511,530,550,571,590,611,631,650,670,691,710,731,751,770,791,810,830,851,871,891,910,930,951,971,991,1011,1030,1051,1071,1091,1111,1130,1149,1171,1191,1210,1231,1251,1270,1290,1309,1330,1351,1371,1390,1410,1430,1450,1469,1490,1510,1531,1550,1571,1590,1610,1629,1650,1670,1690,1710,1730,1750,1771,1790],"xSR":741.5,"ySR":573.95,"xT1":424.9,"yT1":0,"xT2":1058.1,"yT2":0,"toosoon":0,"cond_shown":"Congruent","ratio_trial":300,"L_num":11,"L_den":22,"R_num":2,"R_den":10,"correct_side":1,"subjID":"maeocastiblanco36","gender":"0","school":"6","age":"11"},{"start_time":1551892461090,"click_time":1551892462168,"finger_time":1551892461848,"fix_duration":560.0340643559302,"trial":5,"RT":758,"MT":320,"sideResp":2,"stimulus":[],"xmouse":[778,778,778,778,778,778,778,778,778,778,778,778,778,778,778,778,778,778,778,778,778,778,778,778,778,778,778,779,780,780,780,780,780,780,782,786,794,810,832,893,935,959,973,985,992,992,993,996,999,1022,1028,1065,1093,1109],"ymouse":[621,621,621,621,621,621,621,621,621,621,621,621,621,621,621,621,621,621,621,621,621,621,621,621,621,621,622,624,626,626,626,626,626,626,621,605,577,539,491,384,312,277,256,240,230,230,229,226,222,191,181,133,101,84],"timestamp_mouse":[18,40,58,79,99,119,138,159,179,199,218,239,259,279,298,319,339,358,379,398,419,439,459,479,499,519,539,558,579,599,618,639,658,679,697,718,738,758,779,797,818,838,858,878,898,918,937,958,978,998,1018,1038,1059,1078],"xSR":741.5,"ySR":573.95,"xT1":424.9,"yT1":0,"xT2":1058.1,"yT2":0,"toosoon":0,"cond_shown":"Congruent","ratio_trial":200,"L_num":3,"L_den":10,"R_num":14,"R_den":28,"correct_side":2,"subjID":"maeocastiblanco36","gender":"0","school":"6","age":"11"},{"start_time":1551892464991,"click_time":1551892466468,"finger_time":1551892466068,"fix_duration":921.8133914157271,"trial":6,"RT":1077,"MT":400,"sideResp":1,"stimulus":[],"xmouse":[773,773,773,773,773,773,773,773,773,773,773,773,773,773,773,773,773,773,773,773,773,773,773,773,773,773,773,773,773,773,773,773,773,773,773,773,773,773,773,773,773,773,773,773,773,773,773,773,773,773,773,775,775,764,727,727,727,727,725,722,721,719,711,700,674,664,657,648,636,603,582,559,534,506],"ymouse":[612,612,612,612,612,612,612,612,612,612,612,612,612,612,612,612,612,612,612,612,612,612,612,612,612,612,612,612,612,612,612,612,612,612,612,612,612,612,612,612,612,612,612,612,612,612,612,612,612,612,612,596,575,515,346,294,252,230,213,202,201,200,193,185,165,153,145,135,125,108,101,95,88,80],"timestamp_mouse":[30,37,58,78,97,118,138,157,178,198,217,238,258,277,298,317,337,358,376,397,417,438,457,478,497,517,537,557,576,597,617,638,658,678,697,717,738,757,777,798,818,836,858,877,898,918,938,958,977,997,1018,1038,1057,1077,1097,1117,1137,1157,1177,1197,1218,1237,1257,1277,1297,1318,1337,1357,1377,1397,1417,1437,1457,1477],"xSR":741.5,"ySR":573.95,"xT1":424.9,"yT1":0,"xT2":1058.1,"yT2":0,"toosoon":0,"cond_shown":"Incongruent","ratio_trial":300,"L_num":1,"L_den":2,"R_num":2,"R_den":10,"correct_side":1,"subjID":"maeocastiblanco36","gender":"0","school":"6","age":"11"},{"start_time":1551892468000,"click_time":1551892469368,"finger_time":1551892468888,"fix_duration":250,"trial":7,"RT":888,"MT":480,"sideResp":2,"stimulus":[],"xmouse":[767,767,767,767,767,767,767,767,767,767,767,767,767,767,767,767,767,767,767,767,767,767,767,767,767,767,767,767,767,767,767,767,767,767,767,767,767,767,767,767,767,767,768,771,843,882,1000,1073,1124,1163,1169,1170,1170,1170,1170,1171,1173,1175,1176,1177,1177,1175,1173,1173,1173,1172,1167,1159,1150],"ymouse":[599,599,599,599,599,599,599,599,599,599,599,599,599,599,599,599,599,599,599,599,599,599,599,599,599,599,599,599,599,599,599,599,599,599,599,599,599,599,599,599,599,599,600,599,528,500,404,339,278,200,186,181,181,181,180,174,166,159,148,130,123,117,115,114,114,113,106,94,82],"timestamp_mouse":[10,37,48,69,89,109,128,147,168,188,208,229,249,269,288,308,328,348,368,389,408,429,449,469,489,508,529,548,569,588,609,628,649,669,689,708,728,749,769,788,809,829,848,868,888,909,929,948,968,988,1008,1028,1048,1069,1089,1108,1128,1148,1168,1188,1209,1228,1248,1268,1289,1309,1328,1348,1368],"xSR":741.5,"ySR":573.95,"xT1":424.9,"yT1":0,"xT2":1058.1,"yT2":0,"toosoon":0,"cond_shown":"Congruent","ratio_trial":200,"L_num":5,"L_den":10,"R_num":14,"R_den":20,"correct_side":2,"subjID":"maeocastiblanco36","gender":"0","school":"6","age":"11"},{"start_time":1551892472401,"click_time":1551892473708,"finger_time":1551892473008,"fix_duration":811.8802052490491,"trial":8,"RT":607,"MT":700,"sideResp":2,"stimulus":[],"xmouse":[803,803,803,803,803,803,803,803,803,803,803,803,803,803,803,803,803,803,803,803,803,803,803,803,803,803,803,803,803,804,808,814,818,821,822,822,822,822,822,822,822,822,822,822,822,822,822,822,824,836,845,859,879,902,956,978,997,1017,1028,1043,1048,1054,1064,1072,1083,1088],"ymouse":[585,585,585,585,585,585,585,585,585,585,585,585,585,585,585,585,585,585,585,585,585,585,585,585,585,585,585,585,585,580,572,562,554,549,547,547,547,547,547,547,547,547,547,547,547,547,547,545,537,508,489,465,430,392,313,280,252,220,203,179,170,155,141,126,108,98],"timestamp_mouse":[8,34,48,68,87,107,127,147,167,187,207,227,247,268,288,307,327,348,368,388,407,427,446,467,487,507,528,547,568,587,607,627,646,668,688,708,728,746,767,788,807,827,848,867,887,907,928,947,967,987,1007,1027,1047,1068,1086,1108,1127,1148,1167,1187,1207,1227,1247,1268,1286,1307],"xSR":741.5,"ySR":573.95,"xT1":424.9,"yT1":0,"xT2":1058.1,"yT2":0,"toosoon":0,"cond_shown":"Congruent","ratio_trial":200,"L_num":3,"L_den":12,"R_num":9,"R_den":20,"correct_side":2,"subjID":"maeocastiblanco36","gender":"0","school":"6","age":"11"},{"start_time":1551892476420,"click_time":1551892477988,"finger_time":1551892477309,"fix_duration":788.5031406901946,"trial":9,"RT":889,"MT":679,"sideResp":1,"stimulus":[],"xmouse":[810,810,810,810,810,810,810,810,810,810,810,810,810,810,810,810,810,810,810,810,810,810,810,810,810,810,810,810,810,810,810,810,810,810,810,810,810,810,810,810,810,810,810,812,805,779,763,757,757,757,757,757,757,757,757,757,757,757,754,746,727,699,664,624,618,616,609,602,582,561,541,529,527,524,517,511,506,502,496],"ymouse":[581,581,581,581,581,581,581,581,581,581,581,581,581,581,581,581,581,581,581,581,581,581,581,582,582,582,582,582,582,582,582,582,582,582,582,582,582,582,582,582,582,582,582,579,565,529,504,485,452,439,430,426,425,425,425,425,424,418,398,379,345,304,257,192,167,152,134,115,70,39,14,0,0,0,0,0,0,0,2],"timestamp_mouse":[8,36,49,68,88,108,128,147,167,189,208,228,247,267,288,309,328,347,369,388,409,427,449,468,488,508,528,549,567,587,607,628,648,668,687,707,728,748,768,788,809,828,847,868,889,908,928,948,968,989,1008,1028,1048,1069,1089,1109,1128,1148,1168,1188,1209,1228,1249,1268,1288,1308,1327,1347,1367,1389,1408,1428,1449,1468,1488,1508,1529,1548,1568],"xSR":741.5,"ySR":573.95,"xT1":424.9,"yT1":0,"xT2":1058.1,"yT2":0,"toosoon":0,"cond_shown":"Incongruent","ratio_trial":200,"L_num":7,"L_den":10,"R_num":8,"R_den":16,"correct_side":1,"subjID":"maeocastiblanco36","gender":"0","school":"6","age":"11"},{"start_time":1551892480395,"click_time":1551892482388,"finger_time":1551892481708,"fix_duration":485.3953189155997,"trial":10,"RT":1313,"MT":680,"sideResp":2,"stimulus":[],"xmouse":[781,781,781,781,781,781,781,781,781,781,781,781,781,781,781,781,781,781,781,781,781,781,781,781,781,781,781,781,781,781,781,781,781,781,781,781,781,781,781,781,781,781,781,781,781,781,782,782,782,783,783,783,783,783,783,783,783,783,783,783,784,784,784,784,787,791,796,805,815,841,857,874,892,909,941,968,983,993,997,1001,1003,1003,1003,1003,1003,1004,1007,1009,1010,1014,1016,1018,1021,1024,1031,1036,1044,1048,1053,1064],"ymouse":[592,592,592,592,592,592,592,592,592,592,592,592,592,592,592,592,592,592,592,592,592,592,592,592,592,592,592,592,593,593,593,593,593,593,593,593,593,593,593,593,593,593,593,593,593,593,593,593,593,593,593,593,592,592,592,592,592,592,592,592,591,591,591,590,577,569,558,544,530,497,479,459,437,417,374,346,331,320,312,300,296,291,286,280,256,240,233,223,215,198,189,181,172,160,140,131,116,105,93,74],"timestamp_mouse":[12,46,54,74,94,114,133,154,173,193,214,234,254,273,292,313,334,354,374,393,412,433,453,474,492,512,534,552,573,593,612,633,654,674,692,713,733,753,773,794,814,834,852,874,894,913,933,953,974,992,1012,1034,1053,1073,1092,1114,1133,1154,1173,1193,1213,1233,1254,1274,1293,1313,1333,1354,1372,1393,1414,1433,1453,1473,1493,1513,1532,1553,1573,1593,1614,1633,1653,1673,1692,1713,1732,1754,1773,1792,1814,1833,1853,1873,1892,1913,1932,1954,1973,1993],"xSR":741.5,"ySR":573.95,"xT1":424.9,"yT1":0,"xT2":1058.1,"yT2":0,"toosoon":0,"cond_shown":"Incongruent","ratio_trial":100,"L_num":13,"L_den":26,"R_num":6,"R_den":10,"correct_side":2,"subjID":"maeocastiblanco36","gender":"0","school":"6","age":"11"},{"start_time":1551892484074,"click_time":1551892485768,"finger_time":1551892484768,"fix_duration":344.6198580216411,"trial":11,"RT":694,"MT":1000,"sideResp":1,"stimulus":[],"xmouse":[774,774,774,774,774,774,774,774,774,774,774,774,774,774,774,774,774,774,774,774,774,774,774,774,774,774,774,774,774,774,773,769,756,746,734,704,692,686,681,678,674,672,671,670,669,669,668,665,661,653,597,554,553,560,567,571,571,571,570,566,562,562,562,562,562,562,561,558,554,550,544,541,541,539,539,537,537,537,537,537,537,537,535,532,524],"ymouse":[619,619,619,619,619,619,619,619,619,619,619,619,619,619,619,619,619,619,619,619,619,619,619,619,619,619,619,619,619,619,620,617,608,599,589,564,551,543,535,527,516,509,505,501,496,479,463,442,413,369,235,151,130,112,94,60,44,29,14,0,0,0,0,0,0,0,0,4,10,19,36,46,52,55,58,61,62,62,62,62,62,62,63,63,63],"timestamp_mouse":[13,34,62,75,95,113,133,154,174,195,214,235,254,274,294,315,334,354,373,393,415,434,453,475,494,513,535,555,574,594,614,634,653,673,694,714,735,754,774,795,813,834,853,874,893,914,935,954,973,993,1014,1034,1053,1075,1094,1113,1133,1155,1175,1194,1214,1234,1254,1275,1295,1314,1333,1353,1374,1394,1414,1434,1454,1474,1493,1514,1534,1554,1574,1595,1613,1634,1653,1674,1694],"xSR":741.5,"ySR":573.95,"xT1":424.9,"yT1":0,"xT2":1058.1,"yT2":0,"toosoon":0,"cond_shown":"Incongruent","ratio_trial":300,"L_num":2,"L_den":4,"R_num":6,"R_den":30,"correct_side":1,"subjID":"maeocastiblanco36","gender":"0","school":"6","age":"11"},{"start_time":1551892488999,"click_time":1551892490668,"finger_time":1551892490308,"fix_duration":250,"trial":12,"RT":1309,"MT":360,"sideResp":2,"stimulus":[],"xmouse":[793,793,793,793,793,793,793,793,793,793,793,793,793,793,793,793,793,793,793,793,793,793,793,793,793,793,793,793,793,793,793,793,793,793,793,793,793,793,793,793,793,793,793,793,793,793,793,793,793,793,793,793,793,793,793,793,793,793,793,793,793,793,793,793,793,795,804,820,843,903,924,937,942,944,944,944,945,952,963,996,1017,1040,1056,1073],"ymouse":[576,576,576,576,576,576,576,576,576,576,576,576,576,576,576,576,576,576,576,576,576,576,576,576,576,576,576,576,576,576,576,576,576,576,576,576,576,576,576,576,576,576,576,576,576,576,576,576,576,576,576,576,576,576,576,576,576,576,576,576,576,576,576,576,576,563,542,512,478,408,387,373,367,365,365,365,363,349,329,260,216,162,117,86],"timestamp_mouse":[9,39,49,68,89,110,129,150,170,189,209,229,248,268,289,308,329,349,368,388,409,430,449,470,489,509,530,549,568,588,609,629,649,668,689,710,729,750,768,789,810,828,850,869,889,909,930,950,970,988,1008,1029,1048,1069,1101,1110,1129,1150,1170,1188,1208,1230,1250,1268,1288,1309,1329,1350,1369,1388,1408,1429,1449,1468,1489,1508,1529,1549,1569,1588,1609,1629,1649,1669],"xSR":741.5,"ySR":573.95,"xT1":424.9,"yT1":0,"xT2":1058.1,"yT2":0,"toosoon":0,"cond_shown":"Congruent","ratio_trial":200,"L_num":7,"L_den":15,"R_num":18,"R_den":27,"correct_side":2,"subjID":"maeocastiblanco36","gender":"0","school":"6","age":"11"},{"start_time":1551892494097,"click_time":1551892495908,"finger_time":1551892495208,"fix_duration":1308.3570483082183,"trial":13,"RT":1111,"MT":700,"sideResp":2,"stimulus":[],"xmouse":[812,812,812,812,812,812,812,812,812,812,812,812,812,812,812,812,812,812,812,812,812,812,812,812,812,812,812,812,812,812,812,812,812,812,812,812,812,812,812,812,812,812,812,812,812,812,812,812,812,812,812,812,812,812,813,818,825,833,842,853,856,857,858,860,864,868,873,882,891,907,917,924,930,941,968,978,986,994,1000,1012,1022,1028,1034,1038,1048,1051,1052,1053,1053,1056,1062],"ymouse":[582,582,582,582,582,582,582,582,582,582,582,582,582,582,582,582,582,582,582,582,582,582,582,582,582,582,582,582,582,582,582,582,582,582,582,582,582,582,582,582,582,582,582,582,582,582,582,582,582,582,582,582,582,582,577,569,562,556,549,542,538,535,530,524,504,488,471,451,431,392,370,359,352,343,320,311,296,282,267,239,219,204,190,173,144,133,125,119,115,104,91],"timestamp_mouse":[11,30,56,72,90,111,130,151,171,190,212,231,250,272,291,311,330,351,371,390,414,430,452,471,492,511,531,552,570,591,612,630,652,670,691,710,731,751,771,791,811,832,851,871,892,911,930,950,971,990,1010,1031,1050,1070,1091,1111,1131,1151,1171,1190,1210,1230,1251,1271,1291,1311,1331,1351,1372,1390,1410,1430,1452,1471,1491,1512,1531,1550,1572,1591,1610,1630,1651,1671,1690,1711,1731,1751,1770,1790,1811],"xSR":741.5,"ySR":573.95,"xT1":424.9,"yT1":0,"xT2":1058.1,"yT2":0,"toosoon":0,"cond_shown":"Congruent","ratio_trial":200,"L_num":13,"L_den":26,"R_num":14,"R_den":20,"correct_side":2,"subjID":"maeocastiblanco36","gender":"0","school":"6","age":"11"},{"start_time":1551892499779,"click_time":1551892501308,"finger_time":1551892500568,"fix_duration":1390.5975619631006,"trial":14,"RT":789,"MT":740,"sideResp":1,"stimulus":[],"xmouse":[765,765,765,765,765,765,765,765,765,765,765,765,765,765,765,765,765,765,765,765,765,765,765,765,765,765,765,765,765,765,765,765,765,765,765,765,765,765,760,754,734,725,724,724,724,724,724,724,724,724,724,724,719,712,702,661,647,638,633,629,621,621,621,621,621,621,620,620,620,620,620,619,619,613,600,558,522],"ymouse":[607,607,607,607,607,607,607,607,607,607,607,607,607,607,607,607,607,607,607,607,607,607,607,607,607,607,607,607,607,607,607,607,607,607,607,607,607,606,593,572,523,501,491,487,486,486,486,486,486,486,486,486,474,456,432,345,315,289,261,233,168,144,128,119,115,112,105,104,104,104,104,103,103,103,100,90,79],"timestamp_mouse":[10,38,49,68,89,108,129,149,170,189,209,229,250,269,288,309,329,350,369,389,409,429,448,468,489,509,529,548,570,589,609,629,649,669,689,708,729,749,768,789,809,828,849,868,890,909,930,949,969,989,1009,1028,1049,1069,1090,1109,1128,1149,1169,1189,1209,1230,1250,1269,1290,1308,1328,1348,1369,1390,1410,1429,1449,1469,1490,1508,1528],"xSR":741.5,"ySR":573.95,"xT1":424.9,"yT1":0,"xT2":1058.1,"yT2":0,"toosoon":0,"cond_shown":"Incongruent","ratio_trial":100,"L_num":1,"L_den":2,"R_num":8,"R_den":20,"correct_side":1,"subjID":"maeocastiblanco36","gender":"0","school":"6","age":"11"},{"start_time":1551892504632,"click_time":1551892505949,"finger_time":1551892505588,"fix_duration":1343.3712997318555,"trial":15,"RT":956,"MT":361,"sideResp":2,"stimulus":[],"xmouse":[744,744,744,744,744,744,744,744,744,744,744,744,744,744,744,744,744,744,744,744,744,744,744,744,744,744,744,744,744,744,744,744,744,744,744,744,744,744,744,744,744,744,744,744,744,745,751,789,816,848,889,926,1016,1053,1103,1119,1130,1136,1137,1137,1137,1137,1138,1138,1138,1138],"ymouse":[581,581,581,581,581,581,581,581,581,581,581,581,581,581,581,581,581,581,581,581,581,581,581,581,581,581,581,581,581,581,581,581,581,581,581,581,581,581,581,581,581,581,581,581,581,581,580,556,532,502,466,420,313,268,206,187,172,153,149,147,146,143,130,115,106,96],"timestamp_mouse":[22,39,56,76,95,116,137,156,176,196,215,235,255,275,295,317,335,355,377,395,417,437,456,476,495,517,536,556,575,597,616,635,655,676,695,715,736,757,777,796,817,835,856,876,895,915,936,956,976,996,1016,1036,1055,1076,1096,1115,1135,1156,1175,1197,1216,1236,1255,1277,1296,1317],"xSR":741.5,"ySR":573.95,"xT1":424.9,"yT1":0,"xT2":1058.1,"yT2":0,"toosoon":0,"cond_shown":"Incongruent","ratio_trial":300,"L_num":13,"L_den":26,"R_num":12,"R_den":15,"correct_side":2,"subjID":"maeocastiblanco36","gender":"0","school":"6","age":"11"},{"start_time":1551892508413,"click_time":1551892509948,"finger_time":1551892509288,"fix_duration":264.2367030961682,"trial":16,"RT":875,"MT":660,"sideResp":2,"stimulus":[],"xmouse":[826,826,826,826,826,826,826,826,826,826,826,826,826,826,826,826,826,826,826,826,826,826,826,826,826,826,826,826,826,826,826,826,826,826,826,826,826,826,826,826,826,828,830,851,861,872,884,895,921,938,959,980,1001,1027,1038,1045,1050,1056,1066,1074,1081,1087,1090,1090,1086,1086,1087,1088,1088,1088,1088,1088,1088,1090,1093,1096,1101],"ymouse":[631,631,631,631,631,631,631,631,631,631,631,631,631,631,631,631,631,631,631,631,631,631,631,631,631,631,631,631,631,631,631,631,631,631,631,631,631,631,631,630,630,620,616,583,572,559,545,531,497,478,454,430,412,387,371,360,342,320,274,254,237,221,204,160,136,128,127,125,125,125,125,125,125,120,115,105,95],"timestamp_mouse":[15,35,55,76,94,115,135,155,175,195,215,234,256,275,294,316,335,355,375,394,414,435,454,476,499,515,535,556,576,595,615,635,655,675,695,714,734,755,776,795,814,835,855,875,894,915,935,954,974,995,1015,1035,1056,1075,1095,1116,1135,1155,1175,1194,1215,1235,1256,1275,1295,1315,1334,1354,1375,1394,1414,1436,1456,1474,1495,1514,1534],"xSR":741.5,"ySR":573.95,"xT1":424.9,"yT1":0,"xT2":1058.1,"yT2":0,"toosoon":0,"cond_shown":"Incongruent","ratio_trial":300,"L_num":13,"L_den":26,"R_num":12,"R_den":15,"correct_side":2,"subjID":"maeocastiblanco36","gender":"0","school":"6","age":"11"},{"start_time":1551892515213,"click_time":1551892519007,"finger_time":1551892515327,"fix_duration":842.6002038561954,"trial":17,"RT":114,"MT":3680,"sideResp":1,"stimulus":[],"xmouse":[752,753,755,760,761,763,763,764,764,764,764,764,764,764,764,762,760,760,761,762,762,762,762,762,762,762,762,763,771,772,774,775,775,778,779,779,780,781,781,781,781,781,781,776,771,770,769,769,769,771,773,774,774,774,774,774,774,774,774,774,774,774,774,774,774,774,774,774,774,774,774,774,774,774,775,775,776,777,777,777,777,777,777,777,777,777,777,778,778,778,778,780,780,780,780,780,780,780,780,780,780,781,781,782,782,783,785,786,787,788,788,788,788,788,788,788,788,788,788,788,789,790,790,790,790,790,790,791,792,792,792,793,793,794,795,796,796,796,793,789,788,788,788,786,785,785,785,785,785,785,785,785,785,785,785,785,785,785,785,785,785,785,785,776,765,752,733,717,704,704,702,702,702,702,701,701,698,696,687,678,668,651,637,605,594,581,569,559,534,522],"ymouse":[614,613,601,581,576,571,568,565,563,563,563,563,563,563,557,538,516,491,464,459,459,459,459,459,459,459,459,459,474,479,481,482,484,489,492,501,507,515,529,534,538,541,545,561,578,589,599,606,617,622,624,625,625,625,625,625,625,625,625,625,625,625,625,625,625,625,625,625,625,625,625,625,625,625,625,627,630,631,633,633,633,633,633,633,633,633,633,633,633,633,634,634,634,634,634,634,634,634,634,634,634,634,634,634,634,634,636,636,636,637,637,637,637,637,637,637,637,637,637,637,637,637,637,637,637,637,637,637,637,637,636,635,634,617,616,614,614,612,603,600,600,600,600,600,599,599,599,599,599,599,599,599,599,599,599,599,599,599,599,599,599,599,599,581,553,514,466,430,399,397,396,396,396,392,382,368,353,334,291,261,227,189,159,103,88,74,61,53,40,38],"timestamp_mouse":[15,34,54,75,94,114,136,155,176,195,216,235,256,275,296,316,335,355,375,395,415,435,455,474,495,515,535,554,576,594,615,634,654,674,696,715,736,755,775,795,815,835,854,874,894,915,935,955,975,995,1015,1035,1056,1075,1094,1116,1135,1156,1176,1194,1214,1235,1254,1274,1296,1315,1336,1354,1374,1395,1414,1436,1454,1476,1495,1515,1535,1555,1574,1595,1616,1634,1655,1675,1694,1714,1734,1755,1775,1794,1814,1834,1854,1874,1894,1914,1936,1956,1975,1996,2015,2036,2055,2074,2096,2115,2136,2155,2175,2196,2216,2235,2255,2276,2295,2315,2335,2355,2375,2396,2415,2435,2455,2475,2495,2514,2534,2555,2575,2596,2614,2634,2655,2675,2695,2716,2734,2755,2775,2794,2815,2835,2855,2874,2894,2914,2936,2955,2974,2994,3014,3036,3055,3075,3094,3114,3134,3154,3174,3195,3215,3234,3254,3275,3294,3315,3336,3356,3375,3394,3416,3434,3454,3475,3494,3514,3535,3554,3575,3594,3616,3636,3656,3675,3695,3714,3735,3754,3775,3794],"xSR":741.5,"ySR":573.95,"xT1":424.9,"yT1":0,"xT2":1058.1,"yT2":0,"toosoon":0,"cond_shown":"Incongruent","ratio_trial":300,"L_num":13,"L_den":26,"R_num":12,"R_den":15,"correct_side":2,"subjID":"maeocastiblanco36","gender":"0","school":"6","age":"11"},{"start_time":1551892521463,"click_time":1551892523949,"finger_time":1551892522949,"fix_duration":1173.4584385260669,"trial":18,"RT":1486,"MT":1000,"sideResp":2,"stimulus":[],"xmouse":[779,779,779,779,779,779,779,779,779,779,779,779,779,779,779,779,779,779,779,779,779,779,779,779,779,779,779,779,779,779,779,779,779,779,779,779,779,779,779,779,779,779,779,779,779,779,779,779,779,779,779,779,779,779,779,779,779,779,779,779,779,779,779,779,779,779,779,779,779,779,779,779,782,788,798,816,869,897,914,928,938,949,949,949,949,949,959,969,981,995,1007,1023,1030,1036,1042,1047,1068,1078,1087,1096,1110,1134,1151,1156,1159,1159,1161,1161,1161,1162,1163,1166,1167,1169,1172,1172,1168,1168,1168,1168,1168,1168,1168,1168,1152],"ymouse":[623,623,623,623,623,623,623,623,623,623,623,623,623,623,623,623,623,623,623,623,623,623,623,623,623,623,623,623,623,623,623,623,623,623,623,623,623,623,623,623,623,623,623,623,623,623,623,623,623,623,623,623,623,623,623,623,623,623,623,623,623,623,623,623,623,623,623,623,623,623,623,621,608,592,569,534,450,425,400,384,376,371,371,371,371,370,345,329,312,299,286,271,265,261,256,250,228,217,203,189,171,147,137,133,131,131,130,130,130,130,130,129,128,127,124,111,95,94,93,92,92,92,92,89,88],"timestamp_mouse":[11,38,45,66,84,104,126,146,166,186,205,225,245,266,284,305,326,344,365,385,405,426,445,466,485,506,526,544,566,586,604,626,646,665,686,705,725,746,765,785,806,824,846,866,884,905,926,944,966,986,1005,1025,1045,1064,1086,1104,1126,1145,1165,1185,1204,1225,1244,1266,1284,1305,1324,1346,1365,1386,1405,1425,1446,1465,1486,1504,1524,1544,1565,1585,1605,1624,1644,1665,1685,1705,1725,1746,1765,1785,1806,1824,1844,1864,1885,1905,1925,1944,1965,1985,2004,2024,2045,2065,2084,2104,2125,2145,2165,2185,2205,2224,2246,2265,2286,2305,2324,2346,2365,2385,2405,2424,2445,2465,2486],"xSR":741.5,"ySR":573.95,"xT1":424.9,"yT1":0,"xT2":1058.1,"yT2":0,"toosoon":0,"cond_shown":"Incongruent","ratio_trial":100,"L_num":12,"L_den":24,"R_num":9,"R_den":15,"correct_side":2,"subjID":"maeocastiblanco36","gender":"0","school":"6","age":"11"},{"start_time":1551892528676,"click_time":1551892531648,"finger_time":1551892531148,"fix_duration":686.9274449486377,"trial":19,"RT":2472,"MT":500,"sideResp":1,"stimulus":[],"xmouse":[807,807,807,807,807,807,807,807,807,807,807,807,807,807,807,807,807,807,807,807,807,807,807,807,807,807,807,807,807,807,807,807,807,807,807,807,807,807,807,807,807,807,807,807,807,807,807,807,807,807,807,807,807,807,807,807,807,807,807,807,807,807,807,807,807,807,807,807,807,807,807,807,807,807,807,807,807,807,807,807,807,807,807,807,807,807,807,807,807,807,807,807,807,807,807,807,807,807,807,807,807,807,807,807,807,807,807,807,807,807,807,807,807,807,807,807,807,807,807,806,800,790,784,778,772,760,750,737,723,707,678,659,646,634,625,611,605,599,594,589,575,569,566,564,560,539,526,518,513],"ymouse":[639,639,639,639,639,639,639,639,639,639,639,639,639,639,639,639,639,639,639,639,639,639,639,639,639,639,639,639,639,639,639,639,639,639,639,639,639,639,639,639,639,639,639,639,639,639,639,639,639,639,639,639,639,639,639,639,639,639,639,639,639,639,639,639,639,639,639,639,639,639,639,639,639,639,639,639,639,639,639,639,639,639,639,639,639,639,639,639,639,639,639,639,639,639,639,639,639,639,639,639,639,639,639,639,639,639,639,639,639,639,639,639,639,639,639,639,639,639,639,630,612,589,576,561,548,527,517,505,495,483,457,432,413,395,374,337,317,298,279,260,226,209,198,191,179,147,128,112,99],"timestamp_mouse":[12,40,52,73,92,112,132,152,172,191,212,231,253,273,291,311,333,351,373,392,412,433,452,472,492,511,532,553,572,593,613,632,653,673,692,713,732,752,772,792,813,831,852,871,892,913,932,952,971,992,1011,1032,1052,1072,1092,1111,1133,1153,1171,1191,1213,1233,1253,1272,1292,1313,1333,1352,1371,1393,1413,1432,1453,1473,1491,1512,1533,1553,1572,1592,1612,1632,1653,1672,1693,1712,1732,1753,1771,1792,1813,1831,1851,1872,1893,1913,1931,1953,1973,1993,2013,2032,2053,2072,2092,2113,2132,2152,2172,2191,2212,2231,2251,2271,2293,2312,2331,2352,2371,2392,2412,2432,2452,2472,2492,2512,2532,2552,2572,2592,2611,2633,2652,2672,2692,2712,2732,2752,2772,2793,2812,2831,2852,2872,2892,2912,2933,2952,2972],"xSR":741.5,"ySR":573.95,"xT1":424.9,"yT1":0,"xT2":1058.1,"yT2":0,"toosoon":0,"cond_shown":"Congruent","ratio_trial":300,"L_num":20,"L_den":25,"R_num":8,"R_den":16,"correct_side":1,"subjID":"maeocastiblanco36","gender":"0","school":"6","age":"11"},{"start_time":1551892535303,"click_time":1551892536248,"finger_time":1551892535909,"fix_duration":913.6374925759335,"trial":20,"RT":606,"MT":339,"sideResp":2,"stimulus":[],"xmouse":[771,771,771,771,771,771,771,771,771,771,771,771,771,771,771,771,772,774,778,788,791,795,799,800,801,801,801,801,801,801,803,808,815,823,849,863,880,898,916,955,986,1001,1015,1031,1059,1074,1088,1102],"ymouse":[656,656,656,656,656,656,656,656,656,656,656,656,656,656,656,656,648,642,631,606,596,587,579,576,574,574,574,574,574,574,572,565,557,544,500,469,431,386,348,272,232,215,196,179,140,120,100,82],"timestamp_mouse":[8,34,45,65,86,104,125,146,164,185,206,224,245,264,286,304,326,345,365,385,406,424,445,465,485,506,525,545,565,584,606,625,646,665,684,705,725,745,765,785,805,824,846,865,886,906,925,945],"xSR":741.5,"ySR":573.95,"xT1":424.9,"yT1":0,"xT2":1058.1,"yT2":0,"toosoon":0,"cond_shown":"Congruent","ratio_trial":100,"L_num":7,"L_den":14,"R_num":15,"R_den":25,"correct_side":2,"subjID":"maeocastiblanco36","gender":"0","school":"6","age":"11"},{"start_time":1551892540952,"click_time":1551892543189,"finger_time":1551892542429,"fix_duration":321.7039166487525,"trial":21,"RT":1477,"MT":760,"sideResp":1,"stimulus":[],"xmouse":[758,758,758,758,758,758,758,758,758,758,758,758,758,758,758,758,758,758,758,758,758,758,758,758,758,758,758,758,758,758,758,758,758,758,758,758,758,758,758,758,758,758,758,758,758,758,758,758,758,758,758,758,758,758,758,758,758,758,758,758,758,758,758,758,758,758,758,758,758,758,758,757,747,734,718,702,675,658,653,646,646,638,636,631,627,624,621,621,620,611,600,585,566,560,560,560,560,560,560,560,560,560,560,560,560,560,560,555,550,542,533,515],"ymouse":[664,664,664,664,664,664,664,664,664,664,664,664,664,664,664,664,664,664,664,664,664,664,664,664,664,664,664,664,664,664,664,664,664,664,664,664,664,664,664,664,664,664,664,664,664,664,664,664,664,664,664,664,664,664,664,664,664,664,664,664,664,664,664,664,664,664,664,664,664,656,647,622,604,584,561,539,484,404,372,259,180,82,48,30,20,12,1,0,0,0,0,0,0,0,0,0,0,0,0,0,0,0,0,0,0,0,0,2,6,11,16,25],"timestamp_mouse":[18,49,57,76,98,116,137,158,178,196,217,238,257,277,298,317,338,358,378,398,417,437,457,478,497,518,538,558,578,597,617,638,657,678,697,718,738,758,778,797,816,838,857,877,898,917,937,957,977,996,1017,1038,1057,1076,1097,1118,1138,1158,1177,1197,1217,1237,1257,1277,1298,1318,1337,1358,1377,1397,1417,1438,1457,1477,1497,1518,1536,1557,1577,1597,1617,1637,1657,1677,1697,1717,1737,1757,1777,1796,1818,1836,1857,1877,1897,1916,1938,1957,1977,1997,2017,2037,2057,2078,2097,2118,2137,2157,2177,2197,2217,2236],"xSR":741.5,"ySR":573.95,"xT1":424.9,"yT1":0,"xT2":1058.1,"yT2":0,"toosoon":0,"cond_shown":"Congruent","ratio_trial":200,"L_num":7,"L_den":21,"R_num":2,"R_den":15,"correct_side":1,"subjID":"maeocastiblanco36","gender":"0","school":"6","age":"11"},{"start_time":1551892544995,"click_time":1551892547970,"finger_time":1551892545889,"fix_duration":465.26546734151594,"trial":22,"RT":894,"MT":2081,"sideResp":1,"stimulus":[],"xmouse":[780,780,780,780,780,780,780,780,780,780,780,780,780,780,780,780,780,780,780,780,780,780,780,780,780,780,780,780,780,780,780,780,780,780,780,780,780,780,780,780,780,780,780,780,797,819,859,917,982,1063,1074,1078,1079,1079,1079,1079,1079,1079,1078,1077,1074,1069,1067,1066,1066,1066,1066,1066,1066,1066,1066,1066,1066,1066,1066,1066,1066,1069,1071,1073,1073,1073,1073,1073,1073,1073,1073,1073,1073,1073,1073,1073,1073,1073,1073,1073,1073,1073,1073,1073,1073,1067,1058,1044,994,975,957,942,929,910,903,893,882,871,855,845,839,830,817,783,764,743,718,694,628,604,579,559,543,528,528,528,528,528,528,528,528,528,528,528,528,528,528,528,528,528,528,526,521],"ymouse":[586,586,586,586,586,586,586,586,586,586,586,586,586,586,586,586,586,586,586,586,586,586,586,586,586,586,586,586,586,586,586,586,586,586,586,586,586,586,586,586,586,586,586,586,562,534,490,436,377,291,267,254,250,248,248,247,238,229,219,193,177,161,152,147,140,139,138,137,137,137,137,137,137,137,137,131,126,120,117,113,113,113,113,113,113,113,113,113,113,113,113,113,113,113,113,113,113,113,113,113,114,119,125,131,142,142,142,142,141,138,137,136,134,133,132,132,132,130,128,123,121,118,115,110,99,92,87,84,81,79,79,79,79,79,79,79,79,79,79,79,79,79,79,79,79,79,79,79,78],"timestamp_mouse":[14,41,54,75,94,115,134,155,173,194,214,235,255,274,295,314,335,354,374,394,413,435,455,475,494,514,535,554,573,595,614,635,653,674,695,713,735,755,773,795,814,834,855,875,894,915,934,954,974,994,1015,1034,1055,1074,1094,1114,1133,1155,1174,1194,1214,1234,1254,1275,1294,1314,1334,1354,1373,1394,1413,1434,1453,1474,1494,1515,1535,1554,1575,1594,1614,1634,1654,1675,1694,1715,1733,1754,1774,1795,1814,1834,1855,1874,1893,1914,1935,1954,1975,1994,2014,2035,2055,2074,2094,2114,2135,2154,2175,2194,2214,2234,2254,2274,2295,2315,2333,2353,2375,2394,2413,2435,2454,2475,2494,2514,2534,2554,2574,2593,2614,2634,2654,2674,2694,2714,2734,2755,2774,2794,2814,2835,2854,2873,2895,2914,2934,2954,2975],"xSR":741.5,"ySR":573.95,"xT1":424.9,"yT1":0,"xT2":1058.1,"yT2":0,"toosoon":0,"cond_shown":"Incongruent","ratio_trial":100,"L_num":9,"L_den":10,"R_num":20,"R_den":25,"correct_side":1,"subjID":"maeocastiblanco36","gender":"0","school":"6","age":"11"},{"start_time":1551892549564,"click_time":1551892551729,"finger_time":1551892550670,"fix_duration":253.48275720090518,"trial":23,"RT":1106,"MT":1059,"sideResp":2,"stimulus":[],"xmouse":[784,784,784,784,784,784,784,784,784,784,784,784,784,784,784,784,784,784,784,784,784,784,784,784,784,784,784,784,784,784,784,784,784,784,784,784,784,784,784,784,784,784,784,785,786,789,796,800,805,806,807,809,809,810,811,813,817,820,820,820,820,820,820,820,820,820,820,820,821,823,827,840,847,854,860,866,878,894,907,931,963,1055,1094,1119,1134,1143,1151,1152,1152,1146,1144,1144,1144,1144,1145,1145,1146,1146,1146,1146,1146,1146,1146,1146,1146,1146,1146,1146,1139],"ymouse":[659,659,659,659,659,659,659,659,659,659,659,659,659,659,659,659,659,659,659,659,659,659,659,659,659,659,659,659,659,659,659,659,659,659,659,659,659,659,659,659,659,659,657,650,639,630,614,605,595,591,588,583,581,578,574,570,560,555,553,553,553,553,553,553,553,553,553,553,550,545,536,514,503,491,478,466,436,402,373,337,303,245,225,209,198,187,167,161,157,154,154,154,149,143,135,129,118,112,110,109,109,109,109,109,109,109,109,106,95],"timestamp_mouse":[8,41,45,65,84,105,125,145,166,185,206,225,244,265,286,304,325,346,366,385,406,425,446,465,485,505,524,546,565,586,605,624,646,666,685,705,725,746,766,786,804,826,845,865,884,906,925,945,965,986,1005,1025,1045,1066,1085,1106,1125,1145,1165,1186,1205,1226,1245,1266,1285,1306,1326,1346,1365,1385,1404,1424,1444,1465,1484,1505,1525,1546,1565,1586,1605,1624,1645,1665,1685,1705,1725,1749,1765,1785,1805,1825,1844,1865,1885,1905,1925,1946,1964,1985,2005,2025,2045,2065,2085,2105,2125,2145,2164],"xSR":741.5,"ySR":573.95,"xT1":424.9,"yT1":0,"xT2":1058.1,"yT2":0,"toosoon":0,"cond_shown":"Congruent","ratio_trial":300,"L_num":2,"L_den":10,"R_num":12,"R_den":24,"correct_side":2,"subjID":"maeocastiblanco36","gender":"0","school":"6","age":"11"},{"start_time":1551892553561,"click_time":1551892555128,"finger_time":1551892554889,"fix_duration":250,"trial":24,"RT":1328,"MT":239,"sideResp":2,"stimulus":[],"xmouse":[787,787,787,787,787,787,787,787,787,787,787,787,787,787,787,787,787,787,787,787,787,787,787,786,785,784,783,783,783,783,783,783,783,783,783,783,783,783,783,783,783,783,783,783,783,783,783,783,783,783,783,783,783,783,783,783,783,783,783,783,783,783,783,783,784,788,801,821,836,853,867,907,928,957,986,1020,1085,1115,1146],"ymouse":[588,588,588,588,588,588,588,588,588,588,588,588,588,588,588,588,588,588,588,588,588,588,588,591,594,598,602,603,603,603,603,603,603,603,603,603,603,603,603,603,603,603,603,603,603,603,603,603,603,603,603,603,603,603,603,603,603,603,603,603,603,603,603,603,599,593,572,546,524,502,482,425,390,349,307,260,176,139,94],"timestamp_mouse":[8,41,48,67,88,108,128,148,168,187,208,228,248,268,288,308,329,349,367,389,408,428,448,469,488,508,528,548,568,589,609,629,647,669,689,707,729,748,769,787,808,829,848,867,888,908,928,948,967,988,1009,1028,1049,1069,1088,1108,1129,1148,1167,1189,1208,1227,1248,1269,1288,1307,1328,1347,1368,1389,1407,1428,1449,1468,1488,1508,1527,1548,1567],"xSR":741.5,"ySR":573.95,"xT1":424.9,"yT1":0,"xT2":1058.1,"yT2":0,"toosoon":0,"cond_shown":"Congruent","ratio_trial":300,"L_num":1,"L_den":20,"R_num":7,"R_den":20,"correct_side":2,"subjID":"maeocastiblanco36","gender":"0","school":"6","age":"11"},{"start_time":1551892558162,"click_time":1551892561030,"finger_time":1551892559649,"fix_duration":1272.1781427530195,"trial":25,"RT":1487,"MT":1381,"sideResp":1,"stimulus":[],"xmouse":[764,764,764,764,764,764,764,764,764,764,764,764,764,764,764,764,764,764,764,764,764,764,764,764,764,764,764,764,764,764,764,764,764,764,764,764,764,764,764,764,764,764,764,764,764,764,764,764,764,764,764,764,764,764,764,764,764,764,764,764,764,764,764,764,764,764,764,764,764,764,764,764,764,762,760,759,759,758,754,752,748,736,728,721,713,707,699,699,699,699,699,693,690,687,685,682,673,667,662,655,646,629,623,618,612,610,601,597,591,585,581,570,562,558,553,551,551,551,551,551,551,551,551,551,551,551,551,541,534,530,527,525,525,525,525,525,525,525,525,525,525,525,525,522],"ymouse":[630,630,630,630,630,630,630,630,630,630,630,630,630,630,630,630,630,630,630,630,630,630,630,630,630,630,630,630,630,630,630,630,630,630,630,630,630,630,630,630,630,630,630,630,630,630,630,630,630,630,630,630,630,630,630,630,630,630,630,630,630,630,630,630,630,630,630,630,630,627,621,600,588,575,560,549,535,528,516,505,493,449,423,398,368,335,264,221,206,170,150,124,118,114,114,113,112,111,109,108,107,105,103,102,101,101,100,99,97,97,96,94,89,87,85,84,84,84,84,84,84,84,84,84,84,84,84,83,82,81,81,81,81,81,81,81,81,81,81,81,81,81,81,81],"timestamp_mouse":[10,41,47,66,87,107,127,147,167,188,207,226,247,267,288,307,327,348,367,387,408,428,446,467,487,507,527,548,567,587,607,627,647,668,688,708,727,747,768,786,807,828,846,867,888,908,928,947,968,986,1007,1027,1046,1067,1087,1107,1126,1148,1168,1188,1206,1228,1248,1267,1286,1307,1327,1348,1368,1387,1407,1427,1447,1467,1486,1508,1527,1548,1566,1587,1607,1627,1647,1668,1687,1707,1727,1747,1767,1787,1807,1827,1847,1867,1887,1907,1927,1947,1967,1987,2007,2027,2047,2078,2088,2107,2130,2147,2167,2188,2207,2227,2246,2267,2287,2308,2327,2347,2368,2387,2407,2427,2447,2467,2486,2507,2527,2547,2566,2587,2607,2627,2647,2666,2687,2707,2728,2747,2767,2787,2806,2827,2846,2867],"xSR":741.5,"ySR":573.95,"xT1":424.9,"yT1":0,"xT2":1058.1,"yT2":0,"toosoon":0,"cond_shown":"Incongruent","ratio_trial":100,"L_num":1,"L_den":2,"R_num":8,"R_den":20,"correct_side":1,"subjID":"maeocastiblanco36","gender":"0","school":"6","age":"11"},{"start_time":1551892562961,"click_time":1551892565070,"finger_time":1551892564089,"fix_duration":250,"trial":26,"RT":1128,"MT":981,"sideResp":1,"stimulus":[],"xmouse":[773,773,773,773,773,773,773,773,773,773,773,773,773,773,773,773,773,773,773,773,773,773,773,773,773,773,773,773,773,773,773,773,773,773,773,773,773,773,773,773,773,773,773,773,773,773,773,773,773,773,773,773,773,773,771,768,755,754,752,749,746,741,738,733,727,718,683,668,652,638,620,559,505,455,430,420,418,418,419,422,424,429,432,438,445,453,460,471,473,475,476,476,476,476,476,476,476,476,476,476,476,476,476,476,477,478],"ymouse":[599,599,599,599,599,599,599,599,599,599,599,599,599,599,599,599,599,599,599,599,599,599,600,600,600,600,600,600,600,600,600,600,600,600,600,600,600,600,600,600,600,600,600,600,600,600,600,600,600,600,600,600,600,600,595,588,565,563,559,554,548,536,529,519,506,488,437,416,395,375,352,288,243,205,184,172,163,150,142,137,134,128,126,124,120,117,115,109,107,105,104,104,104,104,104,104,104,104,104,104,104,104,104,104,101,96],"timestamp_mouse":[8,41,48,69,89,108,128,149,169,188,208,229,249,269,288,308,329,348,369,388,408,428,448,468,489,509,528,547,568,589,609,629,649,668,689,708,728,748,768,789,807,829,847,868,888,908,928,948,969,989,1008,1028,1049,1068,1088,1108,1128,1149,1169,1189,1209,1228,1249,1269,1288,1308,1327,1348,1368,1389,1407,1428,1448,1468,1488,1508,1527,1548,1567,1588,1608,1627,1649,1668,1688,1709,1728,1749,1767,1788,1808,1828,1848,1868,1888,1908,1928,1948,1968,1987,2008,2029,2047,2068,2088,2109],"xSR":741.5,"ySR":573.95,"xT1":424.9,"yT1":0,"xT2":1058.1,"yT2":0,"toosoon":0,"cond_shown":"Incongruent","ratio_trial":200,"L_num":1,"L_den":2,"R_num":3,"R_den":10,"correct_side":1,"subjID":"maeocastiblanco36","gender":"0","school":"6","age":"11"},{"start_time":1551892571443,"click_time":1551892573670,"finger_time":1551892572789,"fix_duration":572.2588966074624,"trial":27,"RT":1346,"MT":881,"sideResp":1,"stimulus":[],"xmouse":[771,771,771,771,771,771,771,771,771,771,771,771,771,771,771,771,771,771,771,771,771,771,771,771,771,771,771,771,771,771,771,771,771,770,770,770,770,770,770,770,770,770,770,770,770,770,770,770,770,770,770,770,769,766,766,765,765,765,765,765,765,765,765,765,765,763,756,721,701,682,665,649,625,609,601,597,587,579,579,579,579,583,611,615,606,601,595,586,585,585,585,585,578,554,545,545,545,545,545,545,544,543,541,541,541,541,541,541,541,541,532,522],"ymouse":[611,611,611,611,611,611,611,611,611,611,611,611,611,611,611,611,611,611,611,611,611,611,611,611,611,611,611,611,611,611,611,611,608,605,605,605,605,605,605,605,605,605,605,605,605,605,605,605,605,605,605,605,603,596,594,592,592,592,592,592,592,592,592,592,592,588,581,549,535,519,506,493,474,463,457,454,446,442,442,439,419,390,284,226,161,141,130,117,116,116,116,116,116,116,116,116,116,116,116,116,116,116,116,116,116,115,115,113,112,108,96,83],"timestamp_mouse":[10,35,46,66,86,106,126,147,166,186,207,226,246,266,287,306,326,345,366,386,406,425,446,466,486,506,525,546,566,587,605,626,646,666,687,705,726,746,766,786,807,825,845,867,886,906,926,946,966,985,1006,1026,1046,1067,1086,1106,1125,1145,1167,1186,1207,1225,1246,1267,1285,1306,1326,1346,1366,1386,1406,1427,1446,1467,1485,1506,1526,1546,1567,1585,1606,1627,1646,1667,1685,1706,1726,1746,1767,1787,1806,1826,1845,1866,1886,1906,1926,1947,1967,1986,2006,2025,2046,2067,2087,2106,2126,2147,2166,2186,2206,2226],"xSR":741.5,"ySR":573.95,"xT1":424.9,"yT1":0,"xT2":1058.1,"yT2":0,"toosoon":0,"cond_shown":"Incongruent","ratio_trial":300,"L_num":2,"L_den":4,"R_num":6,"R_den":30,"correct_side":1,"subjID":"maeocastiblanco36","gender":"0","school":"6","age":"11"},{"start_time":1551892585969,"click_time":1551892587569,"finger_time":1551892586969,"fix_duration":977.3026932446855,"trial":28,"RT":1000,"MT":600,"sideResp":2,"stimulus":[],"xmouse":[815,815,815,815,815,815,815,815,815,815,815,815,815,815,815,815,815,813,811,809,807,806,805,805,805,805,805,804,804,804,804,804,804,804,804,804,804,804,804,804,804,804,804,804,804,804,804,804,804,804,806,818,828,839,851,861,879,890,898,909,925,961,977,988,994,997,1009,1016,1023,1028,1034,1039,1040,1040,1040,1040,1040,1040,1048,1057,1068],"ymouse":[598,598,598,598,598,598,598,598,598,598,598,598,598,598,598,598,598,598,596,594,588,585,582,581,581,581,581,580,580,580,580,580,580,580,580,580,580,580,580,580,580,580,580,580,580,580,580,580,580,574,564,532,510,489,468,451,423,406,393,377,354,305,275,243,217,188,134,96,72,51,36,16,14,14,14,14,13,13,18,25,30],"timestamp_mouse":[8,20,41,60,80,101,120,140,160,181,200,219,240,259,280,301,320,340,359,381,400,420,440,460,480,500,520,540,560,581,600,620,639,659,680,700,721,740,760,781,801,819,840,860,880,901,920,940,960,981,1000,1020,1040,1060,1079,1099,1120,1140,1160,1180,1200,1220,1240,1260,1280,1299,1319,1340,1361,1380,1401,1419,1440,1461,1480,1500,1519,1541,1560,1580,1600],"xSR":741.5,"ySR":573.95,"xT1":424.9,"yT1":0,"xT2":1058.1,"yT2":0,"toosoon":0,"cond_shown":"Incongruent","ratio_trial":100,"L_num":17,"L_den":30,"R_num":10,"R_den":15,"correct_side":2,"subjID":"maeocastiblanco36","gender":"0","school":"6","age":"11"},{"start_time":1551892589597,"click_time":1551892591470,"finger_time":1551892590789,"fix_duration":767.4542555642024,"trial":29,"RT":1192,"MT":681,"sideResp":1,"stimulus":[],"xmouse":[798,798,798,798,798,798,798,798,798,798,798,798,798,798,798,798,798,798,798,798,798,798,798,798,798,798,798,798,798,798,798,798,798,798,798,798,798,798,798,798,798,798,798,798,788,781,777,772,770,766,765,765,765,765,765,765,765,765,765,763,756,744,720,677,526,395,335,317,311,306,306,306,309,316,321,328,333,340,345,355,363,370,378,386,394,394,396,398,401,409,415,423,427,428],"ymouse":[625,625,625,625,625,625,625,625,625,625,625,625,625,625,625,625,625,625,625,625,625,625,625,625,625,625,625,625,625,625,625,625,625,625,625,625,625,625,625,625,625,625,625,625,611,604,599,593,589,582,578,577,577,577,577,577,577,577,577,569,556,540,514,477,381,305,265,245,232,203,197,193,191,188,184,177,169,161,155,144,140,136,132,129,123,123,120,118,116,113,110,105,100,97],"timestamp_mouse":[12,39,52,72,92,113,132,152,172,192,212,231,252,273,292,312,332,353,371,392,412,432,452,473,492,512,532,553,572,592,612,632,652,672,692,712,731,752,772,792,811,833,851,872,891,913,932,951,972,992,1012,1032,1053,1073,1092,1112,1132,1152,1172,1192,1212,1232,1252,1273,1292,1312,1332,1353,1372,1392,1412,1432,1452,1473,1491,1511,1531,1551,1571,1592,1612,1632,1652,1673,1692,1711,1732,1752,1772,1792,1813,1832,1852,1873],"xSR":741.5,"ySR":573.95,"xT1":424.9,"yT1":0,"xT2":1058.1,"yT2":0,"toosoon":0,"cond_shown":"Incongruent","ratio_trial":100,"L_num":6,"L_den":10,"R_num":7,"R_den":14,"correct_side":1,"subjID":"maeocastiblanco36","gender":"0","school":"6","age":"11"},{"start_time":1551892593345,"click_time":1551892594349,"finger_time":1551892594029,"fix_duration":674.0631474415459,"trial":30,"RT":684,"MT":320,"sideResp":2,"stimulus":[],"xmouse":[773,773,773,773,773,773,773,773,773,773,773,773,773,773,773,773,773,773,773,773,773,773,773,773,773,773,773,773,773,773,774,776,795,812,840,871,897,931,941,955,976,1000,1042,1053,1056,1057,1057,1057,1057,1058,1059],"ymouse":[644,644,644,644,644,644,644,644,644,644,644,644,644,644,644,644,644,644,644,644,644,644,644,644,644,644,644,644,644,644,644,641,613,589,557,521,489,359,294,242,198,158,94,74,67,64,63,63,63,62,58],"timestamp_mouse":[8,24,49,63,85,104,125,145,163,185,205,224,244,264,285,305,323,345,365,384,405,424,443,465,485,503,524,543,563,584,604,623,644,664,684,704,725,744,765,784,804,824,844,864,884,904,924,944,963,984,1003],"xSR":741.5,"ySR":573.95,"xT1":424.9,"yT1":0,"xT2":1058.1,"yT2":0,"toosoon":0,"cond_shown":"Congruent","ratio_trial":100,"L_num":15,"L_den":25,"R_num":13,"R_den":26,"correct_side":1,"subjID":"maeocastiblanco36","gender":"0","school":"6","age":"11"},{"start_time":1551892596703,"click_time":1551892597430,"finger_time":1551892597071,"fix_duration":1231.120373070068,"trial":31,"RT":368,"MT":359,"sideResp":1,"stimulus":[],"xmouse":[793,793,793,793,793,793,793,793,793,793,793,793,793,793,793,793,786,777,757,698,657,617,604,599,585,574,561,551,547,545,545,544,544,544,543,536,522],"ymouse":[613,613,613,613,613,613,613,613,613,613,613,613,613,613,613,613,602,592,570,525,496,465,447,429,389,365,343,324,312,288,272,247,223,195,129,87,43],"timestamp_mouse":[8,37,45,67,87,105,126,146,165,187,207,226,246,267,286,306,326,346,368,386,407,426,446,466,486,506,526,546,566,587,606,626,646,666,686,707,727],"xSR":741.5,"ySR":573.95,"xT1":424.9,"yT1":0,"xT2":1058.1,"yT2":0,"toosoon":0,"cond_shown":"Incongruent","ratio_trial":100,"L_num":12,"L_den":30,"R_num":2,"R_den":4,"correct_side":2,"subjID":"maeocastiblanco36","gender":"0","school":"6","age":"11"},{"start_time":1551892599452,"click_time":1551892600849,"finger_time":1551892600289,"fix_duration":441.59083042278445,"trial":32,"RT":837,"MT":560,"sideResp":1,"stimulus":[],"xmouse":[770,770,770,770,770,770,770,770,770,770,770,770,770,770,770,770,770,770,770,770,770,770,770,770,770,770,770,770,770,770,770,770,770,770,770,770,770,770,770,768,754,732,726,719,713,710,704,698,691,683,670,608,596,588,574,554,531,529,529,529,529,529,529,529,529,529,529,529,525,524],"ymouse":[649,649,649,649,649,649,649,649,649,649,649,649,649,649,649,649,649,649,649,649,649,649,649,649,649,649,649,649,649,649,649,649,649,649,649,649,649,649,647,638,621,592,578,559,544,529,498,475,452,429,395,251,214,175,126,65,6,0,0,0,0,0,0,0,0,0,0,0,1,2],"timestamp_mouse":[18,41,59,78,97,119,137,158,177,197,217,237,258,277,297,317,337,358,378,399,417,438,459,478,498,518,537,558,577,597,617,637,658,678,697,717,738,757,777,797,817,837,858,878,898,917,937,957,977,997,1017,1037,1058,1077,1097,1117,1137,1157,1177,1197,1218,1237,1258,1277,1297,1318,1338,1357,1377,1397],"xSR":741.5,"ySR":573.95,"xT1":424.9,"yT1":0,"xT2":1058.1,"yT2":0,"toosoon":0,"cond_shown":"Congruent","ratio_trial":300,"L_num":20,"L_den":25,"R_num":9,"R_den":18,"correct_side":1,"subjID":"maeocastiblanco36","gender":"0","school":"6","age":"11"},{"start_time":1551892603964,"click_time":1551892606170,"finger_time":1551892605789,"fix_duration":1411.2895868825028,"trial":33,"RT":1825,"MT":381,"sideResp":1,"stimulus":[],"xmouse":[762,762,762,762,762,762,762,762,762,762,762,762,762,762,762,762,762,762,762,762,762,762,762,762,762,762,762,762,762,762,762,762,762,762,762,762,762,762,762,762,762,762,762,762,762,762,762,762,762,762,762,762,762,762,762,762,762,762,762,762,762,762,762,762,762,762,762,762,762,762,762,762,762,762,762,762,762,762,762,762,762,762,762,762,762,762,762,762,763,756,746,735,726,712,699,683,643,628,611,593,570,537,527,520,513,506,502,502,501,501,504],"ymouse":[607,607,607,607,607,607,607,607,607,607,607,607,607,607,607,607,607,607,607,607,607,607,607,607,607,607,607,607,607,607,607,607,607,607,607,607,607,607,607,607,607,607,607,607,607,607,607,607,607,607,607,607,607,607,607,607,607,607,607,607,607,607,607,607,607,607,607,607,607,607,607,607,607,607,607,607,607,607,607,607,607,607,607,607,607,607,607,607,606,596,589,576,565,552,538,526,496,485,469,454,434,391,366,339,312,279,203,156,131,110,92],"timestamp_mouse":[9,39,45,66,85,106,126,146,165,185,205,225,245,266,285,305,327,345,367,386,406,425,446,466,486,506,526,546,565,585,605,625,646,666,685,706,726,746,765,787,806,825,846,865,886,905,926,945,965,987,1006,1025,1045,1065,1086,1105,1126,1145,1166,1185,1206,1225,1245,1266,1285,1305,1326,1346,1366,1385,1406,1426,1446,1465,1485,1506,1525,1545,1565,1586,1606,1625,1646,1665,1686,1706,1726,1745,1765,1785,1805,1825,1846,1865,1885,1906,1926,1945,1965,1986,2006,2027,2046,2065,2085,2105,2125,2145,2165,2185,2206],"xSR":741.5,"ySR":573.95,"xT1":424.9,"yT1":0,"xT2":1058.1,"yT2":0,"toosoon":0,"cond_shown":"Congruent","ratio_trial":200,"L_num":8,"L_den":15,"R_num":2,"R_den":6,"correct_side":1,"subjID":"maeocastiblanco36","gender":"0","school":"6","age":"11"},{"start_time":1551892608874,"click_time":1551892609829,"finger_time":1551892609289,"fix_duration":664.4979344527266,"trial":34,"RT":415,"MT":540,"sideResp":2,"stimulus":[],"xmouse":[758,758,758,758,758,758,758,758,758,758,758,758,758,758,758,758,758,758,764,767,781,789,790,791,791,800,817,846,893,933,994,1004,1010,1013,1014,1016,1016,1018,1020,1023,1031,1044,1051,1060,1065,1074,1079,1083],"ymouse":[608,608,608,608,608,608,608,608,608,608,608,608,608,608,608,608,608,608,599,592,565,553,549,548,546,532,515,488,452,420,373,362,351,347,345,339,334,327,316,295,247,220,203,184,165,125,107,92],"timestamp_mouse":[15,35,56,75,95,116,135,155,176,195,215,235,255,277,295,315,335,357,375,395,415,435,456,476,495,515,535,555,575,596,615,636,655,675,695,715,736,755,775,795,815,837,855,875,895,915,935,955],"xSR":741.5,"ySR":573.95,"xT1":424.9,"yT1":0,"xT2":1058.1,"yT2":0,"toosoon":0,"cond_shown":"Incongruent","ratio_trial":200,"L_num":11,"L_den":20,"R_num":3,"R_den":4,"correct_side":2,"subjID":"maeocastiblanco36","gender":"0","school":"6","age":"11"},{"start_time":1551892613349,"click_time":1551892614189,"finger_time":1551892613769,"fix_duration":959.8256590416456,"trial":35,"RT":420,"MT":420,"sideResp":2,"stimulus":[],"xmouse":[786,786,786,786,786,786,786,786,786,786,786,786,786,789,794,798,802,807,809,810,810,810,812,812,814,817,819,827,840,853,868,890,931,951,971,990,1010,1049,1071,1094,1104,1111,1115],"ymouse":[632,632,632,632,632,632,632,632,632,632,632,632,632,628,621,616,609,594,582,578,574,573,569,565,561,555,547,530,509,493,476,460,429,415,398,379,359,303,264,202,159,120,72],"timestamp_mouse":[4,22,40,60,80,101,121,140,161,181,200,221,242,260,281,300,320,340,360,380,400,420,440,461,480,500,521,541,561,580,601,620,640,660,680,700,721,740,760,780,800,820,840],"xSR":741.5,"ySR":573.95,"xT1":424.9,"yT1":0,"xT2":1058.1,"yT2":0,"toosoon":0,"cond_shown":"Incongruent","ratio_trial":100,"L_num":3,"L_den":6,"R_num":4,"R_den":10,"correct_side":1,"subjID":"maeocastiblanco36","gender":"0","school":"6","age":"11"},{"start_time":1551892616214,"click_time":1551892617391,"finger_time":1551892616689,"fix_duration":524.7471112502182,"trial":36,"RT":475,"MT":702,"sideResp":1,"stimulus":[],"xmouse":[790,790,790,790,790,790,790,790,790,790,790,790,790,790,790,790,790,790,790,790,790,790,787,713,697,691,690,690,686,685,684,683,681,680,680,680,676,671,657,652,649,647,641,618,593,575,560,547,534,531,528,525,522,518,516,514,513,510,500],"ymouse":[604,604,604,604,604,604,604,604,604,604,604,604,604,604,604,604,604,604,604,604,604,603,597,528,511,500,492,484,469,462,452,438,422,376,352,322,303,287,257,250,245,242,234,215,200,188,178,169,158,153,148,143,137,127,124,119,114,106,85],"timestamp_mouse":[16,44,56,75,95,117,135,155,175,195,215,236,255,275,295,315,336,356,376,396,415,435,456,475,495,515,536,555,575,596,615,636,656,675,695,716,735,755,775,795,815,837,856,875,896,915,935,955,975,995,1015,1036,1055,1075,1095,1115,1135,1155,1176],"xSR":741.5,"ySR":573.95,"xT1":424.9,"yT1":0,"xT2":1058.1,"yT2":0,"toosoon":0,"cond_shown":"Congruent","ratio_trial":200,"L_num":6,"L_den":12,"R_num":7,"R_den":10,"correct_side":2,"subjID":"maeocastiblanco36","gender":"0","school":"6","age":"11"},{"start_time":1551892619931,"click_time":1551892621511,"finger_time":1551892620549,"fix_duration":961.186296046238,"trial":37,"RT":618,"MT":962,"sideResp":1,"stimulus":[],"xmouse":[774,774,774,774,774,774,774,774,774,774,774,774,774,774,774,774,774,774,774,774,774,774,774,774,774,774,777,787,797,801,804,807,814,819,825,833,842,866,875,882,889,895,901,903,904,906,908,914,922,929,933,937,944,946,948,951,954,964,970,972,974,974,974,974,974,974,974,974,974,974,971,957,923,903,878,840,774,601,474],"ymouse":[609,609,609,609,609,609,609,609,609,609,609,609,609,609,609,609,609,609,609,609,609,609,609,609,609,607,602,589,579,574,569,562,547,537,527,513,499,455,437,418,403,390,378,373,370,365,361,348,329,308,284,261,241,236,231,225,220,208,201,199,199,199,199,199,199,199,199,199,199,199,198,197,193,190,185,177,165,118,85],"timestamp_mouse":[21,39,58,79,98,118,139,158,178,198,218,238,258,278,299,318,340,358,378,400,418,438,460,478,498,518,538,558,579,598,618,638,658,679,699,718,739,758,779,798,818,839,858,879,898,919,939,958,978,998,1019,1039,1058,1078,1099,1118,1138,1158,1178,1198,1218,1238,1258,1278,1298,1318,1338,1359,1379,1399,1419,1439,1458,1479,1499,1518,1539,1558,1579],"xSR":741.5,"ySR":573.95,"xT1":424.9,"yT1":0,"xT2":1058.1,"yT2":0,"toosoon":0,"cond_shown":"Incongruent","ratio_trial":200,"L_num":1,"L_den":2,"R_num":3,"R_den":10,"correct_side":1,"subjID":"maeocastiblanco36","gender":"0","school":"6","age":"11"},{"start_time":1551892623959,"click_time":1551892629111,"finger_time":1551892625589,"fix_duration":368.2701164157729,"trial":38,"RT":1630,"MT":3522,"sideResp":2,"stimulus":[],"xmouse":[773,773,773,773,773,773,773,773,773,773,773,773,773,773,773,773,773,773,773,773,773,773,773,773,773,773,773,773,773,773,773,773,773,773,773,773,773,773,773,773,773,773,773,773,773,773,773,773,773,773,773,773,773,773,773,773,773,773,773,773,773,773,773,773,773,773,773,773,774,775,777,780,781,781,781,781,781,781,781,781,776,747,730,722,720,719,721,725,725,724,713,689,687,687,687,685,666,644,637,636,636,633,630,627,625,622,613,610,609,609,609,609,609,609,609,609,609,609,609,609,609,609,609,609,609,609,609,609,609,609,609,609,609,609,609,609,609,609,609,609,609,609,609,609,609,607,596,588,588,588,588,587,583,580,578,577,576,571,569,567,566,565,565,565,565,565,565,565,565,565,565,565,565,565,565,565,580,620,653,684,711,762,785,809,834,858,891,895,895,895,895,894,894,894,894,894,899,909,916,922,930,948,960,969,974,976,978,979,981,984,989,1000,1006,1012,1020,1030,1047,1057,1062,1065,1065,1065,1065,1065,1065,1065,1065,1065,1065,1066,1066,1066,1066,1066,1066,1066,1066,1066,1066,1066,1066,1066,1066,1066,1066,1066,1066,1066,1066,1066,1066,1066,1066,1066,1066,1066,1066,1066],"ymouse":[625,625,625,625,625,625,625,625,625,625,625,625,625,625,625,625,625,625,625,625,625,625,625,625,625,627,628,628,628,628,628,628,628,628,628,628,628,628,628,628,628,628,628,628,628,628,628,628,628,628,628,628,628,628,628,628,628,628,628,628,628,628,628,628,628,628,628,628,627,625,621,616,613,612,611,610,607,602,597,590,580,548,530,520,514,499,455,424,406,389,368,339,337,337,337,336,319,300,293,293,292,285,280,275,271,267,255,251,250,250,250,250,250,250,250,250,250,250,250,250,250,250,250,250,250,250,250,250,250,250,250,250,250,250,250,250,250,250,250,250,250,250,250,250,250,247,235,225,225,225,225,219,212,207,204,203,200,196,193,192,191,190,190,190,190,190,190,190,190,190,190,190,190,190,190,189,183,178,177,174,174,174,174,174,174,174,173,172,171,169,164,160,159,158,156,155,150,147,144,143,142,140,140,139,138,137,137,137,136,136,136,134,133,132,132,132,130,130,130,129,129,129,129,129,129,129,129,129,129,129,126,121,119,119,119,118,116,115,114,114,114,113,112,111,110,109,107,107,107,107,107,107,106,106,105,103,101,99],"timestamp_mouse":[10,32,51,71,92,111,132,151,171,190,211,231,250,270,291,311,331,350,371,391,411,431,451,471,490,511,530,550,570,590,611,630,651,670,691,711,732,751,771,791,811,831,850,872,891,911,931,950,971,990,1011,1031,1050,1070,1090,1111,1130,1151,1170,1190,1210,1231,1250,1271,1291,1311,1330,1350,1370,1391,1410,1430,1452,1471,1490,1510,1530,1550,1570,1591,1610,1630,1651,1670,1690,1711,1730,1751,1770,1790,1810,1830,1850,1870,1890,1911,1930,1950,1970,1991,2010,2030,2051,2070,2090,2110,2130,2150,2170,2190,2210,2230,2251,2271,2290,2311,2330,2350,2370,2391,2411,2431,2450,2470,2491,2510,2531,2551,2571,2590,2611,2630,2651,2671,2691,2710,2731,2750,2771,2790,2810,2831,2850,2870,2891,2912,2930,2951,2971,2990,3011,3031,3051,3071,3090,3110,3130,3150,3170,3191,3211,3230,3251,3270,3290,3310,3331,3350,3371,3390,3411,3430,3450,3470,3490,3511,3530,3550,3570,3590,3610,3630,3651,3670,3690,3711,3731,3750,3771,3791,3810,3830,3850,3870,3890,3911,3930,3951,3970,3991,4011,4030,4050,4071,4090,4110,4130,4150,4170,4191,4210,4230,4250,4270,4290,4311,4332,4350,4370,4391,4410,4430,4450,4470,4491,4510,4531,4550,4570,4592,4610,4630,4651,4671,4691,4715,4730,4751,4770,4791,4811,4830,4850,4870,4890,4911,4930,4951,4970,4990,5010,5031,5051,5070,5090,5110,5130,5151],"xSR":741.5,"ySR":573.95,"xT1":424.9,"yT1":0,"xT2":1058.1,"yT2":0,"toosoon":0,"cond_shown":"Incongruent","ratio_trial":100,"L_num":2,"L_den":4,"R_num":6,"R_den":15,"correct_side":1,"subjID":"maeocastiblanco36","gender":"0","school":"6","age":"11"},{"start_time":1551892634931,"click_time":1551892637489,"finger_time":1551892636929,"fix_duration":720.2882782835168,"trial":39,"RT":1998,"MT":560,"sideResp":2,"stimulus":[],"xmouse":[784,784,784,784,784,784,784,784,784,784,784,784,784,784,784,784,784,784,784,784,784,784,784,784,784,784,784,784,784,784,784,784,784,784,784,784,784,784,784,784,784,784,784,784,784,784,784,784,784,784,784,784,784,784,784,784,784,784,784,784,784,784,784,784,784,784,784,784,784,784,784,784,784,784,784,784,784,784,784,784,784,784,784,784,784,784,784,784,784,784,784,784,784,784,784,784,784,784,783,781,775,769,762,759,758,757,757,757,757,756,756,755,755,755,755,755,755,755,757,765,777,793,860,917,991,1056,1102,1144],"ymouse":[607,607,607,607,607,607,607,607,607,607,607,607,607,607,607,607,607,607,607,607,607,607,607,607,607,607,607,607,607,607,607,607,607,607,607,607,607,607,607,607,607,607,607,607,607,607,607,607,607,607,607,607,607,607,607,607,607,607,607,607,607,607,607,607,607,607,607,607,607,607,607,607,607,607,607,607,607,607,607,607,607,607,607,607,607,607,607,607,607,607,607,607,607,607,607,607,607,590,575,555,533,511,481,473,467,466,464,463,462,461,460,458,458,458,458,458,455,452,441,432,416,392,292,238,183,142,111,76],"timestamp_mouse":[18,39,59,78,98,118,138,159,178,198,219,238,259,278,298,319,339,358,379,399,418,440,459,479,498,518,539,560,578,598,618,638,659,678,698,719,740,759,778,799,819,840,860,879,899,919,938,958,978,998,1018,1040,1059,1079,1099,1118,1139,1158,1179,1198,1219,1239,1258,1279,1299,1319,1338,1358,1379,1399,1419,1438,1459,1479,1499,1518,1538,1558,1580,1599,1619,1638,1658,1678,1699,1719,1738,1760,1780,1800,1819,1839,1859,1879,1899,1919,1939,1958,1978,1998,2019,2038,2058,2078,2098,2118,2138,2159,2178,2198,2218,2239,2258,2279,2299,2318,2339,2358,2378,2398,2419,2438,2460,2478,2498,2518,2538,2558],"xSR":741.5,"ySR":573.95,"xT1":424.9,"yT1":0,"xT2":1058.1,"yT2":0,"toosoon":0,"cond_shown":"Congruent","ratio_trial":200,"L_num":21,"L_den":30,"R_num":2,"R_den":4,"correct_side":1,"subjID":"maeocastiblanco36","gender":"0","school":"6","age":"11"},{"start_time":1551892645192,"click_time":1551892647270,"finger_time":1551892646989,"fix_duration":1442.1389620498576,"trial":40,"RT":1797,"MT":281,"sideResp":2,"stimulus":[],"xmouse":[794,794,794,794,794,794,794,794,794,794,794,794,794,794,794,794,794,794,794,794,794,794,794,794,794,794,794,794,794,794,794,794,794,794,794,794,794,794,794,794,794,794,794,794,794,794,794,794,794,794,794,794,794,794,794,794,794,794,794,794,794,794,794,794,794,794,794,794,794,794,794,794,794,794,794,794,794,794,794,794,794,794,794,794,794,794,795,798,809,856,879,904,930,957,1004,1018,1026,1036,1043,1055,1058,1060,1062,1063],"ymouse":[634,634,634,634,634,634,634,634,634,634,634,634,634,634,634,634,634,634,634,634,634,634,634,634,634,634,634,634,634,634,634,634,634,634,634,634,634,634,634,634,634,634,634,634,634,634,634,634,634,634,634,634,634,634,634,634,634,634,634,634,634,634,634,634,634,634,634,634,634,634,634,634,634,634,634,634,634,634,634,634,634,634,634,634,634,634,630,628,616,580,560,538,512,478,393,339,282,212,181,140,124,112,101,91],"timestamp_mouse":[32,38,58,77,98,118,137,158,178,198,217,237,257,277,299,318,337,357,378,398,418,438,458,477,497,518,537,557,578,597,618,638,658,677,697,718,738,757,778,798,819,837,858,878,897,918,938,958,979,998,1019,1038,1058,1077,1097,1117,1138,1157,1179,1198,1217,1237,1257,1277,1298,1317,1338,1358,1378,1397,1418,1437,1458,1478,1498,1517,1537,1558,1578,1598,1617,1639,1658,1677,1697,1717,1737,1758,1777,1797,1818,1837,1857,1877,1897,1917,1937,1958,1977,1998,2017,2037,2057,2078],"xSR":741.5,"ySR":573.95,"xT1":424.9,"yT1":0,"xT2":1058.1,"yT2":0,"toosoon":0,"cond_shown":"Incongruent","ratio_trial":100,"L_num":17,"L_den":30,"R_num":10,"R_den":15,"correct_side":2,"subjID":"maeocastiblanco36","gender":"0","school":"6","age":"11"},{"start_time":1551892649707,"click_time":1551892653109,"finger_time":1551892651470,"fix_duration":1114.6438762446617,"trial":41,"RT":1763,"MT":1639,"sideResp":1,"stimulus":[],"xmouse":[809,809,809,809,809,809,809,809,809,809,809,809,809,809,809,809,809,809,809,809,809,809,809,809,809,809,809,809,809,809,809,809,809,809,809,809,809,809,809,809,809,809,809,809,809,809,809,809,809,809,809,809,809,809,809,809,809,809,809,809,809,809,809,809,809,809,809,809,809,809,809,809,809,809,809,809,809,809,809,808,807,807,806,806,805,803,802,801,801,801,803,806,809,813,824,832,842,856,869,907,928,956,972,984,999,1004,1009,1014,1021,1024,102