[{"start_time":1551893355556,"click_time":1551893357004,"finger_time":1551893356183,"fix_duration":807.4634796419896,"trial":0,"RT":627,"MT":821,"sideResp":2,"stimulus":"img/900/equaldotsize/R/12_Ratio_900_L_18_R_20.png","xmouse":[815,815,815,815,815,815,815,815,815,815,815,815,815,815,815,815,815,815,815,815,815,815,815,815,815,815,815,815,815,828,838,845,849,855,907,974,1055,1170,1217,1243,1243,1243,1243,1243,1243,1243,1243,1243,1243,1243,1243,1243,1243,1243,1243,1228,1225,1223,1220,1219,1218,1213,1207,1200,1191,1188,1187,1187,1187,1184,1174,1160,1142],"ymouse":[522,522,522,522,522,522,522,522,522,522,522,522,522,522,522,522,522,522,522,522,522,522,522,522,522,522,522,522,522,513,506,498,490,480,422,366,291,158,70,4,4,4,4,4,4,4,4,4,4,4,4,4,4,4,4,6,16,23,27,29,29,29,29,29,29,29,29,29,29,29,29,29,35],"timestamp_mouse":[9,31,48,67,87,108,128,148,167,187,208,227,248,268,287,309,327,347,367,388,407,427,448,467,487,507,528,549,567,587,607,627,647,668,687,709,728,748,768,788,808,828,847,867,887,908,928,947,968,987,1008,1029,1048,1069,1087,1109,1127,1147,1168,1187,1207,1229,1248,1268,1287,1308,1327,1348,1369,1387,1407,1428,1448],"xSR":741.5,"ySR":469.95,"xT1":424.9,"yT1":0,"xT2":1058.1,"yT2":0,"toosoon":0,"cond_shown":"equaldotsize","ratio_trial":900,"smaller_num":"18","larger_num":"20","correct_side":2,"subjID":"MateoCastiblanco36","gender":"0","age":"11","school":"6","test":{"fix_dur":[250,1500],"timestim":300,"targets_dim":[100,100],"targets_relative_coord":[0.3,0.7],"size_stim":[880,420],"start_dim":[100,100],"size_start":[300,300],"size_fix":60,"samplingrate":20,"img_types":["equaldotsize","equaldotanddens","randomdotsizeEA"],"ratios":[250,500,750,900],"rep_conds":9,"nTrials":120,"trials_to_rest":500,"Trials_order":[105,48,42,43,117,61,60,39,116,24,64,68,0,118,115,56,15,88,11,74,79,37,71,70,3,86,101,6,112,96,2,104,103,111,59,52,54,77,100,91,8,75,98,99,5,58,110,4,10,108,66,50,89,107,33,97,7,45,80,94,31,69,67,18,9,25,16,95,63,49,26,12,113,114,23,14,57,55,22,32,65,38,44,51,93,85,90,73,72,92,109,1,20,78,13,53,19,102,21,106,41,17,76,87,83,62,47,29,40,30,46,35,84,36,27,119,81,28,82,34],"cond_shown":["equaldotsize","equaldotsize","equaldotsize","equaldotanddens","equaldotsize","equaldotanddens","equaldotsize","equaldotsize","randomdotsizeEA","equaldotsize","equaldotanddens","randomdotsizeEA","equaldotsize","equaldotanddens","equaldotanddens","randomdotsizeEA","equaldotsize","equaldotanddens","randomdotsizeEA","randomdotsizeEA","equaldotanddens","equaldotanddens","randomdotsizeEA","equaldotanddens","equaldotsize","randomdotsizeEA","randomdotsizeEA","equaldotsize","equaldotanddens","equaldotsize","randomdotsizeEA","randomdotsizeEA","equaldotanddens","equaldotsize","randomdotsizeEA","equaldotanddens","equaldotsize","randomdotsizeEA","equaldotanddens","equaldotanddens","randomdotsizeEA","equaldotsize","randomdotsizeEA","equaldotsize","randomdotsizeEA","equaldotanddens","randomdotsizeEA","equaldotanddens","equaldotanddens","equaldotsize","equaldotsize","randomdotsizeEA","randomdotsizeEA","randomdotsizeEA","equaldotsize","equaldotanddens","equaldotanddens","equaldotsize","randomdotsizeEA","equaldotanddens","equaldotanddens","equaldotsize","equaldotanddens","equaldotsize","equaldotsize","equaldotanddens","equaldotanddens","randomdotsizeEA","equaldotsize","equaldotanddens","randomdotsizeEA","equaldotsize","randomdotsizeEA","equaldotsize","randomdotsizeEA","randomdotsizeEA","equaldotsize","equaldotanddens","equaldotanddens","randomdotsizeEA","randomdotsizeEA","randomdotsizeEA","randomdotsizeEA","equaldotsize","equaldotsize","equaldotanddens","equaldotsize","equaldotanddens","equaldotsize","randomdotsizeEA","equaldotanddens","equaldotanddens","randomdotsizeEA","equaldotsize","equaldotanddens","randomdotsizeEA","equaldotanddens","equaldotsize","equaldotsize","equaldotanddens","randomdotsizeEA","randomdotsizeEA","equaldotanddens","equaldotsize","randomdotsizeEA","randomdotsizeEA","randomdotsizeEA","randomdotsizeEA","equaldotanddens","equaldotsize","equaldotanddens","randomdotsizeEA","equaldotsize","equaldotsize","equaldotsize","randomdotsizeEA","equaldotsize","equaldotanddens","equaldotanddens","equaldotanddens"],"ratio_trial":[900,250,750,750,900,250,250,500,750,250,500,750,250,900,750,750,500,500,900,250,750,250,900,900,500,250,500,750,500,250,250,750,750,500,900,500,750,500,500,750,750,500,250,500,500,900,250,500,900,250,750,250,500,900,900,250,750,900,750,900,750,900,750,750,900,250,500,900,500,250,250,250,500,750,900,250,900,750,900,750,500,250,750,500,900,250,750,250,250,750,250,250,750,750,250,500,750,750,900,900,500,500,500,500,900,250,900,500,500,750,900,900,250,250,500,900,900,500,900,900],"smaller_num":["18","3","9","9","18","3","2","1","18","2","3","15","6","18","9","6","4","6","9","3","15","6","18","18","1","3","1","6","9","3","6","3","15","9","9","4","15","1","6","3","3","2","3","5","6","18","2","3","18","2","9","2","10","18","18","5","6","18","3","18","12","9","18","6","18","3","6","9","9","4","3","4","2","9","9","6","18","15","18","6","2","5","3","1","9","5","18","2","3","3","3","4","12","15","1","6","3","15","18","18","10","9","2","9","9","2","18","9","9","15","18","9","5","6","5","18","18","3","9","9"],"larger_num":["20","12","12","12","20","12","8","2","24","8","6","20","24","20","12","8","8","12","10","12","20","24","20","20","2","12","2","8","18","12","24","4","20","18","10","8","20","2","12","4","4","4","12","10","12","20","8","6","20","8","12","8","20","20","20","20","8","20","4","20","16","10","24","8","20","12","12","10","18","16","12","16","4","12","10","24","20","20","20","8","4","20","4","2","10","20","24","8","12","4","12","16","16","20","4","12","4","20","20","20","20","18","4","18","10","8","20","18","18","20","20","10","20","24","10","20","20","6","10","10"],"correct_side":[2,1,2,2,1,1,1,2,1,1,2,2,2,1,2,1,1,1,1,2,2,1,1,2,2,2,2,1,2,1,1,2,2,1,2,1,1,2,1,2,2,1,2,2,1,1,1,2,1,1,2,1,2,2,1,2,1,2,1,1,2,1,1,1,1,1,1,1,2,1,2,2,1,2,2,1,1,2,1,1,1,2,1,2,1,2,1,1,2,1,2,1,2,2,2,1,2,2,1,2,2,2,1,1,2,2,2,1,2,2,1,2,2,2,2,2,2,2,1,2],"img_shown":["img/900/equaldotsize/R/12_Ratio_900_L_18_R_20.png","img/250/equaldotsize/L/14_Ratio_250_L_12_R_3.png","img/750/equaldotsize/R/15_Ratio_750_L_9_R_12.png","img/750/equaldotanddens/R/15_Ratio_750_L_9_R_12.png","img/900/equaldotsize/L/4_Ratio_900_L_20_R_18.png","img/250/equaldotanddens/L/14_Ratio_250_L_12_R_3.png","img/250/equaldotsize/L/1_Ratio_250_L_8_R_2.png","img/500/equaldotsize/R/15_Ratio_500_L_1_R_2.png","img/750/randomdotsizeEA/L/6_Ratio_750_L_24_R_18.png","img/250/equaldotsize/L/3_Ratio_250_L_8_R_2.png","img/500/equaldotanddens/R/2_Ratio_500_L_3_R_6.png","img/750/randomdotsizeEA/R/5_Ratio_750_L_15_R_20.png","img/250/equaldotsize/R/6_Ratio_250_L_6_R_24.png","img/900/equaldotanddens/L/10_Ratio_900_L_20_R_18.png","img/750/equaldotanddens/R/15_Ratio_750_L_9_R_12.png","img/750/randomdotsizeEA/L/13_Ratio_750_L_8_R_6.png","img/500/equaldotsize/L/8_Ratio_500_L_8_R_4.png","img/500/equaldotanddens/L/11_Ratio_500_L_12_R_6.png","img/900/randomdotsizeEA/L/1_Ratio_900_L_10_R_9.png","img/250/randomdotsizeEA/R/9_Ratio_250_L_3_R_12.png","img/750/equaldotanddens/R/4_Ratio_750_L_15_R_20.png","img/250/equaldotanddens/L/5_Ratio_250_L_24_R_6.png","img/900/randomdotsizeEA/L/10_Ratio_900_L_20_R_18.png","img/900/equaldotanddens/R/14_Ratio_900_L_18_R_20.png","img/500/equaldotsize/R/15_Ratio_500_L_1_R_2.png","img/250/randomdotsizeEA/R/4_Ratio_250_L_3_R_12.png","img/500/randomdotsizeEA/R/12_Ratio_500_L_1_R_2.png","img/750/equaldotsize/L/13_Ratio_750_L_8_R_6.png","img/500/equaldotanddens/R/6_Ratio_500_L_9_R_18.png","img/250/equaldotsize/L/15_Ratio_250_L_12_R_3.png","img/250/randomdotsizeEA/L/5_Ratio_250_L_24_R_6.png","img/750/randomdotsizeEA/R/7_Ratio_750_L_3_R_4.png","img/750/equaldotanddens/R/4_Ratio_750_L_15_R_20.png","img/500/equaldotsize/L/4_Ratio_500_L_18_R_9.png","img/900/randomdotsizeEA/R/7_Ratio_900_L_9_R_10.png","img/500/equaldotanddens/L/8_Ratio_500_L_8_R_4.png","img/750/equaldotsize/L/1_Ratio_750_L_20_R_15.png","img/500/randomdotsizeEA/R/12_Ratio_500_L_1_R_2.png","img/500/equaldotanddens/L/11_Ratio_500_L_12_R_6.png","img/750/equaldotanddens/R/12_Ratio_750_L_3_R_4.png","img/750/randomdotsizeEA/R/12_Ratio_750_L_3_R_4.png","img/500/equaldotsize/L/5_Ratio_500_L_4_R_2.png","img/250/randomdotsizeEA/R/4_Ratio_250_L_3_R_12.png","img/500/equaldotsize/R/14_Ratio_500_L_5_R_10.png","img/500/randomdotsizeEA/L/11_Ratio_500_L_12_R_6.png","img/900/equaldotanddens/L/10_Ratio_900_L_20_R_18.png","img/250/randomdotsizeEA/L/3_Ratio_250_L_8_R_2.png","img/500/equaldotanddens/R/2_Ratio_500_L_3_R_6.png","img/900/equaldotanddens/L/2_Ratio_900_L_20_R_18.png","img/250/equaldotsize/L/1_Ratio_250_L_8_R_2.png","img/750/equaldotsize/R/15_Ratio_750_L_9_R_12.png","img/250/randomdotsizeEA/L/1_Ratio_250_L_8_R_2.png","img/500/randomdotsizeEA/R/3_Ratio_500_L_10_R_20.png","img/900/randomdotsizeEA/R/11_Ratio_900_L_18_R_20.png","img/900/equaldotsize/L/8_Ratio_900_L_20_R_18.png","img/250/equaldotanddens/R/12_Ratio_250_L_5_R_20.png","img/750/equaldotanddens/L/13_Ratio_750_L_8_R_6.png","img/900/equaldotsize/R/11_Ratio_900_L_18_R_20.png","img/750/randomdotsizeEA/L/10_Ratio_750_L_4_R_3.png","img/900/equaldotanddens/L/10_Ratio_900_L_20_R_18.png","img/750/equaldotanddens/R/11_Ratio_750_L_12_R_16.png","img/900/equaldotsize/L/1_Ratio_900_L_10_R_9.png","img/750/equaldotanddens/L/6_Ratio_750_L_24_R_18.png","img/750/equaldotsize/L/14_Ratio_750_L_8_R_6.png","img/900/equaldotsize/L/8_Ratio_900_L_20_R_18.png","img/250/equaldotanddens/L/14_Ratio_250_L_12_R_3.png","img/500/equaldotanddens/L/11_Ratio_500_L_12_R_6.png","img/900/randomdotsizeEA/L/1_Ratio_900_L_10_R_9.png","img/500/equaldotsize/R/1_Ratio_500_L_9_R_18.png","img/250/equaldotanddens/L/2_Ratio_250_L_16_R_4.png","img/250/randomdotsizeEA/R/11_Ratio_250_L_3_R_12.png","img/250/equaldotsize/R/10_Ratio_250_L_4_R_16.png","img/500/randomdotsizeEA/L/10_Ratio_500_L_4_R_2.png","img/750/equaldotsize/R/15_Ratio_750_L_9_R_12.png","img/900/randomdotsizeEA/R/5_Ratio_900_L_9_R_10.png","img/250/randomdotsizeEA/L/5_Ratio_250_L_24_R_6.png","img/900/equaldotsize/L/10_Ratio_900_L_20_R_18.png","img/750/equaldotanddens/R/5_Ratio_750_L_15_R_20.png","img/900/equaldotanddens/L/2_Ratio_900_L_20_R_18.png","img/750/randomdotsizeEA/L/13_Ratio_750_L_8_R_6.png","img/500/randomdotsizeEA/L/5_Ratio_500_L_4_R_2.png","img/250/randomdotsizeEA/R/12_Ratio_250_L_5_R_20.png","img/750/randomdotsizeEA/L/9_Ratio_750_L_4_R_3.png","img/500/equaldotsize/R/12_Ratio_500_L_1_R_2.png","img/900/equaldotsize/L/1_Ratio_900_L_10_R_9.png","img/250/equaldotanddens/R/12_Ratio_250_L_5_R_20.png","img/750/equaldotsize/L/6_Ratio_750_L_24_R_18.png","img/250/equaldotanddens/L/1_Ratio_250_L_8_R_2.png","img/250/equaldotsize/R/9_Ratio_250_L_3_R_12.png","img/750/randomdotsizeEA/L/8_Ratio_750_L_4_R_3.png","img/250/equaldotanddens/R/11_Ratio_250_L_3_R_12.png","img/250/equaldotanddens/L/2_Ratio_250_L_16_R_4.png","img/750/randomdotsizeEA/R/11_Ratio_750_L_12_R_16.png","img/750/equaldotsize/R/5_Ratio_750_L_15_R_20.png","img/250/equaldotanddens/R/8_Ratio_250_L_1_R_4.png","img/500/randomdotsizeEA/L/11_Ratio_500_L_12_R_6.png","img/750/equaldotanddens/R/12_Ratio_750_L_3_R_4.png","img/750/equaldotsize/R/4_Ratio_750_L_15_R_20.png","img/900/equaldotsize/L/10_Ratio_900_L_20_R_18.png","img/900/equaldotanddens/R/14_Ratio_900_L_18_R_20.png","img/500/randomdotsizeEA/R/3_Ratio_500_L_10_R_20.png","img/500/randomdotsizeEA/R/6_Ratio_500_L_9_R_18.png","img/500/equaldotanddens/L/10_Ratio_500_L_4_R_2.png","img/500/equaldotsize/L/4_Ratio_500_L_18_R_9.png","img/900/randomdotsizeEA/R/5_Ratio_900_L_9_R_10.png","img/250/randomdotsizeEA/R/13_Ratio_250_L_2_R_8.png","img/900/randomdotsizeEA/R/11_Ratio_900_L_18_R_20.png","img/500/randomdotsizeEA/L/4_Ratio_500_L_18_R_9.png","img/500/equaldotanddens/R/6_Ratio_500_L_9_R_18.png","img/750/equaldotsize/R/3_Ratio_750_L_15_R_20.png","img/900/equaldotanddens/L/2_Ratio_900_L_20_R_18.png","img/900/randomdotsizeEA/R/7_Ratio_900_L_9_R_10.png","img/250/equaldotsize/R/12_Ratio_250_L_5_R_20.png","img/250/equaldotsize/R/6_Ratio_250_L_6_R_24.png","img/500/equaldotsize/R/14_Ratio_500_L_5_R_10.png","img/900/randomdotsizeEA/R/13_Ratio_900_L_18_R_20.png","img/900/equaldotsize/R/12_Ratio_900_L_18_R_20.png","img/500/equaldotanddens/R/2_Ratio_500_L_3_R_6.png","img/900/equaldotanddens/L/1_Ratio_900_L_10_R_9.png","img/900/equaldotanddens/R/15_Ratio_900_L_9_R_10.png"],"Rat0":[["12_Ratio_0_L_9_R_0.png","13_Ratio_0_L_6_R_0.png","5_Ratio_0_L_2_R_0.png","6_Ratio_0_L_4_R_0.png","8_Ratio_0_L_6_R_0.png"],["1_Ratio_0_L_0_R_17.png","10_Ratio_0_L_0_R_22.png","11_Ratio_0_L_0_R_1.png","14_Ratio_0_L_0_R_24.png","15_Ratio_0_L_0_R_4.png","2_Ratio_0_L_0_R_5.png","3_Ratio_0_L_0_R_17.png","4_Ratio_0_L_0_R_7.png","7_Ratio_0_L_0_R_19.png","9_Ratio_0_L_0_R_15.png"]],"Rat250":[["1_Ratio_250_L_8_R_2.png","14_Ratio_250_L_12_R_3.png","15_Ratio_250_L_12_R_3.png","2_Ratio_250_L_16_R_4.png","3_Ratio_250_L_8_R_2.png","5_Ratio_250_L_24_R_6.png","7_Ratio_250_L_8_R_2.png"],["10_Ratio_250_L_4_R_16.png","11_Ratio_250_L_3_R_12.png","12_Ratio_250_L_5_R_20.png","13_Ratio_250_L_2_R_8.png","4_Ratio_250_L_3_R_12.png","6_Ratio_250_L_6_R_24.png","8_Ratio_250_L_1_R_4.png","9_Ratio_250_L_3_R_12.png"]],"Rat500":[["10_Ratio_500_L_4_R_2.png","11_Ratio_500_L_12_R_6.png","13_Ratio_500_L_12_R_6.png","4_Ratio_500_L_18_R_9.png","5_Ratio_500_L_4_R_2.png","7_Ratio_500_L_10_R_5.png","8_Ratio_500_L_8_R_4.png"],["1_Ratio_500_L_9_R_18.png","12_Ratio_500_L_1_R_2.png","14_Ratio_500_L_5_R_10.png","15_Ratio_500_L_1_R_2.png","2_Ratio_500_L_3_R_6.png","3_Ratio_500_L_10_R_20.png","6_Ratio_500_L_9_R_18.png","9_Ratio_500_L_2_R_4.png"]],"Rat750":[["1_Ratio_750_L_20_R_15.png","10_Ratio_750_L_4_R_3.png","13_Ratio_750_L_8_R_6.png","14_Ratio_750_L_8_R_6.png","6_Ratio_750_L_24_R_18.png","8_Ratio_750_L_4_R_3.png","9_Ratio_750_L_4_R_3.png"],["11_Ratio_750_L_12_R_16.png","12_Ratio_750_L_3_R_4.png","15_Ratio_750_L_9_R_12.png","2_Ratio_750_L_6_R_8.png","3_Ratio_750_L_15_R_20.png","4_Ratio_750_L_15_R_20.png","5_Ratio_750_L_15_R_20.png","7_Ratio_750_L_3_R_4.png"]],"Rat900":[["1_Ratio_900_L_10_R_9.png","10_Ratio_900_L_20_R_18.png","2_Ratio_900_L_20_R_18.png","4_Ratio_900_L_20_R_18.png","8_Ratio_900_L_20_R_18.png"],["11_Ratio_900_L_18_R_20.png","12_Ratio_900_L_18_R_20.png","13_Ratio_900_L_18_R_20.png","14_Ratio_900_L_18_R_20.png","15_Ratio_900_L_9_R_10.png","3_Ratio_900_L_9_R_10.png","5_Ratio_900_L_9_R_10.png","6_Ratio_900_L_9_R_10.png","7_Ratio_900_L_9_R_10.png","9_Ratio_900_L_18_R_20.png"]],"Rat1000":[["10_Ratio_1000_L_16_R_16.png","11_Ratio_1000_L_6_R_6.png","12_Ratio_1000_L_14_R_14.png","13_Ratio_1000_L_20_R_20.png","15_Ratio_1000_L_15_R_15.png","2_Ratio_1000_L_17_R_17.png","4_Ratio_1000_L_9_R_9.png","5_Ratio_1000_L_6_R_6.png","6_Ratio_1000_L_19_R_19.png","8_Ratio_1000_L_14_R_14.png","9_Ratio_1000_L_25_R_25.png"],["1_Ratio_1000_L_1_R_1.png","14_Ratio_1000_L_17_R_17.png","3_Ratio_1000_L_17_R_17.png","7_Ratio_1000_L_6_R_6.png"]]}},{"start_time":1551893358378,"click_time":1551893359445,"finger_time":1551893358764,"fix_duration":472.2516621097691,"trial":1,"RT":386,"MT":681,"sideResp":1,"stimulus":"img/250/equaldotsize/L/14_Ratio_250_L_12_R_3.png","xmouse":[764,764,764,764,764,764,764,764,764,764,764,764,764,764,764,764,764,764,777,790,799,800,798,781,770,759,743,733,671,610,581,581,581,581,581,581,581,581,581,581,581,581,581,581,581,581,581,581,393,400,406,412,419,430],"ymouse":[514,514,514,514,514,514,514,514,514,514,514,514,514,514,514,514,514,514,480,435,390,359,335,305,293,281,263,242,131,41,0,0,0,0,0,0,0,0,0,0,0,0,0,0,0,0,0,0,18,28,33,37,42,46],"timestamp_mouse":[8,25,46,67,87,105,125,146,165,185,205,226,246,267,287,305,325,345,367,386,406,426,446,465,486,506,526,545,566,587,605,627,646,666,686,707,726,745,766,786,806,825,846,866,886,906,926,945,967,986,1005,1025,1045,1066],"xSR":741.5,"ySR":469.95,"xT1":424.9,"yT1":0,"xT2":1058.1,"yT2":0,"toosoon":0,"cond_shown":"equaldotsize","ratio_trial":250,"smaller_num":"3","larger_num":"12","correct_side":1,"subjID":"MateoCastiblanco36","gender":"0","age":"11","school":"6"},{"start_time":1551893361213,"click_time":1551893362043,"finger_time":1551893361603,"fix_duration":648.6675235575269,"trial":2,"RT":390,"MT":440,"sideResp":2,"stimulus":"img/750/equaldotsize/R/15_Ratio_750_L_9_R_12.png","xmouse":[766,766,766,766,766,766,766,766,766,766,766,766,766,766,766,766,766,773,800,845,889,946,973,1001,1041,1060,1079,1082,1083,1084,1092,1097,1102,1103,1103,1103,1103,1103,1103,1103,1105,1090],"ymouse":[498,498,498,498,498,498,498,498,498,498,498,498,498,498,498,498,498,494,478,450,418,353,315,278,227,202,178,173,173,169,154,145,137,132,132,132,132,132,132,127,117,34],"timestamp_mouse":[10,37,51,71,91,110,131,151,171,190,212,231,251,270,291,311,330,350,370,390,411,430,451,471,490,510,530,550,571,591,612,630,651,670,692,710,730,751,772,791,810,830],"xSR":741.5,"ySR":469.95,"xT1":424.9,"yT1":0,"xT2":1058.1,"yT2":0,"toosoon":0,"cond_shown":"equaldotsize","ratio_trial":750,"smaller_num":"9","larger_num":"12","correct_side":2,"subjID":"MateoCastiblanco36","gender":"0","age":"11","school":"6"},{"start_time":1551893365907,"click_time":1551893369163,"finger_time":1551893368425,"fix_duration":781.8371340175837,"trial":3,"RT":2518,"MT":738,"sideResp":2,"stimulus":"img/750/equaldotanddens/R/15_Ratio_750_L_9_R_12.png","xmouse":[759,759,759,759,759,759,759,759,759,759,759,759,759,759,759,759,759,759,759,759,759,759,759,759,759,759,759,759,759,759,759,759,759,759,759,759,759,759,759,759,759,759,759,759,759,759,759,759,759,759,759,759,759,759,759,759,759,759,759,759,759,759,759,759,759,759,759,759,759,759,759,759,759,759,759,759,759,759,759,759,759,759,759,759,759,759,759,759,759,759,759,759,759,759,759,759,759,759,759,759,759,759,759,760,765,780,782,783,783,783,783,783,783,783,783,783,783,783,784,787,791,800,804,809,814,834,844,851,856,857,857,859,861,863,866,869,877,886,888,900,921,990,1016,1047,1070,1091,1110,1112,1114,1114,1114,1114,1114,1114,1114,1107,1093,1091,1091,1091,1091,1102,1127],"ymouse":[535,535,535,535,535,535,535,535,535,535,535,535,535,535,535,535,535,535,535,535,535,535,535,535,535,535,535,535,535,535,535,535,535,535,535,535,535,535,535,535,535,535,535,535,535,535,535,535,535,535,535,535,535,535,535,535,535,535,535,535,535,535,535,535,535,535,535,535,535,535,535,535,535,535,535,535,535,535,535,535,535,535,535,535,535,535,535,535,535,535,535,535,535,535,535,535,535,535,535,535,535,535,535,532,530,527,526,525,525,525,525,525,525,525,525,525,525,525,523,518,512,500,495,489,483,463,453,444,434,433,432,425,421,416,411,405,391,382,380,368,347,300,280,257,237,221,202,199,194,194,194,194,194,193,189,176,153,149,149,149,148,114,80],"timestamp_mouse":[17,38,56,77,97,117,137,156,177,197,217,238,257,276,297,317,336,356,376,396,416,436,457,477,496,516,536,557,576,598,616,636,657,677,697,717,736,757,776,797,816,836,856,876,898,916,936,957,977,998,1016,1036,1057,1077,1097,1117,1136,1157,1177,1196,1217,1237,1256,1276,1297,1316,1338,1357,1376,1397,1418,1436,1456,1476,1498,1517,1536,1556,1577,1596,1616,1636,1657,1678,1697,1717,1737,1756,1776,1796,1817,1836,1856,1876,1897,1918,1936,1958,1977,1996,2016,2036,2057,2077,2097,2118,2136,2156,2177,2197,2216,2236,2257,2276,2298,2316,2337,2358,2377,2396,2417,2436,2456,2477,2497,2518,2536,2557,2576,2597,2617,2636,2656,2676,2697,2717,2736,2757,2777,2798,2817,2836,2856,2876,2898,2917,2937,2956,2976,2997,3017,3037,3056,3077,3097,3116,3136,3157,3176,3196,3216,3237,3256],"xSR":741.5,"ySR":469.95,"xT1":424.9,"yT1":0,"xT2":1058.1,"yT2":0,"toosoon":0,"cond_shown":"equaldotanddens","ratio_trial":750,"smaller_num":"9","larger_num":"12","correct_side":2,"subjID":"MateoCastiblanco36","gender":"0","age":"11","school":"6"},{"start_time":1551893371561,"click_time":1551893373604,"finger_time":1551893372963,"fix_duration":1256.3870367723998,"trial":4,"RT":1402,"MT":641,"sideResp":2,"stimulus":"img/900/equaldotsize/L/4_Ratio_900_L_20_R_18.png","xmouse":[796,796,796,796,796,796,796,796,796,796,796,796,796,796,796,796,796,796,796,796,796,796,796,796,796,796,796,796,796,796,796,796,796,796,796,796,796,796,796,796,796,796,796,796,796,796,796,796,796,796,796,796,796,796,796,796,796,796,796,796,796,796,796,796,796,796,796,796,800,821,833,841,848,854,874,885,896,912,923,944,950,956,963,971,998,1008,1014,1018,1020,1031,1038,1042,1046,1047,1050,1050,1052,1053,1055,1065,1074,1091,1105],"ymouse":[496,496,496,496,496,496,496,496,496,496,496,496,496,496,496,496,496,496,496,496,496,496,496,496,496,496,496,496,496,496,496,496,496,496,496,496,496,496,496,496,496,496,496,496,496,496,496,496,496,496,496,496,496,496,496,496,496,496,496,496,496,496,496,496,496,496,496,496,492,472,462,454,445,440,420,411,402,390,382,364,355,342,328,313,286,277,272,268,264,252,244,239,233,227,219,215,209,201,191,157,135,103,81],"timestamp_mouse":[8,22,47,62,84,103,123,142,163,182,203,222,242,262,282,302,322,342,363,382,404,423,442,463,482,504,523,542,563,582,602,622,644,663,684,702,723,742,763,784,802,822,842,862,884,903,924,943,962,984,1002,1023,1044,1062,1083,1103,1122,1144,1162,1182,1203,1222,1243,1262,1282,1302,1323,1343,1363,1382,1402,1423,1443,1463,1482,1503,1523,1542,1563,1582,1603,1622,1643,1662,1682,1702,1722,1743,1763,1782,1804,1823,1843,1863,1882,1904,1922,1943,1962,1983,2002,2023,2043],"xSR":741.5,"ySR":469.95,"xT1":424.9,"yT1":0,"xT2":1058.1,"yT2":0,"toosoon":0,"cond_shown":"equaldotsize","ratio_trial":900,"smaller_num":"18","larger_num":"20","correct_side":1,"subjID":"MateoCastiblanco36","gender":"0","age":"11","school":"6"},{"start_time":1551893376430,"click_time":1551893377643,"finger_time":1551893376884,"fix_duration":683.0501236700769,"trial":5,"RT":454,"MT":759,"sideResp":1,"stimulus":"img/250/equaldotanddens/L/14_Ratio_250_L_12_R_3.png","xmouse":[798,798,798,798,798,798,798,798,798,798,798,798,798,798,798,798,798,798,798,797,777,756,725,710,698,683,680,676,673,666,660,655,648,645,642,634,627,620,614,606,587,576,559,533,519,517,517,517,517,517,517,517,517,517,517,517,517,517,515,493,456],"ymouse":[545,545,545,545,545,545,545,545,545,545,545,545,545,545,545,545,545,545,545,544,512,491,456,437,420,400,395,389,381,358,345,332,317,311,308,303,300,295,291,281,247,225,198,155,124,121,120,120,120,120,120,120,120,119,119,119,119,119,116,107,78],"timestamp_mouse":[14,37,53,73,95,113,133,155,173,195,213,234,254,273,294,314,333,355,374,393,413,435,454,475,494,514,533,554,574,595,614,634,653,674,694,713,733,754,774,793,813,834,853,874,895,913,933,954,975,995,1015,1035,1054,1073,1093,1114,1133,1155,1174,1194,1213],"xSR":741.5,"ySR":469.95,"xT1":424.9,"yT1":0,"xT2":1058.1,"yT2":0,"toosoon":0,"cond_shown":"equaldotanddens","ratio_trial":250,"smaller_num":"3","larger_num":"12","correct_side":1,"subjID":"MateoCastiblanco36","gender":"0","age":"11","school":"6"},{"start_time":1551893379156,"click_time":1551893379943,"finger_time":1551893379643,"fix_duration":250,"trial":6,"RT":487,"MT":300,"sideResp":1,"stimulus":"img/250/equaldotsize/L/1_Ratio_250_L_8_R_2.png","xmouse":[807,807,807,807,807,807,807,807,807,807,807,807,807,807,807,807,807,807,807,807,807,807,803,796,730,701,701,709,739,782,791,796,796,796,796,780,763,674,606,497],"ymouse":[537,537,537,537,537,537,537,537,537,537,537,537,537,537,537,537,537,537,537,537,537,536,529,521,452,393,382,360,328,290,281,272,271,270,268,251,241,183,135,60],"timestamp_mouse":[11,38,49,68,87,108,128,147,167,187,207,227,249,267,287,308,328,347,367,389,407,427,448,467,487,508,528,548,568,587,607,628,648,668,687,709,728,747,768,787],"xSR":741.5,"ySR":469.95,"xT1":424.9,"yT1":0,"xT2":1058.1,"yT2":0,"toosoon":0,"cond_shown":"equaldotsize","ratio_trial":250,"smaller_num":"2","larger_num":"8","correct_side":1,"subjID":"MateoCastiblanco36","gender":"0","age":"11","school":"6"},{"start_time":1551893381036,"click_time":1551893382163,"finger_time":1551893381423,"fix_duration":250,"trial":7,"RT":387,"MT":740,"sideResp":1,"stimulus":"img/500/equaldotsize/R/15_Ratio_500_L_1_R_2.png","xmouse":[828,828,828,828,828,828,828,828,828,828,828,828,828,828,828,828,827,816,803,792,769,754,744,734,727,727,727,727,728,730,731,731,731,722,711,674,654,634,615,585,572,560,550,533,530,527,527,527,527,527,527,527,527,519,510,499,493],"ymouse":[518,518,518,518,518,518,518,518,518,518,518,518,518,518,518,518,518,505,489,469,414,362,336,311,295,286,282,279,276,273,269,265,258,248,239,216,205,194,186,172,166,161,157,149,147,146,146,146,146,146,146,146,144,135,129,116,98],"timestamp_mouse":[7,36,47,68,89,109,128,148,168,188,208,227,249,267,289,308,327,348,368,387,407,428,447,468,488,508,527,548,567,587,607,628,648,669,688,707,728,747,768,789,808,828,848,868,887,908,928,948,969,988,1007,1027,1047,1069,1088,1108,1127],"xSR":741.5,"ySR":469.95,"xT1":424.9,"yT1":0,"xT2":1058.1,"yT2":0,"toosoon":0,"cond_shown":"equaldotsize","ratio_trial":500,"smaller_num":"1","larger_num":"2","correct_side":2,"subjID":"MateoCastiblanco36","gender":"0","age":"11","school":"6"},{"start_time":1551893384519,"click_time":1551893385644,"finger_time":1551893384945,"fix_duration":1014.4605474895333,"trial":8,"RT":426,"MT":699,"sideResp":2,"stimulus":"img/750/randomdotsizeEA/L/6_Ratio_750_L_24_R_18.png","xmouse":[824,824,824,824,824,824,824,824,824,824,824,824,824,824,824,824,824,824,824,830,840,861,868,873,876,880,891,900,911,932,955,1013,1044,1053,1058,1066,1068,1071,1074,1077,1079,1085,1089,1091,1092,1092,1092,1092,1093,1094,1094,1096,1103,1112,1121,1130,1133],"ymouse":[493,493,493,493,493,493,493,493,493,493,493,493,493,493,493,493,493,493,493,491,483,469,465,461,458,455,446,437,425,400,373,325,304,298,294,286,284,282,276,270,265,251,244,239,235,234,230,228,226,223,221,209,188,163,138,106,97],"timestamp_mouse":[8,42,44,66,86,105,125,146,164,184,204,225,246,265,285,305,324,346,364,384,405,426,444,465,485,504,524,546,565,586,605,624,645,664,685,706,724,745,764,784,805,825,844,866,886,905,924,944,964,985,1005,1024,1045,1064,1084,1106,1125],"xSR":741.5,"ySR":469.95,"xT1":424.9,"yT1":0,"xT2":1058.1,"yT2":0,"toosoon":0,"cond_shown":"randomdotsizeEA","ratio_trial":750,"smaller_num":"18","larger_num":"24","correct_side":1,"subjID":"MateoCastiblanco36","gender":"0","age":"11","school":"6"},{"start_time":1551893389368,"click_time":1551893390363,"finger_time":1551893389825,"fix_duration":624.536151928821,"trial":9,"RT":457,"MT":538,"sideResp":1,"stimulus":"img/250/equaldotsize/L/3_Ratio_250_L_8_R_2.png","xmouse":[801,801,801,801,801,801,801,801,801,801,801,801,801,801,801,801,801,801,797,787,775,759,733,723,710,698,680,667,642,633,628,627,627,627,627,623,621,619,616,615,613,611,608,597,591,585,573,561,533,524],"ymouse":[559,559,559,559,559,559,559,559,559,559,559,559,559,559,559,559,559,559,549,536,520,501,471,459,436,407,372,350,293,265,238,211,185,142,123,96,82,71,59,56,54,53,52,50,49,48,46,44,40,40],"timestamp_mouse":[16,38,56,76,95,117,135,156,176,196,217,236,256,275,295,315,335,355,376,396,416,436,457,475,496,516,537,556,576,595,616,636,656,675,695,715,736,756,776,797,815,835,855,875,896,915,936,956,975,995],"xSR":741.5,"ySR":469.95,"xT1":424.9,"yT1":0,"xT2":1058.1,"yT2":0,"toosoon":0,"cond_shown":"equaldotsize","ratio_trial":250,"smaller_num":"2","larger_num":"8","correct_side":1,"subjID":"MateoCastiblanco36","gender":"0","age":"11","school":"6"},{"start_time":1551893394060,"click_time":1551893397684,"finger_time":1551893397104,"fix_duration":1415.5603143978594,"trial":10,"RT":3044,"MT":580,"sideResp":1,"stimulus":"img/500/equaldotanddens/R/2_Ratio_500_L_3_R_6.png","xmouse":[793,793,793,793,793,793,793,793,793,793,793,793,793,793,793,793,793,793,793,793,793,793,793,793,793,793,793,793,793,793,793,793,793,793,793,793,793,793,793,793,793,793,793,793,793,793,793,793,793,793,793,793,793,793,793,793,793,793,793,793,793,793,793,793,793,793,793,793,793,793,793,793,793,793,793,793,793,793,793,793,793,793,793,793,793,793,793,793,793,793,793,793,793,793,793,793,793,793,793,793,793,793,793,793,793,793,793,793,793,793,793,793,793,793,793,793,793,793,793,793,793,793,793,793,793,793,793,793,793,793,793,793,793,793,793,793,793,793,794,794,794,794,794,794,794,794,794,794,792,791,788,784,777,771,757,749,743,737,734,731,728,724,714,705,686,677,671,664,658,646,639,626,618,610,601,597,592,587,578,552,536,516],"ymouse":[537,537,537,537,537,537,537,537,537,537,537,537,537,537,537,537,537,537,537,537,537,537,537,537,537,537,537,537,537,537,537,537,537,537,537,537,537,537,537,537,537,537,537,537,537,537,537,537,537,537,537,537,537,537,537,537,537,537,537,537,537,537,537,537,537,537,537,537,537,537,537,537,537,537,537,537,537,537,537,537,537,537,537,537,537,537,537,537,537,537,537,537,537,537,537,537,537,537,537,537,537,537,537,537,537,537,537,537,537,537,537,537,537,537,537,537,537,537,537,537,537,537,537,537,537,537,537,537,537,537,537,537,537,536,535,534,534,533,530,530,530,528,527,526,524,522,519,517,506,500,493,484,465,447,407,386,364,345,330,305,295,283,268,257,235,223,212,200,188,163,152,133,124,114,103,98,92,89,82,69,62,52],"timestamp_mouse":[9,37,43,64,84,104,124,144,165,183,203,225,244,264,284,303,325,344,363,385,403,424,443,465,483,503,523,544,563,583,604,623,644,663,684,704,723,745,763,783,803,825,843,863,884,903,923,944,964,984,1003,1024,1044,1063,1085,1103,1124,1144,1164,1185,1203,1224,1245,1263,1283,1305,1323,1344,1364,1385,1405,1424,1444,1464,1483,1504,1524,1545,1564,1584,1604,1623,1645,1663,1684,1704,1723,1744,1765,1783,1803,1824,1845,1863,1883,1904,1923,1944,1963,1984,2003,2023,2045,2064,2084,2103,2124,2143,2164,2184,2203,2225,2243,2265,2283,2304,2324,2344,2365,2383,2403,2423,2445,2463,2484,2503,2524,2543,2564,2583,2603,2624,2645,2664,2683,2704,2723,2744,2765,2783,2804,2823,2844,2864,2883,2904,2924,2943,2965,2984,3004,3024,3043,3064,3084,3104,3124,3144,3164,3183,3203,3224,3244,3264,3284,3304,3323,3344,3364,3383,3404,3423,3444,3464,3484,3503,3524,3544,3563,3583,3604,3624],"xSR":741.5,"ySR":469.95,"xT1":424.9,"yT1":0,"xT2":1058.1,"yT2":0,"toosoon":0,"cond_shown":"equaldotanddens","ratio_trial":500,"smaller_num":"3","larger_num":"6","correct_side":2,"subjID":"MateoCastiblanco36","gender":"0","age":"11","school":"6"},{"start_time":1551893398955,"click_time":1551893400583,"finger_time":1551893399924,"fix_duration":270.98917161174205,"trial":11,"RT":969,"MT":659,"sideResp":2,"stimulus":"img/750/randomdotsizeEA/R/5_Ratio_750_L_15_R_20.png","xmouse":[761,761,761,761,761,761,761,761,761,761,761,761,761,761,761,761,761,761,761,761,761,761,761,761,761,761,761,761,761,761,761,761,761,761,761,761,761,761,761,761,761,761,765,766,781,794,814,830,846,874,889,902,912,921,946,964,979,997,1006,1022,1029,1036,1044,1052,1067,1072,1079,1083,1086,1088,1090,1092,1095,1097,1101,1102,1103,1106,1111,1117,1119,1120],"ymouse":[534,534,534,534,534,534,534,534,534,534,534,534,534,534,534,534,534,534,534,534,534,534,534,534,534,534,534,534,534,534,534,534,534,534,534,534,534,534,534,534,534,534,531,530,515,506,491,479,466,445,437,428,419,408,378,361,343,317,303,276,267,257,247,238,220,214,204,198,194,189,187,182,179,173,163,155,151,140,129,108,102,97],"timestamp_mouse":[9,36,49,69,88,109,129,150,168,188,210,228,248,268,290,308,328,349,368,390,408,429,448,469,489,510,529,549,568,589,610,628,650,670,689,708,729,748,769,790,808,829,849,868,888,908,929,948,969,988,1008,1029,1050,1069,1088,1108,1128,1149,1169,1189,1208,1228,1248,1268,1288,1309,1329,1349,1368,1388,1408,1429,1449,1469,1488,1509,1528,1548,1569,1588,1608,1628],"xSR":741.5,"ySR":469.95,"xT1":424.9,"yT1":0,"xT2":1058.1,"yT2":0,"toosoon":0,"cond_shown":"randomdotsizeEA","ratio_trial":750,"smaller_num":"15","larger_num":"20","correct_side":2,"subjID":"MateoCastiblanco36","gender":"0","age":"11","school":"6"},{"start_time":1551893404209,"click_time":1551893405804,"finger_time":1551893405004,"fix_duration":643.014214675276,"trial":12,"RT":795,"MT":800,"sideResp":2,"stimulus":"img/250/equaldotsize/R/6_Ratio_250_L_6_R_24.png","xmouse":[824,824,824,824,824,824,824,824,824,824,824,824,824,824,824,824,824,824,824,824,824,824,824,824,824,824,824,824,824,824,824,824,824,824,824,823,825,830,837,852,870,932,990,1033,1066,1077,1091,1099,1104,1107,1109,1109,1107,1097,1091,1083,1081,1081,1081,1080,1080,1080,1080,1080,1082,1082,1086,1086,1088,1089,1090,1091,1092,1092,1092,1092,1093,1094,1095,1096],"ymouse":[548,548,548,548,548,548,548,548,548,548,548,548,548,548,548,548,548,548,548,548,548,548,548,548,548,548,548,548,548,548,548,548,548,548,548,548,540,534,526,517,508,466,424,379,328,308,280,268,259,254,248,243,236,222,212,191,183,178,175,171,169,165,164,162,154,149,137,132,129,125,122,113,110,109,109,108,104,102,101,99],"timestamp_mouse":[20,42,55,75,95,116,135,156,174,196,216,236,254,275,295,316,334,354,376,396,416,435,456,474,496,514,535,554,575,596,614,636,655,675,696,715,734,755,776,795,814,834,855,875,896,914,935,954,974,995,1016,1035,1055,1074,1096,1116,1135,1154,1174,1195,1214,1234,1255,1274,1295,1315,1334,1355,1376,1394,1414,1435,1456,1475,1494,1515,1534,1555,1574,1594],"xSR":741.5,"ySR":469.95,"xT1":424.9,"yT1":0,"xT2":1058.1,"yT2":0,"toosoon":0,"cond_shown":"equaldotsize","ratio_trial":250,"smaller_num":"6","larger_num":"24","correct_side":2,"subjID":"MateoCastiblanco36","gender":"0","age":"11","school":"6"},{"start_time":1551893418331,"click_time":1551893419543,"finger_time":1551893419064,"fix_duration":1046.8458853776451,"trial":13,"RT":733,"MT":479,"sideResp":1,"stimulus":"img/900/equaldotanddens/L/10_Ratio_900_L_20_R_18.png","xmouse":[778,778,778,778,778,778,778,778,778,778,778,778,778,778,778,778,778,778,778,778,778,778,779,780,782,783,783,784,784,784,784,784,784,785,786,787,785,772,732,692,629,615,605,594,594,594,594,594,594,594,594,594,594,594,594,594,594,594,594,594,511],"ymouse":[552,552,552,552,552,552,552,552,552,552,552,552,552,552,552,552,552,552,552,552,552,552,552,551,544,542,541,540,540,540,540,540,540,536,530,496,469,425,332,263,134,88,43,4,4,4,4,4,4,4,4,4,4,4,4,4,4,4,4,4,8],"timestamp_mouse":[13,40,54,73,92,114,132,154,174,192,213,232,254,272,292,312,334,353,374,394,414,432,453,472,494,513,532,554,573,593,613,634,653,673,692,712,733,753,773,792,813,833,854,873,893,914,933,954,973,993,1012,1032,1053,1072,1093,1113,1133,1152,1172,1194,1212],"xSR":741.5,"ySR":469.95,"xT1":424.9,"yT1":0,"xT2":1058.1,"yT2":0,"toosoon":0,"cond_shown":"equaldotanddens","ratio_trial":900,"smaller_num":"18","larger_num":"20","correct_side":1,"subjID":"MateoCastiblanco36","gender":"0","age":"11","school":"6"},{"start_time":1551893426136,"click_time":1551893427443,"finger_time":1551893426923,"fix_duration":250,"trial":14,"RT":787,"MT":520,"sideResp":2,"stimulus":"img/750/equaldotanddens/R/15_Ratio_750_L_9_R_12.png","xmouse":[781,781,781,781,781,781,781,781,781,781,781,781,781,781,781,781,781,781,781,781,781,781,781,781,781,781,781,781,781,781,781,781,781,781,781,781,782,803,841,901,1064,1152,1244,1324,1415,1439,1452,1457,1458,1458,1458,1458,1458,1455,1433,1419,1405,1384,1368,1342,1275,1242,1216,1193,1175,1145],"ymouse":[510,510,510,510,510,510,510,510,510,510,510,510,510,510,510,510,510,510,510,510,510,510,510,510,510,510,510,510,510,510,510,510,510,510,510,510,510,499,477,444,355,300,238,180,84,51,31,22,19,19,19,19,18,18,18,21,27,36,44,50,60,62,62,62,58,45],"timestamp_mouse":[10,36,48,67,87,107,128,149,167,188,208,227,248,269,287,307,329,347,368,387,407,429,448,468,487,508,527,547,568,587,607,629,649,667,688,707,727,748,768,787,807,829,847,867,889,908,928,947,967,989,1007,1027,1047,1067,1089,1107,1127,1147,1167,1188,1207,1228,1248,1268,1288,1307],"xSR":741.5,"ySR":469.95,"xT1":424.9,"yT1":0,"xT2":1058.1,"yT2":0,"toosoon":0,"cond_shown":"equaldotanddens","ratio_trial":750,"smaller_num":"9","larger_num":"12","correct_side":2,"subjID":"MateoCastiblanco36","gender":"0","age":"11","school":"6"},{"start_time":1551893430936,"click_time":1551893432143,"finger_time":1551893431745,"fix_duration":850.6889178545925,"trial":15,"RT":809,"MT":398,"sideResp":1,"stimulus":"img/750/randomdotsizeEA/L/13_Ratio_750_L_8_R_6.png","xmouse":[787,787,787,787,785,785,785,785,785,785,785,785,785,785,785,785,785,785,785,785,785,785,785,785,785,785,785,785,785,785,785,785,785,785,785,785,785,785,784,768,705,678,656,648,635,626,614,601,598,598,598,598,600,600,593,582,577,572,559,544,513],"ymouse":[501,501,501,501,503,506,506,506,506,506,506,506,506,506,506,506,506,506,506,506,506,506,506,506,506,506,506,506,506,506,506,506,506,506,506,506,506,506,507,487,422,397,371,354,315,292,266,236,227,223,213,208,203,194,177,143,133,124,104,88,61],"timestamp_mouse":[8,36,48,68,88,109,127,147,168,188,207,229,247,269,288,308,327,349,368,388,408,427,449,468,488,508,529,549,568,589,607,627,648,668,687,707,728,748,769,788,809,828,847,867,889,907,928,948,967,987,1007,1027,1049,1067,1088,1107,1127,1148,1169,1187,1207],"xSR":741.5,"ySR":469.95,"xT1":424.9,"yT1":0,"xT2":1058.1,"yT2":0,"toosoon":0,"cond_shown":"randomdotsizeEA","ratio_trial":750,"smaller_num":"6","larger_num":"8","correct_side":1,"subjID":"MateoCastiblanco36","gender":"0","age":"11","school":"6"},{"start_time":1551893434735,"click_time":1551893442644,"finger_time":1551893442165,"fix_duration":250,"trial":16,"RT":7430,"MT":479,"sideResp":1,"stimulus":"img/500/equaldotsize/L/8_Ratio_500_L_8_R_4.png","xmouse":[790,790,790,790,790,790,790,790,790,790,790,790,790,790,790,790,790,790,790,790,790,790,790,790,790,790,790,790,790,790,790,790,790,790,790,790,790,790,790,790,790,790,790,790,790,790,790,791,791,791,791,791,791,791,791,791,791,791,791,791,791,791,791,791,791,791,791,791,791,791,791,791,791,791,791,791,791,791,791,791,791,791,791,791,791,791,791,791,791,791,791,791,791,791,791,791,791,791,791,791,791,791,791,791,791,791,791,791,791,791,791,791,791,791,791,791,791,791,791,791,791,791,791,791,791,791,791,791,791,791,791,791,791,791,791,791,791,791,791,791,791,791,791,791,791,791,791,791,791,791,791,791,791,791,791,791,791,791,791,791,791,791,791,791,791,791,791,791,791,791,791,791,791,791,791,791,791,791,791,791,791,791,791,791,791,791,791,791,791,791,791,791,791,791,791,791,791,791,791,791,791,791,791,791,791,791,791,791,791,791,791,791,791,791,791,791,791,791,791,791,791,791,791,791,791,791,791,791,791,791,791,791,791,791,791,791,791,791,791,791,791,791,791,791,791,791,791,791,791,791,791,791,791,791,791,791,791,791,791,791,791,791,791,791,791,791,791,791,791,791,791,791,791,791,791,791,791,791,791,791,791,791,791,791,791,791,791,791,791,791,791,791,791,791,791,791,791,791,791,791,791,791,791,791,791,791,791,791,791,791,791,791,791,791,791,791,791,791,791,791,791,791,791,791,791,791,791,791,791,791,791,791,791,791,791,791,791,791,791,791,791,791,791,791,791,791,791,791,791,791,791,791,791,791,791,791,791,791,791,791,791,791,791,791,791,791,791,791,791,792,776,768,762,752,719,694,663,607,573,552,531,525,523,523,523,523,523,523,523,523,523,523,523,523,499,489],"ymouse":[540,540,540,540,540,540,540,540,540,540,540,540,540,540,540,540,540,540,540,540,540,540,540,540,540,540,540,540,540,540,540,540,540,540,540,540,540,540,540,540,540,540,540,540,540,540,540,540,540,540,540,540,540,540,540,540,540,540,540,540,540,540,540,540,540,540,540,540,540,540,540,540,540,540,540,540,540,540,540,540,540,540,540,540,540,540,540,540,540,540,540,540,540,540,540,540,540,540,540,540,540,540,540,540,540,540,540,540,540,540,540,540,540,540,540,540,540,540,540,540,540,540,540,540,540,540,540,540,540,540,540,540,540,540,540,540,540,540,540,540,540,540,540,540,540,540,540,540,540,540,540,540,540,540,540,540,540,540,540,540,540,540,540,540,540,540,540,540,540,540,540,540,540,540,540,540,540,540,540,540,540,540,540,540,540,540,540,540,540,540,540,540,540,540,540,540,540,540,540,540,540,540,540,540,540,540,540,540,540,540,540,540,540,540,540,540,540,540,540,540,540,540,540,540,540,540,540,540,540,540,540,540,540,540,540,540,540,540,540,540,540,540,540,540,540,540,540,540,540,540,540,540,540,540,540,540,540,540,540,540,540,540,540,540,540,540,540,540,540,540,540,540,540,540,540,540,540,540,540,540,540,540,540,540,540,540,540,540,540,540,540,540,540,540,540,540,540,540,540,540,540,540,540,540,540,540,540,540,540,540,540,540,540,540,540,540,540,540,540,540,540,540,540,540,540,540,540,540,540,540,540,540,540,540,540,540,540,540,540,540,540,540,540,540,540,540,540,540,540,540,540,540,540,540,540,540,540,540,540,540,540,540,540,540,540,540,540,540,540,533,485,461,434,404,333,285,237,157,108,67,18,4,0,0,0,0,0,0,0,0,0,0,0,0,0,7],"timestamp_mouse":[9,28,48,68,89,109,130,148,168,190,208,228,249,268,288,309,330,348,370,389,408,430,448,468,488,509,528,548,570,589,608,629,648,670,689,708,728,750,768,788,808,830,848,870,890,908,928,949,970,988,1008,1028,1049,1069,1090,1109,1129,1150,1169,1189,1208,1228,1250,1268,1288,1308,1328,1348,1370,1388,1408,1429,1448,1468,1489,1509,1528,1549,1570,1588,1610,1628,1648,1668,1689,1710,1730,1753,1770,1791,1809,1830,1851,1871,1890,1910,1931,1951,1970,1990,2010,2030,2050,2071,2090,2109,2131,2149,2171,2189,2209,2231,2249,2269,2291,2310,2330,2350,2370,2389,2410,2430,2450,2470,2489,2510,2529,2551,2571,2589,2609,2630,2651,2671,2690,2709,2729,2750,2770,2789,2810,2830,2850,2871,2890,2910,2931,2950,2970,2991,3010,3031,3049,3070,3091,3109,3131,3149,3171,3191,3209,3230,3250,3269,3291,3310,3330,3350,3370,3389,3411,3430,3451,3470,3490,3511,3529,3551,3570,3591,3610,3629,3649,3671,3690,3710,3730,3751,3770,3789,3809,3829,3849,3871,3890,3910,3930,3950,3971,3989,4010,4030,4050,4070,4090,4109,4129,4149,4171,4189,4210,4229,4250,4269,4289,4310,4330,4351,4371,4389,4409,4430,4449,4471,4489,4510,4530,4551,4569,4591,4610,4629,4650,4670,4691,4710,4730,4750,4771,4791,4809,4830,4850,4870,4891,4910,4930,4950,4970,4989,5010,5030,5050,5071,5091,5110,5129,5150,5170,5191,5209,5231,5249,5269,5291,5309,5330,5349,5370,5390,5409,5429,5450,5470,5490,5511,5530,5550,5570,5589,5611,5631,5651,5670,5690,5711,5729,5750,5770,5789,5810,5829,5850,5871,5889,5910,5930,5949,5971,5989,6011,6030,6049,6071,6091,6109,6130,6151,6170,6189,6209,6231,6250,6271,6289,6309,6331,6350,6370,6390,6411,6430,6450,6470,6490,6511,6531,6551,6571,6590,6611,6629,6651,6670,6691,6711,6729,6750,6770,6789,6809,6830,6850,6871,6891,6909,6930,6951,6970,6991,7009,7030,7049,7070,7089,7109,7130,7151,7171,7189,7210,7230,7251,7271,7290,7309,7331,7351,7371,7390,7410,7430,7450,7470,7491,7510,7530,7550,7571,7590,7609,7629,7650,7670,7691,7710,7730,7750,7769,7789,7809,7830,7850,7869,7890,7909],"xSR":741.5,"ySR":469.95,"xT1":424.9,"yT1":0,"xT2":1058.1,"yT2":0,"toosoon":0,"cond_shown":"equaldotsize","ratio_trial":500,"smaller_num":"4","larger_num":"8","correct_side":1,"subjID":"MateoCastiblanco36","gender":"0","age":"11","school":"6"},{"start_time":1551893444283,"click_time":1551893447285,"finger_time":1551893446186,"fix_duration":536.7715753020158,"trial":17,"RT":1903,"MT":1099,"sideResp":1,"stimulus":"img/500/equaldotanddens/L/11_Ratio_500_L_12_R_6.png","xmouse":[787,787,787,787,787,787,787,787,787,787,787,787,787,787,787,787,787,787,787,787,787,787,787,787,787,787,787,787,787,787,787,787,787,787,787,787,787,787,787,787,787,787,787,787,787,787,787,787,787,787,787,787,787,787,787,787,787,787,787,787,787,787,787,787,787,787,787,787,787,787,787,787,787,787,787,787,787,787,787,787,787,787,787,787,787,787,787,787,787,787,787,787,787,787,786,782,776,765,751,744,725,708,692,670,663,652,636,607,558,550,548,548,548,543,527,494,424,424,424,424,424,424,424,424,424,424,424,424,424,424,424,424,424,424,424,424,424,394,394,395,397,399,402,405,408,413,417,420,422,423,425],"ymouse":[489,489,489,489,489,489,489,489,489,489,489,489,489,489,489,489,489,489,489,489,489,489,489,489,489,489,489,489,489,489,489,489,489,489,489,489,489,489,489,489,489,489,489,489,489,489,489,489,489,489,489,489,489,489,489,489,489,489,489,489,489,489,489,489,489,489,489,489,489,489,489,489,489,489,489,489,489,489,489,489,489,489,489,489,489,489,489,489,489,489,489,489,489,489,481,466,444,419,385,371,343,322,307,291,284,272,253,224,188,183,182,182,182,173,148,104,22,22,22,22,22,22,22,22,22,22,22,22,22,22,22,22,22,22,22,22,22,2,13,22,29,41,56,62,67,71,74,74,74,74,74],"timestamp_mouse":[8,22,41,62,82,102,122,142,161,183,201,222,242,261,283,301,322,343,362,382,402,421,442,462,481,501,522,543,562,582,603,622,643,661,682,701,722,741,763,781,803,823,842,861,881,902,921,942,961,982,1002,1022,1042,1061,1082,1102,1123,1143,1162,1181,1203,1222,1242,1263,1282,1303,1321,1342,1363,1381,1402,1422,1441,1463,1483,1503,1521,1543,1563,1582,1603,1623,1643,1662,1682,1703,1723,1743,1761,1783,1803,1823,1843,1862,1882,1903,1922,1942,1962,1981,2002,2022,2042,2062,2082,2103,2122,2143,2162,2182,2201,2223,2242,2262,2282,2302,2322,2342,2363,2382,2402,2422,2441,2462,2483,2502,2522,2543,2562,2583,2602,2622,2642,2663,2683,2701,2721,2742,2762,2783,2803,2823,2843,2862,2883,2902,2923,2942,2962,2982,3002],"xSR":741.5,"ySR":469.95,"xT1":424.9,"yT1":0,"xT2":1058.1,"yT2":0,"toosoon":0,"cond_shown":"equaldotanddens","ratio_trial":500,"smaller_num":"6","larger_num":"12","correct_side":1,"subjID":"MateoCastiblanco36","gender":"0","age":"11","school":"6"},{"start_time":1551893448636,"click_time":1551893449985,"finger_time":1551893449504,"fix_duration":250,"trial":18,"RT":868,"MT":481,"sideResp":1,"stimulus":"img/900/randomdotsizeEA/L/1_Ratio_900_L_10_R_9.png","xmouse":[804,804,804,804,804,804,804,804,804,804,804,804,804,804,804,804,804,804,804,804,804,804,804,804,804,804,804,804,804,804,804,804,804,804,804,804,804,804,804,804,804,804,798,771,740,706,698,690,682,675,674,673,672,667,663,657,655,652,648,625,610,596,574,559,542,513,502,495],"ymouse":[507,507,507,507,507,507,507,507,507,507,507,507,507,507,507,507,507,507,507,507,507,507,507,507,507,507,507,507,507,507,507,507,507,507,507,507,507,507,507,507,507,507,495,452,406,365,353,342,332,321,319,316,313,302,292,279,273,266,259,227,208,192,168,153,137,110,101,94],"timestamp_mouse":[9,40,49,70,88,108,129,148,170,189,209,229,250,268,289,309,329,350,369,389,410,429,448,470,488,509,529,548,569,589,609,630,648,669,690,709,730,748,769,789,808,829,849,868,889,909,929,949,969,990,1010,1030,1049,1069,1089,1108,1128,1149,1169,1190,1208,1229,1250,1269,1289,1310,1329,1349],"xSR":741.5,"ySR":469.95,"xT1":424.9,"yT1":0,"xT2":1058.1,"yT2":0,"toosoon":0,"cond_shown":"randomdotsizeEA","ratio_trial":900,"smaller_num":"9","larger_num":"10","correct_side":1,"subjID":"MateoCastiblanco36","gender":"0","age":"11","school":"6"},{"start_time":1551893452494,"click_time":1551893453805,"finger_time":1551893453106,"fix_duration":1248.77941546576,"trial":19,"RT":612,"MT":699,"sideResp":2,"stimulus":"img/250/randomdotsizeEA/R/9_Ratio_250_L_3_R_12.png","xmouse":[800,800,800,800,800,800,800,800,800,800,800,800,800,800,800,800,800,800,800,800,800,800,800,800,800,799,798,811,826,833,850,864,892,908,923,938,953,979,993,1008,1032,1046,1068,1073,1075,1075,1072,1067,1062,1059,1056,1054,1051,1051,1051,1051,1051,1051,1051,1051,1051,1051,1051,1051,1053,1060],"ymouse":[531,531,531,531,531,531,531,531,531,531,531,531,531,531,531,531,531,531,531,531,531,531,531,531,531,531,529,508,489,482,462,447,415,397,381,368,356,329,317,306,289,277,246,232,221,208,182,166,149,121,102,84,65,64,63,63,63,63,63,63,63,63,63,63,62,62],"timestamp_mouse":[10,43,51,70,92,111,131,151,172,191,210,232,251,270,292,311,332,350,371,391,412,431,452,471,492,511,532,551,572,591,612,631,651,671,692,711,732,750,770,790,811,831,852,871,891,911,932,952,971,991,1010,1031,1051,1071,1091,1110,1132,1151,1171,1192,1211,1232,1251,1271,1291,1311],"xSR":741.5,"ySR":469.95,"xT1":424.9,"yT1":0,"xT2":1058.1,"yT2":0,"toosoon":0,"cond_shown":"randomdotsizeEA","ratio_trial":250,"smaller_num":"3","larger_num":"12","correct_side":2,"subjID":"MateoCastiblanco36","gender":"0","age":"11","school":"6"},{"start_time":1551893457001,"click_time":1551893458227,"finger_time":1551893457745,"fix_duration":614.4075057778439,"trial":20,"RT":744,"MT":482,"sideResp":2,"stimulus":"img/750/equaldotanddens/R/4_Ratio_750_L_15_R_20.png","xmouse":[789,789,789,789,789,789,789,789,789,789,789,789,789,789,789,789,789,789,789,789,789,789,789,795,797,802,804,805,806,806,806,806,806,806,806,806,797,762,756,756,756,756,769,791,803,844,874,936,965,985,999,1010,1025,1026,1026,1026,1028,1035,1043,1053,1059,1070],"ymouse":[556,556,556,556,556,556,556,556,556,556,556,556,556,556,556,556,556,556,556,556,556,556,552,542,538,531,527,523,520,519,519,519,519,519,518,512,499,462,457,456,456,455,436,416,408,377,351,283,242,196,156,135,122,121,121,121,118,108,105,103,102,99],"timestamp_mouse":[10,41,44,64,84,105,123,144,164,183,205,223,245,264,284,304,325,344,365,384,403,423,443,464,484,505,524,545,564,584,604,623,644,664,684,704,724,744,763,784,803,824,843,865,884,904,923,944,964,985,1003,1025,1044,1064,1085,1109,1124,1144,1165,1184,1204,1225],"xSR":741.5,"ySR":469.95,"xT1":424.9,"yT1":0,"xT2":1058.1,"yT2":0,"toosoon":0,"cond_shown":"equaldotanddens","ratio_trial":750,"smaller_num":"15","larger_num":"20","correct_side":2,"subjID":"MateoCastiblanco36","gender":"0","age":"11","school":"6"},{"start_time":1551893460403,"click_time":1551893461485,"finger_time":1551893460845,"fix_duration":876.8453407736093,"trial":21,"RT":442,"MT":640,"sideResp":1,"stimulus":"img/250/equaldotanddens/L/5_Ratio_250_L_24_R_6.png","xmouse":[818,818,818,818,818,818,818,818,818,818,818,818,818,818,818,818,818,818,818,814,809,800,794,794,794,794,794,794,792,782,766,746,707,693,678,653,633,593,580,571,562,555,539,532,529,525,524,523,523,523,523,520,513,511,510],"ymouse":[514,514,514,514,514,514,514,514,514,514,514,514,514,514,514,514,514,514,514,511,500,479,466,466,466,466,466,466,462,447,428,409,380,369,357,336,320,286,274,263,252,239,210,198,189,179,176,169,165,160,153,139,110,103,94],"timestamp_mouse":[8,23,43,62,81,101,122,142,161,183,203,222,243,262,283,302,322,343,361,381,402,422,442,461,482,502,522,542,562,582,602,622,641,662,682,701,722,741,762,782,802,821,841,862,882,902,922,942,961,982,1002,1021,1041,1061,1082],"xSR":741.5,"ySR":469.95,"xT1":424.9,"yT1":0,"xT2":1058.1,"yT2":0,"toosoon":0,"cond_shown":"equaldotanddens","ratio_trial":250,"smaller_num":"6","larger_num":"24","correct_side":1,"subjID":"MateoCastiblanco36","gender":"0","age":"11","school":"6"},{"start_time":1551893463208,"click_time":1551893464626,"finger_time":1551893463965,"fix_duration":862.0840485945971,"trial":22,"RT":757,"MT":661,"sideResp":2,"stimulus":"img/900/randomdotsizeEA/L/10_Ratio_900_L_20_R_18.png","xmouse":[772,772,772,772,772,772,772,772,772,772,772,772,772,772,772,772,772,772,772,772,775,778,786,787,791,791,791,791,791,793,793,798,801,804,807,811,824,829,839,847,856,874,881,890,904,912,932,942,951,960,966,975,978,980,982,984,987,989,992,994,996,1003,1007,1013,1022,1028,1046,1056,1066,1077,1102],"ymouse":[556,556,556,556,556,556,556,556,556,556,556,556,556,556,556,556,556,556,556,556,554,545,534,531,527,526,526,526,526,524,522,517,513,507,502,495,475,465,451,438,423,393,382,370,352,340,308,292,278,262,249,224,215,211,207,203,195,191,188,185,181,174,171,168,165,160,149,141,130,118,92],"timestamp_mouse":[16,36,58,77,96,117,137,157,176,197,217,236,257,276,297,317,337,357,376,397,418,437,457,476,497,516,537,556,578,596,618,637,657,676,697,717,737,757,778,797,816,837,858,877,897,917,937,957,978,997,1017,1038,1057,1078,1097,1117,1137,1157,1178,1198,1218,1237,1257,1277,1296,1317,1337,1356,1378,1397,1418],"xSR":741.5,"ySR":469.95,"xT1":424.9,"yT1":0,"xT2":1058.1,"yT2":0,"toosoon":0,"cond_shown":"randomdotsizeEA","ratio_trial":900,"smaller_num":"18","larger_num":"20","correct_side":1,"subjID":"MateoCastiblanco36","gender":"0","age":"11","school":"6"},{"start_time":1551893468608,"click_time":1551893470127,"finger_time":1551893469285,"fix_duration":1122.898886768139,"trial":23,"RT":677,"MT":842,"sideResp":1,"stimulus":"img/900/equaldotanddens/R/14_Ratio_900_L_18_R_20.png","xmouse":[763,763,763,763,763,763,763,763,763,763,763,763,763,763,763,763,763,763,763,763,763,763,763,763,763,763,763,763,763,763,763,763,761,733,694,661,657,656,656,656,656,658,660,664,671,688,695,699,706,712,726,731,735,735,722,707,694,685,679,672,656,645,608,589,582,575,573,571,570,567,558,548,545,535,518],"ymouse":[475,475,475,475,475,475,475,475,475,475,475,475,475,475,475,475,475,475,475,475,475,475,475,475,475,475,475,475,475,475,475,475,467,441,404,365,353,342,333,327,321,320,318,318,318,318,318,318,315,309,288,267,241,195,105,70,47,35,31,29,28,26,20,18,17,17,17,17,17,17,17,17,17,17,19],"timestamp_mouse":[36,57,77,96,118,137,158,177,196,218,237,257,276,296,316,336,357,376,397,418,437,458,477,496,518,538,557,577,597,616,637,658,677,698,717,736,756,776,796,817,836,856,877,897,917,936,957,977,997,1018,1037,1057,1077,1098,1118,1137,1158,1176,1197,1218,1236,1257,1276,1297,1317,1337,1357,1377,1397,1417,1436,1458,1477,1497,1518],"xSR":741.5,"ySR":469.95,"xT1":424.9,"yT1":0,"xT2":1058.1,"yT2":0,"toosoon":0,"cond_shown":"equaldotanddens","ratio_trial":900,"smaller_num":"18","larger_num":"20","correct_side":2,"subjID":"MateoCastiblanco36","gender":"0","age":"11","school":"6"},{"start_time":1551893479878,"click_time":1551893481764,"finger_time":1551893481284,"fix_duration":250,"trial":24,"RT":1406,"MT":480,"sideResp":2,"stimulus":"img/500/equaldotsize/R/15_Ratio_500_L_1_R_2.png","xmouse":[802,802,802,802,802,802,802,802,802,802,802,802,802,802,802,802,802,802,802,802,802,802,802,802,802,802,802,802,802,802,802,802,802,802,802,802,802,802,802,802,802,802,802,802,802,802,802,802,802,802,802,802,802,805,805,805,805,805,805,805,805,805,805,805,805,805,805,806,813,825,845,893,938,1038,1065,1084,1094,1104,1126,1141,1167,1185,1200,1211,1211,1211,1211,1211,1211,1211,1211,1211,1211,1211,1145],"ymouse":[517,517,517,517,517,517,517,517,517,517,517,517,517,517,517,517,517,517,517,517,517,517,517,517,517,517,517,517,517,517,517,517,517,517,517,517,517,517,517,517,517,517,517,517,517,517,517,517,517,517,517,516,514,508,506,506,506,506,506,506,506,506,506,506,506,506,506,504,490,470,447,398,359,273,243,215,194,172,130,107,68,42,19,1,1,1,1,1,1,1,1,1,1,1,8],"timestamp_mouse":[10,34,48,67,87,108,127,148,166,188,206,227,247,268,288,307,327,348,367,388,407,427,448,466,488,508,527,548,566,587,608,626,648,668,686,707,726,747,767,786,806,827,846,867,887,906,927,947,967,987,1006,1026,1047,1067,1088,1108,1126,1147,1168,1187,1206,1228,1248,1266,1287,1307,1328,1347,1367,1388,1406,1427,1447,1467,1488,1508,1527,1548,1566,1587,1607,1627,1647,1667,1688,1707,1727,1748,1767,1786,1807,1828,1848,1867,1886],"xSR":741.5,"ySR":469.95,"xT1":424.9,"yT1":0,"xT2":1058.1,"yT2":0,"toosoon":0,"cond_shown":"equaldotsize","ratio_trial":500,"smaller_num":"1","larger_num":"2","correct_side":2,"subjID":"MateoCastiblanco36","gender":"0","age":"11","school":"6"},{"start_time":1551893483478,"click_time":1551893485185,"finger_time":1551893484204,"fix_duration":250,"trial":25,"RT":726,"MT":981,"sideResp":2,"stimulus":"img/250/randomdotsizeEA/R/4_Ratio_250_L_3_R_12.png","xmouse":[804,804,804,804,804,804,804,804,804,804,804,804,804,804,804,804,804,804,804,804,804,804,804,804,804,804,804,804,804,804,804,804,804,804,793,779,738,687,530,444,417,417,417,417,417,417,417,417,417,417,417,417,417,841,857,871,885,900,937,953,961,962,962,962,962,962,962,962,993,1016,1028,1028,1028,1028,1028,1028,1028,1028,1028,1028,1028,1028,1030,1038,1048,1060],"ymouse":[543,543,543,543,543,543,543,543,543,543,543,543,543,543,543,543,543,543,543,543,543,543,543,543,543,543,543,543,543,543,543,543,543,543,533,526,508,486,331,166,43,43,43,43,43,43,43,43,43,43,43,43,43,12,15,18,20,24,35,41,44,46,46,46,46,46,46,46,51,57,58,58,58,58,58,58,58,58,58,58,58,58,58,58,58,61],"timestamp_mouse":[8,34,48,66,87,108,126,147,168,187,208,227,246,267,287,307,327,347,366,387,408,427,448,467,488,508,528,548,567,588,607,628,646,668,687,707,726,748,766,788,807,828,848,868,887,907,927,947,967,987,1008,1027,1047,1068,1086,1106,1127,1147,1167,1187,1207,1228,1248,1267,1288,1308,1328,1347,1368,1387,1408,1427,1447,1468,1487,1508,1527,1547,1568,1587,1607,1627,1646,1667,1686,1707],"xSR":741.5,"ySR":469.95,"xT1":424.9,"yT1":0,"xT2":1058.1,"yT2":0,"toosoon":0,"cond_shown":"randomdotsizeEA","ratio_trial":250,"smaller_num":"3","larger_num":"12","correct_side":2,"subjID":"MateoCastiblanco36","gender":"0","age":"11","school":"6"},{"start_time":1551893488064,"click_time":1551893489545,"finger_time":1551893488445,"fix_duration":718.7702026435838,"trial":26,"RT":381,"MT":1100,"sideResp":2,"stimulus":"img/500/randomdotsizeEA/R/12_Ratio_500_L_1_R_2.png","xmouse":[778,778,778,778,778,778,778,778,778,778,778,778,778,778,778,778,780,786,793,812,818,822,824,825,825,825,827,828,838,845,847,849,849,836,814,780,737,687,647,593,581,571,561,555,539,533,529,529,529,529,529,529,529,529,554,575,596,612,631,640,651,676,701,730,775,785,793,802,826,945,1038,1060,1098,1112,1121],"ymouse":[485,485,485,485,485,485,485,485,485,485,485,485,485,485,485,485,486,482,477,462,457,452,448,446,446,445,443,441,432,422,418,405,396,371,353,334,308,280,256,223,212,202,188,178,152,140,130,127,126,125,125,125,125,125,125,126,129,131,133,133,133,133,133,133,126,122,118,113,108,100,100,100,100,100,99],"timestamp_mouse":[10,21,42,62,82,101,120,140,162,181,202,222,240,260,281,300,321,341,362,381,401,421,440,461,481,501,521,541,562,581,601,621,641,662,681,701,720,741,762,780,801,821,841,860,881,901,921,941,961,980,1001,1022,1040,1061,1081,1102,1121,1141,1162,1181,1201,1221,1241,1261,1281,1302,1321,1341,1362,1381,1401,1421,1441,1461,1481],"xSR":741.5,"ySR":469.95,"xT1":424.9,"yT1":0,"xT2":1058.1,"yT2":0,"toosoon":0,"cond_shown":"randomdotsizeEA","ratio_trial":500,"smaller_num":"1","larger_num":"2","correct_side":2,"subjID":"MateoCastiblanco36","gender":"0","age":"11","school":"6"},{"start_time":1551893491916,"click_time":1551893492985,"finger_time":1551893492625,"fix_duration":1248.019431440892,"trial":27,"RT":709,"MT":360,"sideResp":1,"stimulus":"img/750/equaldotsize/L/13_Ratio_750_L_8_R_6.png","xmouse":[795,795,795,795,795,795,795,795,795,795,795,795,795,795,795,795,795,795,795,795,795,795,795,795,795,795,795,795,795,795,795,795,795,792,786,768,721,705,679,663,647,637,633,629,625,619,612,609,605,600,581,565,545,520],"ymouse":[500,500,500,500,500,500,500,500,500,500,500,500,500,500,500,500,500,500,500,500,500,500,500,500,500,500,500,500,500,500,500,500,500,497,488,468,404,371,306,258,221,188,174,160,144,134,123,120,119,117,109,102,94,85],"timestamp_mouse":[9,40,49,69,88,109,130,150,168,189,210,229,250,269,288,309,330,348,370,388,409,429,448,469,489,509,529,550,570,590,610,630,649,669,689,709,728,749,769,790,808,828,849,868,888,909,929,949,968,989,1010,1029,1050,1069],"xSR":741.5,"ySR":469.95,"xT1":424.9,"yT1":0,"xT2":1058.1,"yT2":0,"toosoon":0,"cond_shown":"equaldotsize","ratio_trial":750,"smaller_num":"6","larger_num":"8","correct_side":1,"subjID":"MateoCastiblanco36","gender":"0","age":"11","school":"6"},{"start_time":1551893496999,"click_time":1551893498224,"finger_time":1551893497724,"fix_duration":1352.859607463644,"trial":28,"RT":725,"MT":500,"sideResp":2,"stimulus":"img/500/equaldotanddens/R/6_Ratio_500_L_9_R_18.png","xmouse":[815,815,815,815,815,815,815,815,815,815,815,815,815,815,815,815,815,815,815,815,815,815,815,815,815,815,815,815,815,816,818,822,824,827,834,840,849,880,901,928,962,1028,1052,1063,1074,1079,1081,1086,1089,1092,1093,1095,1098,1099,1100,1101,1104,1105,1106,1108,1108,1110],"ymouse":[500,500,500,500,500,500,500,500,500,500,500,500,500,500,500,500,500,500,500,500,500,500,500,500,500,500,500,500,500,498,496,493,490,488,483,475,466,427,403,375,341,278,252,236,216,207,200,190,183,177,173,168,157,152,146,140,130,125,119,110,103,93],"timestamp_mouse":[8,25,45,65,86,106,127,145,166,186,207,225,246,266,285,306,326,345,366,387,406,426,447,465,486,506,527,546,565,586,605,627,646,665,685,706,725,745,765,787,805,826,845,865,885,905,925,945,965,985,1005,1025,1045,1065,1086,1106,1127,1146,1166,1186,1205,1225],"xSR":741.5,"ySR":469.95,"xT1":424.9,"yT1":0,"xT2":1058.1,"yT2":0,"toosoon":0,"cond_shown":"equaldotanddens","ratio_trial":500,"smaller_num":"9","larger_num":"18","correct_side":2,"subjID":"MateoCastiblanco36","gender":"0","age":"11","school":"6"},{"start_time":1551893501411,"click_time":1551893502505,"finger_time":1551893502044,"fix_duration":1025.0635051094387,"trial":29,"RT":633,"MT":461,"sideResp":1,"stimulus":"img/250/equaldotsize/L/15_Ratio_250_L_12_R_3.png","xmouse":[800,800,800,800,800,800,800,800,800,800,800,800,800,800,800,800,800,800,800,800,800,800,800,800,800,800,800,800,798,787,757,648,605,597,588,586,582,582,582,582,578,577,577,577,575,572,567,566,565,564,559,545,537,529,519],"ymouse":[545,545,545,545,545,545,545,545,545,545,545,545,545,545,545,545,545,545,545,545,545,545,545,545,545,545,545,545,541,530,504,429,396,388,373,362,334,325,318,309,283,271,263,244,231,216,189,181,178,173,165,131,116,99,77],"timestamp_mouse":[14,34,54,74,93,113,135,154,173,194,214,235,254,275,293,313,334,353,373,393,415,433,453,474,494,514,535,554,575,593,613,633,654,674,693,713,733,753,773,793,815,834,854,873,893,913,933,954,973,994,1014,1033,1053,1073,1094],"xSR":741.5,"ySR":469.95,"xT1":424.9,"yT1":0,"xT2":1058.1,"yT2":0,"toosoon":0,"cond_shown":"equaldotsize","ratio_trial":250,"smaller_num":"3","larger_num":"12","correct_side":1,"subjID":"MateoCastiblanco36","gender":"0","age":"11","school":"6"},{"start_time":1551893509035,"click_time":1551893510045,"finger_time":1551893509664,"fix_duration":749.7796305535385,"trial":30,"RT":629,"MT":381,"sideResp":1,"stimulus":"img/250/randomdotsizeEA/L/5_Ratio_250_L_24_R_6.png","xmouse":[814,814,814,814,814,814,814,814,814,814,814,814,814,814,814,814,814,814,814,814,810,809,808,806,805,804,803,802,800,786,774,753,696,649,612,595,595,595,592,591,585,581,571,569,569,569,569,569,569,565,519],"ymouse":[513,513,513,513,513,513,513,513,513,513,513,513,513,513,513,513,513,513,513,513,507,505,501,498,496,495,494,493,490,481,474,462,429,397,368,326,301,275,243,147,109,80,52,48,48,48,48,47,47,47,60],"timestamp_mouse":[9,41,49,70,89,111,129,150,171,189,209,229,249,270,289,309,330,349,369,389,410,429,449,469,490,510,530,549,569,591,609,629,649,671,689,709,729,751,770,791,809,829,849,869,889,910,930,949,970,990,1010],"xSR":741.5,"ySR":469.95,"xT1":424.9,"yT1":0,"xT2":1058.1,"yT2":0,"toosoon":0,"cond_shown":"randomdotsizeEA","ratio_trial":250,"smaller_num":"6","larger_num":"24","correct_side":1,"subjID":"MateoCastiblanco36","gender":"0","age":"11","school":"6"},{"start_time":1551893513516,"click_time":1551893514804,"finger_time":1551893514245,"fix_duration":790.7804307501782,"trial":31,"RT":729,"MT":559,"sideResp":1,"stimulus":"img/750/randomdotsizeEA/R/7_Ratio_750_L_3_R_4.png","xmouse":[765,765,765,765,765,765,765,765,765,765,765,765,765,765,765,765,765,765,765,765,765,765,765,765,765,765,765,765,765,765,765,765,765,765,764,762,757,753,740,722,688,565,520,498,490,488,486,485,475,465,456,453,453,453,453,454,465,471,475,485,497,503,505,509,511],"ymouse":[494,494,494,494,494,494,494,494,494,494,494,494,494,494,494,494,494,494,494,494,494,494,494,494,494,494,494,494,494,494,494,494,494,490,487,479,466,458,438,415,379,294,271,261,257,256,252,249,236,224,212,205,204,203,200,197,177,167,161,146,127,119,111,103,97],"timestamp_mouse":[9,29,48,70,88,109,128,148,169,188,208,228,248,268,290,308,329,350,369,388,410,429,450,472,488,508,529,548,568,589,609,629,648,669,688,708,729,749,769,788,808,828,849,868,889,908,928,949,968,988,1008,1029,1048,1069,1089,1108,1128,1148,1168,1188,1209,1228,1248,1268,1288],"xSR":741.5,"ySR":469.95,"xT1":424.9,"yT1":0,"xT2":1058.1,"yT2":0,"toosoon":0,"cond_shown":"randomdotsizeEA","ratio_trial":750,"smaller_num":"3","larger_num":"4","correct_side":2,"subjID":"MateoCastiblanco36","gender":"0","age":"11","school":"6"},{"start_time":1551893516391,"click_time":1551893517424,"finger_time":1551893516985,"fix_duration":663.5274646644675,"trial":32,"RT":594,"MT":439,"sideResp":2,"stimulus":"img/750/equaldotanddens/R/4_Ratio_750_L_15_R_20.png","xmouse":[771,771,771,771,771,771,771,771,771,771,771,771,771,771,771,771,771,771,771,771,771,771,771,771,772,778,782,794,800,809,819,834,881,917,966,983,996,1018,1028,1036,1044,1050,1060,1062,1064,1066,1067,1068,1068,1069,1069,1070],"ymouse":[532,532,532,532,533,533,533,532,532,532,532,530,530,529,528,528,528,528,528,528,528,528,524,521,516,506,499,483,474,465,455,442,402,374,335,315,294,260,248,234,221,208,181,167,155,137,126,109,105,101,100,98],"timestamp_mouse":[13,35,53,75,93,113,134,155,173,193,215,234,254,273,293,314,333,354,373,393,413,435,454,473,494,514,533,554,574,594,613,633,653,674,694,715,733,753,774,794,814,834,853,873,894,914,933,953,974,993,1013,1033],"xSR":741.5,"ySR":469.95,"xT1":424.9,"yT1":0,"xT2":1058.1,"yT2":0,"toosoon":0,"cond_shown":"equaldotanddens","ratio_trial":750,"smaller_num":"15","larger_num":"20","correct_side":2,"subjID":"MateoCastiblanco36","gender":"0","age":"11","school":"6"},{"start_time":1551893518835,"click_time":1551893519626,"finger_time":1551893519544,"fix_duration":250,"trial":33,"RT":709,"MT":82,"sideResp":1,"stimulus":"img/500/equaldotsize/L/4_Ratio_500_L_18_R_9.png","xmouse":[802,802,802,802,802,802,802,802,802,802,802,802,802,802,802,802,802,802,802,802,802,802,802,802,802,802,802,802,802,802,802,802,802,801,776,657,599,548,512,472],"ymouse":[526,526,526,526,526,526,526,526,526,526,526,526,526,526,526,526,526,526,526,526,526,526,526,526,526,526,526,526,526,526,526,526,526,526,507,416,354,280,202,64],"timestamp_mouse":[9,39,49,69,89,109,130,150,171,189,209,230,250,269,289,310,330,349,369,389,409,430,450,470,489,510,531,549,571,591,611,629,649,669,689,709,730,749,770,791],"xSR":741.5,"ySR":469.95,"xT1":424.9,"yT1":0,"xT2":1058.1,"yT2":0,"toosoon":0,"cond_shown":"equaldotsize","ratio_trial":500,"smaller_num":"9","larger_num":"18","correct_side":1,"subjID":"MateoCastiblanco36","gender":"0","age":"11","school":"6"},{"start_time":1551893521037,"click_time":1551893522226,"finger_time":1551893521784,"fix_duration":250,"trial":34,"RT":747,"MT":442,"sideResp":2,"stimulus":"img/900/randomdotsizeEA/R/7_Ratio_900_L_9_R_10.png","xmouse":[835,835,835,834,831,820,817,815,815,815,815,815,815,815,815,815,815,815,815,815,815,815,815,815,815,815,815,815,815,815,815,815,815,815,815,815,820,846,882,920,1007,1026,1035,1039,1040,1041,1041,1041,1041,1043,1044,1049,1058,1066,1074,1087,1093,1099,1106,1114],"ymouse":[504,504,504,508,510,516,518,518,518,518,518,518,518,518,518,518,518,518,518,518,518,518,518,518,518,518,518,518,518,518,518,518,518,518,518,518,513,494,469,443,365,327,272,252,243,236,234,232,228,216,209,198,179,165,153,130,120,112,104,94],"timestamp_mouse":[8,41,47,67,87,108,127,149,168,187,207,227,248,267,287,309,327,347,369,387,408,428,448,467,489,508,528,548,567,589,607,627,647,667,688,709,727,747,767,787,807,828,847,867,887,908,928,947,967,989,1007,1028,1047,1067,1088,1107,1128,1147,1168,1189],"xSR":741.5,"ySR":469.95,"xT1":424.9,"yT1":0,"xT2":1058.1,"yT2":0,"toosoon":0,"cond_shown":"randomdotsizeEA","ratio_trial":900,"smaller_num":"9","larger_num":"10","correct_side":2,"subjID":"MateoCastiblanco36","gender":"0","age":"11","school":"6"},{"start_time":1551893525656,"click_time":1551893526625,"finger_time":1551893526064,"fix_duration":1469.78150608076,"trial":35,"RT":408,"MT":561,"sideResp":1,"stimulus":"img/500/equaldotanddens/L/8_Ratio_500_L_8_R_4.png","xmouse":[814,814,814,814,814,814,814,814,814,814,814,814,814,814,814,814,814,811,806,788,774,748,726,702,642,624,612,605,594,570,556,535,527,526,526,526,526,526,526,526,526,526,526,526,526,526,525,525,521],"ymouse":[517,517,517,517,517,517,517,517,517,517,517,517,517,517,517,517,517,510,503,479,465,441,423,407,366,352,335,315,285,212,166,92,60,41,25,23,23,23,23,23,23,23,23,23,23,23,22,22,24],"timestamp_mouse":[8,35,49,69,88,108,128,150,168,188,208,228,249,268,288,310,328,349,369,389,408,428,448,468,488,508,529,548,568,588,608,628,648,668,689,708,728,748,768,790,809,828,848,869,888,909,928,949,969],"xSR":741.5,"ySR":469.95,"xT1":424.9,"yT1":0,"xT2":1058.1,"yT2":0,"toosoon":0,"cond_shown":"equaldotanddens","ratio_trial":500,"smaller_num":"4","larger_num":"8","correct_side":1,"subjID":"MateoCastiblanco36","gender":"0","age":"11","school":"6"},{"start_time":1551893528716,"click_time":1551893530304,"finger_time":1551893529584,"fix_duration":250,"trial":36,"RT":868,"MT":720,"sideResp":1,"stimulus":"img/750/equaldotsize/L/1_Ratio_750_L_20_R_15.png","xmouse":[748,748,748,748,748,748,748,748,748,748,748,748,748,748,748,748,748,748,748,748,748,748,748,748,748,748,748,748,748,748,748,748,748,748,748,748,748,748,748,748,748,748,748,740,726,708,683,672,669,669,669,669,669,668,665,658,649,645,644,636,629,617,610,602,591,575,552,533,530,528,528,528,528,528,528,527,527,527,526,523],"ymouse":[493,493,493,493,493,493,493,493,493,493,493,493,493,493,493,493,493,493,493,493,493,493,493,493,493,493,493,493,493,493,493,493,493,493,493,493,493,493,493,493,493,491,482,469,451,433,406,393,387,385,382,366,349,326,298,272,229,203,195,166,148,123,112,103,93,84,75,70,69,68,68,68,68,68,68,68,68,68,68,68],"timestamp_mouse":[8,42,49,70,88,110,128,149,170,188,208,230,249,270,288,308,328,348,368,390,408,429,449,468,488,510,529,549,568,588,609,628,648,668,688,708,729,749,769,788,810,828,848,868,889,909,929,948,968,989,1009,1028,1049,1068,1088,1109,1128,1149,1168,1189,1208,1228,1249,1269,1288,1308,1328,1350,1369,1388,1408,1428,1449,1469,1488,1509,1528,1549,1568,1588],"xSR":741.5,"ySR":469.95,"xT1":424.9,"yT1":0,"xT2":1058.1,"yT2":0,"toosoon":0,"cond_shown":"equaldotsize","ratio_trial":750,"smaller_num":"15","larger_num":"20","correct_side":1,"subjID":"MateoCastiblanco36","gender":"0","age":"11","school":"6"},{"start_time":1551893533997,"click_time":1551893535345,"finger_time":1551893534826,"fix_duration":250,"trial":37,"RT":829,"MT":519,"sideResp":2,"stimulus":"img/500/randomdotsizeEA/R/12_Ratio_500_L_1_R_2.png","xmouse":[762,762,763,765,768,770,771,771,771,771,772,775,777,777,777,777,777,778,780,782,782,783,784,784,784,784,784,784,784,784,784,784,784,784,784,784,785,804,814,824,834,854,864,876,894,906,914,919,919,921,923,926,930,932,940,948,957,974,978,982,985,990,1019,1027,1052,1066,1078,1087],"ymouse":[521,521,521,520,516,512,512,512,512,512,514,516,520,520,520,520,520,520,519,517,516,515,513,513,513,513,513,513,513,513,513,513,513,513,513,513,512,502,495,488,478,456,441,425,400,384,371,342,326,313,307,302,290,283,273,263,255,239,233,228,223,217,181,171,139,119,103,90],"timestamp_mouse":[9,31,47,67,87,108,129,148,167,189,208,228,248,267,289,308,328,348,368,387,407,429,447,468,488,507,527,549,567,588,607,627,648,667,689,708,728,748,767,788,808,829,847,868,887,907,927,947,968,987,1007,1027,1048,1067,1088,1107,1128,1147,1167,1188,1209,1228,1247,1268,1287,1307,1327,1348],"xSR":741.5,"ySR":469.95,"xT1":424.9,"yT1":0,"xT2":1058.1,"yT2":0,"toosoon":0,"cond_shown":"randomdotsizeEA","ratio_trial":500,"smaller_num":"1","larger_num":"2","correct_side":2,"subjID":"MateoCastiblanco36","gender":"0","age":"11","school":"6"},{"start_time":1551893537715,"click_time":1551893539105,"finger_time":1551893538645,"fix_duration":1229.5946918490217,"trial":38,"RT":930,"MT":460,"sideResp":1,"stimulus":"img/500/equaldotanddens/L/11_Ratio_500_L_12_R_6.png","xmouse":[791,789,789,789,789,789,789,789,789,789,789,789,789,789,789,789,789,789,789,789,789,789,789,789,789,789,789,789,789,789,789,789,789,789,789,789,789,789,789,789,789,789,787,787,783,719,628,520,491,479,470,469,468,466,465,465,466,466,466,462,455,454,454,454,454,454,450,447,442],"ymouse":[522,522,522,522,522,522,522,522,522,522,522,522,522,522,522,522,522,522,522,522,522,522,522,522,522,522,522,522,522,522,522,522,522,522,522,522,522,522,522,522,522,522,522,521,514,463,414,368,355,346,327,317,309,300,292,277,265,244,232,215,190,181,174,165,154,128,110,103,89],"timestamp_mouse":[38,49,70,91,109,131,151,170,190,210,229,249,270,290,310,330,350,370,390,411,429,450,471,489,510,531,549,571,591,609,631,649,670,689,710,729,749,769,789,811,830,851,869,889,909,930,949,969,989,1009,1029,1051,1070,1089,1110,1129,1150,1169,1190,1209,1230,1250,1269,1289,1309,1330,1349,1369,1390],"xSR":741.5,"ySR":469.95,"xT1":424.9,"yT1":0,"xT2":1058.1,"yT2":0,"toosoon":0,"cond_shown":"equaldotanddens","ratio_trial":500,"smaller_num":"6","larger_num":"12","correct_side":1,"subjID":"MateoCastiblanco36","gender":"0","age":"11","school":"6"},{"start_time":1551893540317,"click_time":1551893541744,"finger_time":1551893541144,"fix_duration":250,"trial":39,"RT":827,"MT":600,"sideResp":2,"stimulus":"img/750/equaldotanddens/R/12_Ratio_750_L_3_R_4.png","xmouse":[788,788,788,788,788,788,788,788,788,788,788,788,788,788,788,788,788,788,788,788,788,788,788,788,788,788,788,788,788,788,788,788,788,788,788,788,788,788,792,796,809,843,858,865,868,870,872,875,879,885,892,906,911,913,915,917,919,924,943,965,992,1046,1061,1073,1080,1084,1097,1105,1115,1126,1128,1128],"ymouse":[536,536,536,536,536,536,536,536,536,536,536,536,536,536,536,536,536,536,536,536,536,536,536,536,536,536,536,536,536,536,536,536,536,536,536,536,536,536,535,529,509,461,440,427,416,409,400,393,386,377,366,341,328,317,309,306,298,291,268,250,227,182,170,158,151,147,136,129,120,107,101,99],"timestamp_mouse":[8,39,49,67,88,107,127,148,168,187,208,227,247,267,288,309,328,348,367,387,407,428,448,469,487,509,528,547,568,587,607,629,647,669,687,708,727,748,768,787,807,827,847,867,887,907,927,948,967,987,1007,1027,1048,1067,1088,1107,1128,1147,1167,1188,1207,1227,1247,1269,1288,1308,1327,1348,1368,1389,1408,1427],"xSR":741.5,"ySR":469.95,"xT1":424.9,"yT1":0,"xT2":1058.1,"yT2":0,"toosoon":0,"cond_shown":"equaldotanddens","ratio_trial":750,"smaller_num":"3","larger_num":"4","correct_side":2,"subjID":"MateoCastiblanco36","gender":"0","age":"11","school":"6"},{"start_time":1551893543443,"click_time":1551893545065,"finger_time":1551893544025,"fix_duration":496.5390401314176,"trial":40,"RT":582,"MT":1040,"sideResp":2,"stimulus":"img/750/randomdotsizeEA/R/12_Ratio_750_L_3_R_4.png","xmouse":[782,782,782,782,782,782,782,782,782,782,782,782,782,782,782,782,782,782,782,782,782,780,776,774,772,770,767,761,748,733,706,694,692,691,688,683,681,678,673,668,659,656,653,649,647,645,645,645,645,645,645,648,659,672,693,749,788,837,880,917,960,978,991,1006,1021,1042,1046,1050,1051,1052,1052,1052,1052,1052,1052,1052,1052,1052,1052,1052,1055,1066],"ymouse":[505,505,505,505,505,505,505,505,505,505,505,505,505,505,505,505,505,505,505,505,505,502,494,491,489,485,482,478,472,466,454,447,445,440,431,401,380,360,342,326,308,303,297,290,285,279,276,270,265,258,246,239,226,216,209,197,186,172,159,147,125,115,108,100,93,83,79,75,73,73,73,73,73,73,73,73,73,73,73,73,73,73],"timestamp_mouse":[8,35,41,61,82,102,121,142,162,181,202,222,242,261,283,301,322,341,362,381,401,422,441,462,481,501,522,542,561,582,601,622,641,661,681,701,721,743,761,782,801,822,841,861,881,901,922,941,961,981,1002,1022,1041,1061,1081,1101,1121,1141,1161,1181,1201,1222,1241,1261,1282,1301,1322,1343,1361,1381,1401,1421,1443,1462,1482,1502,1522,1541,1561,1582,1602,1622],"xSR":741.5,"ySR":469.95,"xT1":424.9,"yT1":0,"xT2":1058.1,"yT2":0,"toosoon":0,"cond_shown":"randomdotsizeEA","ratio_trial":750,"smaller_num":"3","larger_num":"4","correct_side":2,"subjID":"MateoCastiblanco36","gender":"0","age":"11","school":"6"},{"start_time":1551893547226,"click_time":1551893548245,"finger_time":1551893547504,"fix_duration":1200.0998062198034,"trial":41,"RT":278,"MT":741,"sideResp":1,"stimulus":"img/500/equaldotsize/L/5_Ratio_500_L_4_R_2.png","xmouse":[794,794,794,794,794,794,794,794,794,794,794,795,799,802,804,811,812,813,813,812,785,756,712,690,675,664,657,645,629,570,538,528,528,528,528,528,528,528,528,528,528,528,528,528,528,528,528,528,528,528,506],"ymouse":[519,519,519,519,519,519,519,518,516,505,498,488,474,463,454,428,417,402,388,368,319,290,259,244,233,219,207,191,169,106,79,72,72,72,72,72,72,72,72,72,72,72,72,72,72,72,72,72,72,72,68],"timestamp_mouse":[20,43,58,79,100,118,138,160,178,199,220,239,258,278,298,318,339,358,378,399,419,438,458,479,498,518,538,559,578,600,618,639,658,679,698,719,740,758,779,800,818,838,859,878,898,918,939,959,980,998,1019],"xSR":741.5,"ySR":469.95,"xT1":424.9,"yT1":0,"xT2":1058.1,"yT2":0,"toosoon":0,"cond_shown":"equaldotsize","ratio_trial":500,"smaller_num":"2","larger_num":"4","correct_side":1,"subjID":"MateoCastiblanco36","gender":"0","age":"11","school":"6"},{"start_time":1551893550872,"click_time":1551893552784,"finger_time":1551893551645,"fix_duration":1425.5094084530126,"trial":42,"RT":773,"MT":1139,"sideResp":2,"stimulus":"img/250/randomdotsizeEA/R/4_Ratio_250_L_3_R_12.png","xmouse":[784,784,784,784,784,784,784,784,784,784,784,784,784,784,784,784,784,784,784,784,784,784,784,784,784,784,784,784,784,784,784,784,784,784,788,790,795,803,809,816,832,844,859,894,909,925,939,946,964,980,1010,1030,1069,1089,1103,1114,1118,1120,1120,1120,1120,1120,1120,1119,1117,1117,1117,1118,1118,1119,1119,1120,1120,1120,1120,1120,1120,1120,1116,1101,1089,1081,1073,1068,1065,1065,1065,1065,1065,1066,1066,1067,1067,1067,1068,1068],"ymouse":[517,517,517,517,516,516,516,516,516,516,516,516,516,516,516,516,516,516,516,516,516,516,516,516,516,516,516,516,516,516,516,516,516,516,508,502,492,472,461,447,427,412,398,379,372,366,358,353,338,324,301,287,256,234,214,196,188,183,180,179,177,175,172,162,157,154,153,150,150,149,149,147,146,146,144,144,144,143,136,129,124,119,115,111,109,109,109,109,105,103,102,102,102,100,100,98],"timestamp_mouse":[13,37,53,73,94,113,133,152,174,194,214,234,252,272,293,312,334,352,373,394,413,432,452,473,494,513,534,554,574,592,614,632,653,674,692,712,732,754,773,792,813,833,852,872,892,913,932,952,972,993,1012,1032,1053,1072,1092,1112,1132,1153,1172,1192,1214,1232,1252,1272,1293,1312,1333,1353,1373,1393,1412,1432,1454,1472,1492,1513,1532,1553,1572,1594,1613,1632,1652,1672,1693,1714,1733,1752,1772,1794,1813,1832,1852,1872,1893,1912],"xSR":741.5,"ySR":469.95,"xT1":424.9,"yT1":0,"xT2":1058.1,"yT2":0,"toosoon":0,"cond_shown":"randomdotsizeEA","ratio_trial":250,"smaller_num":"3","larger_num":"12","correct_side":2,"subjID":"MateoCastiblanco36","gender":"0","age":"11","school":"6"},{"start_time":1551893554438,"click_time":1551893555324,"finger_time":1551893554846,"fix_duration":332.5624517282455,"trial":43,"RT":408,"MT":478,"sideResp":2,"stimulus":"img/500/equaldotsize/R/14_Ratio_500_L_5_R_10.png","xmouse":[799,799,799,799,799,799,799,799,799,799,799,799,799,799,799,799,798,798,798,798,826,849,873,903,934,978,997,1012,1024,1032,1046,1054,1059,1064,1068,1073,1074,1076,1077,1078,1081,1082,1084,1086,1086],"ymouse":[507,507,507,507,507,507,507,507,507,507,507,507,507,507,507,507,507,503,496,480,422,391,360,327,296,243,223,207,194,186,174,166,162,159,156,154,153,150,149,146,140,134,126,111,97],"timestamp_mouse":[11,28,48,67,86,106,126,146,166,187,206,227,247,267,288,308,326,347,367,388,408,427,448,467,487,508,527,548,567,588,606,626,647,666,686,706,726,748,766,787,807,827,846,866,886],"xSR":741.5,"ySR":469.95,"xT1":424.9,"yT1":0,"xT2":1058.1,"yT2":0,"toosoon":0,"cond_shown":"equaldotsize","ratio_trial":500,"smaller_num":"5","larger_num":"10","correct_side":2,"subjID":"MateoCastiblanco36","gender":"0","age":"11","school":"6"},{"start_time":1551893557123,"click_time":1551893557965,"finger_time":1551893557445,"fix_duration":715.8942271337214,"trial":44,"RT":322,"MT":520,"sideResp":2,"stimulus":"img/500/randomdotsizeEA/L/11_Ratio_500_L_12_R_6.png","xmouse":[779,779,779,779,779,779,779,779,779,779,779,779,778,786,796,806,827,839,864,895,938,1029,1062,1089,1104,1117,1147,1164,1185,1215,1229,1238,1238,1238,1238,1238,1238,1238,1233,1219,1199,1159,1145],"ymouse":[503,503,503,503,503,503,503,503,503,503,503,503,500,493,484,472,444,425,389,351,307,229,197,171,155,144,131,126,122,112,106,101,101,101,101,101,101,101,97,90,82,69,65],"timestamp_mouse":[8,22,45,62,81,101,123,143,163,183,203,222,242,262,282,301,322,342,361,383,402,422,442,462,482,503,522,542,561,581,602,622,643,662,682,703,722,741,761,782,802,822,842],"xSR":741.5,"ySR":469.95,"xT1":424.9,"yT1":0,"xT2":1058.1,"yT2":0,"toosoon":0,"cond_shown":"randomdotsizeEA","ratio_trial":500,"smaller_num":"6","larger_num":"12","correct_side":1,"subjID":"MateoCastiblanco36","gender":"0","age":"11","school":"6"},{"start_time":1551893559919,"click_time":1551893561246,"finger_time":1551893560145,"fix_duration":891.3216332065413,"trial":45,"RT":226,"MT":1101,"sideResp":2,"stimulus":"img/900/equaldotanddens/L/10_Ratio_900_L_20_R_18.png","xmouse":[785,785,785,785,785,785,785,785,785,781,775,767,766,765,764,763,759,755,748,742,737,724,716,705,692,675,652,643,641,634,629,628,628,628,628,628,628,628,631,645,668,748,792,832,865,891,924,934,957,976,994,1005,1010,1013,1016,1019,1021,1022,1023,1027,1031,1038,1052,1072,1088,1096,1105],"ymouse":[522,522,522,522,522,522,522,521,509,492,479,467,465,462,460,456,445,437,421,408,396,371,353,334,313,290,251,225,216,193,175,171,171,171,171,171,171,171,170,170,173,185,190,195,195,195,191,188,182,180,174,167,164,162,161,157,156,154,152,147,138,131,122,114,109,106,98],"timestamp_mouse":[21,38,47,67,87,107,127,145,166,186,206,226,245,266,286,306,326,346,365,387,406,426,446,466,487,506,526,546,566,587,607,625,645,665,686,707,727,746,766,785,806,827,846,866,885,906,925,946,967,985,1007,1025,1045,1066,1086,1107,1125,1146,1167,1187,1207,1226,1247,1265,1286,1306,1327],"xSR":741.5,"ySR":469.95,"xT1":424.9,"yT1":0,"xT2":1058.1,"yT2":0,"toosoon":0,"cond_shown":"equaldotanddens","ratio_trial":900,"smaller_num":"18","larger_num":"20","correct_side":1,"subjID":"MateoCastiblanco36","gender":"0","age":"11","school":"6"},{"start_time":1551893563197,"click_time":1551893564185,"finger_time":1551893563645,"fix_duration":250,"trial":46,"RT":448,"MT":540,"sideResp":1,"stimulus":"img/250/randomdotsizeEA/L/3_Ratio_250_L_8_R_2.png","xmouse":[821,821,821,821,821,821,821,821,821,821,821,821,821,821,821,821,821,821,821,821,821,809,753,740,736,735,734,733,732,730,727,721,713,708,687,673,667,659,657,655,654,648,641,633,625,619,606,567,534,491],"ymouse":[510,510,510,510,510,510,510,510,510,510,510,510,510,510,510,510,510,510,510,510,503,491,446,436,433,432,432,430,429,424,419,395,358,344,291,264,246,214,196,177,165,144,132,122,114,110,103,79,58,33],"timestamp_mouse":[8,35,48,69,89,108,127,148,169,187,208,228,249,268,289,308,328,348,368,387,408,429,448,468,487,508,527,548,568,588,608,629,648,668,688,708,728,748,768,789,807,829,847,867,888,907,928,948,968,988],"xSR":741.5,"ySR":469.95,"xT1":424.9,"yT1":0,"xT2":1058.1,"yT2":0,"toosoon":0,"cond_shown":"randomdotsizeEA","ratio_trial":250,"smaller_num":"2","larger_num":"8","correct_side":1,"subjID":"MateoCastiblanco36","gender":"0","age":"11","school":"6"},{"start_time":1551893566223,"click_time":1551893568668,"finger_time":1551893566905,"fix_duration":817.1389469923258,"trial":47,"RT":682,"MT":1763,"sideResp":2,"stimulus":"img/500/equaldotanddens/R/2_Ratio_500_L_3_R_6.png","xmouse":[775,775,775,775,775,775,775,775,775,775,775,775,775,775,775,775,775,775,775,775,775,775,775,775,775,776,781,784,788,792,799,812,818,839,855,870,887,894,908,914,931,941,947,952,953,954,957,958,960,962,966,974,977,979,980,981,982,983,984,984,984,988,992,993,993,995,999,1001,1002,1002,1002,1002,1002,1002,1002,1002,1002,1003,1005,1006,1008,1008,1009,1010,1012,1022,1027,1028,1028,1028,1028,1028,1028,1028,1028,1028,1028,1028,1028,1032,1039,1053,1055,1056,1056,1056,1056,1057,1057,1057,1057,1057,1057,1057,1057,1057,1057,1057,1057,1057,1057,1058,1067],"ymouse":[541,541,541,541,541,541,541,541,541,541,541,541,541,541,541,541,541,541,541,541,541,541,541,541,541,540,536,532,528,525,519,503,493,470,455,443,424,412,390,368,324,301,291,282,277,271,263,260,257,252,246,238,235,232,230,230,227,226,225,224,221,210,202,201,201,198,193,189,188,188,188,188,188,188,188,188,188,187,185,184,183,181,180,177,174,153,118,90,58,37,23,18,18,18,18,18,18,18,18,18,23,33,34,35,35,35,35,35,35,35,35,35,35,35,35,35,35,35,35,35,35,35,40],"timestamp_mouse":[9,33,42,62,81,101,122,142,161,182,201,222,242,261,282,301,322,342,361,382,403,421,443,462,482,501,522,542,562,582,603,621,643,662,682,701,721,742,763,781,803,822,842,861,882,902,921,943,963,982,1002,1021,1042,1062,1082,1102,1122,1141,1163,1182,1203,1222,1242,1262,1283,1301,1322,1343,1362,1382,1403,1421,1443,1462,1482,1501,1521,1541,1562,1581,1601,1622,1643,1662,1682,1703,1721,1742,1763,1782,1803,1831,1842,1862,1882,1902,1922,1942,1963,1981,2003,2022,2043,2063,2081,2103,2122,2141,2161,2182,2202,2222,2241,2263,2282,2303,2322,2342,2361,2383,2403,2422,2445],"xSR":741.5,"ySR":469.95,"xT1":424.9,"yT1":0,"xT2":1058.1,"yT2":0,"toosoon":0,"cond_shown":"equaldotanddens","ratio_trial":500,"smaller_num":"3","larger_num":"6","correct_side":2,"subjID":"MateoCastiblanco36","gender":"0","age":"11","school":"6"},{"start_time":1551893571659,"click_time":1551893576885,"finger_time":1551893574726,"fix_duration":413.17819016790844,"trial":48,"RT":3067,"MT":2159,"sideResp":1,"stimulus":"img/900/equaldotanddens/L/2_Ratio_900_L_20_R_18.png","xmouse":[787,787,787,787,787,787,787,787,787,787,787,787,787,787,787,787,787,787,787,787,787,787,787,787,787,787,787,787,787,787,787,787,787,787,787,787,787,787,787,787,787,787,787,787,787,787,787,787,787,787,787,787,787,787,787,787,787,787,787,787,787,787,787,787,787,787,787,787,787,787,787,787,787,787,787,787,787,787,787,787,786,785,785,785,785,785,785,785,785,785,785,785,785,786,786,786,786,786,786,786,786,786,786,786,786,786,786,786,786,786,786,786,786,786,786,786,786,786,786,786,786,786,786,786,786,786,786,786,786,786,786,786,786,786,786,786,786,786,786,786,786,786,786,786,786,786,786,787,787,787,787,787,788,790,792,794,795,798,800,802,802,802,802,805,813,816,819,822,825,825,825,824,823,823,823,822,820,817,814,808,801,798,796,794,789,786,781,777,777,777,777,777,777,777,776,773,770,767,765,765,765,765,765,765,767,768,768,768,768,768,768,768,768,768,769,769,770,772,772,774,775,776,777,778,778,778,778,778,778,778,778,778,778,778,776,769,759,748,731,704,693,686,678,673,665,660,653,649,647,645,641,634,627,617,602,601,601,601,601,581,541,515],"ymouse":[507,507,507,507,507,507,507,507,507,507,507,507,507,507,507,507,507,507,507,507,507,507,507,507,507,507,507,507,507,507,507,507,507,507,507,507,507,507,507,507,507,507,507,507,507,507,507,507,507,507,507,507,507,507,507,507,507,507,507,507,507,507,507,507,507,507,507,514,519,521,522,524,525,525,526,526,526,526,526,527,529,529,529,529,529,529,529,529,529,529,529,528,527,526,526,526,526,526,526,526,526,526,526,526,526,526,526,526,526,526,527,529,529,529,529,529,529,529,529,529,529,529,529,529,529,531,532,535,537,540,541,541,541,541,541,541,541,541,541,541,541,543,545,546,549,551,552,554,554,555,556,558,564,578,589,603,614,623,632,634,634,634,633,627,615,608,601,593,580,574,567,559,556,554,550,547,540,535,529,520,509,505,503,500,494,490,486,481,481,481,481,481,481,481,481,488,501,514,544,556,563,568,571,575,583,585,585,585,585,581,577,571,568,566,560,554,550,546,541,533,529,525,517,510,496,488,482,478,474,473,473,473,473,473,467,457,443,428,409,376,354,337,320,304,272,253,227,200,176,146,135,116,103,87,69,68,68,68,68,66,61,57],"timestamp_mouse":[9,38,46,67,86,106,127,145,166,187,205,226,247,265,287,306,325,346,367,385,405,427,447,466,485,506,525,547,565,585,606,626,646,666,685,705,726,746,765,787,805,827,847,867,886,906,926,946,966,987,1005,1025,1046,1066,1085,1106,1127,1146,1166,1186,1206,1226,1245,1267,1287,1307,1327,1345,1367,1386,1407,1425,1445,1466,1487,1506,1527,1547,1566,1587,1606,1626,1647,1665,1686,1707,1726,1747,1766,1785,1806,1826,1847,1867,1885,1906,1926,1946,1967,1985,2005,2025,2046,2066,2087,2106,2127,2145,2167,2185,2206,2226,2247,2265,2287,2306,2325,2346,2366,2385,2406,2427,2446,2467,2487,2505,2527,2546,2566,2586,2605,2627,2646,2667,2685,2706,2725,2746,2767,2787,2805,2825,2846,2865,2886,2906,2926,2946,2965,2986,3006,3025,3046,3067,3085,3107,3125,3146,3167,3185,3206,3227,3247,3265,3286,3306,3326,3346,3367,3386,3407,3425,3446,3466,3486,3505,3526,3547,3567,3586,3606,3626,3646,3666,3686,3705,3726,3746,3767,3786,3807,3826,3845,3865,3886,3906,3926,3946,3967,3985,4006,4026,4046,4066,4086,4106,4126,4146,4167,4185,4206,4226,4246,4266,4287,4306,4326,4346,4365,4385,4406,4426,4446,4466,4485,4506,4526,4546,4566,4586,4606,4626,4645,4667,4686,4705,4726,4746,4766,4785,4806,4825,4846,4866,4886,4907,4925,4945,4966,4986,5006,5026,5046,5065,5087,5106,5126,5146,5166,5185,5206,5226],"xSR":741.5,"ySR":469.95,"xT1":424.9,"yT1":0,"xT2":1058.1,"yT2":0,"toosoon":0,"cond_shown":"equaldotanddens","ratio_trial":900,"smaller_num":"18","larger_num":"20","correct_side":1,"subjID":"MateoCastiblanco36","gender":"0","age":"11","school":"6"},{"start_time":1551893580569,"click_time":1551893581525,"finger_time":1551893581305,"fix_duration":1441.2166788265677,"trial":49,"RT":736,"MT":220,"sideResp":1,"stimulus":"img/250/equaldotsize/L/1_Ratio_250_L_8_R_2.png","xmouse":[775,775,775,775,775,775,775,775,775,775,775,775,775,775,775,775,775,775,775,775,775,775,775,775,775,774,774,774,773,773,773,773,772,771,769,761,749,735,668,622,588,568,559,550,543,539,528,520],"ymouse":[507,507,507,507,507,507,507,507,507,507,507,507,507,507,507,507,507,507,507,507,507,507,507,507,507,506,505,503,500,498,497,496,493,491,485,470,454,436,373,322,279,249,230,189,150,134,91,65],"timestamp_mouse":[20,38,56,76,95,117,136,156,177,195,215,237,255,277,296,316,336,357,375,396,417,435,456,476,496,516,537,556,575,596,616,636,657,675,697,716,736,755,775,795,816,836,856,875,895,916,935,956],"xSR":741.5,"ySR":469.95,"xT1":424.9,"yT1":0,"xT2":1058.1,"yT2":0,"toosoon":0,"cond_shown":"equaldotsize","ratio_trial":250,"smaller_num":"2","larger_num":"8","correct_side":1,"subjID":"MateoCastiblanco36","gender":"0","age":"11","school":"6"},{"start_time":1551893584560,"click_time":1551893585345,"finger_time":1551893584965,"fix_duration":1335.9796035755887,"trial":50,"RT":405,"MT":380,"sideResp":2,"stimulus":"img/750/equaldotsize/R/15_Ratio_750_L_9_R_12.png","xmouse":[785,785,785,785,785,785,785,785,785,785,785,785,785,785,785,785,785,785,786,791,793,795,797,804,815,829,861,884,911,952,962,970,980,989,1015,1023,1037,1045,1051,1064],"ymouse":[495,495,495,495,495,495,495,495,495,495,495,495,495,495,495,495,495,495,490,474,468,465,461,454,449,444,429,415,395,351,325,294,261,236,188,167,140,123,109,80],"timestamp_mouse":[10,35,45,64,85,105,125,146,165,186,204,224,245,266,284,304,326,344,366,385,405,425,444,466,484,505,525,545,564,584,605,625,645,664,685,705,724,745,765,785],"xSR":741.5,"ySR":469.95,"xT1":424.9,"yT1":0,"xT2":1058.1,"yT2":0,"toosoon":0,"cond_shown":"equaldotsize","ratio_trial":750,"smaller_num":"9","larger_num":"12","correct_side":2,"subjID":"MateoCastiblanco36","gender":"0","age":"11","school":"6"},{"start_time":1551893586736,"click_time":1551893587645,"finger_time":1551893587204,"fix_duration":250,"trial":51,"RT":468,"MT":441,"sideResp":1,"stimulus":"img/250/randomdotsizeEA/L/1_Ratio_250_L_8_R_2.png","xmouse":[795,795,795,795,795,795,795,795,795,795,795,795,795,795,795,795,795,795,795,795,794,788,782,775,770,755,745,740,733,721,685,667,654,645,637,625,608,594,582,578,578,578,575,568,554,513],"ymouse":[513,513,513,513,513,513,513,513,513,513,513,513,513,513,513,513,513,513,513,513,508,494,479,467,457,432,414,402,387,368,316,291,273,257,242,211,180,161,147,141,141,139,132,121,106,71],"timestamp_mouse":[9,28,49,72,88,109,130,150,168,189,209,230,248,269,289,308,329,349,368,389,409,429,450,468,490,509,529,549,570,589,609,630,649,669,689,709,730,748,769,790,809,829,849,870,889,909],"xSR":741.5,"ySR":469.95,"xT1":424.9,"yT1":0,"xT2":1058.1,"yT2":0,"toosoon":0,"cond_shown":"randomdotsizeEA","ratio_trial":250,"smaller_num":"2","larger_num":"8","correct_side":1,"subjID":"MateoCastiblanco36","gender":"0","age":"11","school":"6"},{"start_time":1551893589428,"click_time":1551893590426,"finger_time":1551893589826,"fix_duration":882.6714403745145,"trial":52,"RT":398,"MT":600,"sideResp":2,"stimulus":"img/500/randomdotsizeEA/R/3_Ratio_500_L_10_R_20.png","xmouse":[791,791,791,791,791,791,791,791,791,791,791,791,791,791,791,794,799,808,823,864,885,903,921,925,926,935,941,952,969,1002,1012,1016,1017,1017,1017,1017,1017,1017,1017,1018,1025,1029,1030,1032,1035,1043,1049,1055,1057,1061],"ymouse":[515,515,515,515,515,515,515,515,515,515,515,515,515,515,515,508,502,492,479,436,414,392,359,333,308,270,249,220,182,136,125,121,120,120,120,120,120,120,120,118,118,117,117,115,113,106,102,97,95,91],"timestamp_mouse":[34,36,58,77,97,117,136,156,177,197,217,238,256,278,296,316,336,357,377,398,416,436,457,477,496,516,538,558,576,598,617,637,658,678,697,717,737,758,777,797,817,837,857,877,896,917,936,957,977,998],"xSR":741.5,"ySR":469.95,"xT1":424.9,"yT1":0,"xT2":1058.1,"yT2":0,"toosoon":0,"cond_shown":"randomdotsizeEA","ratio_trial":500,"smaller_num":"10","larger_num":"20","correct_side":2,"subjID":"MateoCastiblanco36","gender":"0","age":"11","school":"6"},{"start_time":1551893592898,"click_time":1551893594045,"finger_time":1551893593525,"fix_duration":1350.4261637386355,"trial":53,"RT":627,"MT":520,"sideResp":1,"stimulus":"img/900/randomdotsizeEA/R/11_Ratio_900_L_18_R_20.png","xmouse":[770,770,770,770,770,770,770,770,770,770,770,770,770,770,770,770,770,770,770,770,771,771,774,776,777,779,783,787,789,790,790,787,768,755,741,723,693,679,669,660,655,648,628,613,600,592,589,582,578,574,573,568,555,546,538,533,525,523],"ymouse":[527,527,527,527,527,527,527,527,527,527,527,527,527,527,527,527,527,527,527,526,524,523,519,516,513,511,507,500,495,485,474,462,428,408,388,365,320,290,266,232,208,185,141,117,99,88,84,77,75,73,73,72,70,69,68,68,68,68],"timestamp_mouse":[8,36,47,68,87,107,128,148,166,186,207,226,247,267,288,307,326,348,368,387,408,427,448,467,487,507,527,546,568,586,607,627,647,666,687,706,728,746,766,787,807,827,847,866,887,906,927,947,967,988,1007,1026,1046,1067,1086,1107,1128,1147],"xSR":741.5,"ySR":469.95,"xT1":424.9,"yT1":0,"xT2":1058.1,"yT2":0,"toosoon":0,"cond_shown":"randomdotsizeEA","ratio_trial":900,"smaller_num":"18","larger_num":"20","correct_side":2,"subjID":"MateoCastiblanco36","gender":"0","age":"11","school":"6"},{"start_time":1551893596158,"click_time":1551893596928,"finger_time":1551893596524,"fix_duration":1251.2715421508933,"trial":54,"RT":366,"MT":404,"sideResp":2,"stimulus":"img/900/equaldotsize/L/8_Ratio_900_L_20_R_18.png","xmouse":[788,788,788,788,788,788,788,788,788,788,788,788,788,788,788,788,798,821,856,913,919,920,920,923,939,953,967,991,1001,1012,1015,1016,1021,1036,1045,1056,1067,1088,1112],"ymouse":[516,516,516,516,516,516,516,516,516,516,516,516,516,516,516,516,510,496,475,429,412,388,368,356,328,307,281,233,208,180,172,166,159,143,134,125,117,103,86],"timestamp_mouse":[10,35,47,67,86,107,126,147,168,187,206,226,247,268,286,307,326,347,366,387,407,427,447,466,486,507,527,547,567,586,607,627,647,668,687,708,727,748,770],"xSR":741.5,"ySR":469.95,"xT1":424.9,"yT1":0,"xT2":1058.1,"yT2":0,"toosoon":0,"cond_shown":"equaldotsize","ratio_trial":900,"smaller_num":"18","larger_num":"20","correct_side":1,"subjID":"MateoCastiblanco36","gender":"0","age":"11","school":"6"},{"start_time":1551893600895,"click_time":1551893602324,"finger_time":1551893601784,"fix_duration":1208.683777563017,"trial":55,"RT":889,"MT":540,"sideResp":2,"stimulus":"img/250/equaldotanddens/R/12_Ratio_250_L_5_R_20.png","xmouse":[787,787,787,787,787,787,787,787,787,787,787,787,787,787,787,787,787,787,787,787,787,787,787,787,787,787,787,787,787,787,787,787,787,787,787,787,787,787,787,787,788,794,813,826,843,857,884,900,913,932,960,1000,1015,1028,1039,1048,1051,1057,1061,1066,1069,1073,1078,1083,1086,1089,1095,1097,1099,1104,1107,1111],"ymouse":[522,522,522,522,522,522,522,522,522,522,522,522,522,522,522,522,522,522,522,522,522,522,522,522,522,522,522,522,522,522,522,522,522,522,522,522,522,522,522,522,522,519,505,492,474,454,398,365,341,316,284,238,219,202,192,184,181,174,171,166,163,159,149,141,135,129,122,119,115,106,100,96],"timestamp_mouse":[9,35,49,71,90,111,131,150,170,190,210,230,251,271,290,310,331,349,371,390,410,429,451,470,490,510,531,550,570,589,611,631,649,671,689,709,731,750,771,791,810,830,851,870,889,910,931,949,970,990,1010,1031,1049,1069,1089,1109,1130,1150,1170,1189,1209,1230,1250,1269,1289,1310,1331,1349,1370,1390,1410,1429],"xSR":741.5,"ySR":469.95,"xT1":424.9,"yT1":0,"xT2":1058.1,"yT2":0,"toosoon":0,"cond_shown":"equaldotanddens","ratio_trial":250,"smaller_num":"5","larger_num":"20","correct_side":2,"subjID":"MateoCastiblanco36","gender":"0","age":"11","school":"6"},{"start_time":1551893604575,"click_time":1551893606124,"finger_time":1551893605386,"fix_duration":1249.9291782211606,"trial":56,"RT":811,"MT":738,"sideResp":1,"stimulus":"img/750/equaldotanddens/L/13_Ratio_750_L_8_R_6.png","xmouse":[799,799,799,799,799,799,799,799,799,799,799,799,799,799,799,799,799,799,799,800,800,801,801,801,801,801,801,801,801,801,801,801,801,801,801,795,787,782,767,757,746,741,740,740,740,740,740,740,740,740,740,740,740,740,739,729,705,617,582,559,548,541,540,533,530,527,526,525,525,525,525,525,525,525,525,525,525,523],"ymouse":[555,555,555,555,555,555,555,555,555,555,555,555,555,555,555,555,555,555,555,554,554,553,553,551,551,551,550,550,550,550,550,550,550,546,541,529,518,510,488,471,455,447,441,440,440,440,440,440,440,440,440,440,440,440,438,425,402,330,299,270,242,203,164,101,77,58,55,53,53,53,53,53,53,53,53,53,53,53],"timestamp_mouse":[14,36,50,71,89,109,131,151,169,191,211,229,250,269,291,309,331,351,371,390,409,429,450,470,489,511,529,550,571,589,610,629,650,670,690,709,730,750,771,789,811,830,851,870,889,910,930,950,970,990,1011,1030,1050,1070,1091,1111,1130,1151,1170,1190,1210,1231,1249,1269,1289,1310,1330,1351,1369,1391,1411,1430,1449,1470,1491,1510,1529,1549],"xSR":741.5,"ySR":469.95,"xT1":424.9,"yT1":0,"xT2":1058.1,"yT2":0,"toosoon":0,"cond_shown":"equaldotanddens","ratio_trial":750,"smaller_num":"6","larger_num":"8","correct_side":1,"subjID":"MateoCastiblanco36","gender":"0","age":"11","school":"6"},{"start_time":1551893608404,"click_time":1551893609766,"finger_time":1551893609205,"fix_duration":1397.4317834201277,"trial":57,"RT":801,"MT":561,"sideResp":1,"stimulus":"img/900/equaldotsize/R/11_Ratio_900_L_18_R_20.png","xmouse":[771,771,771,771,771,771,771,771,771,771,771,771,771,771,771,771,771,771,771,771,771,771,771,771,771,771,771,771,771,771,771,771,771,771,771,771,771,771,768,756,741,708,694,687,682,677,675,670,669,666,664,659,640,618,610,583,570,556,552,549,547,540,537,531,530,530,528,527,524],"ymouse":[522,522,522,522,522,522,522,522,522,522,522,522,522,522,522,522,522,522,522,522,522,522,522,522,522,522,522,522,522,522,522,522,522,522,522,522,522,522,515,503,488,453,435,425,414,403,398,386,380,376,369,359,329,299,287,254,234,193,177,160,145,117,106,92,90,88,84,82,76],"timestamp_mouse":[8,22,42,62,81,102,120,142,160,181,202,221,240,261,282,300,322,342,360,382,402,421,440,461,480,500,522,542,560,582,601,622,642,662,682,701,721,740,761,782,801,823,841,861,881,901,921,941,960,980,1001,1021,1041,1062,1080,1101,1120,1140,1161,1181,1201,1222,1241,1262,1281,1301,1322,1340,1362],"xSR":741.5,"ySR":469.95,"xT1":424.9,"yT1":0,"xT2":1058.1,"yT2":0,"toosoon":0,"cond_shown":"equaldotsize","ratio_trial":900,"smaller_num":"18","larger_num":"20","correct_side":2,"subjID":"MateoCastiblanco36","gender":"0","age":"11","school":"6"},{"start_time":1551893610998,"click_time":1551893612185,"finger_time":1551893611745,"fix_duration":250,"trial":58,"RT":747,"MT":440,"sideResp":2,"stimulus":"img/750/randomdotsizeEA/L/10_Ratio_750_L_4_R_3.png","xmouse":[801,801,801,801,801,801,801,801,801,801,801,801,801,801,801,801,801,801,801,801,801,801,801,801,801,801,801,801,801,801,801,801,801,802,809,818,833,864,881,897,910,924,967,998,1034,1052,1063,1081,1092,1102,1110,1116,1122,1123,1125,1125,1126,1128,1128,1128],"ymouse":[527,527,527,527,527,527,527,527,527,527,527,527,527,527,527,527,527,527,527,527,527,527,527,527,527,527,527,527,527,527,527,527,527,527,524,517,506,477,455,433,410,385,317,282,238,214,198,167,153,140,132,127,121,119,116,116,113,106,101,97],"timestamp_mouse":[8,34,47,68,88,108,127,147,166,187,207,226,248,267,288,307,327,348,367,388,407,428,448,466,488,507,527,547,568,586,608,628,646,666,687,707,727,747,767,788,807,826,847,866,886,908,927,947,968,986,1006,1027,1047,1067,1086,1106,1127,1146,1167,1187],"xSR":741.5,"ySR":469.95,"xT1":424.9,"yT1":0,"xT2":1058.1,"yT2":0,"toosoon":0,"cond_shown":"randomdotsizeEA","ratio_trial":750,"smaller_num":"3","larger_num":"4","correct_side":1,"subjID":"MateoCastiblanco36","gender":"0","age":"11","school":"6"},{"start_time":1551893616402,"click_time":1551893617846,"finger_time":1551893617166,"fix_dura