[{"start_time":1551899872108,"click_time":1551899877229,"finger_time":1551899872118,"fix_duration":994.2251604432665,"trial":0,"RT":10,"MT":5111,"sideResp":2,"stimulus":[],"xmouse":[762,762,762,762,762,762,762,762,762,762,762,762,762,762,762,762,762,762,762,762,762,762,762,762,762,762,762,762,762,762,762,762,762,762,762,762,762,762,762,762,762,762,762,762,762,762,762,762,762,762,762,762,762,762,762,762,762,762,759,757,755,755,753,751,748,745,743,743,743,743,743,743,743,743,743,743,743,743,753,770,784,797,802,803,803,803,803,803,803,803,803,803,803,803,803,803,803,803,803,803,803,803,803,803,803,803,803,803,803,803,803,803,803,803,803,803,803,803,803,803,803,803,803,803,803,803,803,803,803,803,803,803,803,803,803,803,803,803,803,803,803,803,803,803,803,803,803,803,803,803,803,803,803,803,803,803,803,803,803,803,803,803,803,803,803,803,803,803,803,803,803,803,803,803,803,803,803,803,803,803,803,803,803,803,803,803,803,803,803,803,803,803,803,803,803,803,803,803,803,803,803,803,803,803,803,803,803,803,803,803,803,803,803,803,803,805,806,806,817,830,835,835,827,818,818,818,817,817,817,816,815,812,803,773,759,738,713,687,671,678,727,831,972,1217,1262,1260,1222,1123,776,608,519,500,619,743,940,1040,1096],"ymouse":[551,551,551,551,551,551,551,551,551,551,551,551,551,551,551,551,551,551,551,551,551,551,551,551,551,551,551,551,551,551,551,551,551,551,551,551,551,551,551,551,551,551,551,551,551,551,551,551,551,551,551,551,551,551,551,551,551,557,579,586,590,594,601,607,617,628,633,634,634,634,634,634,634,634,634,634,634,635,634,632,631,631,631,631,631,631,631,631,631,631,631,631,631,631,631,631,631,631,631,631,631,631,631,631,631,631,631,631,631,631,631,631,631,631,631,631,631,631,631,631,631,631,631,631,631,631,631,631,631,631,631,631,631,631,631,631,631,631,631,631,631,631,631,631,631,631,631,631,631,631,631,631,631,631,631,631,631,631,631,631,631,631,631,631,631,631,631,631,631,631,631,631,631,631,631,631,631,631,631,631,631,631,631,631,631,631,631,631,631,631,631,631,631,631,631,631,631,631,631,631,631,631,631,631,631,631,631,631,631,631,631,631,631,631,629,613,592,559,402,320,251,194,158,144,144,144,148,151,157,159,162,168,183,235,259,289,320,350,385,398,425,449,466,531,569,585,611,644,656,625,587,542,391,305,175,106,63],"timestamp_mouse":[9,21,40,61,81,102,120,141,160,180,201,221,242,260,281,300,320,340,361,381,401,421,440,460,480,500,521,541,561,580,601,621,641,661,681,701,720,741,761,780,801,820,840,860,881,900,920,940,962,981,1001,1020,1041,1060,1081,1100,1120,1140,1160,1181,1200,1220,1241,1261,1281,1300,1321,1340,1360,1380,1400,1421,1440,1461,1480,1501,1520,1540,1561,1581,1600,1622,1640,1660,1680,1700,1721,1741,1761,1781,1800,1820,1840,1861,1880,1902,1920,1940,1962,1981,2000,2022,2040,2060,2082,2100,2120,2140,2160,2180,2201,2221,2242,2261,2280,2300,2321,2342,2361,2380,2401,2421,2441,2460,2481,2501,2520,2540,2560,2580,2600,2620,2642,2661,2682,2701,2721,2740,2761,2780,2800,2821,2840,2860,2880,2902,2921,2940,2961,2981,3000,3020,3040,3061,3081,3100,3121,3141,3160,3180,3200,3221,3240,3260,3280,3300,3320,3340,3362,3380,3400,3420,3442,3461,3480,3500,3521,3541,3560,3580,3600,3622,3640,3660,3680,3700,3722,3740,3760,3780,3801,3820,3840,3860,3881,3900,3922,3941,3961,3980,4000,4022,4041,4060,4080,4100,4121,4141,4160,4181,4200,4221,4240,4261,4280,4301,4320,4340,4361,4380,4402,4420,4440,4460,4481,4500,4521,4540,4561,4580,4601,4621,4640,4661,4681,4702,4721,4741,4762,4781,4800,4820,4842,4861,4880,4900,4922,4940,4960,4980,5000,5021,5041,5060,5080,5100,5120],"xSR":741.5,"ySR":469.95,"xT1":424.9,"yT1":0,"xT2":1058.1,"yT2":0,"toosoon":0,"cond_shown":"Congruent","ratio_trial":300,"L_num":5,"L_den":25,"R_num":6,"R_den":12,"correct_side":2,"subjID":"mateochaurospina39","gender":"0","age":"14","school":"6","test":{"fix_dur":[250,1500],"timestim":1000,"targets_dim":[100,100],"targets_relative_coord":[0.3,0.7],"size_stim":[880,420],"start_dim":[100,100],"size_start":[300,300],"size_fix":60,"samplingrate":20,"img_types":["Congruent","Incongruent"],"ratios":[100,200,300],"rep_conds":19,"nTrials":120,"trials_to_rest":500,"Trials_order":[34,31,63,89,78,35,30,47,4,1,110,32,26,43,21,94,88,28,27,91,83,45,102,7,54,79,50,9,19,52,42,92,118,59,22,70,84,112,85,87,101,25,12,105,68,29,103,116,10,106,73,17,82,49,86,111,77,98,67,46,23,13,75,95,62,104,51,115,60,114,58,38,14,81,93,57,119,44,64,55,72,53,33,61,39,109,18,90,107,65,80,37,113,96,24,99,56,69,117,76,41,74,66,0,16,100,6,36,2,48,40,108,11,15,3,5,97,8,20,71],"cond_shown":["Congruent","Incongruent","Incongruent","Incongruent","Congruent","Incongruent","Congruent","Incongruent","Congruent","Incongruent","Congruent","Congruent","Congruent","Incongruent","Incongruent","Congruent","Congruent","Congruent","Incongruent","Incongruent","Incongruent","Incongruent","Congruent","Incongruent","Congruent","Incongruent","Congruent","Incongruent","Incongruent","Congruent","Congruent","Congruent","Congruent","Incongruent","Congruent","Congruent","Congruent","Congruent","Incongruent","Incongruent","Incongruent","Incongruent","Congruent","Incongruent","Congruent","Incongruent","Incongruent","Congruent","Congruent","Congruent","Incongruent","Incongruent","Congruent","Incongruent","Congruent","Incongruent","Incongruent","Congruent","Incongruent","Congruent","Incongruent","Incongruent","Incongruent","Incongruent","Congruent","Congruent","Incongruent","Incongruent","Congruent","Congruent","Congruent","Congruent","Congruent","Incongruent","Incongruent","Incongruent","Incongruent","Congruent","Congruent","Incongruent","Congruent","Incongruent","Incongruent","Incongruent","Incongruent","Incongruent","Congruent","Congruent","Incongruent","Incongruent","Congruent","Incongruent","Incongruent","Congruent","Congruent","Incongruent","Congruent","Incongruent","Incongruent","Congruent","Incongruent","Congruent","Congruent","Congruent","Congruent","Congruent","Congruent","Congruent","Congruent","Congruent","Congruent","Congruent","Incongruent","Incongruent","Incongruent","Incongruent","Incongruent","Congruent","Congruent","Incongruent"],"ratio_trial":[300,100,200,300,100,300,100,300,300,100,200,200,200,100,200,300,300,300,200,100,300,200,100,100,100,100,200,200,100,300,100,200,300,300,300,300,100,300,100,200,300,100,100,200,200,300,100,200,300,300,100,300,300,100,200,200,300,200,100,300,300,100,200,300,200,200,200,100,100,100,300,200,200,200,200,200,300,200,300,100,100,300,200,100,200,100,100,100,300,300,200,100,300,100,100,200,200,200,200,300,300,200,100,100,300,300,100,100,200,100,300,100,300,200,200,300,100,200,200,300],"left_num":[5,3,14,4,2,13,11,13,11,8,6,8,7,9,7,1,1,20,7,9,4,3,3,13,9,12,7,9,2,18,12,16,20,1,4,18,1,1,6,11,7,9,1,4,15,8,12,20,11,11,2,1,2,8,12,7,8,9,9,24,1,11,3,4,6,8,7,3,11,15,9,7,7,3,7,11,8,3,1,9,6,4,4,8,7,3,1,9,4,13,1,10,4,1,2,9,8,4,14,1,4,15,10,15,7,1,9,2,9,2,12,6,1,4,11,4,9,6,6,8],"right_num":[6,7,12,2,11,12,6,12,2,1,7,7,2,14,14,11,19,9,12,13,2,11,4,6,8,2,18,8,6,9,13,12,8,2,2,9,18,19,3,3,8,13,18,6,4,9,9,9,1,2,6,3,12,6,6,4,14,4,6,2,3,9,11,8,11,7,12,4,4,13,3,18,18,11,4,3,9,11,7,13,5,2,6,6,4,11,3,8,8,12,21,8,2,18,11,8,3,6,6,19,2,4,3,13,20,7,8,11,4,11,2,5,2,6,3,2,20,7,7,14],"left_den":[25,9,30,20,5,26,22,26,22,20,12,15,21,15,10,5,3,25,10,15,20,4,20,26,15,30,15,15,4,20,30,20,25,2,5,20,2,3,12,20,10,15,2,5,25,10,24,25,22,22,4,2,10,16,20,15,10,20,18,30,2,22,4,5,20,15,10,6,22,25,10,15,15,4,15,20,10,10,20,15,20,20,5,16,15,5,2,15,5,26,2,25,20,2,5,15,15,5,30,3,20,25,25,25,14,20,15,5,20,5,24,20,2,5,20,20,10,12,12,10],"right_den":[12,30,18,4,22,15,15,15,10,2,10,21,15,28,28,22,30,18,24,26,4,20,16,10,16,4,27,10,15,15,26,20,16,10,4,15,30,30,5,4,20,26,30,10,10,18,15,15,5,10,15,15,24,10,15,6,28,16,10,4,15,15,20,16,22,21,24,10,10,26,5,27,27,20,6,4,18,22,20,26,25,4,10,10,6,22,5,16,16,15,30,16,4,30,22,10,9,10,9,30,4,10,10,26,25,20,16,22,16,22,10,25,10,10,4,4,25,10,10,28],"correct_side":[2,1,2,2,2,2,1,2,1,2,2,1,1,1,1,2,2,1,1,1,2,1,2,2,1,2,2,2,1,1,2,1,1,1,1,1,2,2,2,2,1,1,2,1,1,1,2,1,1,1,1,1,2,2,1,2,1,1,2,1,1,2,1,1,2,1,1,1,1,1,1,2,2,1,2,2,1,2,2,1,1,2,1,2,2,1,2,1,1,2,2,2,2,2,2,2,1,1,2,2,2,1,1,1,2,2,1,2,1,2,1,1,1,1,2,2,1,2,2,1],"img_shown":["img2/300/Congruent/R/C_Dist_300_LN_5_LD_25_RN_6_RD_12_1.png","img2/100/Incongruent/L/I_Dist_100_LN_3_LD_9_RN_7_RD_30_0.png","img2/200/Incongruent/R/I_Dist_200_LN_14_LD_30_RN_12_RD_18_1.png","img2/300/Incongruent/R/I_Dist_300_LN_4_LD_20_RN_2_RD_4_1.png","img2/100/Congruent/R/C_Dist_100_LN_2_LD_5_RN_11_RD_22_1.png","img2/300/Incongruent/R/I_Dist_300_LN_13_LD_26_RN_12_RD_15_1.png","img2/100/Congruent/L/C_Dist_100_LN_11_LD_22_RN_6_RD_15_0.png","img2/300/Incongruent/R/I_Dist_300_LN_13_LD_26_RN_12_RD_15_1.png","img2/300/Congruent/L/C_Dist_300_LN_11_LD_22_RN_2_RD_10_0.png","img2/100/Incongruent/R/I_Dist_100_LN_8_LD_20_RN_1_RD_2_1.png","img2/200/Congruent/R/C_Dist_200_LN_6_LD_12_RN_7_RD_10_1.png","img2/200/Congruent/L/C_Dist_200_LN_8_LD_15_RN_7_RD_21_0.png","img2/200/Congruent/L/C_Dist_200_LN_7_LD_21_RN_2_RD_15_0.png","img2/100/Incongruent/L/I_Dist_100_LN_9_LD_15_RN_14_RD_28_0.png","img2/200/Incongruent/L/I_Dist_200_LN_7_LD_10_RN_14_RD_28_0.png","img2/300/Congruent/R/C_Dist_300_LN_1_LD_5_RN_11_RD_22_1.png","img2/300/Congruent/R/C_Dist_300_LN_1_LD_3_RN_19_RD_30_1.png","img2/300/Congruent/L/C_Dist_300_LN_20_LD_25_RN_9_RD_18_0.png","img2/200/Incongruent/L/I_Dist_200_LN_7_LD_10_RN_12_RD_24_0.png","img2/100/Incongruent/L/I_Dist_100_LN_9_LD_15_RN_13_RD_26_0.png","img2/300/Incongruent/R/I_Dist_300_LN_4_LD_20_RN_2_RD_4_1.png","img2/200/Incongruent/L/I_Dist_200_LN_3_LD_4_RN_11_RD_20_0.png","img2/100/Congruent/R/C_Dist_100_LN_3_LD_20_RN_4_RD_16_1.png","img2/100/Incongruent/R/I_Dist_100_LN_13_LD_26_RN_6_RD_10_1.png","img2/100/Congruent/L/C_Dist_100_LN_9_LD_15_RN_8_RD_16_0.png","img2/100/Incongruent/R/I_Dist_100_LN_12_LD_30_RN_2_RD_4_1.png","img2/200/Congruent/R/C_Dist_200_LN_7_LD_15_RN_18_RD_27_1.png","img2/200/Incongruent/R/I_Dist_200_LN_9_LD_15_RN_8_RD_10_1.png","img2/100/Incongruent/L/I_Dist_100_LN_2_LD_4_RN_6_RD_15_0.png","img2/300/Congruent/L/C_Dist_300_LN_18_LD_20_RN_9_RD_15_0.png","img2/100/Congruent/R/C_Dist_100_LN_12_LD_30_RN_13_RD_26_1.png","img2/200/Congruent/L/C_Dist_200_LN_16_LD_20_RN_12_RD_20_0.png","img2/300/Congruent/L/C_Dist_300_LN_20_LD_25_RN_8_RD_16_0.png","img2/300/Incongruent/L/I_Dist_300_LN_1_LD_2_RN_2_RD_10_0.png","img2/300/Congruent/L/C_Dist_300_LN_4_LD_5_RN_2_RD_4_0.png","img2/300/Congruent/L/C_Dist_300_LN_18_LD_20_RN_9_RD_15_0.png","img2/100/Congruent/R/C_Dist_100_LN_1_LD_2_RN_18_RD_30_1.png","img2/300/Congruent/R/C_Dist_300_LN_1_LD_3_RN_19_RD_30_1.png","img2/100/Incongruent/R/I_Dist_100_LN_6_LD_12_RN_3_RD_5_1.png","img2/200/Incongruent/R/I_Dist_200_LN_11_LD_20_RN_3_RD_4_1.png","img2/300/Incongruent/L/I_Dist_300_LN_7_LD_10_RN_8_RD_20_0.png","img2/100/Incongruent/L/I_Dist_100_LN_9_LD_15_RN_13_RD_26_0.png","img2/100/Congruent/R/C_Dist_100_LN_1_LD_2_RN_18_RD_30_1.png","img2/200/Incongruent/L/I_Dist_200_LN_4_LD_5_RN_6_RD_10_0.png","img2/200/Congruent/L/C_Dist_200_LN_15_LD_25_RN_4_RD_10_0.png","img2/300/Incongruent/L/I_Dist_300_LN_8_LD_10_RN_9_RD_18_0.png","img2/100/Incongruent/R/I_Dist_100_LN_12_LD_24_RN_9_RD_15_1.png","img2/200/Congruent/L/C_Dist_200_LN_20_LD_25_RN_9_RD_15_0.png","img2/300/Congruent/L/C_Dist_300_LN_11_LD_22_RN_1_RD_5_0.png","img2/300/Congruent/L/C_Dist_300_LN_11_LD_22_RN_2_RD_10_0.png","img2/100/Incongruent/L/I_Dist_100_LN_2_LD_4_RN_6_RD_15_0.png","img2/300/Incongruent/L/I_Dist_300_LN_1_LD_2_RN_3_RD_15_0.png","img2/300/Congruent/R/C_Dist_300_LN_2_LD_10_RN_12_RD_24_1.png","img2/100/Incongruent/R/I_Dist_100_LN_8_LD_16_RN_6_RD_10_1.png","img2/200/Congruent/L/C_Dist_200_LN_12_LD_20_RN_6_RD_15_0.png","img2/200/Incongruent/R/I_Dist_200_LN_7_LD_15_RN_4_RD_6_1.png","img2/300/Incongruent/L/I_Dist_300_LN_8_LD_10_RN_14_RD_28_0.png","img2/200/Congruent/L/C_Dist_200_LN_9_LD_20_RN_4_RD_16_0.png","img2/100/Incongruent/R/I_Dist_100_LN_9_LD_18_RN_6_RD_10_1.png","img2/300/Congruent/L/C_Dist_300_LN_24_LD_30_RN_2_RD_4_0.png","img2/300/Incongruent/L/I_Dist_300_LN_1_LD_2_RN_3_RD_15_0.png","img2/100/Incongruent/R/I_Dist_100_LN_11_LD_22_RN_9_RD_15_1.png","img2/200/Incongruent/L/I_Dist_200_LN_3_LD_4_RN_11_RD_20_0.png","img2/300/Incongruent/L/I_Dist_300_LN_4_LD_5_RN_8_RD_16_0.png","img2/200/Congruent/R/C_Dist_200_LN_6_LD_20_RN_11_RD_22_1.png","img2/200/Congruent/L/C_Dist_200_LN_8_LD_15_RN_7_RD_21_0.png","img2/200/Incongruent/L/I_Dist_200_LN_7_LD_10_RN_12_RD_24_0.png","img2/100/Incongruent/L/I_Dist_100_LN_3_LD_6_RN_4_RD_10_0.png","img2/100/Congruent/L/C_Dist_100_LN_11_LD_22_RN_4_RD_10_0.png","img2/100/Congruent/L/C_Dist_100_LN_15_LD_25_RN_13_RD_26_0.png","img2/300/Congruent/L/C_Dist_300_LN_9_LD_10_RN_3_RD_5_0.png","img2/200/Congruent/R/C_Dist_200_LN_7_LD_15_RN_18_RD_27_1.png","img2/200/Congruent/R/C_Dist_200_LN_7_LD_15_RN_18_RD_27_1.png","img2/200/Incongruent/L/I_Dist_200_LN_3_LD_4_RN_11_RD_20_0.png","img2/200/Incongruent/R/I_Dist_200_LN_7_LD_15_RN_4_RD_6_1.png","img2/200/Incongruent/R/I_Dist_200_LN_11_LD_20_RN_3_RD_4_1.png","img2/300/Incongruent/L/I_Dist_300_LN_8_LD_10_RN_9_RD_18_0.png","img2/200/Congruent/R/C_Dist_200_LN_3_LD_10_RN_11_RD_22_1.png","img2/300/Congruent/R/C_Dist_300_LN_1_LD_20_RN_7_RD_20_1.png","img2/100/Incongruent/L/I_Dist_100_LN_9_LD_15_RN_13_RD_26_0.png","img2/100/Congruent/L/C_Dist_100_LN_6_LD_20_RN_5_RD_25_0.png","img2/300/Incongruent/R/I_Dist_300_LN_4_LD_20_RN_2_RD_4_1.png","img2/200/Incongruent/L/I_Dist_200_LN_4_LD_5_RN_6_RD_10_0.png","img2/100/Incongruent/R/I_Dist_100_LN_8_LD_16_RN_6_RD_10_1.png","img2/200/Incongruent/R/I_Dist_200_LN_7_LD_15_RN_4_RD_6_1.png","img2/100/Incongruent/L/I_Dist_100_LN_3_LD_5_RN_11_RD_22_0.png","img2/100/Congruent/R/C_Dist_100_LN_1_LD_2_RN_3_RD_5_1.png","img2/100/Congruent/L/C_Dist_100_LN_9_LD_15_RN_8_RD_16_0.png","img2/300/Incongruent/L/I_Dist_300_LN_4_LD_5_RN_8_RD_16_0.png","img2/300/Incongruent/R/I_Dist_300_LN_13_LD_26_RN_12_RD_15_1.png","img2/200/Congruent/R/C_Dist_200_LN_1_LD_2_RN_21_RD_30_1.png","img2/100/Incongruent/R/I_Dist_100_LN_10_LD_25_RN_8_RD_16_1.png","img2/300/Incongruent/R/I_Dist_300_LN_4_LD_20_RN_2_RD_4_1.png","img2/100/Congruent/R/C_Dist_100_LN_1_LD_2_RN_18_RD_30_1.png","img2/100/Congruent/R/C_Dist_100_LN_2_LD_5_RN_11_RD_22_1.png","img2/200/Incongruent/R/I_Dist_200_LN_9_LD_15_RN_8_RD_10_1.png","img2/200/Congruent/L/C_Dist_200_LN_8_LD_15_RN_3_RD_9_0.png","img2/200/Incongruent/L/I_Dist_200_LN_4_LD_5_RN_6_RD_10_0.png","img2/200/Incongruent/R/I_Dist_200_LN_14_LD_30_RN_6_RD_9_1.png","img2/300/Congruent/R/C_Dist_300_LN_1_LD_3_RN_19_RD_30_1.png","img2/300/Incongruent/R/I_Dist_300_LN_4_LD_20_RN_2_RD_4_1.png","img2/200/Congruent/L/C_Dist_200_LN_15_LD_25_RN_4_RD_10_0.png","img2/100/Congruent/L/C_Dist_100_LN_10_LD_25_RN_3_RD_10_0.png","img2/100/Congruent/L/C_Dist_100_LN_15_LD_25_RN_13_RD_26_0.png","img2/300/Congruent/R/C_Dist_300_LN_7_LD_14_RN_20_RD_25_1.png","img2/300/Congruent/R/C_Dist_300_LN_1_LD_20_RN_7_RD_20_1.png","img2/100/Congruent/L/C_Dist_100_LN_9_LD_15_RN_8_RD_16_0.png","img2/100/Congruent/R/C_Dist_100_LN_2_LD_5_RN_11_RD_22_1.png","img2/200/Congruent/L/C_Dist_200_LN_9_LD_20_RN_4_RD_16_0.png","img2/100/Congruent/R/C_Dist_100_LN_2_LD_5_RN_11_RD_22_1.png","img2/300/Congruent/L/C_Dist_300_LN_12_LD_24_RN_2_RD_10_0.png","img2/100/Congruent/L/C_Dist_100_LN_6_LD_20_RN_5_RD_25_0.png","img2/300/Incongruent/L/I_Dist_300_LN_1_LD_2_RN_2_RD_10_0.png","img2/200/Incongruent/L/I_Dist_200_LN_4_LD_5_RN_6_RD_10_0.png","img2/200/Incongruent/R/I_Dist_200_LN_11_LD_20_RN_3_RD_4_1.png","img2/300/Incongruent/R/I_Dist_300_LN_4_LD_20_RN_2_RD_4_1.png","img2/100/Incongruent/L/I_Dist_100_LN_9_LD_10_RN_20_RD_25_0.png","img2/200/Congruent/R/C_Dist_200_LN_6_LD_12_RN_7_RD_10_1.png","img2/200/Congruent/R/C_Dist_200_LN_6_LD_12_RN_7_RD_10_1.png","img2/300/Incongruent/L/I_Dist_300_LN_8_LD_10_RN_14_RD_28_0.png"],"dist100_C":[["C_Dist_100_LN_10_LD_25_RN_3_RD_10_0.png","C_Dist_100_LN_11_LD_22_RN_4_RD_10_0.png","C_Dist_100_LN_11_LD_22_RN_6_RD_15_0.png","C_Dist_100_LN_15_LD_25_RN_13_RD_26_0.png","C_Dist_100_LN_3_LD_6_RN_2_RD_5_0.png","C_Dist_100_LN_6_LD_20_RN_5_RD_25_0.png","C_Dist_100_LN_8_LD_16_RN_2_RD_5_0.png","C_Dist_100_LN_9_LD_15_RN_8_RD_16_0.png"],["C_Dist_100_LN_1_LD_2_RN_18_RD_30_1.png","C_Dist_100_LN_1_LD_2_RN_3_RD_5_1.png","C_Dist_100_LN_12_LD_30_RN_13_RD_26_1.png","C_Dist_100_LN_2_LD_5_RN_11_RD_22_1.png","C_Dist_100_LN_2_LD_5_RN_6_RD_12_1.png","C_Dist_100_LN_3_LD_20_RN_4_RD_16_1.png","C_Dist_100_LN_4_LD_10_RN_15_RD_30_1.png","C_Dist_100_LN_4_LD_8_RN_6_RD_10_1.png","C_Dist_100_LN_6_LD_12_RN_15_RD_25_1.png","C_Dist_100_LN_7_LD_14_RN_15_RD_25_1.png","C_Dist_100_LN_7_LD_14_RN_9_RD_15_1.png"]],"dist100_I":[["I_Dist_100_LN_1_LD_2_RN_8_RD_20_0.png","I_Dist_100_LN_2_LD_4_RN_6_RD_15_0.png","I_Dist_100_LN_2_LD_4_RN_8_RD_20_0.png","I_Dist_100_LN_3_LD_5_RN_11_RD_22_0.png","I_Dist_100_LN_3_LD_5_RN_8_RD_16_0.png","I_Dist_100_LN_3_LD_6_RN_4_RD_10_0.png","I_Dist_100_LN_3_LD_9_RN_7_RD_30_0.png","I_Dist_100_LN_4_LD_8_RN_8_RD_20_0.png","I_Dist_100_LN_6_LD_10_RN_11_RD_22_0.png","I_Dist_100_LN_6_LD_10_RN_13_RD_26_0.png","I_Dist_100_LN_6_LD_10_RN_7_RD_14_0.png","I_Dist_100_LN_9_LD_10_RN_20_RD_25_0.png","I_Dist_100_LN_9_LD_15_RN_13_RD_26_0.png","I_Dist_100_LN_9_LD_15_RN_14_RD_28_0.png"],["I_Dist_100_LN_10_LD_25_RN_8_RD_16_1.png","I_Dist_100_LN_10_LD_25_RN_9_RD_18_1.png","I_Dist_100_LN_11_LD_22_RN_9_RD_15_1.png","I_Dist_100_LN_12_LD_24_RN_9_RD_15_1.png","I_Dist_100_LN_12_LD_30_RN_2_RD_4_1.png","I_Dist_100_LN_13_LD_26_RN_12_RD_20_1.png","I_Dist_100_LN_13_LD_26_RN_6_RD_10_1.png","I_Dist_100_LN_17_LD_30_RN_10_RD_15_1.png","I_Dist_100_LN_6_LD_12_RN_3_RD_5_1.png","I_Dist_100_LN_8_LD_16_RN_6_RD_10_1.png","I_Dist_100_LN_8_LD_20_RN_1_RD_2_1.png","I_Dist_100_LN_9_LD_18_RN_6_RD_10_1.png"]],"dist100_S":[["E_Dist_100_LN_2_LD_12_RN_2_RD_30_0.png","E_Dist_100_LN_6_LD_10_RN_6_RD_12_0.png"],["E_Dist_100_LN_6_LD_12_RN_6_RD_10_1.png"]],"dist200_C":[["C_Dist_200_LN_11_LD_22_RN_3_RD_10_0.png","C_Dist_200_LN_12_LD_15_RN_6_RD_10_0.png","C_Dist_200_LN_12_LD_20_RN_6_RD_15_0.png","C_Dist_200_LN_14_LD_28_RN_6_RD_20_0.png","C_Dist_200_LN_15_LD_25_RN_4_RD_10_0.png","C_Dist_200_LN_16_LD_20_RN_12_RD_20_0.png","C_Dist_200_LN_16_LD_30_RN_9_RD_27_0.png","C_Dist_200_LN_20_LD_25_RN_9_RD_15_0.png","C_Dist_200_LN_21_LD_30_RN_2_RD_4_0.png","C_Dist_200_LN_4_LD_10_RN_3_RD_15_0.png","C_Dist_200_LN_4_LD_8_RN_3_RD_10_0.png","C_Dist_200_LN_6_LD_15_RN_3_RD_15_0.png","C_Dist_200_LN_7_LD_21_RN_2_RD_15_0.png","C_Dist_200_LN_8_LD_15_RN_2_RD_6_0.png","C_Dist_200_LN_8_LD_15_RN_3_RD_9_0.png","C_Dist_200_LN_8_LD_15_RN_7_RD_21_0.png","C_Dist_200_LN_9_LD_20_RN_4_RD_16_0.png"],["C_Dist_200_LN_1_LD_2_RN_21_RD_30_1.png","C_Dist_200_LN_13_LD_26_RN_14_RD_20_1.png","C_Dist_200_LN_3_LD_10_RN_11_RD_22_1.png","C_Dist_200_LN_3_LD_10_RN_14_RD_28_1.png","C_Dist_200_LN_3_LD_10_RN_7_RD_14_1.png","C_Dist_200_LN_3_LD_12_RN_9_RD_20_1.png","C_Dist_200_LN_3_LD_6_RN_14_RD_20_1.png","C_Dist_200_LN_5_LD_10_RN_14_RD_20_1.png","C_Dist_200_LN_6_LD_12_RN_7_RD_10_1.png","C_Dist_200_LN_6_LD_20_RN_11_RD_22_1.png","C_Dist_200_LN_7_LD_15_RN_18_RD_27_1.png","C_Dist_200_LN_9_LD_30_RN_13_RD_26_1.png"]],"dist200_I":[["I_Dist_200_LN_1_LD_2_RN_3_RD_10_0.png","I_Dist_200_LN_1_LD_3_RN_2_RD_15_0.png","I_Dist_200_LN_3_LD_4_RN_11_RD_20_0.png","I_Dist_200_LN_4_LD_5_RN_6_RD_10_0.png","I_Dist_200_LN_4_LD_6_RN_14_RD_30_0.png","I_Dist_200_LN_7_LD_10_RN_12_RD_24_0.png","I_Dist_200_LN_7_LD_10_RN_14_RD_28_0.png","I_Dist_200_LN_7_LD_10_RN_8_RD_16_0.png"],["I_Dist_200_LN_11_LD_20_RN_3_RD_4_1.png","I_Dist_200_LN_14_LD_30_RN_12_RD_18_1.png","I_Dist_200_LN_14_LD_30_RN_6_RD_9_1.png","I_Dist_200_LN_3_LD_10_RN_1_RD_2_1.png","I_Dist_200_LN_4_LD_30_RN_1_RD_3_1.png","I_Dist_200_LN_6_LD_20_RN_3_RD_6_1.png","I_Dist_200_LN_7_LD_15_RN_4_RD_6_1.png","I_Dist_200_LN_7_LD_15_RN_6_RD_9_1.png","I_Dist_200_LN_9_LD_15_RN_8_RD_10_1.png"]],"dist200_S":[["E_Dist_200_LN_3_LD_6_RN_3_RD_10_0.png"],["E_Dist_200_LN_3_LD_10_RN_3_RD_6_1.png"]],"dist300_C":[["C_Dist_300_LN_11_LD_22_RN_1_RD_5_0.png","C_Dist_300_LN_11_LD_22_RN_2_RD_10_0.png","C_Dist_300_LN_11_LD_22_RN_4_RD_20_0.png","C_Dist_300_LN_12_LD_24_RN_2_RD_10_0.png","C_Dist_300_LN_18_LD_20_RN_9_RD_15_0.png","C_Dist_300_LN_20_LD_25_RN_13_RD_26_0.png","C_Dist_300_LN_20_LD_25_RN_14_RD_28_0.png","C_Dist_300_LN_20_LD_25_RN_5_RD_10_0.png","C_Dist_300_LN_20_LD_25_RN_8_RD_16_0.png","C_Dist_300_LN_20_LD_25_RN_9_RD_18_0.png","C_Dist_300_LN_24_LD_30_RN_2_RD_4_0.png","C_Dist_300_LN_24_LD_30_RN_8_RD_16_0.png","C_Dist_300_LN_3_LD_6_RN_2_RD_10_0.png","C_Dist_300_LN_4_LD_10_RN_1_RD_10_0.png","C_Dist_300_LN_4_LD_5_RN_2_RD_4_0.png","C_Dist_300_LN_8_LD_16_RN_1_RD_5_0.png","C_Dist_300_LN_9_LD_10_RN_3_RD_5_0.png"],["C_Dist_300_LN_1_LD_20_RN_7_RD_20_1.png","C_Dist_300_LN_1_LD_3_RN_19_RD_30_1.png","C_Dist_300_LN_1_LD_30_RN_8_RD_24_1.png","C_Dist_300_LN_1_LD_5_RN_11_RD_22_1.png","C_Dist_300_LN_1_LD_5_RN_3_RD_6_1.png","C_Dist_300_LN_1_LD_5_RN_6_RD_12_1.png","C_Dist_300_LN_2_LD_10_RN_12_RD_24_1.png","C_Dist_300_LN_2_LD_20_RN_10_RD_25_1.png","C_Dist_300_LN_3_LD_12_RN_11_RD_20_1.png","C_Dist_300_LN_3_LD_6_RN_4_RD_5_1.png","C_Dist_300_LN_4_LD_20_RN_13_RD_26_1.png","C_Dist_300_LN_5_LD_25_RN_6_RD_12_1.png","C_Dist_300_LN_5_LD_25_RN_7_RD_14_1.png","C_Dist_300_LN_7_LD_14_RN_20_RD_25_1.png","C_Dist_300_LN_8_LD_15_RN_10_RD_12_1.png"]],"dist300_I":[["I_Dist_300_LN_1_LD_2_RN_2_RD_10_0.png","I_Dist_300_LN_1_LD_2_RN_3_RD_15_0.png","I_Dist_300_LN_2_LD_4_RN_6_RD_30_0.png","I_Dist_300_LN_3_LD_6_RN_4_RD_20_0.png","I_Dist_300_LN_4_LD_5_RN_6_RD_12_0.png","I_Dist_300_LN_4_LD_5_RN_8_RD_16_0.png","I_Dist_300_LN_7_LD_10_RN_8_RD_20_0.png","I_Dist_300_LN_8_LD_10_RN_14_RD_28_0.png","I_Dist_300_LN_8_LD_10_RN_9_RD_18_0.png"],["I_Dist_300_LN_13_LD_26_RN_12_RD_15_1.png","I_Dist_300_LN_4_LD_20_RN_2_RD_4_1.png"]],"dist300_S":[["E_Dist_300_LN_9_LD_12_RN_9_RD_20_0.png"],["E_Dist_300_LN_18_LD_30_RN_18_RD_20_1.png","E_Dist_300_LN_3_LD_10_RN_3_RD_5_1.png","E_Dist_300_LN_9_LD_20_RN_9_RD_12_1.png"]],"dist500_C":[["C_Dist_500_LN_10_LD_13_RN_7_RD_26_0.png","C_Dist_500_LN_10_LD_15_RN_4_RD_24_0.png","C_Dist_500_LN_12_LD_16_RN_3_RD_12_0.png","C_Dist_500_LN_12_LD_18_RN_4_RD_24_0.png","C_Dist_500_LN_15_LD_18_RN_5_RD_15_0.png","C_Dist_500_LN_15_LD_20_RN_1_RD_4_0.png","C_Dist_500_LN_18_LD_27_RN_1_RD_6_0.png","C_Dist_500_LN_20_LD_24_RN_1_RD_3_0.png","C_Dist_500_LN_20_LD_24_RN_3_RD_9_0.png","C_Dist_500_LN_20_LD_24_RN_7_RD_21_0.png","C_Dist_500_LN_20_LD_28_RN_3_RD_14_0.png","C_Dist_500_LN_21_LD_28_RN_6_RD_24_0.png","C_Dist_500_LN_22_LD_28_RN_2_RD_7_0.png","C_Dist_500_LN_25_LD_30_RN_9_RD_27_0.png","C_Dist_500_LN_4_LD_6_RN_1_RD_6_0.png","C_Dist_500_LN_5_LD_6_RN_2_RD_6_0.png","C_Dist_500_LN_6_LD_9_RN_1_RD_6_0.png","C_Dist_500_LN_7_LD_10_RN_1_RD_5_0.png","C_Dist_500_LN_8_LD_12_RN_1_RD_6_0.png","C_Dist_500_LN_8_LD_12_RN_4_RD_24_0.png"],["C_Dist_500_LN_1_LD_4_RN_12_RD_16_1.png","C_Dist_500_LN_1_LD_4_RN_9_RD_12_1.png","C_Dist_500_LN_1_LD_9_RN_11_RD_18_1.png","C_Dist_500_LN_10_LD_24_RN_22_RD_24_1.png","C_Dist_500_LN_2_LD_12_RN_10_RD_15_1.png","C_Dist_500_LN_2_LD_12_RN_12_RD_18_1.png","C_Dist_500_LN_2_LD_12_RN_4_RD_6_1.png","C_Dist_500_LN_2_LD_24_RN_7_RD_12_1.png","C_Dist_500_LN_2_LD_5_RN_18_RD_20_1.png","C_Dist_500_LN_2_LD_5_RN_9_RD_10_1.png","C_Dist_500_LN_2_LD_8_RN_12_RD_16_1.png","C_Dist_500_LN_2_LD_8_RN_21_RD_28_1.png","C_Dist_500_LN_3_LD_10_RN_4_RD_5_1.png","C_Dist_500_LN_3_LD_12_RN_15_RD_20_1.png","C_Dist_500_LN_3_LD_30_RN_6_RD_10_1.png","C_Dist_500_LN_3_LD_8_RN_14_RD_16_1.png","C_Dist_500_LN_4_LD_16_RN_15_RD_20_1.png","C_Dist_500_LN_4_LD_24_RN_12_RD_18_1.png","C_Dist_500_LN_5_LD_14_RN_6_RD_7_1.png","C_Dist_500_LN_7_LD_21_RN_20_RD_24_1.png","C_Dist_500_LN_7_LD_28_RN_12_RD_16_1.png","C_Dist_500_LN_7_LD_28_RN_9_RD_12_1.png","C_Dist_500_LN_9_LD_27_RN_20_RD_24_1.png"]],"dist500_I":[["I_Dist_500_LN_2_LD_3_RN_4_RD_24_0.png","I_Dist_500_LN_5_LD_6_RN_6_RD_18_0.png","I_Dist_500_LN_7_LD_8_RN_9_RD_24_0.png"],["I_Dist_500_LN_7_LD_21_RN_5_RD_6_1.png"]],"dist500_S":[["E_Dist_500_LN_6_LD_8_RN_6_RD_24_0.png"],["E_Dist_500_LN_2_LD_12_RN_2_RD_3_1.png","E_Dist_500_LN_6_LD_24_RN_6_RD_8_1.png"]]}},{"start_time":1551899884235,"click_time":1551899886670,"finger_time":1551899886329,"fix_duration":306.52555757191067,"trial":1,"RT":2094,"MT":341,"sideResp":2,"stimulus":[],"xmouse":[807,807,807,807,807,807,807,807,807,807,807,807,807,807,807,807,807,807,807,807,807,807,807,807,807,807,807,807,807,807,807,807,807,807,807,807,807,807,807,807,807,807,807,807,807,807,807,807,807,807,807,807,807,807,807,807,807,807,807,807,807,807,807,807,807,807,807,807,807,807,807,807,807,807,807,807,807,807,807,807,807,807,807,807,807,807,807,807,807,807,807,807,807,807,807,807,807,807,807,807,807,807,807,811,848,1014,1156,1248,1268,1272,1271,1256,1249,1244,1242,1241,1236,1228,1217,1205,1190,1144],"ymouse":[604,604,604,604,604,604,604,604,604,604,604,604,604,604,604,604,604,604,604,604,604,604,604,604,604,604,604,604,604,604,604,604,604,604,604,604,604,604,604,604,604,604,604,604,604,604,604,604,604,604,604,604,604,604,604,604,604,604,604,604,604,604,604,604,604,604,604,604,604,604,604,604,604,604,604,604,604,604,604,604,604,604,604,604,604,604,604,604,604,604,604,604,604,604,604,604,604,604,604,604,604,604,604,598,564,412,265,127,72,42,18,0,0,0,0,0,0,0,0,6,17,48],"timestamp_mouse":[14,35,53,73,95,113,134,154,174,193,213,234,254,273,293,313,333,354,374,394,413,434,455,474,494,514,533,553,574,593,613,634,653,674,694,713,735,753,773,794,814,835,853,874,893,914,933,955,973,994,1013,1034,1053,1074,1095,1114,1134,1155,1174,1193,1214,1234,1255,1273,1293,1314,1333,1355,1374,1393,1413,1435,1454,1474,1494,1515,1534,1554,1574,1593,1613,1634,1654,1674,1695,1713,1734,1754,1774,1794,1814,1834,1855,1873,1894,1914,1934,1954,1974,1993,2013,2035,2054,2074,2094,2113,2135,2154,2175,2194,2214,2233,2253,2274,2293,2313,2333,2353,2374,2395,2414,2434],"xSR":741.5,"ySR":573.95,"xT1":424.9,"yT1":0,"xT2":1058.1,"yT2":0,"toosoon":0,"cond_shown":"Incongruent","ratio_trial":100,"L_num":3,"L_den":9,"R_num":7,"R_den":30,"correct_side":1,"subjID":"mateochaurospina39","gender":"0","school":"6","age":"14"},{"start_time":1551899889186,"click_time":1551899892349,"finger_time":1551899892269,"fix_duration":1155.177410638822,"trial":2,"RT":3083,"MT":80,"sideResp":1,"stimulus":[],"xmouse":[789,789,789,789,789,789,789,789,789,789,789,789,789,789,789,789,789,789,789,789,789,789,789,789,789,789,789,789,789,789,789,789,789,789,789,789,789,789,789,789,789,789,789,789,789,789,789,789,789,789,789,789,789,789,789,789,789,789,789,789,789,789,789,789,789,789,789,789,789,789,789,789,789,789,789,789,789,789,789,789,789,789,789,789,789,789,789,789,789,789,789,789,789,789,789,789,789,789,789,789,789,789,789,789,789,789,789,789,789,789,789,789,789,789,789,789,789,789,789,789,789,789,789,789,789,789,789,789,789,789,789,789,789,789,789,789,789,789,789,789,789,789,789,789,789,789,789,789,789,789,789,789,789,774,644,584,536,502,474],"ymouse":[629,629,629,629,629,629,629,629,629,629,629,629,629,629,629,629,629,629,629,629,629,629,629,629,629,629,629,629,629,629,629,629,629,629,629,629,629,629,629,629,629,629,629,629,629,629,629,629,629,629,629,629,629,629,629,629,629,629,629,629,629,629,629,629,629,629,629,629,629,629,629,629,629,629,629,629,629,629,629,629,629,629,629,629,629,629,629,629,629,629,629,629,629,629,629,629,629,629,629,629,629,629,629,629,629,629,629,629,629,629,629,629,629,629,629,629,629,629,629,629,629,629,629,629,629,629,629,629,629,629,629,629,629,629,629,629,629,629,629,629,629,629,629,629,629,629,629,629,629,629,629,629,621,589,394,300,215,139,75],"timestamp_mouse":[11,32,42,64,82,102,122,142,163,182,203,223,243,264,282,302,323,343,364,384,404,423,442,464,484,502,522,543,564,583,602,622,644,664,682,702,723,742,763,783,802,822,843,863,882,902,924,943,964,982,1002,1024,1042,1062,1082,1103,1122,1143,1162,1183,1203,1223,1243,1262,1283,1304,1323,1344,1363,1383,1404,1423,1447,1463,1482,1503,1524,1542,1563,1584,1603,1622,1642,1663,1682,1703,1723,1743,1762,1783,1802,1823,1844,1863,1883,1903,1922,1942,1962,1982,2004,2024,2043,2062,2082,2102,2123,2144,2163,2183,2204,2222,2243,2262,2283,2302,2322,2343,2363,2382,2402,2422,2442,2462,2483,2503,2523,2543,2562,2583,2602,2624,2643,2662,2683,2702,2722,2744,2764,2783,2803,2823,2843,2862,2883,2904,2923,2943,2962,2982,3004,3024,3044,3062,3083,3103,3122,3143,3163],"xSR":741.5,"ySR":573.95,"xT1":424.9,"yT1":0,"xT2":1058.1,"yT2":0,"toosoon":0,"cond_shown":"Incongruent","ratio_trial":200,"L_num":14,"L_den":30,"R_num":12,"R_den":18,"correct_side":2,"subjID":"mateochaurospina39","gender":"0","school":"6","age":"14"},{"start_time":1551899895889,"click_time":1551899897568,"finger_time":1551899897308,"fix_duration":278.9520066441741,"trial":3,"RT":1419,"MT":260,"sideResp":1,"stimulus":[],"xmouse":[822,822,822,822,822,822,822,822,822,822,822,822,822,822,822,822,822,822,822,822,822,822,822,822,822,822,822,822,822,822,822,822,822,822,822,822,822,822,822,822,822,822,822,822,822,822,822,822,822,822,822,822,822,822,822,822,822,822,822,822,822,822,822,822,822,822,822,822,822,821,784,712,669,617,573,568,568,568,569,570,570,570,569,557,432],"ymouse":[592,592,592,592,592,592,592,592,592,592,592,592,592,592,592,592,592,592,592,592,592,592,592,592,592,592,592,592,592,592,592,592,592,592,592,592,592,592,592,592,592,592,592,592,592,592,592,592,592,592,592,592,592,592,592,592,592,592,592,592,592,592,592,592,592,592,592,592,592,592,582,527,432,266,84,28,15,0,0,0,0,0,5,14,68],"timestamp_mouse":[1,30,39,59,79,99,120,141,159,179,199,219,239,259,280,299,320,340,360,381,399,419,440,459,479,499,519,541,560,579,599,619,641,661,679,699,719,740,761,779,800,821,839,859,880,899,921,941,959,979,1000,1019,1039,1061,1079,1101,1120,1140,1159,1179,1201,1220,1239,1259,1279,1300,1320,1340,1359,1379,1400,1419,1439,1459,1479,1500,1520,1540,1559,1580,1599,1620,1640,1659,1679],"xSR":741.5,"ySR":573.95,"xT1":424.9,"yT1":0,"xT2":1058.1,"yT2":0,"toosoon":0,"cond_shown":"Incongruent","ratio_trial":300,"L_num":4,"L_den":20,"R_num":2,"R_den":4,"correct_side":2,"subjID":"mateochaurospina39","gender":"0","school":"6","age":"14"},{"start_time":1551899903771,"click_time":1551899905708,"finger_time":1551899905268,"fix_duration":739.1558689089527,"trial":4,"RT":1497,"MT":440,"sideResp":2,"stimulus":[],"xmouse":[795,795,795,795,795,795,795,795,795,795,795,795,795,795,795,795,795,795,795,795,795,795,795,795,795,795,795,795,795,795,795,795,795,795,795,795,795,795,795,795,795,795,795,795,795,795,795,795,795,795,795,795,795,795,795,795,795,795,795,795,795,795,795,795,795,795,795,795,795,795,795,795,804,816,851,869,894,922,949,1005,1016,1021,1021,1021,1022,1022,1022,1022,1024,1030,1035,1040,1045,1049,1049,1056,1062],"ymouse":[637,637,637,637,637,637,637,637,637,637,637,637,637,637,637,637,637,637,637,637,637,637,637,637,637,637,637,637,637,637,637,637,637,637,637,637,637,637,637,637,637,637,637,637,637,637,637,637,637,637,637,637,637,637,637,637,637,637,637,637,637,637,637,637,637,637,637,637,637,637,637,631,612,588,534,508,470,429,388,306,282,264,251,235,208,193,173,149,96,66,53,43,35,31,31,29,29],"timestamp_mouse":[30,37,57,77,98,118,138,158,178,197,218,238,257,278,298,317,338,357,377,398,417,437,458,479,498,517,539,557,578,597,617,639,658,677,698,717,737,758,778,798,817,838,858,877,898,918,938,957,979,998,1017,1037,1058,1077,1097,1117,1139,1158,1177,1198,1218,1238,1258,1278,1298,1317,1337,1358,1377,1399,1419,1439,1458,1477,1497,1517,1537,1558,1579,1599,1618,1639,1658,1677,1697,1718,1737,1758,1778,1797,1817,1838,1857,1878,1897,1920,1937],"xSR":741.5,"ySR":573.95,"xT1":424.9,"yT1":0,"xT2":1058.1,"yT2":0,"toosoon":0,"cond_shown":"Congruent","ratio_trial":100,"L_num":2,"L_den":5,"R_num":11,"R_den":22,"correct_side":2,"subjID":"mateochaurospina39","gender":"0","school":"6","age":"14"},{"start_time":1551899908903,"click_time":1551899913968,"finger_time":1551899911730,"fix_duration":1192.5800199293808,"trial":5,"RT":2827,"MT":2238,"sideResp":1,"stimulus":[],"xmouse":[800,800,800,800,800,800,800,800,800,800,800,800,800,800,800,800,800,800,800,800,800,800,800,800,800,800,800,800,800,800,800,800,800,800,800,800,800,800,800,800,800,800,800,800,800,800,800,800,800,800,800,800,800,800,800,800,800,800,800,800,800,800,800,800,800,800,800,800,800,800,800,800,800,800,800,800,800,800,800,800,800,800,800,800,800,800,800,800,800,800,800,800,800,800,800,800,800,800,800,800,800,800,800,800,800,800,800,800,800,800,800,800,800,800,800,800,800,800,800,800,800,800,800,800,800,800,800,800,800,800,800,800,800,800,800,800,800,800,775,768,764,759,750,724,709,694,683,676,660,650,636,611,470,339,301,300,300,302,312,318,326,334,355,364,366,367,367,381,391,397,397,397,397,397,397,397,397,397,397,397,397,397,397,397,397,397,397,397,397,397,397,397,397,397,397,399,402,403,405,406,407,409,411,415,416,417,419,420,421,422,424,425,428,430,433,434,434,436,436,436,437,438,438,439,439,439,439,439,439,439,439,439,439,439,439,439,439,439,439,439,439,439,439,439,439,439,439,439,439,439,439,439,439,440],"ymouse":[617,617,617,617,617,617,617,617,617,617,617,617,617,617,617,617,617,617,617,617,617,617,617,617,617,617,617,617,617,617,617,617,617,617,617,617,617,617,617,617,617,617,617,617,617,617,617,617,617,617,617,617,617,617,617,617,617,617,617,617,617,617,617,617,617,617,617,617,617,617,617,617,617,617,617,617,617,617,617,617,617,617,617,617,617,617,617,617,617,617,617,617,617,617,617,617,617,617,617,617,617,617,617,617,617,617,617,617,617,617,617,617,617,617,617,617,617,617,617,617,617,617,617,617,617,617,617,617,617,617,617,617,617,617,617,617,616,614,598,593,585,572,551,509,497,488,476,469,448,434,420,402,342,296,285,284,283,280,264,253,241,232,214,210,209,209,209,206,203,202,202,202,202,202,202,202,202,202,202,202,202,202,202,202,202,202,202,202,202,202,202,202,202,202,202,199,193,190,186,183,179,174,169,161,160,158,155,153,151,149,147,145,141,138,134,131,130,127,127,125,123,121,119,117,117,117,117,115,114,114,114,114,114,112,111,110,109,109,107,107,106,104,104,104,104,104,104,104,104,103,102,101,100,99],"timestamp_mouse":[10,33,45,66,85,105,125,145,166,186,206,227,245,266,285,307,326,345,366,385,407,427,446,465,487,505,526,547,566,586,607,625,646,666,685,705,726,747,766,785,805,826,846,866,885,905,925,946,966,986,1006,1026,1046,1066,1087,1106,1125,1145,1167,1186,1207,1227,1245,1265,1286,1305,1326,1346,1367,1386,1405,1426,1446,1466,1485,1505,1526,1545,1566,1586,1607,1627,1645,1666,1686,1706,1726,1747,1767,1786,1806,1826,1846,1866,1885,1906,1925,1946,1966,1987,2005,2026,2045,2067,2086,2105,2126,2147,2166,2185,2207,2225,2245,2266,2286,2306,2326,2346,2366,2385,2407,2425,2446,2466,2487,2506,2526,2545,2567,2586,2606,2625,2646,2665,2686,2707,2726,2745,2766,2786,2806,2827,2845,2865,2885,2906,2925,2945,2966,2985,3005,3026,3046,3065,3085,3107,3125,3145,3166,3185,3206,3225,3246,3265,3286,3305,3325,3346,3365,3387,3405,3425,3446,3466,3486,3506,3527,3547,3565,3585,3605,3626,3645,3666,3686,3705,3726,3745,3766,3785,3805,3826,3845,3866,3885,3905,3926,3945,3966,3986,4005,4026,4045,4065,4085,4106,4126,4146,4165,4185,4206,4225,4247,4265,4285,4306,4325,4347,4365,4385,4405,4427,4445,4466,4485,4506,4526,4545,4566,4585,4605,4625,4645,4665,4686,4707,4725,4745,4765,4786,4806,4827,4847,4866,4885,4905,4925,4946,4966,4985,5006,5026,5045,5065],"xSR":741.5,"ySR":573.95,"xT1":424.9,"yT1":0,"xT2":1058.1,"yT2":0,"toosoon":0,"cond_shown":"Incongruent","ratio_trial":300,"L_num":13,"L_den":26,"R_num":12,"R_den":15,"correct_side":2,"subjID":"mateochaurospina39","gender":"0","school":"6","age":"14"},{"start_time":1551899915954,"click_time":1551899918129,"finger_time":1551899917568,"fix_duration":464.59060550670915,"trial":6,"RT":1614,"MT":561,"sideResp":1,"stimulus":[],"xmouse":[808,808,808,808,808,808,808,808,808,808,808,808,808,808,808,808,808,808,808,808,808,808,808,808,808,808,808,808,808,808,808,808,808,808,808,808,808,808,808,808,808,808,808,808,808,808,808,808,808,808,808,808,808,808,808,808,808,808,808,808,808,808,808,808,808,808,808,808,808,808,808,808,808,808,808,808,808,808,800,783,679,623,612,611,637,718,791,855,896,934,1010,1022,1024,1025,1025,1025,1025,1025,1025,1025,1025,1025,1011,976,807,704,607,526,470],"ymouse":[611,611,611,611,611,611,611,611,611,611,611,611,611,611,611,611,611,611,611,611,611,611,611,611,611,611,611,611,611,611,611,611,611,611,611,611,611,611,611,611,611,611,611,611,611,611,611,611,611,611,611,611,611,611,611,611,611,611,611,611,611,611,611,611,611,611,611,611,611,611,611,611,611,611,611,611,611,611,610,605,575,556,553,552,522,421,310,218,165,140,83,74,70,68,67,66,65,65,65,65,65,64,64,64,60,49,35,17,3],"timestamp_mouse":[14,35,55,75,94,114,134,155,175,194,215,234,254,274,295,315,334,355,374,394,414,434,456,474,496,514,534,556,574,595,615,634,654,674,694,715,735,755,775,796,816,835,854,874,896,915,934,955,975,995,1014,1035,1055,1076,1095,1115,1135,1154,1176,1195,1214,1234,1256,1275,1294,1315,1335,1354,1375,1395,1415,1435,1456,1475,1495,1516,1536,1555,1574,1594,1614,1634,1654,1676,1695,1714,1734,1754,1775,1794,1814,1834,1855,1874,1894,1914,1934,1955,1974,1996,2014,2034,2055,2074,2095,2114,2134,2154,2175],"xSR":741.5,"ySR":573.95,"xT1":424.9,"yT1":0,"xT2":1058.1,"yT2":0,"toosoon":0,"cond_shown":"Congruent","ratio_trial":100,"L_num":11,"L_den":22,"R_num":6,"R_den":15,"correct_side":1,"subjID":"mateochaurospina39","gender":"0","school":"6","age":"14"},{"start_time":1551899921162,"click_time":1551899923269,"finger_time":1551899922929,"fix_duration":491.45101826830285,"trial":7,"RT":1767,"MT":340,"sideResp":1,"stimulus":[],"xmouse":[754,754,754,754,754,754,754,754,754,754,754,754,754,754,754,754,754,754,754,754,754,754,754,754,754,754,754,754,754,754,754,754,754,754,754,754,754,754,754,754,754,754,754,754,754,754,754,754,754,754,754,754,754,754,754,754,754,754,754,754,754,754,754,754,754,754,754,754,754,754,754,754,754,754,754,754,754,754,754,754,754,754,754,754,754,754,754,752,740,689,479,427,402,391,386,383,383,383,384,387,407,419,419,420,420,430],"ymouse":[641,641,641,641,641,641,641,641,641,641,641,641,641,641,641,641,641,641,641,641,641,641,641,641,641,641,641,641,641,641,641,641,641,641,641,641,641,641,641,641,641,641,641,641,641,641,641,641,641,641,641,641,641,641,641,641,641,641,641,641,641,641,641,641,641,641,641,641,641,641,641,641,641,641,641,641,641,641,641,641,641,641,641,641,641,641,641,632,604,516,309,242,204,180,165,150,143,135,125,115,88,81,81,81,81,72],"timestamp_mouse":[10,39,46,66,86,107,126,148,167,187,207,227,247,268,286,306,328,346,366,386,406,426,448,466,487,506,526,548,566,586,608,626,646,666,686,707,726,746,766,787,808,827,848,866,887,907,926,948,966,986,1007,1027,1046,1066,1088,1107,1127,1147,1166,1187,1206,1227,1246,1266,1287,1308,1327,1347,1366,1387,1408,1427,1447,1467,1487,1506,1527,1546,1567,1587,1608,1626,1646,1666,1686,1706,1727,1747,1767,1787,1807,1827,1847,1866,1887,1907,1926,1948,1967,1986,2006,2027,2046,2066,2088,2107],"xSR":741.5,"ySR":573.95,"xT1":424.9,"yT1":0,"xT2":1058.1,"yT2":0,"toosoon":0,"cond_shown":"Incongruent","ratio_trial":300,"L_num":13,"L_den":26,"R_num":12,"R_den":15,"correct_side":2,"subjID":"mateochaurospina39","gender":"0","school":"6","age":"14"},{"start_time":1551899925933,"click_time":1551899927370,"finger_time":1551899926969,"fix_duration":1482.0826594378073,"trial":8,"RT":1036,"MT":401,"sideResp":1,"stimulus":[],"xmouse":[787,787,787,787,787,787,787,787,787,787,787,787,787,787,787,787,787,787,787,787,787,787,787,787,787,787,787,787,787,787,787,787,787,787,787,787,787,787,787,787,787,787,787,787,787,787,787,787,787,787,787,640,599,577,560,541,507,490,475,454,420,386,388,401,424,456,463,480,492,500,506,515],"ymouse":[604,604,604,604,604,604,604,604,604,604,604,604,604,604,604,604,604,604,604,604,604,604,604,604,604,604,604,604,604,604,604,604,604,604,604,604,604,604,604,604,604,604,604,604,604,604,604,604,604,604,604,503,441,392,354,326,290,277,268,259,251,238,231,216,200,180,173,158,143,126,109,86],"timestamp_mouse":[20,35,55,76,95,115,135,155,177,196,216,237,255,275,296,315,336,355,376,395,416,436,455,475,496,516,536,555,577,596,615,635,657,676,695,715,737,756,775,795,815,836,857,876,896,915,936,955,976,995,1016,1036,1056,1075,1095,1115,1137,1156,1175,1196,1216,1235,1256,1275,1296,1316,1335,1357,1376,1396,1417,1437],"xSR":741.5,"ySR":573.95,"xT1":424.9,"yT1":0,"xT2":1058.1,"yT2":0,"toosoon":0,"cond_shown":"Congruent","ratio_trial":300,"L_num":11,"L_den":22,"R_num":2,"R_den":10,"correct_side":1,"subjID":"mateochaurospina39","gender":"0","school":"6","age":"14"},{"start_time":1551899932617,"click_time":1551899934149,"finger_time":1551899934009,"fix_duration":1045.7666774145468,"trial":9,"RT":1392,"MT":140,"sideResp":1,"stimulus":[],"xmouse":[806,806,806,806,806,806,806,806,806,806,806,806,806,806,806,806,806,806,806,806,806,806,806,806,806,806,806,806,806,806,806,806,806,806,806,806,806,806,806,806,806,806,806,806,806,806,806,806,806,806,806,806,806,806,806,806,806,806,806,806,806,806,806,806,806,806,806,806,805,791,779,765,719,673,613,564,489],"ymouse":[637,637,637,637,637,637,637,637,637,637,637,637,637,637,637,637,637,637,637,637,637,637,637,637,637,637,637,637,637,637,637,637,637,637,637,637,637,637,637,637,637,637,637,637,637,637,637,637,637,637,637,637,637,637,637,637,637,637,637,637,637,637,637,637,637,637,637,635,574,479,395,343,275,226,169,113,13],"timestamp_mouse":[13,37,52,71,93,112,131,153,171,193,212,231,252,271,293,311,332,353,372,392,413,432,451,473,491,511,533,552,571,592,612,633,651,672,693,712,731,752,773,793,813,832,852,872,892,913,932,952,971,992,1011,1032,1052,1072,1093,1111,1131,1151,1173,1193,1212,1232,1252,1272,1291,1311,1331,1351,1372,1392,1411,1431,1452,1472,1493,1512,1532],"xSR":741.5,"ySR":573.95,"xT1":424.9,"yT1":0,"xT2":1058.1,"yT2":0,"toosoon":0,"cond_shown":"Incongruent","ratio_trial":100,"L_num":8,"L_den":20,"R_num":1,"R_den":2,"correct_side":2,"subjID":"mateochaurospina39","gender":"0","school":"6","age":"14"},{"start_time":1551899938376,"click_time":1551899941788,"finger_time":1551899941450,"fix_duration":1145.199037811399,"trial":10,"RT":3074,"MT":338,"sideResp":2,"stimulus":[],"xmouse":[799,799,799,799,799,799,799,799,799,799,799,799,799,799,799,799,799,799,799,799,799,799,799,799,799,799,799,799,799,799,799,799,799,799,799,799,799,799,799,799,799,799,799,799,799,799,799,799,799,799,799,799,799,799,799,799,799,799,799,799,799,799,799,799,799,799,799,799,799,799,799,799,799,799,799,799,799,799,799,799,799,799,799,799,799,799,799,799,799,799,799,799,799,799,799,799,799,799,799,799,799,799,799,799,799,799,799,799,799,799,799,799,799,799,799,799,799,799,799,799,799,799,799,799,799,799,799,799,799,799,799,799,799,799,799,799,799,799,799,799,799,799,799,799,799,799,799,799,799,799,799,799,804,930,1049,1156,1237,1279,1306,1303,1296,1286,1275,1262,1236,1222,1212,1206,1200,1170,1158],"ymouse":[626,626,626,626,626,626,626,626,626,626,626,626,626,626,626,626,626,626,626,626,626,626,626,626,626,626,626,626,626,626,626,626,626,626,626,626,626,626,626,626,626,626,626,626,626,626,626,626,626,626,626,626,626,626,626,626,626,626,626,626,626,626,626,626,626,626,626,626,626,626,626,626,626,626,626,626,626,626,626,626,626,626,626,626,626,626,626,626,626,626,626,626,626,626,626,626,626,626,626,626,626,626,626,626,626,626,626,626,626,626,626,626,626,626,626,626,626,626,626,626,626,626,626,626,626,626,626,626,626,626,626,626,626,626,626,626,626,626,626,626,626,626,626,626,626,626,626,626,626,626,626,626,619,514,413,328,252,202,110,69,52,40,24,5,0,0,0,0,5,65,81],"timestamp_mouse":[14,37,54,72,92,113,133,153,174,192,214,232,254,274,294,312,332,354,372,394,412,432,453,474,493,513,533,552,574,593,613,632,654,672,692,713,732,752,772,794,812,832,852,872,894,913,932,952,974,992,1013,1032,1053,1073,1092,1112,1133,1154,1173,1194,1212,1232,1254,1272,1292,1312,1334,1354,1372,1392,1412,1432,1452,1472,1494,1512,1533,1552,1573,1594,1614,1633,1653,1672,1693,1713,1732,1753,1773,1793,1813,1832,1852,1874,1893,1912,1933,1954,1973,1992,2012,2033,2053,2072,2094,2112,2133,2154,2172,2193,2214,2232,2252,2274,2292,2314,2332,2354,2373,2393,2414,2433,2453,2474,2492,2512,2534,2553,2573,2594,2613,2634,2652,2672,2692,2713,2733,2752,2772,2793,2813,2833,2853,2873,2892,2914,2933,2953,2973,2992,3012,3032,3053,3074,3092,3112,3133,3153,3174,3192,3213,3232,3254,3274,3294,3313,3333,3352,3372,3392,3412],"xSR":741.5,"ySR":573.95,"xT1":424.9,"yT1":0,"xT2":1058.1,"yT2":0,"toosoon":0,"cond_shown":"Congruent","ratio_trial":200,"L_num":6,"L_den":12,"R_num":7,"R_den":10,"correct_side":2,"subjID":"mateochaurospina39","gender":"0","school":"6","age":"14"},{"start_time":1551899982173,"click_time":1551899985309,"finger_time":1551899984428,"fix_duration":904.7266100841318,"trial":11,"RT":2255,"MT":881,"sideResp":1,"stimulus":[],"xmouse":[801,801,801,801,801,801,801,801,801,801,801,801,801,801,801,801,801,801,801,801,801,801,801,801,801,801,801,801,801,801,801,801,801,801,801,801,801,801,801,801,801,801,801,801,801,801,801,801,801,801,801,801,801,801,801,801,801,801,801,801,801,801,801,801,801,801,801,801,801,801,801,801,801,801,801,801,801,801,801,801,801,801,801,801,801,801,801,801,801,801,801,801,801,801,801,801,801,801,801,801,801,801,801,801,801,801,801,801,801,801,801,760,694,531,300,292,292,292,292,292,292,292,292,294,297,302,310,321,330,344,344,344,344,344,344,344,344,344,346,387,421,464,494,514,534,545,548,548,548,548,548,548,548,547,538,527,513],"ymouse":[624,624,624,624,624,624,624,624,624,624,624,624,624,624,624,624,624,624,624,624,624,624,624,624,624,624,624,624,624,624,624,624,624,624,624,624,624,624,624,624,624,624,624,624,624,624,624,624,624,624,624,624,624,624,624,624,624,624,624,624,624,624,624,624,624,624,624,624,624,624,624,624,624,624,624,624,624,624,624,624,624,624,624,624,624,624,624,624,624,624,624,624,624,624,624,624,624,624,624,624,624,624,624,624,624,624,624,624,624,624,624,606,572,480,286,277,277,277,277,277,277,277,277,277,281,285,294,301,306,313,313,313,313,313,313,313,313,313,313,316,308,284,250,190,56,0,0,0,0,0,0,0,0,0,12,29,56],"timestamp_mouse":[15,45,57,76,97,116,135,156,176,196,216,236,257,276,295,316,335,355,376,395,415,437,456,476,497,515,537,557,576,595,616,636,656,676,696,717,737,756,776,795,815,835,855,876,895,915,936,956,976,995,1016,1036,1056,1075,1096,1117,1137,1156,1177,1197,1216,1236,1256,1275,1297,1317,1337,1356,1376,1396,1417,1436,1457,1476,1496,1516,1536,1555,1576,1595,1615,1635,1657,1676,1696,1716,1737,1756,1775,1796,1816,1836,1856,1887,1896,1917,1936,1956,1976,1996,2016,2035,2056,2075,2096,2117,2136,2156,2176,2196,2217,2236,2255,2275,2296,2315,2335,2356,2377,2396,2417,2436,2456,2475,2496,2516,2536,2556,2576,2597,2617,2636,2655,2676,2697,2716,2737,2756,2776,2797,2816,2835,2856,2875,2896,2916,2936,2956,2976,2995,3015,3035,3056,3075,3096,3117,3136],"xSR":741.5,"ySR":573.95,"xT1":424.9,"yT1":0,"xT2":1058.1,"yT2":0,"toosoon":0,"cond_shown":"Congruent","ratio_trial":200,"L_num":8,"L_den":15,"R_num":7,"R_den":21,"correct_side":1,"subjID":"mateochaurospina39","gender":"0","school":"6","age":"14"},{"start_time":1551899987759,"click_time":1551899990448,"finger_time":1551899989968,"fix_duration":1309.8788605488292,"trial":12,"RT":2209,"MT":480,"sideResp":2,"stimulus":[],"xmouse":[800,800,800,800,800,800,800,800,800,800,800,800,800,800,800,800,800,800,800,800,800,800,800,800,800,800,800,800,800,800,800,800,800,800,800,800,800,800,800,800,800,800,800,800,800,800,800,800,800,800,800,800,800,800,800,800,800,800,800,800,800,800,800,800,800,800,800,800,800,800,800,800,800,800,800,800,800,800,800,800,800,800,800,800,800,800,800,800,800,800,800,800,800,800,800,800,800,800,800,800,800,800,800,800,800,800,800,801,807,831,999,1051,1077,1089,1096,1111,1112,1111,1108,1107,1116,1116,1116,1116,1116,1116,1116,1117,1118,1118,1118,1118,1118,1118,1118],"ymouse":[626,626,626,626,626,626,626,626,626,626,626,626,626,626,626,626,626,626,626,626,626,626,626,626,626,626,626,626,626,626,626,626,626,626,626,626,626,626,626,626,626,626,626,626,626,626,626,626,626,626,626,626,626,626,626,626,626,626,626,626,626,626,626,626,626,626,626,626,626,626,626,626,626,626,626,626,626,626,626,626,626,626,626,626,626,626,626,626,626,626,626,626,626,626,626,626,626,626,626,626,626,626,626,626,626,626,626,626,628,618,416,335,299,276,253,205,196,181,164,145,118,118,118,118,118,115,110,105,103,103,103,103,103,102,91],"timestamp_mouse":[21,38,49,68,90,110,130,149,169,190,209,229,250,269,289,309,330,349,369,389,409,429,449,470,489,509,530,549,570,590,609,629,649,669,690,709,730,749,769,789,810,829,849,869,889,910,929,950,970,989,1008,1030,1049,1069,1089,1109,1129,1150,1170,1190,1209,1229,1249,1270,1289,1309,1329,1349,1370,1389,1409,1429,1450,1469,1489,1509,1529,1549,1569,1589,1610,1629,1650,1670,1689,1709,1729,1750,1769,1789,1809,1829,1849,1869,1889,1909,1929,1948,1969,1989,2010,2030,2049,2070,2090,2109,2128,2150,2168,2189,2209,2229,2249,2269,2289,2310,2329,2349,2370,2390,2409,2430,2449,2469,2489,2509,2529,2549,2570,2590,2609,2629,2650,2669,2689],"xSR":741.5,"ySR":573.95,"xT1":424.9,"yT1":0,"xT2":1058.1,"yT2":0,"toosoon":0,"cond_shown":"Congruent","ratio_trial":200,"L_num":7,"L_den":21,"R_num":2,"R_den":15,"correct_side":1,"subjID":"mateochaurospina39","gender":"0","school":"6","age":"14"},{"start_time":1551899995846,"click_time":1551899998249,"finger_time":1551899997989,"fix_duration":895.4819747143289,"trial":13,"RT":2143,"MT":260,"sideResp":1,"stimulus":[],"xmouse":[803,803,803,803,803,803,803,803,803,803,803,803,803,803,803,803,803,803,803,803,803,803,803,803,803,803,803,803,803,803,803,803,803,803,803,803,803,803,803,803,803,803,803,803,803,803,803,803,803,803,803,803,803,803,803,803,803,803,803,803,803,803,803,803,803,803,803,803,803,803,803,803,803,803,803,803,803,803,803,803,803,803,803,803,803,803,803,803,803,803,803,803,803,803,803,803,803,803,803,803,803,803,803,803,803,799,787,774,759,747,735,706,685,660,645,634,592,575,559,540,510],"ymouse":[629,629,629,629,629,629,629,629,629,629,629,629,629,629,629,629,629,629,629,629,629,629,629,629,629,629,629,629,629,629,629,629,629,629,629,629,629,629,629,629,629,629,629,629,629,629,629,629,629,629,629,629,629,629,629,629,629,629,629,629,629,629,629,629,629,629,629,629,629,629,629,629,629,629,629,629,629,629,629,629,629,629,629,629,629,629,629,629,629,629,629,629,629,629,629,629,629,629,629,629,629,629,629,629,629,626,591,544,490,434,373,299,255,214,193,178,116,96,81,68,52],"timestamp_mouse":[10,34,41,63,82,103,122,142,162,183,202,223,242,263,282,302,323,341,362,382,402,422,442,463,482,503,522,542,562,582,603,623,641,662,683,703,722,742,762,783,802,823,841,862,882,901,922,942,962,983,1002,1023,1043,1062,1082,1103,1122,1143,1162,1183,1202,1222,1242,1262,1281,1303,1322,1342,1362,1382,1401,1423,1442,1462,1482,1502,1522,1543,1561,1582,1602,1622,1642,1662,1683,1702,1723,1743,1763,1781,1802,1822,1843,1863,1883,1902,1923,1942,1963,1983,2002,2022,2043,2062,2082,2102,2123,2143,2163,2182,2202,2223,2242,2263,2282,2302,2323,2342,2363,2382,2402],"xSR":741.5,"ySR":573.95,"xT1":424.9,"yT1":0,"xT2":1058.1,"yT2":0,"toosoon":0,"cond_shown":"Incongruent","ratio_trial":100,"L_num":9,"L_den":15,"R_num":14,"R_den":28,"correct_side":1,"subjID":"mateochaurospina39","gender":"0","school":"6","age":"14"},{"start_time":1551899999865,"click_time":1551900001628,"finger_time":1551900001289,"fix_duration":714.7026859606551,"trial":14,"RT":1424,"MT":339,"sideResp":1,"stimulus":[],"xmouse":[802,802,802,802,802,802,802,802,802,802,802,802,802,802,802,802,802,802,802,802,802,802,802,802,802,802,802,802,802,802,802,802,802,802,802,802,802,802,802,802,802,802,802,802,802,802,802,802,802,802,802,802,802,802,802,802,802,802,802,802,802,802,802,802,802,802,802,802,800,795,792,778,749,715,658,638,631,622,613,604,586,580,577,572,567,551,538,525,513],"ymouse":[612,612,612,612,612,612,612,612,612,612,612,612,612,612,612,612,612,612,612,612,612,612,612,612,612,612,612,612,612,612,612,612,612,612,612,612,612,612,612,612,612,612,612,612,612,612,612,612,612,612,612,612,612,612,612,612,612,612,612,612,612,612,612,612,612,612,612,612,613,614,612,562,467,351,153,63,35,18,6,0,0,0,0,0,0,3,12,19,28],"timestamp_mouse":[10,31,44,62,83,103,123,144,163,183,204,223,244,263,284,304,322,344,364,383,403,423,444,463,484,503,523,543,564,583,604,623,643,664,683,703,724,743,764,783,803,823,842,863,883,904,924,944,964,984,1003,1023,1044,1064,1083,1104,1123,1144,1163,1183,1203,1223,1244,1264,1284,1303,1323,1344,1364,1383,1403,1424,1443,1463,1484,1503,1523,1543,1563,1582,1603,1623,1644,1663,1683,1704,1723,1743,1763],"xSR":741.5,"ySR":573.95,"xT1":424.9,"yT1":0,"xT2":1058.1,"yT2":0,"toosoon":0,"cond_shown":"Incongruent","ratio_trial":200,"L_num":7,"L_den":10,"R_num":14,"R_den":28,"correct_side":1,"subjID":"mateochaurospina39","gender":"0","school":"6","age":"14"},{"start_time":1551900003551,"click_time":1551900006729,"finger_time":1551900006169,"fix_duration":1081.142011341196,"trial":15,"RT":2618,"MT":560,"sideResp":2,"stimulus":[],"xmouse":[788,788,788,788,788,788,788,788,788,788,788,788,788,788,788,788,788,788,788,788,788,788,788,788,788,788,788,788,788,788,788,788,788,788,788,788,788,788,788,788,788,788,788,788,788,788,788,788,788,788,788,788,788,788,788,788,788,788,788,788,788,788,788,788,788,788,788,788,788,788,788,788,788,788,788,788,788,788,788,788,788,788,788,788,788,788,788,788,788,788,788,788,788,788,788,788,788,788,788,788,788,788,788,788,788,788,788,788,788,788,788,788,788,788,788,788,788,788,788,788,788,788,788,788,788,788,788,788,788,788,956,1090,1214,1326,1405,1453,1454,1454,1452,1438,1426,1414,1406,1393,1376,1332,1304,1269,1242,1224,1214,1213,1210,1205,1198,1185,1180,1164,1147],"ymouse":[624,624,624,624,624,624,624,624,624,624,624,624,624,624,624,624,624,624,624,624,624,624,624,624,624,624,624,624,624,624,624,624,624,624,624,624,624,624,624,624,624,624,624,624,624,624,624,624,624,624,624,624,624,624,624,624,624,624,624,624,624,624,624,624,624,624,624,624,624,624,624,624,624,624,624,624,624,624,624,624,624,624,624,624,624,624,624,624,624,624,624,624,624,624,624,624,624,624,624,624,624,624,624,624,624,624,624,624,624,624,624,624,624,624,624,624,624,624,624,624,624,624,624,624,624,624,624,624,623,619,447,304,167,40,0,0,0,0,0,0,0,0,0,4,9,28,44,59,71,75,79,79,80,81,81,81,76,68,58],"timestamp_mouse":[36,37,57,77,96,118,137,157,177,198,217,237,256,277,297,317,337,357,378,398,418,437,458,478,498,517,537,558,578,597,618,637,658,678,697,718,737,758,776,798,818,837,857,878,898,917,937,958,978,997,1017,1037,1057,1077,1097,1118,1137,1158,1178,1197,1217,1237,1258,1278,1297,1317,1337,1357,1378,1398,1417,1437,1457,1477,1498,1517,1538,1557,1577,1598,1617,1637,1657,1677,1697,1717,1737,1758,1777,1797,1817,1836,1858,1877,1897,1917,1937,1957,1977,1998,2017,2037,2057,2078,2097,2117,2137,2156,2177,2197,2217,2237,2257,2278,2297,2317,2337,2358,2377,2397,2417,2437,2458,2477,2497,2517,2537,2557,2577,2597,2618,2638,2657,2678,2697,2718,2738,2758,2777,2798,2817,2837,2856,2877,2898,2918,2937,2957,2977,2997,3017,3037,3057,3077,3098,3117,3137,3157,3178],"xSR":741.5,"ySR":573.95,"xT1":424.9,"yT1":0,"xT2":1058.1,"yT2":0,"toosoon":0,"cond_shown":"Congruent","ratio_trial":300,"L_num":1,"L_den":5,"R_num":11,"R_den":22,"correct_side":2,"subjID":"mateochaurospina39","gender":"0","school":"6","age":"14"},{"start_time":1551900009333,"click_time":1551900011728,"finger_time":1551900011369,"fix_duration":363.6481077643501,"trial":16,"RT":2036,"MT":359,"sideResp":2,"stimulus":[],"xmouse":[818,818,818,818,818,818,818,818,818,818,818,818,818,818,818,818,818,818,818,818,818,818,818,818,818,818,818,818,818,818,818,818,818,818,818,818,818,818,818,818,818,818,818,818,818,818,818,818,818,818,818,818,818,818,818,818,818,818,818,818,818,818,818,818,818,818,818,818,818,818,818,818,818,818,818,818,818,818,818,818,818,818,818,818,818,818,818,818,818,818,818,818,818,818,818,818,818,818,818,818,818,862,960,1074,1163,1238,1244,1244,1241,1230,1214,1189,1177,1163,1149,1143,1143,1142,1140,1138],"ymouse":[619,619,619,619,619,619,619,619,619,619,619,619,619,619,619,619,619,619,619,619,619,619,619,619,619,619,619,619,619,619,619,619,619,619,619,619,619,619,619,619,619,619,619,619,619,619,619,619,619,619,619,619,619,619,619,619,619,619,619,619,619,619,619,619,619,619,619,619,619,619,619,619,619,619,619,619,619,619,619,619,619,619,619,619,619,619,619,619,619,619,619,619,619,619,619,619,619,619,619,619,619,550,440,330,242,146,121,96,71,41,0,0,0,0,0,0,0,0,0,3],"timestamp_mouse":[31,35,55,75,95,115,136,155,176,196,215,236,256,275,295,315,334,354,376,395,415,435,455,476,495,515,535,555,575,596,615,636,656,676,695,715,734,755,776,794,815,835,856,875,895,916,935,955,976,995,1016,1035,1055,1075,1095,1115,1136,1155,1175,1195,1215,1235,1255,1275,1296,1315,1335,1355,1375,1395,1415,1435,1454,1475,1496,1516,1535,1555,1575,1596,1615,1635,1655,1676,1696,1715,1735,1756,1776,1795,1816,1836,1855,1877,1895,1916,1936,1955,1974,1995,2015,2036,2056,2076,2096,2116,2134,2155,2176,2195,2215,2235,2255,2275,2296,2316,2336,2356,2376,2395],"xSR":741.5,"ySR":573.95,"xT1":424.9,"yT1":0,"xT2":1058.1,"yT2":0,"toosoon":0,"cond_shown":"Congruent","ratio_trial":300,"L_num":1,"L_den":3,"R_num":19,"R_den":30,"correct_side":2,"subjID":"mateochaurospina39","gender":"0","school":"6","age":"14"},{"start_time":1551900013911,"click_time":1551900015969,"finger_time":1551900015609,"fix_duration":1141.2977978554297,"trial":17,"RT":1698,"MT":360,"sideResp":1,"stimulus":[],"xmouse":[806,806,806,806,806,806,806,806,806,806,806,806,806,806,806,806,806,806,806,806,806,806,806,806,806,806,806,806,806,806,806,806,806,806,806,806,806,806,806,806,806,806,806,806,806,806,806,806,806,806,806,806,806,806,806,806,806,806,806,806,806,806,806,806,806,806,806,806,806,806,806,806,806,806,806,806,806,806,806,806,806,806,806,803,785,756,707,564,493,446,421,412,411,410,409,409,409,409,409,409,411,416,435],"ymouse":[641,641,641,641,641,641,641,641,641,641,641,641,641,641,641,641,641,641,641,641,641,641,641,641,641,641,641,641,641,641,641,641,641,641,641,641,641,641,641,641,641,641,641,641,641,641,641,641,641,641,641,641,641,641,641,641,641,641,641,641,641,641,641,641,641,641,641,641,641,641,641,641,641,641,641,641,641,641,641,641,641,641,641,597,483,355,224,36,0,0,0,0,0,0,0,0,0,0,0,4,11,24,47],"timestamp_mouse":[17,45,57,78,98,117,137,157,177,197,217,237,257,277,297,318,338,357,378,397,417,437,457,478,498,517,537,558,577,597,617,638,657,677,697,718,737,757,777,797,818,837,858,877,897,917,937,958,977,998,1018,1037,1057,1077,1097,1118,1137,1157,1177,1197,1217,1238,1257,1278,1298,1317,1337,1357,1377,1398,1418,1437,1457,1477,1498,1518,1537,1557,1577,1597,1617,1637,1657,1677,1698,1717,1737,1758,1778,1798,1817,1837,1858,1878,1898,1918,1938,1958,1977,1997,2017,2037,2058],"xSR":741.5,"ySR":573.95,"xT1":424.9,"yT1":0,"xT2":1058.1,"yT2":0,"toosoon":0,"cond_shown":"Congruent","ratio_trial":300,"L_num":20,"L_den":25,"R_num":9,"R_den":18,"correct_side":1,"subjID":"mateochaurospina39","gender":"0","school":"6","age":"14"},{"start_time":1551900017345,"click_time":1551900019369,"finger_time":1551900019088,"fix_duration":435.3276574358036,"trial":18,"RT":1743,"MT":281,"sideResp":1,"stimulus":[],"xmouse":[814,814,814,814,814,814,814,814,814,814,814,814,814,814,814,814,814,814,814,814,814,814,814,814,814,814,814,814,814,814,814,814,814,814,814,814,814,814,814,814,814,814,814,814,814,814,814,814,814,814,814,814,814,814,814,814,814,814,814,814,814,814,814,814,814,814,814,814,814,814,814,814,814,814,814,814,814,814,814,814,814,814,814,814,814,811,800,789,770,729,607,544,537,525,525,525,525,518,509,501,500,498],"ymouse":[622,622,622,622,622,622,622,622,622,622,622,622,622,622,622,622,622,622,622,622,622,622,622,622,622,622,622,622,622,622,622,622,622,622,622,622,622,622,622,622,622,622,622,622,622,622,622,622,622,622,622,622,622,622,622,622,622,622,622,622,622,622,622,622,622,622,622,622,622,622,622,622,622,622,622,622,622,622,622,622,622,622,622,622,622,622,599,526,427,318,114,20,7,0,0,0,0,0,0,0,0,2],"timestamp_mouse":[11,34,43,64,84,104,123,144,164,184,204,223,243,263,283,303,324,344,364,384,404,423,443,463,483,504,523,543,563,583,603,623,644,664,683,703,723,743,763,784,803,823,844,863,883,903,923,944,964,983,1003,1022,1044,1064,1083,1103,1124,1143,1163,1184,1202,1223,1244,1263,1284,1303,1323,1344,1364,1383,1403,1423,1443,1462,1483,1503,1523,1543,1564,1583,1604,1623,1643,1664,1683,1703,1724,1743,1763,1783,1804,1823,1844,1863,1883,1904,1923,1943,1963,1983,2004,2024],"xSR":741.5,"ySR":573.95,"xT1":424.9,"yT1":0,"xT2":1058.1,"yT2":0,"toosoon":0,"cond_shown":"Incongruent","ratio_trial":200,"L_num":7,"L_den":10,"R_num":12,"R_den":24,"correct_side":1,"subjID":"mateochaurospina39","gender":"0","school":"6","age":"14"},{"start_time":1551900022400,"click_time":1551900024829,"finger_time":1551900024728,"fix_duration":569.7741429683224,"trial":19,"RT":2328,"MT":101,"sideResp":1,"stimulus":[],"xmouse":[794,794,794,794,794,794,794,794,794,794,794,794,794,794,794,794,794,794,794,794,794,794,794,794,794,794,794,794,794,794,794,794,794,794,794,794,794,794,794,794,794,794,794,794,794,794,794,794,794,794,794,794,794,794,794,794,794,794,794,794,794,794,794,794,794,794,794,794,794,794,794,794,794,794,794,794,794,794,794,794,794,794,794,794,794,794,794,794,794,794,794,794,794,794,794,794,794,794,794,794,794,794,794,794,794,794,794,794,794,794,794,794,794,794,794,787,751,660,594,544,488,438],"ymouse":[619,619,619,619,619,619,619,619,619,619,619,619,619,619,619,619,619,619,619,619,619,619,619,619,619,619,619,619,619,619,619,619,619,619,619,619,619,619,619,619,619,619,619,619,619,619,619,619,619,619,619,619,619,619,619,619,619,619,619,619,619,619,619,619,619,619,619,619,619,619,619,619,619,619,619,619,619,619,619,619,619,619,619,619,619,619,619,619,619,619,619,619,619,619,619,619,619,619,619,619,619,619,619,619,619,619,619,619,619,619,619,619,619,619,618,598,494,332,243,182,127,86],"timestamp_mouse":[10,34,49,68,89,109,128,149,167,189,208,229,249,268,288,309,328,348,369,389,407,428,448,467,488,508,528,549,568,589,608,628,649,669,688,709,727,748,768,788,809,829,848,868,888,908,928,947,968,989,1009,1028,1048,1068,1089,1108,1128,1149,1168,1188,1208,1228,1248,1269,1289,1309,1329,1349,1368,1389,1408,1429,1449,1468,1488,1509,1528,1548,1569,1589,1609,1627,1648,1669,1689,1709,1729,1748,1769,1789,1809,1828,1848,1868,1888,1909,1929,1948,1969,1988,2008,2029,2048,2069,2089,2109,2129,2148,2168,2189,2209,2228,2249,2268,2288,2308,2328,2349,2368,2387,2409,2428],"xSR":741.5,"ySR":573.95,"xT1":424.9,"yT1":0,"xT2":1058.1,"yT2":0,"toosoon":0,"cond_shown":"Incongruent","ratio_trial":100,"L_num":9,"L_den":15,"R_num":13,"R_den":26,"correct_side":1,"subjID":"mateochaurospina39","gender":"0","school":"6","age":"14"},{"start_time":1551900028484,"click_time":1551900041048,"finger_time":1551900031648,"fix_duration":1395.150242810937,"trial":20,"RT":3164,"MT":9400,"sideResp":1,"stimulus":[],"xmouse":[789,789,789,789,789,789,789,789,789,789,789,789,789,789,789,789,789,789,789,789,789,789,789,789,789,789,789,789,789,789,789,789,789,789,789,789,789,789,789,789,789,789,789,789,789,789,789,789,789,789,789,789,789,789,789,789,789,789,789,789,789,789,789,789,789,789,789,789,789,789,789,789,789,789,789,789,789,789,789,789,789,789,789,789,789,789,789,789,789,789,789,789,789,789,789,789,789,789,789,789,789,789,789,789,789,789,789,789,789,789,789,789,789,789,789,789,789,789,789,789,789,789,789,789,789,789,789,789,789,789,789,789,789,789,789,789,789,789,789,789,789,789,789,789,789,789,789,789,789,789,789,789,789,789,789,789,789,789,764,737,716,700,689,669,660,655,652,650,647,637,629,621,613,596,592,586,581,579,577,577,577,577,577,577,577,576,576,576,576,576,576,576,576,576,576,576,576,576,576,576,576,576,576,576,576,576,576,576,576,576,576,576,576,576,576,576,576,576,576,576,576,576,576,576,576,576,576,576,576,576,576,578,590,619,642,649,651,651,651,651,651,651,653,656,660,678,689,694,701,703,703,703,703,703,705,709,713,716,721,738,746,753,759,766,767,767,767,767,767,767,767,767,767,765,763,763,763,763,763,763,763,763,763,763,763,763,763,763,763,763,763,763,763,763,763,763,763,763,763,763,763,763,763,763,763,763,763,763,763,763,763,763,763,763,763,763,763,763,763,763,763,763,763,763,763,763,763,763,763,763,763,763,763,763,763,763,763,763,763,763,763,763,763,763,763,763,763,763,763,763,763,763,763,763,763,763,763,763,763,763,763,763,763,763,763,763,763,763,763,763,763,763,763,763,763,763,763,763,763,763,763,763,763,763,763,763,763,763,763,763,763,763,763,763,763,763,763,763,763,763,763,763,763,763,763,763,763,763,763,763,763,763,763,763,763,763,763,763,763,763,763,763,763,763,763,763,763,763,763,763,763,763,763,763,763,763,763,763,763,763,763,763,763,763,763,763,763,763,763,763,763,763,763,763,763,763,763,763,763,763,763,763,763,763,763,763,763,763,763,763,763,763,763,763,763,763,763,763,763,763,763,763,763,763,763,763,763,763,763,763,763,763,763,763,763,763,763,763,763,763,763,763,763,763,763,763,763,763,763,763,763,763,763,763,763,763,763,763,763,763,763,763,763,763,763,763,763,763,763,763,763,763,763,763,763,763,763,763,763,763,763,763,763,763,763,763,763,763,763,763,763,763,763,763,763,763,763,762,756,763,779,795,800,803,851,878,894,899,896,874,827,766,720,668,660,659,656,655,654,654,654,655,658,685,767,834,891,930,974,981,983,983,976,954,942,928,902,865,810,793,782,771,761,745,741,740,740,740,744,753,767,779,785,787,772,746,700,654,580,557,546,541,539,537,536,536,536,534,514],"ymouse":[615,615,615,615,615,615,615,615,615,615,615,615,615,615,615,615,615,615,615,615,615,615,615,615,615,615,615,615,615,615,615,615,615,615,615,615,615,615,615,615,615,615,615,615,615,615,615,615,615,615,615,615,615,615,615,615,615,615,615,615,615,615,615,615,615,615,615,615,615,615,615,615,615,615,615,615,615,615,615,615,615,615,615,615,615,615,615,615,615,615,615,615,615,615,615,615,615,615,615,615,615,615,615,615,615,615,615,615,615,615,615,615,615,615,615,615,615,615,615,615,615,615,615,615,615,615,615,615,615,615,615,615,615,615,615,615,615,615,615,615,615,615,615,615,615,615,615,615,615,615,615,615,615,615,615,615,615,615,553,494,459,433,413,371,348,336,319,300,279,238,217,199,179,127,111,98,92,88,86,86,86,86,86,86,85,85,85,85,85,85,85,85,85,85,85,85,85,85,85,85,85,85,85,85,85,85,85,85,85,85,85,85,85,85,85,85,85,85,85,85,85,85,85,85,85,85,85,85,85,85,85,84,84,86,89,91,93,93,93,93,93,93,95,98,99,101,101,101,101,101,101,101,101,101,101,101,101,100,99,98,98,98,98,98,98,98,98,98,98,98,98,98,98,98,98,98,98,98,98,98,98,98,98,98,98,98,98,98,98,98,98,98,98,98,98,98,98,98,98,98,98,98,98,98,98,98,98,98,98,98,98,98,98,98,98,98,98,98,98,98,98,98,98,98,98,98,98,98,98,98,98,98,98,98,98,98,98,98,98,98,98,98,98,98,98,98,98,98,98,98,98,98,98,98,98,98,98,98,98,98,98,98,98,98,98,98,98,98,98,98,98,98,98,98,98,98,98,98,98,98,98,98,98,98,98,98,98,98,98,98,98,98,98,98,98,98,98,98,98,98,98,98,98,98,98,98,98,98,98,98,98,98,98,98,98,98,98,98,98,98,98,98,98,98,98,98,98,98,98,98,98,98,98,98,98,98,98,98,98,98,98,98,98,98,98,98,98,98,98,98,98,98,98,98,98,98,98,98,98,98,98,98,98,98,98,98,98,98,98,98,98,98,98,98,98,98,98,98,98,98,98,98,98,98,98,98,98,98,98,98,98,98,98,98,98,98,98,98,98,98,98,98,98,98,98,98,98,98,98,98,98,98,98,98,98,98,98,98,98,98,98,98,98,98,98,98,98,98,98,98,98,98,98,98,98,98,98,98,98,98,98,98,98,98,98,98,98,98,98,98,98,98,98,98,98,98,98,98,98,100,105,108,108,108,108,108,107,105,98,94,87,77,72,65,65,65,66,67,69,70,71,71,73,83,103,120,136,147,161,163,165,167,169,169,165,154,139,124,104,101,101,101,102,107,109,110,110,111,112,112,112,112,110,105,92,84,71,57,43,39,39,39,40,41,42,42,42,42,43],"timestamp_mouse":[10,31,44,64,84,105,124,144,164,184,205,223,245,264,284,304,324,344,364,385,405,424,444,464,484,505,524,545,564,585,605,625,644,664,684,705,725,744,765,784,805,824,845,864,885,903,924,943,964,984,1004,1025,1043,1064,1084,1104,1124,1145,1164,1184,1204,1224,1244,1265,1284,1305,1324,1345,1364,1384,1404,1423,1444,1464,1484,1504,1524,1544,1564,1584,1604,1624,1645,1664,1684,1704,1724,1744,1764,1784,1805,1824,1844,1864,1884,1904,1924,1944,1964,1984,2004,2025,2044,2065,2084,2104,2124,2145,2164,2184,2204,2224,2243,2264,2284,2303,2324,2344,2364,2384,2404,2425,2444,2464,2484,2505,2524,2545,2564,2584,2604,2624,2645,2664,2684,2704,2726,2744,2765,2784,2805,2823,2844,2864,2885,2904,2925,2944,2964,2985,3004,3024,3045,3065,3084,3104,3125,3144,3164,3184,3205,3224,3245,3265,3284,3304,3325,3344,3364,3385,3405,3424,3444,3465,3484,3504,3524,3545,3565,3584,3604,3624,3645,3663,3685,3705,3725,3744,3765,3784,3804,3824,3844,3864,3884,3904,3924,3944,3964,3984,4005,4024,4044,4065,4084,4104,4124,4144,4165,4184,4204,4225,4244,4264,4284,4305,4325,4344,4364,4384,4405,4425,4444,4465,4484,4504,4525,4544,4564,4584,4603,4624,4645,4664,4684,4704,4724,4744,4765,4785,4804,4824,4845,4865,4884,4904,4924,4944,4965,4984,5006,5024,5045,5064,5083,5105,5125,5145,5165,5185,5204,5224,5243,5264,5284,5304,5325,5344,5364,5385,5404,5424,5444,5465,5484,5504,5525,5544,5564,5585,5606,5624,5644,5665,5684,5704,5724,5744,5765,5784,5805,5824,5844,5865,5884,5904,5924,5945,5965,5985,6004,6024,6044,6064,6084,6104,6124,6144,6165,6184,6204,6224,6244,6265,6285,6304,6324,6344,6365,6384,6404,6424,6444,6465,6484,6504,6524,6545,6564,6584,6604,6625,6645,6665,6684,6704,6723,6744,6764,6784,6804,6825,6844,6863,6885,6904,6925,6944,6964,6984,7004,7023,7044,7065,7084,7105,7123,7144,7164,7185,7204,7224,7244,7264,7284,7304,7324,7345,7364,7384,7405,7425,7444,7465,7484,7504,7525,7544,7563,7585,7604,7623,7644,7665,7684,7704,7724,7744,7765,7784,7804,7824,7845,7865,7884,7904,7924,7944,7964,7984,8004,8025,8044,8065,8084,8104,8124,8145,8165,8185,8205,8225,8244,8265,8284,8304,8324,8345,8365,8385,8405,8424,8444,8465,8483,8504,8525,8544,8565,8584,8604,8624,8644,8663,8684,8704,8725,8744,8765,8785,8804,8825,8844,8865,8885,8905,8924,8944,8965,8984,9004,9025,9044,9065,9084,9105,9124,9145,9165,9185,9204,9224,9244,9264,9285,9304,9325,9344,9364,9384,9404,9425,9444,9464,9485,9504,9524,9543,9565,9584,9604,9624,9644,9664,9684,9703,9724,9745,9765,9784,9805,9824,9844,9865,9884,9904,9925,9944,9964,9984,10005,10024,10043,10064,10084,10105,10123,10145,10165,10184,10204,10224,10244,10264,10284,10305,10324,10344,10364,10384,10404,10425,10444,10465,10484,10505,10525,10544,10564,10584,10604,10624,10644,10665,10683,10704,10724,10745,10765,10785,10804,10824,10844,10865,10884,10904,10924,10944,10965,10983,11005,11023,11044,11064,11084,11104,11124,11145,11164,11184,11204,11223,11244,11264,11285,11304,11323,11344,11364,11384,11404,11425,11444,11464,11484,11504,11525,11544,11564,11585,11603,11624,11645,11664,11684,11704,11725,11745,11764,11784,11804,11824,11844,11864,11884,11905,11925,11945,11964,11984,12005,12025,12044,12064,12084,12103,12125,12145,12164,12184,12205,12225,12244,12264,12284,12304,12325,12344,12364,12384,12404,12424,12444,12464,12484,12504,12524,12545,12564],"xSR":741.5,"ySR":573.95,"xT1":424.9,"yT1":0,"xT2":1058.1,"yT2":0,"toosoon":0,"cond_shown":"Incongruent","ratio_trial":300,"L_num":4,"L_den":20,"R_num":2,"R_den":4,"correct_side":2,"subjID":"mateochaurospina39","gender":"0","school":"6","age":"14"},{"start_time":1551900043000,"click_time":1551900044668,"finger_time":1551900044248,"fix_duration":250,"trial":21,"RT":1248,"MT":420,"sideResp":1,"stimulus":[],"xmouse":[801,801,801,801,801,801,801,801,801,801,801,801,801,801,801,801,801,801,801,801,801,801,801,801,801,801,801,801,801,801,801,801,801,801,801,801,801,801,801,801,801,801,801,801,801,801,801,801,801,801,801,801,801,801,801,801,801,801,791,774,756,743,720,701,678,646,602,562,552,558,578,602,628,633,638,640,641,629,615,600,585,568,533,516],"ymouse":[603,603,603,603,603,603,603,603,603,603,603,603,603,603,603,603,603,603,603,603,603,603,603,603,603,603,603,603,603,603,603,603,603,603,603,603,603,603,603,603,603,603,603,603,603,603,603,603,603,603,603,603,603,603,603,603,603,603,601,599,597,593,581,571,559,544,524,418,294,219,146,59,0,0,0,0,0,0,0,0,1,7,15,19],"timestamp_mouse":[10,34,49,69,88,108,128,148,168,189,209,229,248,268,289,309,328,348,368,389,408,429,449,468,489,508,528,549,568,587,609,627,648,668,688,709,729,748,768,787,808,828,849,869,888,908,928,949,967,989,1009,1028,1048,1068,1089,1107,1128,1149,1168,1188,1208,1229,1248,1268,1288,1308,1328,1348,1368,1387,1409,1429,1449,1468,1488,1509,1529,1549,1568,1588,1608,1629,1649,1668],"xSR":741.5,"ySR":573.95,"xT1":424.9,"yT1":0,"xT2":1058.1,"yT2":0,"toosoon":0,"cond_shown":"Incongruent","ratio_trial":200,"L_num":3,"L_den":4,"R_num":11,"R_den":20,"correct_side":1,"subjID":"mateochaurospina39","gender":"0","school":"6","age":"14"},{"start_time":1551900050006,"click_time":1551900052548,"finger_time":1551900051568,"fix_duration":1055.5190433434468,"trial":22,"RT":1562,"MT":980,"sideResp":2,"stimulus":[],"xmouse":[783,783,783,783,783,783,783,783,783,783,783,783,783,783,783,783,783,783,783,783,783,783,783,783,783,783,783,783,783,783,783,783,783,783,783,783,783,783,783,783,783,783,783,783,783,783,783,783,783,783,783,783,783,783,783,783,783,783,783,783,783,783,783,783,783,783,783,783,783,783,783,783,783,783,783,783,783,782,834,847,848,849,849,849,849,849,849,849,849,849,849,849,846,845,844,843,843,843,843,843,842,842,841,841,841,841,841,841,841,840,840,847,899,1108,1186,1225,1237,1237,1227,1222,1218,1216,1210,1205,1199,1187,1161,1152],"ymouse":[590,590,590,590,590,590,590,590,590,590,590,590,590,590,590,590,590,590,590,590,590,590,590,590,590,590,590,590,590,590,590,590,590,590,590,590,590,590,590,590,590,590,590,590,590,590,590,590,590,590,590,590,590,590,590,590,590,590,590,590,590,590,590,590,590,590,590,590,590,590,590,590,590,590,590,590,590,590,506,490,486,485,485,485,485,485,485,485,485,485,485,485,486,487,488,489,489,489,489,489,490,490,491,491,491,491,491,491,491,491,491,491,449,229,131,66,35,19,0,0,0,0,0,0,0,0,17,23],"timestamp_mouse":[11,22,42,63,82,102,122,144,162,182,202,222,242,262,282,303,322,342,362,382,402,422,442,462,482,502,523,542,562,583,602,623,642,662,682,704,722,743,763,783,802,822,842,862,883,903,923,943,962,983,1002,1023,1042,1063,1083,1102,1122,1142,1163,1182,1204,1223,1242,1262,1282,1302,1322,1342,1362,1382,1404,1423,1442,1462,1482,1502,1522,1542,1562,1582,1602,1623,1642,1662,1682,1702,1723,1742,1763,1782,1802,1823,1843,1862,1882,1902,1922,1942,1962,1982,2002,2022,2042,2062,2082,2102,2122,2142,2162,2182,2203,2222,2243,2263,2282,2302,2322,2343,2362,2382,2403,2423,2443,2462,2483,2502,2523,2542],"xSR":741.5,"ySR":573.95,"xT1":424.9,"yT1":0,"xT2":1058.1,"yT2":0,"toosoon":0,"cond_shown":"Congruent","ratio_trial":100,"L_num":3,"L_den":20,"R_num":4,"R_den":16,"correct_side":2,"subjID":"mateochaurospina39","gender":"0","school":"6","age":"14"},{"start_time":1551900055120,"click_time":1551900057970,"finger_time":1551900057228,"fix_duration":391.154657502794,"trial":23,"RT":2108,"MT":742,"sideResp":2,"stimulus":[],"xmouse":[824,824,824,824,824,824,824,824,824,824,824,824,824,824,824,824,824,824,824,824,824,824,824,824,824,824,824,824,824,824,824,824,824,824,824,824,824,824,824,824,824,824,824,824,824,824,824,824,824,824,824,824,824,824,824,824,824,824,824,824,824,824,824,824,824,824,824,824,824,824,824,824,824,824,824,824,824,824,824,824,824,824,824,824,824,824,824,824,824,824,824,824,824,824,824,824,824,824,824,824,824,824,824,824,827,838,925,948,955,957,957,957,957,957,957,957,957,959,959,959,959,959,959,959,959,959,961,969,979,993,1007,1039,1060,1065,1065,1065,1062,1060,1059,1059,1059,1059,1062],"ymouse":[586,586,586,586,586,586,586,586,586,586,586,586,586,586,586,586,586,586,586,586,586,586,586,586,586,586,586,586,586,586,586,586,586,586,586,586,586,586,586,586,586,586,586,586,586,586,586,586,586,586,586,586,586,586,586,586,586,586,586,586,586,586,586,586,586,586,586,586,586,586,586,586,586,586,586,586,586,586,586,586,586,586,586,586,586,586,586,586,586,586,586,586,586,586,586,586,586,586,586,586,586,586,586,586,583,552,337,300,293,291,289,289,289,289,289,289,288,287,287,287,287,287,287,287,287,287,284,275,263,247,229,198,180,167,151,136,127,124,122,122,117,105,92],"timestamp_mouse":[10,33,49,68,90,109,129,148,168,188,208,228,249,268,289,308,328,348,368,389,408,428,448,468,489,509,529,549,568,588,609,628,649,668,688,709,729,748,769,789,809,828,848,868,889,908,928,948,969,989,1008,1028,1048,1069,1089,1109,1128,1149,1169,1189,1208,1228,1249,1268,1289,1309,1328,1349,1368,1389,1408,1428,1449,1468,1488,1510,1528,1548,1568,1588,1608,1630,1648,1668,1688,1708,1728,1748,1768,1788,1808,1829,1849,1869,1888,1908,1928,1948,1969,1988,2008,2028,2049,2069,2089,2108,2129,2148,2168,2188,2208,2229,2248,2269,2288,2308,2328,2349,2368,2388,2408,2429,2449,2468,2489,2508,2530,2548,2568,2589,2609,2629,2648,2668,2689,2709,2729,2748,2769,2789,2808,2829,2850],"xSR":741.5,"ySR":573.95,"xT1":424.9,"yT1":0,"xT2":1058.1,"yT2":0,"toosoon":0,"cond_shown":"Incongruent","ratio_trial":100,"L_num":13,"L_den":26,"R_num":6,"R_den":10,"correct_side":2,"subjID":"mateochaurospina39","gender":"0","school":"6","age":"14"},{"start_time":1551900059547,"click_time":1551900062729,"finger_time":1551900062529,"fix_duration":537.6226087616702,"trial":24,"RT":2982,"MT":200,"sideResp":2,"stimulus":[],"xmouse":[784,784,784,784,784,784,784,784,784,784,784,784,784,784,784,784,784,784,784,784,784,784,784,784,784,784,784,784,784,784,784,784,784,784,784,784,784,784,784,784,784,784,784,784,784,784,784,784,784,784,784,784,784,784,784,784,784,784,785,786,786,786,786,786,786,787,788,789,789,790,792,792,792,792,792,792,792,792,792,792,792,792,792,792,792,792,792,792,792,792,792,792,792,792,792,792,792,792,792,792,792,792,792,792,792,792,792,792,792,792,792,792,792,792,792,792,792,792,792,792,792,792,792,792,792,792,792,792,792,792,792,792,792,792,792,792,792,792,792,792,792,792,792,792,792,792,792,793,801,827,881,993,1017,1027,1033,1049,1058,1071,1088,1106],"ymouse":[589,589,589,589,589,589,589,589,589,589,589,589,589,589,589,589,589,589,589,589,589,589,589,589,589,589,589,589,589,589,589,589,589,589,589,589,589,589,589,589,589,589,589,589,589,589,589,589,589,589,589,589,589,589,589,589,589,589,590,591,591,591,591,591,591,592,592,593,593,595,596,596,596,596,596,596,596,596,596,596,596,596,596,596,596,596,596,596,596,596,596,596,596,596,596,596,596,596,596,596,596,596,596,596,596,596,596,596,596,596,596,596,596,596,596,596,596,596,596,596,596,596,596,596,596,596,596,596,596,596,596,596,596,596,596,596,596,596,596,596,596,596,596,596,596,596,596,596,591,569,499,336,299,275,254,197,168,144,118,93],"timestamp_mouse":[8,33,41,61,82,101,121,142,161,182,202,222,242,261,282,301,321,341,361,381,402,422,441,461,481,501,521,541,561,582,601,621,641,661,682,701,721,741,761,782,801,821,841,862,881,902,921,941,962,981,1002,1021,1041,1061,1081,1101,1122,1141,1161,1181,1202,1223,1242,1262,1281,1301,1321,1341,1361,1381,1401,1421,1441,1462,1482,1502,1521,1542,1562,1581,1602,1621,1641,1663,1682,1701,1722,1743,1761,1783,1802,1821,1841,1861,1882,1901,1922,1943,1961,1982,2001,2022,2041,2061,2082,2103,2122,2141,2162,2182,2203,2221,2242,2262,2281,2301,2323,2342,2361,2382,2401,2422,2441,2461,2481,2501,2521,2542,2561,2582,2602,2622,2641,2661,2681,2701,2721,2741,2761,2781,2801,2822,2841,2861,2882,2901,2922,2942,2962,2982,3001,3021,3042,3061,3081,3102,3121,3141,3162,3181],"xSR":741.5,"ySR":573.95,"xT1":424.9,"yT1":0,"xT2":1058.1,"yT2":0,"toosoon":0,"cond_shown":"Congruent","ratio_trial":100,"L_num":9,"L_den":15,"R_num":8,"R_den":16,"correct_side":1,"subjID":"mateochaurospina39","gender":"0","school":"6","age":"14"},{"start_time":1551900064570,"click_time":1551900067209,"finger_time":1551900067148,"fix_duration":919.9359146885823,"trial":25,"RT":2578,"MT":61,"sideResp":1,"stimulus":[],"xmouse":[778,778,778,778,778,778,778,778,778,778,778,778,778,778,778,778,778,778,778,778,778,778,778,778,778,778,778,778,778,778,778,778,778,778,778,778,778,778,778,778,778,778,778,778,778,778,778,778,778,778,778,778,778,778,778,778,778,778,778,778,778,778,778,778,778,778,778,778,778,778,778,778,778,778,778,778,778,778,778,778,778,778,778,778,778,778,778,778,778,778,778,778,778,778,778,778,778,778,778,778,778,778,778,778,778,778,778,778,778,778,778,779,779,779,779,779,779,779,779,779,779,779,779,779,779,779,779,778,741,592,541,520],"ymouse":[641,641,641,641,641,641,641,641,641,641,641,641,641,641,641,641,641,641,641,641,641,641,641,641,641,641,641,641,641,641,641,641,641,641,641,641,641,641,641,641,641,641,641,641,641,641,641,641,641,641,641,641,641,641,641,641,641,641,641,641,641,641,641,641,641,641,641,641,641,641,641,641,641,641,641,641,641,641,641,641,641,641,641,641,641,641,641,641,641,641,641,641,641,641,641,641,641,641,641,641,641,641,641,641,641,641,641,641,641,641,641,642,642,642,642,642,642,642,642,642,642,642,642,642,642,642,642,641,586,280,146,58],"timestamp_mouse":[33,39,58,78,99,119,139,158,179,199,219,239,258,279,298,319,339,358,379,398,418,439,458,478,499,518,539,560,579,599,618,640,659,679,698,718,738,758,778,798,820,838,858,879,899,919,938,958,978,998,1018,1039,1059,1078,1098,1118,1138,1158,1178,1199,1218,1238,1259,1279,1298,1319,1338,1358,1380,1399,1419,1438,1458,1478,1498,1521,1539,1558,1578,1598,1618,1640,1659,1679,1698,1719,1738,1758,1778,1798,1818,1838,1858,1878,1898,1918,1939,1958,1978,1998,2018,2038,2059,2078,2098,2118,2139,2158,2178,2198,2218,2238,2258,2278,2298,2318,2338,2358,2378,2398,2418,2439,2459,2478,2498,2518,2539,2560,2578,2599,2619,2639],"xSR":741.5,"ySR":573.95,"xT1":424.9,"yT1":0,"xT2":1058.1,"yT2":0,"toosoon":0,"cond_shown":"Incongruent","ratio_trial":100,"L_num":12,"L_den":30,"R_num":2,"R_den":4,"correct_side":2,"subjID":"mateochaurospina39","gender":"0","school":"6","age":"14"},{"start_time":1551900068804,"click_time":1551900070348,"finger_time":1551900069769,"fix_duration":495.15376769824616,"trial":26,"RT":965,"MT":579,"sideResp":2,"stimulus":[],"xmouse":[758,758,758,758,758,758,758,758,758,758,758,758,758,758,758,758,758,758,758,758,758,758,758,758,758,758,758,758,758,758,758,758,758,758,758,758,758,758,758,758,758,758,758,758,758,758,758,758,810,857,892,908,918,925,929,934,940,948,955,955,957,958,969,986,1008,1028,1044,1048,1048,1048,1048,1048,1049,1049,1049,1051,1054,1077],"ymouse":[612,612,612,612,612,612,612,612,612,612,612,612,612,612,612,612,612,612,612,612,612,612,612,612,612,612,612,612,612,612,612,612,612,612,612,612,612,612,612,612,612,612,612,612,612,612,612,608,527,440,341,246,181,134,119,105,90,76,55,50,47,45,43,42,42,43,45,46,46,46,46,46,47,47,47,48,51,60],"timestamp_mouse":[10,32,45,65,84,105,124,145,165,184,204,225,244,264,285,306,325,344,364,384,405,424,444,464,484,504,525,545,564,584,605,624,644,665,685,705,725,745,764,784,805,825,844,864,886,905,925,945,965,984,1005,1024,1044,1065,1085,1104,1124,1144,1165,1184,1204,1224,1245,1264,1284,1304,1325,1345,1365,1384,1404,1424,1444,1464,1485,1504,1525,1544],"xSR":741.5,"ySR":573.95,"xT1":424.9,"yT1":0,"xT2":1058.1,"yT2":0,"toosoon":0,"cond_shown":"Congruent","ratio_trial":200,"L_num":7,"L_den":15,"R_num":18,"R_den":27,"correct_side":2,"subjID":"mateochaurospina39","gender":"0","school":"6","age":"14"},{"start_time":1551900071419,"click_time":1551900073228,"finger_time":1551900072749,"fix_duration":250,"trial":27,"RT":1330,"MT":479,"sideResp":2,"stimulus":[],"xmouse":[754,754,754,754,754,754,754,754,754,754,754,754,754,754,754,754,754,754,754,754,754,754,754,754,754,754,754,754,754,754,754,754,754,754,754,754,754,754,754,754,754,754,754,754,754,754,754,754,754,754,754,754,754,754,754,754,754,754,754,754,754,754,754,754,791,821,874,877,877,875,873,872,891,904,919,937,967,1004,1023,1043,1063,1076,1082,1082,1079,1075,1069,1064,1064,1065,1070],"ymouse":[639,639,639,639,639,639,639,639,639,639,639,639,639,639,639,639,639,639,639,639,639,639,639,639,639,639,639,639,639,639,639,639,639,639,639,639,639,639,639,639,639,639,639,639,639,639,639,639,639,639,639,639,639,639,639,639,639,639,639,639,639,639,639,639,607,586,542,524,514,495,475,451,394,373,354,338,316,292,281,269,254,236,194,175,162,153,145,127,116,106,97],"timestamp_mouse":[14,38,49,69,90,110,131,149,170,189,211,229,249,271,290,309,329,349,370,389,410,429,449,469,490,509,531,550,570,590,610,629,650,669,689,709,729,750,769,791,809,829,849,869,890,909,929,950,969,989,1009,1029,1050,1069,1090,1109,1129,1149,1169,1189,1210,1229,1249,1269,1289,1310,1330,1349,1369,1390,1410,1429,1449,1470,1489,1509,1529,1549,1570,1589,1609,1629,1649,1669,1690,1710,1729,1751,1770,1789,1809],"xSR":741.5,"ySR":573.95,"xT1":424.9,"yT1":0,"xT2":1058.1,"yT2":0,"toosoon":0,"cond_shown":"Incongruent","ratio_trial":200,"L_num":9,"L_den":15,"R_num":8,"R_den":10,"correct_side":2,"subjID":"mateochaurospina39","gender":"0","school":"6","age":"14"},{"start_time":1551900074966,"click_time":1551900077828,"finger_time":1551900077449,"fix_duration":1035.2833265129323,"trial":28,"RT":2483,"MT":379,"sideResp":1,"stimulus":[],"xmouse":[817,817,817,817,817,817,817,817,817,817,817,817,817,817,817,817,817,817,817,817,817,817,817,817,817,817,817,817,817,817,817,817,817,817,817,817,817,817,817,817,817,817,817,817,817,817,817,817,817,817,817,817,817,817,817,817,817,817,817,817,817,817,817,817,817,817,817,817,817,817,817,817,817,817,817,817,817,817,817,817,817,817,817,817,817,817,817,817,817,817,817,817,817,817,817,817,817,817,817,817,817,817,817,817,817,817,817,817,817,817,817,817,817,817,817,817,817,817,817,817,817,817,816,814,769,720,662,614,581,551,551,551,551,550,549,549,546,544,542,535,532,528,525,521],"ymouse":[644,644,644,644,644,644,644,644,644,644,644,644,644,644,644,644,644,644,644,644,644,644,644,644,644,644,644,644,644,644,644,644,644,644,644,644,644,644,644,644,644,644,644,644,644,644,644,644,644,644,644,644,644,644,644,644,644,644,644,644,644,644,644,644,644,644,644,644,644,644,644,644,644,644,644,644,644,644,644,644,644,644,644,644,644,644,644,644,644,644,644,644,644,644,644,644,644,644,644,644,644,644,644,644,644,644,644,644,644,644,644,644,644,644,644,644,644,644,644,644,644,644,639,616,395,259,140,57,8,0,0,0,0,0,0,0,0,0,2,16,20,25,27,29],"timestamp_mouse":[9,30,43,63,82,102,122,142,164,182,202,222,243,263,282,302,322,342,362,383,402,422,442,462,484,502,522,543,562,584,603,623,642,663,683,702,722,743,763,782,802,822,843,863,882,902,922,943,962,982,1002,1022,1042,1063,1082,1102,1123,1142,1162,1182,1202,1222,1242,1263,1283,1302,1322,1343,1362,1383,1402,1423,1442,1463,1483,1503,1522,1542,1563,1582,1602,1622,1642,1662,1682,1702,1722,1743,1762,1782,1804,1823,1842,1862,1883,1902,1922,1942,1962,1982,2002,2023,2042,2062,2082,2103,2122,2143,2162,2183,2203,2223,2243,2262,2282,2302,2322,2342,2363,2382,2402,2422,2443,2463,2483,2502,2522,2543,2563,2584,2602,2622,2642,2663,2683,2703,2722,2743,2763,2783,2802,2822,2842,2862],"xSR":741.5,"ySR":573.95,"xT1":424.9,"yT1":0,"xT2":1058.1,"yT2":0,"toosoon":0,"cond_shown":"Incongruent","ratio_trial":100,"L_num":2,"L_den":4,"R_num":6,"R_den":15,"correct_side":1,"subjID":"mateochaurospina39","gender":"0","school":"6","age":"14"},{"start_time":1551900079477,"click_time":1551900081128,"finger_time":1551900080848,"fix_duration":725.8287932321039,"trial":29,"RT":1371,"MT":280,"sideResp":1,"stimulus":[],"xmouse":[780,780,780,780,780,780,780,780,780,780,780,780,780,780,780,780,780,780,780,780,780,780,780,780,780,780,780,780,780,780,780,780,780,780,780,780,780,780,780,780,780,780,780,780,780,780,780,780,780,780,780,780,780,780,780,780,780,780,780,780,780,780,780,780,780,780,774,752,708,630,616,610,607,602,600,593,583,573,557,549,538,529,520],"ymouse":[651,651,651,651,651,651,651,651,651,651,651,651,651,651,651,651,651,651,651,651,651,651,651,651,651,651,651,651,651,651,651,651,651,651,651,651,651,651,651,651,651,651,651,651,651,651,651,651,651,651,651,651,651,651,651,651,651,651,651,651,651,651,651,651,651,651,621,574,469,266,207,184,171,155,147,134,118,106,90,85,78,70,63],"timestamp_mouse":[16,40,52,71,91,111,132,152,171,191,211,231,252,271,291,311,332,352,371,392,411,432,451,472,491,511,532,552,571,591,611,632,651,672,692,712,731,752,771,792,812,831,851,871,891,911,931,951,971,992,1011,1032,1051,1071,1092,1112,1132,1151,1172,1191,1211,1231,1251,1271,1292,1311,1332,1352,1371,1392,1411,1432,1451,1472,1491,1512,1531,1551,1572,1591,1612,1631,1651],"xSR":741.5,"ySR":573.95,"xT1":424.9,"yT1":0,"xT2":1058.1,"yT2":0,"toosoon":0,"cond_shown":"Congruent","ratio_trial":300,"L_num":18,"L_den":20,"R_num":9,"R_den":15,"correct_side":1,"subjID":"mateochaurospina39","gender":"0","school":"6","age":"14"},{"start_time":1551900082635,"click_time":1551900084449,"finger_time":1551900084290,"fix_duration":766.5190615755795,"trial":30,"RT":1655,"MT":159,"sideResp":2,"stimulus":[],"xmouse":[787,787,787,787,787,787,787,787,787,787,787,787,787,787,787,787,787,787,787,787,787,787,787,787,787,787,787,787,787,787,787,787,787,787,787,787,787,787,787,787,787,787,787,787,787,787,787,787,787,787,787,787,787,787,787,787,787,787,787,787,787,787,787,787,787,787,787,787,787,787,787,787,787,787,787,787,787,787,787,787,787,813,866,924,977,1046,1072,1083,1092,1098,1116],"ymouse":[638,638,638,638,638,638,638,638,638,638,638,638,638,638,638,638,638,638,638,638,638,638,638,638,638,638,638,638,638,638,638,638,638,638,638,638,638,638,638,638,638,638,638,638,638,638,638,638,638,638,638,638,638,638,638,638,638,638,638,638,638,638,638,638,638,638,638,638,638,638,638,638,638,638,638,638,638,638,638,638,638,598,524,466,411,284,196,161,128,104,67],"timestamp_mouse":[13,39,53,73,93,113,134,153,173,193,214,233,253,273,293,314,333,353,374,393,413,434,453,473,493,513,533,553,573,593,613,633,653,674,693,714,734,753,774,794,813,834,853,873,893,914,934,954,975,993,1014,1033,1053,1073,1093,1114,1133,1154,1173,1194,1213,1233,1253,1274,1293,1313,1333,1354,1373,1394,1413,1434,1454,1473,1493,1514,1534,1553,1574,1594,1613,1633,1655,1673,1694,1714,1733,1753,1773,1794,1814],"xSR":741.5,"ySR":573.95,"xT1":424.9,"yT1":0,"xT2":1058.1,"yT2":0,"toosoon":0,"cond_shown":"Congruent","ratio_trial":100,"L_num":12,"L_den":30,"R_num":13,"R_den":26,"correct_side":2,"subjID":"mateochaurospina39","gender":"0","school":"6","age":"14"},{"start_time":1551900086469,"click_time":1551900088248,"finger_time":1551900087949,"fix_duration":1019.7939884527885,"trial":31,"RT":1480,"MT":299,"sideResp":1,"stimulus":[],"xmouse":[758,758,758,758,758,758,758,758,758,758,758,758,758,758,758,758,758,758,758,758,758,758,758,758,758,758,758,758,758,758,758,758,758,758,758,758,758,758,758,758,758,758,758,758,758,758,758,758,758,758,758,758,758,758,758,758,758,758,758,758,758,758,758,758,758,758,758,758,758,758,758,757,757,757,727,683,636,598,578,564,564,564,564,562,534,528,528,527,522],"ymouse":[629,629,629,629,629,629,629,629,629,629,629,629,629,629,629,629,629,629,629,629,629,629,629,629,629,629,629,629,629,629,629,629,629,629,629,629,629,629,629,629,629,629,629,629,629,629,629,629,629,629,629,629,629,629,629,629,629,629,629,629,629,629,629,629,629,629,629,629,629,629,629,624,610,456,291,191,125,84,59,34,29,29,28,26,16,14,14,14,16],"timestamp_mouse":[22,46,60,80,99,119,140,160,180,199,219,241,260,280,299,319,339,360,379,399,419,439,459,480,499,519,540,560,579,599,619,639,659,680,699,719,739,760,779,799,820,840,860,879,899,919,939,960,979,1000,1019,1039,1059,1079,1101,1119,1139,1160,1180,1199,1219,1239,1259,1279,1301,1319,1340,1359,1380,1399,1419,1439,1459,1480,1499,1519,1540,1560,1579,1599,1621,1639,1660,1679,1699,1719,1740,1760,1779],"xSR":741.5,"ySR":573.95,"xT1":424.9,"yT1":0,"xT2":1058.1,"yT2":0,"toosoon":0,"cond_shown":"Congruent","ratio_trial":200,"L_num":16,"L_den":20,"R_num":12,"R_den":20,"correct_side":1,"subjID":"mateochaurospina39","gender":"0","school":"6","age":"14"},{"start_time":1551900090266,"click_time":1551900091849,"finger_time":1551900091168,"fix_duration":1356.3297621153145,"trial":32,"RT":902,"MT":681,"sideResp":1,"stimulus":[],"xmouse":[799,799,799,799,799,799,799,799,799,799,799,799,799,799,799,799,799,799,799,799,799,799,799,799,799,799,799,799,799,799,799,799,799,799,799,799,799,799,799,799,799,798,794,776,769,747,733,723,713,701,699,698,696,695,679,663,651,639,629,615,609,606,600,595,588,581,576,570,563,555,555,555,554,550,544,544,544,544,540,521],"ymouse":[616,616,616,616,616,616,616,616,616,616,616,616,616,616,616,616,616,616,616,616,616,616,616,616,616,616,616,616,616,616,616,616,616,616,616,616,616,616,616,616,616,616,616,610,591,403,311,240,182,139,132,129,125,124,114,105,101,98,94,87,84,82,78,76,74,73,73,73,73,73,73,73,73,73,72,72,72,72,71,70],"timestamp_mouse":[10,32,42,62,82,103,122,142,162,182,202,222,243,264,282,303,322,342,362,382,403,422,442,464,483,503,522,542,562,584,602,623,642,663,682,702,722,742,762,782,803,823,844,862,883,902,923,942,964,983,1002,1023,1043,1062,1082,1102,1122,1142,1163,1183,1203,1222,1242,1262,1283,1302,1323,1343,1363,1382,1403,1422,1442,1462,1482,1502,1523,1542,1562,1583],"xSR":741.5,"ySR":573.95,"xT1":424.9,"yT1":0,"xT2":1058.1,"yT2":0,"toosoon":0,"cond_shown":"Congruent","ratio_trial":300,"L_num":20,"L_den":25,"R_num":8,"R_den":16,"correct_side":1,"subjID":"mateochaurospina39","gender":"0","school":"6","age":"14"},{"start_time":1551900093783,"click_time":1551900096968,"finger_time":1551900095208,"fix_duration":1213.0784735607351,"trial":33,"RT":1425,"MT":1760,"sideResp":1,"stimulus":[],"xmouse":[800,800,800,800,800,800,800,800,800,800,800,800,800,800,800,800,800,800,800,800,800,800,800,800,800,800,800,800,800,800,800,800,800,800,800,800,800,800,800,800,800,800,800,800,800,800,800,800,800,800,800,800,800,800,800,800,800,800,800,800,800,800,800,800,800,800,800,800,800,800,789,740,684,633,589,577,573,573,573,573,573,575,577,578,581,582,584,589,598,603,604,604,604,604,604,604,605,606,606,608,608,608,609,610,610,610,611,611,611,611,613,614,615,618,618,618,618,618,618,620,620,620,620,620,620,620,620,620,620,620,620,621,622,622,622,622,622,622,622,622,622,622,622,622,622,622,622,622,622,622,622,622,622,622,622,619,600,567,519,508],"ymouse":[614,614,614,614,614,614,614,614,614,614,614,614,614,614,614,614,614,614,614,614,614,614,614,614,614,614,614,614,614,614,614,614,614,614,614,614,614,614,614,614,614,614,614,614,614,614,614,614,614,614,614,614,614,614,614,614,614,614,614,614,614,614,614,614,614,614,614,614,614,614,610,581,500,391,232,207,200,200,200,200,200,205,210,213,220,226,233,244,262,272,273,273,273,273,275,276,278,280,281,284,284,284,286,287,287,287,288,288,288,289,292,294,296,299,299,299,299,299,299,301,302,302,302,302,302,302,302,302,302,302,302,302,303,303,303,303,303,303,303,303,303,303,303,303,303,303,303,303,303,303,303,303,303,303,303,301,259,198,113,92],"timestamp_mouse":[15,37,45,66,85,106,125,145,165,185,206,225,246,265,286,305,325,346,365,385,405,426,445,466,485,505,525,546,565,586,606,625,646,665,685,706,726,745,766,786,806,826,845,866,885,905,926,945,965,985,1005,1025,1046,1065,1086,1106,1125,1146,1165,1185,1206,1225,1245,1266,1285,1305,1325,1345,1366,1386,1405,1425,1445,1466,1486,1505,1525,1546,1567,1585,1605,1626,1645,1665,1685,1706,1726,1745,1765,1785,1805,1825,1845,1866,1886,1905,1925,1945,1966,1985,2006,2026,2046,2066,2086,2106,2125,2145,2166,2186,2205,2226,2245,2265,2285,2305,2326,2345,2365,2386,2406,2425,2446,2466,2486,2505,2526,2545,2566,2585,2605,2625,2646,2666,2686,2705,2725,2745,2766,2785,2805,2825,2845,2866,2885,2906,2925,2945,2966,2986,3005,3025,3046,3065,3085,3105,3125,3145,3166,3185],"xSR":741.5,"ySR":573.95,"xT1":424.9,"yT1":0,"xT2":1058.1,"yT2":0,"toosoon":0,"cond_shown":"Incongruent","ratio_trial":300,"L_num":1,"L_den":2,"R_num":2,"R_den":10,"correct_side":1,"subjID":"mateochaurospina39","gender":"0","school":"6","age":"14"},{"start_time":1551900098968,"click_time":1551900102969,"finger_time":1551900102168,"fix_duration":1119.1704139008577,"trial":34,"RT":3200,"MT":801,"sideResp":1,"stimulus":[],"xmouse":[785,785,785,785,785,785,785,785,785,785,785,785,785,785,785,785,785,785,785,785,785,785,785,785,785,785,785,785,785,785,785,785,785,785,785,785,785,785,785,785,785,785,785,785,785,785,785,785,785,785,785,785,785,785,785,785,785,785,785,785,785,785,785,785,785,785,785,785,785,785,785,785,785,785,785,785,785,785,785,785,785,785,785,785,785,785,785,785,785,785,785,785,785,785,785,785,785,785,785,785,785,785,785,785,785,785,785,785,785,785,785,785,785,785,785,785,785,785,785,785,785,785,785,785,785,785,785,785,785,785,785,785,785,785,785,785,785,785,785,785,785,785,785,785,785,785,785,785,785,785,785,785,785,785,785,785,785,785,785,785,767,724,666,616,578,537,533,532,532,532,532,532,531,531,531,531,531,531,531,531,531,531,531,531,531,531,531,530,525,515,515,515,515,515,515,515,515,515,515,514,510],"ymouse":[589,589,589,589,589,589,589,589,589,589,589,589,589,589,589,589,589,589,589,589,589,589,589,589,589,589,589,589,589,589,589,589,589,589,589,589,589,589,589,589,589,589,589,589,589,589,589,589,589,589,589,589,589,589,589,589,589,589,589,589,589,589,589,589,589,589,589,589,589,589,589,589,589,589,589,589,589,589,589,589,589,589,589,589,589,589,589,589,589,589,589,589,589,589,589,589,589,589,589,589,589,589,589,589,589,589,589,589,589,589,589,589,589,589,589,589,589,589,589,589,589,589,589,589,589,589,589,589,589,589,589,589,589,589,589,589,589,589,589,589,589,589,589,589,589,589,589,589,589,589,589,589,589,589,589,589,589,589,589,589,557,483,401,332,275,217,209,208,208,208,204,198,196,195,195,193,190,189,189,189,189,189,189,189,189,188,179,164,148,129,125,125,125,125,120,118,117,116,115,111,89],"timestamp_mouse":[8,31,40,60,80,100,120,140,161,180,201,221,241,260,281,300,320,340,360,380,400,420,441,460,480,500,521,541,561,580,600,621,640,661,680,700,720,740,760,782,801,820,841,860,880,900,921,940,961,980,1000,1021,1041,1060,1080,1101,1120,1140,1161,1181,1200,1220,1240,1261,1280,1300,1321,1341,1361,1380,1400,1420,1441,1461,1480,1500,1521,1540,1561,1581,1600,1620,1641,1661,1680,1700,1720,1740,1761,1780,1800,1820,1840,1861,1881,1900,1921,1940,1961,1980,2000,2020,2041,2060,2081,2101,2122,2140,2161,2180,2202,2220,2241,2260,2281,2301,2321,2340,2361,2382,2401,2421,2441,2461,2481,2501,2520,2541,2560,2580,2601,2621,2641,2661,2680,2701,2721,2741,2761,2781,2800,2821,2841,2861,2880,2901,2921,2948,2961,2981,3000,3020,3040,3061,3080,3100,3121,3140,3160,3181,3200,3220,3241,3261,3280,3301,3320,3340,3360,3381,3401,3421,3440,3461,3480,3500,3521,3541,3560,3580,3600,3620,3641,3661,3681,3701,3720,3741,3760,3780,3800,3820,3841,3860,3881,3900,3920,3940,3961,3980,4001],"xSR":741.5,"ySR":573.95,"xT1":424.9,"yT1":0,"xT2":1058.1,"yT2":0,"toosoon":0,"cond_shown":"Congruent","ratio_trial":300,"L_num":4,"L_den":5,"R_num":2,"R_den":4,"correct_side":1,"subjID":"mateochaurospina39","gender":"0","school":"6","age":"14"},{"start_time":1551900103940,"click_time":1551900105869,"finger_time":1551900105489,"fix_duration":250,"trial":35,"RT":1549,"MT":380,"sideResp":1,"stimulus":[],"xmouse":[792,792,792,792,792,792,792,792,792,792,792,792,792,792,792,792,792,792,792,792,792,792,792,792,792,792,792,792,792,792,792,792,792,792,792,792,792,792,792,792,792,792,792,792,792,792,792,792,792,792,792,792,792,792,792,792,792,792,792,792,792,792,792,792,792,792,792,792,792,792,792,792,792,792,792,792,785,772,759,750,736,722,702,678,656,626,619,611,606,603,602,597,588,571,554,538,523],"ymouse":[633,633,633,633,633,633,633,633,633,633,633,633,633,633,633,633,633,633,633,633,633,633,633,633,633,633,633,633,633,633,633,633,633,633,633,633,633,633,633,633,633,633,633,633,633,633,633,633,633,633,633,633,633,633,633,633,633,633,633,633,633,633,633,633,633,633,633,633,633,633,633,633,633,633,633,634,577,475,390,328,265,234,193,153,113,58,44,30,22,17,16,12,7,5,5,10,16],"timestamp_mouse":[8,28,49,69,89,109,128,149,168,188,210,229,248,268,290,309,328,348,368,388,410,429,448,468,489,509,528,548,568,588,608,628,648,668,689,708,729,748,769,789,808,828,849,868,889,909,929,948,968,988,1009,1028,1049,1068,1089,1109,1128,1148,1168,1188,1209,1228,1248,1268,1288,1309,1329,1349,1369,1388,1408,1428,1449,1468,1488,1508,1528,1549,1568,1588,1609,1628,1648,1668,1689,1709,1728,1749,1768,1790,1809,1828,1848,1868,1888,1908,1929],"xSR":741.5,"ySR":573.95,"xT1":424.9,"yT1":0,"xT2":1058.1,"yT2":0,"toosoon":0,"cond_shown":"Congruent","ratio_trial":300,"L_num":18,"L_den":20,"R_num":9,"R_den":15,"correct_side":1,"subjID":"mateochaurospina39","gender":"0","school":"6","age":"14"},{"start_time":1551900107200,"click_time":1551900108849,"finger_time":1551900108768,"fix_duration":390.74974187058973,"trial":36,"RT":1568,"MT":81,"sideResp":1,"stimulus":[],"xmouse":[784,784,784,784,784,784,784,784,784,784,784,784,784,784,784,784,784,784,784,784,784,784,784,784,784,784,784,784,784,784,784,784,784,784,784,784,784,784,784,784,784,784,784,784,784,784,784,784,784,784,784,784,784,784,784,784,784,784,784,784,784,784,784,784,784,784,784,784,784,784,784,784,784,784,784,784,784,771,716,670,623,575,514],"ymouse":[631,631,631,631,631,631,631,631,631,631,631,631,631,631,631,631,631,631,631,631,631,631,631,631,631,631,631,631,631,63