[{"start_time":1551900818543,"click_time":1551900828589,"finger_time":1551900818554,"fix_duration":349.4001072811848,"trial":0,"RT":11,"MT":10035,"sideResp":2,"stimulus":"img/750/equaldotsize/R/3_Ratio_750_L_15_R_20.png","xmouse":[798,798,798,798,798,798,798,798,798,798,798,798,798,798,798,798,798,798,798,798,798,798,798,798,798,798,798,798,801,804,806,806,807,807,807,807,807,805,803,802,801,801,801,801,801,801,801,801,801,801,801,801,801,801,801,801,801,801,801,801,801,801,801,801,801,801,801,801,801,801,801,801,801,801,801,801,801,801,801,801,801,801,801,801,801,801,799,790,784,774,768,766,765,765,765,765,765,765,765,765,765,765,765,767,769,769,770,772,773,773,773,773,773,774,777,780,782,784,784,784,784,784,784,784,784,784,784,784,784,784,784,784,784,784,784,784,784,784,784,784,784,784,784,784,784,784,784,784,784,784,784,784,784,784,784,784,784,784,784,784,784,784,784,784,784,784,784,784,784,784,784,784,784,784,784,784,784,784,784,784,784,784,784,784,784,784,784,784,784,784,784,784,784,784,784,784,784,784,784,784,784,784,784,784,784,784,784,784,784,784,784,784,784,784,784,784,784,784,784,784,784,784,784,784,784,784,784,784,784,784,784,784,784,784,784,784,784,784,784,784,784,784,784,784,784,784,784,784,784,784,784,784,784,784,784,784,784,784,784,784,784,784,784,784,784,784,784,784,784,784,784,784,784,784,784,784,784,784,784,784,784,784,784,784,784,784,784,784,784,784,784,784,784,784,784,784,784,784,784,784,784,784,784,784,784,784,784,784,784,784,784,784,784,784,784,784,784,784,784,784,784,784,784,784,784,784,784,784,784,784,784,784,784,784,784,784,784,784,784,784,784,784,784,784,784,784,784,784,784,784,784,784,784,784,784,784,784,784,784,784,784,784,784,784,784,784,784,784,784,784,784,784,784,784,784,784,784,784,784,784,784,784,784,784,784,784,784,784,784,784,784,784,784,784,784,784,784,784,784,784,784,784,784,784,784,784,784,784,784,784,784,784,784,784,784,784,784,784,784,784,784,784,784,784,784,784,784,784,784,784,784,784,784,784,784,784,784,784,784,784,784,784,784,784,784,784,784,784,784,784,784,784,784,784,784,784,784,784,784,784,784,784,784,790,826,868,894,964,1047,1150,1315,1362,1390,1404,1425,1444,1454,1454,1454,1454,1454,1445,1409,1380,1352,1325,1272,1250,1236,1225,1209,1195,1177,1175,1175,1175,1175,1175,1175,1175,1174,1172,1136],"ymouse":[525,525,525,525,525,525,525,525,525,525,525,525,525,525,525,525,525,525,525,525,525,525,525,525,525,525,525,525,528,543,564,575,594,598,599,600,601,608,612,615,615,615,615,615,615,615,615,615,615,615,615,615,615,615,615,615,615,615,615,615,615,615,615,615,615,615,615,615,615,615,615,615,615,615,615,615,615,615,615,615,615,615,615,615,615,616,617,620,622,623,623,623,623,623,623,623,623,623,623,623,623,623,623,623,623,623,623,623,623,623,623,623,623,623,622,622,622,621,621,621,621,621,621,621,621,621,621,621,621,621,621,621,621,621,621,621,621,621,621,621,621,621,621,621,621,621,621,621,621,621,621,621,621,621,621,621,621,621,621,621,621,621,621,621,621,621,621,621,621,621,621,621,621,621,621,621,621,621,621,621,621,621,621,621,621,621,621,621,621,621,621,621,621,621,621,621,621,621,621,621,621,621,621,621,621,621,621,621,621,621,621,621,621,621,621,621,621,621,621,621,621,621,621,621,621,621,621,621,621,621,621,621,621,621,621,621,621,621,621,621,621,621,621,621,621,621,621,621,621,621,621,621,621,621,621,621,621,621,621,621,621,621,621,621,621,621,621,621,621,621,621,621,621,621,621,621,621,621,621,621,621,621,621,621,621,621,621,621,621,621,621,621,621,621,621,621,621,621,621,621,621,621,621,621,621,621,621,621,621,621,621,621,621,621,621,621,621,621,621,621,621,621,621,621,621,621,621,621,621,621,621,621,621,621,621,621,621,621,621,621,621,621,621,621,621,621,621,621,621,621,621,621,621,621,621,621,621,621,621,621,621,621,621,621,621,621,621,621,621,621,621,621,621,621,621,621,621,621,621,621,621,621,621,621,621,621,621,621,621,621,621,621,621,621,621,621,621,621,621,621,621,621,621,621,621,621,621,621,621,621,621,621,621,621,621,621,621,621,621,621,621,621,621,621,621,621,621,621,621,621,621,621,621,621,621,621,621,621,621,621,621,621,621,621,621,621,621,621,621,621,621,621,621,621,621,621,621,621,621,621,621,621,621,621,621,599,524,102,0,0,0,0,0,0,0,0,0,0,0,0,1,7,14,14,14,7,4,9,11,10,3,0,0,1,1,3,5,6,7,7,9,11,42],"timestamp_mouse":[11,26,46,65,86,106,125,144,164,184,204,224,246,265,285,305,326,346,364,385,404,426,446,465,486,505,526,544,565,585,604,624,645,664,684,705,726,745,765,785,806,824,845,865,885,906,926,946,966,985,1004,1025,1044,1065,1085,1105,1124,1146,1165,1185,1206,1225,1246,1266,1285,1304,1324,1346,1364,1385,1405,1424,1445,1465,1486,1506,1525,1545,1565,1584,1605,1624,1646,1666,1685,1705,1726,1745,1766,1784,1805,1824,1845,1865,1886,1905,1926,1944,1964,1985,2004,2025,2045,2065,2085,2105,2126,2145,2164,2185,2204,2225,2245,2265,2286,2306,2325,2344,2366,2386,2406,2424,2445,2466,2485,2506,2526,2545,2565,2585,2605,2626,2645,2666,2685,2705,2726,2744,2765,2785,2804,2824,2845,2864,2886,2905,2925,2946,2964,2985,3006,3026,3045,3065,3085,3104,3126,3146,3165,3184,3205,3226,3244,3264,3286,3305,3326,3345,3365,3384,3404,3426,3444,3464,3485,3506,3526,3546,3565,3585,3605,3625,3645,3665,3685,3706,3726,3745,3764,3784,3805,3826,3845,3865,3885,3905,3926,3945,3965,3986,4006,4024,4044,4066,4086,4105,4126,4146,4164,4185,4205,4226,4245,4265,4284,4305,4325,4346,4366,4386,4405,4426,4444,4466,4485,4505,4524,4545,4564,4584,4605,4626,4646,4665,4685,4705,4726,4745,4765,4785,4806,4826,4846,4864,4886,4905,4925,4945,4966,4985,5004,5025,5046,5066,5084,5104,5125,5146,5165,5186,5206,5225,5246,5265,5284,5305,5326,5345,5366,5384,5404,5424,5444,5465,5486,5506,5526,5545,5566,5585,5604,5624,5645,5665,5685,5705,5724,5744,5765,5785,5806,5824,5845,5865,5886,5905,5926,5945,5965,5984,6004,6026,6045,6065,6086,6105,6126,6144,6165,6185,6205,6226,6245,6265,6285,6305,6326,6346,6366,6384,6404,6425,6446,6465,6486,6506,6526,6546,6564,6586,6605,6626,6645,6666,6686,6706,6725,6745,6764,6785,6804,6824,6845,6864,6884,6906,6925,6946,6965,6985,7004,7026,7044,7065,7085,7105,7126,7145,7164,7184,7204,7226,7246,7265,7284,7306,7326,7345,7364,7386,7405,7425,7445,7466,7486,7504,7525,7545,7565,7586,7605,7626,7646,7664,7684,7705,7726,7746,7765,7784,7806,7825,7845,7864,7885,7905,7924,7945,7965,7985,8005,8025,8046,8065,8084,8106,8125,8146,8165,8185,8206,8225,8246,8266,8284,8304,8324,8345,8366,8384,8404,8424,8446,8465,8485,8505,8525,8544,8565,8586,8604,8626,8645,8665,8685,8704,8726,8746,8765,8785,8804,8824,8844,8866,8886,8906,8926,8944,8965,8986,9005,9026,9044,9066,9085,9106,9126,9146,9164,9185,9206,9226,9246,9264,9285,9305,9326,9346,9364,9386,9404,9424,9445,9465,9486,9505,9526,9544,9564,9584,9604,9624,9644,9664,9685,9705,9726,9744,9765,9785,9805,9825,9845,9866,9885,9905,9925,9945,9964,9984,10004,10024,10045],"xSR":741.5,"ySR":469.95,"xT1":424.9,"yT1":0,"xT2":1058.1,"yT2":0,"toosoon":0,"cond_shown":"equaldotsize","ratio_trial":750,"smaller_num":"15","larger_num":"20","correct_side":2,"subjID":"mateochaurospna39","gender":"0","age":"14","school":"6","test":{"fix_dur":[250,1500],"timestim":300,"targets_dim":[100,100],"targets_relative_coord":[0.3,0.7],"size_stim":[880,420],"start_dim":[100,100],"size_start":[300,300],"size_fix":60,"samplingrate":20,"img_types":["equaldotsize","equaldotanddens","randomdotsizeEA"],"ratios":[250,500,750,900],"rep_conds":9,"nTrials":120,"trials_to_rest":500,"Trials_order":[102,43,8,119,83,51,64,107,30,114,13,117,115,75,91,92,3,55,105,38,53,49,37,17,110,36,57,82,31,59,79,66,10,41,89,33,1,20,93,86,14,100,116,11,112,48,19,56,72,12,46,104,84,78,113,40,2,69,27,63,29,54,96,85,76,47,42,35,32,44,18,97,58,60,87,73,80,0,70,95,23,103,22,118,65,39,4,21,15,67,108,101,77,6,9,24,28,25,88,74,7,71,62,98,50,99,26,106,68,111,52,94,61,81,45,109,90,34,16,5],"cond_shown":["equaldotsize","equaldotanddens","randomdotsizeEA","randomdotsizeEA","randomdotsizeEA","equaldotsize","equaldotanddens","randomdotsizeEA","equaldotsize","equaldotsize","equaldotanddens","equaldotsize","equaldotanddens","equaldotsize","equaldotanddens","randomdotsizeEA","equaldotsize","equaldotanddens","equaldotsize","randomdotsizeEA","randomdotsizeEA","equaldotanddens","equaldotanddens","randomdotsizeEA","randomdotsizeEA","equaldotsize","equaldotsize","equaldotanddens","equaldotanddens","randomdotsizeEA","equaldotanddens","equaldotsize","equaldotanddens","randomdotsizeEA","randomdotsizeEA","equaldotsize","equaldotanddens","randomdotsizeEA","equaldotsize","randomdotsizeEA","randomdotsizeEA","equaldotanddens","randomdotsizeEA","randomdotsizeEA","equaldotanddens","equaldotsize","equaldotanddens","randomdotsizeEA","equaldotsize","equaldotsize","equaldotanddens","randomdotsizeEA","equaldotsize","equaldotsize","randomdotsizeEA","equaldotanddens","randomdotsizeEA","equaldotsize","equaldotsize","equaldotsize","randomdotsizeEA","equaldotsize","equaldotsize","equaldotanddens","equaldotanddens","randomdotsizeEA","equaldotsize","randomdotsizeEA","randomdotsizeEA","randomdotsizeEA","equaldotsize","equaldotanddens","equaldotanddens","equaldotsize","equaldotsize","equaldotanddens","randomdotsizeEA","equaldotsize","equaldotanddens","randomdotsizeEA","randomdotsizeEA","equaldotanddens","equaldotanddens","equaldotanddens","randomdotsizeEA","equaldotsize","equaldotanddens","equaldotsize","equaldotsize","equaldotanddens","equaldotsize","randomdotsizeEA","randomdotsizeEA","equaldotsize","equaldotsize","equaldotsize","equaldotanddens","equaldotanddens","equaldotanddens","randomdotsizeEA","equaldotanddens","randomdotsizeEA","randomdotsizeEA","randomdotsizeEA","randomdotsizeEA","equaldotsize","randomdotsizeEA","equaldotanddens","randomdotsizeEA","equaldotsize","equaldotanddens","equaldotanddens","equaldotanddens","equaldotsize","equaldotsize","equaldotanddens","equaldotsize","equaldotanddens","equaldotanddens","randomdotsizeEA"],"ratio_trial":[750,750,750,900,900,500,500,900,750,750,250,900,750,500,750,750,500,750,900,250,500,250,250,500,250,250,900,900,750,900,750,750,900,500,500,900,250,750,900,250,250,500,750,900,500,250,750,750,250,250,900,750,250,750,500,500,250,900,500,500,500,750,250,250,500,900,750,900,750,750,750,250,900,250,500,250,750,250,900,900,900,750,900,900,500,500,500,900,500,750,250,500,500,750,900,250,500,250,500,250,750,900,250,250,250,500,250,900,750,500,500,900,250,900,900,250,750,900,500,500],"smaller_num":["15","15","9","18","18","3","9","18","15","3","2","18","3","6","15","6","3","3","9","4","9","2","4","4","6","2","18","9","3","18","3","6","18","5","4","9","1","18","9","5","2","2","18","18","3","2","12","15","4","3","18","3","3","15","2","6","2","9","3","2","9","3","1","4","1","18","15","9","3","3","15","5","18","3","2","2","18","6","9","9","18","6","9","18","5","2","1","18","1","15","3","2","3","12","18","4","9","6","9","4","15","18","1","4","6","2","5","9","3","10","2","18","2","9","18","2","3","9","9","2"],"larger_num":["20","20","12","20","20","6","18","20","20","4","8","20","4","12","20","8","6","4","10","16","18","8","16","8","24","8","20","10","4","20","4","8","20","10","8","10","4","24","10","20","8","4","24","20","6","8","16","20","16","12","20","4","12","20","4","12","8","10","6","4","18","4","4","16","2","20","20","10","4","4","20","20","20","12","4","8","24","24","10","10","20","8","10","20","10","4","2","20","2","20","12","4","6","16","20","16","18","24","18","16","20","20","4","16","24","4","20","10","4","20","4","20","8","10","20","8","4","10","18","4"],"correct_side":[2,1,2,2,1,2,1,2,1,2,1,1,2,1,2,1,2,1,2,1,2,1,2,1,1,2,2,1,1,1,1,1,1,1,1,2,2,1,2,2,1,2,1,1,2,1,2,2,1,2,2,2,1,1,1,1,1,2,2,1,2,1,2,2,2,1,2,1,2,1,2,2,1,2,2,1,1,1,2,2,1,1,2,1,2,2,2,1,2,1,2,1,2,2,1,1,2,1,1,1,2,1,2,2,1,1,2,2,1,2,1,1,1,1,2,1,2,2,1,2],"img_shown":["img/750/equaldotsize/R/3_Ratio_750_L_15_R_20.png","img/750/equaldotanddens/L/1_Ratio_750_L_20_R_15.png","img/750/randomdotsizeEA/R/15_Ratio_750_L_9_R_12.png","img/900/randomdotsizeEA/R/14_Ratio_900_L_18_R_20.png","img/900/randomdotsizeEA/L/8_Ratio_900_L_20_R_18.png","img/500/equaldotsize/R/2_Ratio_500_L_3_R_6.png","img/500/equaldotanddens/L/4_Ratio_500_L_18_R_9.png","img/900/randomdotsizeEA/R/9_Ratio_900_L_18_R_20.png","img/750/equaldotsize/L/1_Ratio_750_L_20_R_15.png","img/750/equaldotsize/R/7_Ratio_750_L_3_R_4.png","img/250/equaldotanddens/L/1_Ratio_250_L_8_R_2.png","img/900/equaldotsize/L/2_Ratio_900_L_20_R_18.png","img/750/equaldotanddens/R/12_Ratio_750_L_3_R_4.png","img/500/equaldotsize/L/13_Ratio_500_L_12_R_6.png","img/750/equaldotanddens/R/5_Ratio_750_L_15_R_20.png","img/750/randomdotsizeEA/L/14_Ratio_750_L_8_R_6.png","img/500/equaldotsize/R/2_Ratio_500_L_3_R_6.png","img/750/equaldotanddens/L/9_Ratio_750_L_4_R_3.png","img/900/equaldotsize/R/6_Ratio_900_L_9_R_10.png","img/250/randomdotsizeEA/L/2_Ratio_250_L_16_R_4.png","img/500/randomdotsizeEA/R/1_Ratio_500_L_9_R_18.png","img/250/equaldotanddens/L/3_Ratio_250_L_8_R_2.png","img/250/equaldotanddens/R/10_Ratio_250_L_4_R_16.png","img/500/randomdotsizeEA/L/8_Ratio_500_L_8_R_4.png","img/250/randomdotsizeEA/L/5_Ratio_250_L_24_R_6.png","img/250/equaldotsize/R/13_Ratio_250_L_2_R_8.png","img/900/equaldotsize/R/12_Ratio_900_L_18_R_20.png","img/900/equaldotanddens/L/1_Ratio_900_L_10_R_9.png","img/750/equaldotanddens/L/10_Ratio_750_L_4_R_3.png","img/900/randomdotsizeEA/L/2_Ratio_900_L_20_R_18.png","img/750/equaldotanddens/L/8_Ratio_750_L_4_R_3.png","img/750/equaldotsize/L/14_Ratio_750_L_8_R_6.png","img/900/equaldotanddens/L/2_Ratio_900_L_20_R_18.png","img/500/randomdotsizeEA/L/7_Ratio_500_L_10_R_5.png","img/500/randomdotsizeEA/L/8_Ratio_500_L_8_R_4.png","img/900/equaldotsize/R/5_Ratio_900_L_9_R_10.png","img/250/equaldotanddens/R/8_Ratio_250_L_1_R_4.png","img/750/randomdotsizeEA/L/6_Ratio_750_L_24_R_18.png","img/900/equaldotsize/R/15_Ratio_900_L_9_R_10.png","img/250/randomdotsizeEA/R/12_Ratio_250_L_5_R_20.png","img/250/randomdotsizeEA/L/7_Ratio_250_L_8_R_2.png","img/500/equaldotanddens/R/9_Ratio_500_L_2_R_4.png","img/750/randomdotsizeEA/L/6_Ratio_750_L_24_R_18.png","img/900/randomdotsizeEA/L/2_Ratio_900_L_20_R_18.png","img/500/equaldotanddens/R/2_Ratio_500_L_3_R_6.png","img/250/equaldotsize/L/3_Ratio_250_L_8_R_2.png","img/750/equaldotanddens/R/11_Ratio_750_L_12_R_16.png","img/750/randomdotsizeEA/R/4_Ratio_750_L_15_R_20.png","img/250/equaldotsize/L/2_Ratio_250_L_16_R_4.png","img/250/equaldotsize/R/4_Ratio_250_L_3_R_12.png","img/900/equaldotanddens/R/11_Ratio_900_L_18_R_20.png","img/750/randomdotsizeEA/R/12_Ratio_750_L_3_R_4.png","img/250/equaldotsize/L/15_Ratio_250_L_12_R_3.png","img/750/equaldotsize/L/1_Ratio_750_L_20_R_15.png","img/500/randomdotsizeEA/L/5_Ratio_500_L_4_R_2.png","img/500/equaldotanddens/L/13_Ratio_500_L_12_R_6.png","img/250/randomdotsizeEA/L/3_Ratio_250_L_8_R_2.png","img/900/equaldotsize/R/3_Ratio_900_L_9_R_10.png","img/500/equaldotsize/R/2_Ratio_500_L_3_R_6.png","img/500/equaldotsize/L/10_Ratio_500_L_4_R_2.png","img/500/randomdotsizeEA/R/1_Ratio_500_L_9_R_18.png","img/750/equaldotsize/L/8_Ratio_750_L_4_R_3.png","img/250/equaldotsize/R/8_Ratio_250_L_1_R_4.png","img/250/equaldotanddens/R/10_Ratio_250_L_4_R_16.png","img/500/equaldotanddens/R/12_Ratio_500_L_1_R_2.png","img/900/randomdotsizeEA/L/8_Ratio_900_L_20_R_18.png","img/750/equaldotsize/R/4_Ratio_750_L_15_R_20.png","img/900/randomdotsizeEA/L/1_Ratio_900_L_10_R_9.png","img/750/randomdotsizeEA/R/7_Ratio_750_L_3_R_4.png","img/750/randomdotsizeEA/L/8_Ratio_750_L_4_R_3.png","img/750/equaldotsize/R/3_Ratio_750_L_15_R_20.png","img/250/equaldotanddens/R/12_Ratio_250_L_5_R_20.png","img/900/equaldotanddens/L/2_Ratio_900_L_20_R_18.png","img/250/equaldotsize/R/4_Ratio_250_L_3_R_12.png","img/500/equaldotsize/R/9_Ratio_500_L_2_R_4.png","img/250/equaldotanddens/L/7_Ratio_250_L_8_R_2.png","img/750/randomdotsizeEA/L/6_Ratio_750_L_24_R_18.png","img/250/equaldotsize/L/5_Ratio_250_L_24_R_6.png","img/900/equaldotanddens/R/5_Ratio_900_L_9_R_10.png","img/900/randomdotsizeEA/R/15_Ratio_900_L_9_R_10.png","img/900/randomdotsizeEA/L/2_Ratio_900_L_20_R_18.png","img/750/equaldotanddens/L/14_Ratio_750_L_8_R_6.png","img/900/equaldotanddens/R/6_Ratio_900_L_9_R_10.png","img/900/equaldotanddens/L/8_Ratio_900_L_20_R_18.png","img/500/randomdotsizeEA/R/14_Ratio_500_L_5_R_10.png","img/500/equaldotsize/R/9_Ratio_500_L_2_R_4.png","img/500/equaldotanddens/R/15_Ratio_500_L_1_R_2.png","img/900/equaldotsize/L/2_Ratio_900_L_20_R_18.png","img/500/equaldotsize/R/12_Ratio_500_L_1_R_2.png","img/750/equaldotanddens/L/1_Ratio_750_L_20_R_15.png","img/250/equaldotsize/R/9_Ratio_250_L_3_R_12.png","img/500/randomdotsizeEA/L/10_Ratio_500_L_4_R_2.png","img/500/randomdotsizeEA/R/2_Ratio_500_L_3_R_6.png","img/750/equaldotsize/R/11_Ratio_750_L_12_R_16.png","img/900/equaldotsize/L/2_Ratio_900_L_20_R_18.png","img/250/equaldotsize/L/2_Ratio_250_L_16_R_4.png","img/500/equaldotanddens/R/6_Ratio_500_L_9_R_18.png","img/250/equaldotanddens/L/5_Ratio_250_L_24_R_6.png","img/500/equaldotanddens/L/4_Ratio_500_L_18_R_9.png","img/250/randomdotsizeEA/L/2_Ratio_250_L_16_R_4.png","img/750/equaldotanddens/R/4_Ratio_750_L_15_R_20.png","img/900/randomdotsizeEA/L/4_Ratio_900_L_20_R_18.png","img/250/randomdotsizeEA/R/8_Ratio_250_L_1_R_4.png","img/250/randomdotsizeEA/R/10_Ratio_250_L_4_R_16.png","img/250/randomdotsizeEA/L/5_Ratio_250_L_24_R_6.png","img/500/equaldotsize/L/10_Ratio_500_L_4_R_2.png","img/250/randomdotsizeEA/R/12_Ratio_250_L_5_R_20.png","img/900/equaldotanddens/R/6_Ratio_900_L_9_R_10.png","img/750/randomdotsizeEA/L/9_Ratio_750_L_4_R_3.png","img/500/equaldotsize/R/3_Ratio_500_L_10_R_20.png","img/500/equaldotanddens/L/10_Ratio_500_L_4_R_2.png","img/900/equaldotanddens/L/2_Ratio_900_L_20_R_18.png","img/250/equaldotanddens/L/3_Ratio_250_L_8_R_2.png","img/900/equaldotsize/L/1_Ratio_900_L_10_R_9.png","img/900/equaldotsize/R/9_Ratio_900_L_18_R_20.png","img/250/equaldotanddens/L/1_Ratio_250_L_8_R_2.png","img/750/equaldotsize/R/12_Ratio_750_L_3_R_4.png","img/900/equaldotanddens/R/3_Ratio_900_L_9_R_10.png","img/500/equaldotanddens/L/4_Ratio_500_L_18_R_9.png","img/500/randomdotsizeEA/R/9_Ratio_500_L_2_R_4.png"],"Rat0":[["12_Ratio_0_L_9_R_0.png","13_Ratio_0_L_6_R_0.png","5_Ratio_0_L_2_R_0.png","6_Ratio_0_L_4_R_0.png","8_Ratio_0_L_6_R_0.png"],["1_Ratio_0_L_0_R_17.png","10_Ratio_0_L_0_R_22.png","11_Ratio_0_L_0_R_1.png","14_Ratio_0_L_0_R_24.png","15_Ratio_0_L_0_R_4.png","2_Ratio_0_L_0_R_5.png","3_Ratio_0_L_0_R_17.png","4_Ratio_0_L_0_R_7.png","7_Ratio_0_L_0_R_19.png","9_Ratio_0_L_0_R_15.png"]],"Rat250":[["1_Ratio_250_L_8_R_2.png","14_Ratio_250_L_12_R_3.png","15_Ratio_250_L_12_R_3.png","2_Ratio_250_L_16_R_4.png","3_Ratio_250_L_8_R_2.png","5_Ratio_250_L_24_R_6.png","7_Ratio_250_L_8_R_2.png"],["10_Ratio_250_L_4_R_16.png","11_Ratio_250_L_3_R_12.png","12_Ratio_250_L_5_R_20.png","13_Ratio_250_L_2_R_8.png","4_Ratio_250_L_3_R_12.png","6_Ratio_250_L_6_R_24.png","8_Ratio_250_L_1_R_4.png","9_Ratio_250_L_3_R_12.png"]],"Rat500":[["10_Ratio_500_L_4_R_2.png","11_Ratio_500_L_12_R_6.png","13_Ratio_500_L_12_R_6.png","4_Ratio_500_L_18_R_9.png","5_Ratio_500_L_4_R_2.png","7_Ratio_500_L_10_R_5.png","8_Ratio_500_L_8_R_4.png"],["1_Ratio_500_L_9_R_18.png","12_Ratio_500_L_1_R_2.png","14_Ratio_500_L_5_R_10.png","15_Ratio_500_L_1_R_2.png","2_Ratio_500_L_3_R_6.png","3_Ratio_500_L_10_R_20.png","6_Ratio_500_L_9_R_18.png","9_Ratio_500_L_2_R_4.png"]],"Rat750":[["1_Ratio_750_L_20_R_15.png","10_Ratio_750_L_4_R_3.png","13_Ratio_750_L_8_R_6.png","14_Ratio_750_L_8_R_6.png","6_Ratio_750_L_24_R_18.png","8_Ratio_750_L_4_R_3.png","9_Ratio_750_L_4_R_3.png"],["11_Ratio_750_L_12_R_16.png","12_Ratio_750_L_3_R_4.png","15_Ratio_750_L_9_R_12.png","2_Ratio_750_L_6_R_8.png","3_Ratio_750_L_15_R_20.png","4_Ratio_750_L_15_R_20.png","5_Ratio_750_L_15_R_20.png","7_Ratio_750_L_3_R_4.png"]],"Rat900":[["1_Ratio_900_L_10_R_9.png","10_Ratio_900_L_20_R_18.png","2_Ratio_900_L_20_R_18.png","4_Ratio_900_L_20_R_18.png","8_Ratio_900_L_20_R_18.png"],["11_Ratio_900_L_18_R_20.png","12_Ratio_900_L_18_R_20.png","13_Ratio_900_L_18_R_20.png","14_Ratio_900_L_18_R_20.png","15_Ratio_900_L_9_R_10.png","3_Ratio_900_L_9_R_10.png","5_Ratio_900_L_9_R_10.png","6_Ratio_900_L_9_R_10.png","7_Ratio_900_L_9_R_10.png","9_Ratio_900_L_18_R_20.png"]],"Rat1000":[["10_Ratio_1000_L_16_R_16.png","11_Ratio_1000_L_6_R_6.png","12_Ratio_1000_L_14_R_14.png","13_Ratio_1000_L_20_R_20.png","15_Ratio_1000_L_15_R_15.png","2_Ratio_1000_L_17_R_17.png","4_Ratio_1000_L_9_R_9.png","5_Ratio_1000_L_6_R_6.png","6_Ratio_1000_L_19_R_19.png","8_Ratio_1000_L_14_R_14.png","9_Ratio_1000_L_25_R_25.png"],["1_Ratio_1000_L_1_R_1.png","14_Ratio_1000_L_17_R_17.png","3_Ratio_1000_L_17_R_17.png","7_Ratio_1000_L_6_R_6.png"]]}},{"start_time":1551900830362,"click_time":1551900835349,"finger_time":1551900834989,"fix_duration":732.0640229096924,"trial":1,"RT":4627,"MT":360,"sideResp":2,"stimulus":"img/750/equaldotanddens/L/1_Ratio_750_L_20_R_15.png","xmouse":[789,789,789,789,789,789,789,789,789,789,789,789,789,789,789,789,789,789,789,789,789,789,789,789,789,789,789,789,789,789,789,789,789,789,789,789,789,789,789,789,789,789,789,789,789,789,789,789,789,789,789,789,789,789,789,789,789,789,789,789,789,789,789,789,789,789,789,789,789,789,789,789,789,789,789,789,789,789,789,789,789,789,789,789,789,789,789,789,789,789,789,789,789,789,789,789,789,789,789,789,789,789,789,789,789,789,789,789,789,789,789,789,789,789,789,789,789,789,789,789,789,789,789,789,789,789,789,789,789,789,789,789,789,789,789,789,789,789,789,789,789,789,789,789,789,789,789,789,789,789,789,789,789,789,789,789,789,789,789,789,789,789,789,789,789,789,789,789,789,789,789,789,789,789,789,789,789,789,789,789,789,789,789,789,789,789,789,789,789,789,789,789,789,789,789,789,789,789,789,789,789,789,789,789,789,789,789,789,789,789,789,789,789,789,789,789,789,789,789,789,789,789,789,789,789,789,789,789,789,789,807,1071,1275,1441,1504,1502,1481,1473,1468,1461,1441,1391,1365,1336,1303,1274,1217,1195,1166,1158],"ymouse":[644,644,644,644,644,644,644,644,644,644,644,644,644,644,644,644,644,644,644,644,644,644,644,644,644,644,644,644,644,644,644,644,644,644,644,644,644,644,644,644,644,644,644,644,644,644,644,644,644,644,644,644,644,644,644,644,644,644,644,644,644,644,644,644,644,644,644,644,644,644,644,644,644,644,644,644,644,644,644,644,644,644,644,644,644,644,644,644,644,644,644,644,644,644,644,644,644,644,644,644,644,644,644,644,644,644,644,644,644,644,644,644,644,644,644,644,644,644,644,644,644,644,644,644,644,644,644,644,644,644,644,644,644,644,644,644,644,644,644,644,644,644,644,644,644,644,644,644,644,644,644,644,644,644,644,644,644,644,644,644,644,644,644,644,644,644,644,644,644,644,644,644,644,644,644,644,644,644,644,644,644,644,644,644,644,644,644,644,644,644,644,644,644,644,644,644,644,644,644,644,644,644,644,644,644,644,644,644,644,644,644,644,644,644,644,644,644,644,644,644,644,644,644,644,644,644,644,644,644,644,632,499,415,359,336,319,246,207,176,151,121,99,98,99,104,104,93,83,68,63],"timestamp_mouse":[11,41,46,66,86,105,126,146,165,187,206,225,246,267,287,307,326,347,365,386,407,426,446,467,486,506,526,546,567,586,606,627,645,665,687,707,727,746,767,785,807,826,846,867,885,905,926,946,967,985,1006,1025,1045,1065,1087,1106,1126,1146,1166,1185,1207,1227,1246,1266,1287,1307,1326,1346,1365,1386,1407,1426,1446,1467,1485,1507,1525,1546,1566,1587,1605,1625,1645,1666,1686,1707,1726,1746,1765,1785,1806,1827,1847,1865,1885,1907,1926,1947,1965,1985,2005,2027,2045,2065,2086,2107,2127,2145,2165,2185,2207,2227,2247,2266,2286,2305,2326,2345,2367,2387,2406,2426,2446,2467,2487,2506,2527,2547,2566,2587,2606,2626,2646,2666,2686,2706,2726,2747,2765,2785,2807,2826,2845,2865,2885,2906,2926,2946,2966,2986,3007,3025,3047,3065,3085,3106,3126,3147,3166,3185,3207,3226,3247,3267,3286,3307,3326,3346,3366,3386,3406,3427,3445,3465,3487,3507,3526,3546,3566,3585,3607,3625,3647,3666,3685,3707,3726,3746,3766,3786,3807,3826,3846,3865,3886,3906,3926,3946,3966,3986,4007,4026,4045,4066,4086,4106,4127,4146,4167,4185,4207,4227,4247,4265,4286,4306,4326,4345,4365,4386,4405,4426,4447,4466,4487,4507,4525,4546,4566,4587,4605,4627,4646,4665,4686,4705,4726,4746,4766,4786,4806,4827,4845,4865,4885,4906,4926,4947,4965,4987],"xSR":741.5,"ySR":573.95,"xT1":424.9,"yT1":0,"xT2":1058.1,"yT2":0,"toosoon":0,"cond_shown":"equaldotanddens","ratio_trial":750,"smaller_num":"15","larger_num":"20","correct_side":1,"subjID":"mateochaurospna39","gender":"0","age":"14","school":"6"},{"start_time":1551900852453,"click_time":1551900865308,"finger_time":1551900864969,"fix_duration":1404.4032385024984,"trial":2,"RT":12516,"MT":339,"sideResp":2,"stimulus":"img/750/randomdotsizeEA/R/15_Ratio_750_L_9_R_12.png","xmouse":[831,831,831,831,831,831,831,831,831,831,831,831,831,831,831,831,831,831,831,831,831,831,831,831,831,831,831,831,831,831,831,831,831,831,831,831,831,831,831,831,831,831,831,831,831,831,831,831,831,831,831,831,831,831,831,831,831,831,831,831,831,831,831,831,831,831,831,831,831,831,831,831,831,831,831,831,831,831,831,831,831,831,831,831,831,831,831,831,831,831,831,831,831,831,831,831,831,831,831,831,831,831,831,831,831,831,831,831,831,831,831,831,831,831,831,831,831,831,831,831,831,831,831,831,831,831,831,831,831,831,831,831,831,831,831,831,831,831,831,831,831,831,831,831,831,831,831,831,831,831,831,831,831,831,831,831,831,831,831,831,831,831,831,831,831,831,831,831,831,831,831,831,831,831,831,831,831,831,831,831,831,831,831,831,831,831,831,831,831,831,831,831,831,831,831,831,831,831,831,831,831,831,831,831,831,831,831,831,831,831,831,831,831,831,831,831,831,831,831,831,831,831,831,831,831,831,831,831,831,831,831,831,831,831,831,831,831,831,831,831,831,831,831,831,831,831,831,831,831,831,831,831,831,831,831,831,831,831,831,831,831,831,831,831,831,831,831,831,831,831,831,831,831,831,831,831,831,831,831,831,831,831,831,831,831,831,831,831,831,831,831,831,831,831,831,831,831,831,831,831,831,831,831,831,831,831,831,831,831,831,831,831,831,831,831,831,831,831,831,831,831,831,831,831,831,831,831,831,831,831,831,831,831,831,831,831,831,831,831,831,831,831,831,831,831,831,831,831,831,831,831,831,831,831,831,831,831,831,831,831,831,831,831,831,831,831,831,831,831,831,831,831,831,831,831,831,831,831,831,831,831,831,831,831,831,831,831,831,831,831,831,831,831,831,831,831,831,831,831,831,831,831,831,831,831,831,831,831,831,831,831,831,831,831,831,831,831,831,831,831,831,831,831,831,831,831,831,831,831,831,831,831,831,831,831,831,831,831,831,831,831,831,831,831,831,831,831,831,831,831,831,831,831,831,831,831,831,831,831,831,831,831,831,831,831,831,831,831,831,831,831,831,831,831,831,831,831,831,831,831,831,831,831,831,831,831,831,831,831,831,831,831,831,831,831,831,831,831,831,831,831,831,831,831,831,831,831,831,831,831,831,831,831,831,831,831,831,831,831,831,831,831,831,831,831,831,831,831,831,831,831,831,831,831,831,831,831,831,831,831,831,831,831,831,831,831,831,831,831,831,831,831,831,831,831,831,831,831,831,831,831,831,831,831,831,831,831,831,831,831,822,813,809,797,777,761,761,761,761,761,761,761,761,761,761,761,761,761,761,762,766,768,770,773,776,779,783,785,786,788,788,788,788,788,788,788,788,788,788,788,788,788,788,788,788,788,788,788,788,788,788,788,788,784,776,769,790,850,940,1036,1112,1182,1195,1201,1201,1201,1203,1208,1209,1209,1199,1164,1154],"ymouse":[637,637,637,637,637,637,637,637,637,637,637,637,637,637,637,637,637,637,637,637,637,637,637,637,637,637,637,637,637,637,637,637,637,637,637,637,637,637,637,637,637,637,637,637,637,637,637,637,637,637,637,637,637,637,637,637,637,637,637,637,637,637,637,637,637,637,637,637,637,637,637,637,637,637,637,637,637,637,637,637,637,637,637,637,637,637,637,637,637,637,637,637,637,637,637,637,637,637,637,637,637,637,637,637,637,637,637,637,637,637,637,637,637,637,637,637,637,637,637,637,637,637,637,637,637,637,637,637,637,637,637,637,637,637,637,637,637,637,637,637,637,637,637,637,637,637,637,637,637,637,637,637,637,637,637,637,637,637,637,637,637,637,637,637,637,637,637,637,637,637,637,637,637,637,637,637,637,637,637,637,637,637,637,637,637,637,637,637,637,637,637,637,637,637,637,637,637,637,637,637,637,637,637,637,637,637,637,637,637,637,637,637,637,637,637,637,637,637,637,637,637,637,637,637,637,637,637,637,637,637,637,637,637,637,637,637,637,637,637,637,637,637,637,637,637,637,637,637,637,637,637,637,637,637,637,637,637,637,637,637,637,637,637,637,637,637,637,637,637,637,637,637,637,637,637,637,637,637,637,637,637,637,637,637,637,637,637,637,637,637,637,637,637,637,637,637,637,637,637,637,637,637,637,637,637,637,637,637,637,637,637,637,637,637,637,637,637,637,637,637,637,637,637,637,637,637,637,637,637,637,637,637,637,637,637,637,637,637,637,637,637,637,637,637,637,637,637,637,637,637,637,637,637,637,637,637,637,637,637,637,637,637,637,637,637,637,637,637,637,637,637,637,637,637,637,637,637,637,637,637,637,637,637,637,637,637,637,637,637,637,637,637,637,637,637,637,637,637,637,637,637,637,637,637,637,637,637,637,637,637,637,637,637,637,637,637,637,637,637,637,637,637,637,637,637,637,637,637,637,637,637,637,637,637,637,637,637,637,637,637,637,637,637,637,637,637,637,637,637,637,637,637,637,637,637,637,637,637,637,637,637,637,637,637,637,637,637,637,637,637,637,637,637,637,637,637,637,637,637,637,637,637,637,637,637,637,637,637,637,637,637,637,637,637,637,637,637,637,637,637,637,637,637,637,637,637,637,637,637,637,637,637,637,637,637,637,637,637,637,637,637,637,637,637,637,637,637,637,637,637,637,637,637,637,637,637,637,637,637,637,637,637,637,637,637,637,637,637,637,637,637,637,637,637,637,637,637,637,637,637,637,637,637,637,637,637,637,637,637,637,637,634,633,629,623,617,617,617,617,617,617,617,617,617,617,617,617,617,617,619,622,623,625,627,629,632,635,636,637,638,638,638,638,638,638,638,638,638,638,638,638,638,638,638,638,638,638,638,638,638,638,638,638,632,605,538,480,401,320,240,186,127,113,104,103,103,96,92,88,86,84,79,77],"timestamp_mouse":[14,36,54,74,94,115,135,156,176,196,214,235,255,276,294,315,335,355,375,395,416,436,455,474,494,516,536,555,576,596,614,636,656,675,695,716,736,755,774,794,814,835,855,875,895,915,936,955,976,996,1014,1035,1055,1076,1095,1115,1136,1156,1176,1194,1215,1235,1254,1274,1294,1314,1335,1355,1376,1395,1416,1435,1455,1474,1494,1514,1534,1555,1576,1596,1615,1635,1654,1674,1694,1716,1735,1755,1776,1795,1815,1835,1855,1876,1895,1915,1935,1956,1976,1995,2016,2035,2056,2075,2095,2115,2136,2155,2176,2195,2216,2236,2255,2275,2295,2316,2336,2355,2374,2395,2416,2435,2456,2474,2494,2514,2535,2554,2575,2594,2615,2635,2656,2674,2694,2715,2735,2754,2775,2796,2814,2835,2855,2876,2896,2916,2934,2955,2975,2995,3016,3036,3055,3076,3095,3116,3135,3156,3174,3196,3216,3235,3256,3274,3294,3315,3334,3356,3376,3395,3415,3436,3456,3474,3494,3515,3536,3555,3576,3594,3614,3634,3654,3675,3696,3715,3735,3754,3774,3795,3816,3835,3855,3874,3894,3914,3934,3955,3976,3996,4015,4035,4056,4076,4094,4115,4136,4154,4175,4196,4216,4235,4256,4275,4296,4315,4335,4354,4375,4395,4415,4435,4456,4476,4495,4515,4535,4555,4575,4594,4615,4635,4655,4675,4696,4716,4736,4754,4776,4795,4815,4835,4855,4874,4894,4916,4935,4956,4976,4996,5014,5035,5055,5075,5095,5116,5134,5154,5175,5196,5216,5235,5255,5275,5294,5314,5335,5356,5375,5395,5415,5434,5456,5475,5495,5515,5536,5555,5575,5596,5615,5635,5656,5674,5694,5716,5735,5756,5776,5795,5816,5836,5856,5875,5894,5915,5936,5954,5974,5995,6015,6036,6055,6075,6094,6115,6136,6155,6175,6195,6215,6236,6256,6274,6294,6315,6334,6356,6376,6395,6415,6436,6456,6476,6495,6516,6536,6556,6576,6595,6614,6634,6656,6676,6695,6715,6736,6755,6774,6795,6815,6836,6855,6875,6895,6915,6935,6955,6975,6994,7016,7035,7055,7074,7095,7115,7135,7155,7176,7194,7215,7236,7255,7275,7296,7316,7334,7356,7375,7396,7416,7436,7454,7475,7495,7516,7535,7555,7575,7594,7616,7635,7656,7676,7694,7715,7735,7756,7776,7796,7815,7835,7856,7875,7895,7916,7935,7955,7974,7996,8015,8036,8056,8074,8095,8116,8135,8154,8175,8196,8216,8235,8255,8275,8296,8316,8336,8355,8376,8396,8416,8436,8454,8476,8495,8516,8535,8555,8575,8595,8615,8634,8655,8676,8695,8716,8735,8755,8776,8796,8815,8836,8854,8875,8895,8914,8934,8954,8975,8995,9016,9035,9056,9076,9094,9114,9136,9155,9174,9194,9215,9236,9255,9275,9296,9316,9336,9356,9375,9396,9416,9435,9454,9475,9495,9516,9535,9555,9575,9595,9614,9635,9655,9674,9695,9716,9735,9756,9774,9795,9814,9834,9855,9876,9894,9916,9934,9954,9975,9995,10014,10035,10055,10076,10094,10116,10136,10154,10175,10196,10216,10234,10255,10276,10295,10316,10336,10355,10375,10396,10416,10436,10455,10474,10495,10516,10535,10555,10575,10595,10615,10635,10655,10675,10695,10715,10735,10755,10775,10795,10815,10835,10855,10875,10895,10915,10934,10954,10974,10996,11014,11035,11055,11075,11096,11116,11134,11154,11176,11195,11216,11235,11254,11276,11296,11316,11335,11356,11375,11395,11414,11435,11454,11475,11495,11516,11535,11555,11575,11594,11616,11634,11654,11675,11696,11716,11735,11755,11776,11794,11816,11835,11855,11874,11894,11915,11935,11956,11976,11996,12016,12035,12055,12074,12096,12115,12134,12155,12176,12195,12215,12235,12255,12275,12296,12315,12336,12355,12376,12395,12415,12436,12455,12474,12496,12516,12534,12555,12576,12595,12616,12635,12655,12676,12695,12715,12736,12754,12775,12795,12814,12834,12855],"xSR":741.5,"ySR":573.95,"xT1":424.9,"yT1":0,"xT2":1058.1,"yT2":0,"toosoon":0,"cond_shown":"randomdotsizeEA","ratio_trial":750,"smaller_num":"9","larger_num":"12","correct_side":2,"subjID":"mateochaurospna39","gender":"0","age":"14","school":"6"},{"start_time":1551900872941,"click_time":1551900894869,"finger_time":1551900893549,"fix_duration":890.4532921358325,"trial":3,"RT":20608,"MT":1320,"sideResp":2,"stimulus":"img/900/randomdotsizeEA/R/14_Ratio_900_L_18_R_20.png","xmouse":[771,771,771,771,771,771,771,771,771,771,771,771,771,771,771,771,771,771,771,771,771,771,771,771,771,771,771,771,771,771,771,771,771,771,771,771,771,771,771,771,771,771,771,771,771,771,771,771,771,771,771,771,771,771,771,771,771,771,771,771,771,771,771,771,771,771,771,771,771,771,771,771,771,771,771,771,771,771,771,771,771,771,771,771,771,771,771,771,771,771,771,771,771,771,771,771,771,771,771,771,771,771,771,771,771,771,771,771,771,771,771,771,771,771,771,771,771,771,771,771,771,771,771,771,771,771,771,771,771,771,771,771,771,771,771,771,771,771,771,771,771,771,771,771,771,771,771,771,771,771,771,771,771,771,771,771,771,771,771,771,771,771,771,771,771,771,771,771,771,771,771,771,771,771,771,771,771,771,771,771,771,771,771,771,771,771,771,771,771,771,771,771,771,771,771,771,771,771,771,771,771,771,771,771,771,771,771,771,771,771,771,771,771,771,771,771,771,771,771,771,771,771,771,771,771,771,771,771,771,771,771,771,771,771,771,771,771,771,771,771,771,771,771,771,771,771,771,771,771,771,771,771,771,771,771,771,771,771,771,771,771,771,771,771,771,771,771,771,771,771,771,771,771,771,771,771,771,771,771,771,771,771,771,771,771,771,771,771,771,771,771,771,771,771,771,771,771,771,771,771,771,771,771,771,771,771,771,771,771,771,771,771,771,771,771,771,771,771,771,771,771,771,771,771,771,771,771,771,771,771,771,771,771,771,771,771,771,771,771,771,771,771,771,771,771,771,771,771,771,771,771,771,771,771,771,771,771,771,771,771,771,771,771,771,771,771,771,771,771,771,771,771,771,771,771,771,771,771,771,771,771,771,771,771,771,771,771,771,771,771,771,771,771,771,771,771,771,771,771,771,771,771,771,771,771,771,771,771,771,771,771,771,771,771,771,771,771,771,771,771,771,771,771,771,771,771,771,771,771,771,771,771,771,771,771,771,771,771,771,771,771,771,771,771,771,771,771,771,771,771,771,771,771,771,771,771,771,771,771,771,771,771,771,771,771,771,771,771,771,771,771,771,771,771,771,771,771,771,771,771,771,771,771,771,771,771,771,771,771,771,771,771,771,771,771,771,771,771,771,771,771,771,771,771,771,771,771,771,771,771,771,771,771,771,771,771,771,771,771,771,771,771,771,771,771,771,771,771,771,771,771,771,771,771,771,771,771,771,771,771,771,771,771,771,771,771,771,771,771,771,771,771,771,771,771,771,771,771,771,771,771,771,771,771,771,771,771,771,771,771,771,771,771,771,771,771,771,771,771,771,771,771,771,771,771,771,771,771,771,771,771,771,771,771,771,771,771,771,771,771,771,771,771,771,771,771,771,771,771,771,771,771,771,771,771,771,771,771,771,771,771,771,771,771,771,771,771,771,771,771,771,771,771,771,771,771,771,771,771,771,771,771,771,771,771,771,771,771,771,771,771,771,771,771,771,771,771,771,771,771,771,771,771,771,771,771,771,771,771,771,771,771,771,771,771,771,771,771,771,771,771,771,771,771,771,771,771,771,771,771,771,771,771,771,771,771,771,771,771,771,771,771,771,771,771,771,771,771,771,771,771,771,771,771,771,771,771,771,771,771,771,771,771,771,771,771,771,771,771,771,771,771,771,771,771,771,771,771,771,771,771,771,771,771,771,771,771,771,771,771,771,771,771,771,771,771,771,771,771,771,771,771,771,771,771,771,771,771,771,771,771,771,771,771,771,771,771,771,771,771,771,771,771,771,771,771,771,771,771,771,771,771,771,771,771,771,771,771,771,771,771,771,771,771,771,771,771,771,771,771,771,771,771,771,771,771,771,771,771,771,771,771,771,771,771,771,771,771,771,771,771,771,771,771,771,771,771,771,771,771,771,771,771,771,771,771,771,771,771,771,771,771,771,771,771,771,771,771,771,771,771,771,771,771,771,771,771,771,771,771,771,771,771,771,771,771,771,771,771,771,771,771,771,771,771,771,771,771,771,771,771,771,771,771,771,771,771,771,771,771,771,771,771,771,771,771,771,771,771,771,771,771,771,771,771,771,771,771,771,771,771,771,771,771,771,771,771,771,771,771,771,771,771,771,771,771,771,771,771,771,771,771,771,771,771,771,771,771,771,771,771,771,771,771,771,771,771,771,771,771,771,771,771,771,771,771,771,771,771,771,771,771,771,771,771,771,771,771,771,771,771,771,771,771,771,771,771,771,771,771,771,771,771,771,771,771,771,771,771,771,771,771,771,771,771,771,771,771,771,771,771,771,771,771,771,771,771,771,771,771,771,771,771,771,771,771,771,771,771,781,848,924,969,978,980,981,981,981,971,945,918,878,780,749,726,713,705,703,707,709,710,711,711,717,727,743,767,862,913,964,1053,1112,1199,1205,1189,1151,1104,961,857,720,557,300,29,0,0,0,2,8,23,30,59,175,273,403,524,649,884,987,1066,1115,1147,1159,1173,1173,1171,1159,1134],"ymouse":[638,638,638,638,638,638,638,638,638,638,638,638,638,638,638,638,638,638,638,638,638,638,638,638,638,638,638,638,638,638,638,638,638,638,638,638,638,638,638,638,638,638,638,638,638,638,638,638,638,638,638,638,638,638,638,638,638,638,638,638,638,638,638,638,638,638,638,638,638,638,638,638,638,638,638,638,638,638,638,638,638,638,638,638,638,638,638,638,638,638,638,638,638,638,638,638,638,638,638,638,638,638,638,638,638,638,638,638,638,638,638,638,638,638,638,638,638,638,638,638,638,638,638,638,638,638,638,638,638,638,638,638,638,638,638,638,638,638,638,638,638,638,638,638,638,638,638,638,638,638,638,638,638,638,638,638,638,638,638,638,638,638,638,638,638,638,638,638,638,638,638,638,638,638,638,638,638,638,638,638,638,638,638,638,638,638,638,638,638,638,638,638,638,638,638,638,638,638,638,638,638,638,638,638,638,638,638,638,638,638,638,638,638,638,638,638,638,638,638,638,638,638,638,638,638,638,638,638,638,638,638,638,638,638,638,638,638,638,638,638,638,638,638,638,638,638,638,638,638,638,638,638,638,638,638,638,638,638,638,638,638,638,638,638,638,638,638,638,638,638,638,638,638,638,638,638,638,638,638,638,638,638,638,638,638,638,638,638,638,638,638,638,638,638,638,638,638,638,638,638,638,638,638,638,638,638,638,638,638,638,638,638,638,638,638,638,638,638,638,638,638,638,638,638,638,638,638,638,638,638,638,638,638,638,638,638,638,638,638,638,638,638,638,638,638,638,638,638,638,638,638,638,638,638,638,638,638,638,638,638,638,638,638,638,638,638,638,638,638,638,638,638,638,638,638,638,638,638,638,638,638,638,638,638,638,638,638,638,638,638,638,638,638,638,638,638,638,638,638,638,638,638,638,638,638,638,638,638,638,638,638,638,638,638,638,638,638,638,638,638,638,638,638,638,638,638,638,638,638,638,638,638,638,638,638,638,638,638,638,638,638,638,638,638,638,638,638,638,638,638,638,638,638,638,638,638,638,638,638,638,638,638,638,638,638,638,638,638,638,638,638,638,638,638,638,638,638,638,638,638,638,638,638,638,638,638,638,638,638,638,638,638,638,638,638,638,638,638,638,638,638,638,638,638,638,638,638,638,638,638,638,638,638,638,638,638,638,638,638,638,638,638,638,638,638,638,638,638,638,638,638,638,638,638,638,638,638,638,638,638,638,638,638,638,638,638,638,638,638,638,638,638,638,638,638,638,638,638,638,638,638,638,638,638,638,638,638,638,638,638,638,638,638,638,638,638,638,638,638,638,638,638,638,638,638,638,638,638,638,638,638,638,638,638,638,638,638,638,638,638,638,638,638,638,638,638,638,638,638,638,638,638,638,638,638,638,638,638,638,638,638,638,638,638,638,638,638,638,638,638,638,638,638,638,638,638,638,638,638,638,638,638,638,638,638,638,638,638,638,638,638,638,638,638,638,638,638,638,638,638,638,638,638,638,638,638,638,638,638,638,638,638,638,638,638,638,638,638,638,638,638,638,638,638,638,638,638,638,638,638,638,638,638,638,638,638,638,638,638,638,638,638,638,638,638,638,638,638,638,638,638,638,638,638,638,638,638,638,638,638,638,638,638,638,638,638,638,638,638,638,638,638,638,638,638,638,638,638,638,638,638,638,638,638,638,638,638,638,638,638,638,638,638,638,638,638,638,638,638,638,638,638,638,638,638,638,638,638,638,638,638,638,638,638,638,638,638,638,638,638,638,638,638,638,638,638,638,638,638,638,638,638,638,638,638,638,638,638,638,638,638,638,638,638,638,638,638,638,638,638,638,638,638,638,638,638,638,638,638,638,638,638,638,638,638,638,638,638,638,638,638,638,638,638,638,638,638,638,638,638,638,638,638,638,638,638,638,638,638,638,638,638,638,638,638,638,638,638,638,638,638,638,638,638,638,638,638,638,638,638,638,638,638,638,638,638,638,638,638,638,638,638,638,638,638,638,638,638,638,638,638,638,638,638,638,638,638,638,638,638,638,638,638,638,638,638,638,638,638,638,638,638,638,638,638,638,638,638,638,638,638,638,638,638,638,638,638,638,638,638,638,638,638,638,638,638,638,638,638,638,638,638,638,638,638,638,638,638,638,638,638,638,638,638,638,638,638,638,638,638,638,638,638,638,638,638,638,638,638,638,638,638,638,638,638,638,638,638,638,638,638,638,638,638,638,638,638,638,638,638,638,638,638,638,638,638,638,638,638,638,638,638,638,638,638,638,638,638,638,638,638,638,638,638,638,638,638,638,638,638,638,638,638,638,638,638,638,638,637,636,620,612,613,613,613,612,612,609,602,592,588,585,585,585,585,585,589,597,601,603,604,605,605,605,605,605,605,590,559,503,353,224,0,0,0,0,0,0,0,0,0,29,116,153,177,187,195,195,194,193,189,189,189,189,189,189,189,187,177,171,165,161,145,136,125,109,91],"timestamp_mouse":[21,27,48,67,89,107,127,149,167,187,209,228,248,267,288,308,329,348,368,387,408,427,448,468,489,507,528,548,569,588,607,627,648,668,688,709,729,747,767,788,807,829,848,868,887,907,928,948,969,988,1009,1029,1047,1067,1088,1107,1127,1148,1168,1188,1207,1227,1248,1268,1287,1307,1327,1348,1368,1389,1408,1428,1448,1468,1487,1507,1528,1547,1568,1588,1608,1628,1648,1668,1689,1708,1727,1748,1768,1788,1809,1828,1848,1869,1888,1908,1929,1947,1969,1989,2007,2028,2048,2068,2089,2109,2129,2149,2167,2189,2207,2227,2248,2267,2288,2307,2327,2349,2368,2389,2407,2428,2448,2467,2487,2507,2528,2548,2567,2588,2609,2627,2648,2668,2689,2709,2728,2749,2769,2788,2807,2827,2847,2868,2889,2908,2929,2949,2967,2988,3007,3028,3049,3067,3087,3108,3128,3148,3167,3187,3207,3227,3247,3268,3289,3309,3328,3348,3367,3387,3408,3428,3448,3468,3489,3507,3528,3547,3568,3587,3607,3628,3648,3667,3687,3708,3729,3748,3768,3789,3808,3828,3848,3867,3888,3907,3929,3947,3968,3988,4007,4029,4049,4067,4087,4109,4127,4148,4168,4189,4209,4228,4248,4268,4288,4308,4328,4348,4369,4388,4407,4427,4448,4467,4488,4508,4529,4548,4567,4588,4607,4629,4648,4668,4688,4707,4728,4749,4768,4787,4809,4829,4849,4869,4888,4907,4927,4948,4967,4988,5009,5029,5048,5067,5088,5107,5128,5148,5167,5187,5207,5227,5249,5269,5289,5308,5329,5348,5368,5388,5407,5428,5449,5468,5488,5508,5527,5548,5569,5589,5608,5628,5647,5667,5688,5709,5727,5747,5768,5789,5808,5829,5848,5867,5887,5907,5929,5947,5968,5988,6008,6028,6048,6068,6089,6109,6129,6148,6167,6188,6209,6229,6247,6267,6287,6307,6329,6349,6369,6389,6407,6429,6448,6467,6489,6509,6529,6549,6567,6587,6607,6629,6648,6667,6687,6708,6729,6747,6767,6787,6808,6829,6849,6868,6889,6907,6927,6947,6967,6989,7008,7027,7047,7068,7088,7108,7127,7148,7168,7187,7208,7228,7248,7268,7289,7309,7327,7347,7369,7388,7408,7428,7448,7468,7488,7508,7529,7548,7567,7587,7607,7628,7648,7667,7688,7707,7728,7748,7767,7787,7808,7827,7847,7869,7889,7908,7927,7948,7968,7988,8008,8028,8047,8068,8087,8109,8134,8149,8169,8187,8207,8228,8247,8268,8289,8308,8328,8348,8368,8388,8409,8429,8449,8468,8487,8507,8527,8548,8569,8587,8607,8629,8648,8667,8688,8709,8729,8749,8769,8788,8808,8828,8849,8869,8888,8907,8928,8948,8969,8987,9009,9029,9048,9067,9087,9109,9129,9147,9167,9188,9208,9228,9249,9267,9287,9308,9327,9348,9367,9389,9408,9427,9447,9467,9488,9508,9529,9549,9568,9589,9607,9629,9647,9667,9689,9709,9729,9749,9769,9787,9807,9828,9849,9867,9887,9909,9929,9949,9967,9987,10009,10028,10048,10067,10088,10109,10129,10148,10167,10187,10207,10229,10247,10267,10289,10308,10329,10349,10367,10388,10407,10429,10447,10468,10487,10507,10527,10548,10568,10589,10607,10628,10648,10668,10689,10707,10727,10747,10767,10788,10808,10828,10849,10868,10888,10909,10927,10947,10969,10988,11007,11027,11048,11067,11088,11108,11127,11149,11167,11187,11208,11228,11249,11268,11287,11308,11328,11348,11368,11388,11409,11427,11447,11468,11487,11509,11529,11548,11569,11588,11608,11628,11648,11669,11688,11707,11729,11749,11768,11789,11809,11829,11849,11867,11887,11908,11928,11948,11969,11989,12008,12028,12047,12067,12087,12107,12128,12147,12167,12188,12209,12228,12249,12268,12287,12307,12328,12348,12368,12387,12407,12428,12448,12467,12489,12508,12529,12549,12567,12588,12608,12627,12647,12669,12687,12707,12727,12748,12767,12787,12809,12828,12848,12869,12888,12907,12928,12947,12967,12987,13009,13027,13047,13068,13088,13107,13128,13148,13168,13189,13207,13227,13249,13267,13287,13308,13327,13349,13367,13387,13408,13429,13448,13467,13488,13508,13527,13549,13567,13589,13608,13628,13648,13667,13689,13708,13727,13747,13769,13788,13807,13829,13849,13868,13888,13908,13927,13949,13968,13989,14007,14029,14049,14068,14088,14108,14129,14147,14168,14187,14208,14229,14247,14269,14288,14307,14327,14347,14368,14388,14408,14427,14447,14468,14489,14508,14528,14549,14567,14588,14607,14627,14647,14667,14689,14709,14727,14747,14768,14788,14807,14827,14847,14867,14888,14909,14929,14949,14967,14987,15007,15028,15047,15067,15089,15108,15129,15149,15167,15187,15208,15228,15249,15269,15287,15308,15328,15347,15367,15389,15407,15427,15447,15467,15487,15507,15528,15548,15569,15588,15609,15629,15648,15668,15688,15709,15727,15747,15768,15788,15808,15827,15847,15867,15887,15907,15929,15949,15968,15987,16007,16029,16048,16069,16088,16108,16129,16148,16168,16188,16207,16228,16248,16269,16288,16307,16327,16347,16368,16388,16407,16428,16449,16468,16488,16507,16527,16547,16567,16588,16608,16629,16647,16668,16688,16707,16727,16748,16767,16788,16807,16829,16847,16867,16887,16908,16928,16948,16969,16989,17007,17028,17049,17077,17089,17108,17129,17148,17167,17188,17207,17229,17249,17268,17287,17307,17327,17347,17368,17387,17407,17427,17448,17468,17488,17509,17528,17548,17567,17589,17609,17628,17648,17667,17688,17708,17727,17748,17769,17789,17809,17829,17849,17869,17887,17907,17927,17948,17969,17989,18007,18027,18048,18067,18088,18109,18127,18147,18168,18188,18208,18228,18248,18268,18288,18307,18327,18348,18368,18389,18408,18428,18448,18467,18487,18508,18528,18547,18567,18589,18608,18627,18648,18667,18689,18708,18729,18749,18769,18789,18808,18828,18847,18867,18888,18908,18927,18947,18968,18988,19009,19029,19048,19067,19087,19108,19129,19148,19167,19187,19208,19229,19248,19267,19287,19309,19329,19347,19368,19388,19408,19428,19447,19469,19487,19507,19527,19548,19568,19587,19608,19629,19649,19668,19687,19708,19728,19749,19767,19788,19808,19829,19849,19867,19887,19907,19928,19947,19969,19988,20007,20029,20047,20068,20087,20109,20129,20148,20168,20188,20207,20227,20247,20268,20289,20307,20327,20348,20368,20388,20407,20428,20447,20468,20488,20508,20528,20547,20567,20587,20608,20627,20647,20667,20687,20708,20728,20747,20767,20787,20808,20829,20849,20867,20887,20908,20927,20947,20969,20988,21007,21028,21047,21068,21089,21109,21128,21147,21169,21188,21208,21227,21247,21267,21287,21308,21327,21348,21367,21388,21407,21427,21448,21467,21487,21507,21528,21547,21569,21588,21608,21628,21647,21669,21689,21708,21728,21747,21769,21789,21809,21828,21848,21868,21888,21908,21928],"xSR":741.5,"ySR":573.95,"xT1":424.9,"yT1":0,"xT2":1058.1,"yT2":0,"toosoon":0,"cond_shown":"randomdotsizeEA","ratio_trial":900,"smaller_num":"18","larger_num":"20","correct_side":2,"subjID":"mateochaurospna39","gender":"0","age":"14","school":"6"},{"start_time":1551900896933,"click_time":1551900903828,"finger_time":1551900903030,"fix_duration":1043.6619898047697,"trial":4,"RT":6097,"MT":798,"sideResp":1,"stimulus":"img/900/randomdotsizeEA/L/8_Ratio_900_L_20_R_18.png","xmouse":[772,772,772,772,772,772,772,772,772,772,772,772,772,772,772,772,772,772,772,772,772,772,772,772,772,772,772,772,772,772,772,772,772,772,772,772,772,772,772,772,772,772,772,772,772,772,772,772,772,772,772,772,772,772,772,772,772,772,772,772,772,772,772,772,772,772,772,772,772,772,772,772,772,772,772,772,772,772,772,772,772,772,772,772,772,772,772,772,772,772,772,772,772,772,772,772,772,772,772,772,772,772,772,772,772,772,772,772,772,772,772,772,772,772,772,772,772,772,772,772,772,772,772,772,772,772,772,772,772,772,772,772,772,772,772,772,772,772,772,772,772,772,772,772,772,772,772,772,772,772,772,772,772,772,772,772,772,772,772,772,772,772,772,772,772,772,772,772,772,772,772,772,772,772,772,772,772,772,772,772,772,772,772,772,772,772,772,772,772,772,772,772,772,772,772,772,772,772,772,772,772,772,772,772,772,772,772,772,772,772,772,772,772,772,772,772,772,772,772,772,772,772,772,772,772,772,772,772,772,772,772,772,772,772,772,772,772,772,772,772,772,772,772,772,772,772,772,772,772,772,772,772,772,772,772,772,772,772,772,772,772,772,772,772,772,772,772,772,772,772,772,772,772,772,772,772,772,772,772,772,772,772,772,772,772,772,772,772,772,772,772,772,772,772,772,772,772,772,772,772,772,760,752,746,741,737,734,731,730,730,730,730,730,730,724,698,662,540,445,335,174,103,63,61,61,61,76,156,208,243,261,268,289,298,303,306,308,308,307,307,315,340,395,413,428],"ymouse":[635,635,635,635,635,635,635,635,635,635,635,635,635,635,635,635,635,635,635,635,635,635,635,635,635,635,635,635,635,635,635,635,635,635,635,635,635,635,635,635,635,635,635,635,635,635,635,635,635,635,635,635,635,635,635,635,635,635,635,635,635,635,635,635,635,635,635,635,635,635,635,635,635,635,635,635,635,635,635,635,635,635,635,635,635,635,635,635,635,635,635,635,635,635,635,635,635,635,635,635,635,635,635,635,635,635,635,635,635,635,635,635,635,635,635,635,635,635,635,635,635,635,635,635,635,635,635,635,635,635,635,635,635,635,635,635,635,635,635,635,635,635,635,635,635,635,635,635,635,635,635,635,635,635,635,635,635,635,635,635,635,635,635,635,635,635,635,635,635,635,635,635,635,635,635,635,635,635,635,635,635,635,635,635,635,635,635,635,635,635,635,635,635,635,635,635,635,635,635,635,635,635,635,635,635,635,635,635,635,635,635,635,635,635,635,635,635,635,635,635,635,635,635,635,635,635,635,635,635,635,635,635,635,635,635,635,635,635,635,635,635,635,635,635,635,635,635,635,635,635,635,635,635,635,635,635,635,635,635,635,635,635,635,635,635,635,635,635,635,635,635,635,635,635,635,635,635,635,635,635,635,635,635,635,635,635,635,635,635,635,635,635,635,635,635,635,635,635,635,635,634,634,634,634,635,636,637,639,639,639,639,639,639,635,566,458,329,59,0,0,0,0,0,0,0,0,15,69,95,106,105,100,79,68,61,56,55,53,52,52,52,62,79,84,87],"timestamp_mouse":[16,35,57,75,95,116,136,156,176,197,217,236,255,276,295,315,337,356,375,395,416,436,456,476,496,516,536,556,576,597,615,635,655,675,697,716,736,756,776,796,816,835,856,877,897,917,937,956,977,997,1015,1036,1057,1075,1096,1117,1137,1157,1175,1195,1215,1235,1256,1276,1295,1315,1336,1356,1375,1396,1417,1437,1455,1475,1497,1515,1536,1556,1576,1596,1616,1635,1655,1676,1696,1716,1737,1756,1776,1795,1816,1837,1856,1875,1895,1916,1936,1956,1976,1996,2015,2036,2055,2076,2096,2116,2136,2156,2175,2196,2216,2237,2257,2276,2295,2316,2336,2355,2377,2395,2415,2437,2455,2475,2495,2516,2535,2556,2576,2595,2617,2635,2656,2675,2695,2715,2737,2757,2775,2796,2816,2837,2857,2875,2895,2917,2936,2956,2977,2995,3015,3035,3056,3075,3095,3117,3136,3157,3175,3196,3215,3235,3256,3275,3296,3316,3335,3356,3376,3397,3416,3435,3455,3475,3495,3515,3536,3556,3575,3596,3615,3636,3655,3677,3696,3715,3735,3757,3776,3795,3816,3837,3855,3875,3895,3917,3937,3955,3975,3995,4015,4036,4056,4075,4095,4117,4137,4156,4176,4196,4216,4237,4256,4275,4295,4316,4336,4357,4377,4397,4416,4436,4455,4477,4496,4515,4535,4555,4575,4595,4615,4637,4657,4675,4696,4716,4735,4756,4777,4797,4815,4836,4856,4875,4896,4917,4937,4955,4975,4996,5016,5037,5057,5076,5095,5115,5136,5156,5175,5197,5215,5236,5255,5277,5297,5317,5337,5356,5376,5395,5416,5437,5456,5477,5496,5515,5536,5557,5576,5596,5616,5637,5656,5675,5697,5716,5735,5756,5776,5795,5816,5836,5855,5875,5896,5916,5936,5956,5977,5996,6015,6037,6056,6075,6097,6117,6136,6155,6177,6196,6216,6237,6257,6276,6296,6315,6336,6357,6375,6395,6415,6436,6455,6476,6495,6515,6535,6556,6576,6596,6615,6636,6655,6675,6696,6716,6735,6755,6775,6796,6816,6835,6855,6875,6895],"xSR":741.5,"ySR":573.95,"xT1":424.9,"yT1":0,"xT2":1058.1,"yT2":0,"toosoon":0,"cond_shown":"randomdotsizeEA","ratio_trial":900,"smaller_num":"18","larger_num":"20","correct_side":1,"subjID":"mateochaurospna39","gender":"0","age":"14","school":"6"},{"start_time":1551900905775,"click_time":1551900907709,"finger_time":1551900906589,"fix_duration":1144.9028671587519,"trial":5,"RT":814,"MT":1120,"sideResp":2,"stimulus":"img/500/equaldotsize/R/2_Ratio_500_L_3_R_6.png","xmouse":[780,780,780,780,780,780,780,780,780,780,780,780,780,780,780,780,780,780,780,780,780,780,780,780,780,780,780,780,780,780,780,780,780,780,780,780,780,780,780,778,636,524,426,342,219,192,174,173,179,201,257,275,285,291,296,304,305,305,305,305,305,305,305,305,305,305,304,304,303,303,303,303,303,303,303,303,303,304,358,435,654,753,832,908,966,1002,997,987,981,980,998,1008,1016,1024,1032,1052,1059],"ymouse":[649,649,649,649,649,649,649,649,649,649,649,649,649,649,649,649,649,649,649,649,649,649,649,649,649,649,649,649,649,649,649,649,649,649,649,649,649,649,649,648,574,512,443,365,247,225,209,204,193,184,172,167,159,147,131,108,106,106,106,106,108,112,117,119,120,123,124,125,128,130,130,130,130,130,130,130,135,147,222,299,432,451,440,405,349,255,216,185,146,123,90,75,64,56,47,43,43],"timestamp_mouse":[13,36,54,73,94,114,133,153,174,195,214,234,253,273,294,313,335,353,373,394,414,433,453,474,494,514,535,554,574,594,614,634,654,673,694,715,733,753,773,794,814,833,855,874,895,913,933,953,974,993,1014,1033,1053,1073,1094,1113,1133,1153,1174,1193,1213,1234,1253,1273,1294,1313,1334,1354,1374,1394,1414,1434,1455,1474,1495,1513,1534,1553,1573,1593,1613,1633,1653,1673,1694,1713,1733,1754,1774,1793,1813,1833,1854,1874,1893,1914,1934],"xSR":741.5,"ySR":573.95,"xT1":424.9,"yT1":0,"xT2":1058.1,"yT2":0,"toosoon":0,"cond_shown":"equaldotsize","ratio_trial":500,"smaller_num":"3","larger_num":"6","correct_side":2,"subjID":"mateochaurospna39","gender":"0","age":"14","school":"6"},{"start_time":1551900909751,"click_time":1551900916328,"finger_time":1551900916050,"fix_duration":961.0780180603679,"trial":6,"RT":6299,"MT":278,"sideResp":1,"stimulus":"img/500/equaldotanddens/L/4_Ratio_500_L_18_R_9.png","xmouse":[806,806,806,806,806,806,806,806,806,806,806,806,806,806,806,806,806,806,806,806,806,806,806,806,806,806,806,806,806,806,806,806,806,806,806,806,806,806,806,806,806,806,806,806,806,806,806,806,806,806,806,806,806,806,806,806,806,806,806,806,806,806,806,806,806,806,806,806,806,806,806,806,806,806,806,806,806,806,806,806,806,806,806,806,806,806,806,806,806,806,806,806,806,806,806,806,806,806,806,806,806,806,806,806,806,806,806,806,806,806,806,806,806,806,806,806,806,806,806,806,806,806,806,806,806,806,806,806,806,806,806,806,806,806,806,806,806,806,806,806,806,806,806,806,806,806,806,806,806,806,806,806,806,806,806,806,806,806,806,806,806,806,806,806,806,806,806,806,806,806,806,806,806,806,806,806,806,806,806,806,806,806,806,806,806,806,806,806,806,806,806,806,806,806,806,806,806,806,806,806,806,806,806,806,806,806,806,806,806,806,806,806,806,806,806,806,806,806,806,806,806,806,806,806,806,806,806,806,806,806,806,806,806,806,806,806,806,806,806,806,806,806,806,806,806,806,806,806,806,806,806,806,806,806,806,806,806,806,806,806,806,806,806,806,806,806,806,806,806,806,806,806,806,806,806,806,806,806,806,806,806,806,806,806,806,806,806,806,806,806,806,806,806,806,806,806,806,806,806,806,806,806,806,806,806,806,806,806,806,806,806,806,805,798,778,752,666,597,562,527,503,478,477,477,475,473,471,473,482],"ymouse":[620,620,620,620,620,620,620,620,620,620,620,620,620,620,620,620,620,620,620,620,620,620,620,620,620,620,620,620,620,620,620,620,620,620,620,620,620,620,620,620,620,620,620,620,620,620,620,620,620,620,620,620,620,620,620,620,620,620,620,620,620,620,620,620,620,620,620,620,620,620,620,620,620,620,620,620,620,620,620,620,620,620,620,620,620,620,620,620,620,620,620,620,620,620,620,620,620,620,620,620,620,620,620,620,620,620,620,620,620,620,620,620,620,620,620,620,620,620,620,620,620,620,620,620,620,620,620,620,620,620,620,620,620,620,620,620,620,620,620,620,620,620,620,620,620,620,620,620,620,620,620,620,620,620,620,620,620,620,620,620,620,620,620,620,620,620,620,620,620,620,620,620,620,620,620,620,620,620,620,620,620,620,620,620,620,620,620,620,620,620,620,620,620,620,620,620,620,620,620,620,620,620,620,620,620,620,620,620,620,620,620,620,620,620,620,620,620,620,620,620,620,620,620,620,620,620,620,620,620,620,620,620,620,620,620,620,620,620,620,620,620,620,620,620,620,620,620,620,620,620,620,620,620,620,620,620,620,620,620,620,620,620,620,620,620,620,620,620,620,620,620,620,620,620,620,620,620,620,620,620,620,620,620,620,620,620,620,620,620,620,620,620,620,620,620,620,620,620,620,620,620,620,620,620,620,620,620,620,620,620,620,620,619,593,535,481,365,304,275,251,233,208,199,191,182,169,131,110,81],"timestamp_mouse":[17,37,59,78,99,117,138,157,179,198,218,239,257,278,297,318,338,359,379,398,418,439,457,477,498,517,537,558,577,597,619,639,657,678,698,717,738,758,777,797,819,838,858,878,897,918,939,959,978,997,1017,1038,1057,1079,1098,1117,1138,1157,1177,1198,1218,1239,1258,1277,1297,1319,1338,1357,1379,1399,1419,1437,1457,1478,1497,1518,1538,1557,1579,1597,1617,1637,1657,1679,1698,1719,1738,1758,1777,1799,1819,1839,1858,1879,1899,1918,1937,1958,1979,1999,2018,2038,2057,2077,2097,2118,2138,2157,2179,2199,2218,2238,2257,2278,2299,2317,2338,2359,2377,2397,2418,2437,2458,2479,2497,2518,2537,2557,2577,2598,2617,2638,2658,2677,2697,2717,2737,2757,2777,2797,2817,2838,2859,2878,2898,2918,2938,2959,2977,2997,3018,3037,3057,3078,3098,3119,3137,3158,3178,3198,3218,3237,3259,3277,3297,3318,3338,3358,3379,3398,3419,3437,3458,3477,3498,3517,3539,3559,3577,3598,3619,3638,3657,3678,3698,3717,3738,3758,3777,3799,3819,3839,3857,3878,3899,3918,3937,3957,3978,3997,4019,4038,4058,4078,4098,4117,4137,4157,4177,4198,4218,4238,4257,4279,4299,4319,4339,4357,4378,4397,4418,4438,4457,4478,4497,4517,4537,4558,4577,4599,4618,4638,4657,4678,4699,4719,4737,4757,4777,4797,4818,4839,4857,4877,4897,4918,4937,4957,4979,4999,5017,5038,5057,5077,5098,5118,5138,5158,5179,5198,5218,5237,5257,5278,5299,5319,5338,5357,5377,5399,5418,5438,5457,5478,5498,5519,5537,5558,5579,5598,5617,5637,5657,5677,5699,5718,5738,5759,5778,5798,5817,5837,5858,5878,5898,5919,5938,5958,5978,5998,6018,6039,6057,6078,6098,6118,6139,6157,6177,6197,6218,6238,6257,6279,6299,6317,6337,6357,6377,6398,6417,6438,6457,6478,6499,6519,6537,6558,6577],"xSR":741.5,"ySR":573.95,"xT1":424.9,"yT1":0,"xT2":1058.1,"yT2":0,"toosoon":0,"cond_shown":"equaldotanddens","ratio_trial":500,"smaller_num":"9","larger_num":"18","correct_side":1,"subjID":"mateochaurospna39","gender":"0","age":"14","school":"6"},{"start_time":1551900917442,"click_time":1551900919429,"finger_time":1551900918928,"fix_duration":250,"trial":7,"RT":1486,"MT":501,"sideResp":2,"stimulus":"img/900/randomdotsizeEA/R/9_Ratio_900_L_18_R_20.png","xmouse":[782,782,782,782,782,782,782,782,782,782,782,782,782,782,782,782,782,782,782,782,782,782,782,782,782,782,782,782,782,782,782,782,782,782,782,782,782,782,782,782,782,782,782,782,782,782,782,782,782,782,782,782,782,782,782,782,782,782,782,782,782,782,782,782,782,782,782,782,782,782,782,782,782,785,804,817,830,875,895,916,934,946,952,954,956,957,957,961,976,999,1019,1043,1051,1055,1055,1055,1055,1061,1070,1089],"ymouse":[608,608,608,608,608,608,608,608,608,608,608,608,608,608,608,608,608,608,608,608,608,608,608,608,608,608,608,608,608,608,608,608,608,608,608,608,608,608,608,608,608,608,608,608,608,608,608,608,608,608,608,608,608,608,608,608,608,608,608,608,608,608,608,608,608,608,608,608,608,608,608,608,608,582,501,457,404,267,221,179,149,134,122,118,114,113,113,111,110,110,110,119,123,124,124,124,124,119,109,98],"timestamp_mouse":[9,34,48,67,87,106,126,146,166,187,207,227,248,267,287,307,327,346,367,387,406,426,446,467,488,506,528,546,566,586,607,628,648,667,686,707,726,747,766,787,806,826,846,866,886,906,927,948,966,986,1007,1026,1047,1068,1088,1107,1127,1146,1167,1187,1208,1227,1248,1267,1287,1307,1328,1347,1367,1387,1407,1428,1446,1466,1486,1507,1526,1546,1566,1588,1607,1628,1646,1668,1686,1707,1728,1747,1767,1786,1806,1828,1848,1867,1888,1908,1926,1948,1968,1987],"xSR":741.5,"ySR":573.95,"xT1":424.9,"yT1":0,"xT2":1058.1,"yT2":0,"toosoon":0,"cond_shown":"randomdotsizeEA","ratio_trial":900,"smaller_num":"18","larger_num":"20","correct_side":2,"subjID":"mateochaurospna39","gender":"0","age":"14","school":"6"},{"start_time":1551900920500,"click_time":1551900922249,"finger_time":1551900921909,"fix_duration":250,"trial":8,"RT":1409,"MT":340,"sideResp":1,"stimulus":"img/750/equaldotsize/L/1_Ratio_750_L_20_R_15.png","xmouse":[813,813,813,813,813,813,813,813,813,813,813,813,813,813,813,813,813,813,813,813,813,813,813,813,813,813,813,813,813,813,813,813,813,813,813,813,813,813,813,813,813,813,813,813,813,813,813,813,813,813,813,813,813,813,813,813,813,813,813,813,813,813,813,813,813,813,813,813,813,811,772,741,622,504,491,484,482,481,481,479,475,472,475,487,510,517,520,520],"ymouse":[603,603,603,603,603,603,603,603,603,603,603,603,603,603,603,603,603,603,603,603,603,603,603,603,603,603,603,603,603,603,603,603,603,603,603,603,603,603,603,603,603,603,603,603,603,603,603,603,603,603,603,603,603,603,603,603,603,603,603,603,603,603,603,603,603,603,603,603,603,603,509,460,312,205,191,182,177,177,176,174,170,159,140,129,119,114,108,99],"timestamp_mouse":[10,33,50,69,88,109,130,150,168,189,208,230,249,270,289,309,329,349,369,390,408,428,449,469,490,510,528,549,569,588,608,629,649,668,689,709,728,748,769,789,810,829,849,869,889,910,930,949,969,988,1008,1029,1048,1069,1090,1109,1129,1148,1169,1189,1210,1229,1249,1269,1289,1308,1328,1349,1369,1388,1409,1429,1449,1470,1488,1508,1528,1549,1570,1588,1610,1630,1649,1668,1688,1709,1729,1749],"xSR":741.5,"ySR":573.95,"xT1":424.9,"yT1":0,"xT2":1058.1,"yT2":0,"toosoon":0,"cond_shown":"equaldotsize","ratio_trial":750,"smaller_num":"15","larger_num":"20","correct_side":1,"subjID":"mateochaurospna39","gender":"0","age":"14","school":"6"},{"start_time":1551900923854,"click_time":1551900925270,"finger_time":1551900924888,"fix_duration":883.445353089804,"trial":9,"RT":1034,"MT":382,"sideResp":2,"stimulus":"img/750/equaldotsize/R/7_Ratio_750_L_3_R_4.png","xmouse":[822,822,822,822,822,822,822,822,822,822,822,822,822,822,822,822,822,822,822,822,822,822,822,822,822,822,822,822,822,822,822,822,822,822,822,822,822,822,822,822,822,822,822,822,822,822,822,822,816,810,788,819,874,913,934,961,988,996,1002,1005,1008,1013,1016,1030,1037,1042,1046,1048,1049,1054,1065],"ymouse":[617,617,617,617,617,617,617,617,617,617,617,617,617,617,617,617,617,617,617,617,617,617,617,617,617,617,617,617,617,617,617,617,617,617,617,617,617,617,617,617,617,617,617,617,617,617,617,617,617,617,608,480,392,327,292,247,211,201,195,193,187,171,139,68,44,33,28,26,24,20,14],"timestamp_mouse":[14,35,55,75,96,116,135,154,175,195,214,235,256,276,295,314,334,355,375,394,415,436,455,476,495,515,535,556,576,595,615,634,655,674,696,714,735,754,775,796,814,835,855,875,895,916,934,954,975,995,1014,1034,1056,1075,1094,1115,1135,1154,1174,1194,1216,1234,1254,1274,1296,1315,1334,1354,1374,1394,1416],"xSR":741.5,"ySR":573.95,"xT1":424.9,"yT1":0,"xT2":1058.1,"yT2":0,"toosoon":0,"cond_shown":"equaldotsize","ratio_trial":750,"smaller_num":"3","larger_num":"4","correct_side":2,"subjID":"mateochaurospna39","gender":"0","age":"14","school":"6"},{"start_time":1551900934934,"click_time":1551900944290,"finger_time":1551900943909,"fix_duration":1402.0071776531706,"trial":10,"RT":8975,"MT":381,"sideResp":1,"stimulus":"img/250/equaldotanddens/L/1_Ratio_250_L_8_R_2.png","xmouse":[782,782,782,782,782,782,782,782,782,782,782,782,782,782,782,782,782,782,782,782,782,782,782,782,782,782,782,785,788,791,792,793,793,793,795,797,798,798,799,799,799,799,799,799,799,799,799,799,799,799,799,799,799,799,799,799,799,799,799,799,799,799,799,799,799,799,799,799,799,799,799,799,799,799,799,799,799,799,799,799,799,799,799,799,799,799,799,799,799,799,799,799,799,799,799,799,799,799,799,799,799,799,799,799,799,799,799,799,799,799,799,799,799,799,799,799,799,799,799,799,799,799,799,799,799,799,799,799,799,799,799,799,799,799,799,799,799,799,799,799,799,799,799,799,799,799,799,799,799,799,799,799,799,799,799,799,799,799,799,799,799,799,799,799,799,799,799,799,799,799,799,799,799,799,799,799,799,799,799,799,799,799,799,799,799,799,799,799,799,799,799,799,799,799,799,799,799,799,799,799,799,799,799,799,799,799,799,799,799,799,799,799,799,799,799,799,799,799,799,799,799,799,799,799,799,799,799,799,799,799,799,799,799,799,799,799,799,799,799,799,799,799,799,799,799,799,799,799,799,799,799,799,799,799,799,799,799,799,799,798,797,796,796,796,796,796,796,796,795,795,794,794,794,794,794,794,794,794,792,790,789,789,789,789,789,789,789,789,789,789,789,789,789,789,789,789,789,789,789,789,789,789,789,789,789,789,789,788,788,788,788,788,788,788,788,788,788,788,788,788,788,788,788,788,788,788,788,788,788,788,788,787,787,787,787,787,787,785,785,783,783,783,783,783,783,783,783,783,783,783,783,783,783,783,783,783,783,783,783,783,783,783,783,783,783,783,783,783,783,782,781,778,777,776,776,776,776,776,776,776,776,776,776,776,776,776,776,776,775,774,774,774,774,774,774,774,774,774,773,773,773,773,773,773,773,773,773,773,773,773,773,773,773,773,773,774,774,774,774,774,774,774,774,774,774,774,774,774,774,774,774,774,774,774,774,774,774,774,774,774,774,774,774,774,774,774,772,745,722,698,632,580,463,414,379,366,357,349,349,349,349,351,352,355,361,373,390,448],"ymouse":[657,657,657,657,657,657,657,657,657,657,657,657,657,657,657,657,657,657,657,657,657,657,657,657,657,657,657,657,657,657,658,658,658,658,658,658,658,658,659,659,659,659,659,659,659,659,659,659,659,659,659,659,659,659,659,659,659,659,659,659,659,659,659,659,659,659,659,659,659,659,659,659,659,659,659,659,659,659,659,659,659,659,659,659,659,659,659,659,659,659,659,659,659,659,659,659,659,659,659,659,659,659,659,659,659,659,659,659,659,659,659,659,659,659,659,659,659,659,659,659,659,659,659,659,659,659,659,659,659,659,659,659,659,659,659,659,659,659,659,659,659,659,659,659,659,659,659,659,659,659,659,659,659,659,659,659,659,659,659,659,659,659,659,659,659,659,659,659,659,659,659,659,659,659,659,659,659,659,659,659,659,659,659,659,659,659,659,659,659,659,659,659,659,659,659,659,659,659,659,659,659,659,659,659,659,659,659,659,659,659,659,659,659,659,659,659,659,659,659,659,659,659,659,659,659,659,659,659,659,659,659,659,659,659,659,659,659,659,659,659,659,659,659,659,659,659,659,659,659,659,659,659,659,659,659,659,659,659,659,659,659,660,660,660,660,660,660,660,660,660,661,661,661,661,661,661,661,661,662,662,663,663,663,663,663,663,663,663,663,663,663,663,663,663,663,663,663,663,663,663,663,663,663,663,663,663,663,663,663,663,663,663,663,663,663,663,663,663,663,663,663,663,663,663,663,663,663,663,663,663,663,663,663,663,663,663,663,662,661,659,659,659,659,659,659,659,659,659,659,659,659,659,659,659,659,659,659,659,659,659,659,659,659,659,659,659,659,659,659,659,658,657,655,653,652,651,647,643,640,638,638,637,637,637,637,637,637,637,637,637,637,637,637,637,637,637,637,637,637,637,637,637,637,637,637,637,637,637,637,637,637,637,637,637,636,634,634,634,634,634,634,634,634,634,634,634,634,634,634,634,634,634,634,634,634,634,634,634,634,634,634,634,634,634,634,634,634,642,644,641,576,478,245,154,86,40,4,0,0,0,0,0,0,1,10,29,49,71],"timestamp_mouse":[16,37,55,77,97,117,136,157,176,195,216,237,256,277,297,317,337,357,376,397,417,436,456,476,497,516,536,556,575,595,616,636,656,675,697,716,736,756,776,795,815,836,855,875,897,916,936,957,976,996,1015,1036,1057,1076,1096,1117,1137,1156,1177,1197,1217,1236,1255,1275,1296,1317,1336,1357,1377,1397,1417,1436,1456,1475,1495,1516,1536,1556,1576,1597,1616,1636,1655,1676,1696,1717,1737,1756,1777,1797,1817,1836,1856,1877,1895,1915,1935,1956,1977,1997,2016,2035,2056,2075,2097,2115,2137,2157,2175,2197,2217,2235,2255,2276,2295,2317,2335,2357,2375,2397,2416,2436,2456,2476,2496,2517,2537,2555,2575,2595,2616,2637,2657,2677,2695,2717,2737,2756,2775,2796,2816,2836,2855,2876,2897,2916,2937,2956,2975,2995,3016,3037,3057,3075,3095,3116,3135,3155,3175,3195,3216,3237,3256,3276,3297,3317,3337,3357,3375,3395,3415,3436,3457,3476,3495,3515,3536,3557,3576,3595,3616,3637,3655,3677,3697,3716,3737,3756,3776,3796,3815,3836,3857,3875,3908,3916,3936,3956,3977,3996,4015,4037,4057,4077,4097,4115,4135,4156,4177,4195,4216,4236,4255,4276,4297,4317,4335,4356,4376,4397,4417,4436,4455,4475,4496,4516,4537,4557,4576,4596,4617,4636,4656,4676,4697,4715,4736,4756,4776,4797,4816,4836,4856,4876,4895,4915,4937,4956,4975,4996,5015,5036,5057,5076,5097,5115,5136,5156,5176,5195,5217,5237,5257,5277,5295,5316,5336,5355,5376,5397,5417,5435,5455,5477,5495,5515,5537,5555,5575,5596,5617,5636,5655,5675,5697,5716,5737,5757,5776,5795,5817,5836,5857,5876,5896,5916,5936,5956,5976,5997,6017,6037,6056,6077,6095,6115,6136,6156,6176,6195,6215,6236,6255,6276,6297,6317,6337,6355,6376,6395,6415,6436,6456,6477,6496,6516,6535,6555,6575,6597,6617,6637,6657,6676,6696,6716,6735,6756,6777,6797,6816,6835,6855,6875,6897,6917,6937,6957,6975,6996,7015,7035,7055,7075,7097,7115,7135,7156,7176,7196,7215,7236,7257,7276,7296,7316,7336,7357,7377,7395,7416,7435,7455,7475,7495,7515,7537,7557,7575,7595,7615,7636,7657,7677,7695,7715,7736,7755,7777,7796,7817,7837,7855,7875,7896,7916,7937,7957,7975,7995,8017,8037,8057,8076,8097,8115,8137,8156,8176,8196,8217,8237,8256,8276,8296,8317,8337,8355,8375,8396,8417,8436,8457,8476,8495,8517,8537,8556,8575,8596,8615,8637,8657,8677,8696,8716,8735,8756,8776,8796,8817,8835,8856,8877,8896,8915,8935,8955,8975,8996,9017,9036,9056,9077,9097,9115,9136,9156,9176,9196,9217,9236,9257,9276,9297,9317,9336,9356],"xSR":741.5,"ySR":573.95,"xT1":424.9,"yT1":0,"xT2":1058.1,"yT2":0,"toosoon":0,"cond_shown":"equaldotanddens","ratio_trial":250,"smaller_num":"2","larger_num":"8","correct_side":1,"subjID":"mateochaurospna39","gender":"0","age":"14","school":"6"},{"start_time":1551900946563,"click_time":1551900948170,"finger_time":1551900947771,"fix_duration":1392.344637863225,"trial":11,"RT":1208,"MT":399,"sideResp":2,"stimulus":"img/900/equaldotsize/L/2_Ratio_900_L_20_R_18.png","xmouse":[798,798,798,798,798,798,798,798,798,798,798,798,798,798,798,798,798,798,798,798,798,798,798,798,798,798,798,798,798,798,798,798,798,798,798,798,798,798,798,798,798,798,798,798,798,797,793,791,791,791,791,791,791,791,791,791,791,791,791,790,791,806,824,843,859,893,908,924,936,960,1002,1023,1037,1046,1050,1050,1050,1050,1052,1060,1074],"ymouse":[597,597,597,597,597,597,597,597,597,597,597,597,597,597,597,597,597,597,597,597,597,597,597,597,597,597,597,597,597,597,597,597,597,597,597,597,597,597,597,597,597,597,597,597,597,597,597,597,597,597,597,597,597,597,597,597,597,597,597,592,471,370,293,227,170,87,61,41,30,17,9,5,1,0,0,0,0,0,0,0,3],"timestamp_mouse":[11,42,47,67,87,107,128,148,167,188,208,227,247,267,287,308,327,348,366,387,407,426,446,468,486,507,527,546,567,586,606,626,647,667,687,708,726,746,766,787,808,826,847,868,888,907,928,947,967,988,1008,1028,1047,1066,1086,1108,1127,1147,1167,1186,1208,1226,1246,1267,1287,1308,1326,1347,1366,1386,1408,1427,1446,1468,1488,1508,1528,1547,1568,1586,1607],"xSR":741.5,"ySR":573.95,"xT1":424.9,"yT1":0,"xT2":1058.1,"yT2":0,"toosoon":0,"cond_shown":"equaldotsize","ratio_trial":900,"smaller_num":"18","larger_num":"20","correct_side":1,"subjID":"mateochaurospna39","gender":"0","age":"14","school":"6"},{"start_time":1551900949991,"click_time":1551900951431,"finger_time":1551900951090,"fix_duration":1099.9325616525057,"trial":12,"RT":1099,"MT":341,"sideResp":2,"stimulus":"img/750/equaldotanddens/R/12_Ratio_750_L_3_R_4.png","xmouse":[766,766,766,766,766,766,766,766,766,766,766,766,766,766,766,766,766,766,766,766,766,766,766,766,766,766,766,766,766,766,766,766,766,766,766,766,766,766,766,766,766,766,766,766,766,766,766,766,766,766,766,766,766,766,779,820,864,894,941,970,996,1000,1001,1002,1007,1013,1019,1024,1030,1031,1038,1048,1063],"ymouse":[647,647,647,647,647,647,647,647,647,647,647,647,647,647,647,647,647,647,647,647,647,647,647,647,647,647,647,647,647,647,647,647,647,647,647,647,647,647,647,647,647,647,647,647,647,647,647,647,647,647,647,647,647,647,611,519,439,384,301,234,170,158,149,144,132,117,97,83,72,71,71,71,71],"timestamp_mouse":[1,31,40,59,79,99,119,140,159,179,200,220,240,259,278,299,318,339,359,378,398,419,440,458,480,499,519,539,559,578,598,619,639,659,680,698,720,740,759,779,798,818,839,859,880,900,919,940,959,979,999,1018,1040,1058,1080,1099,1118,1138,1160,1179,1199,1218,1238,1259,1280,1299,1318,1338,1359,1379,1400,1420,1440],"xSR":741.5,"ySR":573.95,"xT1":424.9,"yT1":0,"xT2":1058.1,"yT2":0,"toosoon":0,"cond_shown":"equaldotanddens","ratio_trial":750,"smaller_num":"3","larger_num":"4","correct_side":2,"subjID":"mateochaurospna39","gender":"0","age":"14","school":"6"},{"start_time":1551900953300,"click_time":1551900954970,"finger_time":1551900954090,"fix_duration":888.9934580951465,"trial":13,"RT":790,"MT":880,"sideResp":1,"stimulus":"img/500/equaldotsize/L/13_Ratio_500_L_12_R_6.png","xmouse":[781,781,781,781,781,781,781,781,781,781,781,781,781,781,781,781,781,781,781,781,781,781,781,781,781,781,781,781,781,781,781,781,781,781,781,781,781,781,782,866,944,955,963,963,963,963,962,960,960,960,960,960,960,960,958,957,957,955,955,954,954,954,954,953,948,931,883,805,706,504,380,355,336,336,361,377,385,386,387,394,401,410,421,429],"ymouse":[614,614,614,614,614,614,614,614,614,614,614,614,614,614,614,614,614,614,614,614,614,614,614,614,614,614,614,614,614,614,614,614,614,614,614,614,614,614,615,566,464,426,328,276,229,207,192,186,185,185,185,186,187,188,192,193,194,197,199,200,200,200,200,202,202,202,190,172,147,108,78,70,65,65,66,70,71,71,72,72,71,68,65,63],"timestamp_mouse":[11,37,50,69,90,109,129,151,171,190,209,229,250,271,291,311,329,350,369,390,409,429,450,470,490,511,531,550,569,590,611,629,650,671,690,710,731,749,769,790,811,830,850,871,890,909,931,950,971,989,1010,1029,1049,1069,1090,1110,1130,1150,1170,1190,1210,1230,1249,1269,1290,1309,1329,1349,1369,1389,1409,1430,1450,1470,1490,1510,1530,1550,1571,1589,1609,1630,1650,1670],"xSR":741.5,"ySR":573.95,"xT1":424.9,"yT1":0,"xT2":1058.1,"yT2":0,"toosoon":0,"cond_shown":"equaldotsize","ratio_trial":500,"smaller_num":"6","larger_num":"12","correct_side":1,"subjID":"mateochaurospna39","gender":"0","age":"14","school":"6"},{"start_time":1551900955902,"click_time":1551900958189,"finger_time":1551900958150,"fix_duration":250,"trial":14,"RT":2248,"MT":39,"sideResp":1,"stimulus":"img/750/equaldotanddens/R/5_Ratio_750_L_15_R_20.png","xmouse":[763,763,763,763,763,763,763,763,763,763,763,763,763,763,763,763,763,763,763,763,763,763,763,763,763,763,763,763,763,763,763,763,763,763,763,763,763,763,763,763,763,763,763,763,763,763,763,763,763,763,763,763,763,763,763,763,763,763,763,763,763,763,763,763,763,763,763,763,763,763,763,763,763,763,763,763,763,763,763,763,763,763,763,763,763,763,763,763,763,763,763,763,763,763,763,763,763,763,763,763,763,763,763,763,763,763,763,763,763,763,763,758,704,643,513],"ymouse":[631,631,631,631,631,631,631,631,631,631,631,631,631,631,631,631,631,631,631,631,631,631,631,631,631,631,631,631,631,631,631,631,631,631,631,631,631,631,631,631,631,631,631,631,631,631,631,631,631,631,631,631,631,631,631,631,631,631,631,631,631,631,631,631,631,631,631,631,631,631,631,631,631,631,631,631,631,631,631,631,631,631,631,631,631,631,631,631,631,631,631,631,631,631,631,631,631,631,631,631,631,631,631,631,631,631,631,631,631,631,629,603,409,269,49],"timestamp_mouse":[8,35,49,67,88,108,127,147,167,188,207,227,249,268,289,309,327,347,368,388,409,428,447,467,488,509,527,548,568,588,607,629,647,669,688,708,729,748,768,787,808,827,849,869,889,908,927,947,969,989,1008,1027,1048,1068,1087,1109,1128,1148,1169,1187,1208,1229,1248,1268,1287,1308,1329,1349,1368,1388,1409,1429,1448,1468,1488,1507,1527,1548,1567,1587,1607,1627,1647,1667,1688,1707,1727,1747,1769,1788,1809,1829,1847,1868,1888,1909,1927,1947,1968,1989,2008,2027,2047,2068,2088,2108,2128,2147,2169,2189,2209,2229,2248,2267,2287],"xSR":741.5,"ySR":573.95,"xT1":424.9,"yT1":0,"xT2":1058.1,"yT2":0,"toosoon":0,"cond_shown":"equaldotanddens","ratio_trial":750,"smaller_num":"15","larger_num":"20","correct_side":2,"subjID":"mateochaurospna39","gender":"0","age":"14","school":"6"},{"start_time":1551900960272,"click_time":1551900962671,"finger_time":1551900962310,"fix_duration":1199.024408981921,"trial":15,"RT":2038,"MT":361,"sideResp":1,"stimulus":"img/750/randomdotsizeEA/L/14_Ratio_750_L_8_R_6.png","xmouse":[811,811,811,811,811,811,811,811,811,811,811,811,811,811,811,811,811,811,811,811,811,811,811,811,811,811,811,811,811,811,811,811,811,811,811,811,811,811,811,811,811,811,811,811,811,811,811,811,811,811,811,811,811,811,811,811,811,811,811,811,811,811,811,811,811,811,811,811,811,811,811,811,811,811,811,811,811,811,811,811,811,811,811,811,811,811,811,811,811,811,811,811,811,811,811,811,811,811,805,801,758,702,621,503,448,412,409,409,408,407,400,394,392,392,397,425,445,468,487,496],"ymouse":[628,628,628,628,628,628,628,628,628,628,628,628,628,628,628,628,628,628,628,628,628,628,628,628,628,628,628,628,628,628,628,628,628,628,628,628,628,628,628,628,628,628,628,628,628,628,628,628,628,628,628,628,628,628,628,628,628,628,628,628,628,628,628,628,628,628,628,628,628,628,628,628,628,628,628,628,628,628,628,628,628,628,628,628,628,628,628,628,628,628,628,628,628,628,628,628,628,628,627,624,579,512,441,352,311,280,276,275,273,270,262,255,247,241,232,201,178,147,119,85],"timestamp_mouse":[34,39,59,78,97,119,139,158,179,199,217,237,258,279,298,318,339,359,378,399,419,437,459,478,499,519,537,557,577,597,618,637,659,679,699,718,739,759,777,799,819,837,858,879,897,919,938,958,979,997,1018,1039,1058,1078,1099,1117,1137,1157,1179,1199,1219,1237,1258,1277,1298,1317,1339,1358,1379,1398,1418,1439,1458,1477,1498,1518,1538,1558,1579,1599,1618,1639,1659,1678,1699,1717,1738,1757,1779,1799,1818,1839,1858,1877,1897,1919,1938,1957,1977,1998,2017,2038,2057,2078,2098,2118,2137,2158,2178,2197,2218,2238,2258,2278,2297,2318,2338,2357,2377,2398],"xSR":741.5,"ySR":573.95,"xT1":424.9,"yT1":0,"xT2":1058.1,"yT2":0,"toosoon":0,"cond_shown":"randomdotsizeEA","ratio_trial":750,"smaller_num":"6","larger_num":"8","correct_side":1,"subjID":"mateochaurospna39","gender":"0","age":"14","school":"6"},{"start_time":1551900965684,"click_time":1551900967371,"finger_time":1551900967030,"fix_duration":812.9053982009992,"trial":16,"RT":1346,"MT":341,"sideResp":2,"stimulus":"img/500/equaldotsize/R/2_Ratio_500_L_3_R_6.png","xmouse":[795,795,795,795,795,795,795,795,795,795,795,795,795,795,795,795,795,795,795,795,795,795,795,795,795,795,795,795,795,795,795,795,795,795,795,795,795,795,795,795,791,785,782,781,781,781,781,781,781,781,781,781,781,781,781,781,781,781,781,781,781,781,781,781,781,781,781,798,823,881,932,932,932,937,946,957,960,980,999,1031,1036,1040,1049,1057,1061],"ymouse":[602,602,602,602,602,602,602,602,602,602,602,602,602,602,602,602,602,602,602,602,602,602,602,602,602,602,602,602,602,602,602,602,602,602,602,602,602,602,602,602,601,600,599,599,599,599,599,599,599,599,599,599,599,599,599,599,599,599,599,599,599,599,599,599,599,599,599,571,528,419,200,135,98,62,44,17,9,0,0,0,0,4,21,52,62],"timestamp_mouse":[11,34,47,67,86,107,126,146,166,185,207,227,247,266,287,306,326,347,367,387,405,426,445,467,487,507,527,547,566,587,605,627,646,665,686,707,727,746,766,786,806,826,845,866,885,905,925,946,965,987,1005,1026,1045,1066,1086,1107,1126,1146,1166,1185,1207,1227,1247,1266,1287,1305,1325,1346,1367,1386,1405,1426,1446,1467,1486,1505,1526,1545,1565,1587,1606,1626,1647,1665,1686],"xSR":741.5,"ySR":573.95,"xT1":424.9,"yT1":0,"xT2":1058.1,"yT2":0,"toosoon":0,"cond_shown":"equaldotsize","ratio_trial":500,"smaller_num":"3","larger_num":"6","correct_side":2,"subjID":"mateochaurospna39","gender":"0","age":"14","school":"6"},{"start_time":1551900968381,"click_time":1551900971751,"finger_time":1551900969529,"fix_duration":250,"trial":17,"RT":1148,"MT":2222,"sideResp":2,"stimulus":"img/750/equaldotanddens/L/9_Ratio_750_L_4_R_3.png","xmouse":[808,808,808,808,808,808,808,808,808,808,808,808,808,808,808,808,808,808,808,808,808,808,808,808,808,808,808,808,808,808,808,808,808,808,808,808,808,808,808,808,808,808,808,808,808,808,808,808,808,808,808,808,808,808,808,830,841,870,919,951,1010,1034,1052,1064,1072,1072,1072,1072,1072,1072,1072,1072,1072,1072,1072,1072,1071,1071,1071,1071,1071,1071,1070,1066,1062,1033,1004,944,887,825,748,739,738,738,737,737,737,736,736,736,736,736,736,736,736,762,769,771,771,771,772,772,772,772,772,772,772,772,772,772,772,772,772,772,772,772,772,772,772,772,772,772,772,772,772,772,772,772,772,772,772,772,772,772,772,772,772,772,772,772,772,772,772,773,776,779,780,780,781,781,781,783,787,794,800,842,900,978,1076],"ymouse":[595,595,595,595,595,595,595,595,595,595,595,595,595,595,595,595,595,595,595,595,595,595,595,595,595,595,595,595,595,595,595,595,595,595,595,595,595,595,595,595,595,595,595,595,595,595,595,595,595,595,595,595,595,595,595,589,586,574,548,530,508,501,496,492,490,490,490,490,490,490,490,490,490,490,490,490,490,490,490,490,490,491,492,494,496,508,520,545,570,595,628,633,634,634,636,637,637,637,637,637,637,637,637,638,638,644,645,645,645,645,645,645,645,645,645,645,645,645,645,645,645,645,645,645,645,645,645,645,645,645,645,645,645,645,645,645,645,645,645,645,645,645,645,645,645,645,645,645,645,645,645,645,645,639,622,612,609,600,584,561,509,477,447,415,392,314,230,133,12],"timestamp_mouse":[22,40,49,70,90,109,128,149,168,189,209,230,248,268,288,308,330,349,368,389,410,428,449,469,488,510,530,548,570,588,609,628,650,669,690,710,729,749,769,790,810,830,850,869,889,908,930,949,970,989,1009,1028,1049,1070,1088,1108,1129,1148,1168,1188,1209,1229,1250,1269,1290,1308,1328,1348,1368,1388,1408,1428,1449,1470,1489,1509,1529,1550,1569,1589,1610,1629,1649,1669,1689,1708,1728,1748,1768,1789,1809,1828,1849,1869,1889,1908,1929,1949,1969,1988,2008,2029,2050,2068,2088,2109,2129,2149,2168,2188,2209,2230,2249,2269,2289,2308,2329,2348,2369,2389,2409,2430,2450,2469,2490,2510,2530,2549,2569,2589,2610,2629,2648,2668,2689,2710,2729,2750,2770,2788,2809,2829,2848,2869,2889,2909,2929,2949,2969,2990,3009,3030,3049,3069,3090,3109,3129,3149,3168,3189,3209,3229,3248,3268,3288,3309,3329,3349,3369],"xSR":741.5,"ySR":573.95,"xT1":424.9,"yT1":0,"xT2":1058.1,"yT2":0,"toosoon":0,"cond_shown":"equaldotanddens","ratio_trial":750,"smaller_num":"3","larger_num":"4","correct_side":1,"subjID":"mateochaurospna39","gender":"0","age":"14","school":"6"},{"start_time":1551900975050,"click_time":1551900976991,"finger_time":1551900976810,"fix_duration":559.6512179146907,"trial":18,"RT":1760,"MT":181,"sideResp":2,"stimulus":"img/900/equaldotsize/R/6_Ratio_900_L_9_R_10.png","xmouse":[769,769,769,769,769,769,769,769,769,769,769,769,769,769,769,769,769,769,769,769,769,769,769,769,769,769,769,769,769,769,769,769,769,769,769,769,769,769,769,769,769,769,769,769,769,769,769,769,769,769,769,769,769,769,769,769,769,769,769,769,769,769,769,769,769,769,769,769,769,769,769,769,769,769,769,769,769,769,769,769,769,769,769,769,769,769,769,784,825,868,896,917,947,971,979,1014,1037,1072],"ymouse":[634,634,634,634,634,634,634,634,634,634,634,634,634,634,634,634,634,634,634,634,634,634,634,634,634,634,634,634,634,634,634,634,634,634,634,634,634,634,634,634,634,634,634,634,634,634,634,634,634,634,634,634,634,634,634,634,634,634,634,634,634,634,634,634,634,634,634,634,634,634,634,634,634,634,634,634,634,634,634,634,634,634,634,634,634,634,634,621,561,498,443,390,281,214,199,140,109,63],"timestamp_mouse":[8,35,40,61,79,99,120,141,161,180,201,220,239,259,280,300,321,341,360,380,400,419,441,461,480,500,520,540,560,581,600,620,641,660,680,701,721,739,760,780,800,821,839,859,881,900,920,940,960,980,999,1020,1039,1059,1079,1101,1121,1141,1160,1179,1200,1219,1240,1261,1280,1300,1319,1341,1360,1380,1401,1421,1439,1468,1480,1500,1520,1540,1559,1580,1601,1620,1639,1660,1680,1701,1719,1740,1760,1780,1800,1820,1839,1859,1880,1901,1920,1940],"xSR":741.5,"ySR":573.95,"xT1":424.9,"yT1":0,"xT2":1058.1,"yT2":0,"toosoon":0,"cond_shown":"equaldotsize","ratio_trial":900,"smaller_num":"9","larger_num":"10","correct_side":2,"subjID":"mateochaurospna39","gender":"0","age":"14","school":"6"},{"start_time":1551900978082,"click_time":1551900979471,"finger_time":1551900978970,"fix_duration":250,"trial":19,"RT":888,"MT":501,"sideResp":1,"stimulus":"img/250/randomdotsizeEA/L/2_Ratio_250_L_16_R_4.png","xmouse":[804,804,804,804,804,804,804,804,804,804,804,804,804,804,804,804,804,804,804,804,804,804,804,804,804,804,804,804,804,804,804,804,804,804,804,804,804,804,804,804,804,804,795,782,740,685,636,588,553,531,524,524,524,523,526,529,531,533,534,535,530,523,511,506,504,500,498,495,491,488],"ymouse":[647,647,647,647,647,647,647,647,647,647,647,647,647,647,647,647,647,647,647,647,647,647,647,647,647,647,647,647,647,647,647,647,647,647,647,647,647,647,647,647,647,647,647,651,658,616,553,475,399,326,248,229,218,208,198,194,190,184,178,167,143,132,118,113,111,109,108,105,100,96],"timestamp_mouse":[11,35,49,69,87,109,127,147,169,188,207,228,247,268,288,309,328,347,367,389,409,428,447,467,489,508,528,549,567,588,609,629,649,669,689,709,729,749,767,788,809,829,849,868,887,909,928,947,968,988,1007,1028,1049,1069,1089,1107,1127,1148,1168,1188,1208,1228,1249,1268,1287,1308,1328,1347,1367,1388],"xSR":741.5,"ySR":573.95,"xT1":424.9,"yT1":0,"xT2":1058.1,"yT2":0,"toosoon":0,"cond_shown":"randomdotsizeEA","ratio_trial":250,"smaller_num":"4","larger_num":"16","correct_side":1,"subjID":"mateochaurospna39","gender":"0","age":"14","school":"6"},{"start_time":1551900981814,"click_time":1551900983370,"finger_time":1551900982871,"fix_duration":1421.889455831991,"trial":20,"RT":1057,"MT":499,"sideResp":2,"stimulus":"img/500/randomdotsizeEA/R/1_Ratio_500_L_9_R_18.png","xmouse":[771,771,771,771,771,771,771,771,771,771,771,771,771,771,771,771,771,771,771,771,771,771,771,771,771,771,771,771,771,771,771,771,771,771,771,771,771,771,771,771,771,771,771,771,771,771,771,771,771,771,771,771,772,819,857,890,933,954,988,1004,1016,1019,1021,1034,1042,1046,1050,1050,1051,1053,1054,1056,1056,1056,1056,1057,1058,1060],"ymouse":[582,582,582,582,582,582,582,582,582,582,582,582,582,582,582,582,582,582,582,582,582,582,582,582,582,582,582,582,582,582,582,582,582,582,582,582,582,582,582,582,582,582,582,582,582,582,582,582,582,582,582,578,568,470,404,333,225,181,142,129,120,114,104,84,79,77,77,77,77,77,77,78,78,78,78,78,78,78],"timestamp_mouse":[16,37,56,77,96,116,136,156,177,196,217,236,256,276,296,317,337,356,377,396,415,435,456,477,496,517,536,555,576,597,615,636,656,677,696,717,737,757,776,797,815,837,857,877,896,916,935,956,977,996,1016,1036,1057,1076,1095,1115,1135,1155,1176,1196,1215,1235,1256,1276,1296,1315,1336,1355,1377,1396,1417,1436,1457,1477,1495,1515,1536,1555],"xSR":741.5,"ySR":573.95,"xT1":424.9,"yT1":0,"xT2":1058.1,"yT2":0,"toosoon":0,"cond_shown":"randomdotsizeEA","ratio_trial":500,"smaller_num":"9","larger_num":"18","correct_side":2,"subjID":"mateochaurospna39","gender":"0","age":"14","school":"6"},{"start_time":1551900985184,"click_time":1551900986190,"finger_time":1551900986051,"fix_duration":1092.7470329240587,"trial":21,"RT":867,"MT":139,"sideResp":1,"stimulus":"img/250/equaldotanddens/L/3_Ratio_250_L_8_R_2.png","xmouse":[801,801,801,801,801,801,801,801,801,801,801,801,801,801,801,801,801,801,801,801,801,801,801,801,801,801,801,801,801,801,801,801,801,801,801,801,801,801,801,801,801,801,801,801,780,664,582,568,551,534,522],"ymouse":[605,605,605,605,605,605,605,605,605,605,605,605,605,605,605,605,605,605,605,605,605,605,605,605,605,605,605,605,605,605,605,605,605,605,605,605,605,605,605,605,605,605,582,544,448,243,140,123,91,68,58],"timestamp_mouse":[11,36,45,66,87,107,126,145,165,185,206,226,245,267,286,305,327,347,367,387,406,426,447,465,487,506,526,546,565,585,606,627,646,667,686,707,726,745,766,785,807,827,846,867,886,906,926,945,967,987,1006],"xSR":741.5,"ySR":573.95,"xT1":424.9,"yT1":0,"xT2":1058.1,"yT2":0,"toosoon":0,"cond_shown":"equaldotanddens","ratio_trial":250,"smaller_num":"2","larger_num":"8","correct_side":1,"subjID":"mateochaurospna39","gender":"0","age":"14","school":"6"},{"start_time":1551900987529,"click_time":1551900988730,"finger_time":1551900988530,"fix_duration":437.93928791389925,"trial":22,"RT":1001,"MT":200,"sideResp":2,"stimulus":"img/250/equaldotanddens/R/10_Ratio_250_L_4_R_16.png","xmouse":[797,797,797,797,797,797,797,797,797,797,797,797,797,797,797,797,797,797,797,797,797,797,797,797,797,797,797,797,797,797,797,797,797,797,797,797,797,797,797,797,797,797,797,797,797,797,797,797,800,810,848,916,982,1015,1048,1079,1097,1107,1115,1118,1118],"ymouse":[604,604,604,604,604,604,604,604,604,604,604,604,604,604,604,604,604,604,604,604,604,604,604,604,604,604,604,604,604,604,604,604,604,604,604,604,604,604,604,604,604,604,604,604,604,604,604,604,604,592,537,451,360,309,260,215,186,166,137,121,97],"timestamp_mouse":[9,20,41,61,82,100,120,141,161,182,202,221,241,261,282,301,321,341,361,382,401,422,442,460,481,502,520,541,561,580,602,621,641,661,682,700,722,742,762,782,800,821,842,862,881,901,922,941,961,982,1001,1021,1042,1060,1081,1101,1120,1141,1160,1181,1201],"xSR":741.5,"ySR":573.95,"xT1":424.9,"yT1":0,"xT2":1058.1,"yT2":0,"toosoon":0,"cond_shown":"equaldotanddens","ratio_trial":250,"smaller_num":"4","larger_num":"16","correct_side":2,"subjID":"mateochaurospna39","gender":"0","age":"14","school":"6"},{"start_time":1551900991496,"click_time":1551900992349,"finger_time":1551900992271,"fix_duration":324.8705470688049,"trial":23,"RT":775,"MT":78,"sideResp":1,"stimulus":"img/500/randomdotsizeEA/L/8_Ratio_500_L_8_R_4.png","xmouse":[801,801,801,801,801,801,801,801,801,801,801,801,801,801,801,801,801,801,801,801,801,801,801,801,801,801,801,801,801,801,801,801,801,801,801,800,797,788,772,712,659,602,522],"ymouse":[606,606,606,606,606,606,606,606,606,606,606,606,606,606,606,606,606,606,606,606,606,606,606,606,606,606,606,606,606,606,606,606,606,606,606,606,605,596,551,379,290,214,99],"timestamp_mouse":[14,41,53,75,94,114,135,154,174,194,214,234,254,273,295,315,335,355,375,394,413,435,453,474,493,513,535,555,574,595,615,634,654,675,694,714,735,754,775,794,813,834,853],"xSR":741.5,"ySR":573.95,"xT1":424.9,"yT1":0,"xT2":1058.1,"yT2":0,"toosoon":0,"cond_shown":"randomdotsizeEA","ratio_trial":500,"smaller_num":"4","larger_num":"8","correct_side":1,"subjID":"mateochaurospna39","gender":"0","age":"14","school":"6"},{"start_time":1551900994487,"click_time":1551900995630,"finger_time":1551900995291,"fix_duration":1194.7706421901576,"trial":24,"RT":804,"MT":339,"sideResp":1,"stimulus":"img/250/randomdotsizeEA/L/5_Ratio_250_L_24_R_6.png","xmouse":[810,810,810,810,810,810,810,810,810,810,810,810,810,810,810,810,810,810,810,810,810,810,810,810,810,810,810,810,810,810,810,810,810,810,810,810,810,810,810,804,789,760,713,619,546,412,375,363,361,360,360,360,361,366,373,404,422,441],"ymouse":[601,601,601,601,601,601,601,601,601,601,601,601,601,601,601,601,601,601,601,601,601,601,601,601,601,601,601,601,601,601,601,601,601,601,601,601,601,601,601,597,573,503,413,258,147,0,0,0,0,0,0,0,8,21,34,64,77,91],"timestamp_mouse":[11,34,43,62,83,102,123,142,163,184,203,223,243,262,282,303,324,343,363,382,404,424,443,463,483,502,523,544,563,584,604,624,644,664,683,704,723,744,763,784,804,824,843,863,883,903,923,943,963,984,1004,1023,1044,1062,1082,1103,1122,1142],"xSR":741.5,"ySR":573.95,"xT1":424.9,"yT1":0,"xT2":1058.1,"yT2":0,"toosoon":0,"cond_shown":"randomdotsizeEA","ratio_trial":250,"smaller_num":"6","larger_num":"24","correct_side":1,"subjID":"mateochaurospna39","gender":"0","age":"14","school":"6"},{"start_time":1551900997335,"click_time":1551900998189,"finger_time":1551900998090,"fix_duration":843.0865021515551,"trial":25,"RT":755,"MT":99,"sideResp":2,"stimulus":"img/250/equaldotsize/R/13_Ratio_250_L_2_R_8.png","xmouse":[797,797,797,797,797,797,797,797,797,797,797,797,797,797,797,797,797,797,797,797,797,797,797,797,797,797,797,797,797,797,797,797,797,797,797,797,800,868,944,1051,1094,1108,1093],"ymouse":[617,617,617,617,617,617,617,617,617,617,617,617,617,617,617,617,617,617,617,617,617,617,617,617,617,617,617,617,617,617,617,617,617,617,617,617,617,542,456,319,229,103,68],"timestamp_mouse":[14,38,55,75,95,115,135,155,176,195,216,236,255,275,294,315,336,356,375,396,414,434,456,475,495,516,536,555,576,596,616,635,656,676,696,716,735,755,775,795,816,836,854],"xSR":741.5,"ySR":573.95,"xT1":424.9,"yT1":0,"xT2":1058.1,"yT2":0,"toosoon":0,"cond_shown":"equaldotsize","ratio_trial":250,"smaller_num":"2","larger_num":"8","correct_side":2,"subjID":"mateochaurospna39","gender":"0","age":"14","school":"6"},{"start_time":1551900999142,"click_time":1551901000630,"finger_time":1551901000430,"fix_duration":250,"trial":26,"RT":1288,"MT":200,"sideResp":2,"stimulus":"img/900/equaldotsize/R/12_Ratio_900_L_18_R_20.png","xmouse":[804,804,804,804,804,804,804,804,804,804,804,804,804,804,804,804,804,804,804,804,804,804,804,804,804,804,804,804,804,804,804,804,804,804,804,804,804,804,804,804,804,804,804,804,804,804,804,804,804,804,804,804,804,804,804,804,804,804,804,804,804,804,804,837,894,964,1024,1078,1080,1080,1080,1078,1076,1076,1076],"ymouse":[658,658,658,658,658,658,658,658,658,658,658,658,658,658,658,658,658,658,658,658,658,658,658,658,658,658,658,658,658,658,658,658,658,658,658,658,658,658,658,658,658,658,658,658,658,658,658,658,658,658,658,658,658,658,658,658,658,658,658,658,658,658,657,613,538,433,324,150,122,108,105,103,101,100,97],"timestamp_mouse":[9,28,49,68,88,109,129,149,168,188,208,228,248,268,288,308,328,348,369,388,409,428,448,468,489,508,528,548,567,587,607,627,647,672,687,707,727,747,768,787,807,827,847,868,887,908,927,949,968,988,1008,1029,1048,1068,1089,1108,1128,1149,1168,1189,1209,1227,1247,1268,1288,1308,1328,1347,1368,1387,1407,1428,1449,1469,1488],"xSR":741.5,"ySR":573.95,"xT1":424.9,"yT1":0,"xT2":1058.1,"yT2":0,"toosoon":0,"cond_shown":"equaldotsize","ratio_trial":900,"smaller_num":"18","larger_num":"20","correct_side":2,"subjID":"mateochaurospna39","gender":"0","age":"14","school":"6"},{"start_time":1551901002033,"click_time":1551901003590,"finger_time":1551901002650,"fix_duration":602.1446482913127,"trial":27,"RT":617,"MT":940,"sideResp":1,"stimulus":"img/900/equaldotanddens/L/1_Ratio_900_L_10_R_9.png","xmouse":[791,791,791,791,791,791,791,791,791,792,793,793,793,793,793,793,792,792,792,792,792,792,792,792,792,792,792,792,792,792,791,791,791,791,791,791,791,791,791,791,791,791,791,791,791,791,791,791,791,791,791,791,791,791,790,788,787,786,786,786,786,786,786,786,785,784,777,717,665,599,534,491,480,482,484,484,484,485],"ymouse":[584,584,584,584,584,584,584,584,584,584,584,583,583,582,580,576,574,574,574,574,574,574,574,574,574,574,574,574,574,574,573,573,573,573,573,573,573,573,573,573,573,573,573,573,573,573,573,573,573,573,573,573,574,576,580,588,593,598,598,598,598,598,598,598,598,593,529,298,177,67,0,0,0,0,0,0,0,10],"timestamp_mouse":[17,37,58,77,98,116,137,157,178,197,217,237,257,277,297,318,338,358,378,397,418,438,457,478,497,517,537,557,578,597,617,637,658,678,697,716,736,756,777,796,816,837,857,876,896,916,938,956,977,997,1018,1038,1056,1077,1097,1118,1137,1157,1177,1196,1217,1237,1258,1277,1297,1317,1338,1357,1377,1397,1418,1437,1457,1477,1497,1517,1537,1557],"xSR":741.5,"ySR":573.95,"xT1":424.9,"yT1":0,"xT2":1058.1,"yT2":0,"toosoon":0,"cond_shown":"equaldotanddens","ratio_trial":900,"smaller_num":"9","larger_num":"10","correct_side":1,"subjID":"mateochaurospna39","gender":"0","age":"14","school":"6"},{"start_time":1551901010678,"click_time":1551901011510,"finger_time":1551901011370,"fix_duration":1047.4868056527973,"trial":28,"RT":692,"MT":140,"sideResp":1,"stimulus":"img/750/equaldotanddens/L/10_Ratio_750_L_4_R_3.png","xmouse":[775,775,775,775,775,775,775,775,775,775,775,775,775,775,775,775,775,775,775,775,775,775,775,775,775,775,775,775,775,775,775,774,767,743,720,652,585,517,467,440,437,444],"ymouse":[616,616,616,616,616,616,616,616,616,616,616,616,616,616,616,616,616,616,616,616,616,616,616,616,616,616,616,616,616,616,616,616,614,604,588,489,389,283,205,146,104,85],"timestamp_mouse":[12,40,51,72,92,113,132,152,172,193,212,232,252,273,292,312,333,352,371,393,412,432,452,472,493,513,532,551,572,592,612,632,652,672,692,712,732,752,772,792,813,832],"xSR":741.5,"ySR":573.95,"xT1":424.9,"yT1":0,"xT2":1058.1,"yT2":0,"toosoon":0,"cond_shown":"equaldotanddens","ratio_trial":750,"smaller_num":"3","larger_num":"4","correct_side":1,"subjID":"mateochaurospna39","gender":"0","age":"14","school":"6"},{"start_time":1551901014524,"click_time":1551901015890,"finger_time":1551901015489,"fix_duration":851.9322164768274,"trial":29,"RT":965,"MT":401,"sideResp":1,"stimulus":"img/900/randomdotsizeEA/L/2_Ratio_900_L_20_R_18.png","xmouse":[766,766,766,766,766,766,766,766,766,766,766,766,766,766,766,766,766,766,766,766,766,766,766,766,766,766,766,766,766,767,767,766,765,763,763,762,761,761,760,760,760,760,760,760,760,760,759,756,721,668,557,492,449,420,418,417,417,417,417,415,414,414,414,426,440,453,466,482,484],"ymouse":[642,642,642,642,642,642,642,642,642,642,642,642,642,642,642,642,642,642,642,642,642,642,642,642,642,642,642,642,642,642,642,642,642,642,642,642,643,643,643,643,643,643,643,643,643,643,643,634,562,491,365,285,232,199,195,194,192,188,177,169,164,163,162,156,149,140,128,105,99],"timestamp_mouse":[10,35,47,66,87,106,126,145,166,186,206,226,246,266,287,307,326,346,366,386,406,425,446,466,487,507,525,547,565,587,606,625,645,666,686,706,726,747,766,786,806,826,846,866,886,906,926,945,965,986,1006,1026,1046,1067,1086,1107,1126,1146,1166,1185,1207,1226,1246,1265,1286,1307,1325,1347,1365],"xSR":741.5,"ySR":573.95,"xT1":424.9,"yT1":0,"xT2":1058.1,"yT2":0,"toosoon":0,"cond_shown":"randomdotsizeEA","ratio_trial":900,"smaller_num":"18","larger_num":"20","correct_side":1,"subjID":"mateochaurospna39","gender":"0","age":"14","school":"6"},{"start_time":1551901018144,"click_time":1551901019390,"finger_time":1551901018990,"fix_duration":1453.395520107321,"trial":30,"RT":846,"MT":400,"sideResp":1,"stimulus":"img/750/equaldotanddens/L/8_Ratio_750_L_4_R_3.png","xmouse":[799,799,799,799,799,799,799,799,799,799,799,799,799,799,799,799,799,799,799,799,799,799,799,799,799,799,799,799,799,799,799,799,799,799,799,799,799,799,799,799,798,789,632,580,571,571,566,545,525,508,503,502,503,504,504,504,504,501,499,497,494,492,492],"ymouse":[598,598,598,598,598,598,598,598,598,598,598,598,598,598,598,598,598,598,598,598,598,598,598,598,598,598,598,598,598,598,598,598,598,598,598,598,598,598,598,598,596,591,519,472,444,421,393,282,231,189,160,147,132,128,127,126,124,118,113,109,103,100,98],"timestamp_mouse":[11,26,47,66,87,106,126,146,166,186,206,226,247,266,287,307,325,346,367,386,405,427,447,467,486,506,526,546,566,586,606,626,646,666,685,707,725,746,767,786,807,826,846,866,886,907,926,945,966,986,1007,1026,1046,1067,1086,1107,1126,1146,1165,1186,1207,1226,1245],"xSR":741.5,"ySR":573.95