[{"start_time":1551793944605,"click_time":1551793951941,"finger_time":1551793950959,"fix_duration":661.5898768880853,"trial":0,"RT":6354,"MT":982,"sideResp":2,"stimulus":[],"xmouse":[783,783,783,783,783,783,784,784,784,784,784,784,784,784,784,784,784,784,784,784,784,784,784,784,784,784,784,784,784,784,784,784,784,784,784,784,784,784,784,784,784,784,784,784,784,784,784,784,784,784,784,784,784,784,784,784,784,784,784,784,784,784,784,784,784,784,784,784,784,784,784,784,784,784,784,784,784,784,784,784,784,784,784,784,784,784,784,784,784,784,784,784,784,784,784,784,784,784,784,784,784,784,784,784,784,784,784,784,784,784,784,784,784,784,784,784,784,784,784,784,784,784,784,784,784,784,784,784,784,784,784,784,784,784,784,784,784,784,784,784,784,784,784,786,786,786,787,788,790,792,794,797,805,811,813,814,816,818,819,819,819,819,819,819,819,819,819,819,819,819,819,819,819,818,818,818,818,817,816,815,815,815,815,814,814,813,813,813,813,813,813,813,813,813,813,813,813,813,813,813,813,813,813,813,813,813,813,813,813,811,811,811,811,811,811,811,811,811,811,811,811,811,811,811,811,811,811,811,810,810,810,815,823,824,824,824,824,824,824,824,824,824,824,824,824,824,824,824,824,824,824,824,824,824,824,824,824,824,824,824,824,824,824,824,824,824,824,824,824,824,824,824,824,824,824,824,824,824,824,824,824,824,824,824,824,824,824,824,824,824,824,824,824,824,824,824,824,824,824,824,824,824,824,824,824,824,824,824,824,833,838,838,838,839,838,838,838,836,835,836,840,842,842,843,844,845,845,844,843,843,843,843,846,848,850,851,852,853,854,855,861,877,901,956,975,994,1007,1026,1039,1050,1057,1063,1071,1071,1071,1071,1071,1074,1082,1085,1089,1091,1093,1095,1095,1095,1095],"ymouse":[502,502,502,502,502,502,500,499,498,498,498,498,498,498,498,498,498,498,498,498,498,498,498,498,498,498,498,498,498,498,498,498,498,498,498,498,498,498,498,498,498,498,498,498,498,498,498,498,498,498,498,498,498,498,498,498,498,498,498,498,498,498,498,498,498,498,498,498,498,498,498,498,498,498,498,498,498,498,498,498,498,498,498,498,498,498,498,498,498,498,498,498,498,498,498,498,498,498,498,498,498,498,497,497,497,497,497,497,497,497,497,497,497,497,497,497,497,497,497,497,497,497,497,496,496,496,496,496,496,496,496,496,496,496,496,496,496,496,496,496,496,495,494,493,492,491,491,490,487,485,483,481,476,472,470,467,464,458,457,457,457,457,457,457,457,457,457,457,457,457,457,457,457,457,458,458,458,458,460,460,460,460,460,461,461,462,462,462,462,462,462,462,462,462,462,462,462,462,462,462,462,462,462,462,462,462,462,462,462,464,464,464,464,464,464,464,464,464,464,462,461,461,461,460,460,460,458,457,456,456,462,468,468,468,468,468,468,468,468,468,468,468,468,468,468,468,468,468,468,468,468,468,468,468,468,468,468,468,468,468,468,468,468,468,468,468,468,468,468,468,468,468,468,468,468,468,468,468,468,468,468,468,468,468,468,468,468,468,468,468,468,468,468,468,468,468,468,468,468,468,468,468,468,468,468,468,468,468,468,465,463,463,463,461,455,453,450,445,444,438,420,415,415,417,419,420,420,424,425,425,425,425,425,421,419,414,410,406,404,402,394,379,363,319,300,284,272,244,224,208,196,184,153,145,141,136,133,127,118,116,113,110,108,103,102,101,99],"timestamp_mouse":[13,47,54,75,94,114,134,155,174,193,214,233,255,273,294,314,334,355,373,394,414,433,455,475,494,513,535,553,575,593,615,633,655,674,694,714,733,754,775,793,814,834,853,875,894,913,934,954,974,993,1015,1033,1054,1075,1095,1114,1135,1155,1175,1193,1214,1234,1255,1274,1295,1315,1333,1355,1375,1394,1414,1433,1454,1474,1494,1515,1533,1554,1575,1594,1613,1635,1654,1673,1694,1715,1735,1754,1774,1794,1814,1835,1854,1874,1894,1914,1935,1953,1974,1995,2015,2033,2055,2074,2093,2114,2134,2154,2174,2195,2215,2235,2253,2274,2293,2315,2334,2355,2375,2394,2414,2435,2454,2475,2495,2514,2535,2554,2575,2593,2614,2633,2654,2675,2694,2714,2735,2755,2775,2794,2815,2834,2853,2873,2895,2915,2933,2954,2974,2993,3015,3035,3054,3075,3094,3114,3134,3155,3175,3193,3215,3235,3253,3274,3295,3314,3333,3355,3374,3394,3414,3434,3455,3474,3494,3514,3533,3553,3574,3593,3613,3634,3654,3675,3694,3714,3733,3754,3775,3794,3814,3835,3853,3874,3894,3914,3934,3953,3974,3994,4014,4034,4053,4073,4094,4115,4134,4154,4174,4194,4215,4235,4254,4274,4294,4314,4333,4355,4373,4395,4413,4434,4453,4475,4494,4514,4534,4554,4574,4593,4614,4634,4655,4673,4695,4714,4733,4754,4774,4795,4814,4833,4853,4873,4893,4915,4933,4955,4974,4993,5014,5034,5054,5074,5094,5114,5133,5154,5174,5195,5214,5235,5253,5274,5293,5315,5333,5355,5374,5394,5415,5434,5454,5475,5495,5513,5535,5554,5573,5593,5613,5635,5653,5673,5695,5713,5734,5755,5775,5793,5815,5834,5854,5875,5895,5914,5934,5953,5974,5994,6014,6035,6054,6075,6093,6114,6134,6153,6174,6195,6214,6234,6255,6273,6294,6315,6334,6354,6374,6393,6414,6434,6454,6473,6494,6515,6534,6554,6574,6594,6614,6634,6654,6673,6694,6715,6734,6754,6773,6793,6815,6834,6855,6874,6894,6913,6934,6955,6973,6993,7014,7034,7055,7074,7093,7114,7134,7155,7174,7194,7214,7234,7255,7274,7294,7314,7335],"xSR":741.5,"ySR":447.2,"xT1":424.9,"yT1":0,"xT2":1058.1,"yT2":0,"toosoon":0,"cond_shown":"Congruent","ratio_trial":300,"L_num":1,"L_den":3,"R_num":19,"R_den":30,"correct_side":2,"subjID":"MATEOFLOREZPEREZ23","gender":"0","age":"12","school":"6","test":{"fix_dur":[250,1500],"timestim":1000,"targets_dim":[100,100],"targets_relative_coord":[0.3,0.7],"size_stim":[880,420],"start_dim":[100,100],"size_start":[300,300],"size_fix":60,"samplingrate":20,"img_types":["Congruent","Incongruent"],"ratios":[100,200,300],"rep_conds":19,"nTrials":120,"trials_to_rest":500,"Trials_order":[52,10,12,2,39,6,45,78,94,70,64,89,5,9,75,98,58,101,11,3,86,34,96,60,55,59,85,92,107,93,61,1,19,104,30,42,82,103,48,33,110,29,65,67,26,23,8,109,81,50,7,105,114,112,83,51,68,46,118,16,53,115,56,73,41,13,87,108,111,99,49,22,63,116,90,62,91,106,71,113,18,57,79,119,117,80,102,32,38,88,31,14,28,100,97,66,37,27,69,44,72,24,21,54,35,25,84,43,15,40,74,95,4,36,17,47,0,76,20,77],"cond_shown":["Congruent","Congruent","Congruent","Congruent","Incongruent","Congruent","Incongruent","Congruent","Congruent","Congruent","Congruent","Incongruent","Incongruent","Incongruent","Incongruent","Congruent","Congruent","Incongruent","Incongruent","Incongruent","Congruent","Congruent","Congruent","Congruent","Incongruent","Incongruent","Incongruent","Congruent","Incongruent","Incongruent","Incongruent","Incongruent","Incongruent","Congruent","Congruent","Congruent","Congruent","Incongruent","Congruent","Incongruent","Congruent","Incongruent","Incongruent","Incongruent","Congruent","Incongruent","Congruent","Incongruent","Incongruent","Congruent","Incongruent","Incongruent","Congruent","Congruent","Incongruent","Incongruent","Congruent","Congruent","Congruent","Congruent","Incongruent","Incongruent","Congruent","Incongruent","Incongruent","Incongruent","Incongruent","Congruent","Incongruent","Incongruent","Incongruent","Congruent","Incongruent","Congruent","Congruent","Congruent","Incongruent","Congruent","Incongruent","Incongruent","Congruent","Incongruent","Incongruent","Incongruent","Incongruent","Congruent","Congruent","Congruent","Congruent","Congruent","Incongruent","Congruent","Congruent","Congruent","Incongruent","Congruent","Incongruent","Incongruent","Incongruent","Congruent","Congruent","Congruent","Incongruent","Congruent","Incongruent","Incongruent","Congruent","Incongruent","Incongruent","Congruent","Congruent","Incongruent","Congruent","Congruent","Incongruent","Incongruent","Congruent","Congruent","Congruent","Incongruent"],"ratio_trial":[300,300,100,200,200,100,200,100,300,300,300,300,300,200,200,200,300,300,300,200,200,300,100,100,100,300,100,200,300,200,100,100,100,200,100,100,300,100,100,200,200,300,300,100,200,300,200,100,200,200,100,200,100,300,300,200,200,300,300,300,300,100,200,100,300,100,200,100,200,200,100,300,200,200,100,200,100,300,300,300,100,200,100,300,200,200,100,200,200,300,100,200,300,300,100,100,100,200,200,200,100,100,200,100,300,100,100,100,200,300,200,300,300,100,300,300,100,300,200,300],"left_num":[1,11,11,12,7,4,4,3,11,3,20,1,4,1,6,6,11,4,13,14,12,20,1,2,11,4,9,12,7,7,9,2,13,5,11,6,4,10,11,14,3,4,4,9,13,4,9,3,3,15,11,14,9,11,4,7,1,1,11,11,13,3,12,3,1,6,7,6,4,4,10,3,4,3,11,6,9,1,1,1,7,14,11,8,3,9,8,9,8,1,2,9,24,1,13,6,9,7,4,12,4,8,1,4,4,10,7,6,11,4,8,13,3,7,8,13,15,4,13,4],"right_num":[19,1,6,6,6,15,6,2,2,4,14,2,2,3,3,7,4,2,12,6,6,8,18,6,9,2,13,6,8,4,6,8,6,14,6,5,1,8,4,12,14,8,2,13,14,2,4,4,1,4,9,12,8,2,2,14,21,3,2,2,12,11,6,7,2,7,12,5,6,6,8,11,6,14,6,7,20,7,2,3,15,6,9,9,1,13,2,4,3,11,8,13,8,6,6,15,20,8,1,6,6,2,2,6,6,9,9,7,3,2,3,12,4,9,14,12,13,13,14,2],"left_den":[3,22,22,15,15,10,5,6,22,6,25,2,20,2,20,12,22,20,26,30,15,25,2,5,22,20,15,20,10,15,18,4,26,10,22,20,10,25,22,30,6,5,20,15,26,20,20,6,10,25,22,30,15,22,20,10,2,5,22,22,26,5,15,9,2,10,10,20,5,5,25,12,5,10,22,12,10,20,2,2,14,30,22,10,10,30,16,20,15,5,4,30,30,5,26,12,10,10,30,15,8,16,3,8,5,25,14,10,20,5,15,26,6,14,10,26,25,20,26,20],"right_den":[30,5,15,10,9,30,10,5,10,5,28,10,4,10,6,10,20,4,15,9,10,16,30,12,15,4,26,15,20,6,10,20,10,20,15,25,10,16,10,18,20,16,4,26,20,4,16,10,2,10,15,18,16,10,4,28,30,6,10,10,15,22,10,30,10,14,24,25,10,10,16,20,10,28,15,10,25,20,10,15,25,9,15,18,2,26,5,16,9,22,20,26,16,12,10,25,25,16,3,10,10,5,15,10,12,18,15,14,4,4,9,15,5,15,28,15,26,26,20,4],"correct_side":[2,1,1,1,2,2,1,1,1,2,1,1,2,1,2,2,1,2,2,2,1,1,2,2,2,2,1,1,1,2,2,1,2,2,1,1,1,2,1,2,2,1,2,1,2,2,1,1,2,1,2,2,1,1,2,1,2,2,1,1,2,1,1,1,1,1,1,1,1,1,2,2,1,2,1,2,1,2,1,1,2,2,2,1,2,2,1,1,1,2,1,2,1,2,2,2,1,1,2,1,2,1,1,2,1,2,2,1,2,1,1,2,2,2,1,2,1,2,2,2],"img_shown":["img2/300/Congruent/R/C_Dist_300_LN_1_LD_3_RN_19_RD_30_1.png","img2/300/Congruent/L/C_Dist_300_LN_11_LD_22_RN_1_RD_5_0.png","img2/100/Congruent/L/C_Dist_100_LN_11_LD_22_RN_6_RD_15_0.png","img2/200/Congruent/L/C_Dist_200_LN_12_LD_15_RN_6_RD_10_0.png","img2/200/Incongruent/R/I_Dist_200_LN_7_LD_15_RN_6_RD_9_1.png","img2/100/Congruent/R/C_Dist_100_LN_4_LD_10_RN_15_RD_30_1.png","img2/200/Incongruent/L/I_Dist_200_LN_4_LD_5_RN_6_RD_10_0.png","img2/100/Congruent/L/C_Dist_100_LN_3_LD_6_RN_2_RD_5_0.png","img2/300/Congruent/L/C_Dist_300_LN_11_LD_22_RN_2_RD_10_0.png","img2/300/Congruent/R/C_Dist_300_LN_3_LD_6_RN_4_RD_5_1.png","img2/300/Congruent/L/C_Dist_300_LN_20_LD_25_RN_14_RD_28_0.png","img2/300/Incongruent/L/I_Dist_300_LN_1_LD_2_RN_2_RD_10_0.png","img2/300/Incongruent/R/I_Dist_300_LN_4_LD_20_RN_2_RD_4_1.png","img2/200/Incongruent/L/I_Dist_200_LN_1_LD_2_RN_3_RD_10_0.png","img2/200/Incongruent/R/I_Dist_200_LN_6_LD_20_RN_3_RD_6_1.png","img2/200/Congruent/R/C_Dist_200_LN_6_LD_12_RN_7_RD_10_1.png","img2/300/Congruent/L/C_Dist_300_LN_11_LD_22_RN_4_RD_20_0.png","img2/300/Incongruent/R/I_Dist_300_LN_4_LD_20_RN_2_RD_4_1.png","img2/300/Incongruent/R/I_Dist_300_LN_13_LD_26_RN_12_RD_15_1.png","img2/200/Incongruent/R/I_Dist_200_LN_14_LD_30_RN_6_RD_9_1.png","img2/200/Congruent/L/C_Dist_200_LN_12_LD_15_RN_6_RD_10_0.png","img2/300/Congruent/L/C_Dist_300_LN_20_LD_25_RN_8_RD_16_0.png","img2/100/Congruent/R/C_Dist_100_LN_1_LD_2_RN_18_RD_30_1.png","img2/100/Congruent/R/C_Dist_100_LN_2_LD_5_RN_6_RD_12_1.png","img2/100/Incongruent/R/I_Dist_100_LN_11_LD_22_RN_9_RD_15_1.png","img2/300/Incongruent/R/I_Dist_300_LN_4_LD_20_RN_2_RD_4_1.png","img2/100/Incongruent/L/I_Dist_100_LN_9_LD_15_RN_13_RD_26_0.png","img2/200/Congruent/L/C_Dist_200_LN_12_LD_20_RN_6_RD_15_0.png","img2/300/Incongruent/L/I_Dist_300_LN_7_LD_10_RN_8_RD_20_0.png","img2/200/Incongruent/R/I_Dist_200_LN_7_LD_15_RN_4_RD_6_1.png","img2/100/Incongruent/R/I_Dist_100_LN_9_LD_18_RN_6_RD_10_1.png","img2/100/Incongruent/L/I_Dist_100_LN_2_LD_4_RN_8_RD_20_0.png","img2/100/Incongruent/R/I_Dist_100_LN_13_LD_26_RN_6_RD_10_1.png","img2/200/Congruent/R/C_Dist_200_LN_5_LD_10_RN_14_RD_20_1.png","img2/100/Congruent/L/C_Dist_100_LN_11_LD_22_RN_6_RD_15_0.png","img2/100/Congruent/L/C_Dist_100_LN_6_LD_20_RN_5_RD_25_0.png","img2/300/Congruent/L/C_Dist_300_LN_4_LD_10_RN_1_RD_10_0.png","img2/100/Incongruent/R/I_Dist_100_LN_10_LD_25_RN_8_RD_16_1.png","img2/100/Congruent/L/C_Dist_100_LN_11_LD_22_RN_4_RD_10_0.png","img2/200/Incongruent/R/I_Dist_200_LN_14_LD_30_RN_12_RD_18_1.png","img2/200/Congruent/R/C_Dist_200_LN_3_LD_6_RN_14_RD_20_1.png","img2/300/Incongruent/L/I_Dist_300_LN_4_LD_5_RN_8_RD_16_0.png","img2/300/Incongruent/R/I_Dist_300_LN_4_LD_20_RN_2_RD_4_1.png","img2/100/Incongruent/L/I_Dist_100_LN_9_LD_15_RN_13_RD_26_0.png","img2/200/Congruent/R/C_Dist_200_LN_13_LD_26_RN_14_RD_20_1.png","img2/300/Incongruent/R/I_Dist_300_LN_4_LD_20_RN_2_RD_4_1.png","img2/200/Congruent/L/C_Dist_200_LN_9_LD_20_RN_4_RD_16_0.png","img2/100/Incongruent/L/I_Dist_100_LN_3_LD_6_RN_4_RD_10_0.png","img2/200/Incongruent/R/I_Dist_200_LN_3_LD_10_RN_1_RD_2_1.png","img2/200/Congruent/L/C_Dist_200_LN_15_LD_25_RN_4_RD_10_0.png","img2/100/Incongruent/R/I_Dist_100_LN_11_LD_22_RN_9_RD_15_1.png","img2/200/Incongruent/R/I_Dist_200_LN_14_LD_30_RN_12_RD_18_1.png","img2/100/Congruent/L/C_Dist_100_LN_9_LD_15_RN_8_RD_16_0.png","img2/300/Congruent/L/C_Dist_300_LN_11_LD_22_RN_2_RD_10_0.png","img2/300/Incongruent/R/I_Dist_300_LN_4_LD_20_RN_2_RD_4_1.png","img2/200/Incongruent/L/I_Dist_200_LN_7_LD_10_RN_14_RD_28_0.png","img2/200/Congruent/R/C_Dist_200_LN_1_LD_2_RN_21_RD_30_1.png","img2/300/Congruent/R/C_Dist_300_LN_1_LD_5_RN_3_RD_6_1.png","img2/300/Congruent/L/C_Dist_300_LN_11_LD_22_RN_2_RD_10_0.png","img2/300/Congruent/L/C_Dist_300_LN_11_LD_22_RN_2_RD_10_0.png","img2/300/Incongruent/R/I_Dist_300_LN_13_LD_26_RN_12_RD_15_1.png","img2/100/Incongruent/L/I_Dist_100_LN_3_LD_5_RN_11_RD_22_0.png","img2/200/Congruent/L/C_Dist_200_LN_12_LD_15_RN_6_RD_10_0.png","img2/100/Incongruent/L/I_Dist_100_LN_3_LD_9_RN_7_RD_30_0.png","img2/300/Incongruent/L/I_Dist_300_LN_1_LD_2_RN_2_RD_10_0.png","img2/100/Incongruent/L/I_Dist_100_LN_6_LD_10_RN_7_RD_14_0.png","img2/200/Incongruent/L/I_Dist_200_LN_7_LD_10_RN_12_RD_24_0.png","img2/100/Congruent/L/C_Dist_100_LN_6_LD_20_RN_5_RD_25_0.png","img2/200/Incongruent/L/I_Dist_200_LN_4_LD_5_RN_6_RD_10_0.png","img2/200/Incongruent/L/I_Dist_200_LN_4_LD_5_RN_6_RD_10_0.png","img2/100/Incongruent/R/I_Dist_100_LN_10_LD_25_RN_8_RD_16_1.png","img2/300/Congruent/R/C_Dist_300_LN_3_LD_12_RN_11_RD_20_1.png","img2/200/Incongruent/L/I_Dist_200_LN_4_LD_5_RN_6_RD_10_0.png","img2/200/Congruent/R/C_Dist_200_LN_3_LD_10_RN_14_RD_28_1.png","img2/100/Congruent/L/C_Dist_100_LN_11_LD_22_RN_6_RD_15_0.png","img2/200/Congruent/R/C_Dist_200_LN_6_LD_12_RN_7_RD_10_1.png","img2/100/Incongruent/L/I_Dist_100_LN_9_LD_10_RN_20_RD_25_0.png","img2/300/Congruent/R/C_Dist_300_LN_1_LD_20_RN_7_RD_20_1.png","img2/300/Incongruent/L/I_Dist_300_LN_1_LD_2_RN_2_RD_10_0.png","img2/300/Incongruent/L/I_Dist_300_LN_1_LD_2_RN_3_RD_15_0.png","img2/100/Congruent/R/C_Dist_100_LN_7_LD_14_RN_15_RD_25_1.png","img2/200/Incongruent/R/I_Dist_200_LN_14_LD_30_RN_6_RD_9_1.png","img2/100/Incongruent/R/I_Dist_100_LN_11_LD_22_RN_9_RD_15_1.png","img2/300/Incongruent/L/I_Dist_300_LN_8_LD_10_RN_9_RD_18_0.png","img2/200/Incongruent/R/I_Dist_200_LN_3_LD_10_RN_1_RD_2_1.png","img2/200/Congruent/R/C_Dist_200_LN_9_LD_30_RN_13_RD_26_1.png","img2/100/Congruent/L/C_Dist_100_LN_8_LD_16_RN_2_RD_5_0.png","img2/200/Congruent/L/C_Dist_200_LN_9_LD_20_RN_4_RD_16_0.png","img2/200/Congruent/L/C_Dist_200_LN_8_LD_15_RN_3_RD_9_0.png","img2/300/Congruent/R/C_Dist_300_LN_1_LD_5_RN_11_RD_22_1.png","img2/100/Incongruent/L/I_Dist_100_LN_2_LD_4_RN_8_RD_20_0.png","img2/200/Congruent/R/C_Dist_200_LN_9_LD_30_RN_13_RD_26_1.png","img2/300/Congruent/L/C_Dist_300_LN_24_LD_30_RN_8_RD_16_0.png","img2/300/Congruent/R/C_Dist_300_LN_1_LD_5_RN_6_RD_12_1.png","img2/100/Incongruent/R/I_Dist_100_LN_13_LD_26_RN_6_RD_10_1.png","img2/100/Congruent/R/C_Dist_100_LN_6_LD_12_RN_15_RD_25_1.png","img2/100/Incongruent/L/I_Dist_100_LN_9_LD_10_RN_20_RD_25_0.png","img2/200/Incongruent/L/I_Dist_200_LN_7_LD_10_RN_8_RD_16_0.png","img2/200/Incongruent/R/I_Dist_200_LN_4_LD_30_RN_1_RD_3_1.png","img2/200/Congruent/L/C_Dist_200_LN_12_LD_15_RN_6_RD_10_0.png","img2/100/Congruent/R/C_Dist_100_LN_4_LD_8_RN_6_RD_10_1.png","img2/100/Congruent/L/C_Dist_100_LN_8_LD_16_RN_2_RD_5_0.png","img2/200/Incongruent/L/I_Dist_200_LN_1_LD_3_RN_2_RD_15_0.png","img2/100/Congruent/R/C_Dist_100_LN_4_LD_8_RN_6_RD_10_1.png","img2/300/Incongruent/L/I_Dist_300_LN_4_LD_5_RN_6_RD_12_0.png","img2/100/Incongruent/R/I_Dist_100_LN_10_LD_25_RN_9_RD_18_1.png","img2/100/Congruent/R/C_Dist_100_LN_7_LD_14_RN_9_RD_15_1.png","img2/100/Incongruent/L/I_Dist_100_LN_6_LD_10_RN_7_RD_14_0.png","img2/200/Incongruent/R/I_Dist_200_LN_11_LD_20_RN_3_RD_4_1.png","img2/300/Congruent/L/C_Dist_300_LN_4_LD_5_RN_2_RD_4_0.png","img2/200/Congruent/L/C_Dist_200_LN_8_LD_15_RN_3_RD_9_0.png","img2/300/Incongruent/R/I_Dist_300_LN_13_LD_26_RN_12_RD_15_1.png","img2/300/Congruent/R/C_Dist_300_LN_3_LD_6_RN_4_RD_5_1.png","img2/100/Congruent/R/C_Dist_100_LN_7_LD_14_RN_9_RD_15_1.png","img2/300/Incongruent/L/I_Dist_300_LN_8_LD_10_RN_14_RD_28_0.png","img2/300/Incongruent/R/I_Dist_300_LN_13_LD_26_RN_12_RD_15_1.png","img2/100/Congruent/L/C_Dist_100_LN_15_LD_25_RN_13_RD_26_0.png","img2/300/Congruent/R/C_Dist_300_LN_4_LD_20_RN_13_RD_26_1.png","img2/200/Congruent/R/C_Dist_200_LN_13_LD_26_RN_14_RD_20_1.png","img2/300/Incongruent/R/I_Dist_300_LN_4_LD_20_RN_2_RD_4_1.png"],"dist100_C":[["C_Dist_100_LN_10_LD_25_RN_3_RD_10_0.png","C_Dist_100_LN_11_LD_22_RN_4_RD_10_0.png","C_Dist_100_LN_11_LD_22_RN_6_RD_15_0.png","C_Dist_100_LN_15_LD_25_RN_13_RD_26_0.png","C_Dist_100_LN_3_LD_6_RN_2_RD_5_0.png","C_Dist_100_LN_6_LD_20_RN_5_RD_25_0.png","C_Dist_100_LN_8_LD_16_RN_2_RD_5_0.png","C_Dist_100_LN_9_LD_15_RN_8_RD_16_0.png"],["C_Dist_100_LN_1_LD_2_RN_18_RD_30_1.png","C_Dist_100_LN_1_LD_2_RN_3_RD_5_1.png","C_Dist_100_LN_12_LD_30_RN_13_RD_26_1.png","C_Dist_100_LN_2_LD_5_RN_11_RD_22_1.png","C_Dist_100_LN_2_LD_5_RN_6_RD_12_1.png","C_Dist_100_LN_3_LD_20_RN_4_RD_16_1.png","C_Dist_100_LN_4_LD_10_RN_15_RD_30_1.png","C_Dist_100_LN_4_LD_8_RN_6_RD_10_1.png","C_Dist_100_LN_6_LD_12_RN_15_RD_25_1.png","C_Dist_100_LN_7_LD_14_RN_15_RD_25_1.png","C_Dist_100_LN_7_LD_14_RN_9_RD_15_1.png"]],"dist100_I":[["I_Dist_100_LN_1_LD_2_RN_8_RD_20_0.png","I_Dist_100_LN_2_LD_4_RN_6_RD_15_0.png","I_Dist_100_LN_2_LD_4_RN_8_RD_20_0.png","I_Dist_100_LN_3_LD_5_RN_11_RD_22_0.png","I_Dist_100_LN_3_LD_5_RN_8_RD_16_0.png","I_Dist_100_LN_3_LD_6_RN_4_RD_10_0.png","I_Dist_100_LN_3_LD_9_RN_7_RD_30_0.png","I_Dist_100_LN_4_LD_8_RN_8_RD_20_0.png","I_Dist_100_LN_6_LD_10_RN_11_RD_22_0.png","I_Dist_100_LN_6_LD_10_RN_13_RD_26_0.png","I_Dist_100_LN_6_LD_10_RN_7_RD_14_0.png","I_Dist_100_LN_9_LD_10_RN_20_RD_25_0.png","I_Dist_100_LN_9_LD_15_RN_13_RD_26_0.png","I_Dist_100_LN_9_LD_15_RN_14_RD_28_0.png"],["I_Dist_100_LN_10_LD_25_RN_8_RD_16_1.png","I_Dist_100_LN_10_LD_25_RN_9_RD_18_1.png","I_Dist_100_LN_11_LD_22_RN_9_RD_15_1.png","I_Dist_100_LN_12_LD_24_RN_9_RD_15_1.png","I_Dist_100_LN_12_LD_30_RN_2_RD_4_1.png","I_Dist_100_LN_13_LD_26_RN_12_RD_20_1.png","I_Dist_100_LN_13_LD_26_RN_6_RD_10_1.png","I_Dist_100_LN_17_LD_30_RN_10_RD_15_1.png","I_Dist_100_LN_6_LD_12_RN_3_RD_5_1.png","I_Dist_100_LN_8_LD_16_RN_6_RD_10_1.png","I_Dist_100_LN_8_LD_20_RN_1_RD_2_1.png","I_Dist_100_LN_9_LD_18_RN_6_RD_10_1.png"]],"dist100_S":[["E_Dist_100_LN_2_LD_12_RN_2_RD_30_0.png","E_Dist_100_LN_6_LD_10_RN_6_RD_12_0.png"],["E_Dist_100_LN_6_LD_12_RN_6_RD_10_1.png"]],"dist200_C":[["C_Dist_200_LN_11_LD_22_RN_3_RD_10_0.png","C_Dist_200_LN_12_LD_15_RN_6_RD_10_0.png","C_Dist_200_LN_12_LD_20_RN_6_RD_15_0.png","C_Dist_200_LN_14_LD_28_RN_6_RD_20_0.png","C_Dist_200_LN_15_LD_25_RN_4_RD_10_0.png","C_Dist_200_LN_16_LD_20_RN_12_RD_20_0.png","C_Dist_200_LN_16_LD_30_RN_9_RD_27_0.png","C_Dist_200_LN_20_LD_25_RN_9_RD_15_0.png","C_Dist_200_LN_21_LD_30_RN_2_RD_4_0.png","C_Dist_200_LN_4_LD_10_RN_3_RD_15_0.png","C_Dist_200_LN_4_LD_8_RN_3_RD_10_0.png","C_Dist_200_LN_6_LD_15_RN_3_RD_15_0.png","C_Dist_200_LN_7_LD_21_RN_2_RD_15_0.png","C_Dist_200_LN_8_LD_15_RN_2_RD_6_0.png","C_Dist_200_LN_8_LD_15_RN_3_RD_9_0.png","C_Dist_200_LN_8_LD_15_RN_7_RD_21_0.png","C_Dist_200_LN_9_LD_20_RN_4_RD_16_0.png"],["C_Dist_200_LN_1_LD_2_RN_21_RD_30_1.png","C_Dist_200_LN_13_LD_26_RN_14_RD_20_1.png","C_Dist_200_LN_3_LD_10_RN_11_RD_22_1.png","C_Dist_200_LN_3_LD_10_RN_14_RD_28_1.png","C_Dist_200_LN_3_LD_10_RN_7_RD_14_1.png","C_Dist_200_LN_3_LD_12_RN_9_RD_20_1.png","C_Dist_200_LN_3_LD_6_RN_14_RD_20_1.png","C_Dist_200_LN_5_LD_10_RN_14_RD_20_1.png","C_Dist_200_LN_6_LD_12_RN_7_RD_10_1.png","C_Dist_200_LN_6_LD_20_RN_11_RD_22_1.png","C_Dist_200_LN_7_LD_15_RN_18_RD_27_1.png","C_Dist_200_LN_9_LD_30_RN_13_RD_26_1.png"]],"dist200_I":[["I_Dist_200_LN_1_LD_2_RN_3_RD_10_0.png","I_Dist_200_LN_1_LD_3_RN_2_RD_15_0.png","I_Dist_200_LN_3_LD_4_RN_11_RD_20_0.png","I_Dist_200_LN_4_LD_5_RN_6_RD_10_0.png","I_Dist_200_LN_4_LD_6_RN_14_RD_30_0.png","I_Dist_200_LN_7_LD_10_RN_12_RD_24_0.png","I_Dist_200_LN_7_LD_10_RN_14_RD_28_0.png","I_Dist_200_LN_7_LD_10_RN_8_RD_16_0.png"],["I_Dist_200_LN_11_LD_20_RN_3_RD_4_1.png","I_Dist_200_LN_14_LD_30_RN_12_RD_18_1.png","I_Dist_200_LN_14_LD_30_RN_6_RD_9_1.png","I_Dist_200_LN_3_LD_10_RN_1_RD_2_1.png","I_Dist_200_LN_4_LD_30_RN_1_RD_3_1.png","I_Dist_200_LN_6_LD_20_RN_3_RD_6_1.png","I_Dist_200_LN_7_LD_15_RN_4_RD_6_1.png","I_Dist_200_LN_7_LD_15_RN_6_RD_9_1.png","I_Dist_200_LN_9_LD_15_RN_8_RD_10_1.png"]],"dist200_S":[["E_Dist_200_LN_3_LD_6_RN_3_RD_10_0.png"],["E_Dist_200_LN_3_LD_10_RN_3_RD_6_1.png"]],"dist300_C":[["C_Dist_300_LN_11_LD_22_RN_1_RD_5_0.png","C_Dist_300_LN_11_LD_22_RN_2_RD_10_0.png","C_Dist_300_LN_11_LD_22_RN_4_RD_20_0.png","C_Dist_300_LN_12_LD_24_RN_2_RD_10_0.png","C_Dist_300_LN_18_LD_20_RN_9_RD_15_0.png","C_Dist_300_LN_20_LD_25_RN_13_RD_26_0.png","C_Dist_300_LN_20_LD_25_RN_14_RD_28_0.png","C_Dist_300_LN_20_LD_25_RN_5_RD_10_0.png","C_Dist_300_LN_20_LD_25_RN_8_RD_16_0.png","C_Dist_300_LN_20_LD_25_RN_9_RD_18_0.png","C_Dist_300_LN_24_LD_30_RN_2_RD_4_0.png","C_Dist_300_LN_24_LD_30_RN_8_RD_16_0.png","C_Dist_300_LN_3_LD_6_RN_2_RD_10_0.png","C_Dist_300_LN_4_LD_10_RN_1_RD_10_0.png","C_Dist_300_LN_4_LD_5_RN_2_RD_4_0.png","C_Dist_300_LN_8_LD_16_RN_1_RD_5_0.png","C_Dist_300_LN_9_LD_10_RN_3_RD_5_0.png"],["C_Dist_300_LN_1_LD_20_RN_7_RD_20_1.png","C_Dist_300_LN_1_LD_3_RN_19_RD_30_1.png","C_Dist_300_LN_1_LD_30_RN_8_RD_24_1.png","C_Dist_300_LN_1_LD_5_RN_11_RD_22_1.png","C_Dist_300_LN_1_LD_5_RN_3_RD_6_1.png","C_Dist_300_LN_1_LD_5_RN_6_RD_12_1.png","C_Dist_300_LN_2_LD_10_RN_12_RD_24_1.png","C_Dist_300_LN_2_LD_20_RN_10_RD_25_1.png","C_Dist_300_LN_3_LD_12_RN_11_RD_20_1.png","C_Dist_300_LN_3_LD_6_RN_4_RD_5_1.png","C_Dist_300_LN_4_LD_20_RN_13_RD_26_1.png","C_Dist_300_LN_5_LD_25_RN_6_RD_12_1.png","C_Dist_300_LN_5_LD_25_RN_7_RD_14_1.png","C_Dist_300_LN_7_LD_14_RN_20_RD_25_1.png","C_Dist_300_LN_8_LD_15_RN_10_RD_12_1.png"]],"dist300_I":[["I_Dist_300_LN_1_LD_2_RN_2_RD_10_0.png","I_Dist_300_LN_1_LD_2_RN_3_RD_15_0.png","I_Dist_300_LN_2_LD_4_RN_6_RD_30_0.png","I_Dist_300_LN_3_LD_6_RN_4_RD_20_0.png","I_Dist_300_LN_4_LD_5_RN_6_RD_12_0.png","I_Dist_300_LN_4_LD_5_RN_8_RD_16_0.png","I_Dist_300_LN_7_LD_10_RN_8_RD_20_0.png","I_Dist_300_LN_8_LD_10_RN_14_RD_28_0.png","I_Dist_300_LN_8_LD_10_RN_9_RD_18_0.png"],["I_Dist_300_LN_13_LD_26_RN_12_RD_15_1.png","I_Dist_300_LN_4_LD_20_RN_2_RD_4_1.png"]],"dist300_S":[["E_Dist_300_LN_9_LD_12_RN_9_RD_20_0.png"],["E_Dist_300_LN_18_LD_30_RN_18_RD_20_1.png","E_Dist_300_LN_3_LD_10_RN_3_RD_5_1.png","E_Dist_300_LN_9_LD_20_RN_9_RD_12_1.png"]],"dist500_C":[["C_Dist_500_LN_10_LD_13_RN_7_RD_26_0.png","C_Dist_500_LN_10_LD_15_RN_4_RD_24_0.png","C_Dist_500_LN_12_LD_16_RN_3_RD_12_0.png","C_Dist_500_LN_12_LD_18_RN_4_RD_24_0.png","C_Dist_500_LN_15_LD_18_RN_5_RD_15_0.png","C_Dist_500_LN_15_LD_20_RN_1_RD_4_0.png","C_Dist_500_LN_18_LD_27_RN_1_RD_6_0.png","C_Dist_500_LN_20_LD_24_RN_1_RD_3_0.png","C_Dist_500_LN_20_LD_24_RN_3_RD_9_0.png","C_Dist_500_LN_20_LD_24_RN_7_RD_21_0.png","C_Dist_500_LN_20_LD_28_RN_3_RD_14_0.png","C_Dist_500_LN_21_LD_28_RN_6_RD_24_0.png","C_Dist_500_LN_22_LD_28_RN_2_RD_7_0.png","C_Dist_500_LN_25_LD_30_RN_9_RD_27_0.png","C_Dist_500_LN_4_LD_6_RN_1_RD_6_0.png","C_Dist_500_LN_5_LD_6_RN_2_RD_6_0.png","C_Dist_500_LN_6_LD_9_RN_1_RD_6_0.png","C_Dist_500_LN_7_LD_10_RN_1_RD_5_0.png","C_Dist_500_LN_8_LD_12_RN_1_RD_6_0.png","C_Dist_500_LN_8_LD_12_RN_4_RD_24_0.png"],["C_Dist_500_LN_1_LD_4_RN_12_RD_16_1.png","C_Dist_500_LN_1_LD_4_RN_9_RD_12_1.png","C_Dist_500_LN_1_LD_9_RN_11_RD_18_1.png","C_Dist_500_LN_10_LD_24_RN_22_RD_24_1.png","C_Dist_500_LN_2_LD_12_RN_10_RD_15_1.png","C_Dist_500_LN_2_LD_12_RN_12_RD_18_1.png","C_Dist_500_LN_2_LD_12_RN_4_RD_6_1.png","C_Dist_500_LN_2_LD_24_RN_7_RD_12_1.png","C_Dist_500_LN_2_LD_5_RN_18_RD_20_1.png","C_Dist_500_LN_2_LD_5_RN_9_RD_10_1.png","C_Dist_500_LN_2_LD_8_RN_12_RD_16_1.png","C_Dist_500_LN_2_LD_8_RN_21_RD_28_1.png","C_Dist_500_LN_3_LD_10_RN_4_RD_5_1.png","C_Dist_500_LN_3_LD_12_RN_15_RD_20_1.png","C_Dist_500_LN_3_LD_30_RN_6_RD_10_1.png","C_Dist_500_LN_3_LD_8_RN_14_RD_16_1.png","C_Dist_500_LN_4_LD_16_RN_15_RD_20_1.png","C_Dist_500_LN_4_LD_24_RN_12_RD_18_1.png","C_Dist_500_LN_5_LD_14_RN_6_RD_7_1.png","C_Dist_500_LN_7_LD_21_RN_20_RD_24_1.png","C_Dist_500_LN_7_LD_28_RN_12_RD_16_1.png","C_Dist_500_LN_7_LD_28_RN_9_RD_12_1.png","C_Dist_500_LN_9_LD_27_RN_20_RD_24_1.png"]],"dist500_I":[["I_Dist_500_LN_2_LD_3_RN_4_RD_24_0.png","I_Dist_500_LN_5_LD_6_RN_6_RD_18_0.png","I_Dist_500_LN_7_LD_8_RN_9_RD_24_0.png"],["I_Dist_500_LN_7_LD_21_RN_5_RD_6_1.png"]],"dist500_S":[["E_Dist_500_LN_6_LD_8_RN_6_RD_24_0.png"],["E_Dist_500_LN_2_LD_12_RN_2_RD_3_1.png","E_Dist_500_LN_6_LD_24_RN_6_RD_8_1.png"]]}},{"start_time":1551793953503,"click_time":1551793954879,"finger_time":1551793954718,"fix_duration":522.860559862653,"trial":1,"RT":1215,"MT":161,"sideResp":1,"stimulus":[],"xmouse":[809,809,809,809,809,809,809,809,809,809,809,809,809,809,809,809,809,809,809,809,809,809,809,808,807,807,807,807,807,807,807,807,807,807,807,807,807,807,807,807,807,807,807,807,807,807,807,807,807,807,807,807,807,807,807,807,807,807,804,798,769,721,671,585,559,544,535,528,522],"ymouse":[502,502,502,502,502,502,502,502,502,502,502,502,502,502,502,502,502,502,502,502,502,502,502,502,502,502,502,502,502,502,502,502,502,502,502,502,502,502,502,502,502,502,502,502,502,502,502,502,502,502,502,502,502,502,502,502,502,502,500,483,423,355,287,173,137,117,106,99,96],"timestamp_mouse":[16,38,57,76,95,117,135,156,176,195,217,237,256,275,295,316,337,356,376,395,416,435,457,476,496,517,537,556,576,595,617,637,657,677,696,716,736,756,776,796,816,836,856,875,896,915,935,957,976,996,1016,1036,1056,1076,1096,1116,1136,1156,1176,1195,1215,1237,1257,1275,1295,1316,1337,1357,1376],"xSR":741.5,"ySR":447.2,"xT1":424.9,"yT1":0,"xT2":1058.1,"yT2":0,"toosoon":0,"cond_shown":"Congruent","ratio_trial":300,"L_num":11,"L_den":22,"R_num":1,"R_den":5,"correct_side":1,"subjID":"MATEOFLOREZPEREZ23","gender":"0","school":"6","age":"12"},{"start_time":1551793958432,"click_time":1551793960079,"finger_time":1551793959880,"fix_duration":1133.4518835536508,"trial":2,"RT":1448,"MT":199,"sideResp":1,"stimulus":[],"xmouse":[799,799,799,799,799,799,799,799,799,799,799,799,799,799,799,799,799,799,799,799,799,799,799,799,799,799,799,799,799,799,799,799,799,799,799,799,799,799,799,799,799,799,799,799,799,799,799,799,799,799,799,799,799,799,799,799,799,799,799,799,799,799,799,799,799,799,799,799,800,800,799,792,739,705,658,614,577,532,525,520,515,502,497],"ymouse":[510,510,510,510,510,510,510,510,510,510,510,510,510,510,510,510,510,510,510,510,510,510,510,510,510,510,510,510,510,510,510,510,510,510,510,510,510,510,510,510,510,510,510,510,510,510,510,510,510,510,510,510,510,510,510,510,510,510,510,510,510,510,510,510,510,510,510,510,510,509,506,491,387,321,248,187,148,118,114,111,109,100,97],"timestamp_mouse":[16,45,46,68,88,108,127,147,167,187,206,226,248,267,287,307,326,347,367,387,407,427,447,467,488,507,526,546,567,588,607,627,647,667,688,706,726,746,766,787,807,828,846,866,888,906,926,948,966,987,1007,1028,1047,1066,1086,1108,1127,1147,1167,1188,1207,1226,1247,1267,1287,1308,1327,1347,1368,1387,1407,1428,1448,1467,1486,1507,1526,1547,1567,1586,1608,1628,1647],"xSR":741.5,"ySR":447.2,"xT1":424.9,"yT1":0,"xT2":1058.1,"yT2":0,"toosoon":0,"cond_shown":"Congruent","ratio_trial":100,"L_num":11,"L_den":22,"R_num":6,"R_den":15,"correct_side":1,"subjID":"MATEOFLOREZPEREZ23","gender":"0","school":"6","age":"12"},{"start_time":1551793962236,"click_time":1551793963360,"finger_time":1551793962959,"fix_duration":1036.476140401944,"trial":3,"RT":723,"MT":401,"sideResp":1,"stimulus":[],"xmouse":[772,772,772,772,772,772,772,772,772,772,773,773,775,775,776,777,777,777,777,777,777,777,777,777,777,777,777,777,777,777,777,777,777,775,768,750,728,702,691,677,656,625,606,589,577,567,563,555,547,537,528,520,506,502,498,490,481],"ymouse":[540,540,540,540,540,540,540,540,540,540,541,541,540,540,540,540,540,540,540,540,540,540,540,540,540,540,540,540,540,540,540,540,539,532,519,477,423,361,335,309,281,237,211,194,181,170,166,158,153,147,142,136,124,120,114,103,88],"timestamp_mouse":[2,28,42,63,82,102,122,143,163,182,204,223,243,263,284,303,324,342,363,383,403,423,444,463,482,503,524,543,564,584,604,623,642,663,682,703,723,743,763,783,803,823,842,864,884,903,923,943,964,983,1004,1023,1043,1062,1083,1104,1124],"xSR":741.5,"ySR":447.2,"xT1":424.9,"yT1":0,"xT2":1058.1,"yT2":0,"toosoon":0,"cond_shown":"Congruent","ratio_trial":200,"L_num":12,"L_den":15,"R_num":6,"R_den":10,"correct_side":1,"subjID":"MATEOFLOREZPEREZ23","gender":"0","school":"6","age":"12"},{"start_time":1551793965929,"click_time":1551793967560,"finger_time":1551793967239,"fix_duration":849.7373838201725,"trial":4,"RT":1310,"MT":321,"sideResp":2,"stimulus":[],"xmouse":[795,795,794,793,791,790,789,789,789,789,789,789,789,789,789,789,789,789,789,788,788,787,786,786,785,785,785,783,783,782,781,781,781,781,781,781,781,780,780,780,780,779,779,779,779,779,779,779,779,779,779,779,779,779,779,779,779,779,779,779,779,779,782,801,823,865,878,924,933,935,935,943,950,957,960,968,975,996,1012,1034,1051,1061],"ymouse":[496,496,496,499,502,503,504,504,504,504,504,505,505,505,505,505,505,505,505,506,506,506,506,506,506,506,506,506,506,506,506,506,506,506,506,506,506,507,508,510,510,511,511,511,511,511,511,511,511,511,511,511,511,511,511,511,511,511,511,511,511,511,508,493,470,419,397,291,246,193,158,110,100,91,86,77,69,65,63,60,58,57],"timestamp_mouse":[10,34,50,69,90,110,131,151,170,190,210,230,249,270,290,310,330,349,371,390,410,429,451,470,490,509,530,549,571,591,610,629,649,670,690,710,729,751,770,790,810,831,850,870,889,911,930,950,970,989,1010,1031,1049,1071,1090,1111,1131,1151,1170,1190,1210,1231,1251,1269,1291,1310,1330,1349,1370,1391,1410,1431,1450,1470,1490,1510,1529,1550,1570,1589,1610,1631],"xSR":741.5,"ySR":447.2,"xT1":424.9,"yT1":0,"xT2":1058.1,"yT2":0,"toosoon":0,"cond_shown":"Incongruent","ratio_trial":200,"L_num":7,"L_den":15,"R_num":6,"R_den":9,"correct_side":2,"subjID":"MATEOFLOREZPEREZ23","gender":"0","school":"6","age":"12"},{"start_time":1551793969225,"click_time":1551793970279,"finger_time":1551793969860,"fix_duration":824.2996353507247,"trial":5,"RT":635,"MT":419,"sideResp":2,"stimulus":[],"xmouse":[800,800,800,800,800,800,800,800,800,800,800,800,800,800,800,800,800,801,802,804,804,805,807,807,807,807,807,808,815,818,835,913,935,948,959,967,976,984,993,1004,1010,1020,1032,1038,1040,1041,1041,1041,1041,1042,1044,1049,1063],"ymouse":[501,501,501,501,501,501,501,501,501,501,501,501,501,501,501,501,501,500,499,498,497,494,491,491,491,491,491,491,487,483,462,353,307,273,241,207,154,130,109,92,77,56,37,31,27,26,26,26,26,26,26,31,39],"timestamp_mouse":[15,37,54,74,94,115,134,154,174,193,215,235,255,274,294,314,333,353,373,394,414,434,454,474,494,515,535,553,574,593,614,635,654,673,695,714,735,754,774,794,815,835,853,874,895,915,935,953,974,994,1015,1035,1053],"xSR":741.5,"ySR":447.2,"xT1":424.9,"yT1":0,"xT2":1058.1,"yT2":0,"toosoon":0,"cond_shown":"Congruent","ratio_trial":100,"L_num":4,"L_den":10,"R_num":15,"R_den":30,"correct_side":2,"subjID":"MATEOFLOREZPEREZ23","gender":"0","school":"6","age":"12"},{"start_time":1551793971484,"click_time":1551793973859,"finger_time":1551793972779,"fix_duration":522.918510657322,"trial":6,"RT":1295,"MT":1080,"sideResp":2,"stimulus":[],"xmouse":[794,794,794,794,794,794,794,794,794,794,794,794,794,794,794,794,794,794,794,794,794,794,794,794,794,794,794,794,794,794,794,794,794,794,794,794,794,794,794,794,794,794,794,794,794,794,794,794,795,797,797,797,797,797,797,797,797,797,797,797,797,800,804,817,826,841,853,864,899,910,915,918,918,918,918,920,924,930,945,952,960,970,973,976,981,983,985,988,990,1000,1003,1005,1007,1007,1008,1008,1009,1009,1009,1009,1010,1010,1011,1011,1012,1012,1013,1013,1015,1016,1016,1019,1020,1028,1033,1043,1059,1080,1118],"ymouse":[507,507,507,507,507,507,507,507,507,507,507,507,507,507,507,507,507,507,507,507,507,507,507,507,507,507,507,507,507,507,507,507,507,507,507,507,507,507,507,507,507,507,507,507,507,507,506,504,500,496,496,495,495,495,495,495,495,495,495,495,494,491,484,461,447,428,407,380,318,300,288,281,280,279,279,277,272,264,249,245,238,232,228,225,220,219,217,215,213,206,204,202,199,199,198,198,197,197,196,196,195,195,194,194,192,192,191,190,187,185,183,180,178,168,162,150,136,119,87],"timestamp_mouse":[14,42,55,76,94,115,136,154,176,194,215,235,255,276,296,315,336,356,375,396,416,434,455,475,494,516,535,554,576,595,614,635,654,676,695,715,735,756,775,794,816,835,855,875,895,915,935,956,975,994,1016,1036,1056,1075,1095,1114,1136,1154,1176,1196,1214,1235,1256,1276,1295,1315,1335,1356,1376,1395,1414,1435,1455,1476,1495,1515,1535,1556,1576,1594,1615,1636,1655,1676,1695,1715,1735,1755,1774,1795,1815,1836,1855,1875,1896,1915,1935,1955,1975,1995,2016,2035,2056,2075,2096,2114,2136,2154,2176,2194,2215,2234,2256,2276,2294,2314,2335,2355,2375],"xSR":741.5,"ySR":447.2,"xT1":424.9,"yT1":0,"xT2":1058.1,"yT2":0,"toosoon":0,"cond_shown":"Incongruent","ratio_trial":200,"L_num":4,"L_den":5,"R_num":6,"R_den":10,"correct_side":1,"subjID":"MATEOFLOREZPEREZ23","gender":"0","school":"6","age":"12"},{"start_time":1551793976472,"click_time":1551793978680,"finger_time":1551793978359,"fix_duration":250,"trial":7,"RT":1887,"MT":321,"sideResp":1,"stimulus":[],"xmouse":[812,812,812,812,812,812,812,812,812,812,812,812,812,812,812,812,812,812,812,812,812,812,812,812,812,812,812,812,812,812,812,812,812,812,812,812,812,812,812,812,812,812,812,812,812,812,812,812,812,812,812,812,812,812,812,812,812,812,812,812,812,812,812,812,812,812,811,811,811,810,810,810,810,810,810,810,810,810,808,807,805,804,802,802,802,802,801,800,796,786,776,772,765,750,716,552,485,458,447,446,452,453,453,453,453,460,474,486,491,492,492],"ymouse":[525,525,526,528,528,528,528,528,528,528,528,528,528,528,528,528,528,528,528,528,528,528,528,528,528,528,528,528,528,528,528,528,528,528,528,528,528,528,528,528,528,528,528,528,528,528,528,528,528,528,528,528,528,528,528,528,528,528,528,528,528,528,528,528,528,528,529,529,529,529,529,529,529,529,529,529,529,529,529,529,530,530,530,530,530,530,530,530,531,532,532,532,525,510,473,376,336,311,294,278,243,231,220,212,194,177,156,137,117,104,93],"timestamp_mouse":[13,35,48,67,88,106,127,148,167,188,206,227,247,267,288,308,326,347,367,387,408,427,446,467,488,507,527,546,568,588,608,627,647,667,687,706,727,746,768,786,806,828,846,867,887,908,927,947,968,987,1006,1027,1048,1066,1088,1106,1128,1147,1166,1187,1206,1228,1247,1268,1287,1307,1327,1347,1368,1386,1407,1428,1447,1467,1486,1507,1528,1546,1567,1587,1608,1627,1647,1666,1686,1707,1728,1747,1767,1788,1808,1827,1848,1867,1887,1907,1927,1947,1968,1987,2008,2026,2047,2067,2088,2107,2127,2147,2167,2187,2207],"xSR":741.5,"ySR":447.2,"xT1":424.9,"yT1":0,"xT2":1058.1,"yT2":0,"toosoon":0,"cond_shown":"Congruent","ratio_trial":100,"L_num":3,"L_den":6,"R_num":2,"R_den":5,"correct_side":1,"subjID":"MATEOFLOREZPEREZ23","gender":"0","school":"6","age":"12"},{"start_time":1551793980930,"click_time":1551793981920,"finger_time":1551793981639,"fix_duration":1470.920807945269,"trial":8,"RT":709,"MT":281,"sideResp":1,"stimulus":[],"xmouse":[754,754,754,754,754,754,754,754,754,754,754,754,754,754,754,754,754,754,754,754,754,754,754,754,754,754,754,754,754,754,754,754,755,755,752,736,697,675,650,625,581,513,498,493,491,491,491,491,496,503],"ymouse":[504,504,504,504,504,504,504,504,504,504,504,504,504,504,504,504,504,504,504,504,504,504,504,504,504,504,504,504,504,504,504,504,503,499,486,452,356,305,269,241,212,171,158,148,141,134,129,113,104,97],"timestamp_mouse":[10,34,48,69,90,109,129,149,168,188,209,230,250,268,289,310,328,349,369,389,408,429,450,468,489,508,528,549,569,588,609,628,649,669,690,709,730,748,769,789,809,830,849,869,888,910,929,949,969,990],"xSR":741.5,"ySR":447.2,"xT1":424.9,"yT1":0,"xT2":1058.1,"yT2":0,"toosoon":0,"cond_shown":"Congruent","ratio_trial":300,"L_num":11,"L_den":22,"R_num":2,"R_den":10,"correct_side":1,"subjID":"MATEOFLOREZPEREZ23","gender":"0","school":"6","age":"12"},{"start_time":1551793983976,"click_time":1551793985699,"finger_time":1551793985319,"fix_duration":1076.3753758997452,"trial":9,"RT":1343,"MT":380,"sideResp":2,"stimulus":[],"xmouse":[791,791,791,791,791,791,791,791,791,791,791,791,791,791,791,791,791,791,791,791,791,791,791,791,791,791,791,791,791,791,791,791,791,791,791,791,791,791,791,791,791,791,791,791,791,791,791,791,791,791,791,791,791,791,791,791,791,791,791,791,791,791,791,791,791,805,840,883,924,961,998,1007,1018,1030,1033,1037,1043,1051,1058,1063,1065,1066,1066,1070,1073,1084,1086],"ymouse":[488,488,488,488,488,488,488,488,488,488,488,488,488,488,488,488,488,488,488,488,488,488,488,488,488,488,488,488,488,488,488,488,488,488,488,488,488,488,488,488,488,488,488,488,488,488,488,488,488,488,488,488,488,488,488,488,488,488,488,488,488,488,488,488,488,476,451,417,379,333,272,251,230,211,205,191,185,178,172,160,156,151,146,138,129,105,97],"timestamp_mouse":[10,31,42,63,83,102,123,142,163,183,202,224,243,263,284,304,322,343,364,383,404,423,443,463,484,504,523,544,564,582,604,623,642,663,682,704,722,743,763,783,803,823,842,862,884,904,922,944,964,984,1002,1023,1043,1062,1084,1104,1123,1144,1162,1182,1203,1223,1243,1263,1283,1303,1323,1343,1364,1382,1402,1423,1444,1463,1483,1504,1523,1544,1563,1584,1602,1623,1644,1663,1682,1702,1723],"xSR":741.5,"ySR":447.2,"xT1":424.9,"yT1":0,"xT2":1058.1,"yT2":0,"toosoon":0,"cond_shown":"Congruent","ratio_trial":300,"L_num":3,"L_den":6,"R_num":4,"R_den":5,"correct_side":2,"subjID":"MATEOFLOREZPEREZ23","gender":"0","school":"6","age":"12"},{"start_time":1551793987661,"click_time":1551793989219,"finger_time":1551793988678,"fix_duration":1061.9469835846965,"trial":10,"RT":1017,"MT":541,"sideResp":1,"stimulus":[],"xmouse":[801,801,801,801,802,802,802,802,802,802,802,802,802,802,802,802,802,802,802,802,802,802,802,802,802,802,803,803,803,803,803,803,803,803,803,803,803,803,803,803,803,803,803,803,803,803,803,803,802,770,732,691,658,642,622,601,566,535,522,527,532,534,534,534,534,538,542,547,555,557,559,557,550,543,541,537,530,523],"ymouse":[515,515,515,515,516,516,516,516,516,516,516,516,516,516,516,516,516,516,516,516,516,516,516,516,516,516,516,516,516,516,516,516,516,516,516,516,516,516,516,516,516,516,516,516,516,516,516,516,516,508,487,469,453,443,412,381,338,305,293,275,267,256,245,231,219,198,190,181,163,155,104,83,71,66,66,66,67,67],"timestamp_mouse":[34,38,57,77,98,118,137,158,179,198,218,237,257,278,298,318,338,358,379,399,417,437,459,478,498,517,537,558,578,599,618,637,657,678,699,718,737,758,778,799,819,837,858,879,897,919,938,958,978,999,1017,1038,1057,1077,1099,1118,1137,1158,1178,1199,1217,1238,1259,1278,1298,1318,1337,1358,1378,1398,1418,1437,1458,1478,1499,1518,1538,1558],"xSR":741.5,"ySR":447.2,"xT1":424.9,"yT1":0,"xT2":1058.1,"yT2":0,"toosoon":0,"cond_shown":"Congruent","ratio_trial":300,"L_num":20,"L_den":25,"R_num":14,"R_den":28,"correct_side":1,"subjID":"MATEOFLOREZPEREZ23","gender":"0","school":"6","age":"12"},{"start_time":1551793990567,"click_time":1551793991579,"finger_time":1551793991119,"fix_duration":706.4048904046341,"trial":11,"RT":552,"MT":460,"sideResp":2,"stimulus":[],"xmouse":[795,795,795,795,795,795,795,795,795,795,795,795,795,795,795,795,795,795,795,795,795,795,795,796,797,818,834,848,860,873,875,876,876,876,877,877,877,875,875,875,875,875,875,875,882,912,925,950,983,1024,1084],"ymouse":[532,532,532,531,531,531,531,531,530,530,530,530,530,530,530,530,530,530,530,530,530,530,530,529,528,508,488,469,449,422,416,411,409,408,405,404,404,403,403,403,403,403,401,398,391,355,338,303,258,196,83],"timestamp_mouse":[12,40,52,72,92,113,131,153,172,192,212,233,251,273,293,311,332,351,371,393,412,431,453,472,492,512,532,552,572,593,612,632,652,671,693,711,732,752,773,792,812,831,853,872,892,913,932,952,973,992,1012],"xSR":741.5,"ySR":447.2,"xT1":424.9,"yT1":0,"xT2":1058.1,"yT2":0,"toosoon":0,"cond_shown":"Incongruent","ratio_trial":300,"L_num":1,"L_den":2,"R_num":2,"R_den":10,"correct_side":1,"subjID":"MATEOFLOREZPEREZ23","gender":"0","school":"6","age":"12"},{"start_time":1551793993265,"click_time":1551793994899,"finger_time":1551793994559,"fix_duration":464.3999060752515,"trial":12,"RT":1294,"MT":340,"sideResp":1,"stimulus":[],"xmouse":[797,797,797,797,797,797,797,797,797,797,797,797,797,797,797,797,797,797,797,797,797,797,797,797,797,797,797,796,795,795,795,795,795,795,795,795,795,795,795,795,795,795,795,795,795,795,795,795,795,795,795,795,795,795,795,795,795,795,795,795,793,789,780,761,741,669,634,611,595,587,581,580,577,574,574,574,573,572,567,559,523,506],"ymouse":[505,505,507,507,507,507,506,506,506,506,506,506,506,506,506,507,507,508,508,508,508,508,508,508,508,509,510,511,512,513,513,513,513,513,513,513,513,513,513,513,513,514,514,514,514,514,514,514,514,514,514,514,514,514,514,514,514,514,514,514,513,507,489,458,421,315,266,232,208,191,157,149,139,134,132,132,132,131,127,122,101,92],"timestamp_mouse":[31,33,55,73,94,114,134,154,174,194,214,234,255,274,295,314,333,355,375,393,414,433,455,475,495,514,534,554,574,595,613,635,654,673,695,713,734,755,775,795,814,833,855,874,894,913,934,955,975,994,1015,1034,1054,1074,1095,1114,1134,1155,1173,1193,1214,1234,1255,1274,1294,1314,1334,1353,1374,1394,1414,1434,1454,1474,1494,1514,1533,1555,1575,1594,1614,1634],"xSR":741.5,"ySR":447.2,"xT1":424.9,"yT1":0,"xT2":1058.1,"yT2":0,"toosoon":0,"cond_shown":"Incongruent","ratio_trial":300,"L_num":4,"L_den":20,"R_num":2,"R_den":4,"correct_side":2,"subjID":"MATEOFLOREZPEREZ23","gender":"0","school":"6","age":"12"},{"start_time":1551793996966,"click_time":1551793999661,"finger_time":1551793999480,"fix_duration":1085.2547690551166,"trial":13,"RT":2514,"MT":181,"sideResp":2,"stimulus":[],"xmouse":[823,823,823,823,823,823,823,823,823,823,823,823,823,823,823,823,823,822,822,822,821,821,821,821,821,821,821,821,821,821,821,821,821,821,821,821,821,821,821,821,821,821,821,821,821,821,821,821,821,821,821,821,821,821,821,821,821,821,821,821,821,821,821,821,821,821,821,821,821,821,821,821,821,821,821,821,821,821,821,821,820,819,819,819,819,819,819,819,819,819,819,819,819,819,819,819,818,817,817,817,817,817,817,817,817,817,816,816,815,811,808,804,800,796,790,789,789,789,789,789,789,789,789,789,790,817,846,891,937,984,1070,1096,1114,1121,1119],"ymouse":[491,491,491,491,491,491,491,491,491,491,491,491,491,491,491,491,491,492,492,494,496,497,498,498,499,499,499,499,499,499,499,499,499,499,499,499,499,499,499,499,499,499,499,499,499,499,499,499,499,499,499,499,499,499,499,499,499,499,499,499,499,499,499,499,499,499,499,499,499,499,499,499,499,499,499,499,499,499,499,498,497,496,496,496,496,496,496,496,496,496,496,496,496,496,496,495,495,494,494,494,494,494,494,494,494,494,493,492,492,487,484,480,475,471,465,465,465,465,465,465,465,465,464,463,457,434,417,390,362,326,245,200,157,123,94],"timestamp_mouse":[14,38,53,72,93,114,133,153,172,194,212,232,254,272,294,314,333,354,374,392,413,434,453,474,493,512,533,553,573,594,614,632,652,673,692,714,734,752,773,792,812,833,854,872,894,913,933,953,974,994,1013,1032,1054,1072,1092,1114,1133,1154,1174,1194,1213,1233,1253,1272,1294,1313,1333,1352,1374,1392,1414,1434,1454,1474,1493,1513,1534,1554,1572,1593,1613,1633,1654,1674,1693,1714,1733,1753,1772,1793,1814,1832,1853,1874,1892,1913,1933,1954,1973,1994,2012,2034,2052,2073,2094,2113,2132,2154,2174,2194,2213,2234,2253,2274,2293,2312,2333,2352,2373,2393,2413,2434,2453,2473,2492,2514,2533,2552,2573,2593,2613,2633,2653,2674,2694],"xSR":741.5,"ySR":447.2,"xT1":424.9,"yT1":0,"xT2":1058.1,"yT2":0,"toosoon":0,"cond_shown":"Incongruent","ratio_trial":200,"L_num":1,"L_den":2,"R_num":3,"R_den":10,"correct_side":1,"subjID":"MATEOFLOREZPEREZ23","gender":"0","school":"6","age":"12"},{"start_time":1551794003467,"click_time":1551794004620,"finger_time":1551794004401,"fix_duration":1284.8788395733804,"trial":14,"RT":934,"MT":219,"sideResp":1,"stimulus":[],"xmouse":[784,785,785,785,785,785,785,785,785,785,785,785,785,785,785,785,785,785,785,785,785,785,785,785,785,785,785,785,785,785,785,785,785,785,785,785,785,785,785,785,785,785,786,787,792,798,803,803,803,788,783,776,764,746,684,638,581,518],"ymouse":[508,507,507,507,507,507,507,507,507,507,507,507,507,507,507,507,507,507,507,507,507,507,507,507,507,507,507,507,507,507,507,507,507,507,507,507,507,507,507,507,507,507,506,501,481,458,425,394,363,321,314,307,300,290,249,212,158,95],"timestamp_mouse":[13,44,54,73,93,113,133,154,173,193,213,233,253,273,293,313,333,355,373,393,413,434,453,473,493,513,533,553,573,593,615,634,654,673,693,713,733,754,773,793,813,833,854,873,894,913,934,954,974,994,1013,1033,1054,1073,1094,1113,1134,1153],"xSR":741.5,"ySR":447.2,"xT1":424.9,"yT1":0,"xT2":1058.1,"yT2":0,"toosoon":0,"cond_shown":"Incongruent","ratio_trial":200,"L_num":6,"L_den":20,"R_num":3,"R_den":6,"correct_side":2,"subjID":"MATEOFLOREZPEREZ23","gender":"0","school":"6","age":"12"},{"start_time":1551794008004,"click_time":1551794010721,"finger_time":1551794009480,"fix_duration":841.0624008601703,"trial":15,"RT":1476,"MT":1241,"sideResp":1,"stimulus":[],"xmouse":[800,800,799,799,799,799,799,799,799,799,799,799,799,799,799,799,799,799,799,799,799,799,799,799,799,799,799,799,799,799,799,799,799,799,799,799,799,799,799,799,799,799,799,799,799,799,799,799,799,799,799,799,799,799,799,799,799,799,799,799,799,799,799,799,799,799,799,798,795,792,789,785,781,754,730,702,665,603,583,569,559,553,545,544,543,543,543,543,542,537,532,531,531,531,531,531,531,531,531,531,531,531,531,531,531,531,531,531,531,531,531,531,531,531,531,531,531,531,531,531,531,531,531,531,531,531,531,531,531,531,531,531,531,530,525,522],"ymouse":[511,511,510,510,510,510,510,510,510,510,510,510,510,510,510,509,509,509,509,509,509,509,509,508,508,508,507,507,507,507,507,507,507,507,507,507,507,507,507,507,507,507,507,507,507,507,507,507,507,507,507,507,507,507,507,507,507,507,507,507,507,507,507,507,507,507,507,504,501,498,495,490,482,426,386,338,288,195,170,146,124,107,84,82,81,81,81,81,81,81,81,81,81,81,81,81,81,81,81,81,81,81,81,81,81,81,81,81,81,81,81,81,81,81,81,81,81,81,81,81,81,81,81,81,81,81,81,81,81,81,81,81,81,81,81,81],"timestamp_mouse":[30,36,57,76,97,117,136,157,176,197,217,236,256,276,296,317,337,356,376,397,416,436,456,477,496,516,536,556,576,596,617,636,656,676,696,716,736,756,776,796,816,836,856,876,896,916,937,956,976,996,1016,1036,1056,1076,1096,1116,1136,1156,1176,1196,1216,1238,1256,1276,1296,1316,1337,1357,1376,1396,1417,1436,1456,1476,1496,1516,1536,1558,1577,1596,1616,1636,1657,1676,1697,1717,1736,1757,1776,1797,1816,1837,1857,1877,1896,1916,1937,1956,1977,1997,2017,2036,2057,2076,2097,2117,2136,2156,2177,2196,2217,2236,2256,2277,2297,2316,2336,2356,2377,2397,2416,2436,2457,2476,2496,2517,2537,2557,2576,2596,2616,2636,2656,2677,2696,2717],"xSR":741.5,"ySR":447.2,"xT1":424.9,"yT1":0,"xT2":1058.1,"yT2":0,"toosoon":0,"cond_shown":"Congruent","ratio_trial":200,"L_num":6,"L_den":12,"R_num":7,"R_den":10,"correct_side":2,"subjID":"MATEOFLOREZPEREZ23","gender":"0","school":"6","age":"12"},{"start_time":1551794013258,"click_time":1551794021580,"finger_time":1551794017880,"fix_duration":434.8272604220168,"trial":16,"RT":4622,"MT":3700,"sideResp":1,"stimulus":[],"xmouse":[805,805,805,804,804,804,803,803,803,803,803,803,803,803,803,803,803,803,803,803,803,803,803,802,802,802,802,802,802,802,802,802,802,802,802,802,802,802,802,802,802,802,802,802,802,802,802,802,802,802,802,802,802,802,802,802,802,802,802,802,802,802,802,802,802,802,802,802,802,802,802,802,802,801,801,801,800,799,799,799,797,796,796,796,796,795,795,795,794,794,793,792,791,791,791,791,791,790,790,790,790,790,790,789,789,789,788,788,788,788,788,788,788,788,788,788,788,788,788,788,788,788,788,788,788,788,788,788,788,788,788,788,788,788,788,788,788,788,788,788,788,788,788,788,788,788,788,788,788,788,788,788,788,788,788,788,788,788,788,788,789,789,789,789,789,789,790,790,790,790,790,790,790,790,790,790,790,790,790,790,790,790,790,790,790,790,790,790,790,790,790,790,790,790,790,790,790,790,790,790,790,790,791,791,791,791,791,791,791,792,792,792,792,792,792,792,792,792,792,792,792,792,792,792,792,792,792,792,792,791,791,793,795,796,796,796,796,796,796,796,796,796,796,796,797,799,801,803,805,806,806,806,806,806,806,806,806,806,806,807,812,813,813,813,813,813,813,813,813,813,813,813,813,813,813,813,813,813,813,813,813,813,813,813,813,813,813,813,813,813,813,813,813,813,813,813,813,813,813,813,813,813,813,813,813,813,813,813,813,813,813,813,813,813,813,813,813,813,813,813,813,812,812,811,811,811,811,811,811,810,810,810,812,813,818,823,827,827,827,827,827,827,827,827,827,827,826,826,826,825,824,821,821,821,821,821,821,821,821,822,823,826,826,826,818,807,782,771,759,748,741,735,732,728,724,714,709,704,700,698,695,695,694,693,691,688,669,654,635,611,570,568,567,566,566,565,565,565,565,565,565,565,565,565,563,563,560,557,554,551,548,541,539,537,533,528,518],"ymouse":[508,508,508,508,508,508,508,508,508,508,508,508,508,508,508,508,508,508,508,508,508,508,508,509,509,509,509,509,509,509,509,509,509,509,509,509,509,509,509,509,509,509,509,509,509,509,509,509,509,509,509,509,509,509,509,509,509,509,509,509,509,509,509,509,509,509,509,509,509,509,509,509,509,509,509,509,509,509,509,509,509,509,509,509,508,503,498,493,490,488,485,485,484,484,484,484,484,484,484,484,484,484,483,478,473,469,463,462,462,462,461,461,461,461,461,461,461,461,461,461,461,461,461,461,461,461,461,461,461,461,461,461,461,461,461,461,461,461,461,461,461,461,461,461,461,461,461,461,461,461,460,460,459,459,459,459,459,459,459,459,459,459,459,459,459,459,459,459,459,459,459,459,459,459,459,459,459,459,459,459,459,459,458,456,453,453,453,453,453,453,453,453,453,453,453,453,453,453,453,453,453,453,453,453,453,453,453,453,453,453,453,453,453,453,453,453,453,453,453,453,453,453,453,453,453,453,453,453,453,451,450,441,438,436,435,435,435,435,435,435,435,434,433,433,433,433,432,430,429,429,428,428,428,428,428,428,428,428,428,428,423,423,423,423,423,423,423,423,422,422,422,422,422,422,422,422,422,422,422,422,422,422,422,422,422,422,422,422,422,422,422,422,422,422,422,422,422,422,422,422,422,422,422,422,422,422,422,422,422,422,422,422,422,422,422,422,422,422,422,422,422,422,422,422,422,422,422,422,425,427,428,428,428,426,419,412,407,406,405,405,404,398,395,392,392,391,391,391,391,390,388,367,354,344,334,328,321,318,312,295,286,245,223,196,173,152,122,112,104,99,98,98,100,101,103,110,113,115,116,116,117,117,117,116,114,112,106,104,102,100,98,98,97,97,97,97,97,97,97,97,97,97,97,97,97,96,96,95,94,93,92,90,90,90,90,90,89],"timestamp_mouse":[10,38,42,62,83,102,122,144,162,182,202,223,242,262,282,303,324,342,362,383,402,424,442,462,482,503,524,542,562,583,603,622,642,663,683,702,722,742,763,783,803,823,843,863,882,904,923,943,963,983,1002,1024,1042,1063,1083,1103,1122,1143,1163,1183,1202,1223,1243,1263,1283,1303,1323,1342,1362,1383,1402,1423,1444,1462,1482,1502,1523,1542,1562,1583,1603,1622,1642,1663,1683,1703,1722,1742,1763,1783,1803,1822,1843,1862,1882,1902,1922,1942,1963,1982,2003,2022,2042,2062,2083,2102,2123,2142,2162,2182,2202,2222,2242,2263,2282,2303,2323,2343,2362,2382,2403,2422,2443,2463,2482,2503,2523,2543,2563,2582,2602,2622,2642,2662,2682,2703,2723,2743,2762,2783,2803,2823,2844,2863,2883,2902,2923,2943,2962,2983,3002,3023,3043,3063,3083,3102,3123,3143,3162,3183,3203,3224,3242,3263,3282,3303,3322,3343,3362,3383,3403,3422,3442,3462,3482,3502,3522,3543,3564,3583,3602,3622,3642,3664,3682,3702,3723,3743,3762,3783,3802,3823,3843,3863,3882,3903,3922,3943,3963,3982,4003,4023,4042,4062,4083,4102,4122,4142,4162,4183,4203,4222,4242,4263,4283,4303,4322,4343,4362,4382,4402,4423,4442,4462,4483,4503,4523,4543,4562,4582,4602,4622,4642,4662,4682,4703,4722,4742,4762,4782,4803,4822,4842,4863,4883,4903,4922,4942,4962,4982,5002,5022,5042,5063,5082,5103,5122,5142,5163,5182,5203,5222,5242,5262,5282,5303,5323,5342,5364,5382,5403,5422,5443,5462,5482,5503,5522,5543,5562,5582,5603,5622,5642,5663,5682,5703,5722,5742,5762,5782,5803,5823,5842,5863,5882,5903,5922,5942,5962,5982,6003,6023,6042,6063,6082,6103,6122,6142,6162,6182,6203,6222,6242,6263,6283,6302,6324,6342,6363,6382,6402,6424,6442,6462,6482,6503,6522,6543,6563,6583,6603,6622,6642,6662,6683,6703,6722,6743,6762,6782,6803,6822,6842,6863,6882,6903,6922,6942,6962,6982,7002,7023,7042,7063,7082,7102,7122,7142,7162,7182,7202,7222,7243,7262,7282,7302,7322,7342,7362,7382,7402,7422,7442,7463,7484,7503,7522,7542,7563,7582,7603,7622,7643,7662,7682,7702,7722,7742,7762,7782,7804,7822,7842,7863,7882,7904,7922,7942,7963,7983,8003,8022,8043,8063,8082,8103,8122,8143,8162,8182,8202,8222,8242,8262,8282,8302,8322],"xSR":741.5,"ySR":447.2,"xT1":424.9,"yT1":0,"xT2":1058.1,"yT2":0,"toosoon":0,"cond_shown":"Congruent","ratio_trial":300,"L_num":11,"L_den":22,"R_num":4,"R_den":20,"correct_side":1,"subjID":"MATEOFLOREZPEREZ23","gender":"0","school":"6","age":"12"},{"start_time":1551794023789,"click_time":1551794025960,"finger_time":1551794025440,"fix_duration":1187.7338463880233,"trial":17,"RT":1651,"MT":520,"sideResp":1,"stimulus":[],"xmouse":[791,791,790,790,790,790,790,790,790,790,790,790,790,790,790,790,790,790,790,790,790,790,790,790,790,790,790,790,790,790,790,790,790,790,790,790,790,790,790,790,790,790,790,790,790,790,790,790,790,790,790,790,790,790,790,790,790,790,790,790,790,790,790,790,790,790,790,790,789,783,775,771,771,769,758,754,752,750,749,746,745,742,740,736,725,717,707,695,677,639,625,617,612,590,579,568,561,557,552,547,536,527,519,514,509,508,506,505,503],"ymouse":[501,501,502,502,503,503,503,503,503,503,503,503,503,503,503,503,503,503,503,503,503,503,503,503,503,503,503,503,503,503,503,503,503,503,503,503,503,503,503,503,503,503,503,503,503,503,503,503,503,503,503,503,503,503,503,503,503,503,503,503,503,503,503,503,503,503,503,503,503,500,496,494,493,492,485,482,479,478,477,471,468,465,463,459,442,429,414,398,379,345,330,317,304,259,239,221,209,202,193,183,170,160,147,133,117,111,104,100,95],"timestamp_mouse":[11,36,52,71,92,111,132,151,172,192,211,231,252,271,292,311,332,351,372,392,411,432,451,471,492,511,531,552,572,591,612,632,652,672,691,713,732,751,771,791,811,831,852,871,891,911,932,952,971,991,1011,1031,1051,1071,1091,1112,1131,1151,1171,1191,1211,1232,1251,1271,1291,1312,1331,1351,1372,1391,1411,1431,1452,1471,1491,1511,1531,1551,1571,1591,1611,1631,1651,1671,1691,1711,1731,1751,1772,1791,1812,1831,1852,1872,1891,1911,1932,1952,1972,1991,2011,2032,2051,2071,2091,2111,2131,2152,2171],"xSR":741.5,"ySR":447.2,"xT1":424.9,"yT1":0,"xT2":1058.1,"yT2":0,"toosoon":0,"cond_shown":"Incongruent","ratio_trial":300,"L_num":4,"L_den":20,"R_num":2,"R_den":4,"correct_side":2,"subjID":"MATEOFLOREZPEREZ23","gender":"0","school":"6","age":"12"},{"start_time":1551794027450,"click_time":1551794028940,"finger_time":1551794028621,"fix_duration":509.9939618228172,"trial":18,"RT":1171,"MT":319,"sideResp":2,"stimulus":[],"xmouse":[822,822,822,822,822,822,822,822,822,822,822,822,822,822,822,822,822,822,822,822,822,822,822,822,822,822,822,822,822,822,822,822,822,822,822,822,822,822,822,822,822,822,822,822,822,822,822,822,822,822,822,822,822,822,822,822,823,829,839,871,914,948,963,975,988,1010,1019,1022,1025,1030,1037,1037,1039,1049,1066],"ymouse":[507,507,507,507,507,507,507,507,507,507,507,507,507,507,507,507,507,507,507,507,507,507,507,507,507,507,507,507,507,507,507,507,507,507,507,507,507,507,507,507,507,507,507,507,507,507,507,507,507,507,507,507,507,507,507,507,502,483,447,373,310,263,239,214,187,137,118,108,102,96,83,83,83,81,79],"timestamp_mouse":[10,34,50,70,91,110,130,151,171,190,210,230,250,270,290,312,330,351,371,390,411,431,450,470,491,511,531,550,570,590,610,630,651,672,691,710,732,751,770,791,810,831,850,871,891,911,931,950,971,991,1010,1030,1051,1071,1090,1111,1130,1151,1171,1190,1211,1230,1251,1271,1290,1311,1330,1351,1371,1390,1411,1430,1450,1470,1490],"xSR":741.5,"ySR":447.2,"xT1":424.9,"yT1":0,"xT2":1058.1,"yT2":0,"toosoon":0,"cond_shown":"Incongruent","ratio_trial":300,"L_num":13,"L_den":26,"R_num":12,"R_den":15,"correct_side":2,"subjID":"MATEOFLOREZPEREZ23","gender":"0","school":"6","age":"12"},{"start_time":1551794030033,"click_time":1551794031961,"finger_time":1551794031441,"fix_duration":250,"trial":19,"RT":1408,"MT":520,"sideResp":1,"stimulus":[],"xmouse":[793,793,793,793,793,793,793,793,793,793,793,793,793,793,793,793,793,793,793,793,793,793,793,793,793,793,793,793,793,793,793,793,793,793,793,793,793,793,793,793,793,793,793,793,793,793,793,793,793,793,793,793,793,793,793,793,793,793,793,793,793,793,793,793,793,793,793,793,785,778,764,756,735,724,715,710,701,692,682,668,657,616,597,581,566,553,543,529,513,493,479,478,477,477,477,477,477],"ymouse":[495,495,495,495,495,495,495,495,495,495,495,495,495,495,495,495,495,495,495,495,495,495,495,495,495,495,495,495,495,495,495,495,495,495,495,495,495,495,495,495,495,495,495,495,495,495,495,495,495,495,495,495,495,495,495,495,495,495,495,495,495,495,495,495,495,495,495,495,481,468,446,426,384,368,358,351,340,330,317,303,289,256,242,229,217,206,197,181,170,156,137,133,123,119,115,109,95],"timestamp_mouse":[15,47,60,67,87,107,127,148,167,187,207,227,248,267,287,308,328,348,368,387,407,427,447,467,487,508,528,547,568,588,608,628,648,667,688,708,728,748,767,788,807,828,847,868,888,907,927,947,968,989,1007,1028,1047,1067,1087,1109,1128,1148,1168,1187,1207,1227,1247,1267,1287,1308,1328,1348,1368,1388,1408,1427,1447,1468,1488,1508,1529,1547,1567,1587,1607,1629,1647,1667,1688,1707,1727,1747,1768,1789,1807,1827,1847,1867,1888,1908,1928],"xSR":741.5,"ySR":447.2,"xT1":424.9,"yT1":0,"xT2":1058.1,"yT2":0,"toosoon":0,"cond_shown":"Incongruent","ratio_trial":200,"L_num":14,"L_den":30,"R_num":6,"R_den":9,"correct_side":2,"subjID":"MATEOFLOREZPEREZ23","gender":"0","school":"6","age":"12"},{"start_time":1551794035658,"click_time":1551794036421,"finger_time":1551794036361,"fix_duration":837.3632994368405,"trial":20,"RT":703,"MT":60,"sideResp":1,"stimulus":[],"xmouse":[792,792,792,792,792,792,792,792,792,792,792,792,792,792,792,792,792,792,792,792,792,792,792,792,792,792,792,792,792,792,792,792,792,791,788,715,640,559,511],"ymouse":[488,488,488,488,488,488,488,488,488,488,488,488,488,488,488,488,488,488,488,488,488,488,488,488,488,488,488,488,488,488,488,488,488,488,485,353,260,161,93],"timestamp_mouse":[10,35,43,62,83,102,122,143,162,182,202,223,242,262,282,302,322,342,362,382,402,424,442,463,484,502,523,542,562,582,602,622,643,663,683,703,722,742,762],"xSR":741.5,"ySR":447.2,"xT1":424.9,"yT1":0,"xT2":1058.1,"yT2":0,"toosoon":0,"cond_shown":"Congruent","ratio_trial":200,"L_num":12,"L_den":15,"R_num":6,"R_den":10,"correct_side":1,"subjID":"MATEOFLOREZPEREZ23","gender":"0","school":"6","age":"12"},{"start_time":1551794037992,"click_time":1551794039560,"finger_time":1551794038900,"fix_duration":811.5701893852479,"trial":21,"RT":908,"MT":660,"sideResp":1,"stimulus":[],"xmouse":[811,811,811,811,811,811,811,811,811,811,811,811,811,811,811,811,811,811,811,811,811,811,811,811,811,811,811,811,811,811,811,811,811,811,811,811,811,811,811,811,811,811,811,811,796,759,724,693,672,649,639,629,621,608,602,600,597,594,590,579,572,565,560,543,537,528,517,507,493,472,471,471,471,470,470,470,470,470,470],"ymouse":[480,480,480,480,480,480,480,480,480,480,480,480,480,480,480,480,480,480,480,480,480,480,480,480,480,480,480,480,480,480,480,480,480,480,480,480,480,480,480,480,480,480,480,480,459,413,368,320,283,235,217,201,193,187,183,181,179,177,174,164,160,156,152,138,135,130,126,120,113,103,102,102,102,101,101,101,101,100,99],"timestamp_mouse":[10,33,48,69,88,108,128,148,168,188,208,228,248,268,288,308,328,350,369,389,408,428,448,469,488,508,528,548,569,588,608,629,649,669,688,709,728,748,768,789,809,828,849,868,888,908,930,949,969,988,1009,1029,1048,1069,1088,1108,1128,1149,1169,1188,1208,1228,1249,1269,1288,1308,1329,1349,1369,1388,1408,1429,1449,1469,1487,1509,1528,1548,1568],"xSR":741.5,"ySR":447.2,"xT1":424.9,"yT1":0,"xT2":1058.1,"yT2":0,"toosoon":0,"cond_shown":"Congruent","ratio_trial":300,"L_num":20,"L_den":25,"R_num":8,"R_den":16,"correct_side":1,"subjID":"MATEOFLOREZPEREZ23","gender":"0","school":"6","age":"12"},{"start_time":1551794040892,"click_time":1551794041760,"finger_time":1551794041521,"fix_duration":351.89745788840696,"trial":22,"RT":629,"MT":239,"sideResp":2,"stimulus":[],"xmouse":[793,793,793,793,793,793,793,793,793,793,793,793,793,793,793,793,793,793,793,793,793,793,793,793,793,793,793,793,801,810,824,848,882,917,970,984,995,1001,1009,1020,1027,1039,1053,1061],"ymouse":[506,506,506,506,506,506,506,506,506,506,506,506,506,506,506,506,506,506,506,506,506,506,506,506,506,506,506,506,494,482,462,431,391,348,256,216,183,161,141,121,113,101,92,86],"timestamp_mouse":[9,39,48,69,88,108,129,148,168,188,208,228,249,269,288,308,330,348,368,388,408,428,448,468,489,509,528,548,569,589,608,629,648,669,688,708,730,748,769,788,808,828,848,868],"xSR":741.5,"ySR":447.2,"xT1":424.9,"yT1":0,"xT2":1058.1,"yT2":0,"toosoon":0,"cond_shown":"Congruent","ratio_trial":100,"L_num":1,"L_den":2,"R_num":18,"R_den":30,"correct_side":2,"subjID":"MATEOFLOREZPEREZ23","gender":"0","school":"6","age":"12"},{"start_time":1551794043988,"click_time":1551794045300,"finger_time":1551794044940,"fix_duration":1406.0936002947958,"trial":23,"RT":952,"MT":360,"sideResp":2,"stimulus":[],"xmouse":[797,797,797,797,797,797,797,797,797,797,797,797,797,797,797,797,797,797,797,797,797,797,797,797,797,797,797,797,797,797,797,797,797,797,797,797,797,797,797,797,797,797,797,796,796,796,799,814,877,911,952,992,1024,1068,1090,1094,1096,1096,1096,1096,1096,1096,1096,1098,1098,1098],"ymouse":[491,491,491,491,491,491,491,491,491,491,491,491,491,491,491,491,491,491,491,491,491,491,491,491,491,491,491,491,491,491,491,491,491,491,491,491,491,491,491,491,491,491,491,491,480,468,453,424,319,270,227,191,170,142,125,121,119,118,118,118,118,117,115,110,101,98],"timestamp_mouse":[12,36,52,72,92,112,132,152,172,192,213,233,252,273,292,312,332,352,372,392,412,432,453,472,492,513,533,553,573,593,612,632,653,672,692,713,733,752,772,793,812,832,852,872,892,912,933,952,973,992,1013,1032,1053,1073,1092,1112,1133,1152,1172,1193,1212,1232,1252,1272,1293,1312],"xSR":741.5,"ySR":447.2,"xT1":424.9,"yT1":0,"xT2":1058.1,"yT2":0,"toosoon":0,"cond_shown":"Congruent","ratio_trial":100,"L_num":2,"L_den":5,"R_num":6,"R_den":12,"correct_side":2,"subjID":"MATEOFLOREZPEREZ23","gender":"0","school":"6","age":"12"},{"start_time":1551794047238,"click_time":1551794049340,"finger_time":1551794048540,"fix_duration":1037.1439552138045,"trial":24,"RT":1302,"MT":800,"sideResp":2,"stimulus":[],"xmouse":[767,767,767,767,767,767,767,767,767,767,767,767,767,767,767,767,767,767,767,767,767,767,767,767,767,767,767,767,767,767,767,767,767,767,767,767,767,767,767,767,767,767,767,767,767,767,767,767,767,767,767,767,767,767,767,767,767,767,767,767,767,767,767,771,784,812,961,1043,1108,1132,1139,1141,1142,1142,1143,1144,1144,1144,1144,1144,1144,1144,1144,1144,1144,1144,1144,1144,1144,1144,1144,1144,1144,1144,1144,1144,1144,1144,1144,1144,1144,1144,1144,1144,1144,1142],"ymouse":[493,493,493,493,493,493,493,493,493,493,493,493,493,493,493,493,493,493,493,493,493,493,493,493,493,493,493,493,493,493,493,493,493,493,493,493,493,493,493,493,493,493,493,493,493,493,493,493,493,493,493,493,493,493,493,493,493,493,493,493,493,493,491,485,470,443,307,223,163,143,137,133,121,116,113,110,107,104,104,104,104,103,103,103,103,103,103,103,103,103,103,103,103,103,103,103,103,103,103,103,103,103,103,103,101,98],"timestamp_mouse":[12,22,42,62,82,103,122,142,163,182,202,222,242,262,283,302,323,343,362,382,402,422,442,462,482,503,522,542,562,582,603,623,642,662,682,702,722,743,762,782,803,822,843,862,883,902,923,943,962,982,1003,1023,1042,1063,1082,1102,1122,1142,1162,1183,1202,1223,1243,1262,1283,1302,1324,1342,1362,1382,1402,1423,1442,1462,1482,1502,1522,1542,1563,1582,1603,1622,1642,1663,1683,1702,1723,1742,1763,1783,1802,1823,1842,1862,1882,1902,1923,1942,1962,1982,2003,2023,2042,2062,2082,2102],"xSR":741.5,"ySR":447.2,"xT1":424.9,"yT1":0,"xT2":1058.1,"yT2":0,"toosoon":0,"cond_shown":"Incongruent","ratio_trial":100,"L_num":11,"L_den":22,"R_num":9,"R_den":15,"correct_side":2,"subjID":"MATEOFLOREZPEREZ23","gender":"0","school":"6","age":"12"},{"start_time":1551794051071,"click_time":1551794052161,"finger_time":1551794051740,"fix_duration":488.6115884453718,"trial":25,"RT":669,"MT":421,"sideResp":1,"stimulus":[],"xmouse":[803,803,803,803,803,803,803,803,803,803,803,803,803,803,803,803,803,803,803,803,803,803,803,803,803,803,803,803,803,803,799,788,768,733,665,648,636,624,608,579,576,576,576,574,568,563,555,548,539,523,521,518,516,513,492],"ymouse":[499,499,499,499,499,499,499,499,499,499,499,499,499,499,499,499,499,499,499,499,499,499,499,499,499,499,499,499,499,499,493,480,456,415,331,299,278,262,240,200,197,197,197,193,181,173,161,153,142,126,123,119,115,111,90],"timestamp_mouse":[10,37,49,70,89,109,129,150,170,189,209,231,250,270,290,309,329,350,369,389,410,429,450,469,489,509,531,550,570,589,610,629,649,669,690,709,730,750,769,790,809,829,849,869,890,909,929,949,970,990,1009,1029,1049,1069,1090],"xSR":741.5,"ySR":447.2,"xT1":424.9,"yT1":0,"xT2":1058.1,"yT2":0,"toosoon":0,"cond_shown":"Incongruent","ratio_trial":300,"L_num":4,"L_den":20,"R_num":2,"R_den":4,"correct_side":2,"subjID":"MATEOFLOREZPEREZ23","gender":"0","school":"6","age":"12"},{"start_time":1551794055874,"click_time":1551794063523,"finger_time":1551794057060,"fix_duration":953.0623005392355,"trial":26,"RT":1186,"MT":6463,"sideResp":2,"stimulus":[],"xmouse":[794,794,792,792,791,790,790,790,790,790,790,789,789,787,787,786,786,785,785,785,785,785,785,785,785,785,785,785,785,785,785,785,785,785,785,785,785,785,785,785,785,785,785,785,785,785,785,785,785,785,785,785,785,784,784,780,776,768,755,733,679,666,654,637,607,597,583,572,562,544,537,532,532,532,532,532,532,532,532,532,532,532,532,532,532,532,532,532,532,532,532,532,532,532,532,532,532,532,532,532,532,532,532,532,532,532,532,532,532,533,533,536,540,547,554,580,612,682,810,848,924,925,925,925,925,925,925,925,925,925,925,926,928,933,968,999,1026,1037,1039,1039,1038,1030,1017,1010,1008,1008,1008,1008,1008,1008,1008,1008,1008,1008,1010,1010,1010,1010,1010,1012,1016,1017,1018,1020,1020,1020,1020,1020,1022,1023,1023,1023,1025,1026,1027,1030,1032,1033,1035,1035,1036,1038,1038,1039,1039,1039,1039,1040,1041,1041,1041,1041,1042,1042,1042,1043,1043,1043,1043,1045,1046,1046,1047,1047,1047,1047,1047,1047,1048,1048,1049,1049,1050,1050,1050,1050,1050,1051,1051,1051,1051,1051,1051,1051,1052,1052,1052,1052,1052,1052,1053,1053,1053,1053,1053,1053,1053,1053,1053,1053,1053,1053,1053,1053,1053,1053,1053,1053,1053,1053,1053,1053,1053,1053,1053,1053,1053,1053,1053,1053,1053,1053,1053,1053,1053,1053,1053,1053,1053,1053,1054,1054,1055,1055,1055,1055,1055,1055,1055,1055,1055,1055,1055,1055,1055,1055,1055,1055,1055,1055,1055,1055,1055,1055,1055,1055,1055,1055,1056,1056,1056,1056,1056,1056,1056,1056,1056,1056,1056,1056,1056,1056,1056,1056,1056,1056,1056,1056,1056,1056,1056,1056,1056,1056,1056,1056,1056,1056,1056,1056,1056,1056,1056,1056,1056,1056,1056,1056,1056,1056,1056,1056,1056,1056,1056,1056,1056,1056,1056,1056,1056,1056,1056,1056,1056,1056,1056,1056,1056,1056,1056,1056,1056,1056,1056,1056,1056,1056,1056,1056,1056,1056,1057,1057,1057,1057,1057,1057,1057,1057,1058,1058,1059],"ymouse":[496,493,490,489,487,486,486,485,485,485,485,484,484,484,484,483,483,483,483,483,483,483,483,483,483,483,483,483,483,483,483,483,483,483,483,483,483,483,483,483,483,483,483,483,483,483,483,483,483,483,483,483,483,482,481,479,477,470,454,418,293,261,237,210,166,147,129,114,102,78,73,71,70,70,70,70,70,70,70,70,70,70,70,70,70,70,70,70,70,70,70,70,70,70,70,70,70,70,70,70,70,70,70,70,70,70,70,70,70,70,70,71,72,74,75,76,77,77,77,77,77,77,77,77,76,75,75,75,75,75,75,74,74,74,76,79,79,79,78,78,74,72,68,67,67,67,67,67,67,67,67,67,67,67,67,67,67,67,67,67,67,67,67,68,68,68,68,68,68,68,68,68,69,70,71,73,75,76,77,77,79,82,82,83,85,85,86,87,89,89,90,90,90,90,91,91,91,91,91,91,91,91,91,91,91,91,91,91,91,91,91,91,91,91,91,91,91,91,91,91,91,91,91,91,91,91,91,91,91,91,91,91,91,91,91,91,91,91,91,91,91,91,91,91,91,91,91,91,91,91,91,91,91,91,91,91,91,91,91,91,91,91,91,91,91,91,91,91,91,91,90,90,89,89,88,88,88,88,88,88,87,87,87,87,87,87,87,87,87,87,87,87,87,87,87,87,87,87,86,86,86,86,86,86,86,86,86,86,86,86,86,86,86,86,86,86,86,86,86,85,85,85,85,85,85,85,85,85,85,85,85,85,85,85,85,85,85,85,85,85,85,85,85,85,85,85,85,85,85,85,85,85,85,85,85,85,85,85,85,85,85,85,85,85,85,85,85,85,85,85,85,85,84,84,84,84,84,84,84,84,84,83,82],"timestamp_mouse":[12,27,46,66,86,106,126,146,167,186,206,227,247,267,287,306,326,347,366,386,407,427,446,466,486,507,526,547,566,586,606,626,646,667,687,707,726,748,767,786,806,826,846,866,888,907,927,947,966,987,1006,1026,1046,1066,1086,1106,1127,1146,1166,1186,1206,1226,1246,1266,1288,1306,1327,1347,1367,1387,1406,1426,1446,1466,1486,1507,1527,1547,1567,1587,1606,1626,1647,1666,1686,1707,1727,1747,1767,1787,1806,1828,1846,1867,1887,1906,1927,1947,1966,1986,2006,2026,2046,2066,2087,2106,2126,2146,2167,2186,2206,2226,2246,2266,2286,2306,2327,2346,2366,2387,2407,2426,2446,2466,2487,2507,2527,2546,2566,2586,2606,2626,2646,2666,2686,2706,2726,2746,2767,2786,2807,2826,2846,2867,2887,2906,2926,2947,2967,2987,3006,3026,3046,3066,3086,3106,3127,3146,3168,3186,3206,3226,3247,3266,3286,3307,3327,3346,3367,3386,3407,3426,3447,3467,3487,3507,3526,3546,3567,3586,3606,3626,3646,3666,3687,3706,3727,3747,3767,3786,3806,3827,3847,3866,3886,3906,3927,3946,3966,3987,4006,4026,4046,4066,4086,4107,4126,4146,4166,4187,4207,4226,4247,4266,4287,4306,4326,4347,4367,4387,4407,4427,4446,4466,4487,4506,4526,4547,4566,4586,4607,4627,4647,4666,4686,4706,4726,4746,4767,4787,4806,4826,4847,4866,4886,4907,4927,4946,4966,4986,5006,5026,5046,5066,5087,5107,5126,5146,5166,5186,5207,5226,5246,5266,5287,5305,5326,5346,5366,5386,5406,5427,5446,5466,5486,5506,5526,5547,5567,5586,5606,5626,5646,5666,5686,5707,5727,5747,5766,5786,5807,5826,5846,5866,5887,5906,5926,5946,5967,5986,6007,6026,6047,6066,6087,6106,6127,6147,6167,6186,6206,6226,6247,6266,6286,6307,6327,6346,6366,6386,6406,6426,6446,6466,6486,6507,6526,6547,6567,6587,6606,6627,6646,6667,6687,6707,6726,6747,6766,6786,6806,6826,6847,6866,6887,6906,6927,6947,6967,6987,7007,7027,7046,7066,7087,7106,7127,7146,7167,7186,7206,7226,7246,7267,7286,7306,7327,7346,7366,7386,7406,7426,7446,7466,7486,7507,7526,7546,7566,7587,7608,7629,7648],"xSR":741.5,"ySR":447.2,"xT1":424.9,"yT1":0,"xT2":1058.1,"yT2":0,"toosoon":0,"cond_shown":"Incongruent","ratio_trial":100,"L_num":9,"L_den":15,"R_num":13,"R_den":26,"correct_side":1,"subjID":"MATEOFLOREZPEREZ23","gender":"0","school":"6","age":"12"},{"start_time":1551794065315,"click_time":1551794066222,"finger_time":1551794066082,"fix_duration":490.7542517771809,"trial":27,"RT":767,"MT":140,"sideResp":1,"stimulus":[],"xmouse":[790,790,790,790,790,791,792,794,794,794,794,794,794,794,794,794,796,797,797,797,797,797,797,797,797,797,797,797,797,797,797,797,798,798,798,798,793,773,762,736,701,657,613,523,504,496],"ymouse":[513,513,513,514,515,515,516,518,518,518,519,519,519,519,519,520,522,523,523,523,523,523,523,523,523,523,523,523,523,523,523,523,524,514,504,495,484,455,434,395,340,285,234,133,110,98],"timestamp_mouse":[10,30,48,68,88,108,128,149,168,188,209,229,249,268,288,307,328,347,369,387,409,429,448,467,489,507,528,548,568,588,608,629,649,668,688,708,729,749,767,787,809,828,847,867,888,907],"xSR":741.5,"ySR":447.2,"xT1":424.9,"yT1":0,"xT2":1058.1,"yT2":0,"toosoon":0,"cond_shown":"Congruent","ratio_trial":200,"L_num":12,"L_den":20,"R_num":6,"R_den":15,"correct_side":1,"subjID":"MATEOFLOREZPEREZ23","gender":"0","school":"6","age":"12"},{"start_time":1551794068291,"click_time":1551794070063,"finger_time":1551794069562,"fix_duration":1106.9452112219858,"trial":28,"RT":1271,"MT":501,"sideResp":1,"stimulus":[],"xmouse":[809,809,809,809,809,809,809,809,809,809,809,809,809,809,809,809,809,809,809,809,809,809,809,809,809,809,809,809,809,809,809,809,809,809,809,809,809,809,809,809,809,809,809,809,809,809,809,809,809,809,809,809,809,809,808,808,807,805,800,798,796,794,790,783,769,763,756,738,670,612,559,535,530,528,528,528,528,528,528,528,528,528,528,528,528,528,528,528,524],"ymouse":[533,533,533,533,533,533,533,533,533,533,533,533,533,533,533,533,533,533,533,533,533,533,533,533,533,533,533,533,533,533,533,533,533,533,533,533,533,533,533,533,533,533,533,533,533,533,533,533,533,533,533,533,533,533,533,533,532,529,520,514,506,489,467,442,400,387,374,347,262,190,137,112,104,101,101,101,101,101,101,101,100,100,100,100,100,100,100,97,94],"timestamp_mouse":[11,39,51,73,92,111,132,153,173,191,212,233,252,273,291,312,332,351,373,391,412,431,453,472,493,511,532,551,572,593,611,632,652,672,692,712,731,752,773,791,812,833,851,871,893,911,931,951,972,993,1013,1031,1052,1071,1092,1111,1133,1151,1172,1193,1212,1232,1251,1271,1292,1312,1331,1351,1373,1391,1411,1432,1451,1473,1493,1511,1531,1552,1573,1593,1612,1631,1652,1672,1691,1711,1732,1752,1771],"xSR":741.5,"ySR":447.2,"xT1":424.9,"yT1":0,"xT2":1058.1,"yT2":0,"toosoon":0,"cond_shown":"Incongruent","ratio_trial":300,"L_num":7,"L_den":10,"R_num":8,"R_den":20,"correct_side":1,"subjID":"MATEOFLOREZPEREZ23","gender":"0","school":"6","age":"12"},{"start_time":1551794071732,"click_time":1551794073222,"finger_time":1551794072503,"fix_duration":707.8509795653795,"trial":29,"RT":771,"MT":719,"sideResp":1,"stimulus":[],"xmouse":[835,835,835,835,835,835,835,835,835,835,835,835,835,835,835,835,835,835,835,835,835,835,835,835,835,835,835,835,835,835,835,835,835,835,835,835,833,809,784,769,768,768,768,768,768,768,768,768,768,768,767,765,761,757,747,723,683,579,546,546,546,546,546,546,546,546,546,546,546,546,546,546,546,546,475],"ymouse":[521,521,521,521,521,521,521,521,521,521,521,521,521,521,521,521,521,521,521,521,521,521,521,521,521,521,521,521,521,521,521,521,521,521,521,521,519,485,447,419,406,404,404,404,404,404,404,404,404,404,405,405,406,406,398,370,313,95,22,22,22,22,22,22,22,22,22,22,22,22,22,22,22,22,42],"timestamp_mouse":[10,35,51,71,91,110,132,150,171,190,210,231,250,270,290,312,331,350,370,391,410,431,451,470,490,511,531,552,571,591,611,631,652,671,690,712,731,751,771,791,811,830,851,870,890,911,932,950,972,990,1011,1030,1050,1071,1091,1111,1130,1151,1170,1191,1210,1230,1250,1270,1291,1310,1330,1351,1370,1391,1410,1431,1450,1471,1490],"xSR":741.5,"ySR":447.2,"xT1":424.9,"yT1":0,"xT2":1058.1,"yT2":0,"toosoon":0,"cond_shown":"Incongruent","ratio_trial":200,"L_num":7,"L_den":15,"R_num":4,"R_den":6,"correct_side":2,"subjID":"MATEOFLOREZPEREZ23","gender":"0","school":"6","age":"12"},{"start_time":1551794076934,"click_time":1551794078182,"finger_time":1551794077783,"fix_duration":250,"trial":30,"RT":849,"MT":399,"sideResp":1,"stimulus":[],"xmouse":[825,825,825,825,825,825,825,825,825,825,825,825,825,825,825,825,825,825,825,825,825,825,825,825,825,825,825,825,825,825,825,825,825,823,823,822,821,820,819,816,811,795,728,719,712,700,576,560,560,560,561,574,582,589,591,590,588,583,575,565,554,538,440],"ymouse":[529,529,529,529,529,529,529,528,528,528,528,528,528,528,528,528,528,528,528,528,528,528,528,528,528,528,528,528,528,528,528,527,527,527,526,526,526,525,524,522,517,504,444,432,423,408,320,306,299,288,274,236,205,173,151,140,137,137,135,132,127,120,96],"timestamp_mouse":[9,38,48,68,89,109,129,148,169,188,209,229,249,268,289,309,329,349,368,390,409,428,448,468,490,508,528,548,568,590,609,628,649,668,689,709,729,748,769,788,808,828,849,869,888,908,929,948,969,989,1009,1030,1048,1068,1088,1108,1129,1148,1169,1188,1208,1229,1248],"xSR":741.5,"ySR":447.2,"xT1":424.9,"yT1":0,"xT2":1058.1,"yT2":0,"toosoon":0,"cond_shown":"Incongruent","ratio_trial":100,"L_num":9,"L_den":18,"R_num":6,"R_den":10,"correct_side":2,"subjID":"MATEOFLOREZPEREZ23","gender":"0","school":"6","age":"12"},{"start_time":1551794080458,"click_time":1551794081364,"finger_time":1551794081044,"fix_duration":814.1284900132482,"trial":31,"RT":586,"MT":320,"sideResp":1,"stimulus":[],"xmouse":[825,825,825,825,825,825,825,825,825,825,825,825,825,825,825,825,825,825,825,824,824,823,822,819,817,810,805,800,796,790,781,780,779,779,777,766,752,737,723,707,658,634,603,566,529,491],"ymouse":[505,505,505,505,505,505,504,502,501,500,500,498,498,498,498,497,497,497,497,496,496,495,493,488,485,476,469,461,453,444,426,421,419,418,416,405,392,377,362,343,284,248,207,164,123,89],"timestamp_mouse":[10,38,44,64,85,105,125,145,165,185,204,226,246,264,285,306,324,346,364,384,405,424,445,465,485,505,525,545,565,586,606,624,644,665,685,705,724,745,765,784,806,824,845,866,885,906],"xSR":741.5,"ySR":447.2,"xT1":424.9,"yT1":0,"xT2":1058.1,"yT2":0,"toosoon":0,"cond_shown":"Incongruent","ratio_trial":100,"L_num":2,"L_den":4,"R_num":8,"R_den":20,"correct_side":1,"subjID":"MATEOFLOREZPEREZ23","gender":"0","school":"6","age":"12"},{"start_time":1551794086262,"click_time":1551794087582,"finger_time":1551794087083,"fix_duration":778.2673399516331,"trial":32,"RT":821,"MT":499,"sideResp":2,"stimulus":[],"xmouse":[784,784,784,784,784,784,784,784,784,784,784,784,784,784,784,784,784,784,784,784,784,784,784,784,784,784,784,784,784,784,784,784,784,784,784,784,784,784,784,791,801,843,863,874,881,887,889,891,897,908,931,941,952,959,960,964,966,970,976,984,993,1023,1036,1043,1045,1048,1071],"ymouse":[499,499,499,499,499,499,499,499,499,499,499,499,499,499,499,499,499,499,499,499,499,499,499,499,499,499,499,499,499,499,499,499,499,499,499,499,499,498,494,477,451,335,292,251,227,206,202,200,197,189,166,155,143,136,133,126,124,121,117,112,106,90,84,82,81,81,78],"timestamp_mouse":[8,20,41,61,81,101,121,140,161,181,201,221,242,261,280,301,320,341,360,381,401,422,440,461,481,500,522,540,562,580,601,621,640,662,680,701,720,741,762,782,800,821,841,860,882,902,921,941,961,981,1003,1020,1041,1061,1080,1102,1120,1141,1161,1180,1200,1220,1240,1261,1280,1300,1320],"xSR":741.5,"ySR":447.2,"xT1":424.9,"yT1":0,"xT2":1058.1,"yT2":0,"toosoon":0,"cond_shown":"Incongruent","ratio_trial":100,"L_num":13,"L_den":26,"R_num":6,"R_den":10,"correct_side":2,"subjID":"MATEOFLOREZPEREZ23","gender":"0","school":"6","age":"12"},{"start_time":1551794089646,"click_time":1551794091382,"finger_time":1551794091023,"fix_duration":1280.443959126644,"trial":33,"RT":1377,"MT":359,"sideResp":2,"stimulus":[],"xmouse":[819,819,819,819,819,819,819,819,819,819,819,819,819,819,819,820,820,820,820,820,820,820,820,820,820,820,820,820,820,820,820,820,820,820,820,820,820,820,820,820,820,820,820,820,820,820,820,820,820,820,820,818,817,817,817,817,817,817,817,817,817,817,817,817,817,817,816,815,813,812,818,831,851,868,884,908,915,920,931,948,1013,1013,1013,1013,1033,1048,1084],"ymouse":[475,475,475,475,475,475,475,475,475,475,475,475,475,475,475,473,472,472,472,472,472,472,472,472,472,472,472,472,472,472,471,467,466,462,461,459,458,458,458,457,457,457,457,457,457,457,457,457,457,456,456,456,455,455,455,455,455,455,454,453,453,453,453,453,453,453,451,448,443,431,330,243,160,107,81,51,44,39,32,21,0,0,0,0,3,18,41],"timestamp_mouse":[34,38,56,77,98,117,137,157,177,197,216,237,256,278,296,317,337,358,376,397,417,436,456,478,497,516,538,557,576,598,616,637,657,678,697,716,736,757,778,797,818,837,856,878,896,917,938,957,976,998,1017,1037,1056,1077,1098,1117,1137,1158,1177,1196,1218,1238,1257,1278,1296,1316,1336,1358,1377,1397,1418,1436,1457,1478,1496,1517,1536,1557,1577,1596,1617,1636,1656,1676,1697,1716,1736],"xSR":741.5,"ySR":447.2,"xT1":424.9,"yT1":0,"xT2":1058.1,"yT2":0,"toosoon":0,"cond_shown":"Congruent","ratio_trial":200,"L_num":5,"L_den":10,"R_num":14,"R_den":20,"correct_side":2,"subjID":"MATEOFLOREZPEREZ23","gender":"0","school":"6","age":"12"},{"start_time":1551794092495,"click_time":1551794094642,"finger_time":1551794093922,"fix_duration":250,"trial":34,"RT":1427,"MT":720,"sideResp":1,"stimulus":[],"xmouse":[761,762,762,762,763,763,763,763,763,763,763,763,763,763,763,763,763,763,763,763,763,763,763,763,763,763,763,763,763,763,763,763,763,763,763,763,763,763,763,763,763,763,763,763,763,763,763,763,763,763,763,763,763,763,763,763,763,763,763,763,763,763,763,763,763,763,763,763,764,775,789,811,850,925,954,967,971,972,972,972,970,965,952,916,901,885,874,861,848,793,744,661,584,550,547,544,539,536,532,532,533,535,536,536,534,531,527,524],"ymouse":[488,488,488,488,488,488,488,488,488,488,488,488,488,488,488,488,488,488,488,488,488,488,488,488,488,488,488,488,488,488,488,488,488,488,488,488,488,488,488,488,488,488,488,488,488,488,488,488,488,488,488,488,488,488,488,488,488,487,487,487,487,487,487,487,487,487,487,486,484,472,462,447,420,364,340,328,321,319,317,315,312,308,297,271,258,247,239,231,226,209,196,177,163,158,157,153,146,141,131,126,123,119,116,111,102,97,91,85],"timestamp_mouse":[10,37,48,68,88,107,128,148,169,187,209,227,247,269,287,307,329,348,369,387,408,427,447,469,487,507,527,549,567,588,607,629,647,668,687,708,728,748,767,789,807,827,849,868,889,907,928,948,968,987,1008,1027,1048,1067,1088,1107,1127,1147,1169,1187,1207,1227,1249,1268,1287,1307,1327,1347,1367,1388,1407,1427,1449,1468,1487,1508,1528,1548,1569,1587,1608,1627,1647,1668,1687,1708,1727,1747,1767,1787,1808,1829,1848,1868,1887,1908,1929,1948,1969,1987,2008,2029,2047,2068,2088,2108,2128,2147],"xSR":741.5,"ySR":447.2,"xT1":424.9,"yT1":0,"xT2":1058.1,"yT2":0,"toosoon":0,"cond_shown":"Congruent","ratio_trial":100,"L_num":11,"L_den":22,"R_num":6,"R_den":15,"correct_side":1,"subjID":"MATEOFLOREZPEREZ23","gender":"0","school":"6","age":"12"},{"start_time":1551794096206,"click_time":1551794097723,"finger_time":1551794097523,"fix_duration":621.6540928536808,"trial":35,"RT":1317,"MT":200,"sideResp":2,"stimulus":[],"xmouse":[826,826,826,826,826,826,826,826,826,826,826,826,826,826,826,826,826,826,826,826,826,826,826,826,826,826,826,826,826,826,826,826,826,826,826,826,826,826,826,826,826,826,826,826,826,826,826,826,826,826,826,826,826,826,826,826,826,826,826,826,826,826,826,826,826,830,847,922,972,1011,1029,1036,1043,1050,1059,1071],"ymouse":[466,466,466,466,466,466,466,466,466,466,466,466,466,466,466,466,466,466,466,466,466,466,466,466,466,466,466,466,466,466,466,466,466,466,466,466,466,466,466,466,466,466,466,466,466,466,466,466,466,466,466,466,466,466,466,466,466,466,466,466,466,466,466,466,462,443,412,313,254,201,161,140,118,109,102,92],"timestamp_mouse":[17,39,58,78,97,118,136,156,177,196,218,237,257,276,298,317,336,357,378,396,416,438,456,477,497,517,538,556,576,597,616,637,656,676,696,716,737,757,778,797,817,837,856,876,897,916,937,956,976,998,1018,1037,1057,1078,1097,1117,1137,1157,1176,1198,1217,1237,1258,1276,1296,1317,1337,1357,1376,1396,1418,1438,1457,1477,1496,1517],"xSR":741.5,"ySR":447.2,"xT1":424.9,"yT1":0,"xT2":1058.1,"yT2":0,"toosoon":0,"cond_shown":"Congruent","ratio_trial":100,"L_num":6,"L_den":20,"R_num":5,"R_den":25,"correct_side":1,"subjID":"MATEOFLOREZPEREZ23","gender":"0","school":"6","age":"12"},{"start_time":1551794100285,"click_time":1551794102203,"finger_time":1551794101884,"fix_duration":1321.6394603546958,"trial":36,"RT":1599,"MT":319,"sideResp":1,"stimulus":[],"xmouse":[788,788,788,788,788,788,788,788,788,788,788,788,788,788,789,790,790,790,790,790,790,790,790,791,791,791,791,791,791,791,791,791,791,791,791,791,791,791,791,791,791,791,791,791,791,791,791,791,791,791,791,791,791,791,791,791,791,791,791,791,791,791,791,791,791,789,788,787,784,783,782,779,776,774,774,773,771,767,762,702,670,642,621,594,581,571,561,548,524,519,519,519,518,515,505,501],"ymouse":[471,471,471,472,473,474,475,476,476,476,476,476,476,476,477,478,478,478,478,478,478,478,478,479,479,479,479,479,479,479,479,479,479,479,479,479,479,479,479,479,479,479,479,479,479,479,479,479,479,479,479,479,479,479,479,479,479,479,479,479,479,479,479,479,479,479,479,479,479,479,479,479,479,479,479,479,478,467,457,390,350,318,283,238,219,204,188,170,142,136,135,134,128,121,101,93],"timestamp_mouse":[34,38,57,79,97,118,138,157,178,197,218,237,259,277,297,317,339,357,377,399,418,438,458,479,499,518,537,558,578,599,618,638,658,679,698,717,738,757,779,799,818,838,859,879,897,917,939,958,978,998,1018,1038,1058,1077,1098,1117,1138,1157,1178,1199,1217,1238,1257,1278,1298,1317,1338,1359,1378,1398,1418,1438,1459,1478,1498,1518,1537,1559,1578,1599,1617,1638,1658,1678,1698,1718,1738,1759,1778,1797,1817,1838,1857,1877,1897,1918],"xSR":741.5,"ySR":447.2,"xT1":424.9,"yT1":0,"xT2":1058.1,"yT2":0,"toosoon":0,"cond_shown":"Congruent","ratio_trial":300,"L_num":4,"L_den":10,"R_num":1,"R_den":10,"correct_side":1,"subjID":"MATEOFLOREZPEREZ23","gender":"0","school":"6","age":"12"},{"start_time":1551794103054,"click_time":1551794105123,"finger_time":1551794104282,"fix_duration":250,"trial":37,"RT":1228,"MT":841,"sideResp":1,"stimulus":[],"xmouse":[811,811,811,811,811,811,811,811,811,811,811,811,811,811,811,811,811,811,811,811,811,811,811,811,811,811,811,811,811,811,811,811,811,811,811,811,811,811,811,811,811,811,811,811,811,811,811,811,811,811,811,811,811,811,811,811,811,811,809,804,794,743,718,696,677,650,638,625,618,611,599,568,551,540,531,525,517,509,500,493,489,488,488,488,488,488,488,488,488,488,488,488,488,488,488,487,487,487,487,486,486,485,485,484],"ymouse":[538,538,538,538,538,538,538,538,538,538,538,538,538,538,538,538,538,538,538,538,538,538,538,538,538,538,538,538,538,538,538,538,538,538,538,538,538,538,538,538,538,538,538,538,538,538,538,538,538,538,538,538,538,538,538,538,538,534,530,515,494,417,379,340,308,266,251,239,229,222,209,185,172,165,159,155,150,147,142,139,137,135,135,135,135,135,135,135,135,135,135,135,135,135,134,133,130,130,128,126,122,113,108,99],"timestamp_mouse":[9,29,50,69,90,108,129,149,168,189,209,230,249,269,290,308,329,349,368,389,410,430,448,469,489,509,530,548,569,589,610,628,649,670,690,708,729,749,770,788,809,830,849,869,890,908,929,949,969,990,1010,1028,1050,1069,1088,1110,1128,1148,1169,1188,1209,1228,1249,1269,1289,1310,1329,1349,1369,1388,1408,1428,1448,1469,1488,1508,1528,1548,1568,1589,1608,1628,1648,1669,1688,1709,1730,1749,1768,1788,1810,1829,1848,1868,1888,1908,1928,1948,1969,1989,2008,2028,2049,2069],"xSR":741.5,"ySR":447.2,"xT1":424.9,"yT1":0,"xT2":1058.1,"yT2":0,"toosoon":0,"cond_shown":"Incongruent","ratio_trial":100,"L_num":10,"L_den":25,"R_num":8,"R_den":16,"correct_side":2,"subjID":"MATEOFLOREZPEREZ23","gender":"0","school":"6","age":"12"},{"start_time":1551794107304,"click_time":1551794108982,"finger_time":1551794108443,"fix_duration":1321.5846605779154,"trial":38,"RT":1139,"MT":539,"sideResp":1,"stimulus":[],"xmouse":[820,820,820,820,820,820,820,820,820,820,820,820,820,820,820,820,820,820,820,820,820,820,820,820,820,819,819,818,817,817,817,817,817,817,816,816,814,812,810,810,810,810,810,810,810,810,810,810,810,810,810,810,810,810,809,800,790,775,763,756,751,748,743,720,706,691,675,652,645,639,632,627,622,617,614,610,603,598,576,569,559,546,511,492],"ymouse":[483,483,486,486,487,487,488,489,490,490,490,490,491,491,491,491,491,491,491,491,491,491,491,491,491,491,491,491,491,491,491,491,491,491,490,489,488,484,481,481,481,481,481,481,481,481,481,481,481,481,481,480,478,475,467,452,435,408,392,381,374,369,364,341,325,311,297,270,258,245,231,217,205,183,172,163,152,147,133,128,124,118,103,98],"timestamp_mouse":[32,39,60,78,100,119,138,159,179,199,219,238,260,278,298,319,338,360,378,398,418,440,459,478,498,518,538,559,579,598,620,639,658,679,699,719,739,759,780,798,819,838,860,879,899,920,940,958,979,999,1018,1038,1059,1078,1098,1120,1139,1159,1178,1198,1219,1239,1258,1278,1299,1320,1339,1359,1378,1399,1418,1438,1458,1478,1499,1518,1538,1558,1579,1598,1619,1639,1659,1678],"xSR":741.5,"ySR":447.2,"xT1":424.9,"yT1":0,"xT2":1058.1,"yT2":0,"toosoon":0,"cond_shown":"Congruent","ratio_trial":100,"L_num":11,"L_den":22,"R_num":4,"R_den":10,"correct_side":1,"subjID":"MATEOFLOREZPEREZ23","gender":"0","school":"6","age":"12"},{"start_time":1551794110689,"click_time":1551794113682,"finger_time":1551794111922,"fix_duration":825.3324273246428,"trial":39,"RT":1233,"MT":1760,"sideResp":2,"stimulus":[],"xmouse":[816,816,816,816,816,816,816,816,816,816,816,816,816,816,816,816,816,816,816,816,816,816,816,816,816,816,816,816,816,816,816,816,816,816,816,816,816,816,816,816,816,816,816,816,816,816,816,816,816,816,816,816,816,816,816,816,816,816,816,824,840,865,883,924,940,960,982,1027,1165,1200,1220,1231,1233,1234,1236,1240,1244,1247,1243,1237,1233,1229,1227,1218,1217,1216,1215,1214,1213,1213,1213,1213,1213,1213,1213,1213,1213,1213,1213,1179,1050,837,594,168,84,65,63,63,63,63,63,63,63,63,63,63,63,63,63,65,87,120,185,410,534,656,748,797,822,827,839,860,883,943,976,999,1006,1006,1006,1006,1006,1006,1006,1006,1006,1006,1006,1006,1034,1062],"ymouse":[477,477,477,477,477,477,477,477,477,477,477,477,477,477,477,477,477,477,477,477,477,477,477,477,477,477,477,477,477,477,477,477,477,477,477,477,477,477,477,477,477,477,477,477,477,477,477,477,477,477,477,477,477,477,477,477,477,477,477,467,453,435,421,392,380,364,350,318,248,229,218,207,199,192,179,166,152,135,104,97,93,88,85,80,79,79,77,76,76,76,76,76,76,76,76,76,76,76,76,76,76,76,76,76,76,76,76,76,76,76,76,76,76,76,76,76,76,76,76,75,72,69,69,69,69,69,69,69,69,69,68,64,62,62,62,62,62,62,62,62,62,62,62,62,62,62,62,62,62,62],"timestamp_mouse":[13,40,54,73,94,115,134,154,174,194,213,235,253,275,294,313,335,353,375,393,413,435,455,473,493,514,534,553,573,593,614,633,654,674,693,714,733,755,775,793,814,834,854,873,895,913,934,953,973,995,1014,1033,1053,1073,1093,1114,1133,1153,1174,1194,1214,1233,1255,1274,1293,1313,1333,1353,1375,1393,1414,1434,1454,1473,1493,1514,1534,1553,1575,1593,1614,1633,1653,1675,1694,1714,1733,1753,1773,1793,1814,1834,1853,1874,1894,1914,1935,1955,1975,1995,2013,2035,2053,2075,2094,2113,2133,2155,2174,2193,2213,2234,2254,2275,2293,2313,2334,2354,2374,2393,2414,2435,2454,2474,2493,2514,2534,2553,2574,2593,2614,2635,2654,2674,2693,2714,2734,2754,2775,2794,2815,2835,2854,2874,2894,2913,2935,2954,2974,2993],"xSR":741.5,"ySR":447.2,"xT1":424.9,"yT1":0,"xT2":1058.1,"yT2":0,"toosoon":0,"cond_shown":"Incongruent","ratio_trial":200,"L_num":14,"L_den":30,"R_num":12,"R_den":18,"correct_side":2,"subjID":"MATEOFLOREZPEREZ23","gender":"0","school":"6","age":"12"},{"start_time":1551794116115,"click_time":1551794117963,"finger_time":1551794117042,"fix_duration":1270.3669147539701,"trial":40,"RT":927,"MT":921,"sideResp":1,"stimulus":[],"xmouse":[804,804,804,804,804,804,804,804,804,804,804,804,804,804,804,804,804,804,804,804,804,804,804,804,804,804,804,804,804,804,804,804,804,801,797,797,797,796,793,789,784,781,780,780,784,796,812,852,859,862,862,853,842,826,820,815,807,766,752,749,746,742,729,674,628,565,497,386,358,332,302,273,257,248,248,248,246,244,230,214,196,181,163,160,156,152,145,144,144,144,160,205,453],"ymouse":[492,492,492,492,492,492,492,492,492,492,492,492,492,492,492,492,492,492,492,492,492,492,492,492,492,492,492,492,492,492,492,492,492,492,492,492,492,492,491,486,478,474,472,470,461,448,427,356,328,301,278,247,219,191,184,179,176,170,168,168,168,168,168,168,168,168,168,175,179,187,196,203,208,211,211,211,211,210,188,170,152,136,116,112,110,108,108,107,107,107,102,96,94],"timestamp_mouse":[10,35,48,68,87,109,127,148,169,188,207,229,247,267,288,307,329,347,368,388,408,428,449,469,487,507,527,548,569,588,609,629,648,668,688,709,729,748,767,788,808,828,848,868,887,909,927,948,967,995,1007,1028,1047,1067,1087,1108,1128,1148,1167,1188,1209,1229,1248,1267,1287,1307,1327,1348,1367,1388,1409,1429,1447,1467,1489,1507,1527,1547,1568,1587,1610,1629,1648,1667,1688,1708,1728,1748,1767,1787,1807,1827,1848],"xSR":741.5,"ySR":447.2,"xT1":424.9,"yT1":0,"xT2":1058.1,"yT2":0,"toosoon":0,"cond_shown":"Congruent","ratio_trial":200,"L_num":3,"L_den":6,"R_num":14,"R_den":20,"correct_side":2,"subjID":"MATEOFLOREZPEREZ23","gender":"0","school":"6","age":"12"},{"start_time":1551794135736,"click_time":1551794138744,"finger_time":1551794137184,"fix_duration":250,"trial":41,"RT":1448,"MT":1560,"sideResp":2,"stimulus":[],"xmouse":[773,773,773,773,773,773,773,773,773,773,773,773,773,773,773,773,773,773,773,773,773,773,773,773,773,773,773,773,773,773,773,773,773,773,773,773,773,773,773,773,773,773,773,773,773,773,773,773,773,773,773,773,773,773,773,773,773,773,773,773,773,773,773,773,773,773,773,772,767,766,766,767,789,814,843,875,884,932,941,947,952,961,968,974,981,985,1001,1006,1015,1020,1022,1022,1022,1022,1022,1022,1022,1022,1023,1024,1026,1029,1034,1037,1039,1040,1044,1046,1047,1048,1049,1049,1049,1049,1049,1048,1037,1027,1025,1024,1024,1024,1024,1024,1023,1022,1020,1020,1020,1019,1019,1017,1016,1016,1016,1016,1016,1016,1016,1016,1016,1017,1017,1018,1018,1019,1021,1032,1040,1055,1067],"ymouse":[470,470,470,470,470,470,470,470,470,470,470,470,470,470,470,470,470,470,470,470,470,470,470,470,470,470,470,470,470,470,470,470,470,470,470,470,470,470,470,470,470,470,470,470,470,470,470,470,470,470,470,470,470,470,470,470,470,470,470,470,470,470,470,470,470,470,470,471,468,465,464,460,435,413,389,363,354,314,302,290,278,248,232,220,209,200,173,165,154,148,145,145,145,145,145,145,145,145,144,142,139,136,133,132,130,129,125,123,121,119,117,115,114,114,113,112,107,102,100,100,100,100,100,100,100,100,100,100,100,100,99,98,97,97,97,97,97,96,96,96,96,96,95,95,95,94,94,92,91,89,86],"timestamp_mouse":[14,42,48,68,88,108,128,148,169,187,207,228,248,268,287,309,327,348,368,387,408,427,448,467,488,508,529,549,568,588,609,628,647,668,688,708,728,748,768,789,808,828,848,868,888,909,928,949,968,988,1008,1028,1049,1069,1088,1108,1127,1149,1169,1189,1208,1229,1249,1268,1289,1309,1328,1349,1368,1388,1408,1428,1448,1467,1489,1508,1528,1548,1568,1589,1608,1628,1648,1668,1688,1709,1729,1748,1768,1789,1809,1829,1847,1868,1887,1908,1929,1948,1968,1988,2009,2028,2048,2069,2088,2109,2129,2147,2168,2187,2208,2227,2249,2268,2288,2309,2328,2348,2368,2389,2408,2429,2449,2468,2488,2508,2529,2547,2568,2589,2608,2628,2648,2668,2687,2708,2729,2748,2768,2788,2807,2828,2847,2868,2887,2907,2929,2948,2967,2987,3008],"xSR":741.5,"ySR":447.2,"xT1":424.9,"yT1":0,"xT2":1058.1,"yT2":0,"toosoon":0,"cond_shown":"Incongruent","ratio_trial":300,"L_num":4,"L_den":5,"R_num":8,"R_den":16,"correct_side":1,"subjID":"MATEOFLOREZPEREZ23","gender":"0","school":"6","age":"12"},{"start_time":1551794141517,"click_time":1551794143184,"finger_time":1551794142904,"fix_duration":250,"trial":42,"RT":1387,"MT":280,"sideResp":1,"stimulus":[],"xmouse":[787,787,787,787,787,787,787,787,787,787,787,787,787,787,787,787,787,787,787,787,787,787,787,787,787,787,787,787,787,787,787,787,787,787,787,787,787,787,787,787,787,787,787,787,787,787,787,787,787,787,787,787,787,787,787,787,787,787,787,787,787,787,787,787,787,787,787,787,764,740,715,691,610,556,510,482,475,475,480,480,480,480,488,492],"ymouse":[495,495,495,495,495,495,495,495,495,495,495,495,495,495,495,495,495,495,495,495,495,495,495,495,495,495,495,495,495,495,495,495,495,495,495,495,495,495,495,495,495,495,495,495,495,495,495,495,495,495,495,495,495,495,495,495,495,495,495,495,495,495,495,495,495,495,495,494,481,470,455,438,376,332,290,247,186,165,129,129,129,128,105,88],"timestamp_mouse":[10,33,48,67,87,107,127,148,167,187,207,227,246,267,286,308,327,346,367,386,408,426,448,467,486,507,528,548,568,587,606,628,646,667,686,708,728,747,768,787,806,828,847,868,887,908,928,948,968,987,1007,1026,1047,1068,1086,1107,1126,1148,1168,1188,1207,1228,1247,1268,1286,1308,1327,1347,1368,1387,1408,1427,1447,1466,1487,1506,1527,1547,1567,1587,1608,1627,1647,1666],"xSR":741.5,"ySR":447.2,"xT1":424.9,"yT1":0,"xT2":1058.1,"yT2":0,"toosoon":0,"cond_shown":"Incongruent","ratio_trial":300,"L_num":4,"L_den":20,"R_num":2,"R_den":4,"correct_side":2,"subjID":"MATEOFLOREZPEREZ23","gender":"0","school":"6","age":"12"},{"start_time":1551794144557,"click_time":1551794146605,"finger_time":1551794146043,"fix_duration":250,"trial":43,"RT":1486,"MT":562,"sideResp":1,"stimulus":[],"xmouse":[819,819,819,819,819,819,819,819,819,819,819,819,819,819,819,819,819,819,819,819,819,819,819,819,819,819,819,819,819,819,819,819,819,819,819,819,819,819,819,819,819,819,819,819,819,819,819,819,819,819,819,819,819,819,819,819,819,819,819,819,819,819,819,819,819,819,819,819,819,819,819,815,810,803,787,714,689,662,637,589,482,463,459,459,459,459,459,459,461,467,477,497,508,521,527,528,528,528,528,528,527,526,523],"ymouse":[510,510,510,510,510,510,510,510,510,510,510,510,510,510,510,510,510,510,510,510,510,510,510,510,510,510,510,510,510,510,510,510,510,510,510,510,510,510,510,510,510,510,510,510,510,510,510,510,510,510,510,510,510,510,510,510,510,510,510,510,510,510,510,510,510,510,510,510,510,510,509,500,490,472,445,354,327,299,277,250,196,183,180,179,179,179,179,171,163,155,145,126,116,103,95,93,93,93,92,92,92,91,88],"timestamp_mouse":[8,39,47,67,88,106,127,147,166,188,207,227,246,268,287,307,327,347,368,388,408,427,447,467,488,508,528,547,568,587,606,628,646,667,687,707,728,746,766,788,806,826,847,868,886,908,927,946,968,988,1008,1028,1047,1068,1087,1107,1128,1147,1168,1187,1206,1227,1248,1266,1287,1308,1326,1348,1367,1387,1408,1427,1447,1467,1486,1507,1527,1547,1568,1586,1608,1627,1647,1667,1687,1707,1727,1746,1766,1787,1807,1826,1848,1868,1888,1908,1927,1947,1967,1986,2007,2026,2048],"xSR":741.5,"ySR":447.2,"xT1":424.9,"yT1":0,"xT2":1058.1,"yT2":0,"toosoon":0,"cond_shown":"Incongruent","ratio_trial":100,"L_num":9,"L_den":15,"R_num":13,"R_den":26,"correct_side":1,"subjID":"MATEOFLOREZPEREZ23","gender":"0","school":"6","age":"12"},{"start_time":1551794150272,"click_time":1551794152344,"finger_time":1551794151664,"fix_duration":1108.4109364894878,"trial":44,"RT":1392,"MT":680,"sideResp":2,"stimulus":[],"xmouse":[795,794,793,793,793,793,793,793,793,793,793,793,793,793,793,793,793,793,793,793,793,793,793,793,793,793,793,793,793,793,793,793,793,793,793,793,793,793,793,793,793,793,793,793,793,793,793,793,793,793,793,793,793,793,793,793,793,793,793,793,793,793,793,793,793,793,793,793,793,867,944,1008,1048,1076,1086,1099,1112,1123,1132,1144,1159,1169,1177,1185,1189,1192,1196,1198,1200,1200,1200,1200,1201,1203,1214,1215,1218,1219,1219,1219,1219,1207,1158],"ymouse":[470,450,449,449,449,449,449,449,449,449,449,449,449,449,449,449,449,449,449,449,449,449,449,449,449,449,449,449,449,449,449,449,449,449,449,449,449,449,449,449,449,449,449,449,449,449,449,449,449,449,449,449,449,449,449,449,449,449,449,449,449,449,449,449,449,449,449,449,440,393,350,310,278,241,227,216,209,202,194,173,150,131,113,85,72,62,53,47,42,42,42,42,41,41,41,41,41,41,41,41,41,41,47],"timestamp_mouse":[33,51,72,91,113,132,151,172,193,213,233,253,273,291,313,332,352,373,393,412,432,451,472,491,511,532,552,572,593,613,631,651,673,692,712,732,753,773,792,812,833,853,873,892,913,932,953,973,992,1013,1032,1051,1072,1093,1113,1132,1153,1172,1193,1213,1231,1252,1273,1293,1313,1332,1353,1372,1392,1413,1432,1452,1472,1493,1512,1532,1552,1572,1591,1612,1632,1653,1673,1693,1711,1732,1752,1772,1792,1812,1832,1853,1871,1891,1912,1932,1952,1973,1992,2011,2032,2053,2072],"xSR":741.5,"ySR":447.2,"xT1":424.9,"yT1":0,"xT2":1058.1,"yT2":0,"toosoon":0,"cond_shown":"Congruent","ratio_trial":200,"L_num":13,"L_den":26,"R_num":14,"R_den":20,"correct_side":2,"subjID":"MATEOFLOREZPEREZ23","gender":"0","school":"6","age":"12"},{"start_time":1551794153911,"click_time":1551794155504,"finger_time":1551794155244,"fix_duration":504.7120685258237,"trial":45,"RT":1333,"MT":260,"sideResp":2,"stimulus":[],"xmouse":[796,796,796,796,796,796,796,796,796,796,796,796,796,796,796,796,796,796,796,796,796,796,796,796,796,796,796,796,796,796,796,796,796,796,796,796,796,796,796,796,796,796,796,796,796,796,796,796,796,796,796,796,796,796,796,796,796,796,796,796,796,796,796,796,797,803,816,916,952,981,1001,1010,1012,1015,1015,1015,1015,1022,