[{"start_time":1551899629923,"click_time":1551899635547,"finger_time":1551899634366,"fix_duration":472.98137960507324,"trial":0,"RT":4443,"MT":1181,"sideResp":1,"stimulus":[],"xmouse":[815,815,815,815,815,815,815,815,815,815,815,815,815,815,815,815,815,815,815,815,815,815,815,815,815,815,815,815,815,815,815,815,815,815,815,815,815,815,815,815,815,815,815,815,815,815,815,815,815,815,815,815,815,815,815,815,815,815,815,815,815,815,815,815,815,815,815,815,815,815,815,815,815,815,815,815,815,815,815,815,815,815,815,815,815,815,815,815,815,815,815,815,815,815,815,815,815,815,815,815,815,815,815,815,815,815,815,815,815,815,815,815,815,815,815,815,815,815,815,815,815,815,815,815,815,815,815,815,815,815,815,815,815,815,815,815,815,815,815,815,815,815,815,815,815,815,815,815,815,815,815,815,815,815,815,815,815,814,813,813,813,813,813,813,813,813,813,813,813,813,813,813,813,813,813,813,813,813,813,813,813,813,813,813,813,813,813,813,813,799,789,781,777,776,774,769,769,769,769,769,769,769,769,769,769,769,769,769,769,769,769,768,768,768,767,767,766,765,765,758,755,751,741,734,717,712,707,704,704,704,704,698,680,663,626,605,588,572,546,521,460,438,422,407,370,336,286,269,260,251,225,209,201,196,192,188,191,199,209,228,241,248,256,264,285,290,295,300,303,306,317,328,342,362,396,411,416,418,419,420,422,425],"ymouse":[548,548,548,548,548,548,548,548,548,548,548,548,548,548,548,548,548,548,548,548,548,548,548,548,548,548,548,548,548,548,548,548,548,548,548,548,548,548,548,548,548,548,548,548,548,548,548,548,548,548,548,548,548,548,548,548,548,548,548,548,548,548,548,548,548,548,548,548,548,548,548,548,548,548,548,548,548,548,548,548,548,548,548,548,548,548,548,548,548,548,548,548,548,548,548,548,548,548,548,548,548,548,548,548,548,548,548,548,548,548,548,548,548,548,548,548,548,548,548,548,548,548,548,548,548,548,548,548,548,548,548,548,548,548,548,548,548,548,548,548,548,548,548,548,548,548,548,548,548,548,548,548,548,548,548,548,548,548,548,548,548,548,548,548,548,548,548,548,548,548,548,548,548,548,548,548,548,548,548,548,548,548,548,548,548,548,548,548,548,555,560,563,564,565,566,566,566,566,566,566,566,566,566,566,566,566,566,566,566,566,566,566,566,566,566,566,567,567,568,571,572,575,580,584,590,591,591,592,592,592,592,594,596,599,604,604,603,597,590,583,564,557,547,536,504,464,408,386,374,361,326,308,299,292,283,262,246,235,225,205,195,190,185,177,160,157,154,151,148,146,138,131,123,112,91,80,75,74,73,72,70,67],"timestamp_mouse":[9,32,43,64,84,104,124,143,164,183,203,223,244,264,283,303,323,344,363,383,403,423,444,464,483,504,523,544,563,582,603,624,643,663,684,703,724,743,764,783,804,823,844,863,883,904,924,943,963,983,1003,1023,1044,1064,1083,1103,1123,1143,1163,1184,1203,1223,1244,1263,1284,1304,1324,1343,1364,1384,1404,1423,1443,1463,1484,1502,1524,1544,1563,1582,1603,1623,1644,1664,1683,1703,1723,1744,1764,1783,1804,1823,1843,1864,1883,1902,1924,1944,1964,1983,2004,2023,2044,2063,2083,2104,2123,2143,2163,2183,2204,2224,2244,2264,2283,2303,2322,2343,2364,2383,2403,2424,2443,2462,2484,2503,2523,2544,2564,2584,2603,2624,2644,2663,2683,2704,2724,2744,2764,2783,2804,2823,2843,2864,2883,2904,2923,2943,2964,2984,3003,3023,3044,3064,3084,3104,3123,3143,3164,3183,3204,3224,3243,3263,3283,3303,3324,3343,3363,3383,3404,3424,3443,3464,3484,3504,3523,3543,3563,3583,3604,3622,3644,3663,3683,3702,3724,3744,3763,3783,3803,3823,3844,3863,3883,3904,3923,3943,3964,3983,4003,4023,4043,4063,4083,4103,4124,4143,4162,4184,4204,4224,4244,4264,4283,4303,4324,4343,4364,4383,4403,4423,4443,4464,4484,4503,4523,4543,4563,4584,4604,4623,4644,4663,4683,4702,4724,4744,4763,4783,4803,4823,4843,4863,4884,4904,4923,4943,4963,4983,5003,5023,5043,5064,5084,5103,5123,5144,5163,5183,5203,5223,5243,5263,5284,5303,5323,5344,5363,5384,5403,5424,5443,5464,5484,5503,5523,5544,5563,5584,5603,5623],"xSR":741.5,"ySR":481,"xT1":424.9,"yT1":0,"xT2":1058.1,"yT2":0,"toosoon":0,"cond_shown":"Incongruent","ratio_trial":100,"L_num":2,"L_den":4,"R_num":6,"R_den":15,"correct_side":1,"subjID":"MelianFino1","gender":"1","age":"12","school":"6","test":{"fix_dur":[250,1500],"timestim":1000,"targets_dim":[100,100],"targets_relative_coord":[0.3,0.7],"size_stim":[880,420],"start_dim":[100,100],"size_start":[300,300],"size_fix":60,"samplingrate":20,"img_types":["Congruent","Incongruent"],"ratios":[100,200,300],"rep_conds":19,"nTrials":120,"trials_to_rest":500,"Trials_order":[25,59,30,81,52,8,10,46,82,69,84,97,88,5,105,85,95,65,71,75,73,83,23,104,80,111,9,96,49,40,57,55,39,11,41,114,86,2,21,22,17,119,13,108,63,110,53,1,12,26,66,106,16,6,45,32,99,94,112,113,44,50,48,103,107,58,100,15,33,60,87,68,38,89,7,56,31,98,51,3,64,91,109,4,72,93,0,115,27,118,14,24,90,79,62,37,19,117,47,67,36,70,78,42,34,61,102,101,54,92,116,74,18,77,29,20,76,43,35,28],"cond_shown":["Incongruent","Incongruent","Congruent","Incongruent","Congruent","Congruent","Congruent","Congruent","Congruent","Incongruent","Congruent","Incongruent","Congruent","Incongruent","Incongruent","Incongruent","Incongruent","Incongruent","Incongruent","Incongruent","Incongruent","Incongruent","Incongruent","Congruent","Congruent","Incongruent","Incongruent","Congruent","Incongruent","Congruent","Incongruent","Incongruent","Incongruent","Incongruent","Incongruent","Congruent","Congruent","Congruent","Incongruent","Congruent","Incongruent","Incongruent","Incongruent","Congruent","Incongruent","Congruent","Incongruent","Incongruent","Congruent","Congruent","Congruent","Congruent","Congruent","Congruent","Incongruent","Congruent","Incongruent","Congruent","Congruent","Incongruent","Congruent","Congruent","Congruent","Incongruent","Incongruent","Congruent","Congruent","Incongruent","Incongruent","Congruent","Incongruent","Congruent","Congruent","Incongruent","Incongruent","Congruent","Incongruent","Congruent","Incongruent","Incongruent","Congruent","Incongruent","Incongruent","Congruent","Congruent","Incongruent","Congruent","Incongruent","Incongruent","Congruent","Congruent","Congruent","Congruent","Incongruent","Congruent","Incongruent","Incongruent","Incongruent","Incongruent","Incongruent","Congruent","Congruent","Congruent","Congruent","Congruent","Incongruent","Congruent","Incongruent","Congruent","Congruent","Congruent","Congruent","Congruent","Incongruent","Incongruent","Congruent","Congruent","Incongruent","Incongruent","Congruent"],"ratio_trial":[100,300,100,200,300,200,300,300,300,200,100,100,300,300,200,100,300,300,300,200,100,300,300,200,200,200,200,100,100,300,200,100,200,300,300,100,200,200,200,300,300,300,100,100,200,200,300,100,100,200,100,300,300,100,200,200,200,300,300,300,200,200,100,100,300,300,300,200,200,100,200,200,200,300,100,200,100,200,200,200,300,100,100,300,100,200,100,100,200,300,200,100,100,100,200,100,100,200,300,100,100,300,100,100,300,100,100,300,100,200,200,200,100,300,300,200,300,100,300,300],"left_num":[2,1,10,1,2,1,12,4,20,4,9,17,24,13,7,6,4,13,4,3,3,4,1,8,14,7,7,1,8,20,7,6,11,8,4,4,5,3,11,5,13,13,10,4,1,3,4,9,1,8,3,20,11,15,4,8,9,20,7,13,6,4,11,10,4,24,7,14,14,11,1,3,12,1,1,8,12,7,11,6,24,9,13,1,12,4,3,11,6,20,16,7,10,12,4,11,9,14,4,9,3,3,12,10,5,9,11,4,3,3,7,3,7,4,1,11,11,13,4,12],"right_num":[6,2,3,2,10,21,2,13,13,1,8,10,2,12,12,3,8,12,2,11,7,8,3,7,6,6,14,3,1,14,14,13,3,14,6,6,14,9,3,7,12,12,9,6,3,9,2,14,3,7,2,13,4,13,6,7,8,9,20,12,3,3,6,9,6,2,20,6,6,4,3,7,6,3,8,7,9,18,3,3,8,20,12,8,13,1,2,9,3,9,9,9,3,9,3,9,14,12,6,20,4,11,13,3,7,14,6,8,2,9,2,9,9,2,2,3,2,6,6,2],"left_den":[4,2,25,3,20,2,24,20,25,30,15,30,30,26,10,12,5,26,20,4,9,5,2,15,28,15,10,2,20,25,10,10,20,10,5,8,10,12,20,25,26,26,25,8,2,12,20,15,2,15,6,25,22,25,5,15,15,25,14,26,15,8,22,25,5,30,14,30,30,22,2,10,15,2,2,15,24,15,20,20,30,10,26,30,30,30,6,22,20,25,30,14,25,24,8,22,15,30,5,10,20,12,30,25,25,15,22,5,6,12,21,12,14,20,2,22,22,26,5,24],"right_den":[15,10,10,15,25,30,10,26,26,3,16,15,4,15,24,5,16,15,4,20,30,16,15,21,20,9,28,5,2,28,28,26,4,28,12,10,20,20,4,14,15,15,18,10,10,20,4,28,5,21,5,26,20,26,10,21,10,18,25,15,15,10,15,18,12,4,25,9,9,10,10,14,10,15,20,21,15,27,4,6,16,25,20,24,26,3,5,15,6,18,27,15,10,15,10,15,28,18,12,25,16,20,26,10,14,28,15,16,5,20,15,20,15,4,10,10,10,10,12,10],"correct_side":[1,1,1,1,2,2,1,2,1,2,1,2,1,2,1,2,1,2,2,1,1,1,1,1,1,2,1,2,2,1,1,1,2,1,1,2,2,2,2,2,2,2,2,2,1,2,2,1,2,1,1,1,1,1,1,1,2,1,2,2,1,1,1,2,1,1,2,2,2,1,1,2,1,1,1,1,2,2,2,2,1,1,2,2,2,2,1,2,2,1,1,2,1,2,1,2,1,2,1,1,2,2,2,1,2,1,1,1,1,2,1,2,2,2,1,1,1,2,1,1],"img_shown":["img2/100/Incongruent/L/I_Dist_100_LN_2_LD_4_RN_6_RD_15_0.png","img2/300/Incongruent/L/I_Dist_300_LN_1_LD_2_RN_2_RD_10_0.png","img2/100/Congruent/L/C_Dist_100_LN_10_LD_25_RN_3_RD_10_0.png","img2/200/Incongruent/L/I_Dist_200_LN_1_LD_3_RN_2_RD_15_0.png","img2/300/Congruent/R/C_Dist_300_LN_2_LD_20_RN_10_RD_25_1.png","img2/200/Congruent/R/C_Dist_200_LN_1_LD_2_RN_21_RD_30_1.png","img2/300/Congruent/L/C_Dist_300_LN_12_LD_24_RN_2_RD_10_0.png","img2/300/Congruent/R/C_Dist_300_LN_4_LD_20_RN_13_RD_26_1.png","img2/300/Congruent/L/C_Dist_300_LN_20_LD_25_RN_13_RD_26_0.png","img2/200/Incongruent/R/I_Dist_200_LN_4_LD_30_RN_1_RD_3_1.png","img2/100/Congruent/L/C_Dist_100_LN_9_LD_15_RN_8_RD_16_0.png","img2/100/Incongruent/R/I_Dist_100_LN_17_LD_30_RN_10_RD_15_1.png","img2/300/Congruent/L/C_Dist_300_LN_24_LD_30_RN_2_RD_4_0.png","img2/300/Incongruent/R/I_Dist_300_LN_13_LD_26_RN_12_RD_15_1.png","img2/200/Incongruent/L/I_Dist_200_LN_7_LD_10_RN_12_RD_24_0.png","img2/100/Incongruent/R/I_Dist_100_LN_6_LD_12_RN_3_RD_5_1.png","img2/300/Incongruent/L/I_Dist_300_LN_4_LD_5_RN_8_RD_16_0.png","img2/300/Incongruent/R/I_Dist_300_LN_13_LD_26_RN_12_RD_15_1.png","img2/300/Incongruent/R/I_Dist_300_LN_4_LD_20_RN_2_RD_4_1.png","img2/200/Incongruent/L/I_Dist_200_LN_3_LD_4_RN_11_RD_20_0.png","img2/100/Incongruent/L/I_Dist_100_LN_3_LD_9_RN_7_RD_30_0.png","img2/300/Incongruent/L/I_Dist_300_LN_4_LD_5_RN_8_RD_16_0.png","img2/300/Incongruent/L/I_Dist_300_LN_1_LD_2_RN_3_RD_15_0.png","img2/200/Congruent/L/C_Dist_200_LN_8_LD_15_RN_7_RD_21_0.png","img2/200/Congruent/L/C_Dist_200_LN_14_LD_28_RN_6_RD_20_0.png","img2/200/Incongruent/R/I_Dist_200_LN_7_LD_15_RN_6_RD_9_1.png","img2/200/Incongruent/L/I_Dist_200_LN_7_LD_10_RN_14_RD_28_0.png","img2/100/Congruent/R/C_Dist_100_LN_1_LD_2_RN_3_RD_5_1.png","img2/100/Incongruent/R/I_Dist_100_LN_8_LD_20_RN_1_RD_2_1.png","img2/300/Congruent/L/C_Dist_300_LN_20_LD_25_RN_14_RD_28_0.png","img2/200/Incongruent/L/I_Dist_200_LN_7_LD_10_RN_14_RD_28_0.png","img2/100/Incongruent/L/I_Dist_100_LN_6_LD_10_RN_13_RD_26_0.png","img2/200/Incongruent/R/I_Dist_200_LN_11_LD_20_RN_3_RD_4_1.png","img2/300/Incongruent/L/I_Dist_300_LN_8_LD_10_RN_14_RD_28_0.png","img2/300/Incongruent/L/I_Dist_300_LN_4_LD_5_RN_6_RD_12_0.png","img2/100/Congruent/R/C_Dist_100_LN_4_LD_8_RN_6_RD_10_1.png","img2/200/Congruent/R/C_Dist_200_LN_5_LD_10_RN_14_RD_20_1.png","img2/200/Congruent/R/C_Dist_200_LN_3_LD_12_RN_9_RD_20_1.png","img2/200/Incongruent/R/I_Dist_200_LN_11_LD_20_RN_3_RD_4_1.png","img2/300/Congruent/R/C_Dist_300_LN_5_LD_25_RN_7_RD_14_1.png","img2/300/Incongruent/R/I_Dist_300_LN_13_LD_26_RN_12_RD_15_1.png","img2/300/Incongruent/R/I_Dist_300_LN_13_LD_26_RN_12_RD_15_1.png","img2/100/Incongruent/R/I_Dist_100_LN_10_LD_25_RN_9_RD_18_1.png","img2/100/Congruent/R/C_Dist_100_LN_4_LD_8_RN_6_RD_10_1.png","img2/200/Incongruent/L/I_Dist_200_LN_1_LD_2_RN_3_RD_10_0.png","img2/200/Congruent/R/C_Dist_200_LN_3_LD_12_RN_9_RD_20_1.png","img2/300/Incongruent/R/I_Dist_300_LN_4_LD_20_RN_2_RD_4_1.png","img2/100/Incongruent/L/I_Dist_100_LN_9_LD_15_RN_14_RD_28_0.png","img2/100/Congruent/R/C_Dist_100_LN_1_LD_2_RN_3_RD_5_1.png","img2/200/Congruent/L/C_Dist_200_LN_8_LD_15_RN_7_RD_21_0.png","img2/100/Congruent/L/C_Dist_100_LN_3_LD_6_RN_2_RD_5_0.png","img2/300/Congruent/L/C_Dist_300_LN_20_LD_25_RN_13_RD_26_0.png","img2/300/Congruent/L/C_Dist_300_LN_11_LD_22_RN_4_RD_20_0.png","img2/100/Congruent/L/C_Dist_100_LN_15_LD_25_RN_13_RD_26_0.png","img2/200/Incongruent/L/I_Dist_200_LN_4_LD_5_RN_6_RD_10_0.png","img2/200/Congruent/L/C_Dist_200_LN_8_LD_15_RN_7_RD_21_0.png","img2/200/Incongruent/R/I_Dist_200_LN_9_LD_15_RN_8_RD_10_1.png","img2/300/Congruent/L/C_Dist_300_LN_20_LD_25_RN_9_RD_18_0.png","img2/300/Congruent/R/C_Dist_300_LN_7_LD_14_RN_20_RD_25_1.png","img2/300/Incongruent/R/I_Dist_300_LN_13_LD_26_RN_12_RD_15_1.png","img2/200/Congruent/L/C_Dist_200_LN_6_LD_15_RN_3_RD_15_0.png","img2/200/Congruent/L/C_Dist_200_LN_4_LD_8_RN_3_RD_10_0.png","img2/100/Congruent/L/C_Dist_100_LN_11_LD_22_RN_6_RD_15_0.png","img2/100/Incongruent/R/I_Dist_100_LN_10_LD_25_RN_9_RD_18_1.png","img2/300/Incongruent/L/I_Dist_300_LN_4_LD_5_RN_6_RD_12_0.png","img2/300/Congruent/L/C_Dist_300_LN_24_LD_30_RN_2_RD_4_0.png","img2/300/Congruent/R/C_Dist_300_LN_7_LD_14_RN_20_RD_25_1.png","img2/200/Incongruent/R/I_Dist_200_LN_14_LD_30_RN_6_RD_9_1.png","img2/200/Incongruent/R/I_Dist_200_LN_14_LD_30_RN_6_RD_9_1.png","img2/100/Congruent/L/C_Dist_100_LN_11_LD_22_RN_4_RD_10_0.png","img2/200/Incongruent/L/I_Dist_200_LN_1_LD_2_RN_3_RD_10_0.png","img2/200/Congruent/R/C_Dist_200_LN_3_LD_10_RN_7_RD_14_1.png","img2/200/Congruent/L/C_Dist_200_LN_12_LD_15_RN_6_RD_10_0.png","img2/300/Incongruent/L/I_Dist_300_LN_1_LD_2_RN_3_RD_15_0.png","img2/100/Incongruent/L/I_Dist_100_LN_1_LD_2_RN_8_RD_20_0.png","img2/200/Congruent/L/C_Dist_200_LN_8_LD_15_RN_7_RD_21_0.png","img2/100/Incongruent/R/I_Dist_100_LN_12_LD_24_RN_9_RD_15_1.png","img2/200/Congruent/R/C_Dist_200_LN_7_LD_15_RN_18_RD_27_1.png","img2/200/Incongruent/R/I_Dist_200_LN_11_LD_20_RN_3_RD_4_1.png","img2/200/Incongruent/R/I_Dist_200_LN_6_LD_20_RN_3_RD_6_1.png","img2/300/Congruent/L/C_Dist_300_LN_24_LD_30_RN_8_RD_16_0.png","img2/100/Incongruent/L/I_Dist_100_LN_9_LD_10_RN_20_RD_25_0.png","img2/100/Incongruent/R/I_Dist_100_LN_13_LD_26_RN_12_RD_20_1.png","img2/300/Congruent/R/C_Dist_300_LN_1_LD_30_RN_8_RD_24_1.png","img2/100/Congruent/R/C_Dist_100_LN_12_LD_30_RN_13_RD_26_1.png","img2/200/Incongruent/R/I_Dist_200_LN_4_LD_30_RN_1_RD_3_1.png","img2/100/Congruent/L/C_Dist_100_LN_3_LD_6_RN_2_RD_5_0.png","img2/100/Incongruent/R/I_Dist_100_LN_11_LD_22_RN_9_RD_15_1.png","img2/200/Incongruent/R/I_Dist_200_LN_6_LD_20_RN_3_RD_6_1.png","img2/300/Congruent/L/C_Dist_300_LN_20_LD_25_RN_9_RD_18_0.png","img2/200/Congruent/L/C_Dist_200_LN_16_LD_30_RN_9_RD_27_0.png","img2/100/Congruent/R/C_Dist_100_LN_7_LD_14_RN_9_RD_15_1.png","img2/100/Congruent/L/C_Dist_100_LN_10_LD_25_RN_3_RD_10_0.png","img2/100/Incongruent/R/I_Dist_100_LN_12_LD_24_RN_9_RD_15_1.png","img2/200/Congruent/L/C_Dist_200_LN_4_LD_8_RN_3_RD_10_0.png","img2/100/Incongruent/R/I_Dist_100_LN_11_LD_22_RN_9_RD_15_1.png","img2/100/Incongruent/L/I_Dist_100_LN_9_LD_15_RN_14_RD_28_0.png","img2/200/Incongruent/R/I_Dist_200_LN_14_LD_30_RN_12_RD_18_1.png","img2/300/Incongruent/L/I_Dist_300_LN_4_LD_5_RN_6_RD_12_0.png","img2/100/Incongruent/L/I_Dist_100_LN_9_LD_10_RN_20_RD_25_0.png","img2/100/Congruent/R/C_Dist_100_LN_3_LD_20_RN_4_RD_16_1.png","img2/300/Congruent/R/C_Dist_300_LN_3_LD_12_RN_11_RD_20_1.png","img2/100/Congruent/R/C_Dist_100_LN_12_LD_30_RN_13_RD_26_1.png","img2/100/Congruent/L/C_Dist_100_LN_10_LD_25_RN_3_RD_10_0.png","img2/300/Congruent/R/C_Dist_300_LN_5_LD_25_RN_7_RD_14_1.png","img2/100/Incongruent/L/I_Dist_100_LN_9_LD_15_RN_14_RD_28_0.png","img2/100/Congruent/L/C_Dist_100_LN_11_LD_22_RN_6_RD_15_0.png","img2/300/Incongruent/L/I_Dist_300_LN_4_LD_5_RN_8_RD_16_0.png","img2/100/Congruent/L/C_Dist_100_LN_3_LD_6_RN_2_RD_5_0.png","img2/200/Congruent/R/C_Dist_200_LN_3_LD_12_RN_9_RD_20_1.png","img2/200/Congruent/L/C_Dist_200_LN_7_LD_21_RN_2_RD_15_0.png","img2/200/Congruent/R/C_Dist_200_LN_3_LD_12_RN_9_RD_20_1.png","img2/100/Congruent/R/C_Dist_100_LN_7_LD_14_RN_9_RD_15_1.png","img2/300/Incongruent/R/I_Dist_300_LN_4_LD_20_RN_2_RD_4_1.png","img2/300/Incongruent/L/I_Dist_300_LN_1_LD_2_RN_2_RD_10_0.png","img2/200/Congruent/L/C_Dist_200_LN_11_LD_22_RN_3_RD_10_0.png","img2/300/Congruent/L/C_Dist_300_LN_11_LD_22_RN_2_RD_10_0.png","img2/100/Incongruent/R/I_Dist_100_LN_13_LD_26_RN_6_RD_10_1.png","img2/300/Incongruent/L/I_Dist_300_LN_4_LD_5_RN_6_RD_12_0.png","img2/300/Congruent/L/C_Dist_300_LN_12_LD_24_RN_2_RD_10_0.png"],"dist100_C":[["C_Dist_100_LN_10_LD_25_RN_3_RD_10_0.png","C_Dist_100_LN_11_LD_22_RN_4_RD_10_0.png","C_Dist_100_LN_11_LD_22_RN_6_RD_15_0.png","C_Dist_100_LN_15_LD_25_RN_13_RD_26_0.png","C_Dist_100_LN_3_LD_6_RN_2_RD_5_0.png","C_Dist_100_LN_6_LD_20_RN_5_RD_25_0.png","C_Dist_100_LN_8_LD_16_RN_2_RD_5_0.png","C_Dist_100_LN_9_LD_15_RN_8_RD_16_0.png"],["C_Dist_100_LN_1_LD_2_RN_18_RD_30_1.png","C_Dist_100_LN_1_LD_2_RN_3_RD_5_1.png","C_Dist_100_LN_12_LD_30_RN_13_RD_26_1.png","C_Dist_100_LN_2_LD_5_RN_11_RD_22_1.png","C_Dist_100_LN_2_LD_5_RN_6_RD_12_1.png","C_Dist_100_LN_3_LD_20_RN_4_RD_16_1.png","C_Dist_100_LN_4_LD_10_RN_15_RD_30_1.png","C_Dist_100_LN_4_LD_8_RN_6_RD_10_1.png","C_Dist_100_LN_6_LD_12_RN_15_RD_25_1.png","C_Dist_100_LN_7_LD_14_RN_15_RD_25_1.png","C_Dist_100_LN_7_LD_14_RN_9_RD_15_1.png"]],"dist100_I":[["I_Dist_100_LN_1_LD_2_RN_8_RD_20_0.png","I_Dist_100_LN_2_LD_4_RN_6_RD_15_0.png","I_Dist_100_LN_2_LD_4_RN_8_RD_20_0.png","I_Dist_100_LN_3_LD_5_RN_11_RD_22_0.png","I_Dist_100_LN_3_LD_5_RN_8_RD_16_0.png","I_Dist_100_LN_3_LD_6_RN_4_RD_10_0.png","I_Dist_100_LN_3_LD_9_RN_7_RD_30_0.png","I_Dist_100_LN_4_LD_8_RN_8_RD_20_0.png","I_Dist_100_LN_6_LD_10_RN_11_RD_22_0.png","I_Dist_100_LN_6_LD_10_RN_13_RD_26_0.png","I_Dist_100_LN_6_LD_10_RN_7_RD_14_0.png","I_Dist_100_LN_9_LD_10_RN_20_RD_25_0.png","I_Dist_100_LN_9_LD_15_RN_13_RD_26_0.png","I_Dist_100_LN_9_LD_15_RN_14_RD_28_0.png"],["I_Dist_100_LN_10_LD_25_RN_8_RD_16_1.png","I_Dist_100_LN_10_LD_25_RN_9_RD_18_1.png","I_Dist_100_LN_11_LD_22_RN_9_RD_15_1.png","I_Dist_100_LN_12_LD_24_RN_9_RD_15_1.png","I_Dist_100_LN_12_LD_30_RN_2_RD_4_1.png","I_Dist_100_LN_13_LD_26_RN_12_RD_20_1.png","I_Dist_100_LN_13_LD_26_RN_6_RD_10_1.png","I_Dist_100_LN_17_LD_30_RN_10_RD_15_1.png","I_Dist_100_LN_6_LD_12_RN_3_RD_5_1.png","I_Dist_100_LN_8_LD_16_RN_6_RD_10_1.png","I_Dist_100_LN_8_LD_20_RN_1_RD_2_1.png","I_Dist_100_LN_9_LD_18_RN_6_RD_10_1.png"]],"dist100_S":[["E_Dist_100_LN_2_LD_12_RN_2_RD_30_0.png","E_Dist_100_LN_6_LD_10_RN_6_RD_12_0.png"],["E_Dist_100_LN_6_LD_12_RN_6_RD_10_1.png"]],"dist200_C":[["C_Dist_200_LN_11_LD_22_RN_3_RD_10_0.png","C_Dist_200_LN_12_LD_15_RN_6_RD_10_0.png","C_Dist_200_LN_12_LD_20_RN_6_RD_15_0.png","C_Dist_200_LN_14_LD_28_RN_6_RD_20_0.png","C_Dist_200_LN_15_LD_25_RN_4_RD_10_0.png","C_Dist_200_LN_16_LD_20_RN_12_RD_20_0.png","C_Dist_200_LN_16_LD_30_RN_9_RD_27_0.png","C_Dist_200_LN_20_LD_25_RN_9_RD_15_0.png","C_Dist_200_LN_21_LD_30_RN_2_RD_4_0.png","C_Dist_200_LN_4_LD_10_RN_3_RD_15_0.png","C_Dist_200_LN_4_LD_8_RN_3_RD_10_0.png","C_Dist_200_LN_6_LD_15_RN_3_RD_15_0.png","C_Dist_200_LN_7_LD_21_RN_2_RD_15_0.png","C_Dist_200_LN_8_LD_15_RN_2_RD_6_0.png","C_Dist_200_LN_8_LD_15_RN_3_RD_9_0.png","C_Dist_200_LN_8_LD_15_RN_7_RD_21_0.png","C_Dist_200_LN_9_LD_20_RN_4_RD_16_0.png"],["C_Dist_200_LN_1_LD_2_RN_21_RD_30_1.png","C_Dist_200_LN_13_LD_26_RN_14_RD_20_1.png","C_Dist_200_LN_3_LD_10_RN_11_RD_22_1.png","C_Dist_200_LN_3_LD_10_RN_14_RD_28_1.png","C_Dist_200_LN_3_LD_10_RN_7_RD_14_1.png","C_Dist_200_LN_3_LD_12_RN_9_RD_20_1.png","C_Dist_200_LN_3_LD_6_RN_14_RD_20_1.png","C_Dist_200_LN_5_LD_10_RN_14_RD_20_1.png","C_Dist_200_LN_6_LD_12_RN_7_RD_10_1.png","C_Dist_200_LN_6_LD_20_RN_11_RD_22_1.png","C_Dist_200_LN_7_LD_15_RN_18_RD_27_1.png","C_Dist_200_LN_9_LD_30_RN_13_RD_26_1.png"]],"dist200_I":[["I_Dist_200_LN_1_LD_2_RN_3_RD_10_0.png","I_Dist_200_LN_1_LD_3_RN_2_RD_15_0.png","I_Dist_200_LN_3_LD_4_RN_11_RD_20_0.png","I_Dist_200_LN_4_LD_5_RN_6_RD_10_0.png","I_Dist_200_LN_4_LD_6_RN_14_RD_30_0.png","I_Dist_200_LN_7_LD_10_RN_12_RD_24_0.png","I_Dist_200_LN_7_LD_10_RN_14_RD_28_0.png","I_Dist_200_LN_7_LD_10_RN_8_RD_16_0.png"],["I_Dist_200_LN_11_LD_20_RN_3_RD_4_1.png","I_Dist_200_LN_14_LD_30_RN_12_RD_18_1.png","I_Dist_200_LN_14_LD_30_RN_6_RD_9_1.png","I_Dist_200_LN_3_LD_10_RN_1_RD_2_1.png","I_Dist_200_LN_4_LD_30_RN_1_RD_3_1.png","I_Dist_200_LN_6_LD_20_RN_3_RD_6_1.png","I_Dist_200_LN_7_LD_15_RN_4_RD_6_1.png","I_Dist_200_LN_7_LD_15_RN_6_RD_9_1.png","I_Dist_200_LN_9_LD_15_RN_8_RD_10_1.png"]],"dist200_S":[["E_Dist_200_LN_3_LD_6_RN_3_RD_10_0.png"],["E_Dist_200_LN_3_LD_10_RN_3_RD_6_1.png"]],"dist300_C":[["C_Dist_300_LN_11_LD_22_RN_1_RD_5_0.png","C_Dist_300_LN_11_LD_22_RN_2_RD_10_0.png","C_Dist_300_LN_11_LD_22_RN_4_RD_20_0.png","C_Dist_300_LN_12_LD_24_RN_2_RD_10_0.png","C_Dist_300_LN_18_LD_20_RN_9_RD_15_0.png","C_Dist_300_LN_20_LD_25_RN_13_RD_26_0.png","C_Dist_300_LN_20_LD_25_RN_14_RD_28_0.png","C_Dist_300_LN_20_LD_25_RN_5_RD_10_0.png","C_Dist_300_LN_20_LD_25_RN_8_RD_16_0.png","C_Dist_300_LN_20_LD_25_RN_9_RD_18_0.png","C_Dist_300_LN_24_LD_30_RN_2_RD_4_0.png","C_Dist_300_LN_24_LD_30_RN_8_RD_16_0.png","C_Dist_300_LN_3_LD_6_RN_2_RD_10_0.png","C_Dist_300_LN_4_LD_10_RN_1_RD_10_0.png","C_Dist_300_LN_4_LD_5_RN_2_RD_4_0.png","C_Dist_300_LN_8_LD_16_RN_1_RD_5_0.png","C_Dist_300_LN_9_LD_10_RN_3_RD_5_0.png"],["C_Dist_300_LN_1_LD_20_RN_7_RD_20_1.png","C_Dist_300_LN_1_LD_3_RN_19_RD_30_1.png","C_Dist_300_LN_1_LD_30_RN_8_RD_24_1.png","C_Dist_300_LN_1_LD_5_RN_11_RD_22_1.png","C_Dist_300_LN_1_LD_5_RN_3_RD_6_1.png","C_Dist_300_LN_1_LD_5_RN_6_RD_12_1.png","C_Dist_300_LN_2_LD_10_RN_12_RD_24_1.png","C_Dist_300_LN_2_LD_20_RN_10_RD_25_1.png","C_Dist_300_LN_3_LD_12_RN_11_RD_20_1.png","C_Dist_300_LN_3_LD_6_RN_4_RD_5_1.png","C_Dist_300_LN_4_LD_20_RN_13_RD_26_1.png","C_Dist_300_LN_5_LD_25_RN_6_RD_12_1.png","C_Dist_300_LN_5_LD_25_RN_7_RD_14_1.png","C_Dist_300_LN_7_LD_14_RN_20_RD_25_1.png","C_Dist_300_LN_8_LD_15_RN_10_RD_12_1.png"]],"dist300_I":[["I_Dist_300_LN_1_LD_2_RN_2_RD_10_0.png","I_Dist_300_LN_1_LD_2_RN_3_RD_15_0.png","I_Dist_300_LN_2_LD_4_RN_6_RD_30_0.png","I_Dist_300_LN_3_LD_6_RN_4_RD_20_0.png","I_Dist_300_LN_4_LD_5_RN_6_RD_12_0.png","I_Dist_300_LN_4_LD_5_RN_8_RD_16_0.png","I_Dist_300_LN_7_LD_10_RN_8_RD_20_0.png","I_Dist_300_LN_8_LD_10_RN_14_RD_28_0.png","I_Dist_300_LN_8_LD_10_RN_9_RD_18_0.png"],["I_Dist_300_LN_13_LD_26_RN_12_RD_15_1.png","I_Dist_300_LN_4_LD_20_RN_2_RD_4_1.png"]],"dist300_S":[["E_Dist_300_LN_9_LD_12_RN_9_RD_20_0.png"],["E_Dist_300_LN_18_LD_30_RN_18_RD_20_1.png","E_Dist_300_LN_3_LD_10_RN_3_RD_5_1.png","E_Dist_300_LN_9_LD_20_RN_9_RD_12_1.png"]],"dist500_C":[["C_Dist_500_LN_10_LD_13_RN_7_RD_26_0.png","C_Dist_500_LN_10_LD_15_RN_4_RD_24_0.png","C_Dist_500_LN_12_LD_16_RN_3_RD_12_0.png","C_Dist_500_LN_12_LD_18_RN_4_RD_24_0.png","C_Dist_500_LN_15_LD_18_RN_5_RD_15_0.png","C_Dist_500_LN_15_LD_20_RN_1_RD_4_0.png","C_Dist_500_LN_18_LD_27_RN_1_RD_6_0.png","C_Dist_500_LN_20_LD_24_RN_1_RD_3_0.png","C_Dist_500_LN_20_LD_24_RN_3_RD_9_0.png","C_Dist_500_LN_20_LD_24_RN_7_RD_21_0.png","C_Dist_500_LN_20_LD_28_RN_3_RD_14_0.png","C_Dist_500_LN_21_LD_28_RN_6_RD_24_0.png","C_Dist_500_LN_22_LD_28_RN_2_RD_7_0.png","C_Dist_500_LN_25_LD_30_RN_9_RD_27_0.png","C_Dist_500_LN_4_LD_6_RN_1_RD_6_0.png","C_Dist_500_LN_5_LD_6_RN_2_RD_6_0.png","C_Dist_500_LN_6_LD_9_RN_1_RD_6_0.png","C_Dist_500_LN_7_LD_10_RN_1_RD_5_0.png","C_Dist_500_LN_8_LD_12_RN_1_RD_6_0.png","C_Dist_500_LN_8_LD_12_RN_4_RD_24_0.png"],["C_Dist_500_LN_1_LD_4_RN_12_RD_16_1.png","C_Dist_500_LN_1_LD_4_RN_9_RD_12_1.png","C_Dist_500_LN_1_LD_9_RN_11_RD_18_1.png","C_Dist_500_LN_10_LD_24_RN_22_RD_24_1.png","C_Dist_500_LN_2_LD_12_RN_10_RD_15_1.png","C_Dist_500_LN_2_LD_12_RN_12_RD_18_1.png","C_Dist_500_LN_2_LD_12_RN_4_RD_6_1.png","C_Dist_500_LN_2_LD_24_RN_7_RD_12_1.png","C_Dist_500_LN_2_LD_5_RN_18_RD_20_1.png","C_Dist_500_LN_2_LD_5_RN_9_RD_10_1.png","C_Dist_500_LN_2_LD_8_RN_12_RD_16_1.png","C_Dist_500_LN_2_LD_8_RN_21_RD_28_1.png","C_Dist_500_LN_3_LD_10_RN_4_RD_5_1.png","C_Dist_500_LN_3_LD_12_RN_15_RD_20_1.png","C_Dist_500_LN_3_LD_30_RN_6_RD_10_1.png","C_Dist_500_LN_3_LD_8_RN_14_RD_16_1.png","C_Dist_500_LN_4_LD_16_RN_15_RD_20_1.png","C_Dist_500_LN_4_LD_24_RN_12_RD_18_1.png","C_Dist_500_LN_5_LD_14_RN_6_RD_7_1.png","C_Dist_500_LN_7_LD_21_RN_20_RD_24_1.png","C_Dist_500_LN_7_LD_28_RN_12_RD_16_1.png","C_Dist_500_LN_7_LD_28_RN_9_RD_12_1.png","C_Dist_500_LN_9_LD_27_RN_20_RD_24_1.png"]],"dist500_I":[["I_Dist_500_LN_2_LD_3_RN_4_RD_24_0.png","I_Dist_500_LN_5_LD_6_RN_6_RD_18_0.png","I_Dist_500_LN_7_LD_8_RN_9_RD_24_0.png"],["I_Dist_500_LN_7_LD_21_RN_5_RD_6_1.png"]],"dist500_S":[["E_Dist_500_LN_6_LD_8_RN_6_RD_24_0.png"],["E_Dist_500_LN_2_LD_12_RN_2_RD_3_1.png","E_Dist_500_LN_6_LD_24_RN_6_RD_8_1.png"]]}},{"start_time":1551899638745,"click_time":1551899641046,"finger_time":1551899640386,"fix_duration":1497.8887966346592,"trial":1,"RT":1641,"MT":660,"sideResp":1,"stimulus":[],"xmouse":[797,797,797,797,797,797,797,797,797,797,797,797,797,797,797,797,797,797,797,797,797,797,797,797,797,797,797,797,797,797,797,797,797,797,797,797,797,797,797,797,797,797,797,797,797,797,797,797,797,797,797,797,797,797,797,797,797,797,797,797,797,797,797,797,797,797,797,797,797,797,797,797,797,797,797,797,795,791,784,767,760,756,738,721,675,649,612,571,532,484,475,472,469,468,461,440,410,373,345,307,279,269,263,260,260,262,272,283,296,333,359,404,431,452,471,473],"ymouse":[531,531,531,531,531,531,531,531,531,531,531,531,531,531,531,531,531,531,531,531,531,531,531,531,531,531,531,531,531,531,531,531,531,531,531,531,531,531,531,531,531,531,531,531,531,531,531,531,531,531,531,531,531,531,531,531,531,531,531,531,531,531,531,531,531,531,531,531,531,531,531,531,531,531,531,531,531,533,539,555,560,563,572,577,584,584,584,584,584,584,584,584,585,585,585,576,563,542,523,483,441,416,393,370,335,316,298,278,257,216,193,158,138,124,103,96],"timestamp_mouse":[9,39,42,61,82,101,121,142,162,182,201,220,242,262,282,302,322,341,362,381,402,422,441,462,482,501,522,542,562,581,602,621,642,661,682,701,721,741,761,782,801,821,842,861,881,902,922,940,960,981,1000,1021,1041,1062,1081,1102,1122,1142,1161,1182,1202,1221,1241,1262,1281,1302,1322,1341,1362,1381,1401,1422,1441,1462,1481,1502,1521,1541,1561,1581,1601,1621,1641,1661,1680,1701,1722,1742,1762,1781,1801,1821,1842,1860,1881,1901,1921,1941,1962,1981,2001,2020,2042,2061,2081,2101,2122,2141,2161,2181,2201,2220,2241,2261,2281,2301],"xSR":741.5,"ySR":481,"xT1":424.9,"yT1":0,"xT2":1058.1,"yT2":0,"toosoon":0,"cond_shown":"Incongruent","ratio_trial":300,"L_num":1,"L_den":2,"R_num":2,"R_den":10,"correct_side":1,"subjID":"MelianFino1","gender":"1","school":"6","age":"12"},{"start_time":1551899642876,"click_time":1551899646006,"finger_time":1551899644607,"fix_duration":689.9308301347388,"trial":2,"RT":1731,"MT":1399,"sideResp":1,"stimulus":[],"xmouse":[779,779,779,779,779,779,779,779,779,779,779,779,779,779,779,779,779,779,779,779,779,779,779,779,779,779,779,779,779,779,779,779,779,779,779,779,779,779,779,779,779,779,779,779,779,779,779,779,779,779,779,779,779,779,779,779,779,779,779,779,779,779,779,779,779,779,779,779,779,779,779,779,779,779,779,779,779,779,779,779,779,779,778,773,760,747,729,697,684,673,661,648,610,553,493,443,413,381,370,356,338,320,281,263,258,253,248,246,244,244,244,244,246,250,255,260,265,267,271,274,277,284,307,318,322,324,325,325,325,325,325,325,325,325,325,325,325,325,325,325,325,325,325,325,325,325,325,325,325,325,325,325,325,346,385,429,478],"ymouse":[538,538,538,538,538,538,538,538,538,538,538,538,538,538,538,538,538,538,538,538,538,538,538,538,538,538,538,538,538,538,538,538,538,538,538,538,538,538,538,538,538,538,538,538,538,538,538,538,538,538,538,538,538,538,538,538,538,538,538,538,538,538,538,538,538,538,538,538,538,538,538,538,538,538,538,538,538,538,538,538,538,538,539,545,557,569,582,603,609,612,614,615,607,576,544,517,499,471,456,439,417,401,369,352,345,331,313,294,261,247,238,231,217,206,196,188,181,177,172,169,166,163,148,139,135,134,133,133,133,133,133,133,133,133,133,133,133,133,133,133,133,133,133,133,133,133,133,133,133,133,133,133,133,128,116,103,87],"timestamp_mouse":[14,31,50,70,90,110,131,150,171,191,209,231,251,271,291,310,331,351,371,391,410,431,450,469,491,510,529,550,571,590,610,631,650,670,691,711,731,751,769,790,810,830,851,870,891,910,930,951,970,991,1010,1030,1051,1070,1090,1110,1131,1150,1171,1190,1211,1231,1250,1271,1291,1310,1330,1351,1371,1391,1411,1431,1451,1470,1491,1510,1531,1550,1571,1591,1611,1630,1651,1671,1690,1710,1731,1751,1770,1791,1810,1830,1851,1870,1890,1910,1930,1952,1970,1990,2010,2030,2050,2070,2089,2110,2130,2151,2169,2190,2210,2230,2250,2271,2290,2311,2330,2350,2369,2390,2410,2430,2450,2471,2490,2510,2530,2550,2571,2591,2611,2629,2651,2670,2690,2711,2730,2751,2770,2790,2810,2830,2850,2870,2890,2910,2930,2951,2970,2990,3011,3030,3050,3070,3090,3110,3130],"xSR":741.5,"ySR":481,"xT1":424.9,"yT1":0,"xT2":1058.1,"yT2":0,"toosoon":0,"cond_shown":"Congruent","ratio_trial":100,"L_num":10,"L_den":25,"R_num":3,"R_den":10,"correct_side":1,"subjID":"MelianFino1","gender":"1","school":"6","age":"12"},{"start_time":1551899648783,"click_time":1551899653886,"finger_time":1551899652267,"fix_duration":1155.3165273667503,"trial":3,"RT":3484,"MT":1619,"sideResp":1,"stimulus":[],"xmouse":[764,764,764,764,764,764,764,764,764,764,764,764,764,764,764,764,764,764,764,764,764,764,764,764,764,764,764,764,764,764,764,764,764,764,764,764,764,764,764,764,764,764,764,764,764,764,764,764,764,764,764,764,764,764,764,764,764,764,764,764,764,764,764,764,764,764,764,764,764,764,764,764,764,764,764,764,764,764,764,764,764,764,764,764,764,764,764,764,764,764,764,764,764,764,764,764,764,764,764,764,764,764,764,764,764,764,764,764,764,764,764,764,764,764,764,764,764,764,764,764,764,764,764,764,764,764,764,764,764,764,764,764,764,764,764,764,764,764,764,764,764,764,764,764,764,764,764,764,764,764,764,764,764,764,764,764,764,764,764,764,764,764,764,764,764,764,764,764,764,764,764,763,761,748,651,574,491,442,411,403,393,375,347,310,247,239,238,237,237,246,252,256,259,261,261,261,261,262,262,263,264,265,266,273,278,280,283,285,288,288,288,288,288,288,292,300,306,310,313,317,328,340,352,366,373,376,382,393,402,418,423,426,428,442,464,482,497,509,515,515,515,515,515,515,515,515,515,515,515,515,515,515,515,515,514,507],"ymouse":[535,535,535,535,535,535,535,535,535,535,535,535,535,535,535,535,535,535,535,535,535,535,535,535,535,535,535,535,535,535,535,535,535,535,535,535,535,535,535,535,535,535,535,535,535,535,535,535,535,535,535,535,535,535,535,535,535,535,535,535,535,535,535,535,535,535,535,535,535,535,535,535,535,535,535,535,535,535,535,535,535,535,535,535,535,535,535,535,535,535,535,535,535,535,535,535,535,535,535,535,535,535,535,535,535,535,535,535,535,535,535,535,535,535,535,535,535,535,535,535,535,535,535,535,535,535,535,535,535,535,535,535,535,535,535,535,535,535,535,535,535,535,535,535,535,535,535,535,535,535,535,535,535,535,535,535,535,535,535,535,535,535,535,535,535,535,535,535,535,535,535,536,536,538,549,554,560,560,560,557,550,537,514,482,427,414,405,396,383,356,340,329,322,313,312,311,311,310,308,306,304,301,297,286,279,275,271,268,265,265,265,265,265,265,263,262,260,260,260,256,248,240,230,219,213,210,206,200,197,188,186,185,185,178,164,148,134,122,113,113,113,113,113,113,113,113,113,113,113,112,112,112,112,108,105,95],"timestamp_mouse":[9,23,44,63,84,104,122,144,164,183,204,223,243,264,283,303,323,344,364,384,403,424,444,463,484,503,524,543,563,583,604,623,644,663,684,703,723,743,764,784,804,823,843,863,884,904,923,943,964,982,1003,1024,1044,1064,1084,1103,1123,1144,1163,1183,1204,1224,1243,1263,1284,1304,1324,1343,1363,1384,1404,1422,1444,1464,1484,1504,1523,1544,1563,1584,1603,1624,1644,1664,1683,1704,1724,1744,1764,1783,1803,1824,1843,1863,1884,1903,1923,1944,1963,1984,2004,2023,2044,2063,2083,2104,2123,2143,2163,2183,2204,2223,2243,2263,2283,2303,2323,2344,2362,2383,2404,2423,2443,2462,2484,2504,2523,2543,2563,2583,2603,2623,2643,2663,2684,2702,2723,2744,2763,2783,2804,2823,2848,2863,2882,2903,2924,2943,2963,2984,3003,3024,3044,3063,3083,3103,3123,3143,3163,3183,3202,3224,3244,3263,3283,3304,3324,3344,3364,3383,3404,3423,3444,3463,3484,3503,3523,3543,3563,3582,3603,3624,3643,3664,3684,3703,3723,3743,3763,3783,3803,3823,3844,3864,3883,3903,3924,3943,3964,3983,4003,4023,4043,4064,4083,4103,4124,4143,4164,4183,4203,4223,4244,4263,4284,4303,4323,4343,4362,4383,4404,4423,4443,4463,4483,4503,4523,4544,4563,4583,4603,4623,4643,4664,4683,4703,4723,4743,4764,4784,4803,4823,4843,4864,4884,4903,4924,4944,4964,4984,5004,5023,5043,5064,5083,5103],"xSR":741.5,"ySR":481,"xT1":424.9,"yT1":0,"xT2":1058.1,"yT2":0,"toosoon":0,"cond_shown":"Incongruent","ratio_trial":200,"L_num":1,"L_den":3,"R_num":2,"R_den":15,"correct_side":1,"subjID":"MelianFino1","gender":"1","school":"6","age":"12"},{"start_time":1551899655678,"click_time":1551899658047,"finger_time":1551899657266,"fix_duration":250,"trial":4,"RT":1588,"MT":781,"sideResp":2,"stimulus":[],"xmouse":[799,799,799,799,799,799,799,799,799,799,799,799,799,799,799,799,799,799,799,799,799,799,799,798,798,797,797,797,797,797,797,797,797,797,797,797,797,797,797,797,797,797,797,797,797,797,797,797,797,797,797,797,797,797,797,797,797,797,797,797,797,797,797,797,797,797,797,797,797,797,797,797,797,797,797,797,797,801,815,852,867,884,904,933,1030,1079,1105,1121,1130,1141,1150,1160,1160,1160,1151,1146,1144,1149,1160,1192,1206,1219,1239,1274,1310,1314,1315,1314,1311,1298,1285,1274,1268,1265,1250,1241,1216,1197,1139],"ymouse":[516,516,516,516,516,516,516,516,516,516,516,516,516,516,516,516,516,516,516,516,516,516,516,516,516,517,517,517,517,517,517,517,517,517,517,517,517,517,517,517,517,517,517,517,517,517,517,517,517,517,517,517,517,517,517,517,517,517,517,517,517,517,517,517,517,517,517,517,517,517,517,517,517,517,517,517,517,530,547,570,574,574,571,559,533,527,523,521,517,505,480,434,401,374,324,302,279,268,259,233,217,203,174,145,122,115,111,103,99,87,81,78,74,74,72,72,70,68,76],"timestamp_mouse":[13,37,48,69,89,109,129,147,169,188,209,229,248,268,288,308,329,349,368,389,408,427,449,468,488,508,528,548,568,588,608,628,648,668,689,709,729,749,768,788,807,829,849,868,889,908,929,949,968,989,1008,1028,1048,1069,1088,1108,1129,1149,1169,1189,1209,1228,1248,1268,1289,1309,1329,1349,1368,1388,1408,1429,1449,1468,1488,1509,1528,1549,1569,1588,1608,1628,1648,1669,1688,1709,1728,1748,1769,1789,1808,1829,1848,1869,1888,1908,1928,1949,1968,1987,2008,2028,2048,2069,2088,2109,2129,2149,2167,2188,2208,2229,2248,2269,2288,2308,2328,2349,2369],"xSR":741.5,"ySR":481,"xT1":424.9,"yT1":0,"xT2":1058.1,"yT2":0,"toosoon":0,"cond_shown":"Congruent","ratio_trial":300,"L_num":2,"L_den":20,"R_num":10,"R_den":25,"correct_side":2,"subjID":"MelianFino1","gender":"1","school":"6","age":"12"},{"start_time":1551899660695,"click_time":1551899662286,"finger_time":1551899661707,"fix_duration":1048.1007702415957,"trial":5,"RT":1012,"MT":579,"sideResp":2,"stimulus":[],"xmouse":[789,789,789,789,789,789,789,789,789,789,789,789,789,789,789,789,789,789,789,789,789,789,789,789,789,789,789,789,789,789,789,789,789,789,789,789,789,789,789,789,789,789,789,789,789,789,789,789,802,817,834,856,876,912,991,1036,1099,1153,1205,1217,1228,1249,1266,1275,1293,1295,1295,1289,1284,1279,1275,1271,1264,1235,1226,1219,1210,1198,1161,1141],"ymouse":[536,536,536,536,536,536,536,536,536,536,536,536,536,536,536,536,536,536,536,536,536,536,536,536,536,536,536,536,536,536,536,536,536,536,536,536,536,536,536,536,536,536,536,536,536,536,536,536,559,577,592,607,619,627,602,576,546,522,496,488,476,442,401,372,289,247,219,195,176,166,160,156,147,125,119,114,105,97,77,70],"timestamp_mouse":[10,43,51,71,91,112,131,152,171,192,211,231,252,272,291,312,331,352,372,391,411,432,452,471,492,510,531,552,571,592,612,632,652,672,691,712,732,752,771,792,812,832,850,871,891,912,932,951,971,991,1012,1031,1051,1071,1092,1110,1131,1151,1172,1192,1211,1231,1251,1271,1290,1310,1332,1351,1372,1391,1411,1431,1451,1472,1491,1510,1531,1551,1572,1591],"xSR":741.5,"ySR":481,"xT1":424.9,"yT1":0,"xT2":1058.1,"yT2":0,"toosoon":0,"cond_shown":"Congruent","ratio_trial":200,"L_num":1,"L_den":2,"R_num":21,"R_den":30,"correct_side":2,"subjID":"MelianFino1","gender":"1","school":"6","age":"12"},{"start_time":1551899664841,"click_time":1551899666446,"finger_time":1551899665586,"fix_duration":1273.0853479859534,"trial":6,"RT":745,"MT":860,"sideResp":1,"stimulus":[],"xmouse":[812,812,812,812,812,812,812,812,812,812,812,812,812,812,812,812,812,812,812,812,812,812,812,812,812,812,812,812,812,812,812,812,812,812,812,809,788,730,702,679,660,642,600,564,552,517,487,412,377,348,328,315,294,287,278,265,259,250,249,249,249,249,267,288,294,315,340,387,398,403,403,403,403,403,403,403,403,403,403,403,462],"ymouse":[549,549,549,549,549,549,549,549,549,549,549,549,549,549,549,549,549,549,549,549,549,549,549,549,549,549,549,549,549,549,549,549,549,549,549,549,551,552,552,551,548,546,536,531,529,523,514,482,461,444,424,402,366,347,327,297,284,263,259,258,255,251,229,213,208,182,137,31,9,0,0,0,0,0,0,0,0,0,0,0,4],"timestamp_mouse":[13,26,44,66,86,106,125,145,165,186,205,225,245,265,286,305,326,346,364,386,406,425,445,465,484,506,526,545,565,586,606,625,645,666,685,706,725,745,765,785,805,824,845,866,886,905,925,945,965,985,1005,1026,1045,1065,1085,1105,1125,1146,1165,1186,1205,1225,1245,1265,1285,1305,1326,1345,1365,1385,1405,1426,1445,1466,1485,1505,1526,1544,1565,1586,1605],"xSR":741.5,"ySR":481,"xT1":424.9,"yT1":0,"xT2":1058.1,"yT2":0,"toosoon":0,"cond_shown":"Congruent","ratio_trial":300,"L_num":12,"L_den":24,"R_num":2,"R_den":10,"correct_side":1,"subjID":"MelianFino1","gender":"1","school":"6","age":"12"},{"start_time":1551899669495,"click_time":1551899671488,"finger_time":1551899671107,"fix_duration":1166.558088289909,"trial":7,"RT":1612,"MT":381,"sideResp":2,"stimulus":[],"xmouse":[806,806,806,806,806,806,806,806,806,806,806,806,806,806,806,806,806,806,806,806,806,806,806,806,806,806,806,806,806,806,806,806,806,806,806,806,806,806,806,806,806,806,806,806,806,806,806,806,806,806,806,806,806,806,806,806,806,806,806,806,806,806,806,806,806,806,806,806,806,806,806,806,806,806,806,806,806,806,806,814,845,876,938,1007,1140,1184,1228,1272,1310,1341,1376,1377,1377,1371,1349,1329,1281,1225,1191,1145],"ymouse":[504,504,504,504,504,504,504,504,504,504,504,504,504,504,504,504,504,504,504,504,504,504,504,504,504,504,504,504,504,504,504,504,504,504,504,504,504,504,504,504,504,504,504,504,504,504,504,504,504,504,504,504,504,504,504,504,504,504,504,504,504,504,504,504,504,504,504,504,504,504,504,504,504,504,504,504,504,504,504,504,513,523,540,556,562,549,519,477,426,366,222,190,163,144,111,92,65,42,31,23],"timestamp_mouse":[11,41,52,72,90,112,131,152,171,192,212,230,252,272,292,311,332,351,372,391,411,431,450,472,492,512,532,552,572,591,612,631,652,671,691,711,731,751,772,791,812,832,851,872,892,915,932,952,972,992,1011,1031,1051,1071,1091,1112,1130,1151,1171,1191,1211,1231,1250,1271,1292,1311,1332,1351,1372,1391,1411,1431,1452,1471,1492,1512,1532,1552,1572,1591,1612,1631,1651,1671,1693,1711,1731,1751,1772,1792,1812,1831,1852,1871,1893,1911,1932,1951,1971,1993],"xSR":741.5,"ySR":481,"xT1":424.9,"yT1":0,"xT2":1058.1,"yT2":0,"toosoon":0,"cond_shown":"Congruent","ratio_trial":300,"L_num":4,"L_den":20,"R_num":13,"R_den":26,"correct_side":2,"subjID":"MelianFino1","gender":"1","school":"6","age":"12"},{"start_time":1551899674349,"click_time":1551899676267,"finger_time":1551899675406,"fix_duration":1460.2571554000835,"trial":8,"RT":1057,"MT":861,"sideResp":1,"stimulus":[],"xmouse":[829,829,829,829,829,829,829,828,828,828,828,828,822,820,819,818,816,816,816,816,816,816,815,813,812,810,809,807,807,806,805,803,802,801,801,801,801,801,801,801,801,801,801,801,801,801,801,801,801,801,796,761,710,672,661,627,595,518,486,440,396,359,316,302,285,279,277,276,276,276,279,281,286,290,297,299,302,312,319,326,332,339,360,375,381,398,406,409,409,410,410,411,411,411,413,430],"ymouse":[568,568,568,568,568,568,568,569,569,569,569,569,564,562,561,560,559,559,559,559,559,558,557,556,554,552,550,549,548,547,546,543,542,541,541,541,541,541,541,541,541,541,541,541,541,541,541,541,541,541,541,541,550,562,563,566,566,566,564,559,552,544,520,502,471,450,435,403,386,371,356,342,317,303,278,258,236,191,171,154,140,128,108,99,98,92,91,89,89,89,89,89,89,89,88,80],"timestamp_mouse":[17,38,57,78,98,117,138,158,177,198,218,238,257,278,297,318,337,358,378,397,416,437,457,477,497,518,537,557,578,596,616,638,657,677,697,718,738,757,777,798,818,837,857,878,897,918,937,957,977,998,1017,1038,1057,1077,1098,1117,1137,1157,1176,1197,1218,1237,1257,1278,1297,1317,1338,1357,1377,1398,1418,1438,1457,1478,1497,1517,1537,1557,1577,1598,1618,1637,1657,1677,1697,1717,1737,1757,1778,1798,1817,1837,1858,1878,1897,1918],"xSR":741.5,"ySR":481,"xT1":424.9,"yT1":0,"xT2":1058.1,"yT2":0,"toosoon":0,"cond_shown":"Congruent","ratio_trial":300,"L_num":20,"L_den":25,"R_num":13,"R_den":26,"correct_side":1,"subjID":"MelianFino1","gender":"1","school":"6","age":"12"},{"start_time":1551899678507,"click_time":1551899680287,"finger_time":1551899679907,"fix_duration":1019.8791438133902,"trial":9,"RT":1400,"MT":380,"sideResp":2,"stimulus":[],"xmouse":[781,781,781,781,781,781,781,781,781,781,781,781,781,781,781,781,781,781,781,781,781,781,781,781,781,781,781,781,781,781,781,781,781,781,781,781,781,781,781,781,781,781,781,781,781,781,781,781,781,781,781,781,781,781,781,781,781,781,781,781,781,781,781,781,781,781,781,781,797,919,1029,1100,1123,1127,1127,1131,1141,1156,1170,1189,1196,1197,1197,1194,1175,1144,1116,1093,1071],"ymouse":[537,537,537,537,537,537,537,537,537,537,537,537,537,537,537,537,537,537,537,537,537,537,537,537,537,537,537,537,537,537,537,537,537,537,537,537,537,537,537,537,537,537,537,537,537,537,537,537,537,537,537,537,537,537,537,537,537,537,537,537,537,537,537,537,537,537,537,537,541,576,600,622,629,630,630,628,610,588,565,525,504,474,439,399,336,237,172,113,67],"timestamp_mouse":[19,43,60,80,99,118,140,159,179,199,219,239,260,280,299,319,339,360,379,399,420,440,459,480,499,519,539,560,579,600,619,640,659,679,700,719,739,760,779,800,820,839,859,879,899,920,938,959,980,999,1019,1039,1059,1079,1099,1119,1140,1159,1180,1199,1220,1240,1260,1280,1300,1319,1339,1360,1379,1400,1419,1439,1459,1479,1499,1519,1539,1560,1580,1600,1619,1639,1660,1680,1699,1720,1739,1759,1779],"xSR":741.5,"ySR":481,"xT1":424.9,"yT1":0,"xT2":1058.1,"yT2":0,"toosoon":0,"cond_shown":"Incongruent","ratio_trial":200,"L_num":4,"L_den":30,"R_num":1,"R_den":3,"correct_side":2,"subjID":"MelianFino1","gender":"1","school":"6","age":"12"},{"start_time":1551899682018,"click_time":1551899685647,"finger_time":1551899684926,"fix_duration":250,"trial":10,"RT":2908,"MT":721,"sideResp":1,"stimulus":[],"xmouse":[835,835,835,835,835,835,835,835,835,835,835,835,835,835,835,835,835,835,835,835,833,830,828,827,827,826,826,825,824,822,820,819,819,817,816,814,812,810,809,808,805,804,802,801,799,798,797,797,796,796,796,796,796,796,796,796,796,796,796,796,796,796,796,796,796,796,796,796,796,796,796,796,796,796,796,796,796,796,796,796,796,796,796,796,796,796,796,796,796,796,796,796,796,796,796,796,796,796,796,796,796,796,796,796,796,796,796,796,796,796,796,796,796,796,796,796,796,796,796,796,796,796,796,796,796,796,796,796,796,796,796,796,796,796,796,796,796,796,796,796,796,796,796,785,764,694,662,607,578,546,483,465,450,434,422,412,400,394,391,389,386,383,382,381,381,381,381,381,384,392,408,416,424,440,451,455,456,452,448,443,438,436],"ymouse":[572,572,572,572,572,572,572,572,572,572,572,572,572,572,572,572,572,572,572,572,572,573,573,574,574,574,575,575,575,576,576,576,576,576,575,572,570,566,564,562,556,554,551,547,544,540,537,535,534,534,534,533,532,532,532,532,532,532,532,532,532,532,532,532,532,532,532,532,532,532,532,532,532,532,532,532,532,532,532,532,532,532,532,532,532,532,532,532,532,532,532,532,532,532,532,532,532,532,532,532,532,532,532,532,532,532,532,532,532,532,532,532,532,532,532,532,532,532,532,532,532,532,532,532,532,532,532,532,532,532,532,532,532,532,532,532,532,532,532,532,532,532,532,531,531,538,539,539,537,527,500,487,471,449,425,402,355,327,315,308,294,285,276,268,262,252,247,241,231,218,198,190,184,177,173,168,151,141,131,119,102,99],"timestamp_mouse":[13,43,48,68,89,108,129,149,169,188,208,228,248,269,289,308,328,349,369,388,409,428,449,468,489,508,529,548,568,589,608,629,648,668,689,708,729,748,769,788,808,828,849,868,889,908,928,949,968,988,1008,1028,1048,1068,1089,1108,1129,1149,1168,1189,1208,1229,1249,1268,1289,1308,1329,1348,1368,1388,1408,1428,1449,1469,1488,1508,1528,1549,1568,1589,1609,1629,1647,1667,1688,1709,1728,1749,1768,1788,1808,1829,1848,1869,1888,1909,1928,1948,1969,1987,2009,2028,2048,2069,2089,2109,2129,2149,2169,2189,2208,2229,2249,2269,2288,2308,2329,2349,2369,2388,2408,2428,2449,2469,2489,2508,2529,2549,2567,2589,2608,2628,2649,2668,2689,2709,2729,2749,2769,2789,2808,2829,2849,2868,2889,2908,2929,2948,2968,2988,3009,3028,3048,3068,3089,3108,3129,3149,3168,3188,3208,3228,3248,3268,3288,3309,3328,3348,3369,3388,3408,3428,3448,3468,3488,3509,3529,3548,3568,3588,3608,3629],"xSR":741.5,"ySR":481,"xT1":424.9,"yT1":0,"xT2":1058.1,"yT2":0,"toosoon":0,"cond_shown":"Congruent","ratio_trial":100,"L_num":9,"L_den":15,"R_num":8,"R_den":16,"correct_side":1,"subjID":"MelianFino1","gender":"1","school":"6","age":"12"},{"start_time":1551899687670,"click_time":1551899689310,"finger_time":1551899688950,"fix_duration":777.2972047340589,"trial":11,"RT":1280,"MT":360,"sideResp":2,"stimulus":[],"xmouse":[832,832,832,832,832,832,832,832,832,832,832,832,832,832,832,832,832,832,832,832,832,832,832,832,832,832,832,832,832,832,832,832,832,832,832,832,832,832,832,832,832,832,832,832,832,832,832,832,832,832,832,832,832,832,832,832,832,832,832,832,832,832,832,832,880,919,957,981,991,994,1014,1034,1053,1070,1102,1111,1120,1126,1138,1142,1142,1142,1132],"ymouse":[539,539,539,539,539,539,539,539,539,539,539,539,539,539,539,539,539,539,539,539,539,539,539,539,539,539,539,539,539,539,539,539,539,539,539,539,539,539,539,539,539,539,539,539,539,539,539,539,539,539,539,539,539,539,539,539,539,539,539,539,539,539,539,540,563,569,574,575,574,571,550,528,506,487,441,414,361,317,229,196,157,121,89],"timestamp_mouse":[9,20,44,60,81,101,120,141,160,179,201,221,241,261,281,301,321,341,361,381,400,420,440,461,481,500,519,541,560,580,600,621,640,660,679,699,721,741,760,780,800,821,840,860,879,901,921,941,960,980,1000,1019,1039,1060,1081,1101,1120,1140,1160,1180,1199,1221,1241,1260,1280,1300,1320,1340,1363,1381,1400,1420,1441,1461,1480,1499,1521,1540,1561,1580,1600,1621,1640],"xSR":741.5,"ySR":481,"xT1":424.9,"yT1":0,"xT2":1058.1,"yT2":0,"toosoon":0,"cond_shown":"Incongruent","ratio_trial":100,"L_num":17,"L_den":30,"R_num":10,"R_den":15,"correct_side":2,"subjID":"MelianFino1","gender":"1","school":"6","age":"12"},{"start_time":1551899690820,"click_time":1551899693290,"finger_time":1551899692290,"fix_duration":448.927923642667,"trial":12,"RT":1470,"MT":1000,"sideResp":1,"stimulus":[],"xmouse":[793,793,793,793,793,793,793,793,793,793,793,793,793,793,793,793,793,793,793,793,793,793,793,793,793,793,793,793,793,793,793,793,793,793,793,793,793,793,793,793,793,793,793,793,793,793,793,793,793,793,793,793,793,793,793,793,793,793,793,793,793,793,793,793,793,793,793,793,793,793,793,793,761,686,626,546,507,500,491,482,472,456,452,447,445,443,441,441,441,440,440,438,437,437,437,437,437,437,437,437,437,437,437,437,437,437,437,437,437,437,437,437,437,482,506,524,537,537,537,537,537,516,503,485],"ymouse":[543,543,543,543,543,543,543,543,543,543,543,543,543,543,543,543,543,543,543,543,543,543,543,543,543,543,543,543,543,543,543,543,543,543,543,543,543,543,543,543,543,543,543,543,543,543,543,543,543,543,543,543,543,543,543,543,543,543,543,543,543,543,543,543,543,543,543,543,543,543,543,543,541,534,526,515,507,500,492,480,467,442,428,393,377,364,352,352,349,347,345,337,331,329,318,310,304,304,304,304,304,304,304,304,304,304,304,304,304,304,304,304,301,280,268,256,245,245,241,238,232,149,121,96],"timestamp_mouse":[13,43,50,70,89,110,130,150,169,190,211,230,250,271,291,311,330,350,371,389,409,429,450,470,490,511,531,551,570,591,610,631,650,671,690,711,730,751,771,791,810,830,850,871,890,911,930,950,971,990,1009,1029,1051,1070,1091,1111,1130,1151,1171,1191,1209,1230,1250,1270,1290,1309,1330,1350,1370,1391,1409,1430,1450,1470,1490,1510,1530,1550,1569,1590,1610,1630,1650,1670,1691,1710,1730,1750,1770,1790,1811,1829,1849,1870,1890,1911,1930,1950,1970,1991,2010,2031,2051,2070,2091,2110,2130,2151,2171,2190,2209,2229,2251,2270,2290,2309,2330,2350,2371,2390,2409,2430,2451,2470],"xSR":741.5,"ySR":481,"xT1":424.9,"yT1":0,"xT2":1058.1,"yT2":0,"toosoon":0,"cond_shown":"Congruent","ratio_trial":300,"L_num":24,"L_den":30,"R_num":2,"R_den":4,"correct_side":1,"subjID":"MelianFino1","gender":"1","school":"6","age":"12"},{"start_time":1551899695322,"click_time":1551899697870,"finger_time":1551899697330,"fix_duration":250,"trial":13,"RT":2008,"MT":540,"sideResp":2,"stimulus":[],"xmouse":[800,800,800,800,800,800,800,800,800,800,800,800,800,800,800,800,800,800,800,800,800,800,800,800,800,800,800,800,800,800,800,800,800,800,800,800,800,800,800,800,800,800,800,800,800,800,800,800,800,800,800,800,800,800,800,800,800,800,800,800,800,800,800,800,800,800,800,800,800,800,800,800,800,800,800,800,800,800,800,800,800,800,800,800,800,800,800,800,800,800,800,800,800,800,800,800,800,800,800,829,953,1368,1514,1514,1514,1514,1514,1550,1520,1491,1465,1442,1420,1415,1411,1403,1377,1340,1330,1316,1296,1273,1232,1210,1193,1182,1176,1141],"ymouse":[504,504,504,504,504,504,504,504,504,504,504,504,504,504,504,504,504,504,504,504,504,504,504,504,504,504,504,504,504,504,504,504,504,504,504,504,504,504,504,504,504,504,504,504,504,504,504,504,504,504,504,504,504,504,504,504,504,504,504,504,504,504,504,504,504,504,504,504,504,504,504,504,504,504,504,504,504,504,504,504,504,504,504,504,504,504,504,504,504,504,504,504,504,504,504,504,504,504,504,512,514,500,478,478,478,478,478,347,297,239,194,163,135,130,129,128,128,138,139,139,134,126,114,109,105,105,105,94],"timestamp_mouse":[12,45,48,69,87,108,128,148,169,189,207,229,247,269,288,309,327,348,367,389,409,429,448,469,489,509,528,548,569,589,609,628,648,669,689,709,729,748,769,789,808,829,848,867,889,909,928,949,969,989,1008,1028,1048,1068,1089,1109,1128,1148,1168,1189,1208,1229,1248,1268,1289,1309,1328,1348,1368,1387,1409,1427,1448,1469,1489,1509,1528,1549,1568,1589,1609,1629,1648,1669,1688,1709,1728,1748,1768,1789,1807,1827,1848,1867,1889,1909,1927,1949,1968,1987,2008,2030,2048,2069,2088,2108,2127,2148,2173,2188,2210,2227,2247,2269,2288,2308,2327,2347,2368,2388,2408,2428,2447,2468,2487,2509,2527,2547],"xSR":741.5,"ySR":481,"xT1":424.9,"yT1":0,"xT2":1058.1,"yT2":0,"toosoon":0,"cond_shown":"Incongruent","ratio_trial":300,"L_num":13,"L_den":26,"R_num":12,"R_den":15,"correct_side":2,"subjID":"MelianFino1","gender":"1","school":"6","age":"12"},{"start_time":1551899699652,"click_time":1551899701751,"finger_time":1551899700569,"fix_duration":520.7283853840199,"trial":14,"RT":917,"MT":1182,"sideResp":1,"stimulus":[],"xmouse":[744,744,744,744,744,744,744,744,744,744,744,744,744,744,744,744,744,744,744,744,744,744,744,744,744,744,744,744,744,744,744,744,744,744,744,744,744,744,744,744,744,744,744,744,744,709,635,572,510,416,300,256,225,193,162,116,104,97,91,89,89,91,98,106,120,170,200,259,289,307,325,327,328,329,329,329,329,329,329,329,329,329,329,333,345,383,402,415,416,416,416,416,416,416,416,416,416,416,416,416,416,416,416,420,431],"ymouse":[552,552,552,552,552,552,552,552,552,552,552,552,552,552,552,552,552,552,552,552,552,552,552,552,552,552,552,552,552,552,552,552,552,552,552,552,552,552,552,552,552,552,552,552,551,531,501,485,476,463,444,427,414,394,369,307,280,255,233,202,167,155,142,132,122,106,98,82,74,69,64,64,64,64,64,64,64,64,64,64,64,64,64,62,59,48,43,39,39,39,39,39,39,39,39,39,39,39,39,39,39,39,39,39,39],"timestamp_mouse":[18,38,58,78,97,117,138,158,179,199,217,238,259,278,299,317,338,359,379,397,417,438,458,478,498,518,537,558,579,598,617,639,658,678,698,718,739,759,778,798,819,838,859,879,899,917,939,959,978,998,1018,1038,1058,1078,1099,1118,1138,1157,1177,1197,1218,1237,1259,1277,1298,1317,1338,1357,1377,1397,1417,1437,1459,1478,1499,1517,1538,1558,1578,1599,1618,1638,1659,1677,1697,1718,1738,1758,1779,1798,1818,1837,1858,1878,1899,1918,1938,1958,1978,1997,2017,2038,2058,2077,2099],"xSR":741.5,"ySR":481,"xT1":424.9,"yT1":0,"xT2":1058.1,"yT2":0,"toosoon":0,"cond_shown":"Incongruent","ratio_trial":200,"L_num":7,"L_den":10,"R_num":12,"R_den":24,"correct_side":1,"subjID":"MelianFino1","gender":"1","school":"6","age":"12"},{"start_time":1551899703850,"click_time":1551899708130,"finger_time":1551899707589,"fix_duration":1079.5417034993861,"trial":15,"RT":3739,"MT":541,"sideResp":2,"stimulus":[],"xmouse":[781,781,781,781,781,781,781,781,781,781,781,781,781,781,781,781,781,781,781,781,781,781,781,781,781,781,781,781,781,781,781,781,781,781,781,781,781,781,781,781,781,781,781,781,781,781,781,781,781,781,781,781,781,781,781,781,781,781,781,781,781,781,781,781,781,781,781,781,781,781,781,781,781,781,781,781,781,781,781,781,781,781,781,781,781,781,781,781,781,781,781,781,781,781,781,781,781,781,781,781,781,781,781,781,781,781,781,781,781,781,781,781,781,781,781,781,781,781,781,781,781,781,781,781,781,781,781,781,781,781,781,781,781,781,781,781,781,781,781,781,781,781,781,781,781,781,781,781,781,781,781,781,781,781,781,781,781,781,781,781,781,781,781,781,781,781,781,781,781,781,781,781,781,781,781,781,781,781,781,781,781,781,781,781,781,781,791,907,995,1086,1183,1235,1257,1271,1276,1272,1245,1231,1222,1212,1210,1209,1207,1204,1202,1199,1195,1192,1188,1184,1180,1175,1169,1166,1157],"ymouse":[531,531,531,531,531,531,531,531,531,531,531,531,531,531,531,531,531,531,531,531,531,531,531,531,531,531,531,531,531,531,531,531,531,531,531,531,531,531,531,531,531,531,531,531,531,531,531,531,531,531,531,531,531,531,531,531,531,531,531,531,531,531,531,531,531,531,531,531,531,531,531,531,531,531,531,531,531,531,531,531,531,531,531,531,531,531,531,531,531,531,531,531,531,531,531,531,531,531,531,531,531,531,531,531,531,531,531,531,531,531,531,531,531,531,531,531,531,531,531,531,531,531,531,531,531,531,531,531,531,531,531,531,531,531,531,531,531,531,531,531,531,531,531,531,531,531,531,531,531,531,531,531,531,531,531,531,531,531,531,531,531,531,531,531,531,531,531,531,531,531,531,531,531,531,531,531,531,531,531,531,531,531,531,531,531,531,529,484,454,415,375,349,318,292,263,231,173,148,134,124,122,122,120,116,111,99,92,84,80,77,74,72,69,69,67],"timestamp_mouse":[1,20,40,61,80,99,120,140,160,180,201,220,240,260,280,301,321,341,359,380,401,421,440,460,481,501,521,540,559,580,600,620,641,660,679,700,720,741,761,781,800,820,839,861,881,900,920,940,960,979,1001,1021,1040,1061,1080,1099,1120,1139,1160,1181,1199,1221,1241,1260,1280,1301,1320,1341,1360,1380,1400,1421,1440,1460,1481,1501,1520,1541,1560,1579,1600,1620,1639,1661,1681,1701,1719,1741,1761,1781,1800,1820,1841,1861,1879,1899,1920,1941,1961,1980,1999,2019,2041,2061,2080,2100,2120,2141,2161,2179,2199,2220,2239,2261,2280,2300,2320,2339,2360,2379,2401,2420,2440,2460,2480,2500,2520,2539,2559,2580,2600,2621,2641,2659,2679,2701,2719,2741,2761,2780,2801,2819,2839,2860,2879,2901,2921,2940,2960,2981,3001,3021,3040,3061,3079,3100,3121,3141,3160,3181,3200,3219,3240,3261,3280,3300,3321,3341,3360,3381,3400,3421,3439,3461,3480,3501,3521,3539,3561,3581,3601,3621,3640,3661,3681,3699,3720,3739,3760,3779,3801,3819,3839,3861,3880,3899,3921,3940,3960,3979,4001,4020,4039,4060,4080,4100,4119,4139,4159,4179,4199,4219,4240,4260,4279],"xSR":741.5,"ySR":481,"xT1":424.9,"yT1":0,"xT2":1058.1,"yT2":0,"toosoon":0,"cond_shown":"Incongruent","ratio_trial":100,"L_num":6,"L_den":12,"R_num":3,"R_den":5,"correct_side":2,"subjID":"MelianFino1","gender":"1","school":"6","age":"12"},{"start_time":1551899710309,"click_time":1551899712490,"finger_time":1551899711790,"fix_duration":836.6695815906347,"trial":16,"RT":1481,"MT":700,"sideResp":1,"stimulus":[],"xmouse":[802,802,802,802,802,802,802,802,802,802,802,802,802,802,802,802,802,802,802,802,802,802,802,802,802,802,802,802,802,802,802,802,802,802,802,802,802,802,802,802,802,802,802,802,802,802,802,802,802,802,802,802,802,802,802,802,802,802,802,802,802,802,802,802,802,802,802,802,802,802,802,802,802,801,729,696,665,641,619,565,532,468,430,385,322,303,294,289,285,280,279,279,283,296,314,352,377,408,429,444,444,445,445,445,445,445,445,445,445,445],"ymouse":[565,565,565,565,565,565,565,565,565,565,565,565,565,565,565,565,565,565,565,565,565,565,565,565,565,565,565,565,565,565,565,565,565,565,565,565,565,565,565,565,565,565,565,565,565,565,565,565,565,565,565,565,565,565,565,565,565,565,565,565,565,565,565,565,565,565,565,565,565,565,565,565,565,565,562,562,562,559,556,542,533,503,478,441,367,333,310,288,268,226,212,206,199,188,180,161,144,125,114,105,105,104,104,104,103,103,103,102,102,97],"timestamp_mouse":[9,21,41,62,80,102,121,140,161,182,201,222,241,260,281,302,322,340,360,382,402,422,441,461,480,500,522,542,560,581,602,621,641,662,682,702,722,741,760,782,802,820,840,860,882,902,920,941,961,981,1001,1022,1041,1061,1080,1102,1122,1141,1160,1180,1201,1222,1241,1262,1280,1300,1322,1342,1361,1380,1400,1420,1441,1460,1481,1500,1521,1541,1561,1580,1602,1621,1641,1660,1681,1701,1721,1741,1761,1781,1802,1821,1842,1861,1881,1900,1922,1941,1961,1981,2000,2022,2041,2061,2080,2101,2122,2142,2161,2181],"xSR":741.5,"ySR":481,"xT1":424.9,"yT1":0,"xT2":1058.1,"yT2":0,"toosoon":0,"cond_shown":"Incongruent","ratio_trial":300,"L_num":4,"L_den":5,"R_num":8,"R_den":16,"correct_side":1,"subjID":"MelianFino1","gender":"1","school":"6","age":"12"},{"start_time":1551899714268,"click_time":1551899715770,"finger_time":1551899715109,"fix_duration":737.9617619007767,"trial":17,"RT":841,"MT":661,"sideResp":2,"stimulus":[],"xmouse":[786,786,786,786,786,786,786,786,786,786,786,786,786,786,786,786,786,786,786,786,786,786,786,786,786,786,786,786,786,786,786,786,786,786,786,786,786,786,786,786,786,790,850,903,964,1007,1073,1098,1114,1123,1131,1140,1143,1131,1114,1103,1088,1081,1074,1065,1057,1051,1047,1047,1047,1047,1047,1047,1047,1047,1048,1048,1056,1058,1058,1059],"ymouse":[502,502,502,502,502,502,502,502,502,502,502,502,502,502,502,502,502,502,502,502,502,502,502,502,502,502,502,502,502,502,502,502,502,502,502,502,502,502,502,502,502,507,557,587,609,618,612,599,583,562,533,458,332,271,228,194,150,136,124,112,104,93,83,82,81,81,80,77,76,76,76,76,72,71,70,70],"timestamp_mouse":[10,21,42,63,83,103,122,142,162,182,203,221,242,261,281,302,323,342,363,381,402,422,442,461,481,502,523,543,562,583,601,623,643,662,683,703,721,742,763,782,801,822,841,862,881,901,923,942,962,982,1002,1023,1042,1062,1081,1103,1123,1142,1163,1183,1203,1222,1241,1261,1282,1301,1323,1341,1363,1383,1402,1423,1441,1462,1481,1501],"xSR":741.5,"ySR":481,"xT1":424.9,"yT1":0,"xT2":1058.1,"yT2":0,"toosoon":0,"cond_shown":"Incongruent","ratio_trial":300,"L_num":13,"L_den":26,"R_num":12,"R_den":15,"correct_side":2,"subjID":"MelianFino1","gender":"1","school":"6","age":"12"},{"start_time":1551899719332,"click_time":1551899721529,"finger_time":1551899721110,"fix_duration":1081.1758630574222,"trial":18,"RT":1778,"MT":419,"sideResp":2,"stimulus":[],"xmouse":[768,768,768,768,768,768,768,768,768,768,768,768,768,768,768,768,768,768,768,768,768,768,768,768,768,768,768,768,768,768,768,768,768,768,768,768,768,768,768,768,768,768,768,768,768,768,768,768,768,768,768,768,768,768,768,768,768,768,768,768,768,768,768,768,768,768,768,768,768,768,768,768,768,768,768,768,768,768,768,768,768,768,768,768,768,768,768,776,842,892,989,1041,1089,1146,1160,1171,1181,1188,1195,1195,1195,1195,1195,1185,1177,1169,1152,1129,1106,1088],"ymouse":[546,546,546,546,546,546,546,546,546,546,546,546,546,546,546,546,546,546,546,546,546,546,546,546,546,546,546,546,546,546,546,546,546,546,546,546,546,546,546,546,546,546,546,546,546,546,546,546,546,546,546,546,546,546,546,546,546,546,546,546,546,546,546,546,546,546,546,546,546,546,546,546,546,546,546,546,546,546,546,546,546,546,546,546,546,546,546,546,544,542,532,524,519,505,492,471,440,414,363,344,328,315,295,250,223,199,169,140,116,91],"timestamp_mouse":[18,41,57,79,98,119,138,159,177,199,218,239,258,278,299,319,338,357,379,399,418,439,459,479,498,517,538,559,578,598,618,637,659,678,699,718,737,758,779,797,818,839,858,879,899,918,939,958,977,999,1017,1039,1058,1079,1098,1119,1138,1157,1178,1199,1218,1239,1259,1278,1299,1319,1338,1358,1379,1399,1418,1437,1459,1478,1498,1517,1539,1559,1579,1599,1618,1639,1658,1678,1699,1718,1739,1758,1777,1797,1818,1839,1858,1878,1897,1917,1937,1959,1978,1998,2018,2038,2057,2079,2099,2118,2139,2159,2178,2197],"xSR":741.5,"ySR":481,"xT1":424.9,"yT1":0,"xT2":1058.1,"yT2":0,"toosoon":0,"cond_shown":"Incongruent","ratio_trial":300,"L_num":4,"L_den":20,"R_num":2,"R_den":4,"correct_side":2,"subjID":"MelianFino1","gender":"1","school":"6","age":"12"},{"start_time":1551899723558,"click_time":1551899729650,"finger_time":1551899728729,"fix_duration":845.2649592341453,"trial":19,"RT":5171,"MT":921,"sideResp":2,"stimulus":[],"xmouse":[812,812,812,812,812,812,812,812,812,812,812,812,812,812,812,812,812,812,812,812,812,812,812,812,812,812,812,812,812,812,812,812,812,812,812,812,812,812,812,812,812,812,812,812,812,812,812,812,812,812,812,812,812,812,812,812,812,812,812,812,812,812,812,812,812,812,812,812,812,812,812,812,812,812,812,812,812,812,812,812,812,812,812,812,812,812,812,812,812,812,812,812,812,812,812,812,812,812,812,812,812,812,812,812,812,812,812,812,812,812,812,812,812,812,812,812,812,812,812,812,812,812,812,812,812,812,812,812,812,812,812,812,812,812,812,812,812,812,812,812,812,812,812,812,812,812,812,812,812,812,812,812,812,812,812,812,812,812,812,812,812,812,812,812,812,812,812,812,812,812,812,812,812,812,812,812,812,812,812,812,812,812,812,812,812,812,812,812,812,812,812,812,812,812,812,812,812,812,812,812,812,812,812,812,812,812,812,812,812,812,812,812,812,812,812,812,812,812,812,812,812,812,812,812,812,812,812,812,812,812,812,812,812,812,812,812,812,812,812,812,812,812,812,812,812,812,812,812,812,812,812,812,812,812,812,812,812,812,806,822,861,869,873,875,875,876,878,880,880,880,880,880,880,880,880,880,882,888,888,888,888,888,888,888,898,907,915,922,927,947,966,981,996,1015,1017,1018,1020,1022,1032,1036,1036,1037,1039,1057,1066],"ymouse":[560,560,560,560,560,560,560,560,560,560,560,560,560,560,560,560,560,560,560,560,560,560,560,560,560,560,560,560,560,560,560,560,560,560,560,560,560,560,560,560,560,560,560,560,560,560,560,560,560,560,560,560,560,560,560,560,560,560,560,560,560,560,560,560,560,560,560,560,560,560,560,560,560,560,560,560,560,560,560,560,560,560,560,560,560,560,560,560,560,560,560,560,560,560,560,560,560,560,560,560,560,560,560,560,560,560,560,560,560,560,560,560,560,560,560,560,560,560,560,560,560,560,560,560,560,560,560,560,560,560,560,560,560,560,560,560,560,560,560,560,560,560,560,560,560,560,560,560,560,560,560,560,560,560,560,560,560,560,560,560,560,560,560,560,560,560,560,560,560,560,560,560,560,560,560,560,560,560,560,560,560,560,560,560,560,560,560,560,560,560,560,560,560,560,560,560,560,560,560,560,560,560,560,560,560,560,560,560,560,560,560,560,560,560,560,560,560,560,560,560,560,560,560,560,560,560,560,560,560,560,560,560,560,560,560,560,560,560,560,560,560,560,560,560,560,560,560,560,560,560,560,560,560,560,560,560,560,559,460,357,319,318,318,318,318,318,318,317,317,317,317,317,317,317,317,317,317,324,324,324,324,323,303,279,186,153,129,117,110,95,83,74,68,68,68,68,68,68,64,61,60,60,59,49,43],"timestamp_mouse":[12,41,53,72,92,112,132,152,172,193,213,232,251,272,293,313,332,352,371,393,412,432,452,473,493,512,533,551,572,593,612,632,653,672,693,713,732,752,773,792,813,832,852,873,892,913,931,953,972,992,1012,1032,1051,1072,1091,1113,1133,1151,1173,1192,1213,1232,1252,1272,1293,1313,1332,1352,1372,1393,1413,1432,1451,1472,1492,1513,1533,1551,1571,1592,1613,1632,1652,1673,1692,1711,1733,1753,1772,1793,1813,1832,1851,1872,1893,1912,1931,1952,1972,1992,2013,2032,2051,2071,2092,2111,2133,2153,2173,2193,2213,2232,2251,2271,2291,2313,2333,2353,2371,2392,2412,2433,2451,2472,2493,2512,2532,2553,2571,2593,2613,2633,2652,2672,2692,2713,2732,2752,2772,2793,2813,2833,2851,2871,2892,2912,2933,2953,2973,2992,3013,3032,3053,3072,3092,3113,3133,3153,3172,3191,3213,3233,3252,3272,3292,3313,3333,3352,3372,3393,3412,3433,3452,3473,3492,3512,3533,3552,3572,3591,3612,3632,3653,3672,3692,3712,3732,3753,3772,3793,3812,3833,3853,3872,3892,3911,3931,3952,3971,3992,4011,4032,4052,4073,4091,4112,4132,4152,4171,4192,4213,4233,4253,4271,4291,4313,4333,4352,4371,4393,4412,4431,4452,4473,4492,4511,4532,4553,4571,4593,4613,4631,4652,4673,4693,4713,4732,4753,4773,4792,4812,4831,4853,4873,4891,4913,4933,4953,4973,4993,5012,5033,5053,5072,5091,5112,5133,5151,5171,5191,5212,5232,5252,5272,5293,5312,5332,5353,5372,5392,5411,5433,5453,5473,5493,5513,5532,5553,5572,5593,5613,5632,5652,5672,5691,5711,5732,5753,5772,5793,5812,5832,5852,5872,5891,5913,5932,5952,5973,5991,6012,6033,6053,6072,6091],"xSR":741.5,"ySR":481,"xT1":424.9,"yT1":0,"xT2":1058.1,"yT2":0,"toosoon":0,"cond_shown":"Incongruent","ratio_trial":200,"L_num":3,"L_den":4,"R_num":11,"R_den":20,"correct_side":1,"subjID":"MelianFino1","gender":"1","school":"6","age":"12"},{"start_time":1551899731694,"click_time":1551899736090,"finger_time":1551899734790,"fix_duration":722.3953034931407,"trial":20,"RT":3096,"MT":1300,"sideResp":1,"stimulus":[],"xmouse":[788,788,788,788,789,791,808,810,810,810,810,810,813,819,829,834,836,836,836,836,836,836,836,836,836,836,836,836,836,836,836,836,836,836,836,836,836,836,836,836,836,836,836,836,836,836,836,836,836,836,836,836,836,836,836,836,836,836,836,836,836,836,836,836,836,836,836,836,836,836,836,836,836,836,836,836,836,836,836,836,836,836,836,836,836,836,836,836,836,836,836,836,836,836,836,836,836,836,836,836,836,836,836,836,836,836,836,836,836,836,836,836,836,836,836,836,836,836,836,836,836,836,836,836,836,836,836,836,836,836,836,836,836,836,836,836,836,836,836,836,836,836,836,836,836,836,836,836,836,836,836,835,788,767,734,728,728,717,691,675,582,519,438,408,384,343,305,262,249,248,247,246,253,267,280,289,295,300,301,302,302,302,294,289,287,287,289,304,308,310,310,312,313,317,335,357,371,376,376,376,376,377,386,392,394,395,395,395,395,396,396,396,396,396,398,402,405,407,418,430],"ymouse":[527,527,527,527,526,526,526,526,526,526,526,526,526,526,525,525,524,524,524,524,524,524,524,524,524,524,524,524,524,524,524,524,524,524,524,524,524,524,524,524,524,524,524,524,524,524,524,524,524,524,524,524,524,524,524,524,524,524,524,524,524,524,524,524,524,524,524,524,524,524,524,524,524,524,524,524,524,524,524,524,524,524,524,524,524,524,524,524,524,524,524,524,524,524,524,524,524,524,524,524,524,524,524,524,524,524,524,524,524,524,524,524,524,524,524,524,524,524,524,524,524,524,524,524,524,524,524,524,524,524,524,524,524,524,524,524,524,524,524,524,524,524,524,524,524,524,524,524,524,524,524,522,514,504,478,474,474,474,474,474,485,494,505,497,475,429,384,316,299,299,299,299,299,295,286,276,260,238,229,223,216,201,180,169,161,149,138,120,115,113,110,106,105,105,107,111,115,117,117,117,117,117,103,98,97,97,97,97,97,97,97,97,97,97,95,94,93,93,90,90],"timestamp_mouse":[16,38,55,76,97,116,136,157,176,197,217,236,256,276,297,316,336,355,377,396,415,435,457,477,495,517,536,556,577,596,617,636,657,675,696,716,736,756,777,797,817,835,857,877,896,916,935,955,975,996,1017,1037,1056,1076,1097,1116,1136,1156,1177,1197,1217,1237,1256,1277,1295,1317,1337,1357,1375,1397,1417,1436,1455,1476,1497,1516,1537,1555,1577,1597,1617,1637,1655,1675,1696,1717,1735,1755,1777,1797,1816,1836,1855,1877,1897,1917,1937,1955,1976,1996,2016,2036,2057,2076,2097,2116,2137,2157,2176,2196,2217,2237,2257,2276,2297,2315,2335,2355,2376,2397,2417,2436,2455,2476,2496,2517,2536,2557,2577,2596,2617,2637,2657,2677,2696,2717,2736,2757,2776,2797,2817,2835,2857,2876,2897,2917,2936,2957,2976,2995,3017,3036,3057,3075,3095,3117,3135,3155,3176,3197,3216,3236,3256,3275,3295,3317,3336,3356,3376,3395,3417,3436,3456,3475,3496,3516,3536,3555,3577,3596,3616,3635,3655,3676,3697,3716,3736,3756,3776,3796,3817,3836,3855,3875,3895,3916,3935,3957,3976,3997,4016,4035,4056,4075,4095,4115,4137,4156,4176,4195,4216,4237,4256,4276,4297,4317,4336,4355,4376,4396],"xSR":741.5,"ySR":481,"xT1":424.9,"yT1":0,"xT2":1058.1,"yT2":0,"toosoon":0,"cond_shown":"Incongruent","ratio_trial":100,"L_num":3,"L_den":9,"R_num":7,"R_den":30,"correct_side":1,"subjID":"MelianFino1","gender":"1","school":"6","age":"12"},{"start_time":1551899741146,"click_time":1551899743050,"finger_time":1551899742190,"fix_duration":1194.7650785600708,"trial":21,"RT":1044,"MT":860,"sideResp":1,"stimulus":[],"xmouse":[758,758,758,758,758,758,758,758,758,758,758,758,758,758,758,758,758,758,758,758,758,758,758,758,758,758,758,758,758,758,758,758,758,758,758,758,758,758,758,758,758,758,758,758,758,758,758,758,758,758,758,758,736,687,676,650,618,599,574,546,517,459,437,426,419,411,391,376,360,341,330,320,318,311,301,301,301,301,301,301,301,301,301,301,301,301,301,301,301,301,301,301,301,301,301,478],"ymouse":[512,512,512,512,512,512,512,512,512,512,512,512,512,512,512,512,512,512,512,512,512,512,512,512,512,512,512,512,512,512,512,512,512,512,512,512,512,512,512,512,512,512,512,512,512,512,512,512,512,512,512,512,512,515,518,525,527,527,527,527,527,527,527,523,520,515,485,464,436,402,361,264,201,80,17,17,17,17,17,17,17,17,17,17,17,17,17,17,17,17,17,17,17,17,17,7],"timestamp_mouse":[15,36,45,64,83,105,125,144,164,184,203,225,244,264,284,304,323,344,364,385,405,424,444,465,484,504,525,544,565,584,604,623,645,665,683,705,725,744,764,784,804,825,843,863,883,904,925,945,963,984,1003,1024,1044,1063,1084,1104,1124,1144,1165,1184,1203,1224,1243,1264,1284,1304,1324,1344,1364,1384,1404,1423,1445,1464,1484,1503,1523,1543,1564,1584,1603,1624,1643,1663,1684,1703,1724,1743,1764,1783,1804,1823,1845,1863,1883,1903],"xSR":741.5,"ySR":481,"xT1":424.9,"yT1":0,"xT2":1058.1,"yT2":0,"toosoon":0,"cond_shown":"Incongruent","ratio_trial":300,"L_num":4,"L_den":5,"R_num":8,"R_den":16,"correct_side":1,"subjID":"MelianFino1","gender":"1","school":"6","age":"12"},{"start_time":1551899744605,"click_time":1551899747431,"finger_time":1551899746649,"fix_duration":273.7118513951434,"trial":22,"RT":2044,"MT":782,"sideResp":1,"stimulus":[],"xmouse":[811,811,811,811,811,811,811,811,811,811,811,811,811,811,811,811,811,811,811,811,811,811,811,811,811,811,811,811,811,811,811,811,811,811,811,811,811,811,811,811,811,811,811,811,811,811,811,811,811,811,811,811,811,811,811,811,811,811,811,811,811,811,811,811,811,811,811,811,811,811,811,811,811,811,811,811,811,811,811,811,811,811,811,811,811,811,811,811,811,811,811,811,811,811,811,811,811,811,811,810,785,753,728,683,666,647,622,587,496,429,404,388,376,360,356,349,336,317,281,273,273,275,278,278,278,278,278,278,278,360,385,394,403,409,410,411,412,413,415,418,424,429],"ymouse":[539,539,539,539,539,539,539,539,539,539,539,539,539,539,539,539,539,539,539,539,539,539,539,539,539,539,539,539,539,539,539,539,539,539,539,539,539,539,539,539,539,539,539,539,539,539,539,539,539,539,539,539,539,539,539,539,539,539,539,539,539,539,539,539,539,539,539,539,539,539,539,539,539,539,539,539,539,539,539,539,539,539,539,539,539,539,539,539,539,539,539,539,539,539,539,539,539,539,539,538,538,541,545,560,563,565,565,558,528,496,480,464,446,395,360,318,272,221,121,67,39,16,8,8,8,8,8,8,8,9,25,34,42,49,51,52,53,54,55,55,55,56],"timestamp_mouse":[13,35,45,66,86,105,124,146,165,186,205,225,245,266,285,304,326,345,365,384,405,426,444,465,486,506,525,546,565,586,606,625,646,665,684,706,726,746,765,785,806,826,846,865,885,906,926,946,966,985,1005,1026,1046,1066,1086,1105,1125,1144,1165,1185,1206,1225,1245,1266,1284,1304,1326,1345,1365,1386,1404,1425,1446,1465,1485,1506,1525,1546,1565,1585,1606,1625,1645,1664,1684,1706,1726,1745,1765,1786,1806,1825,1846,1865,1886,1904,1925,1946,1965,1985,2005,2025,2044,2066,2085,2104,2126,2145,2166,2185,2205,2225,2244,2265,2284,2305,2326,2345,2365,2385,2405,2426,2445,2466,2485,2505,2526,2546,2565,2585,2605,2626,2645,2665,2685,2705,2724,2745,2765,2784,2805,2826],"xSR":741.5,"ySR":481,"xT1":424.9,"yT1":0,"xT2":1058.1,"yT2":0,"toosoon":0,"cond_shown":"Incongruent","ratio_trial":300,"L_num":1,"L_den":2,"R_num":3,"R_den":15,"correct_side":1,"subjID":"MelianFino1","gender":"1","school":"6","age":"12"},{"start_time":1551899749318,"click_time":1551899751532,"finger_time":1551899750592,"fix_duration":944.0626978770807,"trial":23,"RT":1274,"MT":940,"sideResp":1,"stimulus":[],"xmouse":[817,817,817,817,817,817,817,817,817,817,817,817,817,817,817,817,817,817,817,817,817,817,817,817,817,817,817,817,817,817,817,817,817,817,817,817,817,817,817,817,817,817,817,817,817,817,817,817,817,817,817,817,817,817,817,813,810,804,796,795,793,786,761,699,648,586,523,477,413,394,379,360,321,262,233,207,176,151,106,94,87,87,112,112,112,112,112,112,112,112,112,112,112,112,112,112,112,112,112,112,112,112,112,112,112,112,112,112,419,423,427],"ymouse":[516,516,516,516,516,516,516,516,516,516,516,516,516,516,516,516,516,516,516,516,516,516,516,516,516,516,516,516,516,516,516,516,516,516,516,516,516,516,516,516,516,516,516,516,516,516,516,516,516,516,516,516,516,516,516,516,516,518,524,526,528,535,548,576,590,607,625,631,634,627,614,591,536,458,416,378,329,284,198,164,132,106,15,15,15,15,15,15,15,15,15,15,15,15,15,15,15,15,15,15,15,15,15,15,15,15,15,15,1,4,6],"timestamp_mouse":[14,41,55,75,94,115,134,155,174,195,215,236,255,275,294,316,336,355,375,395,415,435,455,476,495,515,534,555,575,596,616,635,655,674,694,715,736,755,775,795,815,835,854,875,894,916,934,956,974,994,1014,1034,1055,1076,1095,1116,1135,1155,1174,1195,1215,1234,1255,1274,1294,1316,1335,1354,1374,1395,1414,1435,1454,1474,1494,1515,1534,1554,1574,1595,1614,1636,1656,1676,1695,1715,1735,1756,1776,1796,1815,1835,1854,1875,1896,1914,1934,1954,1974,1995,2016,2034,2054,2074,2094,2115,2134,2156,2174,2194,2214],"xSR":741.5,"ySR":481,"xT1":424.9,"yT1":0,"xT2":1058.1,"yT2":0,"toosoon":0,"cond_shown":"Congruent","ratio_trial":200,"L_num":8,"L_den":15,"R_num":7,"R_den":21,"correct_side":1,"subjID":"MelianFino1","gender":"1","school":"6","age":"12"},{"start_time":1551899753573,"click_time":1551899755393,"finger_time":1551899754552,"fix_duration":597.098514190246,"trial":24,"RT":979,"MT":841,"sideResp":1,"stimulus":[],"xmouse":[772,772,772,772,772,772,772,772,772,772,772,772,772,772,772,772,772,772,772,772,772,772,772,772,772,772,772,772,772,772,772,772,772,772,772,772,772,772,772,772,772,772,772,772,772,772,772,765,750,738,714,620,571,541,525,517,511,482,477,456,446,434,427,424,423,421,408,398,393,390,390,390,390,390,390,390,390,390,390,390,390,390,390,390,390,390,390,390,390,390,390,458],"ymouse":[535,535,535,535,535,535,535,535,535,535,535,535,535,535,535,535,535,535,535,535,535,535,535,535,535,535,535,535,535,535,535,535,535,535,535,535,535,535,535,535,535,535,535,535,535,535,535,534,534,535,538,543,543,543,539,534,525,483,476,450,436,410,387,360,327,283,167,92,51,23,10,10,10,10,10,10,10,10,10,10,10,10,10,10,10,10,10,10,10,10,10,2],"timestamp_mouse":[9,20,40,61,79,100,120,139,159,181,200,220,239,260,279,299,319,339,359,379,400,420,439,460,481,500,521,539,559,579,600,619,640,660,681,699,719,740,759,780,800,821,840,859,881,901,919,940,959,979,1000,1020,1039,1060,1079,1100,1120,1139,1159,1179,1199,1220,1239,1259,1279,1300,1320,1339,1359,1379,1399,1419,1440,1459,1480,1499,1520,1540,1559,1579,1599,1620,1640,1660,1680,1700,1719,1741,1760,1780,1800,1819],"xSR":741.5,"ySR":481,"xT1":424.9,"yT1":0,"xT2":1058.1,"yT2":0,"toosoon":0,"cond_shown":"Congruent","ratio_trial":200,"L_num":14,"L_den":28,"R_num":6,"R_den":20,"correct_side":1,"subjID":"MelianFino1","gender":"1","school":"6","age":"12"},{"start_time":1551899757758,"click_time":1551899759294,"finger_time":1551899759112,"fix_duration":943.3481795903866,"trial":25,"RT":1354,"MT":182,"sideResp":2,"stimulus":[],"xmouse":[794,794,794,794,794,794,794,794,794,794,794,794,794,794,794,794,794,794,794,794,794,794,794,794,794,794,794,794,794,794,794,794,794,794,794,794,794,794,794,794,794,794,794,794,794,794,794,794,794,794,794,794,794,794,794,794,794,794,794,794,794,794,794,794,794,794,807,940,1009,1059,1090,1101,1101,1098,1097,1093,1059],"ymouse":[548,548,548,548,548,548,548,548,548,548,548,548,548,548,548,548,548,548,548,548,548,548,548,548,548,548,548,548,548,548,548,548,548,548,548,548,548,548,548,548,548,548,548,548,548,548,548,548,548,548,548,548,548,548,548,548,548,548,548,548,548,548,548,548,548,548,547,509,484,458,435,388,333,272,204,132,14],"timestamp_mouse":[14,38,54,74,96,114,135,155,176,196,215,236,254,276,296,315,335,356,376,395,414,435,456,475,495,515,534,556,574,594,616,634,655,674,695,716,735,754,774,795,814,835,855,876,896,915,935,954,974,995,1015,1035,1055,1074,1095,1115,1136,1154,1175,1195,1214,1236,1254,1274,1295,1315,1335,1354,1374,1394,1414,1436,1454,1474,1494,1515,1535],"xSR":741.5,"ySR":481,"xT1":424.9,"yT1":0,"xT2":1058.1,"yT2":0,"toosoon":0,"cond_shown":"Incongruent","ratio_trial":200,"L_num":7,"L_den":15,"R_num":6,"R_den":9,"correct_side":2,"subjID":"MelianFino1","gender":"1","school":"6","age":"12"},{"start_time":1551899760685,"click_time":1551899763273,"finger_time":1551899761953,"fix_duration":250,"trial":26,"RT":1268,"MT":1320,"sideResp":1,"stimulus":[],"xmouse":[778,778,778,778,778,778,778,778,778,778,778,778,778,778,778,778,778,778,778,778,778,778,778,778,778,778,778,778,778,778,778,778,778,778,778,778,778,778,778,778,778,778,778,778,778,778,778,778,778,778,778,778,778,778,778,778,778,778,778,779,793,821,829,861,897,922,945,952,960,965,969,987,995,998,1000,1001,1002,1002,1003,1003,1003,1003,1003,1003,1003,1003,1003,1003,1003,1003,1003,1003,1003,1003,1003,1003,1003,1003,1003,1003,1003,1003,1003,1003,1003,1003,1003,1003,1003,1003,1003,896,768,668,613,590,579,570,555,540,524,474,463,458,455,453,453,453,451,450],"ymouse":[525,525,525,525,525,525,525,525,525,525,525,525,525,525,525,525,525,525,525,525,525,525,525,525,525,525,525,525,525,525,525,525,525,525,525,525,525,525,525,525,525,525,525,525,525,525,525,525,525,525,525,525,525,525,525,525,525,525,525,525,528,533,535,540,540,536,524,517,495,469,441,390,375,363,354,348,342,340,338,338,338,338,338,338,338,338,338,338,338,338,338,338,338,338,338,338,338,338,338,338,338,338,338,338,338,338,338,338,338,338,338,352,377,406,431,441,444,442,420,394,356,245,209,185,163,147,126,113,103,99],"timestamp_mouse":[14,38,48,69,87,108,127,147,167,187,207,228,249,269,287,307,328,347,369,387,407,427,449,467,488,507,529,547,567,587,609,628,648,669,687,707,727,747,769,787,808,828,847,869,887,907,928,949,969,989,1008,1027,1047,1069,1088,1109,1128,1147,1167,1188,1207,1227,1247,1268,1287,1308,1328,1349,1367,1388,1407,1427,1448,1468,1487,1507,1527,1548,1568,1588,1608,1627,1647,1667,1687,1709,1728,1748,1768,1787,1808,1827,1848,1869,1887,1909,1928,1947,1967,1988,2008,2027,2048,2068,2088,2109,2127,2148,2168,2188,2207,2227,2248,2267,2287,2307,2328,2347,2367,2387,2407,2427,2448,2469,2488,2508,2528,2548,2568,2587],"xSR":741.5,"ySR":481,"xT1":424.9,"yT1":0,"xT2":1058.1,"yT2":0,"toosoon":0,"cond_shown":"Incongruent","ratio_trial":200,"L_num":7,"L_den":10,"R_num":14,"R_den":28,"correct_side":1,"subjID":"MelianFino1","gender":"1","school":"6","age":"12"},{"start_time":1551899765366,"click_time":1551899767554,"finger_time":1551899767073,"fix_duration":1333.9292979145107,"trial":27,"RT":1707,"MT":481,"sideResp":2,"stimulus":[],"xmouse":[767,766,765,765,765,765,765,765,765,765,765,765,765,765,765,765,765,765,765,765,765,765,765,765,765,765,765,765,765,765,765,765,765,765,765,765,765,765,765,765,765,765,765,765,765,765,765,765,765,765,765,765,765,765,765,765,765,765,765,765,765,765,765,765,765,765,765,765,765,765,765,765,765,765,765,765,765,767,772,776,780,783,807,820,838,870,924,1038,1082,1131,1169,1191,1211,1216,1217,1227,1244,1257,1264,1264,1264,1264,1264,1264,1264,1264,1264,1264,1264,1150],"ymouse":[541,539,538,537,537,537,537,537,537,537,537,537,537,537,537,537,537,537,537,537,537,537,537,537,537,537,537,537,537,537,537,537,537,537,537,537,537,537,537,537,537,537,537,537,537,537,537,537,537,537,537,537,537,537,537,537,537,537,537,537,537,537,537,537,537,537,537,537,537,537,537,537,537,537,537,537,537,539,544,547,550,552,562,565,566,566,566,546,531,507,484,462,362,303,240,180,118,74,5,5,5,5,5,5,5,5,5,5,5,19],"timestamp_mouse":[7,27,51,68,87,106,127,146,166,186,207,228,247,268,287,307,327,346,368,387,407,426,447,466,486,507,528,546,567,587,607,626,647,667,686,707,726,747,768,788,808,827,846,867,886,907,928,947,968,987,1007,1027,1047,1067,1088,1108,1127,1147,1167,1186,1207,1226,1247,1266,1287,1307,1328,1348,1367,1388,1407,1426,1447,1466,1486,1507,1527,1547,1566,1586,1606,1628,1647,1667,1686,1707,1726,1748,1767,1787,1806,1826,1848,1866,1886,1906,1926,1946,1966,1987,2006,2026,2047,2066,2086,2106,2126,2167,2168,2187],"xSR":741.5,"ySR":481,"xT1":424.9,"yT1":0,"xT2":1058.1,"yT2":0,"toosoon":0,"cond_shown":"Congruent","ratio_trial":100,"L_num":1,"L_den":2,"R_num":3,"R_den":5,"correct_side":2,"subjID":"MelianFino1","gender":"1","school":"6","age":"12"},{"start_time":1551899769474,"click_time":1551899771473,"finger_time":1551899771032,"fix_duration":820.1375270291388,"trial":28,"RT":1558,"MT":441,"sideResp":1,"stimulus":[],"xmouse":[766,766,766,766,766,766,766,766,766,766,766,766,766,766,766,766,766,766,766,766,766,766,766,766,766,766,766,766,766,766,766,766,766,766,766,766,766,766,766,766,766,766,766,766,766,766,766,766,766,766,766,766,766,766,766,766,766,766,766,766,766,766,766,766,766,766,766,766,766,766,766,766,766,766,766,766,757,686,655,627,593,564,510,480,471,445,426,387,375,365,358,353,358,367,384,397,410,425,429,432],"ymouse":[523,523,523,523,523,523,523,523,523,523,523,523,523,523,523,523,523,523,523,523,523,523,523,523,523,523,523,523,523,523,523,523,523,523,523,523,523,523,523,523,523,523,523,523,523,523,523,523,523,523,523,523,523,523,523,523,523,523,523,523,523,523,523,523,523,523,523,523,523,523,523,523,523,523,523,523,523,523,523,523,521,516,500,485,479,459,442,398,377,353,319,293,253,235,205,185,165,130,114,96],"timestamp_mouse":[20,43,58,80,98,118,139,159,179,198,218,238,259,279,298,319,339,360,379,400,419,438,459,478,499,520,539,559,579,599,618,639,658,679,699,719,739,758,778,800,820,839,858,878,898,919,938,959,980,999,1018,1038,1058,1079,1099,1118,1138,1159,1179,1199,1218,1238,1260,1278,1298,1319,1339,1358,1378,1399,1419,1438,1459,1478,1498,1520,1539,1558,1578,1598,1618,1639,1659,1678,1700,1718,1738,1758,1778,1800,1820,1838,1858,1879,1899,1919,1938,1958,1979,1999],"xSR":741.5,"ySR":481,"xT1":424.9,"yT1":0,"xT2":1058.1,"yT2":0,"toosoon":0,"cond_shown":"Incongruent","ratio_trial":100,"L_num":8,"L_den":20,"R_num":1,"R_den":2,"correct_side":2,"subjID":"MelianFino1","gender":"1","school":"6","age":"12"},{"start_time":1551899773475,"click_time":1551899775012,"finger_time":1551899774552,"fix_duration":941.6378947632372,"trial":29,"RT":1077,"MT":460,"sideResp":1,"stimulus":[],"xmouse":[807,807,807,807,807,807,807,807,807,807,807,807,807,805,804,804,804,803,803,803,803,803,803,803,803,803,803,803,803,803,803,803,803,803,803,803,803,803,803,803,803,803,803,803,803,803,803,803,803,803,802,793,762,730,719,708,702,688,674,652,624,589,474,373,318,275,236,196,190,190,193,201,216,320,370,413,439],"ymouse":[532,532,532,532,532,532,532,532,532,532,532,532,532,532,532,532,532,532,532,532,532,532,532,532,532,532,532,532,532,532,532,532,532,532,532,532,532,532,532,532,532,532,532,532,532,532,532,532,532,532,532,532,532,535,538,544,548,558,562,566,568,568,556,524,500,474,446,390,371,352,332,308,282,193,155,120,97],"timestamp_mouse":[18,44,58,78,97,117,138,159,178,198,217,237,257,279,297,318,337,358,377,399,418,438,458,478,498,517,537,558,577,597,618,639,657,678,697,718,738,758,777,799,817,838,857,879,897,918,939,958,977,997,1017,1038,1058,1077,1098,1118,1137,1158,1177,1198,1217,1238,1259,1278,1297,1317,1337,1358,1377,1398,1417,1438,1458,1479,1497,1518,1537],"xSR":741.5,"ySR":481,"xT1":424.9,"yT1":0,"xT2":1058.1,"yT2":0,"toosoon":0,"cond_shown":"Congruent","ratio_trial":300,"L_num":20,"L_den":25,"R_num":14,"R_den":28,"correct_side":1,"subjID":"MelianFino1","gender":"1","school":"6","age":"12"},{"start_time":1551899778639,"click_time":1551899781033,"finger_time":1551899780513,"fix_duration":843.9402548543899,"trial":30,"RT":1874,"MT":520,"sideResp":1,"stimulus":[],"xmouse":[773,773,773,773,773,773,773,773,773,773,773,773,773,773,773,773,773,773,773,773,773,773,773,773,773,773,773,773,773,773,773,773,773,773,773,773,773,773,773,773,773,773,773,773,773,773,773,773,773,773,773,773,773,773,773,773,773,773,773,773,773,773,773,773,773,773,773,773,773,773,773,773,773,773,773,773,773,773,773,773,773,773,773,773,773,773,773,773,773,773,773,773,752,701,643,554,521,494,472,452,413,388,372,350,333,326,327,336,348,368,390,416,419,421,422,423,423,424,424,425],"ymouse":[525,525,525,525,525,525,525,525,525,525,525,525,525,525,525,525,525,525,525,525,525,525,525,525,525,525,525,525,525,525,525,525,525,525,525,525,525,525,525,525,525,525,525,525,525,525,525,525,525,525,525,525,525,525,525,525,525,525,525,525,525,525,525,525,525,525,525,525,525,525,525,525,525,525,525,525,525,525,525,525,525,525,525,525,525,525,525,525,525,525,525,526,535,547,559,568,568,566,560,551,523,497,465,416,378,334,317,297,274,243,208,143,125,114,111,110,108,105,102,99],"timestamp_mouse":[13,43,53,73,95,114,135,153,174,193,213,233,253,273,293,315,334,355,373,393,414,435,453,473,493,514,535,554,573,595,613,635,654,674,694,714,735,755,773,793,815,834,855,874,893,914,935,955,973,993,1013,1034,1054,1073,1093,1114,1134,1153,1173,1195,1213,1234,1255,1273,1295,1315,1335,1354,1374,1393,1415,1434,1455,1474,1493,1514,1534,1555,1574,1595,1615,1633,1654,1673,1693,1713,1734,1753,1773,1795,1815,1834,1853,1874,1893,1914,1933,1953,1973,1993,2013,2033,2053,2073,2093,2114,2133,2153,2174,2193,2213,2233,2253,2274,2294,2313,2333,2354,2373,2394],"xSR":741.5,"ySR":481,"xT1":424.9,"yT1":0,"xT2":1058.1,"yT2":0,"toosoon":0,"cond_shown":"Incongruent","ratio_trial":200,"L_num":7,"L_den":10,"R_num":14,"R_den":28,"correct_side":1,"subjID":"MelianFino1","gender":"1","school":"6","age":"12"},{"start_time":1551899783011,"click_time":1551899786772,"finger_time":1551899784812,"fix_duration":1056.0863502221325,"trial":31,"RT":1801,"MT":1960,"sideResp":1,"stimulus":[],"xmouse":[792,792,792,792,792,792,792,792,792,792,792,792,792,792,792,792,792,792,792,792,792,792,792,792,792,792,792,792,792,792,792,792,792,792,792,792,792,792,792,792,792,792,792,792,792,792,792,792,792,792,792,792,792,792,792,792,792,792,792,792,792,792,792,792,792,792,792,792,792,792,792,792,792,792,792,792,792,792,792,792,792,792,792,792,792,792,792,792,801,826,883,903,948,982,1005,1027,1062,1126,1146,1158,1163,1169,1173,1154,1113,1057,1013,995,990,990,990,990,990,990,990,990,992,1005,1005,1005,1005,1005,1005,1005,1005,1005,1005,1005,1005,1006,1006,1010,1016,1017,1017,1017,1017,1017,1017,1017,1017,1017,1017,1017,1017,1017,1017,1017,1017,1017,1017,1017,1017,1017,1017,1017,1017,1017,1017,1017,1017,1017,1017,1017,997,915,825,744,600,575,568,568,568,567,558,546,534,522,518,518,518,518,518,515,511,509,508,507,506],"ymouse":[527,527,527,527,527,527,527,527,527,527,527,527,527,527,527,527,527,527,527,527,527,527,527,527,527,527,527,527,527,527,527,527,527,527,527,527,527,527,527,527,527,527,527,527,527,527,527,527,527,527,527,527,527,527,527,527,527,527,527,527,527,527,527,527,527,527,527,527,527,527,527,527,527,527,527,527,527,527,527,527,527,527,527,527,527,527,527,528,539,552,569,572,579,581,570,556,532,478,458,442,425,403,322,267,200,133,90,77,73,73,73,73,73,73,73,72,67,58,58,58,58,58,58,58,58,58,58,58,58,58,58,62,67,68,68,68,68,68,68,68,68,68,68,68,68,68,68,68,68,68,68,68,68,68,68,68,68,68,68,68,68,68,68,68,65,54,50,50,77,86,89,89,89,90,97,104,110,115,117,117,117,117,117,116,113,110,105,103,98],"timestamp_mouse":[9,22,43,62,82,101,123,142,162,181,203,223,242,262,281,301,322,342,362,382,403,422,441,461,481,502,522,541,562,581,602,623,641,662,681,702,722,741,762,781,802,822,843,862,881,902,923,942,962,981,1001,1023,1042,1062,1082,1102,1121,1142,1163,1187,1202,1221,1241,1262,1283,1301,1323,1342,1361,1381,1402,1422,1441,1462,1482,1503,1522,1541,1563,1582,1602,1622,1642,1662,1682,1701,1721,1742,1761,1782,1801,1821,1841,1861,1881,1902,1921,1943,1961,1981,2001,2022,2043,2062,2082,2102,2121,2142,2161,2181,2202,2223,2242,2261,2281,2302,2322,2343,2361,2382,2401,2421,2442,2463,2483,2503,2521,2542,2561,2581,2601,2622,2641,2661,2682,2701,2722,2742,2762,2782,2801,2821,2842,2861,2882,2902,2922,2942,2962,2982,3002,3022,3042,3062,3082,3102,3121,3143,3161,3181,3202,3222,3242,3262,3281,3302,3321,3341,3361,3382,3403,3422,3441,3461,3481,3502,3522,3542,3561,3582,3602,3623,3642,3661,3682,3702,3722,3741,3761],"xSR":741.5,"ySR":481,"xT1":424.9,"yT1":0,"xT2":1058.1,"yT2":0,"toosoon":0,"cond_shown":"Incongruent","ratio_trial":100,"L_num":6,"L_den":10,"R_num":13,"R_den":26,"correct_side":1,"subjID":"MelianFino1","gender":"1","school":"6","age":"12"},{"start_time":1551899788006,"click_time":1551899792174,"finger_time":1551899789292,"fix_duration":250,"trial":32,"RT":1286,"MT":2882,"sideResp":2,"stimulus":[],"xmouse":[820,820,820,820,820,820,820,820,820,820,820,820,820,820,820,820,820,820,820,820,820,820,820,820,820,820,820,820,820,820,820,820,820,820,820,820,820,820,820,820,820,820,820,820,820,820,820,820,820,820,820,820,820,820,820,820,820,820,820,820,820,820,820,780,718,644,581,564,562,562,562,557,548,533,524,517,512,509,505,505,505,505,505,505,505,505,505,505,505,496,484,466,452,411,396,380,374,374,376,381,390,396,400,402,402,402,402,402,402,402,402,402,402,402,402,402,402,402,402,402,402,402,402,402,402,402,402,402,402,402,402,402,402,402,402,402,402,402,402,402,402,402,402,402,402,402,402,402,402,402,402,402,402,402,402,402,402,402,402,402,402,402,402,402,402,402,402,402,402,402,402,402,402,403,403,403,403,403,403,403,403,404,409,454,508,576,649,720,804,847,884,925,982,1050,1138,1158,1169,1172,1181,1188,1192,1193,1193,1189,1140,1122,1114,1106,1100],"ymouse":[527,527,527,527,527,527,527,527,527,527,527,527,527,527,527,527,527,527,527,527,527,527,527,527,527,527,527,527,527,527,527,527,527,527,527,527,527,527,527,527,527,527,527,527,527,527,527,527,527,527,527,527,527,527,527,527,527,527,527,527,527,527,527,527,527,529,537,541,541,541,541,541,533,512,498,485,474,467,458,456,456,456,456,456,456,456,456,456,456,437,410,369,334,240,200,171,148,133,109,98,87,82,78,77,77,77,77,77,77,77,77,77,77,77,77,77,77,77,77,77,77,77,77,77,77,77,77,77,77,77,77,77,77,77,77,77,77,77,77,77,77,77,77,77,77,77,77,77,77,77,77,77,77,77,77,77,77,77,77,77,77,77,77,77,77,77,77,77,77,77,77,77,77,77,77,77,77,77,77,77,84,102,130,241,310,373,417,442,452,452,446,440,432,422,396,383,367,346,305,289,272,258,244,225,164,147,133,118,97],"timestamp_mouse":[10,40,49,67,87,107,126,146,167,186,207,226,247,267,286,306,327,348,367,388,406,426,446,468,486,506,527,548,567,587,608,627,648,666,687,706,726,747,766,786,808,826,846,867,886,907,928,947,967,988,1007,1027,1048,1066,1088,1106,1126,1147,1167,1186,1206,1228,1246,1266,1286,1306,1327,1347,1366,1387,1406,1426,1446,1467,1486,1507,1527,1548,1567,1587,1607,1627,1648,1668,1687,1706,1727,1746,1767,1787,1807,1826,1846,1867,1886,1906,1926,1947,1967,1987,2007,2026,2046,2066,2087,2107,2127,2146,2167,2188,2207,2227,2247,2267,2287,2307,2326,2348,2367,2388,2407,2426,2446,2466,2486,2507,2526,2547,2567,2588,2607,2627,2646,2666,2686,2707,2726,2747,2768,2787,2807,2827,2846,2867,2887,2906,2926,2946,2966,2987,3007,3027,3047,3067,3087,3106,3127,3147,3167,3186,3207,3226,3246,3267,3287,3306,3326,3347,3367,3387,3407,3428,3446,3466,3487,3507,3526,3547,3566,3586,3606,3627,3646,3667,3686,3707,3727,3746,3767,3786,3807,3827,3846,3866,3886,3906,3926,3947,3968,3987,4006,4026,4046,4066,4086,4107,4126,4148,4168],"xSR":741.5,"ySR":481,"xT1":424.9,"yT1":0,"xT2":1058.1,"yT2":0,"toosoon":0,"cond_shown":"Incongruent","ratio_trial":200,"L_num":11,"L_den":20,"R_num":3,"R_den":4,"correct_side":2,"subjID":"MelianFino1","gender":"1","school":"6","age":"12"},{"start_time":1551899793577,"click_time":1551899795733,"finger_time":1551899795173,"fix_duration":402.75439441864955,"trial":33,"RT":1596,"MT":560,"sideResp":1,"stimulus":[],"xmouse":[775,775,775,775,775,775,775,775,775,775,775,775,775,775,775,775,775,775,775,775,775,775,775,775,775,775,775,775,775,775,775,775,775,775,775,775,775,775,775,775,775,775,775,775,775,775,775,775,775,775,775,775,775,775,775,775,775,775,775,775,775,775,775,775,775,775,775,775,775,775,775,775,775,775,775,775,770,757,749,741,713,700,687,669,647,586,549,540,520,511,504,503,500,500,500,502,504,505,508,510,510,512,512,510,508,504,502,501],"ymouse":[564,564,564,564,564,564,564,564,564,564,564,564,564,564,564,564,564,564,564,564,564,564,564,564,564,564,564,564,564,564,564,564,564,564,564,564,564,564,564,564,564,564,564,564,564,564,564,564,564,564,564,564,564,564,564,564,564,564,564,564,564,564,564,564,564,564,564,564,564,564,564,564,564,564,564,564,563,563,562,561,554,549,543,531,515,471,439,430,397,372,328,307,286,262,243,224,215,211,198,185,160,146,133,121,115,108,104,96],"timestamp_mouse":[16,41,56,75,96,116,135,156,176,197,217,236,255,275,297,317,336,356,377,396,416,436,455,476,497,515,535,557,575,596,616,635,655,677,695,716,735,757,776,795,817,836,856,876,895,915,936,956,976,996,1015,1037,1056,1076,1096,1117,1135,1155,1175,1197,1215,1236,1256,1275,1296,1317,1335,1356,1375,1397,1417,1435,1455,1475,1497,1516,1536,1555,1576,1596,1616,1635,1655,1676,1695,1716,1737,1755,1775,1795,1816,1836,1856,1876,1895,1916,1936,1956,1975,1995,2016,2036,2055,2075,2095,2115,2135,2155],"xSR":741.5,"ySR":481,"xT1":424.9,"yT1":0,"xT2":1058.1,"yT2":0,"toosoon":0,"cond_shown":"Incongruent","ratio_trial":300,"L_num":8,"L_den":10,"R_num":14,"R_den":28,"correct_side":1,"subjID":"MelianFino1","gender":"1","school":"6","age":"12"},{"start_time":1551899797651,"click_time":1551899799953,"finger_time":1551899799393,"fix_duration":457.5904297601443,"trial":34,"RT":1742,"MT":560,"sideResp":1,"stimulus":[],"xmouse":[795,795,795,795,795,795,795,796,796,796,796,796,796,796,796,796,796,796,796,796,796,796,796,796,796,796,796,796,796,796,796,796,796,796,796,796,796,796,796,796,796,796,796,796,796,796,796,796,796,796,796,796,796,796,796,796,796,796,796,796,796,796,796,796,796,796,796,796,796,796,796,796,796,796,796,796,796,796,796,796,796,796,796,796,793,790,756,631,584,551,526,508,467,446,424,396,372,352,349,349,350,354,360,362,362,364,367,380,386,390,392,393,394,397,410,430],"ymouse":[519,519,519,519,519,519,519,519,519,519,519,519,519,519,519,519,519,519,519,519,519,519,519,519,519,519,519,519,519,519,519,519,519,519,519,519,519,519,519,519,519,519,519,519,519,519,519,519,519,519,519,519,519,519,519,519,519,519,519,519,519,519,519,519,519,519,519,519,519,519,519,519,519,519,519,519,519,519,519,519,519,519,519,521,522,524,530,548,554,559,559,558,535,515,486,447,409,345,315,289,269,251,201,175,149,122,100,73,67,64,64,63,63,63,63,63],"timestamp_mouse":[9,21,41,62,82,103,121,142,161,182,203,222,241,261,283,303,321,341,362,383,403,421,443,463,483,501,523,542,561,581,602,622,643,661,683,702,722,741,763,782,802,821,841,861,882,901,923,941,962,982,1003,1023,1042,1061,1082,1102,1121,1141,1162,1182,1203,1221,1241,1263,1282,1301,1322,1342,1362,1382,1402,1422,1442,1462,1483,1503,1522,1542,1562,1583,1603,1622,1642,1661,1681,1701,1722,1742,1761,1781,1801,1822,1843,1862,1881,1902,1921,1942,1961,1982,2002,2022,2043,2061,2081,2101,2121,2142,2161,2181,2203,2222,2243,2262,2282,2301],"xSR":741.5,"ySR":481,"xT1":424.9,"yT1":0,"xT2":1058.1,"yT2":0,"toosoon":0,"cond_shown":"Incongruent","ratio_trial":300,"L_num":4,"L_den":5,"R_num":6,"R_den":12,"correct_side":1,"subjID":"MelianFino1","gender":"1","school":"6","age":"12"},{"start_time":1551899802116,"click_time":1551899803873,"finger_time":1551899803612,"fix_duration":1361.4259755634148,"trial":35,"RT":1496,"MT":261,"sideResp":2,"stimulus":[],"xmouse":[815,815,815,815,815,815,815,815,815,815,815,815,815,815,815,815,815,815,815,815,815,815,815,815,815,815,815,815,815,815,815,815,815,815,815,815,815,815,815,815,815,815,815,815,815,815,815,815,815,815,815,815,815,815,815,815,815,815,815,815,815,815,815,815,815,815,815,815,815,815,815,815,815,833,922,959,982,999,1006,1019,1038,1061,1076,1084,1096,1098,1100,1106],"ymouse":[539,539,539,539,539,539,539,539,539,539,539,539,539,539,539,539,539,539,539,539,539,539,539,539,539,539,539,539,539,539,539,539,539,539,539,539,539,539,539,539,539,539,539,539,539,539,539,539,539,539,539,539,539,539,539,539,539,539,539,539,539,539,539,539,539,539,539,539,539,539,539,539,539,534,521,513,508,498,484,393,320,251,205,177,134,117,102,77],"timestamp_mouse":[17,46,58,78,97,117,136,157,178,197,217,237,257,278,296,317,337,357,376,397,416,438,456,476,498,517,537,557,578,598,616,637,656,678,698,716,737,757,778,796,817,836,858,876,897,918,938,957,977,996,1016,1036,1058,1078,1096,1117,1136,1158,1178,1197,1216,1236,1257,1277,1296,1317,1338,1357,1376,1396,1416,1438,1456,1478,1496,1516,1536,1557,1576,1597,1616,1637,1657,1676,1696,1717,1736,1757],"xSR":741.5,"ySR":481,"xT1":424.9,"yT1":0,"xT2":1058.1,"yT2":0,"toosoon":0,"cond_shown":"Congruent","ratio_trial":100,"L_num":4,"L_den":8,"R_num":6,"R_den":10,"correct_side":2,"subjID":"MelianFino1","gender":"1","school":"6","age":"12"},{"start_time":1551899807153,"click_time":1551899809313,"finger_time":1551899808832,"fix_duration":898.6385474469757,"trial":36,"RT":1679,"MT":481,"sideResp":2,"stimulus":[],"xmouse":[793,793,793,793,793,793,793,793,793,793,793,793,793,793,793,793,793,793,793,793,793,793,793,793,793,792,792,792,792,792,792,792,792,792,792,792,792,792,792,792,792,792,792,792,792,791,791,791,791,791,791,791,791,791,791,791,791,791,791,791,791,791,791,791,791,791,791,791,791,791,791,791,791,791,791,791,791,791,791,791,791,791,794,832,870,913,952,983,1017,1028,1038,1055,1060,1063,1041,1027,1021,1016,1013,1015,1021,1027,1028,1032,1034,1038,1045,1055,1072],"ymouse":[548,548,548,548,548,548,548,548,548,548,548,548,548,548,548,548,548,548,548,548,548,548,547,537,533,527,526,526,526,526,526,526,526,526,526,526,526,526,526,526,526,526,526,526,526,526,526,526,526,526,526,526,526,526,526,526,526,526,526,526,526,526,526,526,526,526,526,526,526,526,526,526,526,526,526,526,526,526,526,526,526,526,527,532,532,530,518,501,465,445,421,371,352,317,220,194,171,149,103,81,64,44,32,24,22,21,19,17,14],"timestamp_mouse":[2,21,39,60,80,101,120,140,161,181,200,219,241,261,281,299,320,339,361,380,400,420,440,460,480,499,519,540,559,579,600,621,641,659,680,699,720,740,759,781,801,820,839,859,879,901,920,939,959,980,1001,1020,1040,1060,1079,1099,1121,1140,1159,1180,1199,1220,1241,1259,1280,1299,1319,1340,1360,1379,1400,1421,1440,1459,1481,1500,1520,1539,1559,1580,1601,1620,1639,1660,1679,1699,1719,1739,1761,1779,1812,1819,1839,1863,1880,1899,1919,1939,1960,1979,1999,2020,2040,2060,2079,2099,2120,2139,2160],"xSR":741.5,"ySR":481,"xT1":424.9,"yT1":0,"xT2":1058.1,"yT2":0,"toosoon":0,"cond_shown":"Congruent","ratio_trial":200,"L_num":5,"L_den":10,"R_num":14,"R_den":20,"correct_side":2,"subjID":"MelianFino1","gender":"1","school":"6","age":"12"},{"start_time":1551899811660,"click_time":1551899814134,"finger_time":1551899813593,"fix_duration":1245.441956694763,"trial":37,"RT":1933,"MT":541,"sideResp":2,"stimulus":[],"xmouse":[765,765,765,765,765,765,765,765,765,765,765,765,765,765,765,765,765,765,765,765,765,765,765,765,765,765,765,765,765,765,765,765,765,765,765,765,765,765,765,765,765,765,765,765,765,765,765,765,765,765,765,765,765,765,765,765,765,765,765,765,765,765,765,765,765,765,765,765,765,765,765,765,765,765,765,765,765,765,765,765,765,765,765,765,765,765,765,765,765,765,765,765,765,781,802,819,850,875,937,972,1008,1037,1063,1097,1112,1126,1137,1142,1142,1128,1114,1107,1105,1101,1100,1099,1097,1096,1096,1096,1096,1096,1096,1094],"ymouse":[529,529,529,529,529,529,529,529,529,529,529,529,529,529,529,529,529,529,529,529,529,529,529,529,529,529,529,529,529,529,529,529,529,529,529,529,529,529,529,529,529,529,529,529,529,529,529,529,529,529,529,529,529,529,529,529,529,529,529,529,529,529,529,529,529,529,529,529,529,529,529,529,529,529,529,529,529,529,529,529,529,529,529,529,529,529,529,529,529,529,529,529,532,545,554,560,566,566,552,537,519,501,484,451,429,395,340,304,243,218,202,194,192,181,174,166,155,151,147,142,136,126,115,98],"timestamp_mouse":[13,40,53,73,93,114,133,155,173,193,214,233,253,273,293,314,334,354,374,393,414,434,455,473,493,513,534,553,573,593,615,634,653,673,694,713,733,754,773,793,813,833,854,873,894,914,934,954,974,993,1013,1034,1053,1073,1093,1114,1133,1153,1174,1194,1213,1234,1253,1274,1294,1313,1334,1353,1373,1394,1414,