[{"start_time":1551900301197,"click_time":1551900304204,"finger_time":1551900304003,"fix_duration":250,"trial":0,"RT":2806,"MT":201,"sideResp":2,"stimulus":"img/900/equaldotsize/R/12_Ratio_900_L_18_R_20.png","xmouse":[776,776,776,776,776,776,776,776,776,776,776,776,776,776,776,776,776,776,776,776,776,776,776,776,776,776,776,776,776,776,776,776,776,776,776,776,776,776,776,776,776,776,776,776,776,776,776,776,776,776,776,776,776,776,776,776,776,776,776,776,776,776,776,776,776,776,776,776,776,776,776,776,777,780,782,783,783,783,783,783,783,783,783,783,783,783,783,783,783,783,783,783,783,783,783,783,783,783,783,783,783,783,783,783,783,783,783,783,783,783,783,783,783,783,783,783,783,783,783,783,783,783,783,783,783,783,783,783,783,783,783,783,783,783,783,783,783,783,790,826,867,918,948,975,981,987,996,1010,1054,1072],"ymouse":[523,523,523,523,523,523,523,523,523,523,523,523,523,523,523,523,523,523,523,523,523,523,523,523,523,523,523,523,523,523,523,523,523,523,523,523,523,523,523,523,523,523,523,523,523,523,523,523,523,523,523,523,523,523,523,523,523,523,523,523,523,523,523,523,523,523,523,523,523,523,523,523,524,496,488,486,486,486,486,486,486,486,486,486,486,486,486,486,486,486,486,486,486,486,486,486,486,486,486,486,486,486,486,486,486,486,486,486,486,486,486,486,486,486,486,486,486,486,486,486,486,486,486,486,486,486,486,486,486,486,486,486,486,486,486,486,486,486,473,399,307,188,135,93,87,80,73,63,38,28],"timestamp_mouse":[10,48,66,85,106,125,146,165,186,205,225,245,265,287,306,325,346,366,386,405,426,446,466,486,506,526,545,566,586,606,626,646,665,684,706,725,746,765,786,806,826,845,865,886,906,925,946,965,985,1006,1025,1046,1066,1085,1105,1126,1146,1166,1186,1206,1226,1245,1267,1285,1305,1326,1346,1366,1386,1405,1426,1446,1465,1485,1505,1526,1545,1565,1585,1606,1625,1645,1664,1686,1706,1725,1746,1766,1786,1805,1826,1846,1865,1886,1905,1924,1946,1965,1986,2004,2025,2046,2066,2085,2106,2125,2146,2165,2186,2205,2224,2245,2265,2285,2304,2326,2346,2365,2385,2405,2424,2445,2465,2486,2505,2526,2544,2565,2585,2605,2626,2645,2665,2685,2706,2726,2745,2765,2785,2806,2825,2845,2865,2885,2905,2925,2946,2965,2985,3006],"xSR":741.5,"ySR":481,"xT1":424.9,"yT1":0,"xT2":1058.1,"yT2":0,"toosoon":0,"cond_shown":"equaldotsize","ratio_trial":900,"smaller_num":"18","larger_num":"20","correct_side":2,"subjID":"MelianFino1","gender":"1","age":"12","school":"6","test":{"fix_dur":[250,1500],"timestim":300,"targets_dim":[100,100],"targets_relative_coord":[0.3,0.7],"size_stim":[880,420],"start_dim":[100,100],"size_start":[300,300],"size_fix":60,"samplingrate":20,"img_types":["equaldotsize","equaldotanddens","randomdotsizeEA"],"ratios":[250,500,750,900],"rep_conds":9,"nTrials":120,"trials_to_rest":500,"Trials_order":[81,117,77,112,50,22,6,28,102,66,103,51,69,99,31,78,55,84,40,88,104,70,80,4,19,39,48,119,110,86,21,27,65,30,87,15,0,89,9,73,72,44,98,93,95,41,101,58,76,90,94,113,34,43,3,57,45,33,115,52,63,61,108,68,37,54,107,62,74,53,79,17,49,114,96,38,12,64,75,11,60,5,14,35,26,46,97,2,56,91,8,92,118,82,25,83,32,16,105,116,85,18,100,42,13,29,23,67,1,109,20,47,36,111,7,24,71,10,59,106],"cond_shown":["equaldotsize","equaldotsize","randomdotsizeEA","equaldotanddens","randomdotsizeEA","equaldotanddens","equaldotsize","equaldotanddens","equaldotsize","equaldotsize","equaldotanddens","equaldotsize","equaldotsize","equaldotsize","equaldotanddens","equaldotsize","equaldotanddens","equaldotsize","equaldotanddens","equaldotanddens","randomdotsizeEA","equaldotanddens","randomdotsizeEA","equaldotanddens","equaldotanddens","equaldotsize","equaldotsize","randomdotsizeEA","randomdotsizeEA","randomdotsizeEA","equaldotsize","equaldotsize","randomdotsizeEA","equaldotsize","equaldotsize","equaldotsize","equaldotsize","randomdotsizeEA","equaldotsize","equaldotanddens","equaldotsize","randomdotsizeEA","randomdotsizeEA","equaldotsize","randomdotsizeEA","randomdotsizeEA","randomdotsizeEA","equaldotanddens","equaldotanddens","equaldotsize","equaldotanddens","randomdotsizeEA","equaldotanddens","equaldotanddens","equaldotsize","equaldotsize","equaldotsize","equaldotsize","equaldotanddens","equaldotanddens","equaldotsize","equaldotanddens","equaldotsize","randomdotsizeEA","equaldotanddens","equaldotsize","randomdotsizeEA","randomdotsizeEA","randomdotsizeEA","randomdotsizeEA","equaldotanddens","randomdotsizeEA","equaldotanddens","equaldotsize","equaldotsize","randomdotsizeEA","equaldotsize","equaldotanddens","equaldotsize","randomdotsizeEA","equaldotsize","randomdotsizeEA","randomdotsizeEA","randomdotsizeEA","randomdotsizeEA","equaldotanddens","equaldotanddens","randomdotsizeEA","randomdotsizeEA","equaldotanddens","randomdotsizeEA","randomdotsizeEA","equaldotanddens","equaldotanddens","equaldotanddens","randomdotsizeEA","randomdotsizeEA","equaldotanddens","equaldotsize","randomdotsizeEA","equaldotanddens","equaldotsize","equaldotanddens","equaldotsize","equaldotanddens","randomdotsizeEA","randomdotsizeEA","equaldotanddens","equaldotanddens","equaldotanddens","randomdotsizeEA","randomdotsizeEA","equaldotsize","equaldotsize","equaldotanddens","equaldotsize","randomdotsizeEA","equaldotanddens","randomdotsizeEA","equaldotanddens"],"ratio_trial":[900,900,500,500,250,900,750,500,750,750,750,500,900,500,750,750,750,250,500,500,750,900,750,500,750,500,250,900,250,250,900,500,500,750,500,500,250,500,900,250,250,750,250,900,900,500,500,900,500,750,900,500,900,750,500,900,900,900,750,500,500,250,250,750,250,750,900,250,250,500,750,500,250,750,250,250,250,500,500,900,250,500,250,900,250,900,250,250,750,750,750,750,900,900,250,900,750,500,900,750,250,750,500,750,250,500,900,750,250,250,750,900,250,500,750,250,900,900,900,900],"smaller_num":["18","18","1","2","2","9","6","2","3","3","6","1","18","2","3","3","15","3","2","10","3","18","6","6","9","2","3","18","4","3","18","6","5","15","1","9","4","2","18","4","6","6","5","9","18","4","5","9","5","15","18","3","9","9","4","18","18","18","3","9","4","3","3","12","2","3","9","3","2","6","9","5","6","3","4","3","3","5","10","9","4","3","3","9","6","18","3","2","15","15","3","15","18","18","3","18","3","4","18","3","5","6","10","3","6","6","18","15","1","3","15","18","1","1","3","3","9","9","18","18"],"larger_num":["20","20","2","4","8","10","8","4","4","4","8","2","20","4","4","4","20","12","4","20","4","20","8","12","12","4","12","20","16","12","20","12","10","20","2","18","16","4","20","16","24","8","20","10","20","8","10","10","10","20","20","6","10","12","8","20","20","20","4","18","8","12","12","16","8","4","10","12","8","12","12","10","24","4","16","12","12","10","20","10","16","6","12","10","24","20","12","8","20","20","4","20","20","20","12","20","4","8","20","4","20","8","20","4","24","12","20","20","4","12","20","20","4","2","4","12","10","10","20","20"],"correct_side":[2,1,2,2,2,1,2,1,1,2,1,2,2,2,1,1,2,1,2,2,1,2,1,1,2,1,2,1,1,2,2,1,1,2,2,2,1,1,1,2,1,2,2,2,1,1,1,2,1,2,1,2,2,2,1,1,2,1,2,2,1,1,2,2,1,1,2,1,1,1,2,1,1,1,2,2,1,1,2,2,1,2,1,2,2,2,2,1,1,2,1,1,2,1,1,2,1,1,2,1,2,2,2,1,2,1,1,1,2,1,1,1,2,2,1,2,2,2,1,1],"img_shown":["img/900/equaldotsize/R/12_Ratio_900_L_18_R_20.png","img/900/equaldotsize/L/2_Ratio_900_L_20_R_18.png","img/500/randomdotsizeEA/R/15_Ratio_500_L_1_R_2.png","img/500/equaldotanddens/R/9_Ratio_500_L_2_R_4.png","img/250/randomdotsizeEA/R/13_Ratio_250_L_2_R_8.png","img/900/equaldotanddens/L/1_Ratio_900_L_10_R_9.png","img/750/equaldotsize/R/2_Ratio_750_L_6_R_8.png","img/500/equaldotanddens/L/10_Ratio_500_L_4_R_2.png","img/750/equaldotsize/L/10_Ratio_750_L_4_R_3.png","img/750/equaldotsize/R/12_Ratio_750_L_3_R_4.png","img/750/equaldotanddens/L/13_Ratio_750_L_8_R_6.png","img/500/equaldotsize/R/12_Ratio_500_L_1_R_2.png","img/900/equaldotsize/R/11_Ratio_900_L_18_R_20.png","img/500/equaldotsize/R/9_Ratio_500_L_2_R_4.png","img/750/equaldotanddens/L/10_Ratio_750_L_4_R_3.png","img/750/equaldotsize/L/8_Ratio_750_L_4_R_3.png","img/750/equaldotanddens/R/4_Ratio_750_L_15_R_20.png","img/250/equaldotsize/L/14_Ratio_250_L_12_R_3.png","img/500/equaldotanddens/R/9_Ratio_500_L_2_R_4.png","img/500/equaldotanddens/R/3_Ratio_500_L_10_R_20.png","img/750/randomdotsizeEA/L/8_Ratio_750_L_4_R_3.png","img/900/equaldotanddens/R/11_Ratio_900_L_18_R_20.png","img/750/randomdotsizeEA/L/14_Ratio_750_L_8_R_6.png","img/500/equaldotanddens/L/13_Ratio_500_L_12_R_6.png","img/750/equaldotanddens/R/15_Ratio_750_L_9_R_12.png","img/500/equaldotsize/L/10_Ratio_500_L_4_R_2.png","img/250/equaldotsize/R/9_Ratio_250_L_3_R_12.png","img/900/randomdotsizeEA/L/2_Ratio_900_L_20_R_18.png","img/250/randomdotsizeEA/L/2_Ratio_250_L_16_R_4.png","img/250/randomdotsizeEA/R/4_Ratio_250_L_3_R_12.png","img/900/equaldotsize/R/9_Ratio_900_L_18_R_20.png","img/500/equaldotsize/L/11_Ratio_500_L_12_R_6.png","img/500/randomdotsizeEA/L/7_Ratio_500_L_10_R_5.png","img/750/equaldotsize/R/3_Ratio_750_L_15_R_20.png","img/500/equaldotsize/R/15_Ratio_500_L_1_R_2.png","img/500/equaldotsize/R/6_Ratio_500_L_9_R_18.png","img/250/equaldotsize/L/2_Ratio_250_L_16_R_4.png","img/500/randomdotsizeEA/L/5_Ratio_500_L_4_R_2.png","img/900/equaldotsize/L/10_Ratio_900_L_20_R_18.png","img/250/equaldotanddens/R/10_Ratio_250_L_4_R_16.png","img/250/equaldotsize/L/5_Ratio_250_L_24_R_6.png","img/750/randomdotsizeEA/R/2_Ratio_750_L_6_R_8.png","img/250/randomdotsizeEA/R/12_Ratio_250_L_5_R_20.png","img/900/equaldotsize/R/15_Ratio_900_L_9_R_10.png","img/900/randomdotsizeEA/L/4_Ratio_900_L_20_R_18.png","img/500/randomdotsizeEA/L/8_Ratio_500_L_8_R_4.png","img/500/randomdotsizeEA/L/7_Ratio_500_L_10_R_5.png","img/900/equaldotanddens/R/7_Ratio_900_L_9_R_10.png","img/500/equaldotanddens/L/7_Ratio_500_L_10_R_5.png","img/750/equaldotsize/R/4_Ratio_750_L_15_R_20.png","img/900/equaldotanddens/L/2_Ratio_900_L_20_R_18.png","img/500/randomdotsizeEA/R/2_Ratio_500_L_3_R_6.png","img/900/equaldotanddens/R/6_Ratio_900_L_9_R_10.png","img/750/equaldotanddens/R/15_Ratio_750_L_9_R_12.png","img/500/equaldotsize/L/8_Ratio_500_L_8_R_4.png","img/900/equaldotsize/L/4_Ratio_900_L_20_R_18.png","img/900/equaldotsize/R/14_Ratio_900_L_18_R_20.png","img/900/equaldotsize/L/8_Ratio_900_L_20_R_18.png","img/750/equaldotanddens/R/12_Ratio_750_L_3_R_4.png","img/500/equaldotanddens/R/1_Ratio_500_L_9_R_18.png","img/500/equaldotsize/L/8_Ratio_500_L_8_R_4.png","img/250/equaldotanddens/L/14_Ratio_250_L_12_R_3.png","img/250/equaldotsize/R/4_Ratio_250_L_3_R_12.png","img/750/randomdotsizeEA/R/11_Ratio_750_L_12_R_16.png","img/250/equaldotanddens/L/7_Ratio_250_L_8_R_2.png","img/750/equaldotsize/L/10_Ratio_750_L_4_R_3.png","img/900/randomdotsizeEA/R/7_Ratio_900_L_9_R_10.png","img/250/randomdotsizeEA/L/15_Ratio_250_L_12_R_3.png","img/250/randomdotsizeEA/L/7_Ratio_250_L_8_R_2.png","img/500/randomdotsizeEA/L/11_Ratio_500_L_12_R_6.png","img/750/equaldotanddens/R/15_Ratio_750_L_9_R_12.png","img/500/randomdotsizeEA/L/7_Ratio_500_L_10_R_5.png","img/250/equaldotanddens/L/5_Ratio_250_L_24_R_6.png","img/750/equaldotsize/L/9_Ratio_750_L_4_R_3.png","img/250/equaldotsize/R/10_Ratio_250_L_4_R_16.png","img/250/randomdotsizeEA/R/11_Ratio_250_L_3_R_12.png","img/250/equaldotsize/L/15_Ratio_250_L_12_R_3.png","img/500/equaldotanddens/L/7_Ratio_500_L_10_R_5.png","img/500/equaldotsize/R/3_Ratio_500_L_10_R_20.png","img/900/randomdotsizeEA/R/15_Ratio_900_L_9_R_10.png","img/250/equaldotsize/L/2_Ratio_250_L_16_R_4.png","img/500/randomdotsizeEA/R/2_Ratio_500_L_3_R_6.png","img/250/randomdotsizeEA/L/15_Ratio_250_L_12_R_3.png","img/900/randomdotsizeEA/R/15_Ratio_900_L_9_R_10.png","img/250/randomdotsizeEA/R/6_Ratio_250_L_6_R_24.png","img/900/equaldotanddens/R/13_Ratio_900_L_18_R_20.png","img/250/equaldotanddens/R/4_Ratio_250_L_3_R_12.png","img/250/randomdotsizeEA/L/3_Ratio_250_L_8_R_2.png","img/750/randomdotsizeEA/L/1_Ratio_750_L_20_R_15.png","img/750/equaldotanddens/R/5_Ratio_750_L_15_R_20.png","img/750/randomdotsizeEA/L/8_Ratio_750_L_4_R_3.png","img/750/randomdotsizeEA/L/1_Ratio_750_L_20_R_15.png","img/900/equaldotanddens/R/11_Ratio_900_L_18_R_20.png","img/900/equaldotanddens/L/10_Ratio_900_L_20_R_18.png","img/250/equaldotanddens/L/15_Ratio_250_L_12_R_3.png","img/900/randomdotsizeEA/R/9_Ratio_900_L_18_R_20.png","img/750/randomdotsizeEA/L/10_Ratio_750_L_4_R_3.png","img/500/equaldotanddens/L/8_Ratio_500_L_8_R_4.png","img/900/equaldotsize/R/12_Ratio_900_L_18_R_20.png","img/750/randomdotsizeEA/L/10_Ratio_750_L_4_R_3.png","img/250/equaldotanddens/R/12_Ratio_250_L_5_R_20.png","img/750/equaldotsize/R/2_Ratio_750_L_6_R_8.png","img/500/equaldotanddens/R/3_Ratio_500_L_10_R_20.png","img/750/equaldotsize/L/10_Ratio_750_L_4_R_3.png","img/250/equaldotanddens/R/6_Ratio_250_L_6_R_24.png","img/500/randomdotsizeEA/L/11_Ratio_500_L_12_R_6.png","img/900/randomdotsizeEA/L/8_Ratio_900_L_20_R_18.png","img/750/equaldotanddens/L/1_Ratio_750_L_20_R_15.png","img/250/equaldotanddens/R/8_Ratio_250_L_1_R_4.png","img/250/equaldotanddens/L/15_Ratio_250_L_12_R_3.png","img/750/randomdotsizeEA/L/1_Ratio_750_L_20_R_15.png","img/900/randomdotsizeEA/L/8_Ratio_900_L_20_R_18.png","img/250/equaldotsize/R/8_Ratio_250_L_1_R_4.png","img/500/equaldotsize/R/15_Ratio_500_L_1_R_2.png","img/750/equaldotanddens/L/9_Ratio_750_L_4_R_3.png","img/250/equaldotsize/R/11_Ratio_250_L_3_R_12.png","img/900/randomdotsizeEA/R/3_Ratio_900_L_9_R_10.png","img/900/equaldotanddens/R/3_Ratio_900_L_9_R_10.png","img/900/randomdotsizeEA/L/8_Ratio_900_L_20_R_18.png","img/900/equaldotanddens/L/2_Ratio_900_L_20_R_18.png"],"Rat0":[["12_Ratio_0_L_9_R_0.png","13_Ratio_0_L_6_R_0.png","5_Ratio_0_L_2_R_0.png","6_Ratio_0_L_4_R_0.png","8_Ratio_0_L_6_R_0.png"],["1_Ratio_0_L_0_R_17.png","10_Ratio_0_L_0_R_22.png","11_Ratio_0_L_0_R_1.png","14_Ratio_0_L_0_R_24.png","15_Ratio_0_L_0_R_4.png","2_Ratio_0_L_0_R_5.png","3_Ratio_0_L_0_R_17.png","4_Ratio_0_L_0_R_7.png","7_Ratio_0_L_0_R_19.png","9_Ratio_0_L_0_R_15.png"]],"Rat250":[["1_Ratio_250_L_8_R_2.png","14_Ratio_250_L_12_R_3.png","15_Ratio_250_L_12_R_3.png","2_Ratio_250_L_16_R_4.png","3_Ratio_250_L_8_R_2.png","5_Ratio_250_L_24_R_6.png","7_Ratio_250_L_8_R_2.png"],["10_Ratio_250_L_4_R_16.png","11_Ratio_250_L_3_R_12.png","12_Ratio_250_L_5_R_20.png","13_Ratio_250_L_2_R_8.png","4_Ratio_250_L_3_R_12.png","6_Ratio_250_L_6_R_24.png","8_Ratio_250_L_1_R_4.png","9_Ratio_250_L_3_R_12.png"]],"Rat500":[["10_Ratio_500_L_4_R_2.png","11_Ratio_500_L_12_R_6.png","13_Ratio_500_L_12_R_6.png","4_Ratio_500_L_18_R_9.png","5_Ratio_500_L_4_R_2.png","7_Ratio_500_L_10_R_5.png","8_Ratio_500_L_8_R_4.png"],["1_Ratio_500_L_9_R_18.png","12_Ratio_500_L_1_R_2.png","14_Ratio_500_L_5_R_10.png","15_Ratio_500_L_1_R_2.png","2_Ratio_500_L_3_R_6.png","3_Ratio_500_L_10_R_20.png","6_Ratio_500_L_9_R_18.png","9_Ratio_500_L_2_R_4.png"]],"Rat750":[["1_Ratio_750_L_20_R_15.png","10_Ratio_750_L_4_R_3.png","13_Ratio_750_L_8_R_6.png","14_Ratio_750_L_8_R_6.png","6_Ratio_750_L_24_R_18.png","8_Ratio_750_L_4_R_3.png","9_Ratio_750_L_4_R_3.png"],["11_Ratio_750_L_12_R_16.png","12_Ratio_750_L_3_R_4.png","15_Ratio_750_L_9_R_12.png","2_Ratio_750_L_6_R_8.png","3_Ratio_750_L_15_R_20.png","4_Ratio_750_L_15_R_20.png","5_Ratio_750_L_15_R_20.png","7_Ratio_750_L_3_R_4.png"]],"Rat900":[["1_Ratio_900_L_10_R_9.png","10_Ratio_900_L_20_R_18.png","2_Ratio_900_L_20_R_18.png","4_Ratio_900_L_20_R_18.png","8_Ratio_900_L_20_R_18.png"],["11_Ratio_900_L_18_R_20.png","12_Ratio_900_L_18_R_20.png","13_Ratio_900_L_18_R_20.png","14_Ratio_900_L_18_R_20.png","15_Ratio_900_L_9_R_10.png","3_Ratio_900_L_9_R_10.png","5_Ratio_900_L_9_R_10.png","6_Ratio_900_L_9_R_10.png","7_Ratio_900_L_9_R_10.png","9_Ratio_900_L_18_R_20.png"]],"Rat1000":[["10_Ratio_1000_L_16_R_16.png","11_Ratio_1000_L_6_R_6.png","12_Ratio_1000_L_14_R_14.png","13_Ratio_1000_L_20_R_20.png","15_Ratio_1000_L_15_R_15.png","2_Ratio_1000_L_17_R_17.png","4_Ratio_1000_L_9_R_9.png","5_Ratio_1000_L_6_R_6.png","6_Ratio_1000_L_19_R_19.png","8_Ratio_1000_L_14_R_14.png","9_Ratio_1000_L_25_R_25.png"],["1_Ratio_1000_L_1_R_1.png","14_Ratio_1000_L_17_R_17.png","3_Ratio_1000_L_17_R_17.png","7_Ratio_1000_L_6_R_6.png"]]}},{"start_time":1551900305692,"click_time":1551900306843,"finger_time":1551900306481,"fix_duration":727.8952200152198,"trial":1,"RT":789,"MT":362,"sideResp":1,"stimulus":"img/900/equaldotsize/L/2_Ratio_900_L_20_R_18.png","xmouse":[783,783,783,783,783,783,783,783,783,783,783,783,783,783,783,783,783,783,783,783,783,783,783,783,783,783,783,783,783,783,783,783,783,783,783,783,783,783,789,833,854,876,881,871,821,801,786,773,761,721,698,698,698,698,698,550,530,514],"ymouse":[479,479,479,479,479,479,479,479,479,479,479,479,479,479,479,479,479,479,479,479,479,479,479,479,479,479,479,479,479,479,479,479,479,479,479,479,479,479,462,349,263,185,126,78,21,17,17,17,17,7,0,0,0,0,0,15,29,39],"timestamp_mouse":[10,30,51,83,91,110,130,151,171,189,210,230,251,270,289,310,330,350,369,389,410,430,449,469,490,509,530,551,570,589,610,630,649,670,690,710,730,749,769,789,809,829,850,871,890,909,929,949,970,990,1011,1029,1049,1069,1089,1109,1129,1150],"xSR":741.5,"ySR":449.15000000000003,"xT1":424.9,"yT1":0,"xT2":1058.1,"yT2":0,"toosoon":0,"cond_shown":"equaldotsize","ratio_trial":900,"smaller_num":"18","larger_num":"20","correct_side":1,"subjID":"MelianFino1","gender":"1","age":"12","school":"6"},{"start_time":1551900309203,"click_time":1551900310563,"finger_time":1551900310382,"fix_duration":1419.4074155710155,"trial":2,"RT":1179,"MT":181,"sideResp":2,"stimulus":"img/500/randomdotsizeEA/R/15_Ratio_500_L_1_R_2.png","xmouse":[782,782,782,782,782,782,782,782,782,782,782,782,782,782,782,782,782,782,782,782,782,782,782,782,782,782,782,782,782,782,782,782,782,782,782,782,782,782,782,782,782,782,782,782,782,782,782,782,782,782,782,782,782,782,782,782,782,797,827,938,979,998,1008,1027,1043,1055,1063,1065],"ymouse":[488,488,488,488,488,488,488,488,488,488,488,488,488,488,488,488,488,488,488,488,488,488,488,488,488,488,488,488,488,488,488,488,488,488,488,488,488,488,488,488,488,488,488,488,488,488,488,488,488,488,488,488,488,488,488,488,488,482,445,323,294,280,271,242,208,159,110,82],"timestamp_mouse":[19,39,68,79,99,119,138,159,178,199,219,238,259,279,299,318,339,359,378,399,420,438,458,479,499,519,539,559,578,598,619,638,660,680,698,719,739,758,780,800,819,838,858,879,899,919,939,959,979,999,1018,1039,1058,1079,1100,1119,1138,1160,1179,1198,1219,1239,1258,1281,1299,1318,1339,1359],"xSR":741.5,"ySR":449.15000000000003,"xT1":424.9,"yT1":0,"xT2":1058.1,"yT2":0,"toosoon":0,"cond_shown":"randomdotsizeEA","ratio_trial":500,"smaller_num":"1","larger_num":"2","correct_side":2,"subjID":"MelianFino1","gender":"1","age":"12","school":"6"},{"start_time":1551900312147,"click_time":1551900313242,"finger_time":1551900313081,"fix_duration":565.2603384703515,"trial":3,"RT":934,"MT":161,"sideResp":2,"stimulus":"img/500/equaldotanddens/R/9_Ratio_500_L_2_R_4.png","xmouse":[799,799,799,799,799,799,799,799,799,799,799,799,799,799,799,799,799,799,799,799,799,799,799,799,799,799,799,799,799,799,799,799,799,799,799,799,799,799,799,799,799,799,799,799,813,835,905,1040,1075,1090,1090,1090,1092,1097,1103],"ymouse":[481,481,481,481,481,481,481,481,481,481,481,481,481,481,481,481,481,481,481,481,481,481,481,481,481,481,481,481,481,481,481,481,481,481,481,481,481,481,481,481,481,481,481,481,479,466,422,295,232,175,156,143,121,105,87],"timestamp_mouse":[14,35,56,74,95,115,134,154,174,195,216,235,255,275,294,314,336,354,374,396,415,434,454,475,495,515,534,556,575,595,616,635,654,674,694,715,734,755,775,795,815,835,854,874,894,915,934,955,975,995,1014,1034,1055,1074,1094],"xSR":741.5,"ySR":449.15000000000003,"xT1":424.9,"yT1":0,"xT2":1058.1,"yT2":0,"toosoon":0,"cond_shown":"equaldotanddens","ratio_trial":500,"smaller_num":"2","larger_num":"4","correct_side":2,"subjID":"MelianFino1","gender":"1","age":"12","school":"6"},{"start_time":1551900315067,"click_time":1551900316381,"finger_time":1551900316021,"fix_duration":904.1263517317377,"trial":4,"RT":954,"MT":360,"sideResp":2,"stimulus":"img/250/randomdotsizeEA/R/13_Ratio_250_L_2_R_8.png","xmouse":[810,810,810,810,810,810,810,810,810,810,810,810,810,810,810,810,810,810,810,810,810,810,810,810,810,810,810,810,810,810,810,810,810,810,810,810,810,810,810,810,810,810,810,810,810,810,818,865,928,994,1045,1080,1080,1080,1081,1084,1089,1094,1096,1098,1098,1098,1099,1099,1101,1102],"ymouse":[479,479,479,479,479,479,479,479,479,479,479,479,479,479,479,479,479,479,479,479,479,479,479,479,479,479,479,479,479,479,479,479,479,479,479,479,479,479,479,479,479,479,479,479,479,479,476,443,398,346,304,263,261,259,252,241,200,175,150,130,119,111,109,106,103,99],"timestamp_mouse":[15,35,67,75,94,115,134,155,176,194,214,234,255,275,294,315,335,354,375,396,415,435,454,474,494,515,535,555,574,594,615,635,655,674,694,716,736,755,774,794,815,834,854,874,895,914,935,954,974,994,1015,1036,1054,1074,1095,1114,1135,1154,1174,1194,1216,1236,1254,1274,1294,1314],"xSR":741.5,"ySR":449.15000000000003,"xT1":424.9,"yT1":0,"xT2":1058.1,"yT2":0,"toosoon":0,"cond_shown":"randomdotsizeEA","ratio_trial":250,"smaller_num":"2","larger_num":"8","correct_side":2,"subjID":"MelianFino1","gender":"1","age":"12","school":"6"},{"start_time":1551900317999,"click_time":1551900319022,"finger_time":1551900318861,"fix_duration":996.7647158710056,"trial":5,"RT":862,"MT":161,"sideResp":2,"stimulus":"img/900/equaldotanddens/L/1_Ratio_900_L_10_R_9.png","xmouse":[829,829,829,829,829,829,829,829,829,829,829,829,829,829,829,829,829,829,829,829,829,829,829,829,829,829,829,829,829,829,829,829,829,829,829,829,829,829,829,829,829,829,837,849,891,986,1073,1082,1085,1086,1086,1087],"ymouse":[481,481,481,481,481,481,481,481,481,481,481,481,481,481,481,481,481,481,481,481,481,481,481,481,481,481,481,481,481,481,481,481,481,481,481,481,481,481,481,481,481,481,474,459,401,265,140,117,105,101,100,95],"timestamp_mouse":[9,22,49,62,83,103,123,143,162,183,203,223,243,263,282,302,322,343,363,384,403,422,442,463,483,503,523,543,563,582,603,622,642,664,682,703,722,743,762,783,803,822,843,862,882,903,922,942,962,982,1003,1023],"xSR":741.5,"ySR":449.15000000000003,"xT1":424.9,"yT1":0,"xT2":1058.1,"yT2":0,"toosoon":0,"cond_shown":"equaldotanddens","ratio_trial":900,"smaller_num":"9","larger_num":"10","correct_side":1,"subjID":"MelianFino1","gender":"1","age":"12","school":"6"},{"start_time":1551900321339,"click_time":1551900323981,"finger_time":1551900323702,"fix_duration":1475.2596250684014,"trial":6,"RT":2363,"MT":279,"sideResp":2,"stimulus":"img/750/equaldotsize/R/2_Ratio_750_L_6_R_8.png","xmouse":[770,770,770,770,770,770,770,770,770,770,770,770,770,770,770,770,770,770,770,770,770,770,770,770,770,770,770,770,770,770,770,770,770,770,770,770,770,770,770,770,770,770,770,770,773,778,782,783,783,783,783,783,783,783,783,783,783,783,783,783,783,783,783,783,783,783,783,783,783,783,783,783,783,783,783,783,783,783,783,783,783,783,783,783,783,783,783,783,783,783,783,783,783,783,783,783,783,783,783,783,783,783,783,783,783,783,783,783,783,783,783,783,783,783,783,783,796,831,868,925,937,942,943,943,943,950,964,982,1003,1020,1048,1057,1065],"ymouse":[513,513,513,513,513,513,513,513,513,513,513,513,513,513,513,513,513,513,513,513,513,513,513,513,513,513,513,513,513,513,513,513,513,513,513,513,513,513,513,513,513,513,513,513,513,508,503,503,503,503,503,503,503,503,503,503,503,503,503,503,503,503,503,503,503,503,503,503,503,503,503,503,503,503,503,503,503,503,503,503,503,503,503,503,503,503,503,503,503,503,503,503,503,503,503,503,503,503,503,503,503,503,503,503,503,503,503,503,503,503,503,503,503,503,503,503,493,452,409,349,334,327,324,324,324,311,288,251,210,176,123,102,86],"timestamp_mouse":[9,22,43,64,82,102,122,142,164,182,202,222,243,263,283,302,323,342,363,383,403,422,442,462,483,502,523,543,562,582,603,623,642,662,683,702,723,744,763,782,802,822,842,863,882,902,922,942,962,982,1003,1022,1042,1062,1083,1103,1124,1143,1162,1182,1202,1223,1244,1263,1282,1303,1324,1342,1363,1383,1403,1422,1444,1464,1482,1503,1522,1543,1563,1582,1603,1622,1644,1663,1682,1703,1723,1743,1762,1782,1802,1823,1844,1863,1883,1904,1922,1943,1963,1982,2003,2022,2042,2062,2083,2103,2122,2142,2163,2183,2202,2223,2242,2262,2282,2303,2322,2342,2363,2383,2402,2422,2443,2462,2483,2502,2522,2543,2562,2582,2602,2623,2642],"xSR":741.5,"ySR":449.15000000000003,"xT1":424.9,"yT1":0,"xT2":1058.1,"yT2":0,"toosoon":0,"cond_shown":"equaldotsize","ratio_trial":750,"smaller_num":"6","larger_num":"8","correct_side":2,"subjID":"MelianFino1","gender":"1","age":"12","school":"6"},{"start_time":1551900325814,"click_time":1551900326882,"finger_time":1551900326602,"fix_duration":1072.3314109583146,"trial":7,"RT":788,"MT":280,"sideResp":1,"stimulus":"img/500/equaldotanddens/L/10_Ratio_500_L_4_R_2.png","xmouse":[773,773,773,773,773,773,773,773,773,773,773,773,773,773,773,773,773,773,773,773,773,773,773,773,773,773,773,773,773,773,773,773,773,773,773,773,773,771,755,724,655,640,629,618,607,577,560,546,538,535,534,526,502,478],"ymouse":[506,506,506,506,506,506,506,506,506,506,506,506,506,506,506,506,506,506,506,506,506,506,506,506,506,506,506,506,506,506,506,506,506,506,506,506,506,505,459,396,290,268,250,233,214,168,148,133,125,123,122,118,107,97],"timestamp_mouse":[9,27,47,67,89,107,128,148,167,189,207,227,248,268,289,308,327,348,367,387,408,428,448,468,487,507,528,548,568,587,608,627,648,668,687,708,727,748,768,788,809,827,847,867,887,909,927,947,967,988,1009,1027,1047,1068],"xSR":741.5,"ySR":449.15000000000003,"xT1":424.9,"yT1":0,"xT2":1058.1,"yT2":0,"toosoon":0,"cond_shown":"equaldotanddens","ratio_trial":500,"smaller_num":"2","larger_num":"4","correct_side":1,"subjID":"MelianFino1","gender":"1","age":"12","school":"6"},{"start_time":1551900328452,"click_time":1551900329641,"finger_time":1551900329541,"fix_duration":808.0381339886841,"trial":8,"RT":1089,"MT":100,"sideResp":1,"stimulus":"img/750/equaldotsize/L/10_Ratio_750_L_4_R_3.png","xmouse":[768,768,768,768,768,768,768,768,768,768,768,768,768,768,768,768,768,768,768,768,768,768,768,768,768,768,768,768,768,768,768,768,768,768,768,768,768,768,768,768,768,768,768,768,768,768,768,768,768,768,768,768,768,768,711,656,603,534,507,489],"ymouse":[497,497,497,497,497,497,497,497,497,497,497,497,497,497,497,497,497,497,497,497,497,497,497,497,497,497,497,497,497,497,497,497,497,497,497,497,497,497,497,497,497,497,497,497,497,497,497,497,497,497,497,497,497,488,382,299,222,143,113,95],"timestamp_mouse":[10,29,49,70,89,110,130,149,169,189,209,229,249,269,289,310,330,349,370,390,411,429,449,469,490,510,530,550,569,590,610,630,650,670,690,710,729,750,769,789,809,830,850,870,889,909,930,950,970,989,1009,1030,1049,1070,1089,1109,1130,1149,1169,1189],"xSR":741.5,"ySR":449.15000000000003,"xT1":424.9,"yT1":0,"xT2":1058.1,"yT2":0,"toosoon":0,"cond_shown":"equaldotsize","ratio_trial":750,"smaller_num":"3","larger_num":"4","correct_side":1,"subjID":"MelianFino1","gender":"1","age":"12","school":"6"},{"start_time":1551900330933,"click_time":1551900331921,"finger_time":1551900331721,"fix_duration":250,"trial":9,"RT":788,"MT":200,"sideResp":2,"stimulus":"img/750/equaldotsize/R/12_Ratio_750_L_3_R_4.png","xmouse":[762,762,762,762,762,762,762,762,762,762,762,762,762,762,762,762,762,762,762,762,762,762,762,762,762,762,762,762,762,762,762,762,762,762,762,762,763,789,838,887,1012,1048,1058,1062,1066,1069,1070,1072,1072,1072],"ymouse":[498,498,498,498,498,498,498,498,498,498,498,498,498,498,498,498,498,498,498,498,498,498,498,498,498,498,498,498,498,498,498,498,498,498,498,498,498,487,452,407,262,212,192,174,159,139,129,114,102,89],"timestamp_mouse":[10,40,48,68,88,109,129,149,168,189,209,229,250,270,288,309,329,349,369,390,409,429,449,468,488,509,528,549,569,589,609,629,648,669,689,708,728,749,768,788,809,828,848,868,889,909,928,948,969,988],"xSR":741.5,"ySR":449.15000000000003,"xT1":424.9,"yT1":0,"xT2":1058.1,"yT2":0,"toosoon":0,"cond_shown":"equaldotsize","ratio_trial":750,"smaller_num":"3","larger_num":"4","correct_side":2,"subjID":"MelianFino1","gender":"1","age":"12","school":"6"},{"start_time":1551900333260,"click_time":1551900334343,"finger_time":1551900334042,"fix_duration":396.2257244445991,"trial":10,"RT":782,"MT":301,"sideResp":1,"stimulus":"img/750/equaldotanddens/L/13_Ratio_750_L_8_R_6.png","xmouse":[787,787,787,787,787,787,787,787,787,787,787,787,787,787,787,787,787,787,787,787,787,787,787,787,787,787,787,787,787,787,787,787,787,787,787,787,787,783,780,740,712,678,653,636,614,608,606,604,604,604,594,581,564,543,517],"ymouse":[483,483,483,483,483,483,483,483,483,483,483,483,483,483,483,483,483,483,483,483,483,483,483,483,483,483,483,483,483,483,483,483,483,483,483,483,483,473,461,375,310,244,197,161,108,96,90,89,89,87,80,73,63,52,42],"timestamp_mouse":[9,22,41,66,82,102,122,142,162,181,201,221,241,262,282,301,321,342,363,382,402,422,442,462,482,502,521,542,562,583,602,622,641,661,681,702,721,741,762,782,801,821,842,862,883,901,922,941,961,983,1001,1021,1041,1062,1083],"xSR":741.5,"ySR":449.15000000000003,"xT1":424.9,"yT1":0,"xT2":1058.1,"yT2":0,"toosoon":0,"cond_shown":"equaldotanddens","ratio_trial":750,"smaller_num":"6","larger_num":"8","correct_side":1,"subjID":"MelianFino1","gender":"1","age":"12","school":"6"},{"start_time":1551900335660,"click_time":1551900336681,"finger_time":1551900336361,"fix_duration":555.6500055530524,"trial":11,"RT":701,"MT":320,"sideResp":2,"stimulus":"img/500/equaldotsize/R/12_Ratio_500_L_1_R_2.png","xmouse":[786,786,786,786,786,786,786,786,786,786,786,786,786,786,786,786,786,786,786,786,786,786,786,786,786,786,786,786,786,786,786,786,786,787,802,876,909,937,948,955,965,971,978,986,995,1011,1018,1025,1034,1043,1058,1061],"ymouse":[478,478,478,478,478,478,478,478,478,478,478,478,478,478,478,478,478,478,478,478,478,478,478,478,478,478,478,478,478,478,478,478,478,479,479,444,421,396,380,367,328,300,274,243,222,179,159,140,122,105,80,75],"timestamp_mouse":[9,21,41,64,82,102,121,143,162,182,202,221,242,262,281,301,322,341,363,382,401,421,442,461,482,502,522,542,561,581,602,621,641,661,681,701,721,741,762,782,801,822,842,862,882,902,921,942,962,981,1001,1021],"xSR":741.5,"ySR":449.15000000000003,"xT1":424.9,"yT1":0,"xT2":1058.1,"yT2":0,"toosoon":0,"cond_shown":"equaldotsize","ratio_trial":500,"smaller_num":"1","larger_num":"2","correct_side":2,"subjID":"MelianFino1","gender":"1","age":"12","school":"6"},{"start_time":1551900338591,"click_time":1551900340222,"finger_time":1551900339841,"fix_duration":1187.813730876876,"trial":12,"RT":1250,"MT":381,"sideResp":1,"stimulus":"img/900/equaldotsize/R/11_Ratio_900_L_18_R_20.png","xmouse":[792,792,792,792,792,792,792,792,792,792,792,792,792,792,792,792,792,792,792,792,792,792,792,792,792,792,792,792,792,792,792,792,792,792,792,792,792,792,792,792,792,792,792,792,792,792,792,792,792,792,792,792,792,792,792,792,792,792,792,792,791,784,764,715,700,689,687,687,673,658,638,614,593,565,553,534,522,516,511,508,508,510],"ymouse":[511,511,511,511,511,511,511,511,511,511,511,511,511,511,511,511,511,511,511,511,511,511,511,511,511,511,511,511,511,511,511,511,511,511,511,511,511,511,511,511,511,511,511,511,511,511,511,511,511,511,511,511,511,511,511,511,511,511,511,511,503,482,424,334,310,294,291,290,272,255,235,217,201,180,170,153,142,135,126,113,106,96],"timestamp_mouse":[10,40,51,72,90,110,130,151,170,191,211,230,252,271,291,310,331,352,370,390,410,431,451,470,491,510,531,550,572,591,610,630,652,671,691,711,730,751,771,790,810,830,850,870,891,911,931,951,970,991,1012,1030,1051,1071,1091,1110,1130,1151,1170,1192,1211,1230,1250,1271,1291,1311,1331,1351,1371,1390,1410,1430,1450,1471,1490,1510,1531,1550,1570,1590,1611,1631],"xSR":741.5,"ySR":449.15000000000003,"xT1":424.9,"yT1":0,"xT2":1058.1,"yT2":0,"toosoon":0,"cond_shown":"equaldotsize","ratio_trial":900,"smaller_num":"18","larger_num":"20","correct_side":2,"subjID":"MelianFino1","gender":"1","age":"12","school":"6"},{"start_time":1551900342198,"click_time":1551900343581,"finger_time":1551900343381,"fix_duration":1176.4839938713048,"trial":13,"RT":1183,"MT":200,"sideResp":2,"stimulus":"img/500/equaldotsize/R/9_Ratio_500_L_2_R_4.png","xmouse":[808,808,808,808,808,808,808,808,808,808,808,808,808,808,808,808,808,808,808,808,808,808,808,808,808,808,808,808,808,808,808,808,808,808,808,808,808,808,808,808,808,808,808,808,808,808,808,808,808,808,808,808,808,808,808,808,808,818,839,866,905,946,980,1006,1024,1027,1030,1037,1055,1067],"ymouse":[500,500,500,500,500,500,500,500,500,500,500,500,500,500,500,500,500,500,500,500,500,500,500,500,500,500,500,500,500,500,500,500,500,500,500,500,500,500,500,500,500,500,500,500,500,500,500,500,500,500,500,500,500,500,500,500,500,493,466,438,395,340,284,224,151,130,118,106,78,60],"timestamp_mouse":[9,32,44,64,83,103,123,145,164,184,203,225,243,264,284,303,323,344,363,383,403,424,445,464,484,503,524,543,564,584,604,624,644,664,685,704,724,743,763,784,804,824,844,863,884,904,923,944,963,984,1003,1023,1043,1063,1083,1103,1124,1143,1164,1183,1203,1224,1243,1264,1285,1303,1324,1343,1365,1383],"xSR":741.5,"ySR":449.15000000000003,"xT1":424.9,"yT1":0,"xT2":1058.1,"yT2":0,"toosoon":0,"cond_shown":"equaldotsize","ratio_trial":500,"smaller_num":"2","larger_num":"4","correct_side":2,"subjID":"MelianFino1","gender":"1","age":"12","school":"6"},{"start_time":1551900346114,"click_time":1551900347482,"finger_time":1551900347141,"fix_duration":250,"trial":14,"RT":1027,"MT":341,"sideResp":1,"stimulus":"img/750/equaldotanddens/L/10_Ratio_750_L_4_R_3.png","xmouse":[796,796,796,796,796,796,796,796,796,796,796,796,796,796,796,796,796,796,796,796,796,796,796,796,796,796,796,796,796,796,796,796,796,796,796,796,796,796,796,796,796,796,796,796,796,796,796,796,796,785,763,718,641,509,471,445,439,437,437,437,437,436,435,435,435,436,442,449,455],"ymouse":[521,521,521,521,521,521,521,521,521,521,521,521,521,521,521,521,521,521,521,521,521,521,521,521,521,521,521,521,521,521,521,521,521,521,521,521,521,521,521,521,521,521,521,521,521,521,521,521,519,507,489,455,398,283,242,197,179,165,150,143,134,126,120,118,117,115,109,103,95],"timestamp_mouse":[10,41,47,67,89,108,128,147,168,188,208,227,247,267,287,307,328,348,368,388,408,428,449,468,488,507,527,548,567,587,607,628,648,667,688,708,727,748,767,787,808,828,847,868,887,908,928,947,967,987,1007,1027,1048,1068,1088,1108,1128,1147,1167,1187,1208,1228,1247,1267,1287,1307,1328,1348,1368],"xSR":741.5,"ySR":449.15000000000003,"xT1":424.9,"yT1":0,"xT2":1058.1,"yT2":0,"toosoon":0,"cond_shown":"equaldotanddens","ratio_trial":750,"smaller_num":"3","larger_num":"4","correct_side":1,"subjID":"MelianFino1","gender":"1","age":"12","school":"6"},{"start_time":1551900349008,"click_time":1551900351242,"finger_time":1551900350021,"fix_duration":705.2247934367753,"trial":15,"RT":1013,"MT":1221,"sideResp":1,"stimulus":"img/750/equaldotsize/L/8_Ratio_750_L_4_R_3.png","xmouse":[777,777,777,777,777,777,777,777,777,777,777,777,777,777,777,777,777,777,777,777,777,777,777,777,777,777,777,777,777,777,777,777,777,777,777,777,777,777,777,777,777,777,777,777,777,777,777,777,777,752,738,726,720,718,718,718,718,717,713,691,684,682,682,682,682,681,678,670,639,622,606,589,572,554,523,512,506,500,491,487,486,486,486,486,486,486,486,485,484,484,484,484,484,484,484,484,484,484,484,484,484,484,484,484,484,484,484,484,484,484,484,484],"ymouse":[501,501,501,501,501,501,501,501,501,501,501,501,501,501,501,501,501,501,501,501,501,501,501,501,501,501,501,501,501,501,501,501,501,501,501,501,501,501,501,501,501,501,501,501,501,501,501,501,493,451,431,417,411,408,408,408,408,405,400,373,368,366,366,366,366,365,362,349,310,291,273,256,240,223,191,177,168,157,140,131,127,126,125,122,116,112,109,105,101,100,100,100,100,100,100,100,100,100,100,100,100,100,100,100,100,100,100,100,100,100,100,99],"timestamp_mouse":[14,39,53,73,94,114,133,153,174,194,214,234,255,273,295,314,334,353,375,394,413,435,453,474,494,513,535,554,574,595,614,633,653,673,694,714,733,754,774,794,813,834,853,874,894,913,934,953,973,994,1013,1033,1053,1073,1093,1113,1133,1153,1173,1193,1213,1234,1254,1274,1293,1314,1333,1354,1375,1393,1414,1433,1454,1473,1493,1514,1533,1554,1574,1593,1614,1634,1653,1673,1693,1713,1733,1754,1775,1793,1813,1834,1854,1874,1894,1913,1934,1954,1974,1994,2013,2034,2054,2073,2093,2113,2133,2154,2174,2194,2214,2234],"xSR":741.5,"ySR":449.15000000000003,"xT1":424.9,"yT1":0,"xT2":1058.1,"yT2":0,"toosoon":0,"cond_shown":"equaldotsize","ratio_trial":750,"smaller_num":"3","larger_num":"4","correct_side":1,"subjID":"MelianFino1","gender":"1","age":"12","school":"6"},{"start_time":1551900354116,"click_time":1551900355601,"finger_time":1551900355382,"fix_duration":572.4511080425766,"trial":16,"RT":1266,"MT":219,"sideResp":2,"stimulus":"img/750/equaldotanddens/R/4_Ratio_750_L_15_R_20.png","xmouse":[794,794,794,794,794,794,794,794,794,794,794,794,794,794,794,794,794,794,794,794,794,794,794,794,794,794,794,794,794,794,794,794,794,794,794,794,794,794,794,794,794,794,794,794,794,794,794,794,794,794,794,794,794,794,794,794,794,795,797,804,805,811,825,842,870,900,923,941,954,971,978,1003,1040,1070,1089],"ymouse":[519,519,519,519,519,519,519,519,519,519,519,519,519,519,519,519,519,519,519,519,519,519,519,519,519,519,519,519,519,519,519,519,519,519,519,519,519,519,519,519,519,519,519,519,519,519,519,519,519,519,519,519,519,519,519,519,510,501,486,462,461,458,454,449,442,434,428,423,418,407,397,364,284,132,19],"timestamp_mouse":[11,26,45,67,85,105,125,146,166,185,207,226,246,265,285,305,326,346,366,385,406,426,446,466,485,506,526,546,566,586,606,626,645,667,687,705,726,745,765,787,805,826,847,866,886,906,925,945,966,985,1006,1026,1045,1065,1086,1105,1125,1145,1165,1186,1206,1225,1245,1266,1285,1305,1326,1346,1366,1386,1407,1425,1446,1465,1485],"xSR":741.5,"ySR":449.15000000000003,"xT1":424.9,"yT1":0,"xT2":1058.1,"yT2":0,"toosoon":0,"cond_shown":"equaldotanddens","ratio_trial":750,"smaller_num":"15","larger_num":"20","correct_side":2,"subjID":"MelianFino1","gender":"1","age":"12","school":"6"},{"start_time":1551900357804,"click_time":1551900358902,"finger_time":1551900358522,"fix_duration":1001.9660795164223,"trial":17,"RT":718,"MT":380,"sideResp":1,"stimulus":"img/250/equaldotsize/L/14_Ratio_250_L_12_R_3.png","xmouse":[776,776,776,776,776,776,776,776,776,776,776,776,776,776,776,776,776,776,776,776,776,776,776,776,776,776,776,776,776,776,776,776,776,776,776,740,691,645,613,583,582,580,576,567,551,542,540,540,540,540,540,538,535,527,506],"ymouse":[500,500,500,500,500,500,500,500,500,500,500,500,500,500,500,500,500,500,500,500,500,500,500,500,500,500,500,500,500,500,500,500,500,500,498,388,280,198,144,103,98,95,88,73,50,41,39,39,39,39,39,39,39,43,66],"timestamp_mouse":[17,51,57,78,97,118,139,157,178,197,218,238,258,278,297,318,338,357,379,397,418,438,457,477,498,517,538,558,578,597,617,637,657,678,697,718,737,757,777,799,817,838,857,877,898,917,939,957,978,998,1017,1038,1057,1078,1098],"xSR":741.5,"ySR":449.15000000000003,"xT1":424.9,"yT1":0,"xT2":1058.1,"yT2":0,"toosoon":0,"cond_shown":"equaldotsize","ratio_trial":250,"smaller_num":"3","larger_num":"12","correct_side":1,"subjID":"MelianFino1","gender":"1","age":"12","school":"6"},{"start_time":1551900361695,"click_time":1551900362762,"finger_time":1551900362261,"fix_duration":250,"trial":18,"RT":566,"MT":501,"sideResp":2,"stimulus":"img/500/equaldotanddens/R/9_Ratio_500_L_2_R_4.png","xmouse":[792,792,792,792,792,792,792,792,792,792,792,792,792,792,792,792,792,792,792,792,792,792,792,792,792,792,792,794,830,845,936,959,975,983,986,988,993,996,999,1000,1001,1001,1001,1001,1001,1001,1001,1001,1001,1002,1002,1026,1051,1073],"ymouse":[523,523,523,523,523,523,523,523,523,523,523,523,523,523,523,523,523,523,523,523,523,523,523,523,523,523,523,507,446,424,286,239,206,185,170,155,117,98,82,70,61,61,61,61,61,61,61,61,61,61,61,57,57,57],"timestamp_mouse":[12,44,47,67,87,107,126,147,166,186,208,226,246,266,286,306,326,346,366,386,408,426,447,467,486,507,526,546,566,587,608,627,647,666,687,707,726,747,767,788,808,826,846,866,886,906,926,946,968,986,1006,1026,1046,1067],"xSR":741.5,"ySR":449.15000000000003,"xT1":424.9,"yT1":0,"xT2":1058.1,"yT2":0,"toosoon":0,"cond_shown":"equaldotanddens","ratio_trial":500,"smaller_num":"2","larger_num":"4","correct_side":2,"subjID":"MelianFino1","gender":"1","age":"12","school":"6"},{"start_time":1551900364334,"click_time":1551900365242,"finger_time":1551900365102,"fix_duration":611.2068807349608,"trial":19,"RT":768,"MT":140,"sideResp":2,"stimulus":"img/500/equaldotanddens/R/3_Ratio_500_L_10_R_20.png","xmouse":[801,801,801,801,801,801,801,801,801,801,801,801,801,801,801,801,801,801,801,801,801,801,801,801,801,801,801,801,801,801,801,801,801,801,801,801,801,803,831,922,972,1011,1031,1044,1059,1064],"ymouse":[467,467,467,467,467,467,467,467,467,467,467,467,467,467,467,467,467,467,467,467,467,467,467,467,467,467,467,467,467,467,467,467,467,467,467,467,467,467,427,317,256,206,173,146,108,91],"timestamp_mouse":[9,38,47,68,88,107,128,148,167,188,207,228,249,267,287,308,327,348,367,387,407,428,449,469,487,508,527,548,567,587,607,627,649,669,688,708,728,748,768,788,808,827,847,868,888,907],"xSR":741.5,"ySR":449.15000000000003,"xT1":424.9,"yT1":0,"xT2":1058.1,"yT2":0,"toosoon":0,"cond_shown":"equaldotanddens","ratio_trial":500,"smaller_num":"10","larger_num":"20","correct_side":2,"subjID":"MelianFino1","gender":"1","age":"12","school":"6"},{"start_time":1551900366634,"click_time":1551900368122,"finger_time":1551900367621,"fix_duration":250,"trial":20,"RT":987,"MT":501,"sideResp":1,"stimulus":"img/750/randomdotsizeEA/L/8_Ratio_750_L_4_R_3.png","xmouse":[791,791,791,791,791,791,791,791,791,791,791,791,791,791,791,791,791,791,791,791,791,791,791,791,791,791,791,791,791,791,791,791,791,791,791,791,791,791,791,791,791,791,791,791,791,791,791,791,789,764,739,717,697,688,682,679,678,674,667,658,634,624,609,593,557,540,520,503,491,485,485,484,484,482,481],"ymouse":[471,471,471,471,471,471,471,471,471,471,471,471,471,471,471,471,471,471,471,471,471,471,471,471,471,471,471,471,471,471,471,471,471,471,471,471,471,471,471,471,471,471,471,471,471,471,471,471,471,435,392,353,311,287,265,256,251,245,233,219,190,179,167,157,142,138,132,130,128,128,128,127,125,115,86],"timestamp_mouse":[9,26,47,69,88,108,126,148,168,187,206,226,247,268,287,308,327,347,367,387,408,427,448,468,487,508,526,548,568,588,606,628,647,667,687,707,726,748,766,786,808,828,847,867,886,907,927,948,966,987,1007,1027,1047,1067,1087,1106,1126,1146,1167,1186,1207,1226,1246,1266,1288,1307,1327,1347,1367,1388,1406,1427,1447,1466,1488],"xSR":741.5,"ySR":449.15000000000003,"xT1":424.9,"yT1":0,"xT2":1058.1,"yT2":0,"toosoon":0,"cond_shown":"randomdotsizeEA","ratio_trial":750,"smaller_num":"3","larger_num":"4","correct_side":1,"subjID":"MelianFino1","gender":"1","age":"12","school":"6"},{"start_time":1551900369253,"click_time":1551900371761,"finger_time":1551900371442,"fix_duration":250,"trial":21,"RT":2189,"MT":319,"sideResp":2,"stimulus":"img/900/equaldotanddens/R/11_Ratio_900_L_18_R_20.png","xmouse":[765,765,765,765,765,765,765,765,765,765,765,765,765,765,765,765,765,765,765,765,765,765,765,765,765,765,765,765,765,765,765,765,765,765,765,765,765,765,765,765,765,765,765,765,765,765,765,765,765,765,765,765,765,765,765,765,765,765,765,765,765,765,765,765,765,765,765,765,765,765,765,765,765,765,765,765,765,765,765,765,765,765,765,765,765,765,765,765,765,765,765,765,765,765,765,765,765,765,765,765,765,765,765,765,765,765,765,775,825,969,1043,1089,1110,1117,1126,1131,1131,1132,1133,1133,1131,1129,1125,1122,1113,1107],"ymouse":[497,497,497,497,497,497,497,497,497,497,497,497,497,497,497,497,497,497,497,497,497,497,497,497,497,497,497,497,497,497,497,497,497,497,497,497,497,497,497,497,497,497,497,497,497,497,497,497,497,497,497,497,497,497,497,497,497,497,497,497,497,497,497,497,497,497,497,497,497,497,497,497,497,497,497,497,497,497,497,497,497,497,497,497,497,497,497,497,497,497,497,497,497,497,497,497,497,497,497,497,497,497,497,497,497,497,498,495,458,342,285,242,219,204,183,172,170,159,149,141,137,133,129,124,109,93],"timestamp_mouse":[10,27,49,68,88,108,128,147,168,189,208,229,248,268,287,307,327,347,368,387,409,429,448,469,487,507,529,549,569,588,607,629,649,668,689,708,728,749,769,788,808,829,849,868,888,908,928,948,969,988,1009,1028,1047,1068,1089,1109,1128,1147,1167,1188,1209,1229,1248,1269,1287,1307,1328,1349,1367,1387,1409,1428,1447,1469,1489,1509,1527,1548,1568,1589,1609,1628,1647,1667,1689,1708,1728,1749,1769,1789,1808,1827,1848,1868,1888,1908,1929,1948,1969,1988,2009,2028,2047,2069,2089,2108,2128,2147,2168,2189,2207,2227,2247,2269,2287,2309,2328,2348,2367,2387,2407,2427,2447,2468,2487,2508],"xSR":741.5,"ySR":449.15000000000003,"xT1":424.9,"yT1":0,"xT2":1058.1,"yT2":0,"toosoon":0,"cond_shown":"equaldotanddens","ratio_trial":900,"smaller_num":"18","larger_num":"20","correct_side":2,"subjID":"MelianFino1","gender":"1","age":"12","school":"6"},{"start_time":1551900373630,"click_time":1551900374701,"finger_time":1551900374381,"fix_duration":1047.0485204535273,"trial":22,"RT":751,"MT":320,"sideResp":1,"stimulus":"img/750/randomdotsizeEA/L/14_Ratio_750_L_8_R_6.png","xmouse":[813,813,813,813,813,813,813,813,813,813,813,813,813,813,813,813,813,813,813,813,813,813,813,813,813,813,813,813,813,813,813,813,813,813,813,813,793,727,685,642,604,593,580,563,549,526,519,517,514,510,498,490,482,477],"ymouse":[483,483,483,483,483,483,483,483,483,483,483,483,483,483,483,483,483,483,483,483,483,483,483,483,483,483,483,483,483,483,483,483,483,483,483,483,468,423,399,374,346,330,307,278,252,212,191,180,167,155,126,113,103,94],"timestamp_mouse":[10,47,51,72,91,111,130,151,171,192,212,232,251,272,291,311,331,352,372,392,410,431,450,470,491,510,531,550,570,592,612,630,652,672,691,710,731,751,771,791,811,831,851,871,890,912,930,951,970,991,1011,1030,1050,1071],"xSR":741.5,"ySR":449.15000000000003,"xT1":424.9,"yT1":0,"xT2":1058.1,"yT2":0,"toosoon":0,"cond_shown":"randomdotsizeEA","ratio_trial":750,"smaller_num":"6","larger_num":"8","correct_side":1,"subjID":"MelianFino1","gender":"1","age":"12","school":"6"},{"start_time":1551900376703,"click_time":1551900377420,"finger_time":1551900377322,"fix_duration":1241.2584623863595,"trial":23,"RT":619,"MT":98,"sideResp":1,"stimulus":"img/500/equaldotanddens/L/13_Ratio_500_L_12_R_6.png","xmouse":[758,758,758,758,758,758,758,758,758,758,758,758,758,758,758,758,758,758,758,758,758,758,758,758,758,758,758,758,759,757,723,672,545,521,507,499],"ymouse":[488,488,488,488,488,488,488,488,488,488,488,488,488,488,488,488,488,488,488,488,488,488,488,488,488,488,488,488,489,481,426,350,175,133,105,83],"timestamp_mouse":[17,38,57,78,99,118,138,159,178,198,217,239,258,278,298,318,338,358,377,397,418,437,458,479,499,519,538,559,578,598,619,638,659,678,697,717],"xSR":741.5,"ySR":449.15000000000003,"xT1":424.9,"yT1":0,"xT2":1058.1,"yT2":0,"toosoon":0,"cond_shown":"equaldotanddens","ratio_trial":500,"smaller_num":"6","larger_num":"12","correct_side":1,"subjID":"MelianFino1","gender":"1","age":"12","school":"6"},{"start_time":1551900379030,"click_time":1551900379882,"finger_time":1551900379661,"fix_duration":585.1460714258152,"trial":24,"RT":631,"MT":221,"sideResp":2,"stimulus":"img/750/equaldotanddens/R/15_Ratio_750_L_9_R_12.png","xmouse":[787,787,787,787,787,787,787,787,787,787,787,787,787,787,787,787,787,787,787,787,787,787,787,787,787,787,787,787,787,787,796,853,904,964,1023,1043,1057,1060,1062,1066,1069,1072,1076],"ymouse":[467,467,467,467,467,467,467,467,467,467,467,467,467,467,467,467,467,467,467,467,467,467,467,467,467,467,467,467,467,467,465,422,378,326,262,225,161,139,124,114,107,100,91],"timestamp_mouse":[11,38,51,71,92,110,132,152,170,192,210,231,252,271,291,311,332,352,370,392,412,431,452,472,491,511,530,550,572,591,611,631,650,671,691,711,731,750,770,790,811,830,852],"xSR":741.5,"ySR":449.15000000000003,"xT1":424.9,"yT1":0,"xT2":1058.1,"yT2":0,"toosoon":0,"cond_shown":"equaldotanddens","ratio_trial":750,"smaller_num":"9","larger_num":"12","correct_side":2,"subjID":"MelianFino1","gender":"1","age":"12","school":"6"},{"start_time":1551900381937,"click_time":1551900382840,"finger_time":1551900382541,"fix_duration":1274.6083281293766,"trial":25,"RT":604,"MT":299,"sideResp":1,"stimulus":"img/500/equaldotsize/L/10_Ratio_500_L_4_R_2.png","xmouse":[803,803,803,803,803,803,803,803,803,803,803,803,803,803,803,803,803,803,803,803,803,803,803,803,803,803,803,803,803,802,749,668,512,468,454,453,453,453,453,458,463,473,479,485,492,497],"ymouse":[489,489,489,489,489,489,489,489,489,489,489,489,489,489,489,489,489,489,489,489,489,489,489,489,489,489,489,489,489,489,446,376,258,224,213,212,212,211,204,190,172,138,124,112,100,90],"timestamp_mouse":[9,24,44,65,84,105,123,145,165,184,204,225,244,265,285,304,324,345,364,385,405,425,444,464,483,504,523,544,564,585,604,623,643,663,683,704,725,744,764,784,803,824,843,863,884,903],"xSR":741.5,"ySR":449.15000000000003,"xT1":424.9,"yT1":0,"xT2":1058.1,"yT2":0,"toosoon":0,"cond_shown":"equaldotsize","ratio_trial":500,"smaller_num":"2","larger_num":"4","correct_side":1,"subjID":"MelianFino1","gender":"1","age":"12","school":"6"},{"start_time":1551900384232,"click_time":1551900384921,"finger_time":1551900384841,"fix_duration":530.3045293515044,"trial":26,"RT":609,"MT":80,"sideResp":2,"stimulus":"img/250/equaldotsize/R/9_Ratio_250_L_3_R_12.png","xmouse":[801,801,801,801,801,801,801,801,801,801,801,801,801,801,801,801,801,801,801,801,801,801,801,801,801,801,801,801,805,820,877,1012,1068,1080,1082],"ymouse":[479,479,479,479,479,479,479,479,479,479,479,479,479,479,479,479,479,479,479,479,479,479,479,479,479,479,479,479,479,467,415,244,146,113,95],"timestamp_mouse":[9,29,63,69,89,109,128,149,168,190,209,229,249,270,290,309,329,349,370,390,408,429,449,470,489,508,530,550,569,588,609,629,648,669,689],"xSR":741.5,"ySR":449.15000000000003,"xT1":424.9,"yT1":0,"xT2":1058.1,"yT2":0,"toosoon":0,"cond_shown":"equaldotsize","ratio_trial":250,"smaller_num":"3","larger_num":"12","correct_side":2,"subjID":"MelianFino1","gender":"1","age":"12","school":"6"},{"start_time":1551900386593,"click_time":1551900387881,"finger_time":1551900387680,"fix_duration":709.1757017221607,"trial":27,"RT":1087,"MT":201,"sideResp":1,"stimulus":"img/900/randomdotsizeEA/L/2_Ratio_900_L_20_R_18.png","xmouse":[801,801,801,801,801,801,801,801,801,801,801,801,801,801,801,801,801,801,801,801,801,801,801,801,801,801,801,801,801,801,801,801,801,801,801,801,801,801,801,801,801,801,801,801,801,801,801,801,801,801,801,801,801,799,775,756,729,686,648,615,602,591,579,557,507],"ymouse":[487,487,487,487,487,487,487,487,487,487,487,487,487,487,487,487,487,487,487,487,487,487,487,487,487,487,487,487,487,487,487,487,487,487,487,487,487,487,487,487,487,487,487,487,487,487,487,487,487,487,487,487,487,484,434,406,374,325,292,254,237,220,204,169,91],"timestamp_mouse":[9,28,47,68,88,109,128,149,169,188,207,228,248,268,289,309,329,348,369,389,409,427,448,467,488,508,528,548,568,587,608,628,649,668,689,708,727,749,767,789,807,828,847,869,889,908,929,947,969,987,1009,1029,1048,1067,1087,1107,1127,1147,1167,1188,1208,1228,1248,1268,1288],"xSR":741.5,"ySR":449.15000000000003,"xT1":424.9,"yT1":0,"xT2":1058.1,"yT2":0,"toosoon":0,"cond_shown":"randomdotsizeEA","ratio_trial":900,"smaller_num":"18","larger_num":"20","correct_side":1,"subjID":"MelianFino1","gender":"1","age":"12","school":"6"},{"start_time":1551900389036,"click_time":1551900389961,"finger_time":1551900389642,"fix_duration":332.457501816931,"trial":28,"RT":606,"MT":319,"sideResp":1,"stimulus":"img/250/randomdotsizeEA/L/2_Ratio_250_L_16_R_4.png","xmouse":[767,767,767,767,768,768,768,768,768,768,768,768,768,768,768,768,768,768,768,768,768,768,768,768,768,768,768,768,768,768,747,696,593,561,550,546,541,530,522,512,506,500,497,497,497,494,491],"ymouse":[466,466,466,468,469,470,470,470,470,470,470,470,470,470,470,470,470,470,470,470,470,470,470,470,470,470,470,470,470,470,445,398,319,293,282,273,249,211,183,147,129,117,110,110,108,103,96],"timestamp_mouse":[8,25,52,65,84,104,125,146,165,184,204,225,246,266,284,304,324,346,365,386,405,425,445,466,484,505,526,545,566,585,606,626,644,665,685,718,725,744,765,785,804,825,845,864,885,905,925],"xSR":741.5,"ySR":449.15000000000003,"xT1":424.9,"yT1":0,"xT2":1058.1,"yT2":0,"toosoon":0,"cond_shown":"randomdotsizeEA","ratio_trial":250,"smaller_num":"4","larger_num":"16","correct_side":1,"subjID":"MelianFino1","gender":"1","age":"12","school":"6"},{"start_time":1551900392042,"click_time":1551900393162,"finger_time":1551900392842,"fix_duration":1340.4517733289333,"trial":29,"RT":800,"MT":320,"sideResp":2,"stimulus":"img/250/randomdotsizeEA/R/4_Ratio_250_L_3_R_12.png","xmouse":[793,793,793,793,793,793,793,793,793,793,793,793,793,793,793,793,793,793,793,793,793,793,793,793,793,793,793,793,793,793,793,793,793,793,793,793,793,793,804,839,871,923,931,936,937,942,949,980,995,1009,1018,1034,1043,1053,1063,1074],"ymouse":[476,476,476,476,476,476,476,476,476,476,476,476,476,476,476,476,476,476,476,476,476,476,476,476,476,476,476,476,476,476,476,476,476,476,476,476,476,476,464,412,366,284,269,261,256,247,235,197,181,165,154,133,123,112,103,94],"timestamp_mouse":[18,39,59,78,99,118,139,160,179,200,219,239,258,280,299,319,339,358,378,399,418,438,458,478,499,520,540,559,579,598,619,638,660,678,699,719,739,759,779,800,819,840,858,878,898,920,939,960,979,1000,1019,1040,1058,1079,1099,1120],"xSR":741.5,"ySR":449.15000000000003,"xT1":424.9,"yT1":0,"xT2":1058.1,"yT2":0,"toosoon":0,"cond_shown":"randomdotsizeEA","ratio_trial":250,"smaller_num":"3","larger_num":"12","correct_side":2,"subjID":"MelianFino1","gender":"1","age":"12","school":"6"},{"start_time":1551900394214,"click_time":1551900395183,"finger_time":1551900395020,"fix_duration":250,"trial":30,"RT":806,"MT":163,"sideResp":1,"stimulus":"img/900/equaldotsize/R/9_Ratio_900_L_18_R_20.png","xmouse":[813,813,813,813,813,813,813,813,813,813,813,813,813,813,813,813,813,813,813,813,813,813,813,813,813,813,813,813,813,813,813,813,813,813,813,813,813,813,812,773,724,660,611,567,552,533,508,483,438],"ymouse":[519,519,519,519,519,519,519,519,519,519,519,519,519,519,519,519,519,519,519,519,519,519,519,519,519,519,519,519,519,519,519,519,519,519,519,519,519,519,519,466,411,358,315,269,243,208,167,132,69],"timestamp_mouse":[10,39,47,67,88,106,126,148,167,187,208,228,246,268,287,307,328,347,367,388,408,426,447,466,487,506,528,548,568,587,608,628,647,667,687,708,727,748,767,787,806,828,847,868,886,906,926,947,969],"xSR":741.5,"ySR":449.15000000000003,"xT1":424.9,"yT1":0,"xT2":1058.1,"yT2":0,"toosoon":0,"cond_shown":"equaldotsize","ratio_trial":900,"smaller_num":"18","larger_num":"20","correct_side":2,"subjID":"MelianFino1","gender":"1","age":"12","school":"6"},{"start_time":1551900396745,"click_time":1551900397501,"finger_time":1551900397300,"fix_duration":702.8395594700096,"trial":31,"RT":555,"MT":201,"sideResp":1,"stimulus":"img/500/equaldotsize/L/11_Ratio_500_L_12_R_6.png","xmouse":[835,835,835,835,835,835,835,835,835,835,835,835,835,835,835,835,835,835,835,835,835,835,835,835,835,835,823,755,682,621,560,538,518,512,506,502,496,488],"ymouse":[471,471,471,471,471,471,471,471,471,471,471,471,471,471,471,471,471,471,471,471,471,471,471,471,471,471,452,390,327,280,224,195,157,143,130,120,108,91],"timestamp_mouse":[17,38,57,76,95,117,137,156,175,197,217,237,256,276,297,315,335,357,376,397,416,436,455,476,497,516,536,555,576,595,616,637,656,676,696,716,737,756],"xSR":741.5,"ySR":449.15000000000003,"xT1":424.9,"yT1":0,"xT2":1058.1,"yT2":0,"toosoon":0,"cond_shown":"equaldotsize","ratio_trial":500,"smaller_num":"6","larger_num":"12","correct_side":1,"subjID":"MelianFino1","gender":"1","age":"12","school":"6"},{"start_time":1551900399278,"click_time":1551900400801,"finger_time":1551900400102,"fix_duration":835.6132236287359,"trial":32,"RT":824,"MT":699,"sideResp":1,"stimulus":"img/500/randomdotsizeEA/L/7_Ratio_500_L_10_R_5.png","xmouse":[777,777,777,777,777,777,777,777,777,777,777,777,777,777,777,777,777,774,769,767,767,767,767,767,767,767,767,767,767,767,767,767,767,767,767,767,767,767,767,764,759,662,639,601,590,582,564,555,545,540,538,537,536,534,532,529,525,525,525,525,525,525,525,525,525,525,525,525,525,525,525,525,525,525,525,525,524],"ymouse":[529,529,529,529,529,529,529,529,529,529,529,529,529,529,529,528,519,507,497,492,492,492,492,492,492,492,492,492,492,492,492,492,492,492,492,492,492,492,492,475,457,297,269,218,203,184,135,113,91,79,73,70,70,68,64,61,59,59,59,59,59,59,59,59,59,59,59,59,59,59,59,59,59,59,59,59,59],"timestamp_mouse":[10,23,52,62,82,104,123,144,162,183,204,224,244,264,284,302,322,343,364,383,403,423,443,463,482,504,524,543,564,582,604,624,643,662,684,703,723,744,763,783,802,824,844,863,883,903,923,943,963,983,1004,1023,1042,1063,1083,1103,1122,1143,1164,1183,1203,1223,1243,1263,1284,1303,1324,1343,1363,1382,1402,1423,1443,1464,1484,1503,1522],"xSR":741.5,"ySR":449.15000000000003,"xT1":424.9,"yT1":0,"xT2":1058.1,"yT2":0,"toosoon":0,"cond_shown":"randomdotsizeEA","ratio_trial":500,"smaller_num":"5","larger_num":"10","correct_side":1,"subjID":"MelianFino1","gender":"1","age":"12","school":"6"},{"start_time":1551900402375,"click_time":1551900403021,"finger_time":1551900402841,"fix_duration":772.2493670687245,"trial":33,"RT":466,"MT":180,"sideResp":1,"stimulus":"img/750/equaldotsize/R/3_Ratio_750_L_15_R_20.png","xmouse":[789,789,789,789,789,789,789,789,789,789,789,789,789,789,789,789,789,789,789,778,766,756,744,741,738,733,709,666,634,600,558,482,466],"ymouse":[518,518,518,518,518,518,518,518,518,518,518,518,518,518,518,518,518,518,512,496,481,470,456,453,449,442,415,366,326,279,221,110,77],"timestamp_mouse":[11,27,46,66,86,106,126,146,165,186,206,225,245,267,286,306,325,347,366,385,406,426,446,466,486,505,527,545,565,586,606,626,646],"xSR":741.5,"ySR":449.15000000000003,"xT1":424.9,"yT1":0,"xT2":1058.1,"yT2":0,"toosoon":0,"cond_shown":"equaldotsize","ratio_trial":750,"smaller_num":"15","larger_num":"20","correct_side":2,"subjID":"MelianFino1","gender":"1","age":"12","school":"6"},{"start_time":1551900404376,"click_time":1551900405381,"finger_time":1551900405081,"fix_duration":473.74898768438214,"trial":34,"RT":705,"MT":300,"sideResp":2,"stimulus":"img/500/equaldotsize/R/15_Ratio_500_L_1_R_2.png","xmouse":[800,800,800,800,800,800,800,800,800,800,800,800,800,800,800,800,800,800,800,800,800,800,800,800,800,800,800,800,800,800,800,800,800,814,831,910,977,1069,1095,1105,1116,1121,1129,1132,1134,1138,1142,1148,1150,1151,1151],"ymouse":[475,475,475,475,475,475,475,475,475,475,475,475,475,475,475,475,475,475,475,475,475,475,475,475,475,475,475,475,475,475,475,475,475,468,460,428,398,329,296,267,227,198,170,163,160,154,146,131,118,109,96],"timestamp_mouse":[6,24,60,65,86,106,126,145,165,186,206,226,245,264,284,304,325,346,365,385,406,426,444,465,484,506,526,545,565,586,606,624,645,666,685,705,725,745,765,785,804,825,845,864,885,905,924,944,965,984,1005],"xSR":741.5,"ySR":449.15000000000003,"xT1":424.9,"yT1":0,"xT2":1058.1,"yT2":0,"toosoon":0,"cond_shown":"equaldotsize","ratio_trial":500,"smaller_num":"1","larger_num":"2","correct_side":2,"subjID":"MelianFino1","gender":"1","age":"12","school":"6"},{"start_time":1551900406816,"click_time":1551900407840,"finger_time":1551900407621,"fix_duration":734.8704960811773,"trial":35,"RT":805,"MT":219,"sideResp":2,"stimulus":"img/500/equaldotsize/R/6_Ratio_500_L_9_R_18.png","xmouse":[809,809,809,809,809,809,809,809,809,809,809,809,809,809,809,809,809,809,809,809,809,809,809,809,809,809,809,809,809,809,809,809,809,809,809,809,809,809,809,814,916,1027,1054,1098,1107,1107,1107,1107,1107,1107,1107,1105],"ymouse":[493,493,493,493,493,493,493,493,493,493,493,493,493,493,493,493,493,493,493,493,493,493,493,493,493,493,493,493,493,493,493,493,493,493,493,493,493,493,493,488,442,366,338,266,233,191,183,180,175,164,111,76],"timestamp_mouse":[10,33,44,64,84,104,126,145,164,185,205,224,244,264,284,305,326,344,365,384,406,426,444,464,486,504,526,544,565,586,604,625,646,664,684,706,725,746,765,786,805,824,845,866,884,904,925,944,966,986,1005,1024],"xSR":741.5,"ySR":449.15000000000003,"xT1":424.9,"yT1":0,"xT2":1058.1,"yT2":0,"toosoon":0,"cond_shown":"equaldotsize","ratio_trial":500,"smaller_num":"9","larger_num":"18","correct_side":2,"subjID":"MelianFino1","gender":"1","age":"12","school":"6"},{"start_time":1551900411115,"click_time":1551900412081,"finger_time":1551900411841,"fix_duration":1051.7542614483773,"trial":36,"RT":726,"MT":240,"sideResp":1,"stimulus":"img/250/equaldotsize/L/2_Ratio_250_L_16_R_4.png","xmouse":[808,808,808,808,808,808,808,808,808,808,808,808,808,808,808,808,808,808,808,808,808,808,808,808,808,808,808,808,808,808,808,808,808,808,806,791,668,576,477,405,370,355,355,355,356,361,396,416,437],"ymouse":[487,487,487,487,487,487,487,487,487,487,487,487,487,487,487,487,487,487,487,487,487,487,487,487,487,487,487,487,487,487,487,487,487,487,488,487,384,302,220,157,121,96,95,94,92,88,72,66,60],"timestamp_mouse":[14,30,48,65,85,106,126,147,165,185,206,226,246,266,285,306,327,346,367,385,407,426,447,466,485,506,527,546,566,587,606,626,647,667,685,706,726,746,766,786,805,825,846,865,886,906,927,945,966],"xSR":741.5,"ySR":449.15000000000003,"xT1":424.9,"yT1":0,"xT2":1058.1,"yT2":0,"toosoon":0,"cond_shown":"equaldotsize","ratio_trial":250,"smaller_num":"4","larger_num":"16","correct_side":1,"subjID":"MelianFino1","gender":"1","age":"12","school":"6"},{"start_time":1551900414133,"click_time":1551900415480,"finger_time":1551900414821,"fix_duration":1010.1370735140171,"trial":37,"RT":688,"MT":659,"sideResp":1,"stimulus":"img/500/randomdotsizeEA/L/5_Ratio_500_L_4_R_2.png","xmouse":[807,807,807,807,807,807,807,807,807,807,807,807,807,807,807,807,807,807,807,807,807,807,807,807,807,807,807,807,807,807,807,807,819,832,865,893,898,904,909,919,942,956,959,960,960,960,960,960,960,960,960,960,960,960,960,960,960,960,960,960,960,960,960,960,898,694,587,507],"ymouse":[505,505,505,505,505,505,505,505,505,505,505,505,505,505,505,505,505,505,505,505,505,505,505,505,505,505,505,505,505,505,505,505,484,467,422,376,367,356,347,331,292,271,265,262,262,262,262,262,262,262,262,262,262,262,262,262,262,262,262,262,262,262,262,257,237,174,127,86],"timestamp_mouse":[9,35,47,68,89,107,127,149,169,187,209,228,249,268,289,308,327,349,369,389,409,428,449,469,488,509,527,547,567,587,608,629,648,668,688,707,728,747,768,788,808,827,847,868,889,908,929,947,967,988,1008,1029,1048,1068,1088,1109,1127,1147,1168,1189,1207,1228,1249,1269,1288,1308,1328,1347],"xSR":741.5,"ySR":449.15000000000003,"xT1":424.9,"yT1":0,"xT2":1058.1,"yT2":0,"toosoon":0,"cond_shown":"randomdotsizeEA","ratio_trial":500,"smaller_num":"2","larger_num":"4","correct_side":1,"subjID":"MelianFino1","gender":"1","age":"12","school":"6"},{"start_time":1551900417417,"click_time":1551900418760,"finger_time":1551900418300,"fix_duration":1053.6971703228703,"trial":38,"RT":883,"MT":460,"sideResp":1,"stimulus":"img/900/equaldotsize/L/10_Ratio_900_L_20_R_18.png","xmouse":[753,753,753,753,753,753,753,753,753,753,753,753,753,753,753,753,753,753,753,753,753,753,753,753,753,753,753,753,753,753,753,753,753,753,753,753,753,753,753,753,753,753,753,753,737,727,671,627,600,570,543,508,499,492,489,488,487,487,487,486,486,486,486,486,486,486,487,487],"ymouse":[492,492,492,492,492,492,492,492,492,492,492,492,492,492,492,492,492,492,492,492,492,492,492,492,492,492,492,492,492,492,492,492,492,492,492,492,492,492,492,492,492,492,492,492,466,449,372,322,297,271,251,221,209,200,193,187,168,147,135,129,125,123,123,120,116,111,100,97],"timestamp_mouse":[9,26,44,63,83,104,124,144,165,184,203,225,245,263,283,303,324,344,363,385,405,424,443,464,483,505,523,543,564,585,604,623,645,665,684,705,723,744,764,784,803,825,843,863,883,903,925,943,964,985,1004,1024,1043,1064,1083,1104,1125,1144,1164,1184,1204,1223,1244,1265,1285,1304,1324,1343],"xSR":741.5,"ySR":449.15000000000003,"xT1":424.9,"yT1":0,"xT2":1058.1,"yT2":0,"toosoon":0,"cond_shown":"equaldotsize","ratio_trial":900,"smaller_num":"18","larger_num":"20","correct_side":1,"subjID":"MelianFino1","gender":"1","age":"12","school":"6"},{"start_time":1551900419794,"click_time":1551900420840,"finger_time":1551900420401,"fix_duration":250,"trial":39,"RT":607,"MT":439,"sideResp":2,"stimulus":"img/250/equaldotanddens/R/10_Ratio_250_L_4_R_16.png","xmouse":[805,805,805,805,805,805,805,805,805,805,805,805,805,805,805,805,805,805,805,805,805,805,805,805,805,805,805,805,806,825,854,887,947,964,974,980,988,1012,1027,1048,1061,1069,1074,1077,1084,1092,1102,1114,1115,1115,1115,1115,1117],"ymouse":[501,501,501,501,501,501,501,501,501,501,501,501,501,501,501,501,501,501,501,501,501,501,501,501,501,501,501,501,499,474,437,399,329,306,289,277,260,222,199,175,157,145,136,131,125,119,112,104,103,103,102,101,99],"timestamp_mouse":[11,26,46,70,86,106,127,146,167,186,207,226,247,267,287,306,326,348,366,386,408,428,447,467,488,508,528,546,567,587,607,627,648,666,687,706,727,748,766,787,808,826,848,867,887,907,926,948,967,987,1008,1027,1046],"xSR":741.5,"ySR":449.15000000000003,"xT1":424.9,"yT1":0,"xT2":1058.1,"yT2":0,"toosoon":0,"cond_shown":"equaldotanddens","ratio_trial":250,"smaller_num":"4","larger_num":"16","correct_side":2,"subjID":"MelianFino1","gender":"1","age":"12","school":"6"},{"start_time":1551900421985,"click_time":1551900423241,"finger_time":1551900422560,"fix_duration":262.1250669792554,"trial":40,"RT":575,"MT":681,"sideResp":1,"stimulus":"img/250/equaldotsize/L/5_Ratio_250_L_24_R_6.png","xmouse":[771,771,771,771,771,771,771,771,771,771,771,771,771,771,771,771,771,771,771,771,771,771,771,771,771,771,769,762,719,686,649,618,595,574,569,565,563,562,559,559,559,558,558,553,549,545,540,536,535,535,535,535,535,535,535,535,535,535,535,535,531,525,516],"ymouse":[498,498,498,498,498,498,498,498,498,498,498,498,498,498,498,498,498,498,498,498,498,498,498,498,498,498,498,479,399,336,277,233,202,165,150,136,124,114,106,106,105,105,103,96,90,86,79,75,75,75,75,75,75,75,75,75,75,75,75,75,73,69,65],"timestamp_mouse":[16,39,55,76,97,117,136,155,175,195,217,235,255,275,297,316,336,357,377,395,417,436,456,477,497,516,536,556,575,596,616,636,655,676,696,716,736,755,776,796,816,837,856,876,896,916,936,957,976,995,1017,1036,1056,1075,1096,1115,1137,1157,1176,1195,1215,1236,1255],"xSR":741.5,"ySR":449.15000000000003,"xT1":424.9,"yT1":0,"xT2":1058.1,"yT2":0,"toosoon":0,"cond_shown":"equaldotsize","ratio_trial":250,"smaller_num":"6","larger_num":"24","correct_side":1,"subjID":"MelianFino1","gender":"1","age":"12","school":"6"},{"start_time":1551900424754,"click_time":1551900425961,"finger_time":1551900425640,"fix_duration":550.3301816179483,"trial":41,"RT":886,"MT":321,"sideResp":2,"stimulus":"img/750/randomdotsizeEA/R/2_Ratio_750_L_6_R_8.png","xmouse":[753,753,753,753,753,753,753,753,753,753,753,753,753,753,753,753,753,753,753,753,753,753,753,753,753,753,753,753,753,753,753,753,753,753,753,753,753,753,753,753,753,753,758,779,849,990,1028,1044,1047,1048,1048,1048,1048,1049,1052,1054,1057,1062,1065,1072,1093],"ymouse":[481,481,481,481,481,481,481,481,481,481,481,481,481,481,481,481,481,481,481,481,481,481,481,481,481,481,481,481,481,481,481,481,481,481,481,481,481,481,481,481,481,481,481,465,419,296,248,215,201,195,192,190,188,183,174,164,144,128,122,113,98],"timestamp_mouse":[9,27,48,69,87,107,126,148,168,186,207,227,248,266,287,306,328,347,366,388,408,426,448,466,487,506,528,547,567,587,607,627,646,667,687,708,728,748,768,788,807,826,847,866,886,907,926,947,966,987,1007,1026,1048,1066,1087,1107,1127,1146,1167,1186,1207],"xSR":741.5,"ySR":449.15000000000003,"xT1":424.9,"yT1":0,"xT2":1058.1,"yT2":0,"toosoon":0,"cond_shown":"randomdotsizeEA","ratio_trial":750,"smaller_num":"6","larger_num":"8","correct_side":2,"subjID":"MelianFino1","gender":"1","age":"12","school":"6"},{"start_time":1551900427152,"click_time":1551900428442,"finger_time":1551900427622,"fix_duration":250,"trial":42,"RT":470,"MT":820,"sideResp":2,"stimulus":"img/250/randomdotsizeEA/R/12_Ratio_250_L_5_R_20.png","xmouse":[760,760,760,760,760,760,760,760,760,760,760,760,760,760,760,760,760,760,760,760,760,761,756,743,721,666,633,597,581,570,563,559,559,559,559,559,559,559,561,567,573,592,602,611,618,623,640,653,677,703,760,786,810,832,853,883,922,935,945,952,969,980,999,1025,1066],"ymouse":[480,480,480,480,480,480,480,480,480,480,480,480,480,480,480,480,480,480,480,480,480,478,465,445,415,340,302,254,231,211,197,189,189,189,189,189,189,189,191,196,203,225,235,242,247,251,260,266,274,278,279,275,265,251,235,211,173,156,143,132,111,101,89,78,60],"timestamp_mouse":[10,38,49,70,90,109,130,150,170,190,210,229,249,269,290,311,330,350,370,390,409,429,450,470,490,510,530,550,570,589,610,629,649,669,689,710,730,750,771,790,809,829,849,869,890,909,930,949,969,989,1010,1029,1050,1069,1090,1110,1130,1149,1170,1189,1211,1229,1249,1269,1290],"xSR":741.5,"ySR":449.15000000000003,"xT1":424.9,"yT1":0,"xT2":1058.1,"yT2":0,"toosoon":0,"cond_shown":"randomdotsizeEA","ratio_trial":250,"smaller_num":"5","larger_num":"20","correct_side":2,"subjID":"MelianFino1","gender":"1","age":"12","school":"6"},{"start_time":1551900430355,"click_time":1551900431781,"finger_time":1551900431441,"fix_duration":951.4530214008627,"trial":43,"RT":1086,"MT":340,"sideResp":1,"stimulus":"img/900/equaldotsize/R/15_Ratio_900_L_9_R_10.png","xmouse":[759,759,759,759,759,759,759,759,759,759,759,759,759,759,759,759,759,759,759,759,759,759,759,759,759,759,759,759,759,759,759,759,759,759,759,759,759,759,759,759,759,759,759,759,759,759,759,759,759,759,759,759,754,750,733,701,661,646,634,623,614,591,582,570,557,552,548,544,538,530,521,508],"ymouse":[525,525,525,525,525,525,525,525,525,525,525,525,525,526,526,526,527,527,527,527,527,527,527,527,527,527,527,527,527,527,527,527,527,527,527,527,527,527,527,527,527,527,527,527,527,527,527,527,527,527,527,527,521,513,487,440,378,350,323,296,273,223,200,177,156,146,139,133,125,115,104,88],"timestamp_mouse":[9,26,47,66,86,106,126,146,166,186,206,226,246,266,286,307,326,346,367,387,408,426,447,467,487,507,526,547,567,586,606,627,646,666,687,706,728,746,767,786,807,827,848,866,887,907,926,947,968,988,1007,1026,1047,1066,1086,1107,1127,1147,1166,1187,1207,1226,1247,1267,1287,1307,1326,1346,1366,1386,1407,1426],"xSR":741.5,"ySR":449.15000000000003,"xT1":424.9,"yT1":0,"xT2":1058.1,"yT2":0,"toosoon":0,"cond_shown":"equaldotsize","ratio_trial":900,"smaller_num":"9","larger_num":"10","correct_side":2,"subjID":"MelianFino1","gender":"1","age":"12","school":"6"},{"start_time":1551900434522,"click_time":1551900435982,"finger_time":1551900435801,"fix_duration":357.40922816916145,"trial":44,"RT":1279,"MT":181,"sideResp":1,"stimulus":"img/900/randomdotsizeEA/L/4_Ratio_900_L_20_R_18.png","xmouse":[780,780,779,778,777,776,776,776,776,776,776,776,776,776,776,776,776,776,776,776,776,776,776,776,776,776,776,776,776,776,776,776,776,776,776,776,776,776,776,776,776,776,776,776,776,776,776,776,776,776,776,776,776,776,776,776,776,776,776,776,776,776,774,769,737,718,701,674,615,572,562,543,531,511],"ymouse":[502,502,502,503,503,503,503,503,503,503,503,503,503,503,503,503,503,503,503,503,503,503,503,503,503,503,503,503,503,503,503,503,503,503,503,503,503,503,503,503,503,503,503,503,503,503,503,503,503,503,503,503,503,503,503,503,503,503,503,503,503,503,490,469,400,370,343,304,224,163,149,121,99,69],"timestamp_mouse":[1,20,40,60,79,99,119,139,161,180,200,219,239,260,280,300,320,339,360,381,400,420,439,460,479,499,520,539,559,580,599,620,641,660,680,699,720,741,768,779,799,819,841,859,879,899,919,939,959,979,999,1020,1039,1060,1080,1099,1120,1139,1159,1179,1199,1219,1239,1260,1279,1299,1319,1339,1360,1383,1399,1419,1439,1460],"xSR":741.5,"ySR":449.15000000000003,"xT1":424.9,"yT1":0,"xT2":1058.1,"yT2":0,"toosoon":0,"cond_shown":"randomdotsizeEA","ratio_trial":900,"smaller_num":"18","larger_num":"20","correct_side":1,"subjID":"MelianFino1","gender":"1","age":"12","school":"6"},{"start_time":1551900438394,"click_time":1551900439602,"finger_time":1551900439261,"fix_duration":250,"trial":45,"RT":867,"MT":341,"sideResp":1,"stimulus":"img/500/randomdotsizeEA/L/8_Ratio_500_L_8_R_4.png","xmouse":[790,790,790,790,790,790,790,790,790,790,790,790,790,790,790,790,790,790,790,790,790,790,790,790,790,790,790,790,790,790,790,790,790,790,790,790,790,790,790,790,780,766,753,741,722,715,705,694,678,650,611,589,561,539,526,509,504,502,500,499,496],"ymouse":[515,515,515,515,515,515,515,515,515,515,515,515,515,515,515,515,515,515,515,515,515,515,515,515,515,515,515,515,515,515,515,515,515,515,515,515,515,515,515,515,501,482,462,443,407,392,378,363,347,320,278,248,218,189,167,136,127,121,113,109,99],"timestamp_mouse":[10,38,48,68,87,108,127,147,168,188,208,228,247,268,287,307,327,347,367,387,407,427,448,468,487,507,528,549,568,588,607,627,648,667,688,707,727,747,767,787,808,827,848,867,889,907,927,947,967,987,1007,1027,1047,1067,1087,1107,1127,1149,1169,1189,1208],"xSR":741.5,"ySR":449.15000000000003,"xT1":424.9,"yT1":0,"xT2":1058.1,"yT2":0,"toosoon":0,"cond_shown":"randomdotsizeEA","ratio_trial":500,"smaller_num":"4","larger_num":"8","correct_side":1,"subjID":"MelianFino1","gender":"1","age":"12","school":"6"},{"start_time":1551900440964,"click_time":1551900442161,"finger_time":1551900441861,"fix_duration":760.6739198153433,"trial":46,"RT":897,"MT":300,"sideResp":1,"stimulus":"img/500/randomdotsizeEA/L/7_Ratio_500_L_10_R_5.png","xmouse":[760,760,760,760,760,760,760,760,760,760,760,760,760,760,760,760,760,760,760,760,760,760,760,760,760,760,760,760,760,760,760,760,760,760,760,760,760,760,760,760,760,760,760,749,737,708,671,661,653,646,641,633,627,619,610,600,574,557,529,510],"ymouse":[477,477,477,477,477,477,477,477,477,477,477,477,477,477,477,477,477,477,477,477,477,477,477,477,477,477,477,477,477,477,477,477,477,477,477,477,477,477,477,477,477,477,477,458,429,381,309,287,266,246,237,217,208,195,181,168,138,123,101,88],"timestamp_mouse":[18,38,58,77,97,119,137,157,177,198,218,237,258,278,297,318,338,358,378,397,417,437,457,479,498,518,537,557,577,598,618,637,658,678,697,718,737,758,778,797,817,838,859,878,897,917,937,959,979,998,1017,1037,1057,1077,1097,1117,1137,1158,1177,1197],"xSR":741.5,"ySR":449.15000000000003,"xT1":424.9,"yT1":0,"xT2":1058.1,"yT2":0,"toosoon":0,"cond_shown":"randomdotsizeEA","ratio_trial":500,"smaller_num":"5","larger_num":"10","correct_side":1,"subjID":"MelianFino1","gender":"1","age":"12","school":"6"},{"start_time":1551900443937,"click_time":1551900445802,"finger_time":1551900445081,"fix_duration":755.2650202636833,"trial":47,"RT":1144,"MT":721,"sideResp":1,"stimulus":"img/900/equaldotanddens/R/7_Ratio_900_L_9_R_10.png","xmouse":[770,770,770,770,770,770,770,770,770,770,770,770,770,770,770,770,770,770,770,770,770,770,770,770,770,770,770,770,770,770,770,770,770,770,770,770,770,770,770,770,770,770,770,770,770,770,770,770,770,770,770,770,770,770,770,770,756,734,660,633,611,598,593,588,587,587,586,584,572,562,557,556,556,556,556,556,556,555,553,539,533,531,530,529,529,527,526,526,525,525,525,525,525,524],"ymouse":[512,512,512,512,512,512,512,512,512,512,512,512,512,512,512,512,512,512,512,512,512,512,512,512,512,512,512,512,512,512,512,512,512,512,512,512,512,512,512,512,512,512,512,512,512,512,512,512,512,512,512,512,512,512,512,506,484,451,316,249,186,142,119,100,97,96,93,89,68,52,46,46,46,46,45,45,45,45,45,45,45,45,45,45,45,45,46,46,46,46,46,46,46,47],"timestamp_mouse":[9,25,44,65,85,105,124,145,166,185,205,224,246,265,284,304,324,345,364,385,404,425,445,464,484,505,525,545,566,585,604,624,644,665,685,704,724,744,764,786,804,825,845,865,884,905,925,945,964,986,1004,1024,1044,1065,1084,1105,1125,1144,1165,1184,1204,1224,1245,1264,1284,1304,1324,1344,1366,1384,1404,1424,1445,1464,1485,1504,1524,1545,1564,1584,1605,1624,1644,1664,1685,1705,1725,1744,1765,1784,1804,1824,1844,1865],"xSR":741.5,"ySR":449.15000000000003,"xT1":424.9,"yT1":0,"xT2":1058.1,"yT2":0,"toosoon":0,"cond_shown":"equaldotanddens","ratio_trial":900,"smaller_num":"9","larger_num":"10","correct_side":2,"subjID":"MelianFino1","gender":"1","age":"12","school":"6"},{"start_time":1551900447734,"click_time":1551900448922,"finger_time":1551900448521,"fix_duration":791.6174276127157,"trial":48,"RT":787,"MT":401,"sideResp":1,"stimulus":"img/500/equaldotanddens/L/7_Ratio_500_L_10_R_5.png","xmouse":[786,793,794,794,794,794,794,794,794,794,794,794,794,795,794,794,794,794,794,794,794,794,794,794,794,794,794,794,794,794,794,794,794,794,794,794,794,783,764,723,686,643,597,548,481,458,435,427,416,413,413,413,413,413,413,413,413,414,416,435],"ymouse":[484,484,484,484,484,484,484,484,484,484,484,484,484,486,493,494,494,494,494,494,494,494,494,494,494,494,494,494,494,494,494,494,494,494,494,494,494,480,460,421,392,355,316,270,201,170,124,106,70,41,35,30,29,29,28,28,28,28,28,38],"timestamp_mouse":[10,28,52,68,87,108,128,149,169,188,207,227,248,267,287,307,327,348,367,387,408,428,448,468,487,507,528,547,567,587,608,627,648,668,687,708,727,747,768,787,807,827,847,868,887,907,927,948,967,987,1007,1027,1047,1067,1088,1107,1128,1148,1167,1188],"xSR":741.5,"ySR":449.15000000000003,"xT1":424.9,"yT1":0,"xT2":1058.1,"yT2":0,"toosoon":0,"cond_shown":"equaldotanddens","ratio_trial":500,"smaller_num":"5","larger_num":"10","correct_side":1,"subjID":"MelianFino1","gender":"1","age":"12","school":"6"},{"start_time":1551900450074,"click_time":1551900451221,"finger_time":1551900450782,"fix_duration":250,"trial":49,"RT":708,"MT":439,"sideResp":2,"stimulus":"img/750/equaldotsize/R/4_Ratio_750_L_15_R_20.png","xmouse":[788,788,788,788,788,788,788,788,788,788,788,788,788,788,788,788,788,788,788,788,788,788,788,788,788,788,788,788,788,788,788,788,788,793,831,891,954,1070,1112,1138,1145,1151,1160,1162,1162,1162,1162,1162,1162,1162,1162,1162,1162,1162,1162,1161,1161,1153],"ymouse":[502,502,502,502,502,502,502,502,502,502,502,502,502,502,502,502,502,502,502,502,502,502,502,502,502,502,502,502,502,502,502,502,502,501,471,431,384,278,236,192,172,151,113,94,81,70,61,50,48,47,47,47,47,47,47,46,46,54],"timestamp_mouse":[10,38,48,67,87,109,127,148,167,188,208,229,248,267,288,307,327,347,369,387,407,428,447,467,487,508,528,548,569,588,607,628,647,667,688,708,728,748,768,787,808,827,847,867,887,908,927,947,967,987,1007,1027,1048,1067,1088,1107,1127,1147],"xSR":741.5,"ySR":449.15000000000003,"xT1":424.9,"yT1":0,"xT2":1058.1,"yT2":0,"toosoon":0,"cond_shown":"equaldotsize","ratio_trial":750,"smaller_num":"15","larger_num":"20","correct_side":2,"subjID":"MelianFino1","gender":"1","age":"12","school":"6"},{"start_time":1551900452564,"click_time":1551900453701,"finger_time":1551900453421,"fix_duration":399.01505172873675,"trial":50,"RT":857,"MT":280,"sideResp":1,"stimulus":"img/900/equaldotanddens/L/2_Ratio_900_L_20_R_18.png","xmouse":[798,798,798,798,798,798,798,798,798,798,798,798,798,798,798,798,798,798,798,798,798,798,798,798,798,798,798,798,798,798,798,798,798,798,798,798,798,798,798,798,782,768,682,622,595,574,556,541,520,513,507,501,492,490,488,485,482],"ymouse":[485,485,485,485,485,485,485,485,485,485,485,485,485,485,485,485,485,485,485,485,485,485,485,485,485,485,485,485,485,485,485,485,485,485,485,485,485,485,485,485,469,452,373,324,300,275,255,235,205,193,183,173,150,142,130,114,95],"timestamp_mouse":[17,37,57,77,97,117,138,158,178,198,218,237,258,277,298,317,339,358,378,397,417,437,458,477,498,517,537,557,578,597,618,637,657,678,698,719,737,757,778,798,817,838,857,877,897,917,938,958,977,997,1017,1037,1058,1078,1097,1118,1137],"xSR":741.5,"ySR":449.15000000000003,"xT1":424.9,"yT1":0,"xT2":1058.1,"yT2":0,"toosoon":0,"cond_shown":"equaldotanddens","ratio_trial":900,"smaller_num":"18","larger_num":"20","correct_side":1,"subjID":"MelianFino1","gender":"1","age":"12","school":"6"},{"start_time":1551900455416,"click_time":1551900456562,"finger_time":1551900456202,"fix_duration":673.9797727486898,"trial":51,"RT":786,"MT":360,"sideResp":2,"stimulus":"img/500/randomdotsizeEA/R/2_Ratio_500_L_3_R_6.png","xmouse":[781,781,781,781,781,781,781,781,781,781,781,781,781,781,781,781,781,781,781,781,781,781,781,781,781,781,781,781,781,781,781,781,781,781,781,781,781,785,799,849,928,983,992,998,1005,1011,1042,1064,1086,1106,1126,1138,1140,1140,1140,1140,1134,1131],"ymouse":[495,495,495,495,495,495,495,495,495,495,495,495,495,495,495,495,495,495,495,495,495,495,495,495,495,495,495,495,495,495,495,495,495,495,495,495,495,495,492,462,413,366,351,340,328,319,296,279,262,243,212,174,157,148,134,123,103,95],"timestamp_mouse":[10,39,47,66,85,106,125,145,166,186,205,226,245,266,287,305,325,346,366,385,406,426,445,466,485,505,525,545,565,585,605,626,645,666,685,706,725,746,765,786,805,825,846,866,885,906,925,945,965,985,1005,1025,1045,1066,1085,1105,1126,1146],"xSR":741.5,"ySR":449.15000000000003,"xT1":424.9,"yT1":0,"xT2":1058.1,"yT2":0,"toosoon":0,"cond_shown":"randomdotsizeEA","ratio_trial":500,"smaller_num":"3","larger_num":"6","correct_side":2,"subjID":"MelianFino1","gender":"1","age":"12","school":"6"},{"start_time":1551900457802,"click_time":1551900459281,"finger_time":1551900458902,"fix_duration":318.02558993127195,"trial":52,"RT":1100,"MT":379,"sideResp":2,"stimulus":"img/900/equaldotanddens/R/6_Ratio_900_L_9_R_10.png","xmouse":[816,816,816,816,816,816,816,816,816,816,816,816,816,816,816,816,816,816,816,816,816,816,816,816,816,816,816,816,816,816,816,816,816,816,816,816,816,816,816,816,816,816,816,816,816,816,816,816,816,816,816,816,818,827,839,854,870,901,910,921,926,931,941,951,967,989,1011,1049,1062,1086,1108,1124,1135,1148,1148],"ymouse":[516,516,516,516,516,516,516,516,516,516,516,516,516,516,516,516,516,516,516,516,516,516,516,516,516,516,516,516,516,516,516,516,516,516,516,516,516,516,516,516,516,516,516,516,516,516,516,516,516,516,516,516,516,501,485,459,433,369,346,319,308,300,292,285,277,263,246,211,193,166,146,132,119,100,96],"timestamp_mouse":[6,29,44,60,79,100,121,139,160,180,199,220,239,259,281,300,319,339,360,379,399,419,441,460,481,499,519,539,561,579,599,619,639,659,679,700,719,740,760,779,799,819,839,859,880,900,921,940,959,979,1000,1020,1040,1059,1079,1100,1120,1139,1160,1179,1199,1220,1239,1259,1280,1300,1320,1339,1361,1380,1400,1419,1439,1459,1479],"xSR":741.5,"ySR":449.15000000000003,"xT1":424.9,"yT1":0,"xT2":1058.1,"yT2":0,"toosoon":0,"cond_shown":"equaldotanddens","ratio_trial":900,"smaller_num":"9","larger_num":"10","correct_side":2,"subjID":"MelianFino1","gender":"1","age":"12","school":"6"},{"start_time":1551900461388,"click_time":1551900462461,"finger_time":1551900462261,"fix_duration":1146.7340339163047,"trial":53,"RT":873,"MT":200,"sideResp":1,"stimulus":"img/750/equaldotanddens/R/15_Ratio_750_L_9_R_12.png","xmouse":[760,760,760,760,760,760,760,760,760,760,760,760,760,760,760,760,760,760,760,760,760,760,760,760,760,760,760,760,760,760,760,760,760,760,760,760,760,760,760,760,760,760,757,728,694,656,619,550,502,479,460,445,431,428],"ymouse":[503,503,503,503,503,503,503,503,503,503,503,503,503,503,503,503,504,504,504,504,504,504,504,504,504,504,504,504,504,504,504,504,504,504,504,504,504,504,504,504,504,502,498,459,423,382,339,254,199,172,149,130,106,99],"timestamp_mouse":[13,35,54,74,94,113,133,153,174,193,214,233,254,273,293,313,333,354,373,393,414,434,453,474,493,515,535,554,574,594,613,634,655,674,694,714,733,755,774,794,814,833,853,873,893,913,933,954,973,993,1013,1033,1054,1073],"xSR":741.5,"ySR":449.15000000000003,"xT1":424.9,"yT1":0,"xT2":1058.1,"yT2":0,"toosoon":0,"cond_shown":"equaldotanddens","ratio_trial":750,"smaller_num":"9","larger_num":"12","correct_side":2,"subjID":"MelianFino1","gender":"1","age":"12","school":"6"},{"start_time":1551900463453,"click_time":1551900464543,"finger_time":1551900463861,"fix_duration":250,"trial":54,"RT":408,"MT":682,"sideResp":1,"stimulus":"img/500/equaldotsize/L/8_Ratio_500_L_8_R_4.png","xmouse":[805,805,805,805,805,805,805,805,805,805,805,805,805,805,805,805,805,813,827,838,842,842,842,842,842,842,842,842,842,842,842,842,842,842,842,842,842,842,842,834,784,714,642,579,505,499,496,494,493,491,491,488,485,484,485],"ymouse":[530,530,530,530,530,530,530,530,530,530,530,530,530,530,530,530,530,531,531,529,527,527,527,527,527,527,527,527,527,527,527,527,527,527,527,527,527,527,527,526,498,438,354,289,205,192,185,180,177,172,168,160,146,123,93],"timestamp_mouse":[8,40,48,68,89,109,128,149,169,188,208,230,250,268,289,308,328,349,368,388,408,428,449,469,489,509,528,548,568,589,608,628,649,668,690,708,729,749,768,789,808,828,848,869,890,908,929,948,968,990,1008,1029,1048,1068,1090],"xSR":741.5,"ySR":449.15000000000003,"xT1":424.9,"yT1":0,"xT2":1058.1,"yT2":0,"toosoon":0,"cond_shown":"equaldotsize","ratio_trial":500,"smaller_num":"4","larger_num":"8","correct_side":1,"subjID":"MelianFino1","gender":"1","age":"12","school":"6"},{"start_time":1551900465454,"click_time":1551900467922,"finger_time":1551900467061,"fix_duration":250,"trial":55,"RT":1607,"MT":861,"sideResp":1,"stimulus":"img/900/equaldotsize/L/4_Ratio_900_L_20_R_18.png","xmouse":[797,797,797,797,797,797,797,797,797,797,797,797,797,797,797,797,797,797,797,797,797,797,797,797,797,797,797,797,797,797,797,797,797,797,797,797,797,797,797,797,797,797,796,795,793,793,792,792,792,792,792,792,792,792,792,792,792,792,792,792,792,792,792,792,792,792,792,792,792,792,792,792,792,792,792,792,789,782,771,753,698,656,645,619,604,588,580,572,567,566,563,558,543,537,520,505,499,497,496,494,493,493,493,493,493,493,494,496,497,498,500,500,500,500,500,500,500,500,500,501,501,501,501,502],"ymouse":[546,546,546,546,546,546,546,546,546,546,546,546,546,546,546,546,546,546,546,546,546,546,546,546,546,546,546,546,546,546,546,546,546,546,546,546,546,546,546,546,546,541,537,529,520,517,517,517,517,517,517,517,517,517,517,517,517,517,517,517,517,517,517,517,517,517,517,517,517,517,517,517,517,517,517,517,512,503,493,481,443,404,388,334,292,235,214,197,189,186,182,177,161,156,140,130,125,123,121,120,116,114,113,113,112,111,110,109,108,106,105,104,104,104,104,104,104,104,104,103,102,101,100,99],"timestamp_mouse":[11,41,47,68,88,108,127,147,167,187,207,227,247,267,287,308,329,348,367,387,408,427,447,468,487,507,528,547,567,587,607,628,647,667,689,707,728,748,768,788,807,827,847,867,887,908,928,947,967,988,1009,1029,1047,1068,1088,1108,1127,1148,1168,1187,1207,1229,1248,1267,1287,1307,1327,1348,1367,1388,1409,1428,1447,1468,1488,1507,1527,1547,1568,1588,1607,1628,1647,1667,1687,1708,1728,1747,1767,1788,1807,1828,1847,1867,1887,1908,1927,1948,1967,1988,2007,2028,2047,2068,2087,2108,2128,2148,2168,2188,2208,2227,2248,2267,2289,2307,2328,2348,2367,2388,2407,2427,2447,2467],"xSR":741.5,"ySR":449.15000000000003,"xT1":424.9,"yT1":0,"xT2":1058.1,"yT2":0,"toosoon":0,"cond_shown":"equaldotsize","ratio_trial":900,"smaller_num":"18","larger_num":"20","correct_side":1,"subjID":"MelianFino1","gender":"1","age":"12","school":"6"},{"start_time":1551900469984,"click_time":1551900472043,"finger_time":1551900470961,"fix_duration":1181.503050449172,"trial":56,"RT":977,"MT":1082,"sideResp":2,"stimulus":"img/900/equaldotsize/R/14_Ratio_900_L_18_R_20.png","xmouse":[808,808,808,808,808,808,808,808,808,808,808,808,808,808,808,808,808,808,808,808,808,808,808,808,808,808,808,808,808,808,808,808,808,808,808,808,808,808,808,808,808,808,808,811,824,830,836,839,844,860,875,890,908,968,989,1005,1020,1029,1037,1040,1042,1043,1044,1044,1044,1045,1045,1045,1046,1047,1047,1049,1053,1062,1068,1069,1070,1072,1073,1074,1074,1075,1076,1076,1076,1076,1076,1076,1076,1076,1076,1076,1076,1076,1076,1076,1076,1077,1083,1086,1087,1089,1091],"ymouse":[543,543,543,543,543,543,543,543,543,543,543,543,543,543,543,543,543,543,543,543,543,543,543,543,543,543,543,543,543,543,543,543,543,543,543,543,543,543,543,543,543,543,543,543,519,503,490,481,471,444,424,404,384,328,310,291,270,257,242,235,227,219,208,199,178,172,168,163,159,155,152,150,145,135,129,127,126,125,123,123,122,121,120,119,119,119,119,119,119,119,119,119,119,119,119,119,119,117,110,107,105,101,98],"timestamp_mouse":[17,44,57,77,98,119,138,158,178,197,218,237,258,279,297,317,338,358,377,397,418,438,458,478,498,518,538,557,579,598,618,637,659,679,698,718,738,757,777,798,818,838,858,877,897,917,937,958,977,997,1017,1037,1058,1078,1097,1117,1137,1157,1178,1197,1218,1237,1257,1277,1298,1317,1337,1357,1377,1397,1417,1437,1457,1478,1497,1517,1537,1557,1578,1599,1617,1637,1658,1677,1697,1717,1737,1757,1778,1797,1819,1837,1858,1878,1898,1917,1938,1958,1978,1997,2017,2037,2059],"xSR":741.5,"ySR":449.15000000000003,"xT1":424.9,"yT1":0,"xT2":1058.1,"yT2":0,"toosoon":0,"cond_shown":"equaldotsize","ratio_trial":900,"smaller_num":"18","larger_num":"20","correct_side":2,"subjID":"MelianFino1","gender":"1","age":"12","school":"6"},{"start_time":1551900473331,"click_time":1551900474621,"finger_time":1551900474082,"fix_duration":349.0181249019002,"trial":57,"RT":751,"MT":539,"sideResp":1,"stimulus":"img/900/equaldotsize/L/8_Ratio_900_L_20_R_18.png","xmouse":[770,770,770,770,770,770,770,770,770,770,770,770,770,770,770,770,770,770,770,770,770,770,770,770,770,770,770,770,770,770,770,770,770,770,770,770,771,740,713,682,654,633,609,600,591,578,549,535,517,490,444,386,322,315,314,314,314,314,314,314,314,317,354,392,433],"ymouse":[516,516,516,516,516,516,516,516,516,516,516,516,516,516,516,516,516,516,516,516,516,516,516,516,516,516,516,516,516,516,516,516,516,516,516,516,516,472,438,393,350,316,273,258,242,226,194,183,169,150,121,89,52,47,46,46,46,46,46,46,46,46,49,54,59],"timestamp_mouse":[10,39,50,71,91,110,130,151,171,191,211,231,250,272,292,310,331,351,370,391,411,432,452,470,491,510,531,551,570,590,610,630,651,670,692,711,731,751,771,792,811,830,850,878,890,910,931,950,971,992,1011,1030,1050,1071,1091,1110,1130,1150,1171,1191,1211,1231,1250,1270,1290],"xSR":741.5,"ySR":449.15000000000003,"xT1":424.9,"yT1":0,"xT2":1058.1,"yT2":0,"toosoon":0,"cond_shown":"equaldotsize","ratio_trial":900,"smaller_num":"18","larger_num":"20","correct_side":1,"subjID":"MelianFino1","gender":"1","age":"12","school":"6"},{"start_time":1551900475880,"click_time":1551900477482,"finger_time":1551900476962,"fix_duration":297.41509325945447,"trial":58,"RT":1082,"MT":520,"sideResp":2,"stimulus":"img/750/equaldotanddens/R/12_Ratio_750_L_3_R_4.png","xmouse":[827,827,827,827,827,827,827,827,827,827,827,827,827,827,827,827,827,827,827,827,827,827,827,827,827,827,827,827,827,827,827,827,827,827,827,827,827,827,827,827,827,827,827,827,827,827,827,827,827,827,827,827,827,827,846,906,950,1004,1028,1043,1051,1051,1051,1051,1051,1053,1054,1055,1056,1056,1056,1056,1056,1056,1056,1056,1056,1056,1056,1057,1060],"ymouse":[493,493,493,493,493,493,493,493,493,493,493,493,493,493,493,493,493,493,493,493,493,493,493,493,493,493,493,493,493,493,493,493,493,493,493,493,493,493,493,493,493,493,493,493,493,493,493,493,493,493,493,493,493,493,478,413,355,267,212,171,122,107,95,87,76,50,32,21,18,18,18,18,18,18,18,18,18,18,20,27,39],"timestamp_mouse":[9,22,46,61,82,103,122,143,162,181,201,222,241,261,283,301,321,341,362,382,402,421,442,461,482,501,521,541,562,581,602,622,641,662,681,701,722,742,763,782,801,821,842,862,881,901,922,941,961,981,1002,1021,1041,1061,1082,1101,1121,1141,1161,1182,1201,1221,1242,1261,1281,1301,1323,1341,1361,1381,1401,1422,1441,1461,1482,1501,1521,1541,1562,1581,1601],"xSR":741.5,"ySR":449.15000000000003,"xT1":424.9,"yT1":0,"xT2":1058.1,"yT2":0,"toosoon":0,"cond_shown":"equaldotanddens","ratio_trial":750,"smaller_num":"3","larger_num":"4","correct_side":2,"subjID":"MelianFino1","gender":"1","age":"12","school":"6"},{"start_time":1551900479380,"click_time":1551900480383,"finger_time":1551900480141,"fix_duration":1096.7859680473339,"trial":59,"RT":761,"MT":242,"sideResp":2,"stimulus":"img/500/equaldotanddens/R/1_Ratio_500_L_9_R_18.png","xmouse":[784,784,784,784,784,784,784,784,784,784,784,784,784,784,784,784,784,784,784,784,784,784,784,784,784,784,784,784,784,784,784,784,784,784,784,784,784,804,870,951,1043,1067,1071,1072,1072,1072,1073,1076,1083,1090,1096],"ymouse":[490,490,490,490,490,490,490,490,490,490,490,490,490,490,490,490,490,490,490,490,490,490,490,490,490,490,490,490,490,490,490,490,490,490,490,490,490,479,442,387,277,198,168,148,138,134,131,128,117,107,91],"timestamp_mouse":[10,22,43,62,81,101,122,142,161,181,203,221,242,262,281,301,322,343,362,382,401,422,441,461,482,502,521,542,562,581,602,622,641,661,681,702,721,742,761,782,803,821,842,862,882,902,921,941,961,982,1002],"xSR":741.5,"ySR":449.15000000000003,"xT1":424.9,"yT1":0,"xT2":1058.1,"yT2":0,"toosoon":0,"cond_shown":"equaldotanddens","ratio_trial":500,"smaller_num":"9","larger_num":"18","correct_side":2,"subjID":"MelianFino1","gender":"1","age":"12","school":"6"},{"start_time":1551900481678,"click_time":1551900482641,"finger_time":1551900482301,"fix_duration":475.2670253709347,"trial":60,"RT":623,"MT":340,"sideResp":1,"stimulus":"img/500/equaldotsize/L/8_Ratio_500_L_8_R_4.png","xmouse":[791,791,791,791,791,791,791,791,791,791,791,791,791,791,791,791,791,791,791,791,791,791,791,791,791,791,791,791,791,788,763,741,716,700,683,664,654,646,638,615,601,584,565,526,487,472,456,447],"ymouse":[480,480,480,480,480,480,480,480,480,480,480,480,480,480,480,480,480,480,480,480,480,480,480,480,480,480,480,480,477,471,434,404,372,350,329,308,299,293,285,261,243,223,201,163,130,116,103,95],"timestamp_mouse":[20,46,64,83,104,125,145,163,185,204,224,245,265,284,303,323,344,363,384,404,423,444,464,483,504,523,543,564,583,603,623,643,663,684,703,724,743,763,783,805,823,843,863,883,906,923,943,963],"xSR":741.5,"ySR":449.15000000000003,"xT1":424.9,"yT1":0,"xT2":1058.1,"yT2":0,"toosoon":0,"cond_shown":"equaldotsize","ratio_trial":500,"smaller_num":"4","larger_num":"8","correct_side":1,"subjID":"MelianFino1","gender":"1","age":"12","school":"6"},{"start_time":1551900484587,"click_time":1551900485561,"finger_time":1551900485322,"fix_duration":902.797121642769,"trial":61,"RT":735,"MT":239,"sideResp":1,"stimulus":"img/250/equaldotanddens/L/14_Ratio_250_L_12_R_3.png","xmouse":[832,832,832,831,830,827,826,826,826,826,825,825,825,824,822,822,822,822,822,822,822,822,822,822,822,822,822,822,822,822,822,822,822,822,821,792,752,722,678,637,571,549,535,523,513,497,489,483,475],"ymouse":[478,479,479,480,481,483,483,483,484,484,484,484,485,486,487,487,487,487,487,487,487,487,487,487,487,487,487,487,487,487,487,487,487,487,487,466,435,406,367,329,254,225,203,182,163,128,112,101,85],"timestamp_mouse":[14,34,54,75,95,114,135,154,174,195,215,235,254,274,296,314,334,354,375,394,415,435,455,474,494,515,534,555,575,595,614,634,655,676,695,714,735,754,774,794,814,834,855,874,894,914,935,954,974],"xSR":741.5,"ySR":449.15000000000003,"xT1":424.9,"yT1":0,"xT2":1058.1,"yT2":0,"toosoon":0,"cond_shown":"equaldotanddens","ratio_trial":250,"smaller_num":"3","larger_num":"12","correct_side":1,"subjID":"MelianFino1","gender":"1","age":"12","school":"6"},{"start_time":1551900486714,"click_time":1551900487542,"finger_time":1551900487421,"fix_duration":250,"trial":62,"RT":707,"MT":121,"sideResp":2,"stimulus":"img/250/equaldotsize/R/4_Ratio_250_L_3_R_12.png","xmouse":[771,771,771,771,771,771,771,771,771,771,771,771,771,771,771,771,771,771,771,771,771,771,771,771,771,771,771,771,771,771,771,771,771,774,784,836,871,916,956,1029,1068,1091],"ymouse":[471,471,471,471,471,471,471,471,471,471,471,471,471,471,471,471,471,471,471,471,471,471,471,471,471,471,471,471,471,471,471,471,471,471,456,388,345,308,274,197,135,90],"timestamp_mouse":[9,27,60,69,88,107,129,148,167,189,207,227,248,269,289,307,327,348,367,387,408,427,447,467,488,509,529,548,568,588,608,629,648,667,687,707,728,748,768,789,807,828],"xSR":741.5,"ySR":449.15000000000003,"xT1":424.9,"yT1":0,"xT2":1058.1,"yT2":0,"toosoon":0,"cond_shown":"equaldotsize","ratio_trial":250,"smaller_num":"3","larger_num":"12","correct_side":2,"subjID":"MelianFino1","gender":"1","age":"12","school":"6"},{"start_time":1551900489301,"click_time":1551900490503,"finger_time":1551900490242,"fix_duration":638.1919191703049,"trial":63,"RT":941,"MT":261,"sideResp":1,"stimulus":"img/750/randomdotsizeEA/R/11_Ratio_750_L_12_R_16.png","xmouse":[803,803,803,803,803,803,803,803,803,803,803,803,803,803,803,803,803,803,803,803,803,803,803,803,803,803,803,803,803,803,803,803,803,803,803,803,803,803,803,803,803,803,803,803,803,797,753,718,684,654,631,594,585,575,564,554,543,540,538,534,511],"ymouse":[500,500,500,500,500,500,500,500,500,500,500,500,500,500,500,500,500,500,500,500,500,500,500,500,500,500,500,500,500,500,500,500,500,500,500,500,500,500,500,500,500,500,500,500,500,497,455,424,397,376,360,324,306,284,259,236,196,181,165,146,89],"timestamp_mouse":[14,28,43,60,80,100,122,140,162,181,201,221,241,261,282,300,320,341,362,380,400,420,441,461,482,501,521,540,561,581,601,621,641,661,681,702,721,741,760,780,800,822,840,861,880,900,920,941,961,982,1001,1021,1040,1060,1080,1100,1120,1140,1160,1180,1202],"xSR":741.5,"ySR":449.15000000000003,"xT1":424.9,"yT1":0,"xT2":1058.1,"yT2":0,"toosoon":0,"cond_shown":"randomdotsizeEA","ratio_trial":750,"smaller_num":"12","larger_num":"16","correct_side":2,"subjID":"MelianFino1","gender":"1","age":"12","school":"6"},{"start_time":1551900492355,"click_time":1551900493122,"finger_time":1551900492882,"fix_duration":1132.861509386858,"trial":64,"RT":527,"MT":240,"sideResp":1,"stimulus":"img/250/equaldotanddens/L/7_Ratio_250_L_8_R_2.png","xmouse":[840,840,840,840,840,840,839,838,826,823,822,822,822,822,822,822,822,822,821,817,812,807,803,789,774,751,688,633,524,482,451,434,422,414,413,411,411,415,448],"ymouse":[519,519,519,519,519,519,519,518,515,513,513,513,513,513,513,513,513,513,512,510,508,505,503,492,480,458,389,322,200,159,134,116,106,99,96,95,92,86,61],"timestamp_mouse":[10,41,46,66,86,107,127,147,168,187,207,226,247,267,287,307,326,348,367,386,407,427,446,466,486,506,527,546,566,586,608,627,647,666,687,707,726,747,767],"xSR":741.5,"ySR":449.15000000000003,"xT1":424.9,"yT1":0,"xT2":1058.1,"yT2":0,"toosoon":0,"cond_shown":"equaldotanddens","ratio_trial":250,"smaller_num":"2","larger_num":"8","correct_side":1,"subjID":"MelianFino1","gender":"1","age":"12","school":"6"},{"start_time":1551900494689,"click_time":1551900498341,"finger_time":1551900495121,"fix_duration":666.8613304747226,"trial":65,"RT":432,"MT":3220,"sideResp":1,"stimulus":"img/750/equaldotsize/L/10_Ratio_750_L_4_R_3.png","xmouse":[777,777,777,777,777,777,777,777,777,777,777,777,777,777,777,777,777,777,777,778,761,735,732,732,732,732,732,732,732,732,732,732,732,732,732,732,732,732,732,732,732,732,732,732,732,732,732,732,732,732,732,732,732,732,732,732,732,732,732,732,732,732,732,732,732,732,732,732,732,732,732,732,732,732,732,732,732,732,732,732,732,732,732,732,732,732,732,732,732,732,732,732,732,732,732,732,732,732,732,732,732,730,723,720,720,720,720,720,720,720,720,720,720,720,720,720,720,720,720,720,720,720,720,720,720,720,720,720,720,720,720,720,720,720,720,720,720,720,720,720,720,720,720,720,720,720,720,720,720,720,720,720,720,720,720,720,720,720,720,715,712,709,709,709,709,705,665,639,609,572,537,506,504,503,502,502,502,502,502,504,508,514,515],"ymouse":[480,480,480,480,480,480,480,480,480,480,480,480,480,480,480,480,480,480,480,479,454,426,423,423,423,423,423,423,423,423,423,423,423,423,423,423,423,423,423,423,423,423,423,423,423,423,423,423,423,423,423,423,423,423,423,423,423,423,423,423,423,423,423,423,423,423,423,423,423,423,423,423,423,423,423,423,423,423,423,423,423,423,423,423,423,423,423,423,423,423,423,423,423,423,423,423,423,423,423,423,423,417,409,406,406,406,406,406,406,406,406,406,406,406,406,406,406,406,406,406,406,406,406,406,406,406,406,406,406,406,406,406,406,406,406,406,406,406,406,406,406,406,406,406,406,406,406,406,406,406,406,406,406,406,406,406,406,406,397,360,334,317,315,315,315,308,260,240,219,198,183,170,169,168,167,167,167,161,155,145,131,101,91],"timestamp_mouse":[13,35,53,72,92,114,133,153,173,193,213,232,252,272,293,313,333,353,374,393,413,432,452,473,493,512,533,554,574,592,612,633,652,673,692,713,733,754,774,792,813,832,853,872,893,912,932,952,972,994,1012,1032,1052,1073,1093,1112,1132,1153,1172,1194,1212,1233,1253,1272,1292,1312,1332,1354,1373,1394,1414,1433,1452,1473,1493,1514,1533,1553,1573,1592,1614,1633,1652,1674,1693,1713,1733,1752,1773,1792,1812,1834,1853,1872,1894,1913,1933,1952,1973,1993,2012,2033,2052,2073,2093,2113,2132,2153,2172,2193,2212,2233,2253,2274,2293,2314,2332,2352,2374,2394,2413,2433,2454,2473,2493,2513,2533,2552,2572,2593,2612,2633,2653,2672,2693,2714,2734,2754,2773,2793,2814,2832,2853,2872,2892,2913,2933,2952,2974,2992,3012,3033,3052,3073,3094,3114,3133,3153,3172,3193,3212,3234,3252,3273,3292,3314,3333,3352,3373,3393,3412,3433,3452,3472,3493,3512,3532,