[{"start_time":1551900572040,"click_time":1551900572905,"finger_time":1551900572805,"fix_duration":1212.3949670489744,"trial":0,"RT":765,"MT":100,"sideResp":2,"stimulus":"img/900/randomdotsizeEA/R/15_Ratio_900_L_9_R_10.png","xmouse":[641,641,641,641,641,641,641,641,641,641,641,641,641,641,641,641,641,641,641,641,641,641,641,641,641,641,641,641,641,641,641,641,641,641,641,641,645,652,680,754,792,836,876,915],"ymouse":[476,476,476,476,476,476,476,476,476,476,476,476,476,476,476,476,476,476,476,476,476,476,476,476,476,476,476,476,476,476,476,476,476,476,476,476,472,467,434,325,256,180,109,47],"timestamp_mouse":[4,38,45,66,84,105,124,144,164,185,204,226,244,264,286,305,324,345,364,384,406,424,445,464,485,506,525,546,564,585,605,624,646,665,685,704,724,744,765,785,805,825,844,865],"xSR":583.2000122070312,"ySR":401.440023803711,"xT1":329.9200073242187,"yT1":0,"xT2":836.4800170898437,"yT2":0,"toosoon":0,"cond_shown":"randomdotsizeEA","ratio_trial":900,"smaller_num":"9","larger_num":"10","correct_side":2,"subjID":"JUANMANUELMERCHANRODRIGEZ27","gender":"0","age":"12","school":"6","test":{"fix_dur":[250,1500],"timestim":300,"targets_dim":[100,100],"targets_relative_coord":[0.3,0.7],"size_stim":[880,420],"start_dim":[100,100],"size_start":[300,300],"size_fix":60,"samplingrate":20,"img_types":["equaldotsize","equaldotanddens","randomdotsizeEA"],"ratios":[250,500,750,900],"rep_conds":9,"nTrials":120,"trials_to_rest":500,"Trials_order":[47,44,53,56,116,83,86,73,113,15,35,106,12,23,43,61,24,70,94,52,34,0,19,17,101,48,107,92,5,42,33,58,13,102,29,57,89,84,87,3,18,16,68,45,108,2,115,46,54,40,119,72,37,96,63,78,22,49,103,100,105,99,110,109,75,118,69,114,9,66,65,21,97,8,32,11,71,90,82,41,67,27,59,62,28,91,38,31,4,93,64,77,76,55,117,81,74,25,50,6,7,79,30,95,85,88,112,39,26,98,1,111,60,20,51,10,80,104,36,14],"cond_shown":["randomdotsizeEA","randomdotsizeEA","randomdotsizeEA","randomdotsizeEA","randomdotsizeEA","randomdotsizeEA","randomdotsizeEA","equaldotanddens","randomdotsizeEA","equaldotsize","randomdotsizeEA","equaldotanddens","equaldotsize","randomdotsizeEA","equaldotanddens","equaldotanddens","equaldotsize","equaldotanddens","equaldotanddens","equaldotanddens","equaldotanddens","equaldotsize","equaldotanddens","randomdotsizeEA","randomdotsizeEA","equaldotsize","randomdotsizeEA","randomdotsizeEA","randomdotsizeEA","equaldotsize","equaldotsize","equaldotanddens","equaldotanddens","equaldotsize","randomdotsizeEA","equaldotsize","randomdotsizeEA","equaldotsize","equaldotsize","equaldotsize","equaldotsize","equaldotanddens","randomdotsizeEA","equaldotsize","equaldotsize","randomdotsizeEA","equaldotanddens","equaldotanddens","equaldotsize","equaldotanddens","randomdotsizeEA","equaldotsize","equaldotanddens","equaldotsize","equaldotsize","equaldotsize","equaldotanddens","equaldotanddens","equaldotanddens","equaldotanddens","equaldotsize","equaldotsize","randomdotsizeEA","equaldotanddens","equaldotsize","equaldotanddens","equaldotsize","equaldotsize","equaldotsize","equaldotsize","randomdotsizeEA","equaldotsize","equaldotanddens","randomdotsizeEA","randomdotsizeEA","randomdotsizeEA","randomdotsizeEA","equaldotsize","equaldotanddens","randomdotsizeEA","equaldotanddens","equaldotsize","randomdotsizeEA","randomdotsizeEA","equaldotanddens","equaldotanddens","randomdotsizeEA","equaldotanddens","equaldotanddens","equaldotsize","equaldotanddens","randomdotsizeEA","equaldotanddens","equaldotanddens","equaldotsize","equaldotsize","randomdotsizeEA","equaldotanddens","randomdotsizeEA","equaldotsize","equaldotanddens","equaldotanddens","equaldotsize","randomdotsizeEA","equaldotanddens","equaldotanddens","equaldotanddens","equaldotsize","randomdotsizeEA","randomdotsizeEA","equaldotanddens","equaldotsize","equaldotsize","randomdotsizeEA","equaldotsize","equaldotanddens","randomdotsizeEA","randomdotsizeEA","equaldotsize","randomdotsizeEA"],"ratio_trial":[900,750,500,750,750,900,250,250,500,500,900,900,250,900,750,250,250,900,900,500,900,250,750,500,500,250,900,750,500,750,900,900,250,750,500,900,500,250,500,500,750,500,750,900,250,250,750,900,750,500,900,250,250,250,500,750,900,250,750,500,900,500,250,250,500,900,900,750,900,750,500,900,250,750,750,900,900,750,900,500,750,500,900,250,500,750,250,750,500,900,500,500,500,750,900,900,250,250,250,750,750,750,750,900,250,500,500,500,250,250,250,500,250,750,500,900,750,750,250,250],"smaller_num":["9","15","9","3","6","18","3","3","1","3","18","9","3","9","15","4","2","18","18","3","18","4","3","2","9","3","9","3","2","12","9","18","4","6","10","18","6","4","2","10","6","9","15","9","3","2","15","18","3","2","9","6","4","4","3","3","18","5","6","5","18","1","6","6","2","9","9","15","18","3","6","9","2","6","3","18","9","3","18","2","9","1","18","3","3","6","3","6","4","9","2","2","2","12","9","18","3","3","2","12","3","3","6","9","3","4","6","9","5","3","2","1","6","15","6","18","15","9","6","2"],"larger_num":["10","20","18","4","8","20","12","12","2","6","20","10","12","10","20","16","8","20","20","6","20","16","4","4","18","12","10","4","4","16","10","20","16","8","20","20","12","16","4","20","8","18","20","10","12","8","20","20","4","4","10","24","16","16","6","4","20","20","8","10","20","2","24","24","4","10","10","20","20","4","12","10","8","8","4","20","10","4","20","4","12","2","20","12","6","8","12","8","8","10","4","4","4","16","10","20","12","12","8","16","4","4","8","10","12","8","12","18","20","12","8","2","24","20","12","20","20","12","24","8"],"correct_side":[2,1,1,1,1,2,1,2,2,2,1,2,1,2,1,1,2,2,1,2,1,1,1,1,1,1,2,2,1,2,2,2,1,2,2,2,1,2,1,2,2,2,2,2,1,1,2,1,1,2,1,1,2,1,2,1,1,2,1,1,1,2,1,1,1,1,1,2,2,1,1,2,1,1,1,1,2,1,1,1,2,2,2,2,2,1,2,1,1,2,1,1,1,2,2,1,1,2,1,2,2,2,1,1,2,1,1,2,2,1,1,2,1,2,1,1,2,2,2,2],"img_shown":["img/900/randomdotsizeEA/R/15_Ratio_900_L_9_R_10.png","img/750/randomdotsizeEA/L/1_Ratio_750_L_20_R_15.png","img/500/randomdotsizeEA/L/4_Ratio_500_L_18_R_9.png","img/750/randomdotsizeEA/L/10_Ratio_750_L_4_R_3.png","img/750/randomdotsizeEA/L/14_Ratio_750_L_8_R_6.png","img/900/randomdotsizeEA/R/11_Ratio_900_L_18_R_20.png","img/250/randomdotsizeEA/L/15_Ratio_250_L_12_R_3.png","img/250/equaldotanddens/R/11_Ratio_250_L_3_R_12.png","img/500/randomdotsizeEA/R/12_Ratio_500_L_1_R_2.png","img/500/equaldotsize/R/2_Ratio_500_L_3_R_6.png","img/900/randomdotsizeEA/L/10_Ratio_900_L_20_R_18.png","img/900/equaldotanddens/R/3_Ratio_900_L_9_R_10.png","img/250/equaldotsize/L/14_Ratio_250_L_12_R_3.png","img/900/randomdotsizeEA/R/6_Ratio_900_L_9_R_10.png","img/750/equaldotanddens/L/1_Ratio_750_L_20_R_15.png","img/250/equaldotanddens/L/2_Ratio_250_L_16_R_4.png","img/250/equaldotsize/R/13_Ratio_250_L_2_R_8.png","img/900/equaldotanddens/R/9_Ratio_900_L_18_R_20.png","img/900/equaldotanddens/L/4_Ratio_900_L_20_R_18.png","img/500/equaldotanddens/R/2_Ratio_500_L_3_R_6.png","img/900/equaldotanddens/L/2_Ratio_900_L_20_R_18.png","img/250/equaldotsize/L/2_Ratio_250_L_16_R_4.png","img/750/equaldotanddens/L/8_Ratio_750_L_4_R_3.png","img/500/randomdotsizeEA/L/10_Ratio_500_L_4_R_2.png","img/500/randomdotsizeEA/L/4_Ratio_500_L_18_R_9.png","img/250/equaldotsize/L/15_Ratio_250_L_12_R_3.png","img/900/randomdotsizeEA/R/3_Ratio_900_L_9_R_10.png","img/750/randomdotsizeEA/R/7_Ratio_750_L_3_R_4.png","img/500/randomdotsizeEA/L/10_Ratio_500_L_4_R_2.png","img/750/equaldotsize/R/11_Ratio_750_L_12_R_16.png","img/900/equaldotsize/R/3_Ratio_900_L_9_R_10.png","img/900/equaldotanddens/R/14_Ratio_900_L_18_R_20.png","img/250/equaldotanddens/L/2_Ratio_250_L_16_R_4.png","img/750/equaldotsize/R/2_Ratio_750_L_6_R_8.png","img/500/randomdotsizeEA/R/3_Ratio_500_L_10_R_20.png","img/900/equaldotsize/R/11_Ratio_900_L_18_R_20.png","img/500/randomdotsizeEA/L/11_Ratio_500_L_12_R_6.png","img/250/equaldotsize/R/10_Ratio_250_L_4_R_16.png","img/500/equaldotsize/L/5_Ratio_500_L_4_R_2.png","img/500/equaldotsize/R/3_Ratio_500_L_10_R_20.png","img/750/equaldotsize/R/2_Ratio_750_L_6_R_8.png","img/500/equaldotanddens/R/6_Ratio_500_L_9_R_18.png","img/750/randomdotsizeEA/R/3_Ratio_750_L_15_R_20.png","img/900/equaldotsize/R/15_Ratio_900_L_9_R_10.png","img/250/equaldotsize/L/15_Ratio_250_L_12_R_3.png","img/250/randomdotsizeEA/L/7_Ratio_250_L_8_R_2.png","img/750/equaldotanddens/R/3_Ratio_750_L_15_R_20.png","img/900/equaldotanddens/L/10_Ratio_900_L_20_R_18.png","img/750/equaldotsize/L/9_Ratio_750_L_4_R_3.png","img/500/equaldotanddens/R/9_Ratio_500_L_2_R_4.png","img/900/randomdotsizeEA/L/1_Ratio_900_L_10_R_9.png","img/250/equaldotsize/L/5_Ratio_250_L_24_R_6.png","img/250/equaldotanddens/R/10_Ratio_250_L_4_R_16.png","img/250/equaldotsize/L/2_Ratio_250_L_16_R_4.png","img/500/equaldotsize/R/2_Ratio_500_L_3_R_6.png","img/750/equaldotsize/L/8_Ratio_750_L_4_R_3.png","img/900/equaldotanddens/L/2_Ratio_900_L_20_R_18.png","img/250/equaldotanddens/R/12_Ratio_250_L_5_R_20.png","img/750/equaldotanddens/L/14_Ratio_750_L_8_R_6.png","img/500/equaldotanddens/L/7_Ratio_500_L_10_R_5.png","img/900/equaldotsize/L/8_Ratio_900_L_20_R_18.png","img/500/equaldotsize/R/15_Ratio_500_L_1_R_2.png","img/250/randomdotsizeEA/L/5_Ratio_250_L_24_R_6.png","img/250/equaldotanddens/L/5_Ratio_250_L_24_R_6.png","img/500/equaldotsize/L/10_Ratio_500_L_4_R_2.png","img/900/equaldotanddens/L/1_Ratio_900_L_10_R_9.png","img/900/equaldotsize/L/1_Ratio_900_L_10_R_9.png","img/750/equaldotsize/R/5_Ratio_750_L_15_R_20.png","img/900/equaldotsize/R/11_Ratio_900_L_18_R_20.png","img/750/equaldotsize/L/8_Ratio_750_L_4_R_3.png","img/500/randomdotsizeEA/L/13_Ratio_500_L_12_R_6.png","img/900/equaldotsize/R/6_Ratio_900_L_9_R_10.png","img/250/equaldotanddens/L/3_Ratio_250_L_8_R_2.png","img/750/randomdotsizeEA/L/14_Ratio_750_L_8_R_6.png","img/750/randomdotsizeEA/L/8_Ratio_750_L_4_R_3.png","img/900/randomdotsizeEA/L/4_Ratio_900_L_20_R_18.png","img/900/randomdotsizeEA/R/3_Ratio_900_L_9_R_10.png","img/750/equaldotsize/L/8_Ratio_750_L_4_R_3.png","img/900/equaldotanddens/L/2_Ratio_900_L_20_R_18.png","img/500/randomdotsizeEA/L/10_Ratio_500_L_4_R_2.png","img/750/equaldotanddens/R/15_Ratio_750_L_9_R_12.png","img/500/equaldotsize/R/12_Ratio_500_L_1_R_2.png","img/900/randomdotsizeEA/R/12_Ratio_900_L_18_R_20.png","img/250/randomdotsizeEA/R/9_Ratio_250_L_3_R_12.png","img/500/equaldotanddens/R/2_Ratio_500_L_3_R_6.png","img/750/equaldotanddens/L/13_Ratio_750_L_8_R_6.png","img/250/randomdotsizeEA/R/11_Ratio_250_L_3_R_12.png","img/750/equaldotanddens/L/13_Ratio_750_L_8_R_6.png","img/500/equaldotanddens/L/8_Ratio_500_L_8_R_4.png","img/900/equaldotsize/R/7_Ratio_900_L_9_R_10.png","img/500/equaldotanddens/L/10_Ratio_500_L_4_R_2.png","img/500/randomdotsizeEA/L/5_Ratio_500_L_4_R_2.png","img/500/equaldotanddens/L/10_Ratio_500_L_4_R_2.png","img/750/equaldotanddens/R/11_Ratio_750_L_12_R_16.png","img/900/equaldotsize/R/6_Ratio_900_L_9_R_10.png","img/900/equaldotsize/L/2_Ratio_900_L_20_R_18.png","img/250/randomdotsizeEA/L/14_Ratio_250_L_12_R_3.png","img/250/equaldotanddens/R/9_Ratio_250_L_3_R_12.png","img/250/randomdotsizeEA/L/3_Ratio_250_L_8_R_2.png","img/750/equaldotsize/R/11_Ratio_750_L_12_R_16.png","img/750/equaldotanddens/R/7_Ratio_750_L_3_R_4.png","img/750/equaldotanddens/R/12_Ratio_750_L_3_R_4.png","img/750/equaldotsize/L/14_Ratio_750_L_8_R_6.png","img/900/randomdotsizeEA/L/1_Ratio_900_L_10_R_9.png","img/250/equaldotanddens/R/11_Ratio_250_L_3_R_12.png","img/500/equaldotanddens/L/8_Ratio_500_L_8_R_4.png","img/500/equaldotanddens/L/11_Ratio_500_L_12_R_6.png","img/500/equaldotsize/R/6_Ratio_500_L_9_R_18.png","img/250/randomdotsizeEA/R/12_Ratio_250_L_5_R_20.png","img/250/randomdotsizeEA/L/15_Ratio_250_L_12_R_3.png","img/250/equaldotanddens/L/1_Ratio_250_L_8_R_2.png","img/500/equaldotsize/R/12_Ratio_500_L_1_R_2.png","img/250/equaldotsize/L/5_Ratio_250_L_24_R_6.png","img/750/randomdotsizeEA/R/5_Ratio_750_L_15_R_20.png","img/500/equaldotsize/L/11_Ratio_500_L_12_R_6.png","img/900/equaldotanddens/L/2_Ratio_900_L_20_R_18.png","img/750/randomdotsizeEA/R/3_Ratio_750_L_15_R_20.png","img/750/randomdotsizeEA/R/15_Ratio_750_L_9_R_12.png","img/250/equaldotsize/R/6_Ratio_250_L_6_R_24.png","img/250/randomdotsizeEA/R/13_Ratio_250_L_2_R_8.png"],"Rat0":[["12_Ratio_0_L_9_R_0.png","13_Ratio_0_L_6_R_0.png","5_Ratio_0_L_2_R_0.png","6_Ratio_0_L_4_R_0.png","8_Ratio_0_L_6_R_0.png"],["1_Ratio_0_L_0_R_17.png","10_Ratio_0_L_0_R_22.png","11_Ratio_0_L_0_R_1.png","14_Ratio_0_L_0_R_24.png","15_Ratio_0_L_0_R_4.png","2_Ratio_0_L_0_R_5.png","3_Ratio_0_L_0_R_17.png","4_Ratio_0_L_0_R_7.png","7_Ratio_0_L_0_R_19.png","9_Ratio_0_L_0_R_15.png"]],"Rat250":[["1_Ratio_250_L_8_R_2.png","14_Ratio_250_L_12_R_3.png","15_Ratio_250_L_12_R_3.png","2_Ratio_250_L_16_R_4.png","3_Ratio_250_L_8_R_2.png","5_Ratio_250_L_24_R_6.png","7_Ratio_250_L_8_R_2.png"],["10_Ratio_250_L_4_R_16.png","11_Ratio_250_L_3_R_12.png","12_Ratio_250_L_5_R_20.png","13_Ratio_250_L_2_R_8.png","4_Ratio_250_L_3_R_12.png","6_Ratio_250_L_6_R_24.png","8_Ratio_250_L_1_R_4.png","9_Ratio_250_L_3_R_12.png"]],"Rat500":[["10_Ratio_500_L_4_R_2.png","11_Ratio_500_L_12_R_6.png","13_Ratio_500_L_12_R_6.png","4_Ratio_500_L_18_R_9.png","5_Ratio_500_L_4_R_2.png","7_Ratio_500_L_10_R_5.png","8_Ratio_500_L_8_R_4.png"],["1_Ratio_500_L_9_R_18.png","12_Ratio_500_L_1_R_2.png","14_Ratio_500_L_5_R_10.png","15_Ratio_500_L_1_R_2.png","2_Ratio_500_L_3_R_6.png","3_Ratio_500_L_10_R_20.png","6_Ratio_500_L_9_R_18.png","9_Ratio_500_L_2_R_4.png"]],"Rat750":[["1_Ratio_750_L_20_R_15.png","10_Ratio_750_L_4_R_3.png","13_Ratio_750_L_8_R_6.png","14_Ratio_750_L_8_R_6.png","6_Ratio_750_L_24_R_18.png","8_Ratio_750_L_4_R_3.png","9_Ratio_750_L_4_R_3.png"],["11_Ratio_750_L_12_R_16.png","12_Ratio_750_L_3_R_4.png","15_Ratio_750_L_9_R_12.png","2_Ratio_750_L_6_R_8.png","3_Ratio_750_L_15_R_20.png","4_Ratio_750_L_15_R_20.png","5_Ratio_750_L_15_R_20.png","7_Ratio_750_L_3_R_4.png"]],"Rat900":[["1_Ratio_900_L_10_R_9.png","10_Ratio_900_L_20_R_18.png","2_Ratio_900_L_20_R_18.png","4_Ratio_900_L_20_R_18.png","8_Ratio_900_L_20_R_18.png"],["11_Ratio_900_L_18_R_20.png","12_Ratio_900_L_18_R_20.png","13_Ratio_900_L_18_R_20.png","14_Ratio_900_L_18_R_20.png","15_Ratio_900_L_9_R_10.png","3_Ratio_900_L_9_R_10.png","5_Ratio_900_L_9_R_10.png","6_Ratio_900_L_9_R_10.png","7_Ratio_900_L_9_R_10.png","9_Ratio_900_L_18_R_20.png"]],"Rat1000":[["10_Ratio_1000_L_16_R_16.png","11_Ratio_1000_L_6_R_6.png","12_Ratio_1000_L_14_R_14.png","13_Ratio_1000_L_20_R_20.png","15_Ratio_1000_L_15_R_15.png","2_Ratio_1000_L_17_R_17.png","4_Ratio_1000_L_9_R_9.png","5_Ratio_1000_L_6_R_6.png","6_Ratio_1000_L_19_R_19.png","8_Ratio_1000_L_14_R_14.png","9_Ratio_1000_L_25_R_25.png"],["1_Ratio_1000_L_1_R_1.png","14_Ratio_1000_L_17_R_17.png","3_Ratio_1000_L_17_R_17.png","7_Ratio_1000_L_6_R_6.png"]]}},{"start_time":1551900574196,"click_time":1551900575305,"finger_time":1551900574686,"fix_duration":250,"trial":1,"RT":490,"MT":619,"sideResp":1,"stimulus":"img/750/randomdotsizeEA/L/1_Ratio_750_L_20_R_15.png","xmouse":[585,585,585,585,585,585,585,587,587,587,588,591,592,594,597,601,604,610,612,613,616,624,651,670,690,707,729,788,812,830,830,798,782,766,755,746,645,573,489,399,375,349,336,320,308,296,292,292,292,292,292,292,300,308,321,333],"ymouse":[545,544,543,543,543,543,542,540,540,540,540,538,538,537,535,532,529,526,524,523,520,513,484,464,442,423,400,336,299,246,215,165,156,153,152,150,92,41,0,0,0,0,0,0,0,0,0,0,0,0,1,2,4,6,11,14],"timestamp_mouse":[9,29,58,70,88,110,128,149,170,189,208,229,250,268,288,308,328,348,368,389,409,428,449,470,490,509,529,548,568,588,609,630,648,669,690,710,729,749,769,789,809,830,850,869,888,909,930,948,970,988,1009,1028,1049,1069,1089,1108],"xSR":583.2000122070312,"ySR":459.16001586914064,"xT1":329.9200073242187,"yT1":0,"xT2":836.4800170898437,"yT2":0,"toosoon":0,"cond_shown":"randomdotsizeEA","ratio_trial":750,"smaller_num":"15","larger_num":"20","correct_side":1,"subjID":"JUANMANUELMERCHANRODRIGEZ27","gender":"0","age":"12","school":"6"},{"start_time":1551900577446,"click_time":1551900578284,"finger_time":1551900578164,"fix_duration":1279.9369100244012,"trial":2,"RT":718,"MT":120,"sideResp":1,"stimulus":"img/500/randomdotsizeEA/L/4_Ratio_500_L_18_R_9.png","xmouse":[634,634,634,634,634,634,634,634,634,634,634,634,634,634,634,634,634,634,634,634,634,634,634,632,628,628,625,624,624,624,624,624,624,623,612,592,544,504,449,432,420,412],"ymouse":[506,506,506,506,506,506,506,506,506,506,506,506,506,506,506,506,506,506,506,506,506,506,506,506,504,504,503,503,502,502,502,502,501,500,479,444,356,283,180,144,116,99],"timestamp_mouse":[18,38,59,80,100,119,139,158,179,199,218,239,258,279,299,319,340,359,378,400,420,440,459,479,499,518,539,558,578,598,619,638,658,679,699,718,739,759,780,798,820,838],"xSR":583.2000122070312,"ySR":459.16001586914064,"xT1":329.9200073242187,"yT1":0,"xT2":836.4800170898437,"yT2":0,"toosoon":0,"cond_shown":"randomdotsizeEA","ratio_trial":500,"smaller_num":"9","larger_num":"18","correct_side":1,"subjID":"JUANMANUELMERCHANRODRIGEZ27","gender":"0","age":"12","school":"6"},{"start_time":1551900579668,"click_time":1551900580344,"finger_time":1551900580125,"fix_duration":523.9789355368142,"trial":3,"RT":457,"MT":219,"sideResp":1,"stimulus":"img/750/randomdotsizeEA/L/10_Ratio_750_L_4_R_3.png","xmouse":[614,614,614,614,614,614,614,614,614,614,614,614,614,614,614,614,615,619,626,636,648,657,668,669,669,667,666,664,640,615,573,521,403,341],"ymouse":[495,495,495,495,495,495,495,495,495,495,495,495,495,495,495,495,495,493,490,484,476,468,446,439,426,413,408,405,398,386,356,301,152,65],"timestamp_mouse":[16,36,58,76,96,116,137,157,178,197,217,237,256,276,296,317,337,358,377,398,418,436,457,476,496,517,538,556,577,598,617,638,657,676],"xSR":583.2000122070312,"ySR":459.16001586914064,"xT1":329.9200073242187,"yT1":0,"xT2":836.4800170898437,"yT2":0,"toosoon":0,"cond_shown":"randomdotsizeEA","ratio_trial":750,"smaller_num":"3","larger_num":"4","correct_side":1,"subjID":"JUANMANUELMERCHANRODRIGEZ27","gender":"0","age":"12","school":"6"},{"start_time":1551900584456,"click_time":1551900585706,"finger_time":1551900585266,"fix_duration":250,"trial":4,"RT":810,"MT":440,"sideResp":2,"stimulus":"img/750/randomdotsizeEA/L/14_Ratio_750_L_8_R_6.png","xmouse":[621,621,621,621,621,621,621,621,621,621,621,621,621,621,621,621,621,621,621,621,621,621,621,621,621,621,621,621,621,621,621,621,621,621,621,621,621,621,624,646,692,754,825,902,996,1006,1008,1008,1004,1000,997,995,992,988,987,986,985,985,980,975,964,952,931],"ymouse":[537,537,537,537,537,537,537,537,537,537,537,537,537,537,537,537,537,537,537,537,537,537,537,537,537,537,537,537,537,537,537,537,537,537,537,537,537,537,536,486,408,338,269,212,145,135,130,129,129,129,129,130,130,132,132,132,132,132,128,120,112,104,96],"timestamp_mouse":[8,37,48,70,88,108,129,149,169,189,210,228,248,269,290,308,328,349,369,389,409,429,449,468,488,508,530,548,568,589,608,630,649,670,689,710,729,748,768,789,810,828,849,869,889,908,930,948,969,988,1010,1028,1049,1070,1088,1109,1128,1149,1170,1188,1209,1230,1250],"xSR":583.2000122070312,"ySR":459.16001586914064,"xT1":329.9200073242187,"yT1":0,"xT2":836.4800170898437,"yT2":0,"toosoon":0,"cond_shown":"randomdotsizeEA","ratio_trial":750,"smaller_num":"6","larger_num":"8","correct_side":1,"subjID":"JUANMANUELMERCHANRODRIGEZ27","gender":"0","age":"12","school":"6"},{"start_time":1551900589589,"click_time":1551900591206,"finger_time":1551900590425,"fix_duration":1462.754513491315,"trial":5,"RT":836,"MT":781,"sideResp":2,"stimulus":"img/900/randomdotsizeEA/R/11_Ratio_900_L_18_R_20.png","xmouse":[631,631,631,631,631,631,631,631,631,631,631,631,631,631,631,631,631,631,631,631,631,630,628,628,628,628,628,628,628,628,628,628,628,628,628,628,628,628,628,635,660,699,712,720,723,724,724,724,724,724,724,723,719,716,715,713,712,712,711,696,680,662,645,647,660,679,731,754,772,788,792,796,805,816,827,837,852,856,861,864,871],"ymouse":[528,528,528,528,528,528,528,528,528,528,528,528,528,528,528,528,528,528,528,528,528,528,529,529,529,529,529,529,529,529,529,529,529,529,529,529,529,529,526,517,481,435,423,415,410,409,409,409,408,408,407,404,403,401,401,400,400,400,398,379,355,327,284,272,258,248,232,228,225,221,219,216,208,195,180,163,135,124,113,105,95],"timestamp_mouse":[15,36,56,77,97,117,135,156,176,196,216,236,257,276,295,316,337,356,376,395,416,436,456,476,496,517,536,556,577,596,617,636,655,675,695,716,737,756,776,795,816,836,856,876,896,915,936,956,977,996,1017,1036,1057,1075,1095,1116,1135,1157,1176,1195,1216,1236,1257,1277,1296,1317,1337,1355,1375,1397,1415,1435,1457,1475,1495,1515,1536,1555,1575,1595,1616],"xSR":583.2000122070312,"ySR":459.16001586914064,"xT1":329.9200073242187,"yT1":0,"xT2":836.4800170898437,"yT2":0,"toosoon":0,"cond_shown":"randomdotsizeEA","ratio_trial":900,"smaller_num":"18","larger_num":"20","correct_side":2,"subjID":"JUANMANUELMERCHANRODRIGEZ27","gender":"0","age":"12","school":"6"},{"start_time":1551900594660,"click_time":1551900595925,"finger_time":1551900595565,"fix_duration":954.4365729418091,"trial":6,"RT":905,"MT":360,"sideResp":1,"stimulus":"img/250/randomdotsizeEA/L/15_Ratio_250_L_12_R_3.png","xmouse":[650,650,650,650,650,650,650,650,650,650,650,650,650,650,650,650,650,650,650,650,650,650,650,650,650,650,650,650,650,650,650,650,650,650,650,650,650,650,650,650,650,650,649,644,643,636,618,591,574,551,543,538,535,528,523,516,508,499,494,478,465,449,431,401],"ymouse":[507,507,507,507,507,507,507,507,507,507,507,507,507,507,507,507,507,507,507,507,507,507,507,507,507,507,507,507,507,507,507,507,507,507,507,507,507,507,507,507,507,507,506,494,480,455,412,351,310,256,236,219,204,181,171,158,146,132,126,114,104,94,84,69],"timestamp_mouse":[4,37,44,66,86,105,125,145,164,185,206,224,244,265,284,304,325,345,364,384,406,424,445,466,484,505,525,545,566,585,605,626,645,665,685,704,726,744,764,784,805,826,844,865,884,905,926,945,964,985,1004,1026,1044,1065,1084,1105,1124,1145,1164,1184,1204,1226,1244,1265],"xSR":583.2000122070312,"ySR":459.16001586914064,"xT1":329.9200073242187,"yT1":0,"xT2":836.4800170898437,"yT2":0,"toosoon":0,"cond_shown":"randomdotsizeEA","ratio_trial":250,"smaller_num":"3","larger_num":"12","correct_side":1,"subjID":"JUANMANUELMERCHANRODRIGEZ27","gender":"0","age":"12","school":"6"},{"start_time":1551900596857,"click_time":1551900598106,"finger_time":1551900597645,"fix_duration":250,"trial":7,"RT":788,"MT":461,"sideResp":2,"stimulus":"img/250/equaldotanddens/R/11_Ratio_250_L_3_R_12.png","xmouse":[624,624,624,624,624,624,624,624,624,624,624,624,624,624,624,624,624,624,624,624,624,624,624,624,624,624,624,624,624,624,624,624,624,624,624,624,624,626,638,651,668,687,705,726,732,736,739,743,759,767,776,786,792,804,808,810,814,820,830,838,844,852,856],"ymouse":[526,526,526,526,526,526,526,526,526,526,526,526,526,526,526,526,526,526,526,526,526,526,526,526,526,526,526,526,526,526,526,526,526,526,526,522,517,510,472,444,411,376,343,301,287,275,263,249,219,209,197,184,173,154,150,147,143,136,126,118,110,103,95],"timestamp_mouse":[7,34,49,67,88,109,127,148,168,188,207,228,248,267,288,307,328,349,367,388,409,428,448,467,489,508,528,547,569,588,608,628,647,668,688,707,727,748,768,788,807,828,847,868,887,907,928,949,968,987,1008,1027,1047,1068,1088,1108,1127,1148,1167,1188,1208,1228,1249],"xSR":583.2000122070312,"ySR":459.16001586914064,"xT1":329.9200073242187,"yT1":0,"xT2":836.4800170898437,"yT2":0,"toosoon":0,"cond_shown":"equaldotanddens","ratio_trial":250,"smaller_num":"3","larger_num":"12","correct_side":2,"subjID":"JUANMANUELMERCHANRODRIGEZ27","gender":"0","age":"12","school":"6"},{"start_time":1551900599570,"click_time":1551900600424,"finger_time":1551900600205,"fix_duration":724.9708717023768,"trial":8,"RT":635,"MT":219,"sideResp":2,"stimulus":"img/500/randomdotsizeEA/R/12_Ratio_500_L_1_R_2.png","xmouse":[643,643,643,643,643,643,643,643,643,643,643,643,643,643,643,643,643,643,643,643,643,643,643,643,643,643,643,643,644,646,655,672,696,744,766,790,805,824,829,832,835,839,842],"ymouse":[510,510,510,510,510,510,510,510,510,510,510,510,510,510,510,510,510,510,510,510,510,510,510,510,510,510,510,510,507,502,488,455,414,312,260,216,183,144,133,126,117,105,93],"timestamp_mouse":[15,37,55,74,95,114,135,154,174,196,215,235,256,275,296,315,334,356,374,396,416,435,455,474,495,514,535,554,574,595,614,635,654,674,695,714,736,755,775,794,816,834,854],"xSR":583.2000122070312,"ySR":459.16001586914064,"xT1":329.9200073242187,"yT1":0,"xT2":836.4800170898437,"yT2":0,"toosoon":0,"cond_shown":"randomdotsizeEA","ratio_trial":500,"smaller_num":"1","larger_num":"2","correct_side":2,"subjID":"JUANMANUELMERCHANRODRIGEZ27","gender":"0","age":"12","school":"6"},{"start_time":1551900602119,"click_time":1551900603046,"finger_time":1551900602845,"fix_duration":1133.0832138156486,"trial":9,"RT":726,"MT":201,"sideResp":2,"stimulus":"img/500/equaldotsize/R/2_Ratio_500_L_3_R_6.png","xmouse":[610,610,610,610,610,610,610,610,610,610,610,610,610,610,610,610,610,610,610,610,610,610,610,610,610,610,610,610,610,610,610,610,610,611,615,623,649,671,699,723,748,792,808,812,824,835,857],"ymouse":[531,531,531,531,531,531,531,531,531,531,531,531,531,531,531,531,531,531,531,531,531,531,531,531,531,531,531,531,531,531,531,531,527,516,505,487,436,398,348,307,268,200,172,165,143,128,96],"timestamp_mouse":[6,36,47,66,86,107,125,146,165,186,205,226,245,266,286,305,326,346,365,385,405,426,447,466,485,506,525,546,565,585,605,625,647,667,685,706,726,747,766,785,806,826,845,866,886,906,927],"xSR":583.2000122070312,"ySR":459.16001586914064,"xT1":329.9200073242187,"yT1":0,"xT2":836.4800170898437,"yT2":0,"toosoon":0,"cond_shown":"equaldotsize","ratio_trial":500,"smaller_num":"3","larger_num":"6","correct_side":2,"subjID":"JUANMANUELMERCHANRODRIGEZ27","gender":"0","age":"12","school":"6"},{"start_time":1551900604500,"click_time":1551900605764,"finger_time":1551900605145,"fix_duration":514.0571464157615,"trial":10,"RT":645,"MT":619,"sideResp":1,"stimulus":"img/900/randomdotsizeEA/L/10_Ratio_900_L_20_R_18.png","xmouse":[663,663,663,663,663,663,663,663,663,663,663,663,663,663,663,663,663,663,663,663,663,663,663,663,663,663,663,663,663,663,663,662,661,656,651,634,612,549,512,486,468,457,456,456,456,456,456,456,456,456,456,456,452,450,450,449,444,442,441,441,440,439,434,428],"ymouse":[463,463,464,464,464,464,464,464,464,464,464,464,464,464,464,464,464,464,464,464,464,464,464,464,464,464,464,464,464,464,463,460,455,445,436,414,391,320,276,232,196,141,119,101,86,73,70,70,70,70,69,69,60,57,56,56,56,56,56,56,56,56,57,58],"timestamp_mouse":[4,24,56,65,85,106,125,146,165,184,205,224,246,264,286,305,324,345,365,384,404,426,444,464,484,505,525,545,564,586,604,626,645,665,684,705,725,746,764,785,805,826,844,865,884,905,925,944,964,985,1005,1025,1045,1064,1085,1104,1126,1145,1164,1184,1205,1225,1244,1264],"xSR":583.2000122070312,"ySR":459.16001586914064,"xT1":329.9200073242187,"yT1":0,"xT2":836.4800170898437,"yT2":0,"toosoon":0,"cond_shown":"randomdotsizeEA","ratio_trial":900,"smaller_num":"18","larger_num":"20","correct_side":1,"subjID":"JUANMANUELMERCHANRODRIGEZ27","gender":"0","age":"12","school":"6"},{"start_time":1551900606857,"click_time":1551900607526,"finger_time":1551900607386,"fix_duration":250,"trial":11,"RT":529,"MT":140,"sideResp":2,"stimulus":"img/900/equaldotanddens/R/3_Ratio_900_L_9_R_10.png","xmouse":[648,648,648,648,648,648,648,648,648,648,648,648,648,648,648,648,648,648,648,648,648,648,648,648,652,661,685,714,788,828,861,885,903,919],"ymouse":[512,512,512,512,512,512,512,512,512,512,512,512,512,512,512,512,512,512,512,512,512,512,512,512,509,499,464,425,320,265,217,171,132,96],"timestamp_mouse":[7,29,47,69,88,107,129,148,168,188,208,227,247,267,287,309,328,348,367,388,408,427,447,467,487,509,529,547,568,587,607,628,647,668],"xSR":583.2000122070312,"ySR":459.16001586914064,"xT1":329.9200073242187,"yT1":0,"xT2":836.4800170898437,"yT2":0,"toosoon":0,"cond_shown":"equaldotanddens","ratio_trial":900,"smaller_num":"9","larger_num":"10","correct_side":2,"subjID":"JUANMANUELMERCHANRODRIGEZ27","gender":"0","age":"12","school":"6"},{"start_time":1551900608435,"click_time":1551900609365,"finger_time":1551900609164,"fix_duration":309.1611372117178,"trial":12,"RT":729,"MT":201,"sideResp":1,"stimulus":"img/250/equaldotsize/L/14_Ratio_250_L_12_R_3.png","xmouse":[641,641,641,641,641,641,641,641,641,641,641,641,641,641,641,641,641,641,641,641,641,641,641,641,641,641,641,641,641,641,641,639,636,635,633,627,615,599,584,564,520,504,488,475,454,430,398],"ymouse":[492,492,492,492,492,492,492,492,492,492,492,492,492,492,492,492,492,492,492,492,492,492,492,492,492,492,492,492,492,492,492,492,492,492,492,480,434,374,324,274,192,166,144,126,99,81,63],"timestamp_mouse":[22,30,50,71,90,110,130,150,170,190,209,231,251,269,290,311,329,349,370,389,409,430,450,469,490,510,529,550,569,589,609,630,650,669,689,710,729,751,770,790,809,829,850,870,890,909,929],"xSR":583.2000122070312,"ySR":459.16001586914064,"xT1":329.9200073242187,"yT1":0,"xT2":836.4800170898437,"yT2":0,"toosoon":0,"cond_shown":"equaldotsize","ratio_trial":250,"smaller_num":"3","larger_num":"12","correct_side":1,"subjID":"JUANMANUELMERCHANRODRIGEZ27","gender":"0","age":"12","school":"6"},{"start_time":1551900610955,"click_time":1551900611925,"finger_time":1551900611744,"fix_duration":668.2051875556457,"trial":13,"RT":789,"MT":181,"sideResp":1,"stimulus":"img/900/randomdotsizeEA/R/6_Ratio_900_L_9_R_10.png","xmouse":[592,592,592,590,589,589,589,589,589,589,589,589,589,589,589,589,589,589,589,589,589,589,589,589,589,589,589,589,589,589,589,589,589,589,589,589,588,586,584,562,546,516,501,469,457,445,439,431,421],"ymouse":[520,520,520,521,522,522,522,522,522,522,522,522,522,522,522,522,522,522,522,522,522,522,522,522,522,522,522,522,522,522,522,522,522,522,522,522,522,520,515,474,435,365,311,204,164,133,116,98,77],"timestamp_mouse":[10,36,49,69,89,111,130,149,169,190,210,230,250,270,291,310,330,351,370,389,409,430,449,469,489,511,529,551,569,590,609,631,650,669,690,710,731,750,769,789,810,829,850,870,889,909,929,949,970],"xSR":583.2000122070312,"ySR":459.16001586914064,"xT1":329.9200073242187,"yT1":0,"xT2":836.4800170898437,"yT2":0,"toosoon":0,"cond_shown":"randomdotsizeEA","ratio_trial":900,"smaller_num":"9","larger_num":"10","correct_side":2,"subjID":"JUANMANUELMERCHANRODRIGEZ27","gender":"0","age":"12","school":"6"},{"start_time":1551900613485,"click_time":1551900614604,"finger_time":1551900614305,"fix_duration":839.3926240040269,"trial":14,"RT":820,"MT":299,"sideResp":1,"stimulus":"img/750/equaldotanddens/L/1_Ratio_750_L_20_R_15.png","xmouse":[639,639,639,639,639,639,639,639,639,639,639,639,639,639,639,639,639,639,639,639,639,639,639,639,639,639,639,639,639,639,639,639,639,639,639,639,639,639,632,618,597,574,548,522,518,516,509,503,482,464,448,441,440,434,428,418,398],"ymouse":[509,509,509,509,509,509,509,509,509,509,509,509,509,509,509,509,509,509,509,509,509,509,509,509,509,509,509,509,509,509,509,509,509,509,509,509,509,509,505,502,496,488,477,461,456,448,425,404,334,289,251,220,198,155,133,113,82],"timestamp_mouse":[2,27,40,60,79,99,121,139,159,181,199,221,239,259,279,299,320,341,360,379,401,419,439,459,479,499,521,540,560,579,599,619,641,660,679,700,720,739,760,779,800,820,839,860,880,901,920,940,960,980,999,1020,1040,1061,1080,1099,1119],"xSR":583.2000122070312,"ySR":459.16001586914064,"xT1":329.9200073242187,"yT1":0,"xT2":836.4800170898437,"yT2":0,"toosoon":0,"cond_shown":"equaldotanddens","ratio_trial":750,"smaller_num":"15","larger_num":"20","correct_side":1,"subjID":"JUANMANUELMERCHANRODRIGEZ27","gender":"0","age":"12","school":"6"},{"start_time":1551900615696,"click_time":1551900616604,"finger_time":1551900616466,"fix_duration":250,"trial":15,"RT":770,"MT":138,"sideResp":1,"stimulus":"img/250/equaldotanddens/L/2_Ratio_250_L_16_R_4.png","xmouse":[633,633,633,633,633,633,633,633,633,633,633,633,633,633,633,633,633,633,633,633,633,633,633,633,633,633,633,633,633,633,633,633,633,633,633,633,632,612,579,534,476,428,378,371,369,359],"ymouse":[542,542,542,542,542,542,542,542,542,542,542,542,542,542,542,542,542,542,542,542,542,542,542,542,542,542,542,542,542,542,542,542,542,542,542,542,539,516,478,423,348,275,161,113,103,76],"timestamp_mouse":[9,31,49,69,89,108,128,149,169,189,209,228,248,269,288,308,329,349,369,388,408,428,449,469,490,509,529,549,569,588,608,629,648,668,688,710,728,749,770,788,809,829,849,869,888,908],"xSR":583.2000122070312,"ySR":459.16001586914064,"xT1":329.9200073242187,"yT1":0,"xT2":836.4800170898437,"yT2":0,"toosoon":0,"cond_shown":"equaldotanddens","ratio_trial":250,"smaller_num":"4","larger_num":"16","correct_side":1,"subjID":"JUANMANUELMERCHANRODRIGEZ27","gender":"0","age":"12","school":"6"},{"start_time":1551900618029,"click_time":1551900618926,"finger_time":1551900618566,"fix_duration":703.9053408265391,"trial":16,"RT":537,"MT":360,"sideResp":2,"stimulus":"img/250/equaldotsize/R/13_Ratio_250_L_2_R_8.png","xmouse":[628,628,628,628,628,628,628,628,628,628,628,628,628,628,628,628,628,628,628,628,628,628,628,635,651,663,689,703,745,796,812,820,823,823,823,823,823,823,823,823,831,841,853,866,881],"ymouse":[496,496,496,496,496,496,496,496,496,496,496,496,496,496,496,496,496,496,496,496,496,496,496,489,473,462,432,416,347,239,200,181,172,171,171,171,171,171,171,170,156,142,127,112,82],"timestamp_mouse":[16,35,56,76,96,115,136,156,177,195,217,236,255,276,297,316,336,357,376,396,417,435,456,475,496,517,537,555,577,596,615,635,657,675,695,717,736,756,775,796,815,835,856,877,897],"xSR":583.2000122070312,"ySR":459.16001586914064,"xT1":329.9200073242187,"yT1":0,"xT2":836.4800170898437,"yT2":0,"toosoon":0,"cond_shown":"equaldotsize","ratio_trial":250,"smaller_num":"2","larger_num":"8","correct_side":2,"subjID":"JUANMANUELMERCHANRODRIGEZ27","gender":"0","age":"12","school":"6"},{"start_time":1551900620401,"click_time":1551900621505,"finger_time":1551900621245,"fix_duration":635.8829313286889,"trial":17,"RT":844,"MT":260,"sideResp":1,"stimulus":"img/900/equaldotanddens/R/9_Ratio_900_L_18_R_20.png","xmouse":[623,623,623,623,623,623,623,623,623,623,623,623,623,623,623,623,623,623,623,623,623,624,624,624,624,624,624,624,624,624,624,624,624,624,624,624,624,624,624,623,617,596,582,564,544,525,494,474,457,437,430,428,427,426,424,418],"ymouse":[493,493,493,493,493,493,493,493,493,493,493,493,493,493,493,493,493,493,493,493,492,487,486,484,481,479,478,476,476,476,476,476,476,476,476,476,476,476,476,476,474,462,450,429,401,367,280,229,184,140,124,112,108,106,102,96],"timestamp_mouse":[3,36,43,63,84,104,124,143,163,184,203,223,243,264,285,303,324,345,365,383,405,424,445,464,484,504,523,544,565,583,604,623,643,665,683,703,724,744,763,783,805,824,844,864,884,903,924,943,963,983,1003,1024,1043,1064,1085,1104],"xSR":583.2000122070312,"ySR":459.16001586914064,"xT1":329.9200073242187,"yT1":0,"xT2":836.4800170898437,"yT2":0,"toosoon":0,"cond_shown":"equaldotanddens","ratio_trial":900,"smaller_num":"18","larger_num":"20","correct_side":2,"subjID":"JUANMANUELMERCHANRODRIGEZ27","gender":"0","age":"12","school":"6"},{"start_time":1551900628279,"click_time":1551900629245,"finger_time":1551900628945,"fix_duration":573.27165462624,"trial":18,"RT":666,"MT":300,"sideResp":1,"stimulus":"img/900/equaldotanddens/L/4_Ratio_900_L_20_R_18.png","xmouse":[603,603,603,603,603,603,603,603,603,603,603,603,603,603,603,603,603,603,603,603,603,603,603,603,603,603,603,603,603,603,603,603,600,596,580,556,520,498,464,451,441,432,424,418,416,414,410,405,397],"ymouse":[506,506,506,506,506,506,506,506,506,505,505,505,505,505,505,505,505,505,505,505,505,505,505,505,505,505,505,505,505,505,505,500,484,452,390,308,180,108,8,0,0,0,0,0,0,0,0,0,1],"timestamp_mouse":[6,25,47,67,86,105,126,145,166,186,206,226,245,265,285,306,326,347,366,386,405,426,446,466,485,506,525,545,566,586,605,625,647,666,685,706,726,746,766,786,806,826,845,866,886,905,927,945,966],"xSR":583.2000122070312,"ySR":459.16001586914064,"xT1":329.9200073242187,"yT1":0,"xT2":836.4800170898437,"yT2":0,"toosoon":0,"cond_shown":"equaldotanddens","ratio_trial":900,"smaller_num":"18","larger_num":"20","correct_side":1,"subjID":"JUANMANUELMERCHANRODRIGEZ27","gender":"0","age":"12","school":"6"},{"start_time":1551900632462,"click_time":1551900633645,"finger_time":1551900633186,"fix_duration":1133.1703506171784,"trial":19,"RT":724,"MT":459,"sideResp":2,"stimulus":"img/500/equaldotanddens/R/2_Ratio_500_L_3_R_6.png","xmouse":[606,606,606,606,606,606,606,606,606,606,606,606,606,606,606,606,606,606,606,606,606,606,606,606,606,606,606,606,606,606,606,606,606,608,620,636,683,724,826,870,912,949,975,996,1018,1022,1023,1023,1023,1018,1006,996,989,985,982,978,972,968,962,924],"ymouse":[514,514,514,514,514,514,514,514,514,514,514,514,514,514,514,514,514,514,514,514,514,514,514,514,514,514,514,514,514,514,514,514,514,513,504,491,452,420,321,264,203,147,102,68,20,4,0,0,0,0,2,6,8,12,16,19,24,28,32,44],"timestamp_mouse":[3,30,43,64,84,103,124,143,163,183,202,222,244,263,284,303,323,344,363,383,403,423,443,462,483,502,522,544,564,584,603,623,643,663,682,704,724,743,764,782,804,824,843,863,883,903,923,943,963,983,1003,1023,1044,1063,1084,1103,1123,1143,1162,1182],"xSR":583.2000122070312,"ySR":459.16001586914064,"xT1":329.9200073242187,"yT1":0,"xT2":836.4800170898437,"yT2":0,"toosoon":0,"cond_shown":"equaldotanddens","ratio_trial":500,"smaller_num":"3","larger_num":"6","correct_side":2,"subjID":"JUANMANUELMERCHANRODRIGEZ27","gender":"0","age":"12","school":"6"},{"start_time":1551900635053,"click_time":1551900636384,"finger_time":1551900635825,"fix_duration":707.7786528841876,"trial":20,"RT":772,"MT":559,"sideResp":1,"stimulus":"img/900/equaldotanddens/L/2_Ratio_900_L_20_R_18.png","xmouse":[671,671,671,671,671,671,671,671,671,671,671,671,671,671,671,671,671,671,671,670,670,670,670,670,670,668,666,663,660,657,657,658,659,659,659,655,646,590,519,319,228,181,168,182,196,212,221,229,232,234,241,253,266,280,300,305,306,307,309,312,314,315,315,316,319,324,337],"ymouse":[496,496,496,496,496,496,496,496,496,496,496,496,496,496,496,496,496,496,496,496,496,496,496,496,496,496,496,496,497,500,503,506,508,509,511,511,510,473,425,306,242,188,147,67,36,10,0,0,0,0,0,0,0,0,0,0,0,0,4,6,8,8,8,9,11,18,40],"timestamp_mouse":[12,38,52,72,92,112,132,152,172,191,212,232,252,271,292,313,331,352,372,392,412,432,453,471,491,512,533,552,572,592,612,632,651,671,692,712,732,752,772,792,813,832,851,872,892,912,931,952,973,992,1012,1032,1053,1072,1091,1112,1132,1152,1174,1191,1213,1232,1252,1272,1292,1312,1331],"xSR":583.2000122070312,"ySR":459.16001586914064,"xT1":329.9200073242187,"yT1":0,"xT2":836.4800170898437,"yT2":0,"toosoon":0,"cond_shown":"equaldotanddens","ratio_trial":900,"smaller_num":"18","larger_num":"20","correct_side":1,"subjID":"JUANMANUELMERCHANRODRIGEZ27","gender":"0","age":"12","school":"6"},{"start_time":1551900638433,"click_time":1551900639186,"finger_time":1551900639046,"fix_duration":1247.4405932875495,"trial":21,"RT":613,"MT":140,"sideResp":1,"stimulus":"img/250/equaldotsize/L/2_Ratio_250_L_16_R_4.png","xmouse":[675,675,675,675,675,675,675,675,675,675,675,675,675,675,675,675,675,675,675,675,675,675,675,672,670,656,644,632,615,604,580,564,543,515,448,426,392,382],"ymouse":[511,511,511,511,511,511,511,511,511,511,511,511,511,511,511,511,511,511,511,511,511,511,511,511,510,507,503,500,495,492,484,476,460,435,320,231,106,72],"timestamp_mouse":[13,33,55,71,92,111,131,152,173,191,212,232,252,272,291,312,332,352,372,392,412,433,452,472,492,513,531,553,572,592,613,632,652,672,692,712,732,753],"xSR":583.2000122070312,"ySR":459.16001586914064,"xT1":329.9200073242187,"yT1":0,"xT2":836.4800170898437,"yT2":0,"toosoon":0,"cond_shown":"equaldotsize","ratio_trial":250,"smaller_num":"4","larger_num":"16","correct_side":1,"subjID":"JUANMANUELMERCHANRODRIGEZ27","gender":"0","age":"12","school":"6"},{"start_time":1551900640163,"click_time":1551900642926,"finger_time":1551900641145,"fix_duration":316.43997471837724,"trial":22,"RT":982,"MT":1781,"sideResp":1,"stimulus":"img/750/equaldotanddens/L/8_Ratio_750_L_4_R_3.png","xmouse":[615,615,615,616,616,616,616,616,616,616,616,616,616,616,616,616,616,616,616,616,616,616,616,616,616,616,616,616,616,612,608,607,607,607,606,606,606,606,606,606,606,606,605,605,606,607,608,608,604,588,584,580,575,572,572,572,572,572,572,572,572,572,572,572,572,572,572,572,572,572,572,572,572,572,572,572,572,572,572,572,572,572,569,568,566,565,565,565,565,565,565,565,565,565,565,565,565,565,565,568,572,576,576,572,567,567,567,567,569,570,570,570,570,570,570,570,570,570,570,570,570,571,572,574,575,576,580,588,600,603,605,608,608,608,581,553,512,463,376],"ymouse":[528,528,528,528,528,528,528,528,528,528,528,528,528,528,528,528,528,528,528,528,528,528,528,528,528,528,528,528,528,528,528,529,529,529,529,529,529,529,529,529,529,529,528,512,503,492,480,471,460,444,443,443,443,443,443,443,443,443,443,443,443,443,443,443,443,443,443,443,443,443,443,443,443,443,443,443,443,443,443,443,443,443,447,455,460,460,460,460,460,460,460,460,460,460,460,460,460,460,461,463,468,485,501,523,536,536,536,536,532,531,531,531,531,531,531,531,531,531,531,531,531,529,528,528,528,528,528,526,519,516,512,498,485,468,407,356,293,226,98],"timestamp_mouse":[5,27,42,62,83,101,122,142,163,182,202,223,243,262,283,301,322,342,362,383,402,421,443,463,482,502,522,543,562,581,601,622,642,663,682,702,723,743,763,782,801,822,843,863,882,902,923,942,962,982,1001,1023,1043,1062,1083,1103,1122,1141,1163,1181,1202,1221,1242,1262,1283,1302,1323,1342,1363,1383,1402,1422,1442,1462,1482,1503,1521,1542,1563,1581,1602,1621,1641,1661,1682,1702,1723,1743,1763,1783,1802,1821,1843,1863,1882,1902,1922,1941,1963,1983,2003,2022,2041,2062,2083,2102,2122,2142,2163,2182,2202,2223,2242,2263,2283,2302,2321,2342,2363,2383,2402,2423,2441,2463,2483,2503,2523,2542,2562,2582,2602,2621,2642,2662,2682,2701,2723,2743,2763],"xSR":583.2000122070312,"ySR":459.16001586914064,"xT1":329.9200073242187,"yT1":0,"xT2":836.4800170898437,"yT2":0,"toosoon":0,"cond_shown":"equaldotanddens","ratio_trial":750,"smaller_num":"3","larger_num":"4","correct_side":1,"subjID":"JUANMANUELMERCHANRODRIGEZ27","gender":"0","age":"12","school":"6"},{"start_time":1551900643857,"click_time":1551900644805,"finger_time":1551900644605,"fix_duration":250,"trial":23,"RT":748,"MT":200,"sideResp":1,"stimulus":"img/500/randomdotsizeEA/L/10_Ratio_500_L_4_R_2.png","xmouse":[656,656,656,656,656,656,656,656,656,656,656,656,656,656,656,656,656,656,656,656,656,656,656,656,656,656,656,656,656,656,656,656,656,656,656,654,637,610,534,508,487,463,441,422,413,400,386,377],"ymouse":[531,531,531,531,531,531,531,531,531,531,531,531,531,531,531,531,531,531,531,531,531,531,531,531,531,531,531,531,531,531,531,531,531,531,529,524,492,448,343,302,260,220,185,158,148,132,110,95],"timestamp_mouse":[9,35,48,69,87,109,128,148,169,187,209,228,249,268,288,307,329,347,367,388,409,428,448,469,488,508,528,547,569,588,608,627,648,668,687,708,728,748,769,788,808,828,848,868,887,909,928,947],"xSR":583.2000122070312,"ySR":459.16001586914064,"xT1":329.9200073242187,"yT1":0,"xT2":836.4800170898437,"yT2":0,"toosoon":0,"cond_shown":"randomdotsizeEA","ratio_trial":500,"smaller_num":"2","larger_num":"4","correct_side":1,"subjID":"JUANMANUELMERCHANRODRIGEZ27","gender":"0","age":"12","school":"6"},{"start_time":1551900649778,"click_time":1551900651045,"finger_time":1551900650425,"fix_duration":250,"trial":24,"RT":647,"MT":620,"sideResp":1,"stimulus":"img/500/randomdotsizeEA/L/4_Ratio_500_L_18_R_9.png","xmouse":[648,648,648,648,648,648,648,648,648,648,648,648,648,648,648,648,648,648,648,648,648,648,648,648,648,648,648,648,648,648,648,646,592,536,462,387,324,260,250,248,248,248,249,251,253,258,265,276,329,368,385,394,395,395,395,395,396,396,396,396,396,396,396,386],"ymouse":[510,510,510,510,510,510,510,510,510,510,510,510,510,510,510,510,510,510,510,510,510,510,510,510,510,510,510,510,510,510,510,510,418,325,215,103,0,0,0,0,0,0,0,0,3,11,21,36,87,118,130,136,136,136,136,136,136,136,133,130,123,113,102,71],"timestamp_mouse":[7,27,48,67,86,107,127,146,168,188,208,227,247,266,287,306,326,347,366,388,408,428,446,467,487,507,528,547,567,587,608,627,647,667,687,708,728,748,767,787,807,827,847,868,887,908,928,947,967,987,1007,1028,1047,1068,1087,1108,1127,1148,1167,1187,1208,1227,1247,1267],"xSR":583.2000122070312,"ySR":459.16001586914064,"xT1":329.9200073242187,"yT1":0,"xT2":836.4800170898437,"yT2":0,"toosoon":0,"cond_shown":"randomdotsizeEA","ratio_trial":500,"smaller_num":"9","larger_num":"18","correct_side":1,"subjID":"JUANMANUELMERCHANRODRIGEZ27","gender":"0","age":"12","school":"6"},{"start_time":1551900653577,"click_time":1551900654726,"finger_time":1551900654405,"fix_duration":250,"trial":25,"RT":828,"MT":321,"sideResp":1,"stimulus":"img/250/equaldotsize/L/15_Ratio_250_L_12_R_3.png","xmouse":[627,627,627,627,627,627,627,627,627,627,627,627,627,627,627,627,627,627,627,627,627,627,627,627,627,627,627,627,627,627,627,627,627,627,627,627,627,627,627,622,613,600,580,539,521,508,501,496,492,492,492,492,492,488,484,479,468,424],"ymouse":[533,533,533,533,533,533,533,533,533,533,533,533,533,533,533,533,533,533,533,533,533,533,533,533,533,533,533,533,533,533,533,533,533,533,533,533,533,533,529,506,474,422,352,210,147,100,72,56,44,43,43,43,42,41,41,41,41,41],"timestamp_mouse":[7,38,49,69,87,108,128,149,167,189,208,228,248,269,288,307,328,349,368,389,407,428,448,468,489,507,529,548,569,588,608,627,648,668,689,709,729,748,767,788,808,828,848,869,889,908,929,948,968,987,1008,1028,1048,1069,1089,1109,1128,1149],"xSR":583.2000122070312,"ySR":459.16001586914064,"xT1":329.9200073242187,"yT1":0,"xT2":836.4800170898437,"yT2":0,"toosoon":0,"cond_shown":"equaldotsize","ratio_trial":250,"smaller_num":"3","larger_num":"12","correct_side":1,"subjID":"JUANMANUELMERCHANRODRIGEZ27","gender":"0","age":"12","school":"6"},{"start_time":1551900657178,"click_time":1551900657944,"finger_time":1551900657826,"fix_duration":250,"trial":26,"RT":648,"MT":118,"sideResp":2,"stimulus":"img/900/randomdotsizeEA/R/3_Ratio_900_L_9_R_10.png","xmouse":[651,651,651,651,651,651,651,651,651,651,651,651,651,651,651,651,651,651,651,651,651,651,651,651,651,651,651,651,651,651,651,654,700,745,797,844,880,917,924],"ymouse":[507,507,507,507,507,507,507,507,507,507,507,507,507,507,507,507,507,507,507,507,507,507,507,507,507,507,507,507,507,507,507,504,437,380,316,252,192,100,73],"timestamp_mouse":[12,35,47,68,87,107,126,148,166,187,207,226,246,266,287,307,327,347,367,386,408,428,446,466,487,506,527,548,567,587,607,628,648,666,688,708,727,747,766],"xSR":583.2000122070312,"ySR":459.16001586914064,"xT1":329.9200073242187,"yT1":0,"xT2":836.4800170898437,"yT2":0,"toosoon":0,"cond_shown":"randomdotsizeEA","ratio_trial":900,"smaller_num":"9","larger_num":"10","correct_side":2,"subjID":"JUANMANUELMERCHANRODRIGEZ27","gender":"0","age":"12","school":"6"},{"start_time":1551900659348,"click_time":1551900660345,"finger_time":1551900660224,"fix_duration":642.4659999827455,"trial":27,"RT":876,"MT":121,"sideResp":1,"stimulus":"img/750/randomdotsizeEA/R/7_Ratio_750_L_3_R_4.png","xmouse":[663,663,663,663,663,663,663,663,663,663,663,663,663,663,663,663,663,663,663,663,663,663,663,663,663,663,663,663,663,663,663,663,663,663,663,663,663,663,663,663,663,656,643,616,548,515,480,453,432,400],"ymouse":[506,506,506,506,506,506,506,506,506,506,506,506,506,506,506,506,506,506,506,506,506,506,506,506,506,506,506,506,506,506,506,506,506,506,506,506,506,506,506,506,506,500,487,454,344,279,217,163,116,42],"timestamp_mouse":[27,37,56,76,97,117,137,157,176,197,217,237,257,278,297,317,336,357,377,398,417,436,456,477,497,517,537,557,576,597,616,638,657,677,697,716,737,758,777,797,818,838,857,876,896,916,937,957,977,997],"xSR":583.2000122070312,"ySR":459.16001586914064,"xT1":329.9200073242187,"yT1":0,"xT2":836.4800170898437,"yT2":0,"toosoon":0,"cond_shown":"randomdotsizeEA","ratio_trial":750,"smaller_num":"3","larger_num":"4","correct_side":2,"subjID":"JUANMANUELMERCHANRODRIGEZ27","gender":"0","age":"12","school":"6"},{"start_time":1551900664426,"click_time":1551900665125,"finger_time":1551900665026,"fix_duration":1259.9958612608132,"trial":28,"RT":600,"MT":99,"sideResp":1,"stimulus":"img/500/randomdotsizeEA/L/10_Ratio_500_L_4_R_2.png","xmouse":[634,634,634,634,634,634,634,634,634,634,634,634,634,634,634,634,634,634,634,634,634,634,634,634,634,634,634,634,634,633,597,560,513,460,408,338],"ymouse":[478,478,478,478,478,478,478,478,478,478,478,478,478,478,478,478,478,478,478,478,478,478,478,478,478,478,478,478,478,474,436,386,323,247,172,53],"timestamp_mouse":[1,29,39,58,80,98,120,138,159,178,200,219,239,258,279,299,320,338,359,379,399,420,439,460,480,499,519,540,559,578,600,619,639,659,679,699],"xSR":583.2000122070312,"ySR":459.16001586914064,"xT1":329.9200073242187,"yT1":0,"xT2":836.4800170898437,"yT2":0,"toosoon":0,"cond_shown":"randomdotsizeEA","ratio_trial":500,"smaller_num":"2","larger_num":"4","correct_side":1,"subjID":"JUANMANUELMERCHANRODRIGEZ27","gender":"0","age":"12","school":"6"},{"start_time":1551900667140,"click_time":1551900667965,"finger_time":1551900667805,"fix_duration":974.056782575739,"trial":29,"RT":665,"MT":160,"sideResp":2,"stimulus":"img/750/equaldotsize/R/11_Ratio_750_L_12_R_16.png","xmouse":[636,636,636,636,636,636,636,636,636,636,636,636,636,636,636,636,636,636,636,636,636,636,636,636,636,636,636,636,636,636,642,652,667,684,704,733,752,772,794,828,846,860],"ymouse":[520,520,520,520,520,520,520,520,520,520,520,520,520,520,520,520,520,520,520,520,520,520,520,520,520,520,520,520,520,520,517,508,493,472,446,388,348,303,248,146,105,78],"timestamp_mouse":[5,31,45,65,86,106,126,144,166,185,205,224,246,265,286,305,326,345,364,384,405,425,446,464,485,505,525,545,564,585,605,625,646,665,684,704,726,746,765,785,804,825],"xSR":583.2000122070312,"ySR":459.16001586914064,"xT1":329.9200073242187,"yT1":0,"xT2":836.4800170898437,"yT2":0,"toosoon":0,"cond_shown":"equaldotsize","ratio_trial":750,"smaller_num":"12","larger_num":"16","correct_side":2,"subjID":"JUANMANUELMERCHANRODRIGEZ27","gender":"0","age":"12","school":"6"},{"start_time":1551900670506,"click_time":1551900671506,"finger_time":1551900671344,"fix_duration":1378.8930063995585,"trial":30,"RT":838,"MT":162,"sideResp":2,"stimulus":"img/900/equaldotsize/R/3_Ratio_900_L_9_R_10.png","xmouse":[633,633,633,633,633,633,633,633,633,633,633,633,633,633,633,633,633,633,633,633,633,633,633,633,633,633,633,633,633,633,633,633,633,633,633,633,633,633,633,633,634,638,664,689,738,772,822,839,848,854,861],"ymouse":[479,479,479,479,479,479,479,479,479,479,479,479,479,479,479,479,479,479,479,479,479,479,479,479,479,479,479,479,479,479,479,479,479,479,479,479,479,479,479,479,478,472,434,396,319,260,170,137,116,102,92],"timestamp_mouse":[1,19,45,59,80,98,119,139,160,178,199,220,240,258,278,299,320,340,359,380,400,419,439,458,480,500,518,539,560,580,600,619,639,658,680,700,719,739,760,780,800,819,838,859,879,900,919,939,959,979,1000],"xSR":583.2000122070312,"ySR":459.16001586914064,"xT1":329.9200073242187,"yT1":0,"xT2":836.4800170898437,"yT2":0,"toosoon":0,"cond_shown":"equaldotsize","ratio_trial":900,"smaller_num":"9","larger_num":"10","correct_side":2,"subjID":"JUANMANUELMERCHANRODRIGEZ27","gender":"0","age":"12","school":"6"},{"start_time":1551900673419,"click_time":1551900674445,"finger_time":1551900674045,"fix_duration":1033.7181666455167,"trial":31,"RT":626,"MT":400,"sideResp":2,"stimulus":"img/900/equaldotanddens/R/14_Ratio_900_L_18_R_20.png","xmouse":[645,645,645,645,645,645,645,645,645,645,645,645,645,645,645,645,645,645,645,645,645,645,645,645,645,645,645,645,645,645,645,656,674,712,764,892,956,998,1029,1048,1050,1051,1051,1051,1051,1049,1038,1024,999,984,969,935],"ymouse":[466,466,466,466,466,466,466,466,466,466,466,466,466,466,466,466,466,466,466,466,466,466,466,466,466,466,466,466,466,466,467,458,440,392,336,174,83,8,0,0,0,0,0,0,0,0,2,9,19,28,37,56],"timestamp_mouse":[6,35,46,66,86,107,125,145,166,185,205,226,246,266,286,306,326,347,367,386,405,426,446,466,485,507,527,547,566,586,606,626,646,666,687,706,726,747,766,787,807,825,846,866,885,907,926,946,967,986,1006,1026],"xSR":583.2000122070312,"ySR":459.16001586914064,"xT1":329.9200073242187,"yT1":0,"xT2":836.4800170898437,"yT2":0,"toosoon":0,"cond_shown":"equaldotanddens","ratio_trial":900,"smaller_num":"18","larger_num":"20","correct_side":2,"subjID":"JUANMANUELMERCHANRODRIGEZ27","gender":"0","age":"12","school":"6"},{"start_time":1551900675884,"click_time":1551900676725,"finger_time":1551900676645,"fix_duration":577.4939463157235,"trial":32,"RT":761,"MT":80,"sideResp":1,"stimulus":"img/250/equaldotanddens/L/2_Ratio_250_L_16_R_4.png","xmouse":[638,638,638,638,638,638,638,638,638,638,638,638,638,638,638,638,638,638,638,638,638,638,638,638,638,638,638,638,638,638,638,638,638,638,638,637,636,627,552,501,458,419,352],"ymouse":[485,485,485,485,485,485,485,485,485,485,485,485,485,485,485,485,485,485,485,485,485,485,485,485,485,485,485,485,485,485,485,485,485,485,485,486,485,471,371,297,223,152,29],"timestamp_mouse":[7,28,42,62,82,101,121,141,160,182,202,221,240,262,282,300,322,341,361,382,400,421,442,461,480,501,522,541,560,581,602,621,642,661,681,701,721,741,761,781,801,820,841],"xSR":583.2000122070312,"ySR":459.16001586914064,"xT1":329.9200073242187,"yT1":0,"xT2":836.4800170898437,"yT2":0,"toosoon":0,"cond_shown":"equaldotanddens","ratio_trial":250,"smaller_num":"4","larger_num":"16","correct_side":1,"subjID":"JUANMANUELMERCHANRODRIGEZ27","gender":"0","age":"12","school":"6"},{"start_time":1551900678619,"click_time":1551900679965,"finger_time":1551900679805,"fix_duration":991.7761951145685,"trial":33,"RT":1186,"MT":160,"sideResp":2,"stimulus":"img/750/equaldotsize/R/2_Ratio_750_L_6_R_8.png","xmouse":[629,629,629,629,629,629,629,629,629,629,629,629,629,629,629,629,629,629,629,629,629,629,629,629,629,629,629,629,629,629,629,629,629,629,629,629,629,629,629,629,629,629,629,629,629,629,629,629,629,629,629,629,629,629,629,632,636,641,649,660,679,723,745,771,793,824,835,844],"ymouse":[534,534,534,534,534,534,534,534,534,534,534,534,534,534,534,534,534,534,534,534,534,534,534,534,534,534,534,534,534,534,534,534,534,534,534,534,534,534,534,534,534,534,534,534,534,534,534,534,534,534,534,534,534,534,534,522,512,500,480,457,412,283,215,149,97,33,15,1],"timestamp_mouse":[6,32,46,66,87,106,126,146,166,186,207,225,246,267,286,305,327,347,365,386,405,427,446,466,486,507,525,547,566,586,606,625,646,667,687,707,726,746,766,786,807,826,846,866,886,907,926,947,965,986,1006,1026,1045,1067,1086,1106,1126,1147,1165,1186,1206,1227,1247,1266,1285,1307,1326,1346],"xSR":583.2000122070312,"ySR":459.16001586914064,"xT1":329.9200073242187,"yT1":0,"xT2":836.4800170898437,"yT2":0,"toosoon":0,"cond_shown":"equaldotsize","ratio_trial":750,"smaller_num":"6","larger_num":"8","correct_side":2,"subjID":"JUANMANUELMERCHANRODRIGEZ27","gender":"0","age":"12","school":"6"},{"start_time":1551900680796,"click_time":1551900681945,"finger_time":1551900681525,"fix_duration":250,"trial":34,"RT":729,"MT":420,"sideResp":2,"stimulus":"img/500/randomdotsizeEA/R/3_Ratio_500_L_10_R_20.png","xmouse":[605,605,605,605,605,605,605,605,605,605,605,605,605,605,605,605,605,605,605,605,605,605,605,605,605,605,605,605,605,605,605,605,609,616,632,668,716,854,966,1020,1061,1081,1083,1084,1084,1084,1084,1084,1084,1084,1080,1065,1054,1040,1025,1008,986,933],"ymouse":[526,526,526,526,526,526,526,526,526,526,526,526,526,526,526,526,526,526,526,526,526,526,526,526,526,526,526,526,526,526,526,526,526,520,506,467,411,262,142,81,37,7,3,0,0,0,0,0,0,0,0,0,4,7,11,16,20,27],"timestamp_mouse":[8,38,49,70,89,109,130,150,169,189,208,229,249,270,288,309,329,349,370,389,409,430,450,469,489,510,529,550,569,588,609,630,649,668,688,709,729,749,770,790,809,830,849,869,889,910,930,950,969,988,1009,1029,1049,1068,1090,1110,1130,1149],"xSR":583.2000122070312,"ySR":459.16001586914064,"xT1":329.9200073242187,"yT1":0,"xT2":836.4800170898437,"yT2":0,"toosoon":0,"cond_shown":"randomdotsizeEA","ratio_trial":500,"smaller_num":"10","larger_num":"20","correct_side":2,"subjID":"JUANMANUELMERCHANRODRIGEZ27","gender":"0","age":"12","school":"6"},{"start_time":1551900684069,"click_time":1551900685046,"finger_time":1551900684905,"fix_duration":1043.7464533010111,"trial":35,"RT":836,"MT":141,"sideResp":1,"stimulus":"img/900/equaldotsize/R/11_Ratio_900_L_18_R_20.png","xmouse":[646,646,646,646,646,646,646,646,646,646,646,646,646,646,646,646,646,646,646,646,646,646,646,646,646,646,646,646,646,646,646,646,646,646,646,646,646,646,646,643,637,620,548,508,474,444,435,428,425],"ymouse":[469,469,469,469,469,469,469,469,469,469,469,469,469,469,469,469,469,469,469,469,469,469,469,469,469,469,469,469,469,469,469,469,469,469,469,469,469,469,469,468,460,439,348,293,239,167,134,112,84],"timestamp_mouse":[16,36,56,76,96,117,136,157,175,196,217,237,257,276,296,316,335,357,376,395,417,437,457,477,497,517,536,557,576,597,615,635,657,675,696,717,737,755,776,796,816,836,856,875,896,917,936,956,977],"xSR":583.2000122070312,"ySR":459.16001586914064,"xT1":329.9200073242187,"yT1":0,"xT2":836.4800170898437,"yT2":0,"toosoon":0,"cond_shown":"equaldotsize","ratio_trial":900,"smaller_num":"18","larger_num":"20","correct_side":2,"subjID":"JUANMANUELMERCHANRODRIGEZ27","gender":"0","age":"12","school":"6"},{"start_time":1551900687117,"click_time":1551900688066,"finger_time":1551900687906,"fix_duration":1350.0746108498422,"trial":36,"RT":789,"MT":160,"sideResp":1,"stimulus":"img/500/randomdotsizeEA/L/11_Ratio_500_L_12_R_6.png","xmouse":[632,632,632,632,632,632,632,632,632,632,632,632,632,632,632,632,632,632,632,632,632,632,632,632,632,632,632,632,632,632,632,632,632,632,632,632,631,624,613,598,544,518,479,468,440,417,409,405],"ymouse":[506,506,506,506,506,506,506,506,506,506,506,506,506,506,506,506,506,506,506,506,506,506,506,506,506,506,506,506,506,506,506,506,506,506,506,506,504,492,476,448,358,306,232,213,160,119,104,97],"timestamp_mouse":[9,38,47,69,88,108,128,148,168,188,209,228,248,268,288,309,329,348,367,389,408,429,448,468,489,509,527,549,568,589,609,627,649,669,688,708,728,749,768,789,808,828,848,867,888,909,928,949],"xSR":583.2000122070312,"ySR":459.16001586914064,"xT1":329.9200073242187,"yT1":0,"xT2":836.4800170898437,"yT2":0,"toosoon":0,"cond_shown":"randomdotsizeEA","ratio_trial":500,"smaller_num":"6","larger_num":"12","correct_side":1,"subjID":"JUANMANUELMERCHANRODRIGEZ27","gender":"0","age":"12","school":"6"},{"start_time":1551900689217,"click_time":1551900689945,"finger_time":1551900689805,"fix_duration":250,"trial":37,"RT":588,"MT":140,"sideResp":2,"stimulus":"img/250/equaldotsize/R/10_Ratio_250_L_4_R_16.png","xmouse":[604,604,604,604,604,604,604,604,604,604,604,604,604,604,604,604,605,605,605,605,605,605,606,607,608,609,621,641,661,695,771,804,830,850,860,871,882],"ymouse":[532,532,532,532,532,532,532,532,532,532,532,532,532,532,532,532,531,531,530,530,530,530,528,528,527,524,515,500,480,449,344,290,232,188,153,118,72],"timestamp_mouse":[8,28,48,69,89,108,129,148,169,188,207,228,247,269,288,308,329,349,367,389,408,427,448,467,487,507,527,547,568,588,608,628,647,668,688,709,728],"xSR":583.2000122070312,"ySR":459.16001586914064,"xT1":329.9200073242187,"yT1":0,"xT2":836.4800170898437,"yT2":0,"toosoon":0,"cond_shown":"equaldotsize","ratio_trial":250,"smaller_num":"4","larger_num":"16","correct_side":2,"subjID":"JUANMANUELMERCHANRODRIGEZ27","gender":"0","age":"12","school":"6"},{"start_time":1551900691017,"click_time":1551900692666,"finger_time":1551900691805,"fix_duration":250,"trial":38,"RT":788,"MT":861,"sideResp":1,"stimulus":"img/500/equaldotsize/L/5_Ratio_500_L_4_R_2.png","xmouse":[658,658,658,658,658,658,658,658,658,658,658,658,658,658,658,658,658,658,659,660,662,666,667,667,667,667,667,667,667,667,667,667,667,667,667,660,648,628,587,567,556,552,550,547,540,530,509,509,509,509,509,509,509,509,509,509,509,509,509,509,509,509,509,509,509,509,509,509,509,509,509,509,509,509,509,509,509,509,509,509,509,509,378],"ymouse":[500,500,500,500,500,500,500,500,500,500,500,500,500,500,500,500,500,500,500,500,500,499,498,498,498,498,498,498,498,498,498,498,498,498,498,498,498,498,497,492,487,481,470,449,409,338,188,188,188,188,188,188,188,188,188,188,188,188,188,188,188,188,188,188,188,188,188,188,188,188,188,188,188,188,188,188,188,188,188,188,188,188,62],"timestamp_mouse":[8,28,56,68,87,109,128,149,169,188,209,228,249,268,288,308,329,348,369,388,409,429,448,468,488,508,528,548,568,588,608,628,649,668,688,708,729,748,768,788,809,829,848,868,887,908,927,947,967,987,1007,1027,1047,1067,1087,1107,1129,1149,1169,1189,1209,1229,1248,1267,1289,1308,1328,1348,1368,1389,1408,1428,1448,1469,1488,1509,1528,1548,1568,1588,1608,1629,1649],"xSR":583.2000122070312,"ySR":459.16001586914064,"xT1":329.9200073242187,"yT1":0,"xT2":836.4800170898437,"yT2":0,"toosoon":0,"cond_shown":"equaldotsize","ratio_trial":500,"smaller_num":"2","larger_num":"4","correct_side":1,"subjID":"JUANMANUELMERCHANRODRIGEZ27","gender":"0","age":"12","school":"6"},{"start_time":1551900694390,"click_time":1551900695626,"finger_time":1551900695065,"fix_duration":743.3491027059663,"trial":39,"RT":675,"MT":561,"sideResp":2,"stimulus":"img/500/equaldotsize/R/3_Ratio_500_L_10_R_20.png","xmouse":[638,638,638,638,638,638,638,638,638,638,638,638,638,638,638,638,638,638,638,638,638,638,638,638,638,638,638,638,638,638,638,646,653,669,698,739,829,868,911,918,920,920,920,920,920,916,900,888,876,872,861,836,820,812,808,808,808,808,808,812,836,862],"ymouse":[474,474,474,474,474,474,474,474,474,474,474,474,474,474,474,474,474,474,474,474,474,474,474,474,474,474,474,474,474,474,474,472,467,455,433,398,283,220,142,121,112,108,108,108,108,109,116,122,128,132,140,166,184,197,204,205,206,206,206,202,163,81],"timestamp_mouse":[16,35,55,75,96,115,135,155,175,195,215,234,255,275,295,316,335,356,375,395,415,435,455,475,496,515,536,556,575,595,615,636,655,675,696,716,736,755,774,796,815,835,856,875,895,915,935,954,975,995,1016,1035,1055,1076,1096,1116,1136,1156,1176,1195,1214,1235],"xSR":583.2000122070312,"ySR":459.16001586914064,"xT1":329.9200073242187,"yT1":0,"xT2":836.4800170898437,"yT2":0,"toosoon":0,"cond_shown":"equaldotsize","ratio_trial":500,"smaller_num":"10","larger_num":"20","correct_side":2,"subjID":"JUANMANUELMERCHANRODRIGEZ27","gender":"0","age":"12","school":"6"},{"start_time":1551900698264,"click_time":1551900699225,"finger_time":1551900698845,"fix_duration":798.5744172777794,"trial":40,"RT":581,"MT":380,"sideResp":2,"stimulus":"img/750/equaldotsize/R/2_Ratio_750_L_6_R_8.png","xmouse":[630,630,630,630,630,630,630,630,630,630,630,630,630,630,630,630,630,630,630,630,630,630,630,630,630,630,630,630,632,656,696,757,832,959,998,1024,1024,1024,1020,1008,1004,1001,997,992,974,964,954,946,936],"ymouse":[465,465,465,465,465,465,465,465,465,465,465,465,465,465,465,465,465,465,465,465,465,465,465,465,465,465,465,465,463,443,410,371,326,235,195,145,138,121,116,115,116,116,116,116,107,100,88,80,72],"timestamp_mouse":[4,25,42,62,81,101,122,142,161,181,201,221,241,262,280,301,321,341,361,381,401,421,441,461,480,501,521,541,561,581,601,622,642,662,681,701,721,741,761,781,801,821,842,861,882,902,922,941,961],"xSR":583.2000122070312,"ySR":459.16001586914064,"xT1":329.9200073242187,"yT1":0,"xT2":836.4800170898437,"yT2":0,"toosoon":0,"cond_shown":"equaldotsize","ratio_trial":750,"smaller_num":"6","larger_num":"8","correct_side":2,"subjID":"JUANMANUELMERCHANRODRIGEZ27","gender":"0","age":"12","school":"6"},{"start_time":1551900700360,"click_time":1551900702626,"finger_time":1551900702325,"fix_duration":273.62570363166793,"trial":41,"RT":1965,"MT":301,"sideResp":1,"stimulus":"img/500/equaldotanddens/R/6_Ratio_500_L_9_R_18.png","xmouse":[645,645,645,645,645,645,645,645,645,645,645,645,645,645,645,645,645,645,645,645,645,645,645,645,645,645,645,645,645,645,645,645,645,645,645,645,645,645,645,645,645,645,645,645,645,645,645,645,645,645,645,645,645,645,645,645,645,645,645,645,645,645,645,645,645,645,645,645,645,645,645,645,645,645,645,645,645,645,645,645,645,645,645,645,645,645,645,647,648,648,648,648,648,648,648,648,648,638,572,512,444,348,298,268,251,251,252,252,259,265,283,300,320,352],"ymouse":[488,488,488,488,488,488,488,488,488,488,488,488,488,488,488,488,488,488,488,488,488,488,488,488,488,488,488,488,488,488,488,488,488,488,488,488,488,488,488,488,488,488,488,488,488,488,488,488,488,488,488,488,488,488,488,488,488,488,488,488,488,488,488,488,488,488,488,488,488,488,488,488,488,488,488,488,488,488,488,488,488,488,488,488,488,488,488,487,486,486,486,486,486,486,486,483,479,463,383,322,250,137,64,7,0,0,0,0,0,0,5,13,22,40],"timestamp_mouse":[5,25,46,65,85,105,124,146,166,184,205,225,246,265,285,306,326,344,365,386,404,427,446,465,486,505,526,545,566,586,605,626,645,665,685,705,725,745,766,785,805,825,845,865,885,904,925,946,965,985,1005,1025,1045,1065,1084,1105,1125,1146,1165,1185,1206,1225,1245,1265,1284,1306,1325,1346,1365,1385,1405,1425,1445,1466,1486,1505,1525,1544,1566,1585,1605,1625,1645,1664,1685,1705,1726,1745,1766,1785,1804,1825,1845,1865,1886,1905,1926,1945,1965,1985,2006,2025,2045,2066,2085,2105,2126,2146,2166,2186,2206,2225,2246,2266],"xSR":583.2000122070312,"ySR":459.16001586914064,"xT1":329.9200073242187,"yT1":0,"xT2":836.4800170898437,"yT2":0,"toosoon":0,"cond_shown":"equaldotanddens","ratio_trial":500,"smaller_num":"9","larger_num":"18","correct_side":2,"subjID":"JUANMANUELMERCHANRODRIGEZ27","gender":"0","age":"12","school":"6"},{"start_time":1551900704286,"click_time":1551900705085,"finger_time":1551900704665,"fix_duration":440.76596416334036,"trial":42,"RT":379,"MT":420,"sideResp":1,"stimulus":"img/750/randomdotsizeEA/R/3_Ratio_750_L_15_R_20.png","xmouse":[605,605,605,605,607,607,607,607,607,607,607,607,607,607,607,607,607,607,613,620,636,654,686,693,695,695,695,695,692,689,686,681,676,662,632,601,564,476,427,379],"ymouse":[463,463,463,463,462,462,462,462,462,462,462,462,462,462,462,462,462,462,457,452,439,423,386,375,373,373,373,373,376,376,378,380,380,378,364,340,305,198,132,71],"timestamp_mouse":[19,53,59,79,99,120,139,160,178,199,220,239,260,279,299,320,340,359,379,400,419,439,458,479,499,520,540,560,578,599,620,639,658,679,700,719,739,760,780,799],"xSR":583.2000122070312,"ySR":459.16001586914064,"xT1":329.9200073242187,"yT1":0,"xT2":836.4800170898437,"yT2":0,"toosoon":0,"cond_shown":"randomdotsizeEA","ratio_trial":750,"smaller_num":"15","larger_num":"20","correct_side":2,"subjID":"JUANMANUELMERCHANRODRIGEZ27","gender":"0","age":"12","school":"6"},{"start_time":1551900706678,"click_time":1551900707625,"finger_time":1551900707365,"fix_duration":751.6615207508448,"trial":43,"RT":687,"MT":260,"sideResp":2,"stimulus":"img/900/equaldotsize/R/15_Ratio_900_L_9_R_10.png","xmouse":[623,623,623,623,623,623,623,623,623,623,623,623,623,623,623,623,623,623,623,623,623,623,623,623,623,623,623,623,623,623,623,628,632,660,699,744,785,848,868,879,883,884,884,884,884,884,884,883],"ymouse":[536,536,536,536,536,536,536,536,536,536,536,536,536,536,536,536,536,536,536,536,536,536,536,536,536,536,536,536,536,536,536,531,528,506,476,440,395,280,229,188,161,145,132,128,124,118,105,96],"timestamp_mouse":[7,28,47,68,88,107,127,147,167,187,207,227,247,267,287,307,327,347,366,387,407,427,448,466,487,507,527,547,567,587,607,628,647,667,687,707,727,747,766,787,807,827,847,867,887,907,927,947],"xSR":583.2000122070312,"ySR":459.16001586914064,"xT1":329.9200073242187,"yT1":0,"xT2":836.4800170898437,"yT2":0,"toosoon":0,"cond_shown":"equaldotsize","ratio_trial":900,"smaller_num":"9","larger_num":"10","correct_side":2,"subjID":"JUANMANUELMERCHANRODRIGEZ27","gender":"0","age":"12","school":"6"},{"start_time":1551900715001,"click_time":1551900716126,"finger_time":1551900715706,"fix_duration":814.408824938408,"trial":44,"RT":705,"MT":420,"sideResp":1,"stimulus":"img/250/equaldotsize/L/15_Ratio_250_L_12_R_3.png","xmouse":[673,673,673,673,672,672,672,672,671,671,671,671,671,671,670,670,670,670,670,670,670,670,670,670,670,670,670,670,670,670,669,665,657,652,644,629,512,428,343,318,306,298,287,277,272,271,269,269,272,280,288,296,314,320,325,328,334],"ymouse":[491,491,491,492,493,494,495,496,498,500,500,501,502,503,503,503,503,503,503,504,504,504,504,504,504,504,504,504,504,504,504,504,496,488,472,448,307,232,158,139,128,120,110,100,96,94,82,76,72,62,55,48,37,33,31,30,28],"timestamp_mouse":[4,24,44,65,85,105,124,144,163,185,204,224,245,264,284,304,324,344,364,384,404,424,444,464,484,505,524,544,564,584,604,624,644,665,684,705,725,744,763,784,804,824,845,864,884,904,925,944,965,984,1005,1024,1045,1064,1085,1105,1125],"xSR":583.2000122070312,"ySR":459.16001586914064,"xT1":329.9200073242187,"yT1":0,"xT2":836.4800170898437,"yT2":0,"toosoon":0,"cond_shown":"equaldotsize","ratio_trial":250,"smaller_num":"3","larger_num":"12","correct_side":1,"subjID":"JUANMANUELMERCHANRODRIGEZ27","gender":"0","age":"12","school":"6"},{"start_time":1551900717118,"click_time":1551900717866,"finger_time":1551900717786,"fix_duration":250,"trial":45,"RT":668,"MT":80,"sideResp":1,"stimulus":"img/250/randomdotsizeEA/L/7_Ratio_250_L_8_R_2.png","xmouse":[643,643,643,643,643,643,643,643,643,643,643,643,643,643,643,643,643,643,643,643,643,643,643,643,643,643,643,643,643,643,643,640,629,599,550,413,362,331],"ymouse":[528,528,528,528,528,528,528,528,528,528,528,528,528,528,528,528,528,528,528,528,528,528,528,528,528,528,528,528,528,528,528,525,505,450,368,178,104,55],"timestamp_mouse":[7,27,52,67,87,107,127,147,168,188,207,228,248,266,288,308,327,347,367,388,408,428,447,468,487,507,527,547,567,587,607,627,647,668,686,708,727,748],"xSR":583.2000122070312,"ySR":459.16001586914064,"xT1":329.9200073242187,"yT1":0,"xT2":836.4800170898437,"yT2":0,"toosoon":0,"cond_shown":"randomdotsizeEA","ratio_trial":250,"smaller_num":"2","larger_num":"8","correct_side":1,"subjID":"JUANMANUELMERCHANRODRIGEZ27","gender":"0","age":"12","school":"6"},{"start_time":1551900719178,"click_time":1551900719846,"finger_time":1551900719465,"fix_duration":250,"trial":46,"RT":287,"MT":381,"sideResp":2,"stimulus":"img/750/equaldotanddens/R/3_Ratio_750_L_15_R_20.png","xmouse":[624,624,624,624,624,624,624,624,624,624,624,624,624,624,624,624,620,579,544,516,514,514,518,532,564,616,676,788,825,867,884,894,908,913],"ymouse":[463,463,463,463,463,463,463,463,463,463,463,463,463,463,459,456,444,394,364,347,345,345,341,336,328,312,295,256,232,188,158,139,103,89],"timestamp_mouse":[7,41,48,66,87,107,127,148,166,187,208,227,247,267,287,307,328,347,367,387,407,427,448,467,487,507,528,548,568,587,608,627,648,668],"xSR":583.2000122070312,"ySR":459.16001586914064,"xT1":329.9200073242187,"yT1":0,"xT2":836.4800170898437,"yT2":0,"toosoon":0,"cond_shown":"equaldotanddens","ratio_trial":750,"smaller_num":"15","larger_num":"20","correct_side":2,"subjID":"JUANMANUELMERCHANRODRIGEZ27","gender":"0","age":"12","school":"6"},{"start_time":1551900723260,"click_time":1551900724226,"finger_time":1551900724045,"fix_duration":1273.2903857046615,"trial":47,"RT":785,"MT":181,"sideResp":1,"stimulus":"img/900/equaldotanddens/L/10_Ratio_900_L_20_R_18.png","xmouse":[651,651,651,651,651,651,651,651,651,651,651,651,651,651,651,651,651,651,651,651,651,651,651,651,651,651,651,651,651,651,651,651,651,651,651,651,651,649,642,636,627,614,601,591,568,548,503,468,370],"ymouse":[534,534,534,533,532,529,528,528,528,528,528,528,528,528,528,528,528,528,528,528,528,528,528,528,528,528,528,528,528,528,528,528,528,528,528,527,524,518,485,446,400,348,304,267,205,176,126,96,36],"timestamp_mouse":[6,26,44,66,85,106,124,145,166,185,206,225,245,265,286,305,325,344,365,385,405,425,445,466,485,504,525,545,566,586,604,626,645,665,685,705,725,745,766,785,805,824,846,865,886,905,925,945,966],"xSR":583.2000122070312,"ySR":459.16001586914064,"xT1":329.9200073242187,"yT1":0,"xT2":836.4800170898437,"yT2":0,"toosoon":0,"cond_shown":"equaldotanddens","ratio_trial":900,"smaller_num":"18","larger_num":"20","correct_side":1,"subjID":"JUANMANUELMERCHANRODRIGEZ27","gender":"0","age":"12","school":"6"},{"start_time":1551900726938,"click_time":1551900728626,"finger_time":1551900727745,"fix_duration":991.7137902083376,"trial":48,"RT":807,"MT":881,"sideResp":1,"stimulus":"img/750/equaldotsize/L/9_Ratio_750_L_4_R_3.png","xmouse":[604,604,604,604,604,604,604,604,604,604,604,604,604,604,604,604,604,604,604,604,604,604,604,604,604,604,604,604,604,604,604,604,604,604,604,604,604,604,604,604,610,614,614,612,560,512,438,350,260,80,34,25,25,25,28,32,34,39,45,57,90,121,141,160,190,202,214,227,239,252,270,281,285,289,292,294,294,294,294,294,294,295,301,320,348],"ymouse":[464,464,464,464,464,464,464,464,464,464,464,464,464,464,464,464,464,464,464,464,464,464,464,464,464,464,464,464,464,464,464,464,464,464,464,464,464,464,464,463,445,424,416,379,303,261,210,156,107,12,0,0,0,0,0,0,0,0,0,0,0,0,0,0,0,0,4,8,13,19,31,40,44,48,51,53,53,53,54,54,54,54,58,64,76],"timestamp_mouse":[8,33,46,67,87,107,126,147,167,186,207,227,248,268,287,307,327,347,367,387,406,428,447,467,486,507,527,548,568,588,607,628,647,667,687,707,728,748,767,788,807,827,847,867,887,906,928,948,968,987,1007,1028,1047,1066,1087,1107,1127,1147,1168,1187,1208,1227,1247,1268,1287,1307,1328,1348,1367,1387,1408,1427,1447,1467,1486,1507,1528,1547,1567,1587,1607,1627,1646,1667,1688],"xSR":583.2000122070312,"ySR":459.16001586914064,"xT1":329.9200073242187,"yT1":0,"xT2":836.4800170898437,"yT2":0,"toosoon":0,"cond_shown":"equaldotsize","ratio_trial":750,"smaller_num":"3","larger_num":"4","correct_side":1,"subjID":"JUANMANUELMERCHANRODRIGEZ27","gender":"0","age":"12","school":"6"},{"start_time":1551900730873,"click_time":1551900731925,"finger_time":1551900731586,"fix_duration":1005.750571147237,"trial":49,"RT":713,"MT":339,"sideResp":2,"stimulus":"img/500/equaldotanddens/R/9_Ratio_500_L_2_R_4.png","xmouse":[613,613,613,613,613,613,613,613,613,613,613,613,613,613,613,613,613,613,613,613,613,613,614,614,614,614,614,614,614,614,614,614,614,616,620,629,655,675,719,730,738,738,741,757,763,772,778,788,796,805,812,824,854],"ymouse":[482,482,482,482,482,482,482,482,482,482,482,480,479,477,477,477,477,477,477,477,477,477,476,476,476,476,476,476,476,476,476,476,476,472,467,452,407,360,171,78,0,0,0,0,0,0,0,2,4,6,8,8,8],"timestamp_mouse":[12,40,52,73,92,113,132,153,172,192,212,233,252,272,292,312,332,352,372,393,411,433,452,473,492,512,532,553,571,592,612,632,653,672,693,713,732,752,772,793,812,833,852,872,891,912,932,952,972,993,1012,1032,1052],"xSR":583.2000122070312,"ySR":459.16001586914064,"xT1":329.9200073242187,"yT1":0,"xT2":836.4800170898437,"yT2":0,"toosoon":0,"cond_shown":"equaldotanddens","ratio_trial":500,"smaller_num":"2","larger_num":"4","correct_side":2,"subjID":"JUANMANUELMERCHANRODRIGEZ27","gender":"0","age":"12","school":"6"},{"start_time":1551900734022,"click_time":1551900734845,"finger_time":1551900734486,"fix_duration":1255.6360657441032,"trial":50,"RT":464,"MT":359,"sideResp":1,"stimulus":"img/900/randomdotsizeEA/L/1_Ratio_900_L_10_R_9.png","xmouse":[621,621,621,622,622,622,623,623,623,623,623,623,623,623,623,623,624,624,624,624,624,624,624,624,619,617,615,612,610,607,595,585,564,538,514,480,469,462,455,451,445,423],"ymouse":[472,472,472,471,471,470,470,470,470,470,470,470,470,470,470,469,468,468,466,465,465,463,461,456,448,444,440,436,431,425,404,384,349,301,256,182,149,123,97,81,67,35],"timestamp_mouse":[4,34,43,63,83,104,123,144,163,184,203,223,243,262,284,303,324,343,363,384,403,423,444,464,484,503,523,544,564,584,603,623,643,663,684,703,723,744,764,783,802,823],"xSR":583.2000122070312,"ySR":459.16001586914064,"xT1":329.9200073242187,"yT1":0,"xT2":836.4800170898437,"yT2":0,"toosoon":0,"cond_shown":"randomdotsizeEA","ratio_trial":900,"smaller_num":"9","larger_num":"10","correct_side":1,"subjID":"JUANMANUELMERCHANRODRIGEZ27","gender":"0","age":"12","school":"6"},{"start_time":1551900735997,"click_time":1551900736565,"finger_time":1551900736465,"fix_duration":250,"trial":51,"RT":468,"MT":100,"sideResp":1,"stimulus":"img/250/equaldotsize/L/5_Ratio_250_L_24_R_6.png","xmouse":[658,658,658,658,658,658,659,659,659,659,659,660,660,662,662,663,664,664,664,664,664,661,647,632,609,587,552,416,336],"ymouse":[494,494,494,494,494,494,494,494,494,494,494,494,494,493,492,490,486,485,485,485,484,479,464,448,420,386,324,136,28],"timestamp_mouse":[8,35,48,68,89,108,128,148,168,188,209,228,248,268,288,308,328,349,368,388,408,428,449,468,488,509,528,549,568],"xSR":583.2000122070312,"ySR":459.16001586914064,"xT1":329.9200073242187,"yT1":0,"xT2":836.4800170898437,"yT2":0,"toosoon":0,"cond_shown":"equaldotsize","ratio_trial":250,"smaller_num":"6","larger_num":"24","correct_side":1,"subjID":"JUANMANUELMERCHANRODRIGEZ27","gender":"0","age":"12","school":"6"},{"start_time":1551900738376,"click_time":1551900739325,"finger_time":1551900738945,"fix_duration":1029.7912977065428,"trial":52,"RT":569,"MT":380,"sideResp":2,"stimulus":"img/250/equaldotanddens/R/10_Ratio_250_L_4_R_16.png","xmouse":[592,592,592,592,592,592,592,592,592,592,592,592,592,592,592,592,592,592,592,592,592,592,592,592,592,595,598,607,638,664,691,735,756,785,796,804,809,815,825,826,831,832,834,834,836,837,839,844],"ymouse":[505,505,505,505,505,505,505,505,505,505,505,505,505,505,505,505,505,505,505,505,505,505,505,505,505,500,494,480,425,380,337,278,248,210,196,185,176,165,144,141,134,129,125,124,120,116,111,98],"timestamp_mouse":[9,29,48,70,89,109,129,149,169,190,209,229,250,268,289,310,330,349,368,389,408,430,449,469,488,509,530,548,569,589,609,629,649,670,689,708,729,749,769,789,810,829,849,868,890,909,929,949],"xSR":583.2000122070312,"ySR":459.16001586914064,"xT1":329.9200073242187,"yT1":0,"xT2":836.4800170898437,"yT2":0,"toosoon":0,"cond_shown":"equaldotanddens","ratio_trial":250,"smaller_num":"4","larger_num":"16","correct_side":2,"subjID":"JUANMANUELMERCHANRODRIGEZ27","gender":"0","age":"12","school":"6"},{"start_time":1551900749337,"click_time":1551900753565,"finger_time":1551900753165,"fix_duration":690.6556655738609,"trial":53,"RT":3828,"MT":400,"sideResp":1,"stimulus":"img/250/equaldotsize/L/2_Ratio_250_L_16_R_4.png","xmouse":[656,656,656,656,656,656,656,655,655,655,655,655,655,655,655,655,655,655,655,655,655,655,655,655,655,655,655,655,655,655,655,655,655,654,653,652,652,652,652,652,652,652,652,652,652,652,652,652,652,652,652,652,652,652,652,652,652,652,652,652,652,652,652,652,652,652,652,652,652,652,652,652,652,652,652,652,652,652,652,652,652,652,652,652,652,652,652,652,652,652,652,652,652,652,652,652,652,652,652,652,652,652,652,652,652,652,652,652,652,652,652,652,652,652,652,652,652,652,652,652,652,652,652,652,652,652,652,652,652,652,652,652,652,652,652,652,652,652,652,652,652,652,652,652,652,652,652,652,652,652,652,652,652,652,652,652,652,652,652,652,652,652,652,652,650,647,640,633,626,621,619,619,619,619,619,619,619,619,619,619,619,619,619,619,619,619,619,619,619,619,616,602,496,352,0,0,0,0,16,476,840,1164,1164,1164,1003,690,358,123,76,108,325,344],"ymouse":[535,535,535,535,535,535,535,535,535,535,535,535,535,535,535,535,535,535,535,535,535,535,535,535,535,535,535,535,535,535,535,534,534,533,532,531,530,530,530,530,530,530,530,530,530,530,530,530,530,530,530,530,530,530,530,530,530,530,530,530,530,530,530,530,530,530,530,530,530,530,530,530,530,530,530,530,530,530,530,530,530,530,530,530,530,530,530,530,530,530,530,530,530,530,530,530,530,530,530,530,530,530,530,530,530,530,530,530,530,530,530,530,530,530,530,530,530,530,530,530,530,530,530,530,530,530,530,530,530,530,530,530,530,530,530,530,530,530,530,530,530,530,530,530,530,530,530,530,530,530,530,530,530,530,530,530,530,530,530,530,530,530,530,530,528,520,513,504,496,493,492,492,492,492,492,492,492,492,492,492,492,492,492,492,492,492,492,492,492,492,484,457,334,206,0,0,0,0,0,67,172,276,276,276,202,48,0,0,0,0,3,8],"timestamp_mouse":[20,28,48,68,88,108,128,149,169,188,208,228,248,268,288,308,328,348,368,388,409,428,449,468,489,508,527,548,569,588,608,629,649,669,688,708,728,749,769,789,808,829,848,867,888,909,929,949,968,989,1008,1028,1049,1067,1089,1108,1129,1149,1169,1189,1208,1228,1248,1268,1289,1308,1328,1349,1369,1388,1409,1428,1448,1469,1488,1508,1529,1548,1568,1588,1607,1629,1647,1668,1689,1708,1728,1747,1768,1787,1808,1828,1849,1868,1888,1908,1928,1949,1967,1988,2008,2028,2049,2068,2089,2108,2129,2148,2167,2188,2208,2227,2249,2267,2288,2308,2328,2347,2369,2388,2408,2428,2448,2468,2488,2508,2528,2548,2569,2587,2608,2629,2648,2669,2689,2708,2728,2749,2768,2788,2807,2828,2849,2868,2889,2908,2928,2948,2968,2989,3008,3028,3048,3069,3088,3108,3129,3148,3168,3187,3208,3227,3248,3268,3289,3308,3328,3349,3369,3389,3408,3427,3448,3468,3488,3509,3528,3548,3569,3589,3608,3628,3648,3668,3688,3708,3729,3748,3768,3788,3809,3828,3849,3869,3888,3908,3928,3947,3969,3989,4008,4028,4047,4067,4089,4107,4128,4149,4168,4188,4209,4228],"xSR":583.2000122070312,"ySR":459.16001586914064,"xT1":329.9200073242187,"yT1":0,"xT2":836.4800170898437,"yT2":0,"toosoon":0,"cond_shown":"equaldotsize","ratio_trial":250,"smaller_num":"4","larger_num":"16","correct_side":1,"subjID":"JUANMANUELMERCHANRODRIGEZ27","gender":"0","age":"12","school":"6"},{"start_time":1551900758757,"click_time":1551900761366,"finger_time":1551900759725,"fix_duration":250,"trial":54,"RT":968,"MT":1641,"sideResp":1,"stimulus":"img/500/equaldotsize/R/2_Ratio_500_L_3_R_6.png","xmouse":[614,614,614,614,614,614,614,614,614,614,614,615,615,614,614,614,614,613,610,610,610,610,610,610,610,610,610,610,610,610,610,610,610,610,610,611,612,613,614,615,615,615,616,616,617,620,630,661,722,952,1098,1098,1098,1098,1180,1084,593,155,0,0,0,33,509,978,978,1262,1024,550,0,0,277,708,1088,1127,720,204,0,4,284,800,800,800,825,0,0,40,277,301,301,254,11,0,0,201,252,252,252,120,0,26,242,552,823,937,743,349,0,0,239,676,1180,1180,1239,713,448,400,489,718,998,1137,1013,595,283,72,206,544,966,966,966,996,388],"ymouse":[499,499,499,499,499,499,499,499,499,499,499,495,492,489,489,489,488,488,491,492,492,492,492,492,492,492,492,492,492,492,492,492,492,492,492,493,493,493,493,493,493,493,493,493,493,493,493,482,457,373,317,317,317,317,62,24,0,0,0,0,0,0,97,216,216,501,468,363,77,40,26,37,69,54,0,0,0,0,61,169,169,169,248,28,0,0,0,0,0,0,0,0,0,0,0,0,0,0,0,0,0,4,0,0,0,0,0,0,0,0,27,27,39,0,0,0,0,0,0,0,0,0,0,0,0,0,0,0,0,28,28],"timestamp_mouse":[9,31,48,68,89,108,129,148,169,188,209,229,249,268,289,308,328,348,368,388,409,429,449,468,488,508,528,548,569,588,609,629,648,669,688,709,728,749,768,788,809,829,849,869,888,909,928,949,968,989,1009,1029,1048,1068,1087,1107,1128,1149,1168,1189,1208,1228,1248,1268,1289,1309,1328,1348,1369,1389,1408,1428,1448,1469,1488,1508,1528,1548,1569,1589,1608,1628,1647,1669,1687,1709,1727,1748,1768,1789,1808,1827,1847,1868,1888,1908,1929,1948,1969,1988,2007,2029,2048,2069,2089,2109,2128,2148,2168,2188,2209,2228,2248,2269,2287,2308,2328,2348,2367,2388,2408,2428,2449,2468,2488,2508,2528,2548,2568,2589,2608],"xSR":583.2000122070312,"ySR":459.16001586914064,"xT1":329.9200073242187,"yT1":0,"xT2":836.4800170898437,"yT2":0,"toosoon":0,"cond_shown":"equaldotsize","ratio_trial":500,"smaller_num":"3","larger_num":"6","correct_side":2,"subjID":"JUANMANUELMERCHANRODRIGEZ27","gender":"0","age":"12","school":"6"},{"start_time":1551900765938,"click_time":1551900766666,"finger_time":1551900766605,"fix_duration":1152.5679684123709,"trial":55,"RT":667,"MT":61,"sideResp":1,"stimulus":"img/750/equaldotsize/L/8_Ratio_750_L_4_R_3.png","xmouse":[608,608,608,608,608,608,608,608,608,608,608,608,608,608,608,608,608,608,608,608,608,608,608,608,608,608,608,608,608,608,608,608,608,598,560,440,401],"ymouse":[535,535,535,535,535,535,535,535,535,535,535,535,535,535,535,535,535,535,535,535,535,535,535,535,535,535,535,535,535,535,535,535,512,425,319,93,20],"timestamp_mouse":[8,32,47,67,87,107,128,148,168,188,206,227,247,268,287,307,327,347,366,388,407,427,447,466,487,507,527,547,567,586,607,627,647,667,688,707,728],"xSR":583.2000122070312,"ySR":459.16001586914064,"xT1":329.9200073242187,"yT1":0,"xT2":836.4800170898437,"yT2":0,"toosoon":0,"cond_shown":"equaldotsize","ratio_trial":750,"smaller_num":"3","larger_num":"4","correct_side":1,"subjID":"JUANMANUELMERCHANRODRIGEZ27","gender":"0","age":"12","school":"6"},{"start_time":1551900768117,"click_time":1551900769106,"finger_time":1551900768745,"fix_duration":250,"trial":56,"RT":628,"MT":361,"sideResp":2,"stimulus":"img/900/equaldotanddens/L/2_Ratio_900_L_20_R_18.png","xmouse":[620,620,620,620,620,620,620,620,620,620,620,620,620,620,620,620,620,620,620,620,620,620,620,620,620,620,620,620,620,622,629,696,739,770,814,911,960,994,1006,1009,1009,1009,1007,1003,999,994,976,965,951,936],"ymouse":[525,525,525,525,525,525,525,525,525,525,525,525,525,525,525,525,525,525,525,525,525,525,525,525,525,525,525,525,525,516,500,345,196,125,42,0,0,0,0,0,0,0,0,3,6,11,32,44,59,70],"timestamp_mouse":[8,28,47,69,89,108,128,149,168,188,208,228,247,268,289,308,328,348,368,388,408,428,447,469,488,507,528,548,569,589,609,628,648,668,688,709,728,749,768,788,809,828,848,869,887,909,929,948,968,989],"xSR":583.2000122070312,"ySR":459.16001586914064,"xT1":329.9200073242187,"yT1":0,"xT2":836.4800170898437,"yT2":0,"toosoon":0,"cond_shown":"equaldotanddens","ratio_trial":900,"smaller_num":"18","larger_num":"20","correct_side":1,"subjID":"JUANMANUELMERCHANRODRIGEZ27","gender":"0","age":"12","school":"6"},{"start_time":1551900773483,"click_time":1551900774066,"finger_time":1551900773925,"fix_duration":1456.884039236508,"trial":57,"RT":442,"MT":141,"sideResp":2,"stimulus":"img/250/equaldotanddens/R/12_Ratio_250_L_5_R_20.png","xmouse":[644,644,644,644,644,644,644,644,644,644,644,644,644,644,644,644,644,644,644,644,644,646,650,658,672,714,751,808,836,879],"ymouse":[464,464,464,464,464,464,464,464,464,464,464,464,464,465,465,465,465,465,465,465,465,464,457,447,425,368,313,196,131,44],"timestamp_mouse":[3,33,42,62,82,102,123,142,161,183,202,222,242,262,282,302,323,342,363,383,403,422,442,462,482,502,523,542,561,583],"xSR":583.2000122070312,"ySR":459.16001586914064,"xT1":329.9200073242187,"yT1":0,"xT2":836.4800170898437,"yT2":0,"toosoon":0,"cond_shown":"equaldotanddens","ratio_trial":250,"smaller_num":"5","larger_num":"20","correct_side":2,"subjID":"JUANMANUELMERCHANRODRIGEZ27","gender":"0","age":"12","school":"6"},{"start_time":1551900777144,"click_time":1551900778125,"finger_time":1551900777745,"fix_duration":437.3968036332675,"trial":58,"RT":601,"MT":380,"sideResp":1,"stimulus":"img/750/equaldotanddens/L/14_Ratio_750_L_8_R_6.png","xmouse":[643,643,643,643,643,643,643,643,643,643,643,643,643,643,643,643,643,643,643,643,643,643,643,643,643,643,643,643,643,643,642,612,600,556,533,512,508,504,502,498,482,479,479,479,478,475,467,456,444,424],"ymouse":[499,499,499,499,499,499,499,499,499,499,499,499,499,499,499,499,499,499,499,499,499,499,499,499,499,499,499,499,498,491,438,350,319,244,213,186,176,171,165,160,148,145,145,145,144,140,132,124,113,95],"timestamp_mouse":[3,33,40,62,81,102,121,142,161,182,201,221,242,261,281,301,321,341,362,382,402,421,441,461,482,501,520,542,561,581,601,621,641,661,681,702,722,742,761,781,802,821,842,861,881,902,921,941,961,981],"xSR":583.2000122070312,"ySR":459.16001586914064,"xT1":329.9200073242187,"yT1":0,"xT2":836.4800170898437,"yT2":0,"toosoon":0,"cond_shown":"equaldotanddens","ratio_trial":750,"smaller_num":"6","larger_num":"8","correct_side":1,"subjID":"JUANMANUELMERCHANRODRIGEZ27","gender":"0","age":"12","school":"6"},{"start_time":1551900779770,"click_time":1551900780606,"finger_time":1551900780266,"fix_duration":643.3749739715565,"trial":59,"RT":496,"MT":340,"sideResp":1,"stimulus":"img/500/equaldotanddens/L/7_Ratio_500_L_10_R_5.png","xmouse":[640,640,640,640,640,640,640,640,640,640,640,640,640,640,640,640,640,640,640,640,640,640,640,630,616,598,573,540,477,452,446,433,431,428,426,424,421,419,416,416,414,412],"ymouse":[476,476,476,476,476,476,476,476,476,476,476,476,476,476,476,476,476,476,476,476,476,476,476,462,440,415,381,340,252,210,200,176,170,159,151,145,137,130,114,109,104,98],"timestamp_mouse":[16,35,56,75,96,116,135,155,176,195,216,235,255,276,295,315,336,355,375,395,415,435,454,476,496,515,535,556,576,595,615,635,656,675,696,715,735,755,776,795,815,836],"xSR":583.2000122070312,"ySR":459.16001586914064,"xT1":329.9200073242187,"yT1":0,"xT2":836.4800170898437,"yT2":0,"toosoon":0,"cond_shown":"equaldotanddens","ratio_trial":500,"smaller_num":"5","larger_num":"10","correct_side":1,"subjID":"JUANMANUELMERCHANRODRIGEZ27","gender":"0","age":"12","school":"6"},{"start_time":1551900783361,"click_time":1551900784905,"finger_time":1551900784225,"fix_duration":595.5146744219596,"trial":60,"RT":864,"MT":680,"sideResp":2,"stimulus":"img/900/equaldotsize/L/8_Ratio_900_L_20_R_18.png","xmouse":[648,648,648,648,648,648,648,648,648,648,648,648,648,648,648,648,648,648,648,648,648,648,648,648,648,648,648,648,648,648,648,648,648,648,648,648,648,648,648,648,654,668,677,696,703,708,712,717,727,734,744,762,782,852,885,910,926,936,938,939,939,939,939,939,939,939,937,934,929,919,914,913,911,911,911,910,908,903],"ymouse":[515,515,515,515,515,515,515,515,515,515,515,515,515,515,515,515,515,515,515,515,515,515,515,515,515,515,515,515,515,515,515,515,515,515,515,515,515,515,515,512,506,484,468,438,424,412,403,392,368,352,336,304,277,223,198,180,167,158,155,152,152,152,152,152,152,152,151,145,140,128,122,120,116,116,115,112,107,98],"timestamp_mouse":[5,28,45,64,85,103,125,144,164,185,204,224,244,264,283,304,325,343,364,384,404,424,444,465,484,503,525,544,563,584,604,624,644,665,685,704,724,745,763,784,804,824,845,864,884,904,925,944,965,983,1004,1024,1045,1064,1083,1104,1124,1145,1165,1185,1204,1225,1244,1264,1284,1304,1325,1344,1363,1385,1405,1424,1444,1464,1484,1504,1525,1544],"xSR":583.2000122070312,"ySR":459.16001586914064,"xT1":329.9200073242187,"yT1":0,"xT2":836.4800170898437,"yT2":0,"toosoon":0,"cond_shown":"equaldotsize","ratio_trial":900,"smaller_num":"18","larger_num":"20","correct_side":1,"subjID":"JUANMANUELMERCHANRODRIGEZ27","gender":"0","age":"12","school":"6"},{"start_time":1551900787261,"click_time":1551900788665,"finger_time":1551900788205,"fix_duration":1215.747860932369,"trial":61,"RT":944,"MT":460,"sideResp":2,"stimulus":"img/500/equaldotsize/R/15_Ratio_500_L_1_R_2.png","xmouse":[671,671,671,671,671,671,671,671,671,671,671,671,671,671,671,671,671,671,671,671,671,671,671,671,671,671,671,671,671,671,671,671,671,671,671,671,671,671,671,671,671,671,671,670,670,671,682,699,756,792,856,915,961,1007,1015,1017,1020,1020,1020,1021,1021,1020,1020,1010,1006,1003,998,994,964,945,929],"ymouse":[522,522,522,522,522,522,522,522,522,522,522,522,522,522,522,522,522,522,522,522,522,522,522,522,522,522,522,522,522,522,522,522,522,522,522,522,522,522,522,522,522,522,522,522,516,511,487,456,356,304,224,154,100,32,13,1,0,0,0,0,0,0,0,0,0,3,7,11,27,33,37],"timestamp_mouse":[4,34,45,65,84,104,125,144,163,183,204,224,243,264,284,305,323,345,364,384,404,423,444,464,484,504,524,543,565,584,605,624,644,664,684,704,724,744,764,783,804,824,844,864,884,904,925,944,964,985,1005,1025,1045,1064,1083,1105,1123,1143,1165,1184,1204,1224,1245,1264,1284,1304,1324,1344,1365,1384,1403],"xSR":583.2000122070312,"ySR":459.16001586914064,"xT1":329.9200073242187,"yT1":0,"xT2":836.4800170898437,"yT2":0,"toosoon":0,"cond_shown":"equaldotsize","ratio_trial":500,"smaller_num":"1","larger_num":"2","correct_side":2,"subjID":"JUANMANUELMERCHANRODRIGEZ27","gender":"0","age":"12","school":"6"},{"start_time":1551900790587,"click_time":1551900793385,"finger_time":1551900793225,"fix_duration":1019.3331291640184,"trial":62,"RT":2638,"MT":160,"sideResp":2,"stimulus":"img/250/randomdotsizeEA/L/5_Ratio_250_L_24_R_6.png","xmouse":[637,637,637,637,637,637,637,637,637,637,637,637,637,637,637,637,637,637,637,637,637,637,637,637,637,637,637,637,637,637,637,637,637,637,637,637,637,637,637,637,637,637,637,637,637,637,637,637,637,637,637,637,637,637,637,637,637,637,637,637,637,637,637,637,637,637,637,637,637,637,637,637,637,637,637,637,637,637,637,637,637,637,637,637,637,637,637,637,637,637,637,637,637,637,637,637,637,637,637,637,637,637,637,637,637,637,637,637,637,637,637,637,637,637,637,637,637,637,637,637,637,637,637,637,637,637,637,637,637,637,638,647,686,716,751,777,802,826,830,834,841],"ymouse":[521,521,521,521,521,521,521,521,521,521,521,521,521,521,521,521,521,521,521,521,521,521,521,521,521,521,521,521,521,521,521,521,521,521,521,521,521,521,521,521,521,521,521,521,521,521,521,521,521,521,521,521,521,521,521,521,521,521,521,521,521,521,521,521,521,521,521,521,521,521,521,521,521,521,521,521,521,521,521,521,521,521,521,521,521,521,521,521,521,521,521,521,521,521,521,521,521,521,521,521,521,521,521,521,521,521,521,521,521,521,521,521,521,521,521,521,521,521,521,521,521,521,521,521,521,521,521,521,521,521,519,502,436,386,322,260,206,140,124,108,88],"timestamp_mouse":[1,18,38,58,77,99,118,138,158,178,199,218,239,258,278,298,318,338,358,377,398,418,438,458,478,499,517,538,558,579,599,619,638,658,679,698,719,739,758,779,799,818,837,858,877,898,919,938,958,978,997,1019,1038,1058,1079,1099,1117,1139,1158,1178,1198,1218,1238,1257,1279,1299,1318,1337,1358,1378,1398,1419,1439,1458,1479,1497,1519,1538,1558,1578,1598,1618,1638,1658,1679,1698,1718,1739,1758,1779,1798,1817,1839,1858,1878,1899,1919,1938,1958,1978,1998,2018,2038,2057,2078,2097,2119,2138,2158,2178,2198,2217,2239,2258,2278,2298,2318,2339,2357,2379,2399,2417,2439,2458,2478,2498,2518,2538,2558,2578,2599,2618,2638,2658,2678,2699,2719,2738,2758,2778,2798],"xSR":583.2000122070312,"ySR":459.16001586914064,"xT1":329.9200073242187,"yT1":0,"xT2":836.4800170898437,"yT2":0,"toosoon":0,"cond_shown":"randomdotsizeEA","ratio_trial":250,"smaller_num":"6","larger_num":"24","correct_side":1,"subjID":"JUANMANUELMERCHANRODRIGEZ27","gender":"0","age":"12","school":"6"},{"start_time":1551900795344,"click_time":1551900796126,"finger_time":1551900796045,"fix_duration":1097.27576687611,"trial":63,"RT":701,"MT":81,"sideResp":1,"stimulus":"img/250/equaldotanddens/L/5_Ratio_250_L_24_R_6.png","xmouse":[608,608,608,608,608,608,608,609,609,609,609,609,609,609,609,609,609,609,609,609,609,609,609,609,609,609,609,609,609,609,609,609,609,609,602,550,516,493,466,397],"ymouse":[487,487,487,487,487,487,486,485,485,485,485,485,485,485,485,485,485,485,485,485,485,485,485,485,485,485,485,485,485,485,485,485,485,482,465,375,316,261,195,77],"timestamp_mouse":[4,27,42,61,81,102,122,141,161,181,200,221,241,261,281,301,322,342,360,382,401,421,441,461,481,501,521,542,562,582,601,622,641,661,681,701,721,741,761,782],"xSR":583.2000122070312,"ySR":459.16001586914064,"xT1":329.9200073242187,"yT1":0,"xT2":836.4800170898437,"yT2":0,"toosoon":0,"cond_shown":"equaldotanddens","ratio_trial":250,"smaller_num":"6","larger_num":"24","correct_side":1,"subjID":"JUANMANUELMERCHANRODRIGEZ27","gender":"0","age":"12","school":"6"},{"start_time":1551900834822,"click_time":1551900848886,"finger_time":1551900848224,"fix_duration":654.981685095562,"trial":64,"RT":13402,"MT":662,"sideResp":1,"stimulus":"img/500/equaldotsize/L/10_Ratio_500_L_4_R_2.png","xmouse":[609,609,609,609,609,609,609,609,609,609,609,609,609,609,609,609,609,609,609,609,609,609,609,609,609,609,609,609,609,609,609,609,609,609,609,609,609,609,609,609,609,609,609,609,609,609,609,609,609,609,609,609,609,609,609,609,609,609,609,609,609,609,609,609,609,609,609,609,609,609,609,609,609,609,609,609,609,609,609,609,609,609,609,609,609,609,609,609,609,609,609,609,609,609,609,609,609,609,609,609,609,609,609,609,609,609,609,609,609,609,609,609,609,609,609,609,609,609,609,609,609,609,609,609,609,609,609,609,609,609,609,609,609,609,609,609,609,609,609,609,609,609,609,609,609,609,609,609,609,609,609,609,609,609,609,609,609,609,609,609,609,609,609,609,609,609,609,609,609,609,609,609,609,609,609,609,609,609,609,609,609,609,609,609,609,609,609,609,609,609,609,609,609,609,609,609,609,609,609,609,609,609,609,609,609,609,609,609,609,609,609,609,609,609,609,609,609,609,609,609,609,609,609,609,609,609,609,609,609,609,609,609,609,609,609,609,609,609,609,609,609,609,609,609,609,609,609,609,609,609,609,609,609,609,609,609,609,609,609,609,609,609,609,609,609,609,609,609,609,609,609,609,609,609,609,609,609,609,609,609,609,609,609,609,609,609,609,609,609,609,609,609,609,609,609,609,609,609,609,609,609,609,609,609,609,609,609,609,609,609,609,609,609,609,609,609,609,609,609,609,609,609,609,609,609,609,609,609,609,609,609,609,609,609,609,609,609,609,609,609,609,609,609,609,609,609,609,609,609,609,609,609,609,609,609,609,609,609,609,609,609,609,609,609,609,609,609,609,609,609,609,609,609,609,609,609,609,609,609,609,609,609,609,609,609,609,609,609,609,609,609,609,609,609,609,609,609,609,609,609,609,609,609,609,609,609,609,609,609,609,609,609,609,609,609,609,609,609,609,609,609,609,609,609,609,609,609,609,609,609,609,609,609,609,609,609,609,609,609,609,609,609,609,609,609,609,609,609,609,609,609,609,609,609,609,609,609,609,609,609,609,609,609,609,609,609,609,609,609,609,609,609,609,609,609,609,609,609,609,609,609,609,609,609,609,609,609,609,609,609,609,609,609,609,609,609,609,609,609,609,609,609,609,609,609,609,609,609,609,609,609,609,609,609,609,609,609,609,609,609,609,609,609,609,609,609,609,609,609,609,609,609,609,609,609,609,609,609,609,609,609,609,609,609,609,609,609,609,609,609,609,609,609,609,609,609,609,609,609,609,609,609,609,609,609,609,609,609,609,609,609,609,609,609,609,609,609,609,609,609,609,609,609,609,609,609,609,609,609,609,609,609,609,609,609,609,609,609,609,609,609,609,609,609,609,609,609,609,609,609,609,609,609,609,609,609,609,609,609,609,609,609,609,609,609,609,609,609,609,609,609,609,609,609,609,609,609,609,609,609,609,609,609,609,609,609,609,609,609,609,609,609,609,609,609,609,609,609,609,609,609,609,609,609,609,609,609,609,609,604,590,531,516,508,508,508,524,567,598,598,596,596,596,596,596,592,586,577,559,544,520,511,497,485,473,462,446,442,438,435,432,432,431,428],"ymouse":[501,501,501,501,501,501,501,501,501,501,501,501,501,501,501,501,501,501,501,501,501,501,501,501,501,501,501,501,501,501,501,501,501,501,501,501,501,501,501,501,501,501,501,501,501,501,501,501,501,501,501,501,501,501,501,501,501,501,501,501,501,501,501,501,501,501,501,501,501,501,501,501,501,501,501,501,501,501,501,501,501,501,501,501,501,501,501,501,501,501,501,501,501,501,501,501,501,501,501,501,501,501,501,501,501,501,501,501,501,501,501,501,501,501,501,501,501,501,501,501,501,501,501,501,501,501,501,501,501,501,501,501,501,501,501,501,501,501,501,501,501,501,501,501,501,501,501,501,501,501,501,501,501,501,501,501,501,501,501,501,501,501,501,501,501,501,501,501,501,501,501,501,501,501,501,501,501,501,501,501,501,501,501,501,501,501,501,501,501,501,501,501,501,501,501,501,501,501,501,501,501,501,501,501,501,501,501,501,501,501,501,501,501,501,501,501,501,501,501,501,501,501,501,501,501,501,501,501,501,501,501,501,501,501,501,501,501,501,501,501,501,501,501,501,501,501,501,501,501,501,501,501,501,501,501,501,501,501,501,501,501,501,501,501,501,501,501,501,501,501,501,501,501,501,501,501,501,501,501,501,501,501,501,501,501,501,501,501,501,501,501,501,501,501,501,501,501,501,501,501,501,501,501,501,501,501,501,501,501,501,501,501,501,501,501,501,501,501,501,501,501,501,501,501,501,501,501,501,501,501,501,501,501,501,501,501,501,501,501,501,501,501,501,501,501,501,501,501,501,501,501,501,501,501,501,501,501,501,501,501,501,501,501,501,501,501,501,501,501,501,501,501,501,501,501,501,501,501,501,501,501,501,501,501,501,501,501,501,501,501,501,501,501,501,501,501,501,501,501,501,501,501,501,501,501,501,501,501,501,501,501,501,501,501,501,501,501,501,501,501,501,501,501,501,501,501,501,501,501,501,501,501,501,501,501,501,501,501,501,501,501,501,501,501,501,501,501,501,501,501,501,501,501,501,501,501,501,501,501,501,501,501,501,501,501,501,501,501,501,501,501,501,501,501,501,501,501,501,501,501,501,501,501,501,501,501,501,501,501,501,501,501,501,501,501,501,501,501,501,501,501,501,501,501,501,501,501,501,501,501,501,501,501,501,501,501,501,501,501,501,501,501,501,501,501,501,501,501,501,501,501,501,501,501,501,501,501,501,501,501,501,501,501,501,501,501,501,501,501,501,501,501,501,501,501,501,501,501,501,501,501,501,501,501,501,501,501,501,501,501,501,501,501,501,501,501,501,501,501,501,501,501,501,501,501,501,501,501,501,501,501,501,501,501,501,501,501,501,501,501,501,501,501,501,501,501,501,501,501,501,501,501,501,501,501,501,501,501,501,501,501,501,501,501,501,501,501,501,501,501,501,501,501,501,501,501,501,501,501,501,501,501,501,501,501,501,501,501,501,501,501,501,501,501,501,501,501,501,501,501,501,501,501,501,501,501,501,501,501,482,374,123,4,0,0,0,0,0,0,0,0