[{"start_time":1551899779136,"click_time":1551899783772,"finger_time":1551899779170,"fix_duration":819.2040946394712,"trial":0,"RT":34,"MT":4602,"sideResp":1,"stimulus":[],"xmouse":[792,792,792,792,792,792,792,792,792,792,792,792,792,792,792,792,792,792,792,792,792,792,792,792,792,792,792,792,792,792,792,792,792,792,792,792,792,792,792,792,792,792,792,792,792,792,792,792,792,792,792,792,792,792,792,792,792,792,792,792,792,792,792,792,792,792,792,792,792,792,792,792,792,792,792,792,792,792,792,792,792,792,792,792,792,792,792,792,792,792,792,792,792,792,792,792,789,788,787,787,787,787,787,787,787,787,787,787,788,788,788,787,787,786,786,786,785,785,785,785,785,785,785,785,785,785,785,785,785,785,785,786,787,788,788,788,788,788,788,788,788,789,789,789,789,789,789,789,789,789,789,789,789,789,789,789,789,789,789,789,789,789,789,789,789,789,789,789,789,789,789,789,789,789,789,789,789,789,789,789,789,789,789,789,789,789,789,789,789,789,789,789,789,789,789,789,786,779,768,755,751,751,749,736,717,707,696,683,669,625,605,583,570,564,563,563,563,563,563,563,562,562,562,562,562,562,561,559,551,530,520],"ymouse":[559,559,559,559,559,559,559,559,559,559,559,559,559,559,559,559,559,559,559,559,559,559,559,559,559,559,559,559,559,559,559,559,559,559,559,559,559,559,559,559,559,559,559,559,559,559,559,559,559,559,559,559,559,559,559,559,559,559,559,559,559,559,559,559,559,559,559,559,559,559,559,559,559,559,559,559,559,559,559,559,559,559,559,559,559,559,559,559,559,559,559,559,559,559,559,559,562,562,563,563,563,563,563,563,563,563,563,563,565,573,576,578,581,584,589,591,592,592,592,592,592,592,592,592,592,592,592,592,592,592,593,593,593,593,593,593,593,593,593,593,593,591,591,591,591,591,591,591,591,591,591,591,591,591,591,591,591,591,591,591,591,591,591,591,591,591,591,591,591,591,591,591,591,591,591,591,591,591,591,591,591,591,591,591,591,591,591,591,591,591,591,591,591,591,591,591,589,588,586,582,581,580,579,557,507,477,436,392,345,236,197,150,125,112,110,110,110,110,110,110,109,109,109,109,109,109,108,105,100,86,79],"timestamp_mouse":[34,54,76,94,115,134,154,174,194,214,234,255,276,295,315,335,354,374,394,414,434,454,476,494,514,536,554,574,596,615,634,655,674,695,715,734,754,775,794,814,835,854,875,894,915,935,954,975,995,1015,1035,1054,1074,1095,1114,1135,1154,1176,1194,1214,1235,1254,1275,1295,1315,1335,1354,1375,1396,1414,1434,1454,1475,1496,1515,1535,1554,1575,1595,1614,1635,1654,1674,1694,1716,1736,1754,1775,1794,1816,1835,1855,1874,1894,1915,1936,1955,1975,1994,2014,2035,2054,2075,2095,2114,2134,2155,2174,2195,2215,2235,2255,2274,2294,2314,2335,2354,2375,2394,2414,2435,2454,2475,2494,2514,2534,2554,2575,2594,2615,2634,2655,2676,2695,2714,2734,2755,2775,2795,2816,2834,2855,2876,2894,2914,2936,2955,2975,2996,3014,3036,3054,3075,3095,3114,3134,3154,3174,3194,3215,3234,3254,3274,3294,3314,3334,3356,3374,3394,3416,3435,3456,3474,3494,3516,3534,3555,3575,3595,3614,3635,3655,3675,3695,3715,3736,3755,3775,3795,3815,3836,3854,3875,3895,3914,3934,3955,3975,3994,4015,4035,4055,4075,4095,4114,4135,4154,4175,4194,4214,4235,4255,4274,4294,4314,4335,4354,4375,4395,4414,4436,4454,4474,4495,4514,4534,4555,4574,4596,4614,4635],"xSR":741.5,"ySR":501.8,"xT1":424.9,"yT1":0,"xT2":1058.1,"yT2":0,"toosoon":0,"cond_shown":"Incongruent","ratio_trial":200,"L_num":7,"L_den":15,"R_num":4,"R_den":6,"correct_side":2,"subjID":"JuAnMaNuElMeRcHaNrOdRiGuEZ27Xd","gender":"0","age":"12","school":"6","test":{"fix_dur":[250,1500],"timestim":1000,"targets_dim":[100,100],"targets_relative_coord":[0.3,0.7],"size_stim":[880,420],"start_dim":[100,100],"size_start":[300,300],"size_fix":60,"samplingrate":20,"img_types":["Congruent","Incongruent"],"ratios":[100,200,300],"rep_conds":19,"nTrials":120,"trials_to_rest":500,"Trials_order":[75,74,111,2,98,54,43,88,119,13,36,83,79,102,10,50,60,69,20,65,93,99,67,70,81,53,25,16,29,21,112,63,5,17,9,39,49,78,45,3,48,19,55,85,80,46,47,115,109,1,24,62,28,100,113,33,52,57,35,116,96,73,82,90,30,84,107,41,8,103,89,22,26,37,38,86,110,12,104,95,118,101,14,106,42,31,91,108,7,71,58,97,114,40,68,94,44,15,105,117,4,72,18,66,64,51,34,59,56,27,6,76,0,77,23,92,87,32,11,61],"cond_shown":["Incongruent","Congruent","Incongruent","Congruent","Congruent","Congruent","Incongruent","Congruent","Incongruent","Incongruent","Congruent","Incongruent","Incongruent","Congruent","Congruent","Congruent","Congruent","Incongruent","Congruent","Incongruent","Incongruent","Incongruent","Incongruent","Congruent","Incongruent","Incongruent","Incongruent","Congruent","Incongruent","Incongruent","Congruent","Incongruent","Incongruent","Incongruent","Incongruent","Incongruent","Incongruent","Congruent","Incongruent","Incongruent","Congruent","Incongruent","Incongruent","Incongruent","Congruent","Congruent","Incongruent","Incongruent","Incongruent","Incongruent","Congruent","Congruent","Congruent","Congruent","Incongruent","Incongruent","Congruent","Incongruent","Incongruent","Congruent","Congruent","Incongruent","Congruent","Congruent","Congruent","Congruent","Incongruent","Incongruent","Congruent","Incongruent","Incongruent","Congruent","Congruent","Incongruent","Congruent","Congruent","Congruent","Congruent","Congruent","Incongruent","Congruent","Incongruent","Congruent","Congruent","Congruent","Incongruent","Incongruent","Congruent","Incongruent","Incongruent","Congruent","Incongruent","Congruent","Congruent","Congruent","Congruent","Congruent","Incongruent","Incongruent","Incongruent","Congruent","Congruent","Congruent","Congruent","Congruent","Incongruent","Congruent","Incongruent","Congruent","Incongruent","Congruent","Congruent","Congruent","Incongruent","Incongruent","Congruent","Incongruent","Congruent","Incongruent","Incongruent"],"ratio_trial":[200,200,200,200,200,100,100,300,300,100,100,300,100,100,300,200,100,200,200,300,200,200,100,300,200,300,100,300,300,200,300,200,300,300,200,200,100,100,200,200,100,100,100,100,200,300,300,100,100,100,100,200,300,300,300,200,300,200,300,200,100,100,300,100,100,100,300,300,200,100,300,300,200,100,200,200,200,100,200,300,300,300,200,300,100,100,100,100,100,300,300,100,100,300,200,300,200,200,200,200,300,100,100,100,300,200,300,300,200,200,100,300,100,300,300,200,200,200,300,100],"left_num":[7,9,3,3,14,2,6,2,13,6,3,4,10,11,20,1,15,3,14,4,7,7,9,4,6,4,12,1,4,4,1,7,4,8,4,7,9,4,9,3,3,13,9,6,16,11,13,3,9,10,10,3,3,4,4,7,20,6,4,16,3,10,9,15,2,4,7,4,8,13,1,11,16,10,3,7,7,3,5,1,1,4,21,7,3,8,9,12,12,4,18,9,3,4,12,11,6,1,7,7,1,6,2,8,18,9,5,4,11,7,9,4,6,13,2,15,4,3,13,10],"right_num":[4,13,1,11,6,6,11,10,12,7,2,6,8,6,13,21,13,11,6,2,4,6,6,13,3,2,9,8,8,14,8,8,2,9,14,12,20,6,8,11,4,12,6,13,12,1,12,4,6,8,3,14,2,13,8,12,9,3,2,9,2,8,3,13,11,6,8,2,3,12,2,2,12,9,9,2,18,4,14,2,6,2,2,20,2,6,6,13,2,8,9,6,4,1,6,4,3,3,4,6,7,5,11,2,9,8,6,2,3,12,8,13,15,12,6,4,14,7,12,8],"left_den":[15,30,10,10,28,5,10,20,26,10,6,5,25,22,25,2,25,4,28,20,15,15,18,20,20,20,24,30,5,6,30,10,20,10,6,10,10,8,15,4,20,26,18,10,20,22,26,6,18,25,25,10,6,20,5,10,25,20,20,30,6,25,10,25,5,8,10,20,15,26,2,22,20,25,12,21,15,20,10,2,5,20,30,14,6,16,18,30,30,5,20,18,20,10,15,22,15,2,15,15,20,20,5,16,20,15,25,20,22,10,15,20,12,26,4,25,6,10,26,25],"right_den":[6,26,2,22,20,12,22,25,15,14,5,12,16,15,26,30,26,20,20,4,6,9,10,26,6,4,15,24,16,30,24,16,4,18,30,24,25,10,10,20,16,20,10,26,20,5,15,10,10,16,10,28,10,26,16,24,18,6,4,27,5,16,5,26,22,10,20,4,9,20,10,10,20,18,20,15,27,16,20,10,12,4,4,25,5,10,10,26,4,16,15,10,16,10,10,20,15,10,6,9,20,25,22,5,15,10,12,4,10,24,16,26,25,15,30,10,30,14,15,16],"correct_side":[2,2,2,2,1,2,1,2,2,1,1,1,2,1,1,2,1,1,1,2,2,2,2,2,2,2,2,2,1,1,2,1,2,1,1,1,1,2,2,1,2,2,2,1,1,1,2,1,2,2,1,2,1,2,1,1,1,2,2,1,1,2,1,1,2,2,1,2,1,2,1,1,1,2,2,1,2,2,2,1,2,2,1,2,1,2,2,2,2,1,1,2,2,1,1,1,1,1,2,2,2,1,2,1,1,2,2,2,1,1,1,2,2,2,1,1,1,2,2,2],"img_shown":["img2/200/Incongruent/R/I_Dist_200_LN_7_LD_15_RN_4_RD_6_1.png","img2/200/Congruent/R/C_Dist_200_LN_9_LD_30_RN_13_RD_26_1.png","img2/200/Incongruent/R/I_Dist_200_LN_3_LD_10_RN_1_RD_2_1.png","img2/200/Congruent/R/C_Dist_200_LN_3_LD_10_RN_11_RD_22_1.png","img2/200/Congruent/L/C_Dist_200_LN_14_LD_28_RN_6_RD_20_0.png","img2/100/Congruent/R/C_Dist_100_LN_2_LD_5_RN_6_RD_12_1.png","img2/100/Incongruent/L/I_Dist_100_LN_6_LD_10_RN_11_RD_22_0.png","img2/300/Congruent/R/C_Dist_300_LN_2_LD_20_RN_10_RD_25_1.png","img2/300/Incongruent/R/I_Dist_300_LN_13_LD_26_RN_12_RD_15_1.png","img2/100/Incongruent/L/I_Dist_100_LN_6_LD_10_RN_7_RD_14_0.png","img2/100/Congruent/L/C_Dist_100_LN_3_LD_6_RN_2_RD_5_0.png","img2/300/Incongruent/L/I_Dist_300_LN_4_LD_5_RN_6_RD_12_0.png","img2/100/Incongruent/R/I_Dist_100_LN_10_LD_25_RN_8_RD_16_1.png","img2/100/Congruent/L/C_Dist_100_LN_11_LD_22_RN_6_RD_15_0.png","img2/300/Congruent/L/C_Dist_300_LN_20_LD_25_RN_13_RD_26_0.png","img2/200/Congruent/R/C_Dist_200_LN_1_LD_2_RN_21_RD_30_1.png","img2/100/Congruent/L/C_Dist_100_LN_15_LD_25_RN_13_RD_26_0.png","img2/200/Incongruent/L/I_Dist_200_LN_3_LD_4_RN_11_RD_20_0.png","img2/200/Congruent/L/C_Dist_200_LN_14_LD_28_RN_6_RD_20_0.png","img2/300/Incongruent/R/I_Dist_300_LN_4_LD_20_RN_2_RD_4_1.png","img2/200/Incongruent/R/I_Dist_200_LN_7_LD_15_RN_4_RD_6_1.png","img2/200/Incongruent/R/I_Dist_200_LN_7_LD_15_RN_6_RD_9_1.png","img2/100/Incongruent/R/I_Dist_100_LN_9_LD_18_RN_6_RD_10_1.png","img2/300/Congruent/R/C_Dist_300_LN_4_LD_20_RN_13_RD_26_1.png","img2/200/Incongruent/R/I_Dist_200_LN_6_LD_20_RN_3_RD_6_1.png","img2/300/Incongruent/R/I_Dist_300_LN_4_LD_20_RN_2_RD_4_1.png","img2/100/Incongruent/R/I_Dist_100_LN_12_LD_24_RN_9_RD_15_1.png","img2/300/Congruent/R/C_Dist_300_LN_1_LD_30_RN_8_RD_24_1.png","img2/300/Incongruent/L/I_Dist_300_LN_4_LD_5_RN_8_RD_16_0.png","img2/200/Incongruent/L/I_Dist_200_LN_4_LD_6_RN_14_RD_30_0.png","img2/300/Congruent/R/C_Dist_300_LN_1_LD_30_RN_8_RD_24_1.png","img2/200/Incongruent/L/I_Dist_200_LN_7_LD_10_RN_8_RD_16_0.png","img2/300/Incongruent/R/I_Dist_300_LN_4_LD_20_RN_2_RD_4_1.png","img2/300/Incongruent/L/I_Dist_300_LN_8_LD_10_RN_9_RD_18_0.png","img2/200/Incongruent/L/I_Dist_200_LN_4_LD_6_RN_14_RD_30_0.png","img2/200/Incongruent/L/I_Dist_200_LN_7_LD_10_RN_12_RD_24_0.png","img2/100/Incongruent/L/I_Dist_100_LN_9_LD_10_RN_20_RD_25_0.png","img2/100/Congruent/R/C_Dist_100_LN_4_LD_8_RN_6_RD_10_1.png","img2/200/Incongruent/R/I_Dist_200_LN_9_LD_15_RN_8_RD_10_1.png","img2/200/Incongruent/L/I_Dist_200_LN_3_LD_4_RN_11_RD_20_0.png","img2/100/Congruent/R/C_Dist_100_LN_3_LD_20_RN_4_RD_16_1.png","img2/100/Incongruent/R/I_Dist_100_LN_13_LD_26_RN_12_RD_20_1.png","img2/100/Incongruent/R/I_Dist_100_LN_9_LD_18_RN_6_RD_10_1.png","img2/100/Incongruent/L/I_Dist_100_LN_6_LD_10_RN_13_RD_26_0.png","img2/200/Congruent/L/C_Dist_200_LN_16_LD_20_RN_12_RD_20_0.png","img2/300/Congruent/L/C_Dist_300_LN_11_LD_22_RN_1_RD_5_0.png","img2/300/Incongruent/R/I_Dist_300_LN_13_LD_26_RN_12_RD_15_1.png","img2/100/Incongruent/L/I_Dist_100_LN_3_LD_6_RN_4_RD_10_0.png","img2/100/Incongruent/R/I_Dist_100_LN_9_LD_18_RN_6_RD_10_1.png","img2/100/Incongruent/R/I_Dist_100_LN_10_LD_25_RN_8_RD_16_1.png","img2/100/Congruent/L/C_Dist_100_LN_10_LD_25_RN_3_RD_10_0.png","img2/200/Congruent/R/C_Dist_200_LN_3_LD_10_RN_14_RD_28_1.png","img2/300/Congruent/L/C_Dist_300_LN_3_LD_6_RN_2_RD_10_0.png","img2/300/Congruent/R/C_Dist_300_LN_4_LD_20_RN_13_RD_26_1.png","img2/300/Incongruent/L/I_Dist_300_LN_4_LD_5_RN_8_RD_16_0.png","img2/200/Incongruent/L/I_Dist_200_LN_7_LD_10_RN_12_RD_24_0.png","img2/300/Congruent/L/C_Dist_300_LN_20_LD_25_RN_9_RD_18_0.png","img2/200/Incongruent/R/I_Dist_200_LN_6_LD_20_RN_3_RD_6_1.png","img2/300/Incongruent/R/I_Dist_300_LN_4_LD_20_RN_2_RD_4_1.png","img2/200/Congruent/L/C_Dist_200_LN_16_LD_30_RN_9_RD_27_0.png","img2/100/Congruent/L/C_Dist_100_LN_3_LD_6_RN_2_RD_5_0.png","img2/100/Incongruent/R/I_Dist_100_LN_10_LD_25_RN_8_RD_16_1.png","img2/300/Congruent/L/C_Dist_300_LN_9_LD_10_RN_3_RD_5_0.png","img2/100/Congruent/L/C_Dist_100_LN_15_LD_25_RN_13_RD_26_0.png","img2/100/Congruent/R/C_Dist_100_LN_2_LD_5_RN_11_RD_22_1.png","img2/100/Congruent/R/C_Dist_100_LN_4_LD_8_RN_6_RD_10_1.png","img2/300/Incongruent/L/I_Dist_300_LN_7_LD_10_RN_8_RD_20_0.png","img2/300/Incongruent/R/I_Dist_300_LN_4_LD_20_RN_2_RD_4_1.png","img2/200/Congruent/L/C_Dist_200_LN_8_LD_15_RN_3_RD_9_0.png","img2/100/Incongruent/R/I_Dist_100_LN_13_LD_26_RN_12_RD_20_1.png","img2/300/Incongruent/L/I_Dist_300_LN_1_LD_2_RN_2_RD_10_0.png","img2/300/Congruent/L/C_Dist_300_LN_11_LD_22_RN_2_RD_10_0.png","img2/200/Congruent/L/C_Dist_200_LN_16_LD_20_RN_12_RD_20_0.png","img2/100/Incongruent/R/I_Dist_100_LN_10_LD_25_RN_9_RD_18_1.png","img2/200/Congruent/R/C_Dist_200_LN_3_LD_12_RN_9_RD_20_1.png","img2/200/Congruent/L/C_Dist_200_LN_7_LD_21_RN_2_RD_15_0.png","img2/200/Congruent/R/C_Dist_200_LN_7_LD_15_RN_18_RD_27_1.png","img2/100/Congruent/R/C_Dist_100_LN_3_LD_20_RN_4_RD_16_1.png","img2/200/Congruent/R/C_Dist_200_LN_5_LD_10_RN_14_RD_20_1.png","img2/300/Incongruent/L/I_Dist_300_LN_1_LD_2_RN_2_RD_10_0.png","img2/300/Congruent/R/C_Dist_300_LN_1_LD_5_RN_6_RD_12_1.png","img2/300/Incongruent/R/I_Dist_300_LN_4_LD_20_RN_2_RD_4_1.png","img2/200/Congruent/L/C_Dist_200_LN_21_LD_30_RN_2_RD_4_0.png","img2/300/Congruent/R/C_Dist_300_LN_7_LD_14_RN_20_RD_25_1.png","img2/100/Congruent/L/C_Dist_100_LN_3_LD_6_RN_2_RD_5_0.png","img2/100/Incongruent/R/I_Dist_100_LN_8_LD_16_RN_6_RD_10_1.png","img2/100/Incongruent/R/I_Dist_100_LN_9_LD_18_RN_6_RD_10_1.png","img2/100/Congruent/R/C_Dist_100_LN_12_LD_30_RN_13_RD_26_1.png","img2/100/Incongruent/R/I_Dist_100_LN_12_LD_30_RN_2_RD_4_1.png","img2/300/Incongruent/L/I_Dist_300_LN_4_LD_5_RN_8_RD_16_0.png","img2/300/Congruent/L/C_Dist_300_LN_18_LD_20_RN_9_RD_15_0.png","img2/100/Incongruent/R/I_Dist_100_LN_9_LD_18_RN_6_RD_10_1.png","img2/100/Congruent/R/C_Dist_100_LN_3_LD_20_RN_4_RD_16_1.png","img2/300/Congruent/L/C_Dist_300_LN_4_LD_10_RN_1_RD_10_0.png","img2/200/Congruent/L/C_Dist_200_LN_12_LD_15_RN_6_RD_10_0.png","img2/300/Congruent/L/C_Dist_300_LN_11_LD_22_RN_4_RD_20_0.png","img2/200/Congruent/L/C_Dist_200_LN_6_LD_15_RN_3_RD_15_0.png","img2/200/Incongruent/L/I_Dist_200_LN_1_LD_2_RN_3_RD_10_0.png","img2/200/Incongruent/R/I_Dist_200_LN_7_LD_15_RN_4_RD_6_1.png","img2/200/Incongruent/R/I_Dist_200_LN_7_LD_15_RN_6_RD_9_1.png","img2/300/Congruent/R/C_Dist_300_LN_1_LD_20_RN_7_RD_20_1.png","img2/100/Congruent/L/C_Dist_100_LN_6_LD_20_RN_5_RD_25_0.png","img2/100/Congruent/R/C_Dist_100_LN_2_LD_5_RN_11_RD_22_1.png","img2/100/Congruent/L/C_Dist_100_LN_8_LD_16_RN_2_RD_5_0.png","img2/300/Congruent/L/C_Dist_300_LN_18_LD_20_RN_9_RD_15_0.png","img2/200/Incongruent/R/I_Dist_200_LN_9_LD_15_RN_8_RD_10_1.png","img2/300/Congruent/R/C_Dist_300_LN_5_LD_25_RN_6_RD_12_1.png","img2/300/Incongruent/R/I_Dist_300_LN_4_LD_20_RN_2_RD_4_1.png","img2/200/Congruent/L/C_Dist_200_LN_11_LD_22_RN_3_RD_10_0.png","img2/200/Incongruent/L/I_Dist_200_LN_7_LD_10_RN_12_RD_24_0.png","img2/100/Congruent/L/C_Dist_100_LN_9_LD_15_RN_8_RD_16_0.png","img2/300/Congruent/R/C_Dist_300_LN_4_LD_20_RN_13_RD_26_1.png","img2/100/Congruent/R/C_Dist_100_LN_6_LD_12_RN_15_RD_25_1.png","img2/300/Incongruent/R/I_Dist_300_LN_13_LD_26_RN_12_RD_15_1.png","img2/300/Incongruent/L/I_Dist_300_LN_2_LD_4_RN_6_RD_30_0.png","img2/200/Congruent/L/C_Dist_200_LN_15_LD_25_RN_4_RD_10_0.png","img2/200/Incongruent/L/I_Dist_200_LN_4_LD_6_RN_14_RD_30_0.png","img2/200/Congruent/R/C_Dist_200_LN_3_LD_10_RN_7_RD_14_1.png","img2/300/Incongruent/R/I_Dist_300_LN_13_LD_26_RN_12_RD_15_1.png","img2/100/Incongruent/R/I_Dist_100_LN_10_LD_25_RN_8_RD_16_1.png"],"dist100_C":[["C_Dist_100_LN_10_LD_25_RN_3_RD_10_0.png","C_Dist_100_LN_11_LD_22_RN_4_RD_10_0.png","C_Dist_100_LN_11_LD_22_RN_6_RD_15_0.png","C_Dist_100_LN_15_LD_25_RN_13_RD_26_0.png","C_Dist_100_LN_3_LD_6_RN_2_RD_5_0.png","C_Dist_100_LN_6_LD_20_RN_5_RD_25_0.png","C_Dist_100_LN_8_LD_16_RN_2_RD_5_0.png","C_Dist_100_LN_9_LD_15_RN_8_RD_16_0.png"],["C_Dist_100_LN_1_LD_2_RN_18_RD_30_1.png","C_Dist_100_LN_1_LD_2_RN_3_RD_5_1.png","C_Dist_100_LN_12_LD_30_RN_13_RD_26_1.png","C_Dist_100_LN_2_LD_5_RN_11_RD_22_1.png","C_Dist_100_LN_2_LD_5_RN_6_RD_12_1.png","C_Dist_100_LN_3_LD_20_RN_4_RD_16_1.png","C_Dist_100_LN_4_LD_10_RN_15_RD_30_1.png","C_Dist_100_LN_4_LD_8_RN_6_RD_10_1.png","C_Dist_100_LN_6_LD_12_RN_15_RD_25_1.png","C_Dist_100_LN_7_LD_14_RN_15_RD_25_1.png","C_Dist_100_LN_7_LD_14_RN_9_RD_15_1.png"]],"dist100_I":[["I_Dist_100_LN_1_LD_2_RN_8_RD_20_0.png","I_Dist_100_LN_2_LD_4_RN_6_RD_15_0.png","I_Dist_100_LN_2_LD_4_RN_8_RD_20_0.png","I_Dist_100_LN_3_LD_5_RN_11_RD_22_0.png","I_Dist_100_LN_3_LD_5_RN_8_RD_16_0.png","I_Dist_100_LN_3_LD_6_RN_4_RD_10_0.png","I_Dist_100_LN_3_LD_9_RN_7_RD_30_0.png","I_Dist_100_LN_4_LD_8_RN_8_RD_20_0.png","I_Dist_100_LN_6_LD_10_RN_11_RD_22_0.png","I_Dist_100_LN_6_LD_10_RN_13_RD_26_0.png","I_Dist_100_LN_6_LD_10_RN_7_RD_14_0.png","I_Dist_100_LN_9_LD_10_RN_20_RD_25_0.png","I_Dist_100_LN_9_LD_15_RN_13_RD_26_0.png","I_Dist_100_LN_9_LD_15_RN_14_RD_28_0.png"],["I_Dist_100_LN_10_LD_25_RN_8_RD_16_1.png","I_Dist_100_LN_10_LD_25_RN_9_RD_18_1.png","I_Dist_100_LN_11_LD_22_RN_9_RD_15_1.png","I_Dist_100_LN_12_LD_24_RN_9_RD_15_1.png","I_Dist_100_LN_12_LD_30_RN_2_RD_4_1.png","I_Dist_100_LN_13_LD_26_RN_12_RD_20_1.png","I_Dist_100_LN_13_LD_26_RN_6_RD_10_1.png","I_Dist_100_LN_17_LD_30_RN_10_RD_15_1.png","I_Dist_100_LN_6_LD_12_RN_3_RD_5_1.png","I_Dist_100_LN_8_LD_16_RN_6_RD_10_1.png","I_Dist_100_LN_8_LD_20_RN_1_RD_2_1.png","I_Dist_100_LN_9_LD_18_RN_6_RD_10_1.png"]],"dist100_S":[["E_Dist_100_LN_2_LD_12_RN_2_RD_30_0.png","E_Dist_100_LN_6_LD_10_RN_6_RD_12_0.png"],["E_Dist_100_LN_6_LD_12_RN_6_RD_10_1.png"]],"dist200_C":[["C_Dist_200_LN_11_LD_22_RN_3_RD_10_0.png","C_Dist_200_LN_12_LD_15_RN_6_RD_10_0.png","C_Dist_200_LN_12_LD_20_RN_6_RD_15_0.png","C_Dist_200_LN_14_LD_28_RN_6_RD_20_0.png","C_Dist_200_LN_15_LD_25_RN_4_RD_10_0.png","C_Dist_200_LN_16_LD_20_RN_12_RD_20_0.png","C_Dist_200_LN_16_LD_30_RN_9_RD_27_0.png","C_Dist_200_LN_20_LD_25_RN_9_RD_15_0.png","C_Dist_200_LN_21_LD_30_RN_2_RD_4_0.png","C_Dist_200_LN_4_LD_10_RN_3_RD_15_0.png","C_Dist_200_LN_4_LD_8_RN_3_RD_10_0.png","C_Dist_200_LN_6_LD_15_RN_3_RD_15_0.png","C_Dist_200_LN_7_LD_21_RN_2_RD_15_0.png","C_Dist_200_LN_8_LD_15_RN_2_RD_6_0.png","C_Dist_200_LN_8_LD_15_RN_3_RD_9_0.png","C_Dist_200_LN_8_LD_15_RN_7_RD_21_0.png","C_Dist_200_LN_9_LD_20_RN_4_RD_16_0.png"],["C_Dist_200_LN_1_LD_2_RN_21_RD_30_1.png","C_Dist_200_LN_13_LD_26_RN_14_RD_20_1.png","C_Dist_200_LN_3_LD_10_RN_11_RD_22_1.png","C_Dist_200_LN_3_LD_10_RN_14_RD_28_1.png","C_Dist_200_LN_3_LD_10_RN_7_RD_14_1.png","C_Dist_200_LN_3_LD_12_RN_9_RD_20_1.png","C_Dist_200_LN_3_LD_6_RN_14_RD_20_1.png","C_Dist_200_LN_5_LD_10_RN_14_RD_20_1.png","C_Dist_200_LN_6_LD_12_RN_7_RD_10_1.png","C_Dist_200_LN_6_LD_20_RN_11_RD_22_1.png","C_Dist_200_LN_7_LD_15_RN_18_RD_27_1.png","C_Dist_200_LN_9_LD_30_RN_13_RD_26_1.png"]],"dist200_I":[["I_Dist_200_LN_1_LD_2_RN_3_RD_10_0.png","I_Dist_200_LN_1_LD_3_RN_2_RD_15_0.png","I_Dist_200_LN_3_LD_4_RN_11_RD_20_0.png","I_Dist_200_LN_4_LD_5_RN_6_RD_10_0.png","I_Dist_200_LN_4_LD_6_RN_14_RD_30_0.png","I_Dist_200_LN_7_LD_10_RN_12_RD_24_0.png","I_Dist_200_LN_7_LD_10_RN_14_RD_28_0.png","I_Dist_200_LN_7_LD_10_RN_8_RD_16_0.png"],["I_Dist_200_LN_11_LD_20_RN_3_RD_4_1.png","I_Dist_200_LN_14_LD_30_RN_12_RD_18_1.png","I_Dist_200_LN_14_LD_30_RN_6_RD_9_1.png","I_Dist_200_LN_3_LD_10_RN_1_RD_2_1.png","I_Dist_200_LN_4_LD_30_RN_1_RD_3_1.png","I_Dist_200_LN_6_LD_20_RN_3_RD_6_1.png","I_Dist_200_LN_7_LD_15_RN_4_RD_6_1.png","I_Dist_200_LN_7_LD_15_RN_6_RD_9_1.png","I_Dist_200_LN_9_LD_15_RN_8_RD_10_1.png"]],"dist200_S":[["E_Dist_200_LN_3_LD_6_RN_3_RD_10_0.png"],["E_Dist_200_LN_3_LD_10_RN_3_RD_6_1.png"]],"dist300_C":[["C_Dist_300_LN_11_LD_22_RN_1_RD_5_0.png","C_Dist_300_LN_11_LD_22_RN_2_RD_10_0.png","C_Dist_300_LN_11_LD_22_RN_4_RD_20_0.png","C_Dist_300_LN_12_LD_24_RN_2_RD_10_0.png","C_Dist_300_LN_18_LD_20_RN_9_RD_15_0.png","C_Dist_300_LN_20_LD_25_RN_13_RD_26_0.png","C_Dist_300_LN_20_LD_25_RN_14_RD_28_0.png","C_Dist_300_LN_20_LD_25_RN_5_RD_10_0.png","C_Dist_300_LN_20_LD_25_RN_8_RD_16_0.png","C_Dist_300_LN_20_LD_25_RN_9_RD_18_0.png","C_Dist_300_LN_24_LD_30_RN_2_RD_4_0.png","C_Dist_300_LN_24_LD_30_RN_8_RD_16_0.png","C_Dist_300_LN_3_LD_6_RN_2_RD_10_0.png","C_Dist_300_LN_4_LD_10_RN_1_RD_10_0.png","C_Dist_300_LN_4_LD_5_RN_2_RD_4_0.png","C_Dist_300_LN_8_LD_16_RN_1_RD_5_0.png","C_Dist_300_LN_9_LD_10_RN_3_RD_5_0.png"],["C_Dist_300_LN_1_LD_20_RN_7_RD_20_1.png","C_Dist_300_LN_1_LD_3_RN_19_RD_30_1.png","C_Dist_300_LN_1_LD_30_RN_8_RD_24_1.png","C_Dist_300_LN_1_LD_5_RN_11_RD_22_1.png","C_Dist_300_LN_1_LD_5_RN_3_RD_6_1.png","C_Dist_300_LN_1_LD_5_RN_6_RD_12_1.png","C_Dist_300_LN_2_LD_10_RN_12_RD_24_1.png","C_Dist_300_LN_2_LD_20_RN_10_RD_25_1.png","C_Dist_300_LN_3_LD_12_RN_11_RD_20_1.png","C_Dist_300_LN_3_LD_6_RN_4_RD_5_1.png","C_Dist_300_LN_4_LD_20_RN_13_RD_26_1.png","C_Dist_300_LN_5_LD_25_RN_6_RD_12_1.png","C_Dist_300_LN_5_LD_25_RN_7_RD_14_1.png","C_Dist_300_LN_7_LD_14_RN_20_RD_25_1.png","C_Dist_300_LN_8_LD_15_RN_10_RD_12_1.png"]],"dist300_I":[["I_Dist_300_LN_1_LD_2_RN_2_RD_10_0.png","I_Dist_300_LN_1_LD_2_RN_3_RD_15_0.png","I_Dist_300_LN_2_LD_4_RN_6_RD_30_0.png","I_Dist_300_LN_3_LD_6_RN_4_RD_20_0.png","I_Dist_300_LN_4_LD_5_RN_6_RD_12_0.png","I_Dist_300_LN_4_LD_5_RN_8_RD_16_0.png","I_Dist_300_LN_7_LD_10_RN_8_RD_20_0.png","I_Dist_300_LN_8_LD_10_RN_14_RD_28_0.png","I_Dist_300_LN_8_LD_10_RN_9_RD_18_0.png"],["I_Dist_300_LN_13_LD_26_RN_12_RD_15_1.png","I_Dist_300_LN_4_LD_20_RN_2_RD_4_1.png"]],"dist300_S":[["E_Dist_300_LN_9_LD_12_RN_9_RD_20_0.png"],["E_Dist_300_LN_18_LD_30_RN_18_RD_20_1.png","E_Dist_300_LN_3_LD_10_RN_3_RD_5_1.png","E_Dist_300_LN_9_LD_20_RN_9_RD_12_1.png"]],"dist500_C":[["C_Dist_500_LN_10_LD_13_RN_7_RD_26_0.png","C_Dist_500_LN_10_LD_15_RN_4_RD_24_0.png","C_Dist_500_LN_12_LD_16_RN_3_RD_12_0.png","C_Dist_500_LN_12_LD_18_RN_4_RD_24_0.png","C_Dist_500_LN_15_LD_18_RN_5_RD_15_0.png","C_Dist_500_LN_15_LD_20_RN_1_RD_4_0.png","C_Dist_500_LN_18_LD_27_RN_1_RD_6_0.png","C_Dist_500_LN_20_LD_24_RN_1_RD_3_0.png","C_Dist_500_LN_20_LD_24_RN_3_RD_9_0.png","C_Dist_500_LN_20_LD_24_RN_7_RD_21_0.png","C_Dist_500_LN_20_LD_28_RN_3_RD_14_0.png","C_Dist_500_LN_21_LD_28_RN_6_RD_24_0.png","C_Dist_500_LN_22_LD_28_RN_2_RD_7_0.png","C_Dist_500_LN_25_LD_30_RN_9_RD_27_0.png","C_Dist_500_LN_4_LD_6_RN_1_RD_6_0.png","C_Dist_500_LN_5_LD_6_RN_2_RD_6_0.png","C_Dist_500_LN_6_LD_9_RN_1_RD_6_0.png","C_Dist_500_LN_7_LD_10_RN_1_RD_5_0.png","C_Dist_500_LN_8_LD_12_RN_1_RD_6_0.png","C_Dist_500_LN_8_LD_12_RN_4_RD_24_0.png"],["C_Dist_500_LN_1_LD_4_RN_12_RD_16_1.png","C_Dist_500_LN_1_LD_4_RN_9_RD_12_1.png","C_Dist_500_LN_1_LD_9_RN_11_RD_18_1.png","C_Dist_500_LN_10_LD_24_RN_22_RD_24_1.png","C_Dist_500_LN_2_LD_12_RN_10_RD_15_1.png","C_Dist_500_LN_2_LD_12_RN_12_RD_18_1.png","C_Dist_500_LN_2_LD_12_RN_4_RD_6_1.png","C_Dist_500_LN_2_LD_24_RN_7_RD_12_1.png","C_Dist_500_LN_2_LD_5_RN_18_RD_20_1.png","C_Dist_500_LN_2_LD_5_RN_9_RD_10_1.png","C_Dist_500_LN_2_LD_8_RN_12_RD_16_1.png","C_Dist_500_LN_2_LD_8_RN_21_RD_28_1.png","C_Dist_500_LN_3_LD_10_RN_4_RD_5_1.png","C_Dist_500_LN_3_LD_12_RN_15_RD_20_1.png","C_Dist_500_LN_3_LD_30_RN_6_RD_10_1.png","C_Dist_500_LN_3_LD_8_RN_14_RD_16_1.png","C_Dist_500_LN_4_LD_16_RN_15_RD_20_1.png","C_Dist_500_LN_4_LD_24_RN_12_RD_18_1.png","C_Dist_500_LN_5_LD_14_RN_6_RD_7_1.png","C_Dist_500_LN_7_LD_21_RN_20_RD_24_1.png","C_Dist_500_LN_7_LD_28_RN_12_RD_16_1.png","C_Dist_500_LN_7_LD_28_RN_9_RD_12_1.png","C_Dist_500_LN_9_LD_27_RN_20_RD_24_1.png"]],"dist500_I":[["I_Dist_500_LN_2_LD_3_RN_4_RD_24_0.png","I_Dist_500_LN_5_LD_6_RN_6_RD_18_0.png","I_Dist_500_LN_7_LD_8_RN_9_RD_24_0.png"],["I_Dist_500_LN_7_LD_21_RN_5_RD_6_1.png"]],"dist500_S":[["E_Dist_500_LN_6_LD_8_RN_6_RD_24_0.png"],["E_Dist_500_LN_2_LD_12_RN_2_RD_3_1.png","E_Dist_500_LN_6_LD_24_RN_6_RD_8_1.png"]]}},{"start_time":1551899785594,"click_time":1551899787492,"finger_time":1551899787331,"fix_duration":321.5196214265411,"trial":1,"RT":1737,"MT":161,"sideResp":2,"stimulus":[],"xmouse":[760,760,760,760,760,760,760,760,760,760,760,760,760,760,760,760,760,760,760,760,760,760,760,760,760,760,760,760,760,760,760,760,760,760,760,760,760,760,760,760,760,760,760,760,760,761,761,760,760,760,760,760,760,760,760,760,760,760,760,760,760,760,760,760,760,760,760,760,760,760,760,760,760,760,760,760,760,760,760,760,760,760,760,759,764,770,778,828,860,901,963,1007,1049,1057,1060],"ymouse":[628,628,628,628,628,628,628,628,628,628,628,628,628,628,628,628,628,628,628,628,628,628,628,628,628,628,628,628,628,628,628,628,628,628,628,628,628,628,628,628,628,628,628,628,628,628,628,626,626,626,626,626,626,626,626,626,626,626,626,626,626,626,626,626,626,626,626,626,626,626,626,626,626,626,626,626,626,626,626,626,626,626,626,622,606,588,559,446,363,271,152,94,35,19,14],"timestamp_mouse":[17,36,56,78,96,116,136,157,176,196,216,237,256,276,297,316,338,357,377,396,417,437,456,477,497,517,537,557,576,597,616,636,657,676,696,718,736,756,776,797,817,836,858,876,896,917,936,958,976,997,1017,1036,1058,1077,1097,1116,1136,1156,1176,1196,1217,1236,1257,1276,1296,1316,1337,1356,1377,1397,1417,1436,1458,1477,1498,1516,1537,1558,1576,1598,1616,1636,1657,1677,1697,1717,1737,1756,1777,1797,1817,1836,1856,1876,1897],"xSR":741.5,"ySR":573.95,"xT1":424.9,"yT1":0,"xT2":1058.1,"yT2":0,"toosoon":0,"cond_shown":"Congruent","ratio_trial":200,"L_num":9,"L_den":30,"R_num":13,"R_den":26,"correct_side":2,"subjID":"JuAnMaNuElMeRcHaNrOdRiGuEZ27Xd","gender":"0","school":"6","age":"12"},{"start_time":1551899789507,"click_time":1551899791852,"finger_time":1551899791331,"fix_duration":675.4156004189979,"trial":2,"RT":1824,"MT":521,"sideResp":1,"stimulus":[],"xmouse":[754,754,754,754,754,754,754,754,754,754,754,754,754,754,754,754,754,754,754,754,754,754,754,754,754,754,754,754,754,754,754,754,754,754,754,754,754,754,754,754,754,754,754,754,754,754,754,754,754,754,754,754,754,754,754,754,754,754,754,754,754,754,754,754,754,754,754,754,754,754,754,754,754,754,754,754,754,754,754,754,754,754,754,754,754,754,754,754,754,754,754,743,628,556,499,489,471,460,458,457,457,457,457,457,457,457,457,457,457,457,457,457,457,457,457,458,458,458],"ymouse":[661,661,661,661,661,661,661,661,661,661,661,661,661,661,661,661,661,661,661,661,661,661,661,661,661,661,661,661,661,661,661,661,661,661,661,661,661,661,661,661,661,661,661,661,661,661,661,661,661,661,661,661,661,661,661,661,661,661,661,661,661,661,661,661,661,661,661,661,661,661,661,661,661,661,661,661,661,661,661,661,661,661,661,661,661,661,661,661,661,660,648,543,205,38,0,0,0,0,0,0,0,0,0,0,0,0,0,0,0,0,0,0,0,0,0,0,0,1],"timestamp_mouse":[7,24,44,63,83,103,123,143,165,184,204,223,243,264,283,303,323,343,363,383,404,424,443,463,483,505,523,543,563,583,604,624,643,664,684,705,723,743,764,784,803,823,844,863,885,904,923,943,964,984,1003,1023,1044,1064,1083,1103,1123,1143,1164,1184,1205,1224,1243,1263,1283,1304,1323,1344,1363,1383,1403,1425,1443,1463,1484,1504,1523,1544,1564,1584,1605,1624,1643,1665,1683,1704,1725,1745,1763,1783,1804,1824,1843,1863,1883,1903,1924,1943,1963,1983,2005,2024,2044,2064,2084,2103,2123,2145,2164,2185,2203,2224,2243,2263,2283,2303,2323,2345],"xSR":741.5,"ySR":573.95,"xT1":424.9,"yT1":0,"xT2":1058.1,"yT2":0,"toosoon":0,"cond_shown":"Incongruent","ratio_trial":200,"L_num":3,"L_den":10,"R_num":1,"R_den":2,"correct_side":2,"subjID":"JuAnMaNuElMeRcHaNrOdRiGuEZ27Xd","gender":"0","school":"6","age":"12"},{"start_time":1551899793063,"click_time":1551899794730,"finger_time":1551899794450,"fix_duration":250,"trial":3,"RT":1387,"MT":280,"sideResp":2,"stimulus":[],"xmouse":[799,799,799,799,799,799,799,799,799,799,799,799,799,799,799,799,799,799,799,799,799,799,799,799,799,799,799,799,799,799,799,799,799,799,799,799,799,799,799,799,799,799,799,799,799,799,799,799,799,799,799,799,799,799,799,799,799,799,799,799,799,799,799,799,799,799,799,801,806,841,865,900,943,976,1018,1027,1032,1034,1036,1044,1051,1059,1067,1072],"ymouse":[597,597,597,597,597,597,597,597,597,597,597,597,597,597,597,597,597,597,597,597,597,597,597,597,597,597,597,597,597,597,597,597,597,597,597,597,597,597,597,597,597,597,597,597,597,597,597,597,597,597,597,597,597,597,597,597,597,597,597,597,597,597,597,597,597,597,597,595,582,497,436,362,285,227,165,153,146,143,140,128,121,112,103,98],"timestamp_mouse":[7,34,48,67,87,108,127,149,168,187,207,228,248,268,287,308,329,347,367,387,407,428,447,467,487,509,527,547,569,587,608,627,649,667,688,708,727,747,768,787,807,827,848,867,888,907,928,948,967,988,1008,1029,1048,1069,1087,1108,1127,1147,1167,1187,1208,1227,1249,1267,1288,1308,1327,1347,1367,1387,1408,1428,1447,1467,1487,1509,1527,1548,1567,1587,1608,1627,1649,1667],"xSR":741.5,"ySR":573.95,"xT1":424.9,"yT1":0,"xT2":1058.1,"yT2":0,"toosoon":0,"cond_shown":"Congruent","ratio_trial":200,"L_num":3,"L_den":10,"R_num":11,"R_den":22,"correct_side":2,"subjID":"JuAnMaNuElMeRcHaNrOdRiGuEZ27Xd","gender":"0","school":"6","age":"12"},{"start_time":1551899795977,"click_time":1551899797571,"finger_time":1551899796731,"fix_duration":485.2956861363102,"trial":4,"RT":754,"MT":840,"sideResp":1,"stimulus":[],"xmouse":[764,764,764,764,764,764,764,764,764,764,764,764,764,764,764,764,764,764,764,764,764,764,764,764,764,764,764,764,764,764,764,764,764,764,764,764,768,771,778,766,755,723,705,687,684,681,677,671,657,651,645,642,637,629,628,627,625,623,620,618,617,617,615,609,604,602,598,589,562,556,554,549,545,533,529,527,525,525,525,524],"ymouse":[618,618,618,618,618,618,618,618,618,618,618,618,618,618,618,618,618,618,618,618,618,618,618,618,618,618,618,618,618,618,618,618,618,618,618,618,577,546,414,299,259,182,153,127,122,118,112,104,85,77,70,68,63,58,57,56,56,56,56,56,56,56,56,56,57,58,58,58,58,58,58,56,54,52,52,52,52,52,52,52],"timestamp_mouse":[13,36,53,74,93,114,133,153,173,193,213,234,253,273,294,314,335,354,373,395,415,433,454,473,494,514,533,554,574,594,613,634,653,673,693,714,733,754,773,793,814,833,853,873,894,913,935,955,973,994,1014,1033,1054,1073,1094,1113,1133,1153,1173,1193,1214,1233,1254,1273,1293,1314,1334,1354,1373,1395,1414,1433,1454,1473,1494,1513,1535,1553,1574,1594],"xSR":741.5,"ySR":573.95,"xT1":424.9,"yT1":0,"xT2":1058.1,"yT2":0,"toosoon":0,"cond_shown":"Congruent","ratio_trial":200,"L_num":14,"L_den":28,"R_num":6,"R_den":20,"correct_side":1,"subjID":"JuAnMaNuElMeRcHaNrOdRiGuEZ27Xd","gender":"0","school":"6","age":"12"},{"start_time":1551899799676,"click_time":1551899801650,"finger_time":1551899801190,"fix_duration":1043.5820703932334,"trial":5,"RT":1514,"MT":460,"sideResp":2,"stimulus":[],"xmouse":[820,820,820,820,820,820,820,820,820,820,820,820,820,820,820,820,820,820,820,820,820,820,820,820,820,820,820,820,820,820,820,820,820,820,820,820,820,820,820,820,820,820,820,820,820,820,820,820,820,820,820,820,820,820,820,820,820,820,820,820,820,820,820,820,820,820,820,820,820,820,820,820,820,825,833,844,869,886,903,904,904,904,904,905,910,918,946,980,1043,1053,1061,1064,1067,1070,1072,1073,1073,1074,1075],"ymouse":[641,641,641,641,641,641,641,641,641,641,641,641,641,641,641,641,641,641,641,641,641,641,641,641,641,641,641,641,641,641,641,641,641,641,641,641,641,641,641,641,641,641,641,641,641,641,641,641,641,641,641,641,641,641,641,641,641,641,641,641,641,641,641,641,641,641,641,641,641,641,641,641,641,630,611,578,518,484,447,443,443,443,443,442,434,419,370,316,226,197,175,156,142,124,113,107,103,100,94],"timestamp_mouse":[14,37,55,74,94,116,135,155,175,194,214,234,255,275,294,315,334,355,376,394,416,434,454,475,495,515,535,555,574,595,614,636,654,674,695,714,735,756,775,795,815,834,855,875,895,916,935,954,975,995,1014,1034,1055,1076,1094,1114,1134,1155,1174,1194,1214,1234,1254,1275,1295,1315,1334,1355,1375,1395,1415,1435,1454,1475,1494,1514,1535,1555,1574,1595,1614,1635,1655,1675,1694,1714,1735,1754,1775,1794,1814,1835,1855,1875,1894,1914,1935,1956,1974],"xSR":741.5,"ySR":573.95,"xT1":424.9,"yT1":0,"xT2":1058.1,"yT2":0,"toosoon":0,"cond_shown":"Congruent","ratio_trial":100,"L_num":2,"L_den":5,"R_num":6,"R_den":12,"correct_side":2,"subjID":"JuAnMaNuElMeRcHaNrOdRiGuEZ27Xd","gender":"0","school":"6","age":"12"},{"start_time":1551899803836,"click_time":1551899805450,"finger_time":1551899805311,"fix_duration":1062.600076363886,"trial":6,"RT":1475,"MT":139,"sideResp":2,"stimulus":[],"xmouse":[791,791,791,791,791,791,791,791,791,791,791,791,791,791,791,791,791,791,791,791,791,791,791,791,791,791,791,791,791,791,791,791,791,791,791,791,791,791,791,791,791,791,791,791,791,791,791,791,791,791,791,791,791,791,791,791,791,791,791,791,791,791,791,791,791,791,791,791,791,791,791,793,801,812,827,886,920,954,1014,1041,1064],"ymouse":[607,607,607,607,607,607,607,607,607,607,607,607,607,607,607,607,607,607,607,607,607,607,607,607,607,607,607,607,607,607,607,607,607,607,607,607,607,607,607,607,607,607,607,607,607,607,607,607,607,607,607,607,607,607,607,607,607,607,607,607,607,607,607,607,607,607,607,607,607,607,607,602,585,560,513,376,298,224,137,103,76],"timestamp_mouse":[15,35,55,76,94,114,134,154,175,196,214,234,254,274,295,314,334,355,374,394,414,434,456,475,494,515,535,554,575,594,614,635,654,675,695,714,736,754,774,794,814,834,854,874,896,915,934,954,974,995,1014,1034,1055,1075,1094,1114,1135,1154,1174,1194,1214,1234,1255,1276,1294,1314,1335,1354,1374,1396,1415,1434,1454,1475,1494,1514,1534,1554,1576,1594,1614],"xSR":741.5,"ySR":573.95,"xT1":424.9,"yT1":0,"xT2":1058.1,"yT2":0,"toosoon":0,"cond_shown":"Incongruent","ratio_trial":100,"L_num":6,"L_den":10,"R_num":11,"R_den":22,"correct_side":1,"subjID":"JuAnMaNuElMeRcHaNrOdRiGuEZ27Xd","gender":"0","school":"6","age":"12"},{"start_time":1551899807374,"click_time":1551899809371,"finger_time":1551899808850,"fix_duration":744.5886379453344,"trial":7,"RT":1476,"MT":521,"sideResp":2,"stimulus":[],"xmouse":[814,814,814,814,814,814,814,814,814,814,814,814,814,814,814,814,814,814,814,814,814,814,814,814,814,814,814,814,814,814,814,814,814,814,814,814,814,814,814,814,814,814,814,814,814,813,813,813,813,813,813,813,813,813,813,813,813,813,813,813,813,813,813,813,813,813,813,813,813,813,813,813,815,823,828,834,839,843,852,858,864,878,889,898,924,936,949,958,969,974,980,982,990,1008,1017,1027,1039,1047,1060,1067],"ymouse":[663,663,663,663,663,663,663,663,663,663,663,663,663,663,663,663,663,663,663,663,663,663,663,663,663,663,663,663,663,663,663,663,663,663,663,663,663,663,663,663,663,663,663,656,653,651,651,651,651,651,651,651,651,651,651,651,651,651,651,651,651,651,651,651,651,651,651,651,651,648,641,628,613,572,550,531,514,500,473,463,453,433,414,396,337,308,278,256,230,224,214,211,201,176,164,151,136,125,105,93],"timestamp_mouse":[17,37,57,78,97,116,137,156,177,197,216,237,257,277,298,316,336,356,376,397,418,437,457,477,496,516,536,556,576,598,616,637,657,677,697,717,736,757,776,796,816,836,856,876,896,917,937,956,976,998,1016,1037,1057,1078,1097,1117,1136,1156,1177,1197,1216,1236,1257,1277,1296,1316,1336,1356,1377,1398,1416,1438,1456,1476,1497,1516,1537,1556,1577,1596,1616,1636,1656,1676,1696,1717,1737,1756,1776,1797,1817,1836,1856,1876,1897,1918,1937,1957,1977,1997],"xSR":741.5,"ySR":573.95,"xT1":424.9,"yT1":0,"xT2":1058.1,"yT2":0,"toosoon":0,"cond_shown":"Congruent","ratio_trial":300,"L_num":2,"L_den":20,"R_num":10,"R_den":25,"correct_side":2,"subjID":"JuAnMaNuElMeRcHaNrOdRiGuEZ27Xd","gender":"0","school":"6","age":"12"},{"start_time":1551899811855,"click_time":1551899813831,"finger_time":1551899813372,"fix_duration":1204.7120387313093,"trial":8,"RT":1517,"MT":459,"sideResp":2,"stimulus":[],"xmouse":[776,776,776,776,776,776,776,776,776,776,776,776,776,776,776,776,776,776,776,776,776,776,776,776,776,776,776,776,776,776,776,776,776,776,776,776,776,776,776,776,776,776,776,776,776,776,776,776,776,776,776,776,776,776,776,776,776,776,776,776,776,776,776,776,776,776,776,776,776,776,776,776,776,776,792,807,826,849,877,907,918,931,944,956,980,992,1004,1018,1028,1048,1060,1070,1073,1075,1078,1080,1085,1086,1086],"ymouse":[600,600,600,600,600,600,600,600,600,600,600,600,600,600,600,600,600,600,600,600,600,600,600,600,600,600,600,600,600,600,600,600,600,600,600,600,600,600,600,600,600,600,600,600,600,600,600,600,600,600,600,600,600,600,600,600,600,600,600,600,600,600,600,600,600,600,600,600,600,600,600,600,600,597,574,548,513,469,415,345,319,295,274,252,214,195,179,163,153,138,130,122,120,117,112,108,102,101,99],"timestamp_mouse":[15,41,57,76,95,117,137,156,175,196,215,237,255,276,295,315,335,355,375,395,415,435,457,475,495,517,535,556,576,595,616,636,656,676,697,716,736,755,775,795,815,835,855,876,896,915,936,957,977,995,1016,1036,1056,1077,1095,1117,1136,1155,1176,1196,1215,1235,1257,1276,1296,1315,1337,1355,1376,1396,1417,1437,1456,1476,1495,1517,1535,1555,1575,1595,1616,1635,1655,1676,1695,1716,1736,1756,1776,1795,1815,1835,1855,1876,1896,1915,1936,1956,1976],"xSR":741.5,"ySR":573.95,"xT1":424.9,"yT1":0,"xT2":1058.1,"yT2":0,"toosoon":0,"cond_shown":"Incongruent","ratio_trial":300,"L_num":13,"L_den":26,"R_num":12,"R_den":15,"correct_side":2,"subjID":"JuAnMaNuElMeRcHaNrOdRiGuEZ27Xd","gender":"0","school":"6","age":"12"},{"start_time":1551899815102,"click_time":1551899817550,"finger_time":1551899816691,"fix_duration":250,"trial":9,"RT":1589,"MT":859,"sideResp":2,"stimulus":[],"xmouse":[769,769,769,769,769,769,769,769,769,769,769,769,769,769,769,769,769,769,769,769,769,769,769,769,769,769,769,769,769,769,769,769,769,769,769,769,769,769,769,769,769,769,769,769,769,769,769,769,769,769,769,769,769,769,769,769,769,769,769,769,769,769,769,769,769,769,769,769,769,769,769,769,769,769,769,769,766,755,749,741,734,728,721,720,720,719,719,719,719,719,719,719,719,719,719,719,719,719,719,719,721,723,734,739,747,757,762,769,769,769,770,771,796,815,850,860,902,977,1020,1053,1083,1105,1131],"ymouse":[617,617,617,617,617,617,617,617,617,617,617,617,617,617,617,617,617,617,617,617,617,617,617,617,617,617,617,617,617,617,617,617,617,617,617,617,617,617,617,617,617,617,617,617,617,617,617,617,617,617,617,617,617,617,617,617,617,617,617,617,617,617,617,617,617,617,617,617,617,617,617,617,617,617,617,618,615,593,581,568,553,543,533,531,530,529,529,529,529,529,529,529,529,529,529,529,529,531,536,541,547,552,565,571,577,584,587,590,591,591,591,591,577,564,535,524,467,361,298,244,194,152,85],"timestamp_mouse":[8,37,48,68,88,108,128,148,169,188,208,229,248,268,288,310,328,349,368,389,408,428,448,470,488,509,530,549,569,589,608,630,650,669,688,709,728,749,769,788,809,828,849,868,889,910,928,948,970,989,1008,1028,1048,1068,1090,1109,1129,1148,1169,1189,1209,1228,1248,1268,1289,1308,1329,1348,1369,1388,1408,1430,1448,1469,1489,1508,1528,1548,1568,1589,1608,1630,1649,1669,1688,1708,1728,1748,1768,1789,1808,1828,1848,1869,1890,1908,1929,1948,1968,1988,2009,2029,2048,2069,2090,2108,2128,2148,2169,2190,2209,2228,2248,2269,2289,2309,2328,2348,2369,2389,2408,2430,2448],"xSR":741.5,"ySR":573.95,"xT1":424.9,"yT1":0,"xT2":1058.1,"yT2":0,"toosoon":0,"cond_shown":"Incongruent","ratio_trial":100,"L_num":6,"L_den":10,"R_num":7,"R_den":14,"correct_side":1,"subjID":"JuAnMaNuElMeRcHaNrOdRiGuEZ27Xd","gender":"0","school":"6","age":"12"},{"start_time":1551899818782,"click_time":1551899820570,"finger_time":1551899820491,"fix_duration":250,"trial":10,"RT":1709,"MT":79,"sideResp":1,"stimulus":[],"xmouse":[805,805,805,805,805,805,805,805,805,805,805,805,805,805,805,805,805,805,805,805,805,805,805,805,805,805,805,805,805,805,805,805,805,805,805,805,805,805,805,805,805,805,805,805,805,805,805,805,805,805,805,805,805,805,805,805,805,805,805,805,805,805,805,805,805,805,805,805,805,805,805,805,805,805,805,805,805,801,796,795,795,795,795,789,776,751,712,652,598,494],"ymouse":[597,597,597,597,597,597,597,597,597,597,597,597,597,597,597,597,597,597,597,597,597,597,597,597,597,597,597,597,597,597,597,597,597,597,597,597,597,597,597,597,597,597,597,597,597,597,597,597,597,597,597,597,597,597,597,597,597,597,597,597,597,597,597,597,597,597,597,597,597,597,597,597,597,597,597,597,597,597,597,597,597,597,597,592,574,538,474,387,289,96],"timestamp_mouse":[9,32,50,68,88,108,129,150,168,188,210,229,248,269,290,308,328,349,368,389,409,428,450,468,488,510,529,549,569,588,608,628,649,670,688,709,730,749,768,789,808,828,849,868,888,909,928,948,968,990,1008,1028,1049,1068,1089,1109,1128,1149,1168,1188,1209,1229,1248,1268,1288,1308,1329,1348,1369,1389,1408,1429,1449,1469,1489,1509,1529,1550,1568,1590,1609,1628,1648,1668,1689,1709,1728,1749,1768,1788],"xSR":741.5,"ySR":573.95,"xT1":424.9,"yT1":0,"xT2":1058.1,"yT2":0,"toosoon":0,"cond_shown":"Congruent","ratio_trial":100,"L_num":3,"L_den":6,"R_num":2,"R_den":5,"correct_side":1,"subjID":"JuAnMaNuElMeRcHaNrOdRiGuEZ27Xd","gender":"0","school":"6","age":"12"},{"start_time":1551899823285,"click_time":1551899825393,"finger_time":1551899824914,"fix_duration":933.0798367218471,"trial":11,"RT":1629,"MT":479,"sideResp":2,"stimulus":[],"xmouse":[781,781,781,781,781,781,781,781,781,781,781,781,781,781,781,781,781,781,781,781,781,781,781,781,781,781,781,781,781,781,781,781,781,781,781,781,781,781,781,781,781,781,781,781,781,781,781,781,781,781,781,781,781,781,781,781,781,781,781,781,781,781,781,781,781,781,781,781,781,781,781,781,781,781,781,781,781,781,781,781,783,789,796,809,819,829,847,859,877,888,897,904,912,931,940,954,959,976,1002,1013,1023,1032,1040,1053,1059,1063],"ymouse":[597,597,597,597,597,597,597,597,597,597,597,597,597,597,597,597,597,597,597,597,597,597,597,597,597,597,597,597,597,597,597,597,597,597,597,597,597,597,597,597,597,597,597,597,597,597,597,597,597,597,597,597,597,597,597,597,597,597,597,597,597,597,597,597,597,597,597,597,597,597,597,597,597,597,597,597,597,597,596,590,580,566,549,515,494,476,441,420,385,370,354,341,328,293,277,252,244,219,187,172,155,141,126,106,100,96],"timestamp_mouse":[8,33,47,65,85,106,125,147,166,187,205,225,245,266,285,305,325,346,365,387,406,426,446,466,486,507,526,546,566,586,605,629,650,669,689,708,728,750,769,790,810,829,850,869,889,909,928,948,969,988,1009,1028,1049,1068,1089,1109,1129,1149,1168,1189,1208,1228,1249,1269,1290,1308,1330,1348,1369,1388,1408,1428,1448,1468,1488,1510,1528,1548,1568,1589,1609,1629,1648,1668,1689,1708,1729,1748,1768,1789,1809,1829,1849,1868,1889,1909,1929,1948,1968,1989,2008,2029,2048,2068,2089,2108],"xSR":741.5,"ySR":573.95,"xT1":424.9,"yT1":0,"xT2":1058.1,"yT2":0,"toosoon":0,"cond_shown":"Incongruent","ratio_trial":300,"L_num":4,"L_den":5,"R_num":6,"R_den":12,"correct_side":1,"subjID":"JuAnMaNuElMeRcHaNrOdRiGuEZ27Xd","gender":"0","school":"6","age":"12"},{"start_time":1551899826957,"click_time":1551899828835,"finger_time":1551899828574,"fix_duration":603.9621004277352,"trial":12,"RT":1617,"MT":261,"sideResp":2,"stimulus":[],"xmouse":[799,799,799,799,799,799,799,799,799,799,799,799,799,799,799,799,799,799,799,799,799,799,799,799,799,799,799,799,799,799,799,799,799,799,799,799,799,799,799,799,799,799,799,799,799,799,799,799,799,799,799,799,799,799,799,799,799,799,799,799,799,799,799,799,799,799,799,799,799,799,799,799,799,799,799,799,800,801,805,826,848,853,869,876,886,894,911,946,980,1054,1090,1117,1144,1151],"ymouse":[609,609,609,609,609,609,609,609,609,609,609,609,609,609,609,609,609,609,609,609,609,609,609,609,609,609,609,609,609,609,609,609,609,609,609,609,609,609,609,609,609,609,609,609,609,609,609,609,609,609,609,609,609,609,609,609,609,609,609,609,609,609,609,609,609,609,609,609,609,609,609,609,609,609,609,609,609,609,609,593,567,560,535,522,500,487,462,417,370,268,212,164,108,86],"timestamp_mouse":[30,36,57,77,96,116,136,156,176,196,216,236,256,277,297,317,336,357,377,397,417,436,457,478,497,517,536,556,576,598,616,636,656,676,697,716,736,756,777,797,816,836,856,877,896,917,936,956,976,996,1016,1037,1057,1077,1098,1116,1137,1156,1177,1197,1217,1238,1257,1277,1296,1316,1336,1356,1376,1396,1416,1437,1456,1477,1497,1516,1537,1558,1577,1596,1617,1637,1657,1676,1696,1716,1737,1757,1777,1796,1816,1836,1857,1878],"xSR":741.5,"ySR":573.95,"xT1":424.9,"yT1":0,"xT2":1058.1,"yT2":0,"toosoon":0,"cond_shown":"Incongruent","ratio_trial":100,"L_num":10,"L_den":25,"R_num":8,"R_den":16,"correct_side":2,"subjID":"JuAnMaNuElMeRcHaNrOdRiGuEZ27Xd","gender":"0","school":"6","age":"12"},{"start_time":1551899830006,"click_time":1551899831953,"finger_time":1551899831553,"fix_duration":250,"trial":13,"RT":1547,"MT":400,"sideResp":1,"stimulus":[],"xmouse":[817,817,817,817,817,817,817,817,817,816,816,816,816,816,816,816,816,816,816,816,816,816,816,816,816,816,816,816,816,816,816,816,816,816,816,816,816,816,816,816,816,816,816,816,816,816,816,816,816,816,816,816,816,816,816,816,816,816,816,816,816,816,816,816,816,816,816,815,814,813,811,810,801,797,795,786,765,712,685,666,644,627,594,587,584,583,581,578,574,571,566,561,550,539,524,509,497,477],"ymouse":[659,659,659,659,659,659,659,659,658,657,657,657,657,656,656,656,655,655,655,655,655,655,655,655,655,655,655,655,655,655,655,655,655,655,655,655,655,655,655,655,655,655,655,655,655,655,655,655,655,655,655,655,655,655,655,655,655,655,655,655,655,655,655,655,655,655,655,655,655,654,654,654,653,652,649,637,600,481,421,368,301,263,207,196,189,187,185,181,178,173,166,160,146,136,124,114,105,89],"timestamp_mouse":[7,28,48,67,89,107,128,148,168,187,209,227,248,268,288,308,327,347,369,388,409,429,447,468,488,507,528,548,569,588,607,627,647,667,687,707,727,748,769,788,808,827,847,868,888,908,927,949,968,988,1008,1027,1049,1067,1088,1108,1128,1147,1168,1188,1207,1228,1248,1267,1287,1308,1328,1348,1368,1388,1408,1427,1447,1468,1487,1508,1527,1547,1568,1589,1607,1627,1647,1667,1688,1708,1727,1747,1767,1787,1808,1828,1847,1868,1887,1908,1927,1947],"xSR":741.5,"ySR":573.95,"xT1":424.9,"yT1":0,"xT2":1058.1,"yT2":0,"toosoon":0,"cond_shown":"Congruent","ratio_trial":100,"L_num":11,"L_den":22,"R_num":6,"R_den":15,"correct_side":1,"subjID":"JuAnMaNuElMeRcHaNrOdRiGuEZ27Xd","gender":"0","school":"6","age":"12"},{"start_time":1551899834163,"click_time":1551899836154,"finger_time":1551899835473,"fix_duration":1186.096378560486,"trial":14,"RT":1310,"MT":681,"sideResp":1,"stimulus":[],"xmouse":[779,779,778,778,778,778,778,778,777,777,777,777,777,777,777,777,777,777,777,777,777,776,776,775,775,775,775,775,774,773,773,773,772,772,772,772,772,772,772,772,772,772,772,772,772,772,772,772,772,772,772,772,772,772,772,772,771,771,771,771,770,769,768,765,744,720,679,611,543,423,395,378,376,376,376,376,376,376,376,376,376,380,384,387,390,397,399,403,405,408,410,412,412,415,417,418,419,420,421,425],"ymouse":[595,595,596,596,596,596,596,596,596,596,596,596,596,596,596,596,596,596,596,596,596,596,596,596,596,596,596,596,596,596,596,596,596,596,596,596,596,596,596,596,596,596,596,596,596,596,596,596,596,596,596,596,596,596,596,596,596,596,596,596,596,596,596,595,583,568,539,493,448,365,344,331,328,328,325,314,303,287,266,218,198,175,144,125,113,89,78,72,65,60,52,47,47,43,42,41,41,41,41,41],"timestamp_mouse":[10,37,50,70,90,111,130,150,171,191,212,230,251,271,290,310,331,350,370,392,410,431,452,471,490,512,531,550,571,590,611,631,650,671,691,711,731,750,771,790,810,832,850,871,891,912,931,951,971,990,1011,1030,1050,1070,1090,1110,1131,1150,1170,1190,1211,1230,1251,1271,1291,1310,1331,1350,1370,1390,1410,1430,1450,1472,1490,1510,1530,1551,1571,1590,1611,1631,1651,1670,1690,1711,1730,1751,1770,1790,1810,1830,1851,1871,1890,1910,1930,1950,1970,1990],"xSR":741.5,"ySR":573.95,"xT1":424.9,"yT1":0,"xT2":1058.1,"yT2":0,"toosoon":0,"cond_shown":"Congruent","ratio_trial":300,"L_num":20,"L_den":25,"R_num":13,"R_den":26,"correct_side":1,"subjID":"JuAnMaNuElMeRcHaNrOdRiGuEZ27Xd","gender":"0","school":"6","age":"12"},{"start_time":1551899837459,"click_time":1551899839654,"finger_time":1551899839453,"fix_duration":264.93555080252264,"trial":15,"RT":1994,"MT":201,"sideResp":2,"stimulus":[],"xmouse":[758,758,758,758,758,758,758,758,758,758,758,758,758,758,758,758,758,758,758,758,758,758,758,758,758,758,758,758,758,758,758,758,758,758,758,758,758,758,758,758,758,758,758,758,758,758,758,758,758,758,758,758,758,758,758,758,758,758,758,758,758,758,758,758,758,758,758,758,758,758,758,758,758,757,755,755,755,755,755,755,755,755,755,755,755,755,755,755,755,755,755,755,755,755,755,755,755,760,772,811,844,872,901,945,973,989,1005,1027,1038,1060],"ymouse":[615,615,615,615,615,615,615,615,615,615,615,615,615,615,615,615,615,615,615,615,615,615,615,615,615,615,615,615,615,615,616,619,621,621,621,621,621,621,621,621,621,621,621,621,621,621,621,621,621,621,621,621,621,621,621,621,621,621,621,621,621,621,621,621,621,621,621,621,621,621,621,621,621,620,617,616,616,616,616,616,616,616,616,616,616,616,616,616,616,616,616,616,616,616,616,616,615,605,586,517,462,406,358,279,218,187,158,124,107,74],"timestamp_mouse":[14,37,54,74,95,115,135,155,174,194,214,235,256,274,294,314,335,354,374,395,414,434,454,474,495,515,534,555,574,595,614,635,654,674,694,714,734,755,775,794,814,834,855,874,895,914,934,954,976,994,1016,1034,1055,1075,1094,1114,1134,1154,1175,1195,1214,1234,1254,1274,1294,1314,1335,1355,1375,1394,1414,1434,1456,1475,1495,1515,1534,1555,1574,1595,1614,1634,1654,1674,1695,1715,1735,1754,1776,1796,1814,1834,1855,1874,1894,1915,1935,1955,1976,1994,2015,2035,2064,2075,2094,2114,2135,2156,2175,2195],"xSR":741.5,"ySR":573.95,"xT1":424.9,"yT1":0,"xT2":1058.1,"yT2":0,"toosoon":0,"cond_shown":"Congruent","ratio_trial":200,"L_num":1,"L_den":2,"R_num":21,"R_den":30,"correct_side":2,"subjID":"JuAnMaNuElMeRcHaNrOdRiGuEZ27Xd","gender":"0","school":"6","age":"12"},{"start_time":1551899840645,"click_time":1551899842913,"finger_time":1551899842474,"fix_duration":250,"trial":16,"RT":1829,"MT":439,"sideResp":1,"stimulus":[],"xmouse":[801,801,801,801,801,801,801,801,800,800,800,799,799,799,799,799,799,799,799,799,798,798,798,798,798,798,798,798,798,798,798,798,798,798,798,798,798,798,798,798,798,798,798,798,798,798,798,798,798,798,798,798,798,798,798,798,798,798,798,798,798,798,798,798,798,798,798,798,798,798,798,798,798,798,798,798,798,798,798,798,798,798,798,798,798,798,798,798,798,795,771,749,720,671,616,462,380,324,305,301,301,303,305,308,313,323,328,338,349,368,396,407,419,425],"ymouse":[616,616,616,616,616,616,616,616,617,618,618,619,619,619,619,619,619,619,619,620,620,620,620,620,620,620,620,620,620,620,620,620,620,620,620,620,620,620,620,620,620,620,620,620,620,620,620,620,620,620,620,620,620,620,620,620,620,620,620,620,620,620,620,620,620,620,620,620,620,620,620,620,620,620,620,620,620,620,620,620,620,620,620,620,619,618,617,615,614,606,578,558,536,502,460,343,280,239,220,211,183,167,150,136,125,107,97,87,79,69,57,51,48,47],"timestamp_mouse":[8,37,49,70,88,108,129,149,169,189,209,228,248,268,288,309,330,349,370,388,408,428,449,469,490,508,528,549,568,588,609,628,648,669,689,708,729,748,768,788,808,828,849,868,889,908,928,949,969,988,1010,1028,1048,1070,1088,1110,1128,1148,1169,1188,1208,1228,1249,1269,1290,1310,1328,1349,1368,1389,1408,1428,1450,1468,1489,1509,1529,1549,1568,1589,1608,1630,1648,1669,1688,1709,1729,1748,1769,1789,1808,1829,1849,1869,1889,1908,1928,1948,1969,1990,2008,2029,2049,2070,2088,2109,2128,2149,2168,2189,2208,2229,2248,2268],"xSR":741.5,"ySR":573.95,"xT1":424.9,"yT1":0,"xT2":1058.1,"yT2":0,"toosoon":0,"cond_shown":"Congruent","ratio_trial":100,"L_num":15,"L_den":25,"R_num":13,"R_den":26,"correct_side":1,"subjID":"JuAnMaNuElMeRcHaNrOdRiGuEZ27Xd","gender":"0","school":"6","age":"12"},{"start_time":1551899845611,"click_time":1551899847833,"finger_time":1551899847373,"fix_duration":295.53211270071233,"trial":17,"RT":1762,"MT":460,"sideResp":2,"stimulus":[],"xmouse":[761,761,761,761,761,761,761,761,761,761,761,761,761,761,761,761,761,761,761,761,761,761,761,761,761,761,761,761,761,761,761,761,761,761,761,761,761,761,761,761,761,761,761,761,761,761,761,761,761,761,761,761,761,761,761,761,761,761,761,761,761,761,761,761,761,761,761,761,761,761,761,761,761,761,761,761,761,761,761,761,761,761,761,761,761,761,761,766,844,939,980,1010,1024,1026,1028,1031,1033,1042,1057,1074,1111,1131,1147,1148,1148,1148,1148,1148,1142,1130,1105,1087],"ymouse":[613,613,613,613,613,613,613,613,613,613,613,613,613,613,613,613,613,613,613,613,613,613,613,613,613,613,613,613,613,613,613,613,613,613,613,613,613,613,613,613,613,613,613,613,613,613,613,613,613,613,613,613,613,613,613,613,613,613,613,613,613,613,613,613,613,613,613,613,613,613,613,613,613,613,613,613,613,613,613,613,613,613,613,613,613,613,613,611,563,490,456,412,367,356,351,347,344,331,314,290,238,208,172,170,168,168,168,166,155,139,110,89],"timestamp_mouse":[11,22,43,62,82,102,122,142,162,184,203,222,244,264,282,303,322,344,364,382,402,424,443,462,482,502,522,543,563,583,602,623,643,662,682,702,722,743,762,782,804,822,843,862,883,903,922,943,962,983,1002,1022,1042,1063,1082,1102,1122,1142,1162,1182,1202,1222,1242,1263,1284,1302,1322,1344,1363,1383,1402,1422,1442,1462,1484,1503,1522,1542,1563,1582,1603,1624,1642,1663,1682,1703,1722,1743,1762,1783,1804,1823,1843,1862,1882,1903,1923,1943,1962,1983,2003,2023,2043,2063,2082,2102,2122,2143,2163,2183,2203,2222],"xSR":741.5,"ySR":573.95,"xT1":424.9,"yT1":0,"xT2":1058.1,"yT2":0,"toosoon":0,"cond_shown":"Incongruent","ratio_trial":200,"L_num":3,"L_den":4,"R_num":11,"R_den":20,"correct_side":1,"subjID":"JuAnMaNuElMeRcHaNrOdRiGuEZ27Xd","gender":"0","school":"6","age":"12"},{"start_time":1551899850151,"click_time":1551899851874,"finger_time":1551899851053,"fix_duration":1275.4609309302843,"trial":18,"RT":902,"MT":821,"sideResp":1,"stimulus":[],"xmouse":[804,804,804,804,804,804,804,804,804,804,804,804,804,804,804,804,804,804,804,804,804,804,804,804,804,806,807,808,808,808,808,808,808,808,808,808,808,809,808,807,805,802,801,799,799,799,800,800,808,819,821,821,821,821,821,821,821,822,822,822,822,822,822,817,813,812,812,811,811,808,806,806,805,804,802,788,770,750,732,719,668,648,633,622,601,557,520],"ymouse":[621,621,621,621,621,621,621,621,621,621,621,621,621,621,621,621,621,621,621,621,621,621,621,621,621,622,622,622,622,622,622,622,622,622,622,622,622,622,621,621,621,621,621,618,604,573,571,571,571,581,583,583,583,583,583,583,583,584,584,584,584,584,584,589,595,596,596,596,596,596,596,596,595,594,591,542,487,436,396,364,264,234,212,199,174,117,65],"timestamp_mouse":[9,31,43,63,82,102,123,142,162,182,202,223,242,262,283,304,323,343,363,382,402,422,443,463,482,502,523,542,562,582,602,622,643,663,683,704,723,742,763,783,802,822,843,863,882,902,923,943,962,983,1002,1022,1043,1062,1083,1103,1122,1142,1163,1182,1202,1222,1242,1263,1283,1302,1322,1342,1363,1384,1403,1422,1444,1463,1482,1502,1522,1543,1562,1582,1602,1622,1642,1664,1684,1703,1722],"xSR":741.5,"ySR":573.95,"xT1":424.9,"yT1":0,"xT2":1058.1,"yT2":0,"toosoon":0,"cond_shown":"Congruent","ratio_trial":200,"L_num":14,"L_den":28,"R_num":6,"R_den":20,"correct_side":1,"subjID":"JuAnMaNuElMeRcHaNrOdRiGuEZ27Xd","gender":"0","school":"6","age":"12"},{"start_time":1551899853618,"click_time":1551899856154,"finger_time":1551899855653,"fix_duration":703.740580831869,"trial":19,"RT":2035,"MT":501,"sideResp":2,"stimulus":[],"xmouse":[822,822,822,822,822,822,822,822,822,822,822,822,822,822,822,822,822,822,822,822,822,822,822,822,822,822,822,822,822,822,822,822,822,822,822,822,822,822,822,822,822,822,822,822,822,822,822,822,822,822,822,822,822,822,822,822,822,822,822,822,822,822,822,822,822,822,822,822,822,822,822,822,822,822,822,822,822,822,822,822,822,822,822,822,822,822,822,822,822,822,822,822,822,822,822,822,822,822,822,822,824,846,852,857,863,866,874,883,898,910,920,944,955,971,989,1003,1038,1073,1108,1122,1127,1127,1127,1125,1125,1123,1114],"ymouse":[578,578,578,578,578,578,578,578,578,578,578,578,578,578,578,578,578,578,578,578,578,578,578,578,578,578,578,578,578,578,578,578,578,578,578,578,578,578,578,578,578,578,578,578,578,578,578,578,578,578,578,578,578,578,578,578,578,578,578,578,578,578,578,578,578,578,578,578,578,578,578,578,578,578,578,578,578,578,578,578,578,578,578,578,578,578,578,578,578,578,578,578,578,578,578,578,578,578,578,578,577,559,550,530,506,478,421,400,376,361,346,306,283,257,232,218,198,184,161,149,139,127,122,115,112,106,89],"timestamp_mouse":[17,36,56,76,96,117,135,156,176,196,216,235,256,275,297,315,335,356,377,396,416,435,455,476,496,517,535,556,576,596,616,636,656,677,696,715,736,756,775,797,816,836,855,876,896,915,935,955,975,995,1015,1036,1056,1077,1096,1116,1136,1156,1175,1197,1216,1235,1256,1275,1295,1315,1335,1355,1375,1396,1415,1435,1456,1476,1495,1515,1536,1556,1576,1595,1615,1636,1657,1676,1696,1715,1737,1755,1775,1797,1816,1835,1855,1875,1896,1915,1936,1956,1976,1995,2015,2035,2056,2076,2095,2117,2135,2155,2176,2196,2216,2236,2256,2275,2295,2316,2335,2356,2376,2395,2416,2435,2455,2475,2496,2515,2535],"xSR":741.5,"ySR":573.95,"xT1":424.9,"yT1":0,"xT2":1058.1,"yT2":0,"toosoon":0,"cond_shown":"Incongruent","ratio_trial":300,"L_num":4,"L_den":20,"R_num":2,"R_den":4,"correct_side":2,"subjID":"JuAnMaNuElMeRcHaNrOdRiGuEZ27Xd","gender":"0","school":"6","age":"12"},{"start_time":1551899875465,"click_time":1551899877554,"finger_time":1551899877053,"fix_duration":751.5350474492072,"trial":20,"RT":1588,"MT":501,"sideResp":2,"stimulus":[],"xmouse":[797,797,797,797,797,797,797,797,797,797,797,797,797,797,797,797,797,797,797,797,797,797,797,797,797,797,797,797,797,797,797,797,797,797,797,797,795,795,795,795,795,794,794,794,794,794,794,794,794,794,794,794,794,794,794,794,794,794,794,794,794,794,794,794,794,794,794,794,794,794,794,794,794,794,794,794,797,806,818,858,887,911,939,959,992,997,997,997,1002,1011,1013,1015,1015,1015,1016,1019,1023,1027,1036,1046,1048,1050,1055,1063,1070],"ymouse":[649,649,649,649,649,649,649,649,649,649,649,649,649,649,649,649,649,649,649,649,649,649,649,649,649,649,649,649,649,649,649,649,649,649,649,649,648,648,648,648,648,647,647,647,647,647,647,647,647,647,647,647,647,647,647,647,647,647,647,647,647,647,647,647,647,647,647,647,646,644,643,642,642,642,639,633,626,605,584,524,487,467,445,425,339,298,248,196,165,122,103,88,72,56,21,6,0,0,0,0,0,0,0,0,2],"timestamp_mouse":[10,34,49,69,89,109,130,148,168,189,210,229,248,269,290,309,329,349,369,388,409,428,449,469,489,510,530,548,569,589,610,629,649,668,689,710,730,749,769,789,809,828,848,869,888,910,929,948,968,988,1009,1029,1048,1069,1088,1109,1129,1148,1168,1188,1209,1229,1250,1268,1289,1308,1328,1349,1369,1388,1409,1429,1448,1469,1489,1508,1529,1550,1569,1588,1609,1629,1649,1668,1689,1708,1730,1749,1768,1788,1808,1828,1850,1870,1888,1908,1929,1950,1969,1988,2008,2028,2048,2070,2089],"xSR":741.5,"ySR":573.95,"xT1":424.9,"yT1":0,"xT2":1058.1,"yT2":0,"toosoon":0,"cond_shown":"Incongruent","ratio_trial":200,"L_num":7,"L_den":15,"R_num":4,"R_den":6,"correct_side":2,"subjID":"JuAnMaNuElMeRcHaNrOdRiGuEZ27Xd","gender":"0","school":"6","age":"12"},{"start_time":1551899879104,"click_time":1551899880873,"finger_time":1551899880494,"fix_duration":250,"trial":21,"RT":1390,"MT":379,"sideResp":2,"stimulus":[],"xmouse":[823,822,821,821,821,820,819,815,815,814,814,814,814,814,814,814,814,814,814,814,814,814,814,814,814,814,814,814,814,814,814,814,814,814,811,811,811,811,811,811,811,811,811,811,811,811,811,811,811,811,811,811,811,811,811,811,811,811,811,811,811,811,811,811,811,811,811,811,816,825,837,848,866,879,894,917,928,945,974,986,997,1005,1009,1010,1012,1017,1022,1045,1066],"ymouse":[648,648,651,651,651,651,651,649,648,647,647,647,647,647,647,647,646,642,637,632,630,630,630,630,630,630,630,630,630,630,629,629,624,618,609,609,609,609,609,609,609,609,609,609,609,609,609,609,609,609,609,609,609,609,609,609,609,609,609,609,609,609,609,609,609,609,609,602,584,560,534,507,466,443,422,385,356,316,251,226,200,178,151,139,129,112,102,77,65],"timestamp_mouse":[9,29,49,69,90,109,130,149,169,190,210,229,250,270,289,311,330,350,370,389,410,429,449,469,491,510,529,549,569,590,609,630,649,670,689,709,729,750,770,789,809,829,850,871,890,910,930,949,970,990,1010,1029,1050,1070,1090,1110,1130,1150,1169,1189,1209,1231,1250,1270,1290,1310,1330,1349,1370,1390,1410,1431,1450,1469,1489,1510,1530,1549,1569,1589,1609,1630,1649,1669,1689,1710,1730,1750,1769],"xSR":741.5,"ySR":573.95,"xT1":424.9,"yT1":0,"xT2":1058.1,"yT2":0,"toosoon":0,"cond_shown":"Incongruent","ratio_trial":200,"L_num":7,"L_den":15,"R_num":6,"R_den":9,"correct_side":2,"subjID":"JuAnMaNuElMeRcHaNrOdRiGuEZ27Xd","gender":"0","school":"6","age":"12"},{"start_time":1551899882961,"click_time":1551899885115,"finger_time":1551899884655,"fix_duration":1066.6651997684974,"trial":22,"RT":1694,"MT":460,"sideResp":2,"stimulus":[],"xmouse":[792,792,792,792,792,792,792,792,792,792,792,792,792,792,792,792,792,792,792,792,792,792,792,792,792,792,792,792,792,792,792,792,792,792,792,792,792,792,792,792,792,792,792,792,792,792,792,792,792,792,792,792,792,792,792,792,792,792,792,792,792,792,792,792,792,792,792,792,792,792,792,792,792,792,795,798,800,802,803,803,805,809,815,821,848,870,891,910,932,969,983,1016,1032,1043,1057,1068,1074,1079,1081,1081,1081,1081,1081,1083,1085,1085,1086,1087],"ymouse":[616,616,616,616,616,616,616,616,616,615,615,615,615,615,615,615,615,615,615,615,615,615,615,615,615,615,615,615,615,615,615,615,615,615,615,615,615,615,615,615,615,615,615,615,615,615,615,615,615,615,615,615,615,615,615,615,615,615,615,615,615,615,615,615,615,615,615,615,615,615,615,615,615,615,614,614,614,614,614,614,614,610,602,589,531,487,433,390,343,281,263,226,207,193,166,147,131,117,109,106,106,106,105,103,101,101,100,98],"timestamp_mouse":[12,39,54,73,92,113,132,153,173,194,214,232,253,273,293,312,332,353,372,392,412,432,452,472,492,512,532,552,572,592,613,632,653,672,692,712,732,753,772,792,812,832,853,872,893,913,933,952,973,994,1014,1034,1053,1074,1095,1113,1135,1155,1174,1194,1214,1234,1254,1274,1295,1314,1334,1355,1374,1394,1415,1434,1454,1475,1494,1513,1535,1554,1574,1594,1613,1634,1654,1675,1694,1715,1734,1754,1775,1795,1815,1834,1854,1874,1893,1914,1934,1955,1975,1995,2013,2034,2054,2074,2094,2114,2135,2153],"xSR":741.5,"ySR":573.95,"xT1":424.9,"yT1":0,"xT2":1058.1,"yT2":0,"toosoon":0,"cond_shown":"Incongruent","ratio_trial":100,"L_num":9,"L_den":18,"R_num":6,"R_den":10,"correct_side":2,"subjID":"JuAnMaNuElMeRcHaNrOdRiGuEZ27Xd","gender":"0","school":"6","age":"12"},{"start_time":1551899887472,"click_time":1551899889195,"finger_time":1551899888855,"fix_duration":1335.9954822853595,"trial":23,"RT":1383,"MT":340,"sideResp":2,"stimulus":[],"xmouse":[802,802,802,802,802,802,802,802,802,802,802,802,802,802,802,802,802,802,802,802,802,802,802,802,802,802,802,802,802,802,802,802,802,802,802,802,802,802,802,802,802,802,802,802,802,802,802,802,802,802,802,802,802,802,802,802,802,802,802,802,802,802,802,802,802,802,805,812,819,838,843,848,854,862,891,911,938,955,968,991,1003,1018,1029,1038,1051,1055,1060],"ymouse":[640,640,640,640,640,640,640,640,640,640,640,640,640,640,640,640,640,640,640,640,640,640,640,640,640,640,640,640,640,640,640,640,640,640,640,640,640,640,640,640,640,640,640,640,640,640,640,640,640,640,640,640,640,640,640,640,640,640,640,640,640,640,640,640,640,640,632,618,602,556,535,515,491,454,370,333,286,257,234,192,173,155,139,126,101,89,81],"timestamp_mouse":[7,24,44,65,83,104,122,143,164,183,204,224,244,263,284,304,322,344,363,384,402,423,444,463,482,504,524,543,564,584,602,624,643,663,684,704,724,743,763,784,804,823,844,864,884,904,923,943,963,983,1003,1024,1043,1064,1083,1102,1124,1143,1163,1182,1203,1224,1244,1263,1284,1304,1323,1344,1363,1383,1403,1423,1444,1463,1484,1504,1523,1544,1563,1583,1603,1622,1643,1662,1684,1703,1722],"xSR":741.5,"ySR":573.95,"xT1":424.9,"yT1":0,"xT2":1058.1,"yT2":0,"toosoon":0,"cond_shown":"Congruent","ratio_trial":300,"L_num":4,"L_den":20,"R_num":13,"R_den":26,"correct_side":2,"subjID":"JuAnMaNuElMeRcHaNrOdRiGuEZ27Xd","gender":"0","school":"6","age":"12"},{"start_time":1551899891278,"click_time":1551899893755,"finger_time":1551899893115,"fix_duration":1221.0072593900804,"trial":24,"RT":1837,"MT":640,"sideResp":2,"stimulus":[],"xmouse":[781,781,782,782,782,782,782,782,782,782,782,782,782,782,782,782,782,782,782,782,782,782,782,782,782,782,782,782,780,778,777,775,773,772,772,772,772,772,772,772,772,772,772,772,772,772,772,772,772,772,772,772,772,772,772,772,770,769,769,768,768,768,768,768,768,768,768,768,768,769,770,771,771,771,771,771,771,771,771,771,771,771,771,771,771,771,771,771,766,760,750,740,735,735,735,735,735,734,734,738,743,750,761,806,843,884,951,1010,1103,1143,1170,1186,1194,1206,1210,1212,1212,1212,1212,1212,1211,1196,1176,1131],"ymouse":[612,612,612,612,612,612,612,612,612,612,612,612,612,612,612,612,612,612,612,612,612,612,612,612,612,612,613,614,617,618,618,618,619,619,619,619,619,619,619,619,619,619,619,619,619,619,619,619,619,619,619,619,619,619,619,619,620,621,621,621,621,621,621,621,621,621,621,621,621,621,620,620,620,620,620,620,620,620,620,620,620,620,620,620,620,620,619,619,619,619,617,616,615,615,615,615,615,615,614,598,589,572,555,489,447,398,321,261,153,105,67,38,18,0,0,0,0,0,0,0,0,0,0,9],"timestamp_mouse":[17,38,58,77,97,118,137,157,177,198,217,238,257,277,297,318,336,357,378,397,417,438,458,478,497,517,537,556,577,598,617,637,657,677,697,717,737,757,778,798,818,837,858,877,898,917,938,958,978,997,1017,1037,1057,1077,1097,1117,1137,1158,1177,1197,1217,1237,1256,1276,1298,1318,1336,1358,1377,1397,1418,1437,1456,1477,1498,1518,1537,1557,1578,1596,1618,1637,1657,1676,1698,1718,1738,1756,1777,1797,1818,1837,1858,1876,1897,1918,1937,1957,1976,1997,2017,2037,2056,2077,2097,2118,2138,2157,2177,2197,2217,2238,2257,2277,2298,2317,2337,2358,2377,2398,2418,2438,2456,2477],"xSR":741.5,"ySR":573.95,"xT1":424.9,"yT1":0,"xT2":1058.1,"yT2":0,"toosoon":0,"cond_shown":"Incongruent","ratio_trial":200,"L_num":6,"L_den":20,"R_num":3,"R_den":6,"correct_side":2,"subjID":"JuAnMaNuElMeRcHaNrOdRiGuEZ27Xd","gender":"0","school":"6","age":"12"},{"start_time":1551899896266,"click_time":1551899898237,"finger_time":1551899897836,"fix_duration":250,"trial":25,"RT":1570,"MT":401,"sideResp":2,"stimulus":[],"xmouse":[779,779,779,780,783,784,784,784,784,784,784,784,784,784,784,784,784,784,784,784,784,784,784,784,784,784,784,784,784,784,784,784,784,784,784,784,784,784,784,784,784,784,784,784,784,784,784,784,784,784,784,784,784,784,784,784,784,784,784,784,784,784,784,784,784,784,784,784,784,784,784,784,784,784,784,786,788,796,805,827,840,855,876,899,938,959,973,983,985,985,985,987,989,993,1001,1008,1033,1052,1067],"ymouse":[640,638,637,634,625,624,623,623,623,623,623,623,623,623,623,623,623,623,623,623,623,623,623,623,623,623,623,623,623,623,623,623,623,623,623,623,623,623,623,623,623,623,623,623,623,623,623,623,623,623,623,623,623,623,623,623,623,623,623,623,623,623,623,623,623,623,623,623,623,623,623,623,623,623,622,618,610,594,573,511,465,405,332,251,80,4,0,0,0,0,0,0,0,0,0,0,0,0,2],"timestamp_mouse":[12,34,49,70,89,109,129,149,170,190,209,229,250,270,289,309,330,349,369,389,410,430,450,469,488,510,529,550,570,589,608,629,650,669,689,709,729,749,769,789,809,829,849,870,890,909,930,948,970,989,1010,1029,1050,1069,1090,1110,1129,1150,1170,1190,1209,1229,1249,1269,1288,1309,1330,1348,1369,1390,1409,1429,1449,1468,1490,1509,1529,1549,1570,1589,1610,1629,1649,1668,1689,1709,1730,1750,1769,1790,1810,1829,1850,1869,1889,1910,1929,1949,1970],"xSR":741.5,"ySR":573.95,"xT1":424.9,"yT1":0,"xT2":1058.1,"yT2":0,"toosoon":0,"cond_shown":"Incongruent","ratio_trial":300,"L_num":4,"L_den":20,"R_num":2,"R_den":4,"correct_side":2,"subjID":"JuAnMaNuElMeRcHaNrOdRiGuEZ27Xd","gender":"0","school":"6","age":"12"},{"start_time":1551899899921,"click_time":1551899901556,"finger_time":1551899901295,"fix_duration":644.8710725969023,"trial":26,"RT":1374,"MT":261,"sideResp":2,"stimulus":[],"xmouse":[796,796,796,796,796,796,796,796,796,796,796,796,796,796,796,796,795,795,794,794,794,794,794,794,793,793,792,792,792,792,792,792,792,792,792,792,792,792,792,792,792,792,792,792,792,792,792,792,792,792,792,792,792,792,792,792,792,792,792,792,792,792,792,792,792,792,792,802,816,830,839,850,857,863,871,882,920,946,975,1008,1034,1073],"ymouse":[595,595,595,595,595,595,595,595,595,595,595,595,595,595,595,595,595,596,596,597,597,597,597,597,597,598,600,600,600,600,600,600,600,600,600,600,600,600,600,600,600,600,600,600,600,600,600,600,600,600,600,600,600,600,600,600,600,600,600,600,600,600,600,600,600,600,600,587,566,540,518,467,433,413,394,373,303,257,209,160,115,57],"timestamp_mouse":[14,34,64,74,94,115,134,155,175,195,214,234,254,274,295,315,334,354,374,394,414,434,454,475,494,513,533,555,573,595,615,635,654,674,694,714,733,755,774,794,814,833,854,875,895,914,935,955,974,994,1014,1035,1053,1074,1094,1115,1133,1154,1174,1195,1215,1234,1254,1275,1294,1314,1334,1354,1374,1394,1414,1434,1454,1475,1494,1513,1534,1555,1575,1594,1614,1634],"xSR":741.5,"ySR":573.95,"xT1":424.9,"yT1":0,"xT2":1058.1,"yT2":0,"toosoon":0,"cond_shown":"Incongruent","ratio_trial":100,"L_num":12,"L_den":24,"R_num":9,"R_den":15,"correct_side":2,"subjID":"JuAnMaNuElMeRcHaNrOdRiGuEZ27Xd","gender":"0","school":"6","age":"12"},{"start_time":1551899905014,"click_time":1551899906635,"finger_time":1551899906455,"fix_duration":457.639680112505,"trial":27,"RT":1441,"MT":180,"sideResp":2,"stimulus":[],"xmouse":[784,784,784,784,784,784,784,784,784,784,784,784,784,784,784,784,784,784,784,784,784,784,784,784,784,784,784,784,784,784,784,784,784,784,784,784,784,784,784,784,784,784,784,784,784,784,784,784,784,784,784,784,784,784,784,784,784,784,784,784,784,784,784,784,784,784,784,784,784,784,783,791,835,867,906,943,971,1009,1019,1040,1052,1064],"ymouse":[620,620,620,620,620,620,620,620,620,620,620,620,620,620,620,620,620,620,620,620,620,620,620,620,620,620,620,620,620,620,620,620,620,620,620,620,620,620,620,620,620,620,620,620,620,620,620,620,620,620,620,620,620,620,620,620,620,620,620,620,620,620,620,620,620,620,620,620,620,620,609,583,491,442,389,337,287,196,163,114,88,66],"timestamp_mouse":[7,21,43,62,82,101,121,140,160,181,202,222,242,261,282,301,322,341,362,381,402,421,442,462,482,502,521,541,562,581,602,622,642,661,680,702,722,742,761,782,802,821,842,870,881,901,921,942,962,980,1002,1021,1042,1062,1081,1101,1121,1141,1162,1182,1201,1222,1242,1261,1281,1302,1322,1341,1361,1381,1402,1422,1441,1461,1480,1501,1522,1541,1561,1581,1602,1620],"xSR":741.5,"ySR":573.95,"xT1":424.9,"yT1":0,"xT2":1058.1,"yT2":0,"toosoon":0,"cond_shown":"Congruent","ratio_trial":300,"L_num":1,"L_den":30,"R_num":8,"R_den":24,"correct_side":2,"subjID":"JuAnMaNuElMeRcHaNrOdRiGuEZ27Xd","gender":"0","school":"6","age":"12"},{"start_time":1551899908352,"click_time":1551899910275,"finger_time":1551899909716,"fix_duration":895.945318471053,"trial":28,"RT":1364,"MT":559,"sideResp":1,"stimulus":[],"xmouse":[791,791,791,791,791,791,791,791,791,791,791,791,791,791,791,791,791,791,792,792,792,792,792,793,793,795,796,798,798,798,798,798,798,798,799,799,799,799,799,799,800,801,803,803,803,803,803,803,803,803,803,803,803,803,803,803,803,803,803,803,803,803,803,803,803,790,773,754,737,725,711,710,709,708,707,700,688,672,665,661,652,637,591,552,518,496,490,490,492,493,498,503,505,508,508,511,512],"ymouse":[608,608,608,608,608,608,608,608,608,608,608,607,606,606,606,606,606,605,605,605,604,604,604,604,603,600,598,595,594,594,594,594,594,594,593,593,592,592,592,592,591,586,583,583,583,582,582,582,582,582,582,582,582,582,582,582,582,582,582,582,582,582,582,582,582,590,599,610,620,627,636,638,638,640,642,649,655,661,662,662,640,584,455,363,278,219,168,153,142,137,128,122,121,115,112,101,97],"timestamp_mouse":[17,33,44,63,83,104,123,143,163,183,203,224,243,264,283,303,323,344,362,383,403,423,443,463,483,503,523,543,562,583,603,624,642,663,683,703,723,743,763,782,803,824,844,864,883,904,923,943,963,983,1003,1023,1044,1063,1083,1103,1124,1144,1163,1182,1203,1222,1242,1264,1283,1303,1323,1344,1364,1382,1403,1423,1443,1463,1484,1503,1522,1543,1563,1583,1603,1624,1643,1662,1683,1702,1723,1743,1764,1783,1803,1822,1843,1863,1883,1903,1923],"xSR":741.5,"ySR":573.95,"xT1":424.9,"yT1":0,"xT2":1058.1,"yT2":0,"toosoon":0,"cond_shown":"Incongruent","ratio_trial":300,"L_num":4,"L_den":5,"R_num":8,"R_den":16,"correct_side":1,"subjID":"JuAnMaNuElMeRcHaNrOdRiGuEZ27Xd","gender":"0","school":"6","age":"12"},{"start_time":1551899912431,"click_time":1551899914695,"finger_time":1551899913816,"fix_duration":1335.212625381738,"trial":29,"RT":1385,"MT":879,"sideResp":1,"stimulus":[],"xmouse":[789,789,789,789,789,789,789,789,789,789,789,789,789,789,789,789,789,789,789,789,789,789,789,789,789,789,789,789,789,789,789,789,789,789,789,789,789,789,789,789,789,789,789,789,789,789,789,789,789,789,789,789,789,789,789,789,789,789,789,789,789,789,789,789,789,789,783,763,747,738,715,699,693,687,677,666,631,615,595,587,584,576,569,556,542,530,519,517,516,515,515,513,513,512,511,509,505,501,495,493,493,493,493,493,493,493,493,493,493,493,492,492,492,491],"ymouse":[618,618,618,618,618,618,618,618,618,618,618,618,618,618,618,618,618,618,618,618,618,618,618,618,618,618,618,618,618,618,618,618,618,618,618,618,618,618,618,618,618,618,618,618,618,618,618,618,618,618,618,618,618,618,618,618,618,618,618,618,618,618,618,618,618,618,612,592,577,569,550,533,520,504,483,458,398,369,335,320,313,295,280,260,242,223,195,186,173,166,159,146,141,136,131,126,116,112,108,107,107,107,107,107,107,107,107,107,107,107,107,104,100,97],"timestamp_mouse":[8,24,45,63,84,105,124,144,164,185,203,224,244,264,284,304,324,344,364,385,403,424,445,464,484,505,524,544,565,584,604,625,643,664,685,705,723,744,764,784,804,824,844,864,885,904,924,944,964,984,1003,1025,1045,1064,1084,1104,1124,1145,1164,1185,1204,1224,1245,1263,1284,1304,1324,1345,1364,1385,1405,1424,1444,1463,1484,1504,1524,1544,1564,1584,1605,1624,1645,1665,1684,1704,1723,1745,1764,1785,1804,1824,1843,1864,1885,1904,1924,1944,1964,1984,2004,2024,2044,2064,2085,2104,2125,2144,2165,2184,2203,2224,2245,2264],"xSR":741.5,"ySR":573.95,"xT1":424.9,"yT1":0,"xT2":1058.1,"yT2":0,"toosoon":0,"cond_shown":"Incongruent","ratio_trial":200,"L_num":4,"L_den":6,"R_num":14,"R_den":30,"correct_side":1,"subjID":"JuAnMaNuElMeRcHaNrOdRiGuEZ27Xd","gender":"0","school":"6","age":"12"},{"start_time":1551899916107,"click_time":1551899917776,"finger_time":1551899917595,"fix_duration":250,"trial":30,"RT":1488,"MT":181,"sideResp":2,"stimulus":[],"xmouse":[791,791,791,791,791,791,791,791,791,791,791,791,791,791,791,791,791,791,791,791,791,791,791,791,791,791,791,791,791,791,791,791,791,791,791,791,791,791,791,791,791,791,791,791,791,791,791,791,791,791,791,791,791,791,791,791,791,791,791,791,791,791,791,791,791,791,792,792,792,793,794,795,799,804,809,819,828,862,887,914,954,994,1048,1061],"ymouse":[596,596,596,596,596,596,596,596,596,596,596,596,596,596,596,596,596,596,596,596,596,596,596,596,596,596,596,596,596,596,596,596,596,596,596,596,596,596,596,596,596,596,596,596,596,596,596,596,596,596,596,596,596,596,596,596,596,596,596,596,596,596,596,596,596,595,595,595,595,592,591,590,581,574,564,542,521,457,415,353,274,202,100,74],"timestamp_mouse":[13,34,48,69,88,109,128,148,167,189,207,228,248,269,289,309,329,348,367,389,409,427,449,468,489,509,528,548,569,589,609,628,647,668,688,708,729,748,768,789,809,827,849,868,889,907,929,949,969,988,1008,1029,1049,1069,1089,1107,1129,1149,1169,1189,1208,1228,1249,1268,1289,1308,1328,1348,1369,1388,1409,1429,1449,1469,1488,1509,1529,1548,1568,1588,1609,1628,1648,1668],"xSR":741.5,"ySR":573.95,"xT1":424.9,"yT1":0,"xT2":1058.1,"yT2":0,"toosoon":0,"cond_shown":"Congruent","ratio_trial":300,"L_num":1,"L_den":30,"R_num":8,"R_den":24,"correct_side":2,"subjID":"JuAnMaNuElMeRcHaNrOdRiGuEZ27Xd","gender":"0","school":"6","age":"12"},{"start_time":1551899918928,"click_time":1551899921035,"finger_time":1551899919535,"fix_duration":250,"trial":31,"RT":607,"MT":1500,"sideResp":1,"stimulus":[],"xmouse":[762,762,762,763,764,765,766,768,769,769,771,772,773,774,775,775,776,776,776,776,776,776,777,777,777,779,787,791,800,811,828,876,902,935,951,964,990,999,1010,1022,1036,1064,1075,1082,1085,1086,1086,1086,1086,1086,1086,1082,1068,1042,963,883,748,716,695,686,682,680,680,680,679,679,685,689,695,701,708,725,733,739,745,750,753,753,755,756,759,767,769,771,771,771,772,772,773,773,773,757,733,693,604,547,462,439,424,416,410,406,409,412,423,430],"ymouse":[649,649,648,647,644,644,641,639,638,638,636,635,634,632,631,631,630,630,629,629,629,629,628,628,628,626,617,611,601,588,567,503,466,411,382,358,313,291,265,238,205,152,133,119,111,108,107,106,106,106,106,105,116,136,238,347,582,665,720,753,773,788,789,789,789,789,785,778,768,753,739,702,687,676,666,659,655,654,653,651,649,640,638,636,636,636,635,635,634,631,624,591,555,498,401,339,228,191,158,134,114,87,69,63,42,28],"timestamp_mouse":[8,38,47,67,88,108,127,148,167,187,208,227,247,267,287,307,327,347,368,387,407,428,448,467,487,507,527,547,568,588,607,627,648,667,688,708,727,747,767,787,808,828,846,866,887,908,927,948,967,987,1008,1027,1047,1067,1088,1107,1126,1147,1167,1187,1207,1227,1248,1267,1287,1307,1327,1347,1367,1387,1407,1427,1446,1468,1488,1508,1527,1547,1567,1587,1608,1626,1647,1667,1687,1708,1727,1747,1767,1788,1807,1827,1847,1867,1887,1907,1927,1947,1967,1987,2007,2027,2047,2067,2088,2107],"xSR":741.5,"ySR":573.95,"xT1":424.9,"yT1":0,"xT2":1058.1,"yT2":0,"toosoon":0,"cond_shown":"Incongruent","ratio_trial":200,"L_num":7,"L_den":10,"R_num":8,"R_den":16,"correct_side":1,"subjID":"JuAnMaNuElMeRcHaNrOdRiGuEZ27Xd","gender":"0","school":"6","age":"12"},{"start_time":1551899930788,"click_time":1551899932375,"finger_time":1551899932036,"fix_duration":250,"trial":32,"RT":1248,"MT":339,"sideResp":2,"stimulus":[],"xmouse":[794,794,794,794,794,794,794,794,794,794,794,794,794,794,794,794,794,794,794,794,794,794,794,794,794,794,794,794,794,794,794,794,794,794,794,794,794,794,794,794,794,794,794,794,794,794,794,794,794,794,794,794,794,799,802,802,802,803,803,806,811,820,835,886,919,957,989,1020,1058,1066,1066,1066,1066,1061,1060,1059,1059,1059,1059,1060],"ymouse":[630,630,630,630,630,630,630,630,630,627,624,624,624,624,624,624,624,624,624,623,623,623,623,623,623,623,623,623,623,623,623,623,623,623,623,623,623,623,623,623,623,623,623,623,623,623,623,623,623,623,623,622,620,612,609,607,606,605,605,601,593,578,552,461,403,337,269,193,51,0,0,0,0,0,0,0,0,0,0,5],"timestamp_mouse":[9,29,47,67,87,107,127,147,167,187,208,227,247,267,287,307,327,348,367,388,407,426,448,467,487,507,528,547,568,588,607,628,647,667,688,707,728,748,767,788,808,828,848,867,888,907,927,948,967,988,1007,1027,1048,1067,1087,1106,1127,1147,1167,1188,1207,1227,1248,1267,1288,1307,1327,1348,1366,1386,1407,1428,1447,1467,1486,1507,1527,1548,1567,1586],"xSR":741.5,"ySR":573.95,"xT1":424.9,"yT1":0,"xT2":1058.1,"yT2":0,"toosoon":0,"cond_shown":"Incongruent","ratio_trial":300,"L_num":4,"L_den":20,"R_num":2,"R_den":4,"correct_side":2,"subjID":"JuAnMaNuElMeRcHaNrOdRiGuEZ27Xd","gender":"0","school":"6","age":"12"},{"start_time":1551899936351,"click_time":1551899937895,"finger_time":1551899937695,"fix_duration":1133.210520813654,"trial":33,"RT":1344,"MT":200,"sideResp":1,"stimulus":[],"xmouse":[766,766,766,766,766,766,767,767,767,767,767,769,769,770,770,770,770,770,770,770,770,770,770,770,770,770,770,771,771,772,772,772,773,773,773,773,773,773,773,773,773,773,773,773,773,773,773,767,759,752,744,744,744,744,744,744,744,744,744,744,744,744,744,744,744,744,744,739,736,722,685,658,629,589,567,535,529,521],"ymouse":[634,634,634,634,634,634,634,634,634,634,634,630,627,624,624,623,623,622,622,622,622,622,622,622,622,622,622,621,620,620,620,620,620,620,620,620,620,620,620,620,620,620,620,620,620,620,620,616,612,610,607,607,607,607,607,607,607,607,607,607,607,607,607,607,607,607,607,602,598,583,530,489,432,334,260,111,54,8],"timestamp_mouse":[7,36,44,64,84,104,124,144,163,184,204,223,244,264,284,305,324,345,364,384,405,424,444,464,483,505,525,544,564,584,605,625,644,664,685,705,724,744,764,785,804,825,843,864,884,903,924,945,965,984,1004,1023,1045,1065,1085,1103,1125,1145,1164,1184,1205,1224,1243,1265,1284,1304,1325,1344,1364,1384,1403,1423,1445,1465,1484,1504,1524,1544],"xSR":741.5,"ySR":573.95,"xT1":424.9,"yT1":0,"xT2":1058.1,"yT2":0,"toosoon":0,"cond_shown":"Incongruent","ratio_trial":300,"L_num":8,"L_den":10,"R_num":9,"R_den":18,"correct_side":1,"subjID":"JuAnMaNuElMeRcHaNrOdRiGuEZ27Xd","gender":"0","school":"6","age":"12"},{"start_time":1551899940097,"click_time":1551899941355,"finger_time":1551899941136,"fix_duration":1301.3849756387087,"trial":34,"RT":1039,"MT":219,"sideResp":1,"stimulus":[],"xmouse":[802,802,799,799,799,798,798,798,798,798,798,798,798,798,798,798,798,798,798,798,798,798,798,798,798,799,801,804,804,804,804,804,804,804,804,804,804,804,804,804,804,804,804,804,804,804,804,804,803,795,782,760,697,656,598,574,556,537,536,534,531,525,513],"ymouse":[614,614,626,628,632,634,635,635,635,635,635,635,635,635,635,635,635,635,635,635,635,635,635,635,635,634,633,631,631,631,631,631,631,631,631,631,631,631,631,631,631,631,631,631,631,631,631,631,625,607,577,528,395,328,248,215,190,160,155,150,141,127,87],"timestamp_mouse":[29,39,57,78,98,118,138,159,177,199,219,238,259,278,297,319,338,358,377,398,419,439,459,479,498,519,537,558,578,599,618,638,658,678,698,719,738,757,777,798,817,838,858,879,899,917,939,958,978,998,1018,1039,1058,1079,1098,1118,1138,1158,1178,1198,1219,1239,1258],"xSR":741.5,"ySR":573.95,"xT1":424.9,"yT1":0,"xT2":1058.1,"yT2":0,"toosoon":0,"cond_shown":"Incongruent","ratio_trial":200,"L_num":4,"L_den":6,"R_num":14,"R_den":30,"correct_side":1,"subjID":"JuAnMaNuElMeRcHaNrOdRiGuEZ27Xd","gender":"0","school":"6","age":"12"},{"start_time":1551899942871,"click_time":1551899944636,"finger_time":1551899943216,"fix_duration":473.827656099429,"trial":35,"RT":345,"MT":1420,"sideResp":2,"stimulus":[],"xmouse":[809,809,809,809,809,809,809,809,809,809,809,809,809,809,809,805,796,788,778,765,762,761,761,761,761,761,761,761,761,761,761,761,761,761,761,761,761,761,762,772,780,788,795,801,809,811,814,815,815,815,815,815,815,815,815,815,815,815,815,815,815,815,815,815,815,815,815,815,815,815,815,815,815,815,815,815,815,815,815,815,818,823,835,850,916,957,1005,1035,1061],"ymouse":[612,612,612,612,612,612,612,612,612,612,612,612,612,612,612,603,587,573,557,534,528,527,527,527,527,527,527,527,527,527,527,527,527,527,527,527,527,528,530,551,566,581,594,607,626,634,640,641,642,642,643,643,643,643,643,643,643,643,643,643,643,643,643,643,643,643,643,643,643,643,643,643,643,643,643,643,643,643,643,642,638,629,613,587,463,371,216,111,19],"timestamp_mouse":[8,30,44,64,84,105,124,144,164,184,204,224,244,265,284,304,324,345,364,384,404,424,445,465,485,505,525,544,564,585,604,625,644,664,685,704,724,744,764,784,804,824,844,864,883,905,924,944,964,985,1004,1025,1044,1066,1086,1106,1125,1145,1165,1186,1205,1225,1246,1266,1286,1305,1325,1345,1365,1384,1405,1426,1446,1466,1486,1504,1526,1546,1566,1585,1605,1626,1646,1666,1685,1705,1726,1745,1765],"xSR":741.5,"ySR":573.95,"xT1":424.9,"yT1":0,"xT2":1058.1,"yT2":0,"toosoon":0,"cond_shown":"Incongruent","ratio_trial":200,"L_num":7,"L_den":10,"R_num":12,"R_den":24,"correct_side":1,"subjID":"JuAnMaNuElMeRcHaNrOdRiGuEZ27Xd","gender":"0","school":"6","age":"12"},{"start_time":1551899946594,"click_time":1551899949036,"finger_time":1551899948876,"fix_duration":1115.2845364280602,"trial":36,"RT":2282,"MT":160,"sideResp":1,"stimulus":[],"xmouse":[786,786,785,785,784,784,784,784,784,784,784,784,784,784,784,784,784,784,784,784,784,784,784,784,784,784,784,784,784,784,784,784,784,784,784,784,784,784,784,784,784,784,784,784,784,784,784,784,784,784,784,784,784,784,784,784,784,784,784,784,784,784,784,784,784,784,784,784,784,784,784,784,784,784,784,784,784,784,784,784,784,784,784,784,784,784,784,784,784,784,784,784,784,784,784,784,784,784,784,784,784,784,784,780,779,778,777,776,771,767,762,754,753,750,739,702,638,577,497,480,475,475,475],"ymouse":[631,631,632,632,633,633,633,633,633,633,633,633,633,633,633,633,633,633,633,633,633,633,633,633,633,633,633,633,633,633,633,633,633,633,633,633,633,633,633,633,633,633,633,633,633,633,633,633,633,633,633,633,633,633,633,633,633,633,633,633,633,633,633,633,633,633,633,633,633,633,633,633,633,633,633,633,633,633,633,633,633,633,633,633,633,633,633,633,633,633,633,633,634,634,634,634,634,634,634,634,634,634,634,637,638,639,639,639,643,648,654,661,662,662,643,577,470,365,207,157,123,105,97],"timestamp_mouse":[11,22,43,62,82,102,122,143,162,182,203,222,243,261,283,302,322,342,362,382,402,422,443,462,483,502,522,543,561,582,603,622,642,662,682,702,722,742,761,783,803,823,842,862,882,903,923,942,962,981,1001,1022,1042,1062,1083,1102,1122,1142,1162,1182,1203,1221,1242,1263,1283,1302,1322,1342,1362,1383,1402,1422,1442,1462,1483,1502,1523,1542,1561,1583,1602,1622,1643,1663,1681,1702,1723,1742,1761,1783,1803,1821,1842,1863,1882,1902,1923,1942,1962,1982,2002,2023,2041,2063,2082,2102,2123,2143,2162,2182,2202,2222,2242,2262,2282,2302,2322,2342,2362,2383,2402,2422,2442],"xSR":741.5,"ySR":573.95,"xT1":424.9,"yT1":0,"xT2":1058.1,"yT2":0,"toosoon":0,"cond_shown":"Incongruent","ratio_trial":100,"L_num":9,"L_den":10,"R_num":20,"R_den":25,"correct_side":1,"subjID":"JuAnMaNuElMeRcHaNrOdRiGuEZ27Xd","gender":"0","school":"6","age":"12"},{"start_time":1551899952135,"click_time":1551899954156,"finger_time":1551899953636,"fix_duration":897.0022600756015,"trial":37,"RT":1501,"MT":520,"sideResp":2,"stimulus":[],"xmouse":[791,791,791,791,791,791,791,791,791,791,791,791,791,791,791,791,791,791,791,791,791,791,791,791,791,791,791,791,791,791,791,791,791,791,791,791,791,791,791,791,791,791,791,791,791,791,791,791,791,791,791,791,791,791,791,791,791,791,791,791,791,791,791,791,791,791,791,791,791,791,791,791,791,791,796,804,816,823,833,848,864,916,950,961,969,976,983,986,987,988,988,989,992,998,1005,1011,1019,1020,1021,1025,1035,1061],"ymouse":[652,652,652,652,652,652,652,652,651,650,649,648,647,647,647,646,646,646,646,646,646,646,646,646,646,646,646,646,646,646,646,646,646,646,646,646,646,646,646,646,646,646,646,646,646,646,646,646,646,646,646,646,646,646,646,646,646,646,646,646,646,646,646,646,646,646,646,646,646,646,646,646,640,631,589,545,460,431,400,360,323,228,170,147,128,112,94,90,88,88,88,87,87,86,84,84,83,83,83,83,82,73],"timestamp_mouse":[9,21,41,61,82,101,122,142,162,181,202,222,241,260,282,302,321,341,361,381,401,422,441,461,481,501,521,542,561,581,601,622,642,661,682,702,721,741,761,781,801,821,842,861,881,901,922,941,961,981,1001,1021,1042,1062,1081,1101,1120,1142,1162,1181,1200,1221,1241,1261,1281,1302,1321,1341,1361,1382,1402,1422,1442,1462,1482,1501,1521,1540,1561,1581,1601,1621,1642,1660,1681,1701,1721,1741,1761,1781,1801,1821,1842,1861,1882,1901,1921,1941,1961,1981,2002,2021],"xSR":741.5,"ySR":573.95,"xT1":424.9,"yT1":0,"xT2":1058.1,"yT2":0,"toosoon":0,"cond_shown":"Congruent","ratio_trial":100,"L_num":4,"L_den":8,"R_num":6,"R_den":10,"correct_side":2,"subjID":"JuAnMaNuElMeRcHaNrOdRiGuEZ27Xd","gender":"0","school":"6","age":"12"},{"start_time":1551899956946,"click_time":1551899958818,"finger_time":1551899958496,"fix_duration":1488.850678368276,"trial":38,"RT":1550,"MT":322,"sideResp":2,"stimulus":[],"xmouse":[800,800,800,800,800,800,800,800,800,800,800,800,800,800,800,800,800,800,800,800,800,800,800,800,800,800,800,800,800,800,800,800,800,800,800,800,800,800,800,800,800,800,800,800,800,800,800,800,800,800,800,800,800,800,800,800,800,800,800,800,800,800,800,800,800,800,800,800,800,800,800,800,800,800,800,800,808,819,840,868,922,946,973,992,1004,1021,1026,1029,1032,1036,1044,1048,1057,1063],"ymouse":[613,613,613,613,613,613,613,613,613,613,613,613,613,613,613,613,613,613,613,613,613,613,613,613,613,613,613,613,613,613,613,613,613,613,613,613,613,613,613,613,613,613,613,613,613,613,613,613,613,613,613,613,613,613,613,613,613,613,613,613,613,613,613,613,613,613,613,613,613,613,613,613,613,613,613,605,587,560,514,452,320,244,146,98,75,47,38,34,29,25,18,16,12,11],"timestamp_mouse":[10,39,51,70,91,110,131,151,170,190,211,229,250,270,290,310,330,350,371,390,411,430,450,470,490,510,530,551,570,590,610,629,650,670,690,710,731,751,770,791,810,830,850,870,890,910,930,951,970,991,1010,1030,1051,1070,1090,1109,1130,1150,1169,1190,1211,1231,1249,1270,1290,1309,1330,1351,1370,1389,1410,1431,1450,1471,1490,1510,1530,1550,1570,1590,1610,1631,1649,1669,1690,1711,1730,1751,1771,1791,1810,1830,1850,1871],"xSR":741.5,"ySR":573.95,"xT1":424.9,"yT1":0,"xT2":1058.1,"yT2":0,"toosoon":0,"cond_shown":"Incongruent","ratio_trial":200,"L_num":9,"L_den":15,"R_num":8,"R_den":10,"correct_side":2,"subjID":"JuAnMaNuElMeRcHaNrOdRiGuEZ27Xd","gender":"0","school":"6","age":"12"},{"start_time":1551899960528,"click_time":1551899962356,"finger_time":1551899961936,"fix_duration":710.473916244343,"trial":39,"RT":1408,"MT":420,"sideResp":1,"stimulus":[],"xmouse":[805,805,805,805,805,805,805,805,805,805,805,805,805,805,805,805,806,806,806,806,806,806,806,806,807,807,807,807,807,807,807,807,807,807,807,807,807,807,807,807,807,807,807,807,807,807,807,807,807,807,807,807,807,807,807,807,808,808,808,808,808,808,808,808,808,808,808,804,800,794,760,666,650,645,644,644,644,644,643,642,637,611,591,561,552,549,547,544,539,534,529,506],"ymouse":[630,630,630,630,630,630,630,630,630,630,630,630,630,630,630,630,629,628,626,626,626,625,625,625,625,625,625,625,625,624,624,624,624,624,624,624,624,624,624,624,624,624,624,624,624,624,624,624,624,624,624,624,624,624,624,624,623,623,623,623,623,623,623,623,623,623,616,610,598,577,507,261,181,144,125,121,121,121,120,118,106,68,48,27,23,23,23,23,23,23,25,40],"timestamp_mouse":[9,28,48,68,88,109,129,149,168,187,209,228,248,268,288,307,328,348,367,389,408,428,448,468,488,508,528,548,569,588,609,629,648,668,688,708,728,748,769,789,809,828,848,869,889,908,929,948,969,989,1010,1028,1049,1068,1088,1109,1129,1149,1169,1187,1209,1228,1248,1269,1288,1308,1328,1348,1369,1388,1408,1428,1449,1469,1489,1509,1528,1548,1568,1588,1608,1627,1648,1667,1688,1708,1729,1748,1768,1788,1808,1828],"xSR":741.5,"ySR":573.95,"xT1":424.9,"yT1":0,"xT2":1058.1,"yT2":0,"toosoon":0,"cond_shown":"Incongruent","ratio_trial":200,"L_num":3,"L_den":4,"R_num":11,"R_den":20,"correct_side":1,"subjID":"JuAnMaNuElMeRcHaNrOdRiGuEZ27Xd","gender":"0","school":"6","age":"12"},{"start_time":1551899971641,"click_time":1551899973517,"finger_time":1551899973216,"fix_duration":804.1254319379599,"trial":40,"RT":1575,"MT":301,"sideResp":1,"stimulus":[],"xmouse":[813,813,813,813,813,813,813,813,813,813,813,813,813,813,813,813,813,813,813,813,813,813,813,813,813,813,813,813,813,813,813,813,813,813,813,813,813,813,813,813,813,813,813,813,813,813,813,813,813,813,813,813,813,813,813,813,813,813,813,813,813,813,813,813,813,813,813,813,813,813,813,813,813,813,813,813,807,795,783,720,601,544,501,483,479,480,480,480,480,479,478,478,478,478],"ymouse":[626,626,626,626,626,626,626,626,626,626,626,626,626,626,626,626,626,626,626,626,626,626,626,626,626,626,626,626,626,626,626,626,626,626,626,626,626,626,626,626,626,626,626,626,626,626,626,626,626,626,626,626,626,626,626,626,626,626,626,626,626,626,626,626,626,626,626,626,626,626,626,626,626,626,626,626,616,595,573,479,327,250,190,154,134,128,125,120,116,111,108,105,101,95],"timestamp_mouse":[15,37,54,76,96,114,135,155,176,194,215,235,256,275,296,315,336,355,375,396,416,435,455,474,496,515,535,555,576,595,615,635,655,676,696,715,736,755,775,795,815,836,855,875,895,915,936,955,976,994,1016,1036,1054,1075,1096,1116,1135,1155,1175,1194,1215,1236,1256,1276,1295,1316,1334,1355,1375,1395,1415,1436,1456,1475,1496,1515,1536,1555,1575,1595,1615,1635,1655,1676,1696,1715,1735,1754,1775,1795,1816,1835,1855,1876],"xSR":741.5,"ySR":573.95,"xT1":424.9,"yT1":0,"xT2":1058.1,"yT2":0,"toosoon":0,"cond_shown":"Congruent","ratio_trial":100,"L_num":3,"L_den":20,"R_num":4,"R_den":16,"correct_side":2,"subjID":"JuAnMaNuElMeRcHaNrOdRiGuEZ27Xd","gender":"0","school":"6","age":"12"},{"start_time":1551899974608,"click_time":1551899976616,"finger_time":1551899976217,"fix_duration":250,"trial":41,"RT":1609,"MT":399,"sideResp":2,"stimulus":[],"xmouse":[774,774,776,776,777,777,777,777,777,777,777,777,777,777,777,777,777,777,777,777,777,777,777,777,777,777,777,777,777,777,777,777,773,772,772,772,772,772,772,772,772,771,769,768,767,767,767,767,767,767,767,767,767,767,767,767,767,767,767,767,767,767,767,767,767,767,767,767,767,767,767,767,767,767,769,772,774,785,797,812,834,869,920,946,968,988,1011,1036,1041,1044,1047,1048,1055,1058,1059,1059,1059,1060,1061,1063,1069],"ymouse":[659,656,652,649,648,646,645,645,645,645,645,645,645,645,645,645,645,645,645,645,645,645,645,645,645,645,645,645,645,645,645,644,643,643,643,643,643,643,643,643,643,643,642,642,642,642,642,642,642,642,642,642,642,642,642,642,642,642,642,642,642,642,642,642,642,642,642,642,642,642,642,642,642,642,642,642,641,627,610,587,548,472,351,295,243,195,144,80,53,33,16,4,0,0,0,0,0,0,0,0,1],"timestamp_mouse":[8,28,48,68,89,108,128,149,168,189,208,229,248,268,289,308,329,348,367,389,408,428,448,469,488,507,528,549,569,589,609,629,649,668,688,709,728,748,768,788,808,829,848,868,889,909,928,949,968,989,1008,1028,1048,1068,1088,1108,1128,1148,1168,1188,1207,1228,1248,1268,1288,1307,1328,1348,1369,1389,1408,1428,1448,1468,1488,1508,1528,1548,1568,1589,1609,1629,1648,1669,1689,1709,1728,1748,1768,1788,1809,1829,1849,1868,1889,1908,1928,1949,1968,1988,2008],"xSR":741.5,"ySR":573.95,"xT1":424.9,"yT1":0,"xT2":1058.1,"yT2":0,"toosoon":0,"cond_shown":"Incongruent","ratio_trial":100,"L_num":13,"L_den":26,"R_num":12,"R_den":20,"correct_side":2,"subjID":"JuAnMaNuElMeRcHaNrOdRiGuEZ27Xd","gender":"0","school":"6","age":"12"},{"start_time":1551899978800,"click_time":1551899980376,"finger_time":1551899980297,"fix_duration":1321.4956599530021,"trial":42,"RT":1497,"MT":79,"sideResp":1,"stimulus":[],"xmouse":[784,784,784,784,784,784,784,784,784,784,784,784,784,784,784,784,784,784,784,784,784,784,784,784,784,784,784,784,784,784,784,784,784,784,784,784,784,784,784,784,784,784,784,784,784,784,784,784,784,784,784,784,784,784,784,784,784,784,784,784,784,784,784,784,784,784,784,784,784,784,784,784,776,749,704,645,575,469,430],"ymouse":[608,608,608,608,608,608,608,608,608,608,608,608,608,608,608,608,608,608,608,608,608,608,608,608,608,608,608,608,608,608,608,608,608,608,608,608,608,608,608,608,608,608,608,608,608,608,608,608,608,608,608,608,608,608,608,608,608,608,608,608,608,608,608,608,608,608,608,608,608,608,608,608,604,576,529,460,372,157,37],"timestamp_mouse":[18,36,56,77,97,116,136,157,176,196,216,237,257,276,296,316,336,357,376,396,417,436,456,476,496,517,537,556,576,596,616,636,657,676,696,716,737,756,776,796,816,836,857,876,896,915,937,957,976,996,1017,1036,1056,1077,1096,1117,1136,1157,1177,1196,1217,1237,1256,1276,1296,1315,1337,1356,1377,1395,1417,1436,1456,1476,1497,1516,1536,1556,1576],"xSR":741.5,"ySR":573.95,"xT1":424.9,"yT1":0,"xT2":1058.1,"yT2":0,"toosoon":0,"cond_shown":"Incongruent","ratio_trial":100,"L_num":9,"L_den":18,"R_num":6,"R_den":10,"correct_side":2,"subjID":"JuAnMaNuElMeRcHaNrOdRiGuEZ27Xd","gender":"0","school":"6","age":"12"},{"start_time":1551899981624,"click_time":1551899983416,"finger_time":1551899982936,"fix_duration":525.8591814834296,"trial":43,"RT":1312,"MT":480,"sideResp":1,"stimulus":[],"xmouse":[788,788,788,788,788,788,788,788,788,788,788,788,788,788,788,788,788,788,788,788,788,788,788,788,788,788,788,788,788,788,788,788,788,788,788,788,788,788,788,788,788,788,788,788,788,788,788,788,788,788,788,788,788,788,788,788,788,788,788,788,788,788,788,783,773,726,533,339,251,216,213,219,221,222,223,225,234,247,270,293,328,394,412,421,424,424,424,424,424,425],"ymouse":[611,611,611,611,611,611,611,611,611,611,611,611,611,611,611,611,611,611,611,611,611,611,611,611,611,611,611,611,611,611,611,611,611,611,611,611,611,611,611,611,611,611,611,611,611,611,611,611,611,611,611,611,611,611,611,611,611,611,611,611,611,611,611,606,596,551,362,170,71,19,4,0,0,0,0,0,0,1,4,7,17,37,42,45,46,47,47,47,47,47],"timestamp_mouse":[13,38,52,73,92,112,132,152,173,193,213,232,252,273,292,312,332,353,373,392,412,432,452,473,493,513,533,553,573,592,612,632,652,673,693,713,731,752,773,792,812,833,852,872,893,912,932,953,973,992,1012,1031,1053,1071,1092,1112,1132,1151,1172,1192,1213,1233,1252,1272,1292,1312,1332,1352,1372,1392,1413,1433,1453,1473,1492,1513,1532,1553,1572,1593,1612,1633,1652,1672,1693,1713,1732,1753,1772,1792],"xSR":741.5,"ySR":573.95,"xT1":424.9,"yT1":0,"xT2":1058.1,"yT2":0,"toosoon":0,"cond_shown":"Incongruent","ratio_trial":100,"L_num":6,"L_den":10,"R_num":13,"R_den":26,"correct_side":1,"subjID":"JuAnMaNuElMeRcHaNrOdRiGuEZ27Xd","gender":"0","school":"6","age":"12"},{"start_time":1551899986062,"click_time":1551899987837,"finger_time":1551899987456,"fix_duration":484.86542980491896,"trial":44,"RT":1394,"MT":381,"sideResp":1,"stimulus":[],"xmouse":[779,779,779,779,779,779,779,779,779,779,779,779,779,779,779,779,779,779,779,779,779,779,779,779,779,779,779,779,779,779,779,779,779,779,779,779,779,779,779,779,779,779,779,779,779,779,779,779,779,779,779,779,779,779,779,779,779,779,779,779,779,779,779,779,779,779,779,776,768,733,713,696,672,648,611,608,605,603,601,597,594,588,579,576,572,568,558,532,518],"ymouse":[607,607,607,607,607,607,607,607,607,607,607,607,607,607,607,607,607,607,607,607,607,607,607,607,607,607,607,607,607,607,607,607,607,607,607,607,607,607,607,607,607,607,607,607,607,607,607,607,607,607,607,607,607,607,607,607,607,607,607,607,607,607,607,607,607,607,607,606,599,568,544,516,474,410,275,214,163,144,131,118,111,102,91,88,81,76,68,53,45],"timestamp_mouse":[18,41,54,75,94,115,134,154,174,195,214,234,255,274,294,314,334,354,375,394,414,434,454,474,494,514,534,554,575,593,614,635,655,674,695,715,733,755,774,794,815,834,854,874,894,915,934,955,974,994,1015,1035,1053,1075,1094,1115,1135,1154,1175,1195,1215,1235,1253,1274,1294,1314,1334,1354,1375,1394,1414,1435,1453,1475,1494,1514,1534,1554,1574,1594,1614,1634,1654,1674,1694,1713,1734,1754,1775],"xSR":741.5,"ySR":573.95,"xT1":424.9,"yT1":0,"xT2":1058.1,"yT2":0,"toosoon":0,"cond_shown":"Congruent","ratio_trial":200,"L_num":16,"L_den":20,"R_num":12,"R_den":20,"correct_side":1,"subjID":"JuAnMaNuElMeRcHaNrOdRiGuEZ27Xd","gender":"0","school":"6","age":"12"},{"start_time":1551899989821,"click_time":1551899991536,"finger_time":1551899990136,"fix_duration":1064.7511370186485,"trial":45,"RT":315,"MT":1400,"sideResp":1,"stimulus":[],"xmouse":[803,801,801,801,801,801,800,798,796,795,792,785,776,764,745,730,713,713,713,713,713,713,713,713,713,713,713,713,713,713,713,713,713,718,728,744,785,800,807,807,807,807,807,807,807,807,807,807,807,807,807,807,807,807,807,807,807,807,807,807,807,805,794,774,742,699,598,538,527,501,494,492,492,492,492,492,492,492,492,491,490,480,474,469,464,462],"ymouse":[618,618,618,618,618,618,617,616,616,615,614,611,606,598,587,578,568,568,568,568,568,568,568,568,568,568,568,568,568,568,568,568,568,577,586,599,623,632,636,636,636,636,636,636,636,636,636,636,636,636,636,636,636,636,636,636,636,636,636,636,636,633,625,610,590,561,482,425,409,362,339,297,278,258,242,228,210,198,194,182,173,144,129,117,105,98],"timestamp_mouse":[15,46,54,75,95,115,134,156,175,195,215,235,255,275,295,315,335,355,376,395,416,435,455,475,495,515,535,555,575,595,615,636,655,675,696,715,735,755,775,795,815,835,855,876,895,915,936,955,976,995,1015,1035,1056,1075,1095,1116,1135,1155,1176,1194,1215,1235,1255,1275,1296,1314,1335,1355,1376,1395,1415,1435,1455,1475,1495,1516,1535,1554,1575,1596,1616,1635,1655,1675,1696,1714],"xSR":741.5,"ySR":573.95,"xT1":424.9,"yT1":0,"xT2":1058.1,"yT2":0,"toosoon":0,"cond_shown":"Congruent","ratio_trial":300,"L_num":11,"L_den":22,"R_num":1,"R_den":5,"correct_side":1,"subjID":"JuAnMaNuElMeRcHaNrOdRiGuEZ27Xd","gender":"0","school":"6","age":"12"},{"start_time":1551899993111,"click_time":1551899995376,"finger_time":1551899994856,"fix_duration":594.8105177060862,"trial":46,"RT":1745,"MT":520,"sideResp":2,"stimulus":[],"xmouse":[811,811,811,811,811,811,811,811,811,811,811,811,811,811,811,811,811,811,811,811,811,811,811,811,811,811,811,811,811,811,811,811,811,811,811,811,811,811,811,811,811,811,811,811,811,811,811,811,811,811,811,811,811,811,811,811,811,811,811,811,811,811,811,811,811,811,812,813,813,813,813,813,813,813,813,813,813,812,812,812,812,812,812,812,812,815,827,852,865,883,906,937,995,1015,1042,1056,1066,1084,1092,1106,1119,1134,1164,1174,1180,1181,1182,1182,1182,1182,1182,1181,1164,1152],"ymouse":[627,627,627,627,627,627,627,627,627,627,627,627,627,627,627,627,627,627,627,627,627,627,627,627,627,627,627,627,627,627,627,627,627,627,627,627,627,627,627,627,627,627,627,627,627,627,627,627,627,627,627,627,627,627,627,627,627,627,627,627,627,627,627,627,627,627,625,624,624,624,624,624,624,624,624,624,624,624,624,624,625,625,625,625,623,617,594,547,515,477,426,365,252,218,179,162,151,137,132,125,118,111,97,90,81,78,76,75,75,75,74,73,69,65],"timestamp_mouse":[10,25,45,66,86,105,125,145,165,184,206,225,245,266,284,306,325,346,365,385,405,425,446,466,484,506,526