[{"start_time":1551901243262,"click_time":1551901248830,"finger_time":1551901243271,"fix_duration":988.1152929572294,"trial":0,"RT":9,"MT":5559,"sideResp":1,"stimulus":"img/900/equaldotanddens/L/4_Ratio_900_L_20_R_18.png","xmouse":[786,786,786,786,786,786,786,786,786,786,786,786,786,786,786,786,786,786,786,786,786,786,786,786,786,786,786,786,786,786,786,786,786,786,786,786,786,786,786,786,786,786,786,786,786,786,786,786,786,786,786,786,786,786,786,786,786,786,786,786,786,786,786,786,786,786,786,786,786,786,787,787,788,788,788,788,788,788,789,789,789,789,789,789,789,789,789,789,789,789,789,789,789,789,789,789,789,789,789,789,789,789,789,789,789,789,789,788,788,788,788,788,788,788,787,787,785,785,785,785,785,785,785,785,785,785,785,785,785,785,785,785,785,785,785,785,785,785,785,785,785,785,785,785,785,785,785,785,785,785,785,785,785,785,785,785,785,785,785,785,785,785,785,785,785,785,785,785,785,785,785,785,785,785,785,785,785,785,785,785,785,785,785,785,785,785,785,785,785,785,785,785,785,785,785,785,785,785,785,785,785,785,785,785,785,785,785,785,785,785,785,785,785,785,785,785,785,785,785,785,785,785,785,785,785,785,785,785,785,785,785,785,785,785,785,785,785,785,785,785,785,785,785,785,785,785,783,754,716,637,549,416,362,347,344,343,335,329,327,326,328,349,373,376,377,379,380,381,384,388,393,396,399,399,400,400,404,419,426],"ymouse":[564,564,564,564,564,564,564,564,564,564,564,564,564,564,564,564,564,564,564,564,564,564,564,564,564,564,564,564,564,564,564,564,564,564,564,564,564,564,564,564,564,564,564,564,564,564,564,564,564,564,564,564,564,564,564,564,564,564,564,564,564,564,564,564,564,564,564,572,576,579,581,583,586,588,590,592,593,597,599,601,603,604,606,607,608,609,609,610,610,610,610,610,610,610,610,610,610,610,610,610,610,610,610,610,610,610,610,611,611,612,612,612,612,612,614,615,616,617,617,617,617,617,617,617,617,617,617,617,617,617,617,617,617,617,617,617,617,617,617,617,617,617,617,617,617,617,617,617,617,617,617,617,617,617,617,617,617,617,617,617,617,617,617,617,617,617,617,617,617,617,617,617,617,617,617,617,617,617,617,617,617,617,617,617,617,617,617,617,617,617,617,617,617,617,617,617,617,617,617,617,617,617,617,617,617,617,617,617,617,617,617,617,617,617,617,617,617,617,617,617,617,617,617,617,617,617,617,617,617,617,617,617,617,617,617,617,617,617,617,617,617,617,617,617,617,610,603,534,455,346,239,90,46,34,31,30,20,13,8,2,0,0,0,0,0,0,0,0,2,6,12,17,21,21,22,23,24,30,34],"timestamp_mouse":[9,26,47,67,88,106,128,147,166,187,207,228,247,267,288,307,328,348,367,386,406,427,448,467,488,507,527,546,567,588,607,628,648,667,687,707,726,747,768,788,807,827,847,866,886,907,926,947,966,987,1007,1027,1047,1068,1087,1107,1126,1147,1166,1186,1207,1228,1247,1268,1286,1306,1326,1347,1368,1386,1407,1426,1447,1466,1487,1507,1527,1546,1566,1587,1607,1626,1648,1666,1686,1708,1728,1747,1766,1787,1806,1827,1847,1866,1888,1908,1927,1946,1967,1988,2007,2026,2046,2067,2087,2106,2126,2147,2167,2188,2206,2226,2247,2266,2288,2308,2328,2347,2367,2388,2408,2427,2447,2467,2487,2507,2527,2547,2566,2587,2606,2626,2647,2668,2687,2707,2726,2748,2767,2787,2806,2828,2846,2868,2887,2906,2927,2947,2966,2988,3006,3026,3046,3067,3087,3106,3127,3147,3168,3188,3207,3226,3247,3267,3286,3307,3327,3347,3368,3386,3408,3427,3447,3468,3486,3507,3528,3547,3567,3587,3607,3628,3647,3666,3687,3706,3726,3747,3767,3786,3807,3828,3847,3868,3888,3908,3927,3947,3966,3988,4007,4027,4046,4068,4087,4106,4126,4147,4167,4188,4206,4226,4248,4268,4287,4307,4326,4347,4367,4386,4408,4427,4447,4467,4486,4507,4528,4547,4567,4588,4606,4627,4646,4668,4688,4707,4727,4746,4767,4788,4808,4828,4846,4866,4888,4907,4928,4948,4967,4987,5006,5027,5046,5067,5086,5106,5127,5146,5166,5187,5207,5227,5246,5267,5288,5307,5328,5347,5367,5388,5408,5427,5446,5466,5488,5507,5527,5547,5568],"xSR":741.5,"ySR":501.8,"xT1":424.9,"yT1":0,"xT2":1058.1,"yT2":0,"toosoon":0,"cond_shown":"equaldotanddens","ratio_trial":900,"smaller_num":"18","larger_num":"20","correct_side":1,"subjID":"AndreaNataliaChaparroFigueroa11","gender":"1","age":"11","school":"6","test":{"fix_dur":[250,1500],"timestim":300,"targets_dim":[100,100],"targets_relative_coord":[0.3,0.7],"size_stim":[880,420],"start_dim":[100,100],"size_start":[300,300],"size_fix":60,"samplingrate":20,"img_types":["equaldotsize","equaldotanddens","randomdotsizeEA"],"ratios":[250,500,750,900],"rep_conds":9,"nTrials":120,"trials_to_rest":500,"Trials_order":[34,47,14,115,46,57,5,23,93,8,81,35,17,85,89,51,79,71,62,82,22,117,92,52,43,7,102,70,110,63,107,73,97,3,105,94,9,78,18,113,27,116,30,87,11,41,38,103,106,91,58,72,96,31,114,61,48,0,109,67,19,86,44,1,25,32,40,45,39,69,84,118,90,4,12,68,15,65,53,16,50,98,74,13,59,28,75,60,54,10,83,111,49,99,21,6,80,56,66,112,104,95,37,108,100,2,55,36,77,64,29,20,42,33,119,24,88,26,76,101],"cond_shown":["equaldotanddens","randomdotsizeEA","randomdotsizeEA","equaldotanddens","equaldotanddens","equaldotsize","randomdotsizeEA","randomdotsizeEA","equaldotsize","randomdotsizeEA","equaldotsize","randomdotsizeEA","randomdotsizeEA","equaldotanddens","randomdotsizeEA","equaldotsize","equaldotanddens","randomdotsizeEA","randomdotsizeEA","equaldotanddens","equaldotanddens","equaldotsize","randomdotsizeEA","equaldotanddens","equaldotanddens","equaldotanddens","equaldotsize","equaldotanddens","randomdotsizeEA","equaldotsize","randomdotsizeEA","equaldotanddens","equaldotanddens","equaldotsize","equaldotsize","equaldotanddens","equaldotsize","equaldotsize","equaldotsize","randomdotsizeEA","equaldotsize","randomdotsizeEA","equaldotsize","equaldotsize","randomdotsizeEA","randomdotsizeEA","randomdotsizeEA","equaldotanddens","equaldotanddens","equaldotanddens","equaldotanddens","equaldotsize","equaldotsize","equaldotanddens","equaldotsize","equaldotanddens","equaldotsize","equaldotsize","equaldotanddens","equaldotanddens","equaldotanddens","randomdotsizeEA","randomdotsizeEA","equaldotanddens","equaldotanddens","randomdotsizeEA","equaldotanddens","equaldotsize","equaldotsize","equaldotsize","equaldotsize","equaldotanddens","equaldotsize","equaldotanddens","equaldotsize","randomdotsizeEA","equaldotsize","randomdotsizeEA","randomdotsizeEA","equaldotanddens","randomdotsizeEA","randomdotsizeEA","randomdotsizeEA","equaldotanddens","randomdotsizeEA","equaldotanddens","equaldotsize","equaldotsize","equaldotsize","equaldotanddens","randomdotsizeEA","equaldotsize","equaldotanddens","equaldotsize","equaldotsize","equaldotsize","randomdotsizeEA","randomdotsizeEA","equaldotsize","equaldotanddens","randomdotsizeEA","randomdotsizeEA","equaldotanddens","equaldotsize","equaldotanddens","randomdotsizeEA","equaldotanddens","equaldotsize","randomdotsizeEA","equaldotanddens","randomdotsizeEA","randomdotsizeEA","equaldotsize","equaldotsize","randomdotsizeEA","equaldotsize","equaldotanddens","randomdotsizeEA","equaldotanddens","randomdotsizeEA"],"ratio_trial":[900,900,250,750,900,900,500,900,900,750,900,900,500,250,500,500,750,900,250,900,900,900,750,500,750,750,750,900,250,500,900,250,250,500,900,900,900,750,750,500,500,750,750,500,900,500,250,750,900,750,900,250,250,750,750,250,250,250,250,750,750,250,750,250,250,750,500,900,500,900,250,900,750,500,250,750,500,500,500,500,250,250,250,250,900,500,500,250,750,900,900,500,250,500,900,750,750,750,750,500,750,900,250,250,500,250,750,250,500,500,500,750,750,900,900,250,500,250,500,500],"smaller_num":["18","18","5","15","18","18","1","18","18","3","18","9","2","4","10","2","3","18","3","9","18","9","3","9","3","18","15","18","3","1","9","1","3","6","9","18","18","3","6","3","2","3","9","6","18","2","6","3","9","3","18","3","6","12","3","2","5","2","3","3","3","3","12","3","3","15","1","18","4","18","3","18","3","4","2","15","4","3","2","9","3","6","3","4","18","4","6","3","3","9","18","2","6","6","18","3","15","3","15","4","3","9","2","1","1","1","18","6","2","5","2","3","6","18","9","3","3","2","2","5"],"larger_num":["20","20","20","20","20","20","2","20","20","4","20","10","4","16","20","4","4","20","12","10","20","10","4","18","4","24","20","20","12","2","10","4","12","12","10","20","20","4","8","6","4","4","12","12","20","4","24","4","10","4","20","12","24","16","4","8","20","8","12","4","4","12","16","12","12","20","2","20","8","20","12","20","4","8","8","20","8","6","4","18","12","24","12","16","20","8","12","12","4","10","20","4","24","12","20","4","20","4","20","8","4","10","8","4","2","4","24","24","4","10","4","4","8","20","10","12","6","8","4","10"],"correct_side":[1,1,2,1,1,1,2,1,1,1,1,2,1,1,2,1,1,2,2,2,1,2,2,2,1,1,2,2,1,2,2,2,1,1,2,2,2,1,1,2,1,1,2,1,1,2,1,1,2,2,2,1,1,2,2,2,2,1,2,1,2,2,2,2,1,2,2,2,1,2,2,1,2,1,2,2,1,2,2,2,2,1,1,2,1,1,1,2,1,2,2,2,2,1,2,1,2,2,2,1,2,2,1,2,2,2,1,1,1,2,2,2,2,1,2,2,2,1,1,2],"img_shown":["img/900/equaldotanddens/L/4_Ratio_900_L_20_R_18.png","img/900/randomdotsizeEA/L/2_Ratio_900_L_20_R_18.png","img/250/randomdotsizeEA/R/12_Ratio_250_L_5_R_20.png","img/750/equaldotanddens/L/1_Ratio_750_L_20_R_15.png","img/900/equaldotanddens/L/10_Ratio_900_L_20_R_18.png","img/900/equaldotsize/L/8_Ratio_900_L_20_R_18.png","img/500/randomdotsizeEA/R/12_Ratio_500_L_1_R_2.png","img/900/randomdotsizeEA/L/2_Ratio_900_L_20_R_18.png","img/900/equaldotsize/L/4_Ratio_900_L_20_R_18.png","img/750/randomdotsizeEA/L/10_Ratio_750_L_4_R_3.png","img/900/equaldotsize/L/2_Ratio_900_L_20_R_18.png","img/900/randomdotsizeEA/R/5_Ratio_900_L_9_R_10.png","img/500/randomdotsizeEA/L/5_Ratio_500_L_4_R_2.png","img/250/equaldotanddens/L/2_Ratio_250_L_16_R_4.png","img/500/randomdotsizeEA/R/3_Ratio_500_L_10_R_20.png","img/500/equaldotsize/L/5_Ratio_500_L_4_R_2.png","img/750/equaldotanddens/L/10_Ratio_750_L_4_R_3.png","img/900/randomdotsizeEA/R/9_Ratio_900_L_18_R_20.png","img/250/randomdotsizeEA/R/9_Ratio_250_L_3_R_12.png","img/900/equaldotanddens/R/6_Ratio_900_L_9_R_10.png","img/900/equaldotanddens/L/10_Ratio_900_L_20_R_18.png","img/900/equaldotsize/R/7_Ratio_900_L_9_R_10.png","img/750/randomdotsizeEA/R/7_Ratio_750_L_3_R_4.png","img/500/equaldotanddens/R/1_Ratio_500_L_9_R_18.png","img/750/equaldotanddens/L/10_Ratio_750_L_4_R_3.png","img/750/equaldotanddens/L/6_Ratio_750_L_24_R_18.png","img/750/equaldotsize/R/4_Ratio_750_L_15_R_20.png","img/900/equaldotanddens/R/12_Ratio_900_L_18_R_20.png","img/250/randomdotsizeEA/L/14_Ratio_250_L_12_R_3.png","img/500/equaldotsize/R/15_Ratio_500_L_1_R_2.png","img/900/randomdotsizeEA/R/6_Ratio_900_L_9_R_10.png","img/250/equaldotanddens/R/8_Ratio_250_L_1_R_4.png","img/250/equaldotanddens/L/15_Ratio_250_L_12_R_3.png","img/500/equaldotsize/L/13_Ratio_500_L_12_R_6.png","img/900/equaldotsize/R/15_Ratio_900_L_9_R_10.png","img/900/equaldotanddens/R/11_Ratio_900_L_18_R_20.png","img/900/equaldotsize/R/12_Ratio_900_L_18_R_20.png","img/750/equaldotsize/L/10_Ratio_750_L_4_R_3.png","img/750/equaldotsize/L/14_Ratio_750_L_8_R_6.png","img/500/randomdotsizeEA/R/2_Ratio_500_L_3_R_6.png","img/500/equaldotsize/L/5_Ratio_500_L_4_R_2.png","img/750/randomdotsizeEA/L/9_Ratio_750_L_4_R_3.png","img/750/equaldotsize/R/15_Ratio_750_L_9_R_12.png","img/500/equaldotsize/L/11_Ratio_500_L_12_R_6.png","img/900/randomdotsizeEA/L/2_Ratio_900_L_20_R_18.png","img/500/randomdotsizeEA/R/9_Ratio_500_L_2_R_4.png","img/250/randomdotsizeEA/L/5_Ratio_250_L_24_R_6.png","img/750/equaldotanddens/L/10_Ratio_750_L_4_R_3.png","img/900/equaldotanddens/R/7_Ratio_900_L_9_R_10.png","img/750/equaldotanddens/R/7_Ratio_750_L_3_R_4.png","img/900/equaldotanddens/R/9_Ratio_900_L_18_R_20.png","img/250/equaldotsize/L/14_Ratio_250_L_12_R_3.png","img/250/equaldotsize/L/5_Ratio_250_L_24_R_6.png","img/750/equaldotanddens/R/11_Ratio_750_L_12_R_16.png","img/750/equaldotsize/R/12_Ratio_750_L_3_R_4.png","img/250/equaldotanddens/R/13_Ratio_250_L_2_R_8.png","img/250/equaldotsize/R/12_Ratio_250_L_5_R_20.png","img/250/equaldotsize/L/3_Ratio_250_L_8_R_2.png","img/250/equaldotanddens/R/4_Ratio_250_L_3_R_12.png","img/750/equaldotanddens/L/10_Ratio_750_L_4_R_3.png","img/750/equaldotanddens/R/7_Ratio_750_L_3_R_4.png","img/250/randomdotsizeEA/R/4_Ratio_250_L_3_R_12.png","img/750/randomdotsizeEA/R/11_Ratio_750_L_12_R_16.png","img/250/equaldotanddens/R/4_Ratio_250_L_3_R_12.png","img/250/equaldotanddens/L/15_Ratio_250_L_12_R_3.png","img/750/randomdotsizeEA/R/3_Ratio_750_L_15_R_20.png","img/500/equaldotanddens/R/15_Ratio_500_L_1_R_2.png","img/900/equaldotsize/R/14_Ratio_900_L_18_R_20.png","img/500/equaldotsize/L/8_Ratio_500_L_8_R_4.png","img/900/equaldotsize/R/12_Ratio_900_L_18_R_20.png","img/250/equaldotsize/R/9_Ratio_250_L_3_R_12.png","img/900/equaldotanddens/L/2_Ratio_900_L_20_R_18.png","img/750/equaldotsize/R/12_Ratio_750_L_3_R_4.png","img/500/equaldotanddens/L/8_Ratio_500_L_8_R_4.png","img/250/equaldotsize/R/13_Ratio_250_L_2_R_8.png","img/750/randomdotsizeEA/R/4_Ratio_750_L_15_R_20.png","img/500/equaldotsize/L/8_Ratio_500_L_8_R_4.png","img/500/randomdotsizeEA/R/2_Ratio_500_L_3_R_6.png","img/500/randomdotsizeEA/R/9_Ratio_500_L_2_R_4.png","img/500/equaldotanddens/R/1_Ratio_500_L_9_R_18.png","img/250/randomdotsizeEA/R/9_Ratio_250_L_3_R_12.png","img/250/randomdotsizeEA/L/5_Ratio_250_L_24_R_6.png","img/250/randomdotsizeEA/L/15_Ratio_250_L_12_R_3.png","img/250/equaldotanddens/R/10_Ratio_250_L_4_R_16.png","img/900/randomdotsizeEA/L/10_Ratio_900_L_20_R_18.png","img/500/equaldotanddens/L/8_Ratio_500_L_8_R_4.png","img/500/equaldotsize/L/11_Ratio_500_L_12_R_6.png","img/250/equaldotsize/R/11_Ratio_250_L_3_R_12.png","img/750/equaldotsize/L/8_Ratio_750_L_4_R_3.png","img/900/equaldotanddens/R/6_Ratio_900_L_9_R_10.png","img/900/randomdotsizeEA/R/9_Ratio_900_L_18_R_20.png","img/500/equaldotsize/R/9_Ratio_500_L_2_R_4.png","img/250/equaldotanddens/R/6_Ratio_250_L_6_R_24.png","img/500/equaldotsize/L/11_Ratio_500_L_12_R_6.png","img/900/equaldotsize/R/9_Ratio_900_L_18_R_20.png","img/750/equaldotsize/L/8_Ratio_750_L_4_R_3.png","img/750/randomdotsizeEA/R/4_Ratio_750_L_15_R_20.png","img/750/randomdotsizeEA/R/7_Ratio_750_L_3_R_4.png","img/750/equaldotsize/R/4_Ratio_750_L_15_R_20.png","img/500/equaldotanddens/L/8_Ratio_500_L_8_R_4.png","img/750/randomdotsizeEA/R/7_Ratio_750_L_3_R_4.png","img/900/randomdotsizeEA/R/15_Ratio_900_L_9_R_10.png","img/250/equaldotanddens/L/7_Ratio_250_L_8_R_2.png","img/250/equaldotsize/R/8_Ratio_250_L_1_R_4.png","img/500/equaldotanddens/R/12_Ratio_500_L_1_R_2.png","img/250/randomdotsizeEA/R/8_Ratio_250_L_1_R_4.png","img/750/equaldotanddens/L/6_Ratio_750_L_24_R_18.png","img/250/equaldotsize/L/5_Ratio_250_L_24_R_6.png","img/500/randomdotsizeEA/L/10_Ratio_500_L_4_R_2.png","img/500/equaldotanddens/R/14_Ratio_500_L_5_R_10.png","img/500/randomdotsizeEA/R/9_Ratio_500_L_2_R_4.png","img/750/randomdotsizeEA/R/7_Ratio_750_L_3_R_4.png","img/750/equaldotsize/R/2_Ratio_750_L_6_R_8.png","img/900/equaldotsize/L/10_Ratio_900_L_20_R_18.png","img/900/randomdotsizeEA/R/5_Ratio_900_L_9_R_10.png","img/250/equaldotsize/R/4_Ratio_250_L_3_R_12.png","img/500/equaldotanddens/R/2_Ratio_500_L_3_R_6.png","img/250/randomdotsizeEA/L/7_Ratio_250_L_8_R_2.png","img/500/equaldotanddens/L/10_Ratio_500_L_4_R_2.png","img/500/randomdotsizeEA/R/14_Ratio_500_L_5_R_10.png"],"Rat0":[["12_Ratio_0_L_9_R_0.png","13_Ratio_0_L_6_R_0.png","5_Ratio_0_L_2_R_0.png","6_Ratio_0_L_4_R_0.png","8_Ratio_0_L_6_R_0.png"],["1_Ratio_0_L_0_R_17.png","10_Ratio_0_L_0_R_22.png","11_Ratio_0_L_0_R_1.png","14_Ratio_0_L_0_R_24.png","15_Ratio_0_L_0_R_4.png","2_Ratio_0_L_0_R_5.png","3_Ratio_0_L_0_R_17.png","4_Ratio_0_L_0_R_7.png","7_Ratio_0_L_0_R_19.png","9_Ratio_0_L_0_R_15.png"]],"Rat250":[["1_Ratio_250_L_8_R_2.png","14_Ratio_250_L_12_R_3.png","15_Ratio_250_L_12_R_3.png","2_Ratio_250_L_16_R_4.png","3_Ratio_250_L_8_R_2.png","5_Ratio_250_L_24_R_6.png","7_Ratio_250_L_8_R_2.png"],["10_Ratio_250_L_4_R_16.png","11_Ratio_250_L_3_R_12.png","12_Ratio_250_L_5_R_20.png","13_Ratio_250_L_2_R_8.png","4_Ratio_250_L_3_R_12.png","6_Ratio_250_L_6_R_24.png","8_Ratio_250_L_1_R_4.png","9_Ratio_250_L_3_R_12.png"]],"Rat500":[["10_Ratio_500_L_4_R_2.png","11_Ratio_500_L_12_R_6.png","13_Ratio_500_L_12_R_6.png","4_Ratio_500_L_18_R_9.png","5_Ratio_500_L_4_R_2.png","7_Ratio_500_L_10_R_5.png","8_Ratio_500_L_8_R_4.png"],["1_Ratio_500_L_9_R_18.png","12_Ratio_500_L_1_R_2.png","14_Ratio_500_L_5_R_10.png","15_Ratio_500_L_1_R_2.png","2_Ratio_500_L_3_R_6.png","3_Ratio_500_L_10_R_20.png","6_Ratio_500_L_9_R_18.png","9_Ratio_500_L_2_R_4.png"]],"Rat750":[["1_Ratio_750_L_20_R_15.png","10_Ratio_750_L_4_R_3.png","13_Ratio_750_L_8_R_6.png","14_Ratio_750_L_8_R_6.png","6_Ratio_750_L_24_R_18.png","8_Ratio_750_L_4_R_3.png","9_Ratio_750_L_4_R_3.png"],["11_Ratio_750_L_12_R_16.png","12_Ratio_750_L_3_R_4.png","15_Ratio_750_L_9_R_12.png","2_Ratio_750_L_6_R_8.png","3_Ratio_750_L_15_R_20.png","4_Ratio_750_L_15_R_20.png","5_Ratio_750_L_15_R_20.png","7_Ratio_750_L_3_R_4.png"]],"Rat900":[["1_Ratio_900_L_10_R_9.png","10_Ratio_900_L_20_R_18.png","2_Ratio_900_L_20_R_18.png","4_Ratio_900_L_20_R_18.png","8_Ratio_900_L_20_R_18.png"],["11_Ratio_900_L_18_R_20.png","12_Ratio_900_L_18_R_20.png","13_Ratio_900_L_18_R_20.png","14_Ratio_900_L_18_R_20.png","15_Ratio_900_L_9_R_10.png","3_Ratio_900_L_9_R_10.png","5_Ratio_900_L_9_R_10.png","6_Ratio_900_L_9_R_10.png","7_Ratio_900_L_9_R_10.png","9_Ratio_900_L_18_R_20.png"]],"Rat1000":[["10_Ratio_1000_L_16_R_16.png","11_Ratio_1000_L_6_R_6.png","12_Ratio_1000_L_14_R_14.png","13_Ratio_1000_L_20_R_20.png","15_Ratio_1000_L_15_R_15.png","2_Ratio_1000_L_17_R_17.png","4_Ratio_1000_L_9_R_9.png","5_Ratio_1000_L_6_R_6.png","6_Ratio_1000_L_19_R_19.png","8_Ratio_1000_L_14_R_14.png","9_Ratio_1000_L_25_R_25.png"],["1_Ratio_1000_L_1_R_1.png","14_Ratio_1000_L_17_R_17.png","3_Ratio_1000_L_17_R_17.png","7_Ratio_1000_L_6_R_6.png"]]}},{"start_time":1551901251315,"click_time":1551901255070,"finger_time":1551901252949,"fix_duration":1224.3290259204025,"trial":1,"RT":1634,"MT":2121,"sideResp":1,"stimulus":"img/900/randomdotsizeEA/L/2_Ratio_900_L_20_R_18.png","xmouse":[787,787,787,787,787,787,787,787,787,787,787,787,787,787,787,787,787,787,787,787,787,787,787,787,787,787,787,787,787,787,787,787,787,787,787,787,787,787,787,787,787,787,787,787,787,787,787,787,787,787,787,787,787,787,787,787,787,787,787,787,787,787,787,787,787,787,787,787,787,787,787,787,787,790,792,795,798,799,802,804,805,807,810,827,841,858,869,879,889,909,928,938,948,957,959,960,961,961,961,962,962,962,962,962,962,962,961,957,950,947,944,942,938,935,934,934,934,934,934,934,934,934,934,934,934,934,934,934,934,934,934,934,934,934,934,934,934,934,934,934,934,934,934,934,934,934,934,934,934,934,934,934,934,934,934,931,928,926,925,925,925,925,925,922,916,909,903,898,892,890,886,882,875,863,831,813,796,778,765,737,725,719,713,686,655,608,561,519],"ymouse":[622,622,622,622,622,622,622,622,622,622,622,622,622,622,622,622,622,622,622,622,622,622,622,622,622,622,622,622,622,622,622,622,622,622,622,622,622,622,622,622,622,622,622,622,622,622,622,622,622,622,622,622,622,622,622,622,622,622,622,622,622,622,622,622,622,622,622,622,622,622,622,622,622,622,617,612,607,604,599,590,582,572,557,507,467,429,395,372,352,318,292,281,271,261,258,256,255,255,255,254,254,254,254,254,254,254,254,254,254,255,255,255,255,255,255,255,255,255,255,255,255,255,255,255,255,255,255,255,255,255,255,255,255,255,255,255,255,255,255,255,255,255,255,255,255,255,255,255,255,255,255,255,255,255,255,255,255,255,255,255,255,255,255,254,254,254,254,253,251,251,248,242,231,212,171,152,137,124,113,97,92,91,89,87,87,85,85,83],"timestamp_mouse":[15,51,55,75,94,114,135,154,174,193,214,235,254,274,294,313,333,355,375,393,414,435,454,473,495,513,533,554,573,594,614,634,653,674,695,715,733,754,775,794,813,833,853,875,893,915,934,955,974,993,1015,1033,1053,1075,1094,1113,1135,1153,1173,1193,1214,1233,1253,1273,1294,1313,1334,1354,1374,1394,1413,1433,1453,1473,1494,1514,1534,1554,1573,1594,1613,1634,1655,1675,1693,1713,1734,1754,1774,1794,1814,1834,1854,1875,1894,1913,1935,1954,1975,1994,2013,2033,2054,2075,2093,2114,2134,2153,2175,2193,2214,2234,2254,2273,2295,2315,2334,2353,2373,2395,2414,2434,2454,2474,2494,2515,2534,2553,2575,2594,2613,2634,2654,2674,2695,2714,2734,2753,2775,2793,2814,2834,2854,2874,2894,2914,2933,2953,2975,2994,3014,3033,3053,3075,3094,3113,3134,3155,3174,3194,3213,3234,3253,3275,3293,3314,3335,3354,3374,3393,3413,3434,3454,3474,3494,3515,3534,3553,3575,3595,3615,3633,3654,3674,3693,3713,3734,3754],"xSR":741.5,"ySR":573.95,"xT1":424.9,"yT1":0,"xT2":1058.1,"yT2":0,"toosoon":0,"cond_shown":"randomdotsizeEA","ratio_trial":900,"smaller_num":"18","larger_num":"20","correct_side":1,"subjID":"AndreaNataliaChaparroFigueroa11","gender":"1","age":"11","school":"6"},{"start_time":1551901256730,"click_time":1551901257889,"finger_time":1551901257549,"fix_duration":719.8846954033534,"trial":2,"RT":819,"MT":340,"sideResp":2,"stimulus":"img/250/randomdotsizeEA/R/12_Ratio_250_L_5_R_20.png","xmouse":[810,810,810,810,810,810,810,810,810,810,810,810,810,810,810,810,810,810,810,810,810,810,810,810,810,810,810,810,810,810,810,810,810,810,810,810,810,810,809,808,804,796,788,757,754,754,754,754,754,761,777,801,823,876,911,953,1003,1069],"ymouse":[660,660,660,660,660,660,660,660,660,660,660,660,660,660,660,660,660,660,660,660,660,660,660,660,660,660,660,660,660,660,660,660,660,660,660,660,660,660,642,607,571,525,488,413,400,395,394,394,393,390,382,371,358,313,270,222,160,99],"timestamp_mouse":[18,40,59,79,99,120,140,158,179,199,220,239,258,279,300,320,339,358,379,399,419,438,460,479,499,519,538,560,579,600,620,640,660,678,699,718,740,759,779,799,819,839,858,879,899,919,938,958,979,1000,1018,1038,1058,1079,1099,1120,1139,1159],"xSR":741.5,"ySR":573.95,"xT1":424.9,"yT1":0,"xT2":1058.1,"yT2":0,"toosoon":0,"cond_shown":"randomdotsizeEA","ratio_trial":250,"smaller_num":"5","larger_num":"20","correct_side":2,"subjID":"AndreaNataliaChaparroFigueroa11","gender":"1","age":"11","school":"6"},{"start_time":1551901261245,"click_time":1551901262409,"finger_time":1551901262369,"fix_duration":1153.6423145793456,"trial":3,"RT":1124,"MT":40,"sideResp":1,"stimulus":"img/750/equaldotanddens/L/1_Ratio_750_L_20_R_15.png","xmouse":[775,775,775,775,775,775,775,775,775,775,775,775,775,775,775,775,775,775,775,775,775,775,775,775,775,775,775,775,775,775,775,775,775,775,775,775,775,775,775,775,775,775,775,775,775,775,775,775,775,775,775,775,775,775,775,767,746,694,514],"ymouse":[656,656,656,656,656,656,656,656,656,656,656,656,656,656,656,656,656,656,656,656,656,656,656,656,656,656,656,656,656,656,656,656,656,656,656,656,656,656,656,656,656,656,656,656,656,656,656,656,656,656,656,656,656,656,637,587,493,357,15],"timestamp_mouse":[9,34,43,65,84,104,124,145,164,185,203,224,245,264,284,305,324,345,365,384,404,423,445,464,483,504,525,544,564,583,603,625,644,665,684,704,724,743,764,785,803,824,844,864,883,905,925,944,965,984,1005,1025,1043,1063,1085,1103,1124,1143,1164],"xSR":741.5,"ySR":573.95,"xT1":424.9,"yT1":0,"xT2":1058.1,"yT2":0,"toosoon":0,"cond_shown":"equaldotanddens","ratio_trial":750,"smaller_num":"15","larger_num":"20","correct_side":1,"subjID":"AndreaNataliaChaparroFigueroa11","gender":"1","age":"11","school":"6"},{"start_time":1551901264433,"click_time":1551901265749,"finger_time":1551901265329,"fix_duration":282.57636215573257,"trial":4,"RT":896,"MT":420,"sideResp":1,"stimulus":"img/900/equaldotanddens/L/10_Ratio_900_L_20_R_18.png","xmouse":[774,774,774,774,774,774,774,774,774,774,774,774,774,774,774,774,774,774,774,774,774,774,774,774,774,774,774,774,774,774,774,774,774,775,775,775,775,775,775,775,775,775,775,775,773,768,756,740,693,673,656,642,631,616,605,592,578,560,531,522,520,520,520,525,525,518],"ymouse":[623,623,623,623,623,623,623,623,623,623,623,623,623,623,623,623,623,623,623,623,623,623,623,623,623,623,623,623,623,623,623,623,623,623,623,623,623,623,623,623,623,623,622,591,563,527,484,439,355,327,306,295,287,277,273,268,261,254,237,228,216,199,180,129,105,81],"timestamp_mouse":[16,37,55,77,96,115,135,155,177,195,216,235,256,277,296,316,336,355,375,396,416,437,455,475,495,516,535,555,576,597,616,636,656,677,695,716,736,755,776,797,816,836,857,876,896,915,935,955,976,996,1017,1036,1056,1076,1095,1115,1136,1156,1176,1197,1216,1235,1255,1277,1296,1316],"xSR":741.5,"ySR":573.95,"xT1":424.9,"yT1":0,"xT2":1058.1,"yT2":0,"toosoon":0,"cond_shown":"equaldotanddens","ratio_trial":900,"smaller_num":"18","larger_num":"20","correct_side":1,"subjID":"AndreaNataliaChaparroFigueroa11","gender":"1","age":"11","school":"6"},{"start_time":1551901267897,"click_time":1551901268930,"finger_time":1551901268750,"fix_duration":1087.7037589464665,"trial":5,"RT":853,"MT":180,"sideResp":1,"stimulus":"img/900/equaldotsize/L/8_Ratio_900_L_20_R_18.png","xmouse":[765,765,765,765,765,765,765,765,765,765,765,765,765,765,765,765,765,765,765,765,765,765,765,765,765,765,765,765,765,765,765,765,765,765,765,765,765,765,765,765,766,765,760,750,734,684,666,647,628,600,488,428],"ymouse":[604,604,604,604,604,604,604,604,604,604,604,604,604,604,604,604,604,604,604,604,604,604,604,604,604,604,604,604,604,604,604,604,604,604,604,604,604,604,604,604,604,589,562,516,464,365,329,295,261,224,107,53],"timestamp_mouse":[12,42,52,71,92,112,132,152,172,191,212,232,252,272,293,312,332,351,371,393,413,432,452,473,491,511,531,552,573,593,613,632,652,671,693,712,731,753,771,792,812,831,853,871,891,912,932,952,973,992,1012,1032],"xSR":741.5,"ySR":573.95,"xT1":424.9,"yT1":0,"xT2":1058.1,"yT2":0,"toosoon":0,"cond_shown":"equaldotsize","ratio_trial":900,"smaller_num":"18","larger_num":"20","correct_side":1,"subjID":"AndreaNataliaChaparroFigueroa11","gender":"1","age":"11","school":"6"},{"start_time":1551901271632,"click_time":1551901272729,"finger_time":1551901272309,"fix_duration":722.9495553576423,"trial":6,"RT":677,"MT":420,"sideResp":2,"stimulus":"img/500/randomdotsizeEA/R/12_Ratio_500_L_1_R_2.png","xmouse":[797,797,797,797,797,797,797,797,797,797,797,797,797,797,797,797,797,797,797,797,797,797,797,797,797,797,797,797,797,797,797,797,810,837,862,875,890,906,945,969,988,1008,1037,1048,1052,1052,1052,1054,1057,1059,1060,1060,1060,1060,1063],"ymouse":[635,635,635,635,635,635,635,635,635,635,635,635,635,635,635,635,635,635,635,635,635,635,635,635,635,635,635,635,635,635,635,625,596,542,495,460,425,380,257,183,113,40,0,0,0,0,0,0,0,0,0,0,0,0,1],"timestamp_mouse":[16,45,57,77,96,117,137,156,177,198,216,236,257,277,296,317,337,357,376,396,417,437,457,476,496,517,536,556,576,597,616,636,658,677,697,718,737,757,778,797,817,837,858,877,897,916,938,958,977,998,1017,1037,1057,1078,1097],"xSR":741.5,"ySR":573.95,"xT1":424.9,"yT1":0,"xT2":1058.1,"yT2":0,"toosoon":0,"cond_shown":"randomdotsizeEA","ratio_trial":500,"smaller_num":"1","larger_num":"2","correct_side":2,"subjID":"AndreaNataliaChaparroFigueroa11","gender":"1","age":"11","school":"6"},{"start_time":1551901277607,"click_time":1551901279150,"finger_time":1551901278689,"fix_duration":1416.0316565219491,"trial":7,"RT":1082,"MT":461,"sideResp":1,"stimulus":"img/900/randomdotsizeEA/L/2_Ratio_900_L_20_R_18.png","xmouse":[807,807,807,807,807,807,807,807,807,807,807,807,807,807,807,807,807,807,807,807,807,807,807,807,807,807,807,807,807,807,807,807,807,807,807,807,807,807,807,807,807,807,807,807,807,807,807,807,807,807,807,806,806,805,803,791,783,777,772,765,740,720,697,674,623,606,603,601,600,599,598,595,591,584,576,548,532,514],"ymouse":[610,610,610,610,610,610,610,610,610,610,610,610,610,610,610,610,610,610,610,610,610,610,610,610,610,610,610,610,610,610,610,610,610,610,610,610,610,610,610,610,610,610,610,610,610,610,610,610,610,610,610,599,594,584,570,521,502,482,466,448,409,391,375,357,314,292,279,272,264,251,243,231,219,204,186,136,114,91],"timestamp_mouse":[9,34,44,62,82,101,122,142,161,183,202,223,243,261,283,302,322,341,361,381,402,422,442,463,482,502,521,542,562,581,601,623,641,661,682,703,721,743,763,782,801,822,842,861,882,902,922,941,962,982,1002,1023,1041,1062,1082,1102,1122,1141,1161,1181,1201,1222,1241,1262,1282,1301,1322,1341,1361,1382,1401,1422,1442,1463,1483,1503,1522,1542],"xSR":741.5,"ySR":573.95,"xT1":424.9,"yT1":0,"xT2":1058.1,"yT2":0,"toosoon":0,"cond_shown":"randomdotsizeEA","ratio_trial":900,"smaller_num":"18","larger_num":"20","correct_side":1,"subjID":"AndreaNataliaChaparroFigueroa11","gender":"1","age":"11","school":"6"},{"start_time":1551901280668,"click_time":1551901281729,"finger_time":1551901281389,"fix_duration":477.1710347680281,"trial":8,"RT":721,"MT":340,"sideResp":1,"stimulus":"img/900/equaldotsize/L/4_Ratio_900_L_20_R_18.png","xmouse":[801,801,801,801,801,801,801,801,801,801,801,801,801,801,801,801,801,801,801,801,801,801,801,801,801,801,801,801,801,801,801,801,801,801,801,801,790,772,751,727,691,647,524,481,452,430,414,413,412,412,412,414,422,434],"ymouse":[636,636,636,636,636,636,636,636,636,636,636,636,636,636,636,636,636,636,636,636,636,636,636,636,636,636,636,636,636,636,636,636,636,636,636,623,573,533,496,453,406,357,234,183,146,119,95,93,92,92,92,89,82,76],"timestamp_mouse":[8,20,41,61,81,100,122,142,160,180,201,221,242,260,281,301,322,342,361,380,402,420,441,462,482,500,522,541,562,581,601,620,641,661,682,701,721,740,760,782,802,821,840,861,881,902,922,941,961,982,1001,1021,1040,1061],"xSR":741.5,"ySR":573.95,"xT1":424.9,"yT1":0,"xT2":1058.1,"yT2":0,"toosoon":0,"cond_shown":"equaldotsize","ratio_trial":900,"smaller_num":"18","larger_num":"20","correct_side":1,"subjID":"AndreaNataliaChaparroFigueroa11","gender":"1","age":"11","school":"6"},{"start_time":1551901283942,"click_time":1551901285549,"finger_time":1551901285188,"fix_duration":1193.8670429051285,"trial":9,"RT":1246,"MT":361,"sideResp":1,"stimulus":"img/750/randomdotsizeEA/L/10_Ratio_750_L_4_R_3.png","xmouse":[797,797,797,797,797,797,797,797,797,797,797,797,797,797,797,797,797,797,797,797,797,797,797,797,797,797,797,797,797,797,797,797,797,797,797,797,797,797,797,797,797,797,797,797,797,797,797,797,797,797,797,797,797,797,797,797,797,797,797,794,784,764,727,623,563,515,476,457,444,444,444,447,455,457,459,460,463,467,468,469,470],"ymouse":[645,645,645,645,645,645,645,645,645,645,645,645,645,645,645,645,645,645,645,645,645,645,645,645,645,645,645,645,645,645,645,642,638,637,637,637,637,637,637,637,637,637,637,637,637,637,637,637,637,637,637,637,637,637,637,637,637,637,637,629,610,574,515,387,327,280,234,204,165,157,148,138,124,121,118,116,113,109,105,103,99],"timestamp_mouse":[11,28,55,67,86,108,128,148,167,186,207,226,246,267,286,308,328,346,368,387,406,428,446,468,487,507,528,546,567,587,606,626,648,667,686,708,727,746,767,787,807,826,848,867,886,907,928,947,967,988,1008,1026,1048,1067,1086,1107,1127,1146,1167,1187,1207,1227,1246,1266,1286,1308,1327,1346,1366,1387,1407,1427,1447,1467,1487,1507,1528,1547,1566,1588,1607],"xSR":741.5,"ySR":573.95,"xT1":424.9,"yT1":0,"xT2":1058.1,"yT2":0,"toosoon":0,"cond_shown":"randomdotsizeEA","ratio_trial":750,"smaller_num":"3","larger_num":"4","correct_side":1,"subjID":"AndreaNataliaChaparroFigueroa11","gender":"1","age":"11","school":"6"},{"start_time":1551901287899,"click_time":1551901289188,"finger_time":1551901288769,"fix_duration":1226.785593623616,"trial":10,"RT":870,"MT":419,"sideResp":1,"stimulus":"img/900/equaldotsize/L/2_Ratio_900_L_20_R_18.png","xmouse":[784,784,784,784,784,784,784,784,784,784,784,784,784,784,784,784,784,784,784,784,784,784,784,784,784,784,784,784,784,784,784,784,784,784,784,784,784,784,784,784,784,786,787,785,774,741,715,687,672,660,650,644,635,626,611,606,605,601,594,576,556,546,537,526,510],"ymouse":[641,641,641,641,641,641,641,641,641,641,641,641,641,641,641,641,641,641,641,641,641,641,641,641,641,641,641,641,641,641,641,641,641,641,641,641,641,641,641,641,641,638,610,573,532,448,402,361,331,280,234,211,194,183,172,170,169,166,159,141,124,114,105,94,81],"timestamp_mouse":[10,37,50,69,89,111,130,149,171,190,209,231,250,270,290,310,330,349,371,389,410,431,450,469,490,511,531,549,570,590,610,630,649,669,690,710,729,750,770,791,810,829,849,870,889,910,930,950,970,990,1009,1030,1049,1070,1091,1110,1130,1150,1170,1191,1209,1229,1251,1270,1289],"xSR":741.5,"ySR":573.95,"xT1":424.9,"yT1":0,"xT2":1058.1,"yT2":0,"toosoon":0,"cond_shown":"equaldotsize","ratio_trial":900,"smaller_num":"18","larger_num":"20","correct_side":1,"subjID":"AndreaNataliaChaparroFigueroa11","gender":"1","age":"11","school":"6"},{"start_time":1551901291369,"click_time":1551901292909,"finger_time":1551901292329,"fix_duration":1098.815315236299,"trial":11,"RT":960,"MT":580,"sideResp":1,"stimulus":"img/900/randomdotsizeEA/R/5_Ratio_900_L_9_R_10.png","xmouse":[776,776,776,776,776,776,776,776,776,776,776,776,776,776,776,776,776,776,776,776,776,776,776,776,776,776,776,776,776,776,776,776,776,776,776,776,776,776,776,776,776,776,776,777,777,777,777,778,778,778,778,778,778,778,778,778,778,774,770,762,748,730,680,660,640,621,601,594,592,589,586,580,565,559,553,550,545,524],"ymouse":[649,649,649,649,649,649,649,649,649,649,649,649,649,649,649,649,649,649,649,649,649,649,649,649,649,649,649,649,649,649,649,649,649,649,649,649,649,649,649,649,649,649,649,642,637,622,590,576,568,564,563,563,563,563,563,561,557,542,525,501,468,415,302,253,207,166,132,118,112,107,100,91,75,71,67,65,64,58],"timestamp_mouse":[2,19,40,59,80,101,119,140,160,180,199,219,241,260,279,299,320,340,360,379,399,419,440,461,480,500,521,541,560,579,600,620,641,659,679,701,721,740,759,781,800,820,840,860,880,900,921,941,960,980,1000,1020,1041,1060,1080,1100,1120,1139,1161,1181,1200,1220,1239,1260,1281,1300,1320,1340,1360,1381,1400,1419,1440,1459,1480,1500,1520,1540],"xSR":741.5,"ySR":573.95,"xT1":424.9,"yT1":0,"xT2":1058.1,"yT2":0,"toosoon":0,"cond_shown":"randomdotsizeEA","ratio_trial":900,"smaller_num":"9","larger_num":"10","correct_side":2,"subjID":"AndreaNataliaChaparroFigueroa11","gender":"1","age":"11","school":"6"},{"start_time":1551901296061,"click_time":1551901297209,"finger_time":1551901296790,"fix_duration":250,"trial":12,"RT":729,"MT":419,"sideResp":1,"stimulus":"img/500/randomdotsizeEA/L/5_Ratio_500_L_4_R_2.png","xmouse":[809,809,809,809,809,809,809,809,809,809,809,809,809,809,809,809,809,809,809,809,809,809,809,809,809,809,809,809,809,809,809,809,809,808,805,798,765,746,724,698,669,631,592,590,587,586,586,586,586,586,586,584,578,571,562,547,532,515],"ymouse":[620,620,620,620,620,620,620,620,620,620,620,620,620,620,620,620,620,620,620,620,620,620,620,620,620,620,620,620,620,620,620,620,620,617,602,580,506,455,397,318,223,111,0,0,0,0,0,0,0,0,0,0,0,1,3,6,9,12],"timestamp_mouse":[10,28,47,68,88,108,129,148,169,189,208,228,248,268,288,308,329,349,367,388,408,429,448,469,487,508,529,549,568,588,607,629,648,668,688,707,729,747,768,788,808,828,848,868,887,907,929,948,968,988,1008,1028,1048,1067,1088,1107,1127,1147],"xSR":741.5,"ySR":573.95,"xT1":424.9,"yT1":0,"xT2":1058.1,"yT2":0,"toosoon":0,"cond_shown":"randomdotsizeEA","ratio_trial":500,"smaller_num":"2","larger_num":"4","correct_side":1,"subjID":"AndreaNataliaChaparroFigueroa11","gender":"1","age":"11","school":"6"},{"start_time":1551901303226,"click_time":1551901304369,"finger_time":1551901303809,"fix_duration":614.0740224767911,"trial":13,"RT":583,"MT":560,"sideResp":1,"stimulus":"img/250/equaldotanddens/L/2_Ratio_250_L_16_R_4.png","xmouse":[785,785,785,785,785,785,785,785,785,785,785,785,785,785,785,785,785,785,785,785,785,785,785,785,785,785,784,775,747,723,693,664,643,627,611,611,611,611,612,612,611,611,609,606,582,571,561,553,543,541,539,539,538,533,530,528,525,521],"ymouse":[645,645,645,645,645,645,645,645,645,645,645,645,645,645,645,645,645,645,645,645,645,645,645,645,645,645,645,633,586,539,483,428,372,315,174,135,105,87,73,64,63,62,60,58,52,50,49,49,49,49,49,49,49,49,49,49,49,49],"timestamp_mouse":[8,23,52,64,82,102,122,144,164,182,202,223,244,262,284,303,323,343,364,383,403,423,444,464,483,504,522,542,564,583,603,622,643,663,683,702,722,743,762,783,804,823,844,863,884,904,924,942,963,982,1003,1023,1043,1064,1082,1103,1123,1143],"xSR":741.5,"ySR":573.95,"xT1":424.9,"yT1":0,"xT2":1058.1,"yT2":0,"toosoon":0,"cond_shown":"equaldotanddens","ratio_trial":250,"smaller_num":"4","larger_num":"16","correct_side":1,"subjID":"AndreaNataliaChaparroFigueroa11","gender":"1","age":"11","school":"6"},{"start_time":1551901306246,"click_time":1551901307650,"finger_time":1551901307309,"fix_duration":916.2003966253989,"trial":14,"RT":1063,"MT":341,"sideResp":2,"stimulus":"img/500/randomdotsizeEA/R/3_Ratio_500_L_10_R_20.png","xmouse":[761,761,761,761,761,761,761,761,761,761,761,761,761,761,761,761,761,761,761,761,761,761,761,761,761,761,761,761,761,761,761,761,761,761,761,761,761,761,761,761,761,761,761,761,761,761,761,761,761,761,762,762,796,838,871,904,931,946,963,967,971,973,981,986,993,1002,1014,1037,1049,1059,1069],"ymouse":[641,641,641,641,641,641,641,641,641,641,641,641,641,641,641,641,641,641,641,641,641,641,641,641,641,641,641,641,641,641,641,641,641,641,641,641,641,641,641,641,641,641,641,641,641,641,641,641,641,641,641,640,596,535,474,416,354,309,251,236,226,223,214,206,198,187,175,143,127,113,97],"timestamp_mouse":[12,23,44,63,83,103,124,143,164,182,203,224,242,264,283,303,323,344,363,384,402,424,444,463,483,502,523,543,562,583,603,624,643,663,682,702,724,742,764,782,802,823,844,864,883,904,924,944,963,983,1003,1023,1044,1063,1083,1103,1123,1143,1163,1183,1202,1222,1243,1262,1282,1303,1322,1343,1362,1382,1404],"xSR":741.5,"ySR":573.95,"xT1":424.9,"yT1":0,"xT2":1058.1,"yT2":0,"toosoon":0,"cond_shown":"randomdotsizeEA","ratio_trial":500,"smaller_num":"10","larger_num":"20","correct_side":2,"subjID":"AndreaNataliaChaparroFigueroa11","gender":"1","age":"11","school":"6"},{"start_time":1551901309447,"click_time":1551901310450,"finger_time":1551901310109,"fix_duration":836.8369598801605,"trial":15,"RT":662,"MT":341,"sideResp":1,"stimulus":"img/500/equaldotsize/L/5_Ratio_500_L_4_R_2.png","xmouse":[752,752,752,752,752,752,752,752,752,752,752,752,752,752,752,752,752,752,752,752,752,752,752,752,752,752,752,752,752,752,752,753,749,731,719,712,705,695,688,681,672,662,632,609,594,581,570,548,537,528,518],"ymouse":[634,634,634,634,634,634,634,634,634,634,634,634,634,634,634,634,634,634,634,634,634,634,634,634,634,634,634,634,634,634,634,627,579,504,468,441,419,382,366,349,331,312,270,243,225,206,189,151,131,113,97],"timestamp_mouse":[9,22,41,63,81,103,121,143,162,182,203,221,242,263,282,301,321,342,362,381,402,421,443,461,482,501,521,543,563,581,603,622,642,662,682,702,722,743,762,781,802,821,842,861,882,902,922,942,961,982,1002],"xSR":741.5,"ySR":573.95,"xT1":424.9,"yT1":0,"xT2":1058.1,"yT2":0,"toosoon":0,"cond_shown":"equaldotsize","ratio_trial":500,"smaller_num":"2","larger_num":"4","correct_side":1,"subjID":"AndreaNataliaChaparroFigueroa11","gender":"1","age":"11","school":"6"},{"start_time":1551901312465,"click_time":1551901313889,"finger_time":1551901313289,"fix_duration":994.4761511009165,"trial":16,"RT":824,"MT":600,"sideResp":1,"stimulus":"img/750/equaldotanddens/L/10_Ratio_750_L_4_R_3.png","xmouse":[824,824,824,824,824,824,824,824,824,824,824,824,824,824,824,824,824,824,824,824,824,824,824,824,824,824,824,824,824,824,824,824,824,824,824,824,824,824,821,817,810,792,784,774,768,765,760,756,753,751,749,741,733,725,717,706,683,672,659,649,639,629,612,609,604,599,591,567,554,544,534,523],"ymouse":[616,616,616,616,616,616,616,616,616,616,616,616,616,616,616,616,616,616,616,616,616,616,616,616,616,616,616,616,616,616,616,616,616,616,616,616,616,616,607,600,582,540,526,503,491,482,473,456,442,424,402,354,316,287,261,236,188,168,150,135,124,114,105,103,102,102,100,96,92,91,90,88],"timestamp_mouse":[11,25,45,63,83,104,125,144,165,184,205,225,244,264,284,304,325,343,365,384,404,424,445,465,483,504,523,543,564,584,604,624,644,665,685,703,723,744,763,785,804,824,843,864,884,903,924,944,964,984,1004,1024,1044,1063,1084,1104,1124,1143,1165,1184,1203,1223,1245,1263,1285,1304,1323,1344,1364,1384,1404,1424],"xSR":741.5,"ySR":573.95,"xT1":424.9,"yT1":0,"xT2":1058.1,"yT2":0,"toosoon":0,"cond_shown":"equaldotanddens","ratio_trial":750,"smaller_num":"3","larger_num":"4","correct_side":1,"subjID":"AndreaNataliaChaparroFigueroa11","gender":"1","age":"11","school":"6"},{"start_time":1551901316490,"click_time":1551901317589,"finger_time":1551901317248,"fix_duration":639.2317934244204,"trial":17,"RT":758,"MT":341,"sideResp":1,"stimulus":"img/900/randomdotsizeEA/R/9_Ratio_900_L_18_R_20.png","xmouse":[782,782,782,782,782,782,782,782,782,782,782,782,782,782,782,782,782,782,782,782,782,782,782,782,782,782,782,782,782,782,782,782,782,782,777,772,768,762,755,748,735,723,717,706,684,671,663,652,642,619,595,573,552,527,505],"ymouse":[649,649,649,649,649,649,649,649,649,649,649,649,649,649,649,649,649,649,649,649,649,649,649,649,649,649,649,649,649,649,649,649,649,644,618,602,578,554,529,503,456,421,395,360,276,228,195,159,137,102,81,69,57,44,35],"timestamp_mouse":[19,41,59,78,100,120,138,158,179,198,219,238,258,280,299,319,340,359,379,400,419,439,458,478,500,519,539,560,580,600,619,638,659,679,699,718,738,758,780,798,820,839,860,879,899,918,938,960,980,999,1018,1039,1060,1078,1099],"xSR":741.5,"ySR":573.95,"xT1":424.9,"yT1":0,"xT2":1058.1,"yT2":0,"toosoon":0,"cond_shown":"randomdotsizeEA","ratio_trial":900,"smaller_num":"18","larger_num":"20","correct_side":2,"subjID":"AndreaNataliaChaparroFigueroa11","gender":"1","age":"11","school":"6"},{"start_time":1551901322202,"click_time":1551901323290,"finger_time":1551901322930,"fix_duration":250,"trial":18,"RT":728,"MT":360,"sideResp":2,"stimulus":"img/250/randomdotsizeEA/R/9_Ratio_250_L_3_R_12.png","xmouse":[760,760,760,760,760,760,760,760,760,760,760,760,760,760,760,760,760,760,760,760,760,760,760,760,760,760,760,760,760,760,760,760,760,760,763,789,808,825,841,867,879,893,909,928,965,988,1003,1015,1024,1030,1042,1049,1051,1055,1059],"ymouse":[659,659,659,659,659,659,659,659,659,659,659,659,659,659,659,659,659,659,659,659,659,659,659,659,659,659,659,659,659,659,659,659,659,651,638,588,554,525,496,448,427,401,375,340,273,217,185,155,133,114,84,70,58,49,44],"timestamp_mouse":[8,34,48,68,86,108,128,146,168,186,207,227,246,267,286,306,327,347,368,388,407,427,447,467,487,508,527,546,567,587,607,627,647,668,686,706,728,748,768,788,807,828,846,867,888,907,927,946,967,986,1006,1027,1047,1066,1088],"xSR":741.5,"ySR":573.95,"xT1":424.9,"yT1":0,"xT2":1058.1,"yT2":0,"toosoon":0,"cond_shown":"randomdotsizeEA","ratio_trial":250,"smaller_num":"3","larger_num":"12","correct_side":2,"subjID":"AndreaNataliaChaparroFigueroa11","gender":"1","age":"11","school":"6"},{"start_time":1551901325827,"click_time":1551901327350,"finger_time":1551901327008,"fix_duration":735.8989219347775,"trial":19,"RT":1181,"MT":342,"sideResp":2,"stimulus":"img/900/equaldotanddens/R/6_Ratio_900_L_9_R_10.png","xmouse":[760,760,760,760,760,760,760,760,760,760,760,760,760,760,760,760,760,760,760,760,760,760,760,760,760,760,760,760,760,760,760,760,760,760,760,760,760,760,760,760,760,760,760,760,760,760,760,760,759,756,755,755,755,755,755,756,756,759,770,781,809,862,926,981,1034,1042,1049,1054,1070,1075,1080,1081,1081,1069,1068,1071,1081],"ymouse":[630,630,630,630,630,630,630,630,630,630,630,630,630,630,630,630,630,630,630,630,630,630,630,630,630,630,630,630,630,630,630,630,630,630,630,630,630,630,630,630,630,630,630,630,630,630,630,630,626,617,613,609,608,606,606,605,604,599,579,564,536,483,432,391,340,321,304,287,251,238,223,211,197,165,137,117,90],"timestamp_mouse":[8,34,42,62,82,101,122,142,162,183,203,222,243,262,281,302,323,343,363,382,402,423,443,461,482,503,522,542,562,582,601,622,641,663,682,701,722,741,761,782,801,822,843,862,881,903,923,943,962,982,1002,1022,1042,1062,1082,1103,1121,1142,1162,1181,1201,1223,1242,1261,1281,1302,1322,1342,1363,1381,1402,1422,1441,1462,1481,1502,1523],"xSR":741.5,"ySR":573.95,"xT1":424.9,"yT1":0,"xT2":1058.1,"yT2":0,"toosoon":0,"cond_shown":"equaldotanddens","ratio_trial":900,"smaller_num":"9","larger_num":"10","correct_side":2,"subjID":"AndreaNataliaChaparroFigueroa11","gender":"1","age":"11","school":"6"},{"start_time":1551901328883,"click_time":1551901330069,"finger_time":1551901329529,"fix_duration":250,"trial":20,"RT":646,"MT":540,"sideResp":1,"stimulus":"img/900/equaldotanddens/L/10_Ratio_900_L_20_R_18.png","xmouse":[789,789,789,789,789,789,789,789,789,789,789,789,789,789,789,789,789,789,789,789,789,789,789,789,789,789,789,789,789,788,786,757,742,719,699,679,635,619,610,605,602,598,593,589,584,579,577,573,570,567,550,544,539,534,528,520,518,516,514,510],"ymouse":[634,634,634,634,634,634,634,634,634,634,634,634,634,634,634,634,634,634,634,634,634,634,634,634,634,634,634,634,634,634,633,592,572,546,522,500,447,428,416,405,394,385,377,369,358,335,318,298,276,251,179,159,142,131,120,109,106,104,102,99],"timestamp_mouse":[10,36,46,65,86,105,126,147,167,185,206,227,247,266,286,305,326,347,365,385,406,426,446,466,486,505,526,547,565,586,606,626,646,665,686,706,726,746,767,786,806,827,846,866,886,907,925,946,966,986,1007,1025,1046,1066,1085,1106,1125,1147,1166,1186],"xSR":741.5,"ySR":573.95,"xT1":424.9,"yT1":0,"xT2":1058.1,"yT2":0,"toosoon":0,"cond_shown":"equaldotanddens","ratio_trial":900,"smaller_num":"18","larger_num":"20","correct_side":1,"subjID":"AndreaNataliaChaparroFigueroa11","gender":"1","age":"11","school":"6"},{"start_time":1551901333612,"click_time":1551901334989,"finger_time":1551901334390,"fix_duration":343.7195327180874,"trial":21,"RT":778,"MT":599,"sideResp":1,"stimulus":"img/900/equaldotsize/R/7_Ratio_900_L_9_R_10.png","xmouse":[778,778,778,778,778,778,778,778,778,778,778,778,778,778,778,778,778,778,778,778,778,778,778,778,778,778,778,778,778,778,778,778,778,778,775,774,771,765,753,744,735,726,719,693,681,665,649,633,618,593,582,571,562,555,544,541,537,530,506,490,478,467,463,463,462,462,462,462,462],"ymouse":[609,609,609,609,609,609,609,609,609,609,609,609,609,609,609,609,609,609,609,609,609,609,609,609,609,609,609,609,609,609,609,609,609,609,605,599,589,576,553,539,526,514,496,435,407,377,351,328,302,260,243,227,211,202,184,180,174,165,149,137,128,123,119,115,111,110,106,104,97],"timestamp_mouse":[20,43,58,77,96,116,136,158,177,196,217,238,257,276,297,317,337,356,378,396,416,438,457,476,497,516,538,557,577,598,618,637,657,677,696,717,737,758,778,797,817,838,857,878,897,916,938,957,977,997,1017,1037,1057,1078,1097,1117,1138,1157,1177,1196,1216,1237,1257,1278,1297,1317,1337,1358,1377],"xSR":741.5,"ySR":573.95,"xT1":424.9,"yT1":0,"xT2":1058.1,"yT2":0,"toosoon":0,"cond_shown":"equaldotsize","ratio_trial":900,"smaller_num":"9","larger_num":"10","correct_side":2,"subjID":"AndreaNataliaChaparroFigueroa11","gender":"1","age":"11","school":"6"},{"start_time":1551901337521,"click_time":1551901338449,"finger_time":1551901338189,"fix_duration":250,"trial":22,"RT":668,"MT":260,"sideResp":1,"stimulus":"img/750/randomdotsizeEA/R/7_Ratio_750_L_3_R_4.png","xmouse":[794,794,794,794,794,794,794,794,794,794,794,794,794,794,794,794,794,794,794,794,794,794,794,794,794,794,794,794,794,792,791,790,788,779,772,762,752,741,719,701,689,675,656,631,562,535,512],"ymouse":[635,635,635,635,635,635,635,635,635,635,635,635,635,635,635,635,635,635,635,635,635,635,635,635,635,633,631,628,620,614,611,607,598,571,553,534,512,486,439,399,373,343,299,242,141,111,90],"timestamp_mouse":[9,37,48,69,89,108,127,148,169,187,207,228,249,267,288,308,328,348,369,387,409,429,448,468,488,508,528,547,569,588,608,628,647,668,687,708,728,747,769,787,808,829,849,868,888,907,928],"xSR":741.5,"ySR":573.95,"xT1":424.9,"yT1":0,"xT2":1058.1,"yT2":0,"toosoon":0,"cond_shown":"randomdotsizeEA","ratio_trial":750,"smaller_num":"3","larger_num":"4","correct_side":2,"subjID":"AndreaNataliaChaparroFigueroa11","gender":"1","age":"11","school":"6"},{"start_time":1551901340565,"click_time":1551901341749,"finger_time":1551901341150,"fix_duration":914.1110841144026,"trial":23,"RT":585,"MT":599,"sideResp":2,"stimulus":"img/500/equaldotanddens/R/1_Ratio_500_L_9_R_18.png","xmouse":[770,770,770,770,770,770,770,770,770,770,770,770,770,770,770,770,770,770,770,770,770,770,770,770,770,770,772,777,780,785,790,793,796,797,797,797,797,797,798,800,806,832,852,879,909,942,1006,1018,1027,1034,1038,1042,1043,1043,1043,1043,1044,1050,1055,1061],"ymouse":[651,651,651,651,651,651,651,651,651,651,651,651,651,651,651,651,651,651,651,651,651,651,651,651,651,651,642,611,584,544,517,495,466,460,455,453,453,451,446,439,424,364,319,271,215,173,104,91,81,74,69,62,60,60,60,60,59,59,58,57],"timestamp_mouse":[11,23,45,64,83,103,125,144,164,185,203,224,245,264,283,305,325,343,364,384,405,425,445,464,484,503,525,544,564,585,604,624,644,664,684,704,725,744,764,783,804,824,844,864,884,904,925,944,964,984,1003,1024,1043,1064,1085,1104,1124,1143,1164,1184],"xSR":741.5,"ySR":573.95,"xT1":424.9,"yT1":0,"xT2":1058.1,"yT2":0,"toosoon":0,"cond_shown":"equaldotanddens","ratio_trial":500,"smaller_num":"9","larger_num":"18","correct_side":2,"subjID":"AndreaNataliaChaparroFigueroa11","gender":"1","age":"11","school":"6"},{"start_time":1551901344740,"click_time":1551901346029,"finger_time":1551901345409,"fix_duration":1449.0914035331891,"trial":24,"RT":669,"MT":620,"sideResp":1,"stimulus":"img/750/equaldotanddens/L/10_Ratio_750_L_4_R_3.png","xmouse":[759,759,759,759,759,759,759,759,759,759,759,759,759,759,759,759,759,759,759,759,759,759,759,759,759,759,759,759,759,759,758,756,745,739,731,720,707,687,677,672,668,663,659,652,645,635,622,601,590,584,580,576,568,562,559,555,554,551,551,549,544,535,515,508,501],"ymouse":[630,630,630,630,630,630,630,630,630,630,630,630,630,630,630,630,630,630,630,630,630,630,630,630,630,630,630,630,630,630,630,623,586,573,561,544,525,488,462,444,426,411,399,384,374,363,344,301,265,245,229,215,193,181,172,162,155,144,137,135,129,123,109,103,98],"timestamp_mouse":[10,31,50,70,88,109,128,149,169,189,209,229,249,269,289,309,329,348,369,389,410,428,449,469,489,508,529,549,570,589,609,629,649,669,688,709,729,749,768,789,810,829,849,869,889,909,930,949,968,990,1011,1030,1049,1069,1089,1109,1130,1150,1169,1189,1208,1228,1250,1269,1289],"xSR":741.5,"ySR":573.95,"xT1":424.9,"yT1":0,"xT2":1058.1,"yT2":0,"toosoon":0,"cond_shown":"equaldotanddens","ratio_trial":750,"smaller_num":"3","larger_num":"4","correct_side":1,"subjID":"AndreaNataliaChaparroFigueroa11","gender":"1","age":"11","school":"6"},{"start_time":1551901347640,"click_time":1551901348689,"finger_time":1551901348369,"fix_duration":250,"trial":25,"RT":729,"MT":320,"sideResp":1,"stimulus":"img/750/equaldotanddens/L/6_Ratio_750_L_24_R_18.png","xmouse":[755,755,755,755,755,755,755,755,755,755,755,755,755,755,755,755,755,755,755,755,755,755,755,755,755,755,755,755,755,755,755,755,755,755,755,752,741,717,661,620,584,545,523,501,499,496,495,494,494,494,496,499,502],"ymouse":[625,625,625,625,625,625,625,625,625,625,625,625,625,625,625,625,625,625,625,625,625,625,625,625,625,625,625,625,625,625,625,625,625,625,608,576,535,479,368,322,290,260,240,209,202,193,187,177,158,142,123,104,69],"timestamp_mouse":[11,35,48,69,90,109,130,149,169,189,210,228,249,269,290,309,328,348,370,390,409,430,449,469,489,509,528,549,568,588,609,630,649,669,689,709,729,749,769,790,809,828,849,870,889,910,929,949,969,989,1010,1030,1049],"xSR":741.5,"ySR":573.95,"xT1":424.9,"yT1":0,"xT2":1058.1,"yT2":0,"toosoon":0,"cond_shown":"equaldotanddens","ratio_trial":750,"smaller_num":"18","larger_num":"24","correct_side":1,"subjID":"AndreaNataliaChaparroFigueroa11","gender":"1","age":"11","school":"6"},{"start_time":1551901352499,"click_time":1551901353789,"finger_time":1551901353390,"fix_duration":369.90304755674117,"trial":26,"RT":891,"MT":399,"sideResp":2,"stimulus":"img/750/equaldotsize/R/4_Ratio_750_L_15_R_20.png","xmouse":[799,799,799,799,799,799,799,799,799,799,799,799,799,799,799,799,799,799,799,799,799,799,799,799,799,799,799,799,799,799,799,799,799,799,799,799,799,798,796,791,788,787,787,787,787,787,787,787,787,787,787,789,795,805,847,877,909,944,986,1025,1057,1075,1090,1098,1108],"ymouse":[641,641,641,641,641,641,641,641,641,641,641,641,641,641,641,641,641,641,641,641,641,641,641,641,641,641,641,641,641,641,641,641,641,641,641,641,637,635,631,611,599,592,586,580,567,561,555,549,539,516,509,498,485,466,411,378,347,315,269,226,188,162,140,119,86],"timestamp_mouse":[9,37,51,70,89,111,130,151,169,190,209,230,249,270,290,310,330,349,371,391,410,431,451,470,490,511,531,550,570,590,610,630,650,669,690,711,730,750,771,790,809,830,850,870,891,910,929,950,970,991,1010,1030,1050,1069,1091,1110,1130,1150,1170,1191,1209,1230,1251,1270,1290],"xSR":741.5,"ySR":573.95,"xT1":424.9,"yT1":0,"xT2":1058.1,"yT2":0,"toosoon":0,"cond_shown":"equaldotsize","ratio_trial":750,"smaller_num":"15","larger_num":"20","correct_side":2,"subjID":"AndreaNataliaChaparroFigueroa11","gender":"1","age":"11","school":"6"},{"start_time":1551901355731,"click_time":1551901356708,"finger_time":1551901356368,"fix_duration":602.8086554959955,"trial":27,"RT":637,"MT":340,"sideResp":1,"stimulus":"img/900/equaldotanddens/R/12_Ratio_900_L_18_R_20.png","xmouse":[780,780,780,780,780,780,780,780,780,780,780,780,780,780,780,780,780,780,780,780,780,780,780,780,780,780,780,780,780,780,780,780,751,735,717,699,677,652,598,587,579,571,565,553,548,544,536,527,483],"ymouse":[650,650,650,650,650,650,650,650,650,650,650,650,650,650,650,650,650,650,650,650,650,650,650,650,650,650,650,650,635,623,603,567,461,406,349,301,245,185,92,77,66,58,52,43,40,38,36,34,31],"timestamp_mouse":[21,37,58,77,98,117,138,158,177,198,218,237,257,278,297,317,338,357,378,398,419,437,457,478,498,518,538,558,577,598,617,637,658,677,698,718,737,757,777,797,817,838,857,877,897,917,938,958,977],"xSR":741.5,"ySR":573.95,"xT1":424.9,"yT1":0,"xT2":1058.1,"yT2":0,"toosoon":0,"cond_shown":"equaldotanddens","ratio_trial":900,"smaller_num":"18","larger_num":"20","correct_side":2,"subjID":"AndreaNataliaChaparroFigueroa11","gender":"1","age":"11","school":"6"},{"start_time":1551901361564,"click_time":1551901362489,"finger_time":1551901362149,"fix_duration":1433.2286443657977,"trial":28,"RT":585,"MT":340,"sideResp":1,"stimulus":"img/250/randomdotsizeEA/L/14_Ratio_250_L_12_R_3.png","xmouse":[808,808,808,808,808,808,808,808,808,808,808,808,808,808,808,808,808,808,808,808,808,808,808,808,808,808,808,808,808,806,789,764,711,690,672,652,624,562,531,506,480,455,453,452,452,448,445],"ymouse":[599,599,599,599,599,599,599,599,599,599,599,599,599,599,599,599,599,599,599,599,599,599,599,599,599,599,599,599,590,542,472,400,276,232,189,144,88,9,0,0,0,0,0,0,0,0,1],"timestamp_mouse":[10,24,45,64,84,105,124,145,165,185,204,224,244,265,284,304,325,345,365,384,405,424,444,465,485,504,525,545,565,585,605,624,644,665,685,704,725,744,764,785,804,825,844,865,884,904,925],"xSR":741.5,"ySR":573.95,"xT1":424.9,"yT1":0,"xT2":1058.1,"yT2":0,"toosoon":0,"cond_shown":"randomdotsizeEA","ratio_trial":250,"smaller_num":"3","larger_num":"12","correct_side":1,"subjID":"AndreaNataliaChaparroFigueroa11","gender":"1","age":"11","school":"6"},{"start_time":1551901364267,"click_time":1551901365369,"finger_time":1551901364928,"fix_duration":457.16673184134373,"trial":29,"RT":661,"MT":441,"sideResp":2,"stimulus":"img/500/equaldotsize/R/15_Ratio_500_L_1_R_2.png","xmouse":[789,789,789,789,789,789,789,789,789,789,789,789,789,789,789,789,789,789,789,789,789,789,789,789,789,789,789,789,789,789,790,790,795,803,812,827,861,883,911,938,971,1021,1033,1033,1034,1034,1034,1034,1034,1034,1035,1040,1048,1055,1058,1060],"ymouse":[645,645,645,645,645,645,645,645,645,645,645,645,645,645,645,645,645,645,645,645,645,645,645,645,645,645,645,645,645,645,641,618,581,537,479,432,313,250,185,123,64,0,0,0,0,0,0,0,0,0,0,1,3,5,6,6],"timestamp_mouse":[9,22,47,62,82,101,122,141,162,181,202,221,241,262,281,301,321,341,361,381,401,421,441,461,481,502,522,541,561,581,602,621,641,661,681,701,722,741,761,782,801,822,842,861,881,901,922,941,962,981,1001,1022,1041,1061,1081,1102],"xSR":741.5,"ySR":573.95,"xT1":424.9,"yT1":0,"xT2":1058.1,"yT2":0,"toosoon":0,"cond_shown":"equaldotsize","ratio_trial":500,"smaller_num":"1","larger_num":"2","correct_side":2,"subjID":"AndreaNataliaChaparroFigueroa11","gender":"1","age":"11","school":"6"},{"start_time":1551901367047,"click_time":1551901368068,"finger_time":1551901367648,"fix_duration":457.03142086586945,"trial":30,"RT":601,"MT":420,"sideResp":1,"stimulus":"img/900/randomdotsizeEA/R/6_Ratio_900_L_9_R_10.png","xmouse":[749,749,749,749,749,749,749,749,749,749,749,749,749,749,749,749,749,749,749,749,749,749,749,749,749,749,749,748,747,744,741,734,713,692,679,667,651,636,593,570,552,539,530,528,526,519,507,487,478,475,474,474],"ymouse":[655,655,655,655,655,655,655,655,655,655,655,655,655,655,655,655,655,655,655,655,655,655,655,655,655,655,655,650,641,627,614,592,537,488,456,419,382,344,268,233,207,191,182,180,175,166,152,130,118,110,103,97],"timestamp_mouse":[9,21,41,61,81,101,122,142,162,182,201,221,242,261,281,302,321,342,361,381,401,421,442,461,482,502,521,542,561,582,601,621,641,661,681,702,722,741,761,781,801,822,842,861,881,901,921,941,961,981,1002,1021],"xSR":741.5,"ySR":573.95,"xT1":424.9,"yT1":0,"xT2":1058.1,"yT2":0,"toosoon":0,"cond_shown":"randomdotsizeEA","ratio_trial":900,"smaller_num":"9","larger_num":"10","correct_side":2,"subjID":"AndreaNataliaChaparroFigueroa11","gender":"1","age":"11","school":"6"},{"start_time":1551901370516,"click_time":1551901371508,"finger_time":1551901371108,"fix_duration":1206.6759117594527,"trial":31,"RT":592,"MT":400,"sideResp":2,"stimulus":"img/250/equaldotanddens/R/8_Ratio_250_L_1_R_4.png","xmouse":[809,809,809,809,809,809,809,809,809,809,809,809,809,809,809,809,809,809,809,809,809,809,809,809,809,810,813,820,837,852,862,872,880,888,908,923,938,951,964,985,996,1002,1006,1018,1027,1038,1049,1061,1080,1089],"ymouse":[633,633,633,633,633,633,633,633,633,633,633,633,633,633,633,633,633,633,633,633,633,633,633,633,633,626,622,612,589,566,549,532,512,494,442,415,381,357,332,295,278,270,261,238,223,204,183,162,118,88],"timestamp_mouse":[12,40,53,72,92,113,132,153,172,193,212,233,252,273,293,313,333,352,372,393,412,433,453,473,493,513,532,552,573,592,613,632,653,672,693,712,732,752,773,793,812,832,852,873,892,913,932,952,973,992],"xSR":741.5,"ySR":573.95,"xT1":424.9,"yT1":0,"xT2":1058.1,"yT2":0,"toosoon":0,"cond_shown":"equaldotanddens","ratio_trial":250,"smaller_num":"1","larger_num":"4","correct_side":2,"subjID":"AndreaNataliaChaparroFigueroa11","gender":"1","age":"11","school":"6"},{"start_time":1551901372760,"click_time":1551901373788,"finger_time":1551901373388,"fix_duration":250,"trial":32,"RT":628,"MT":400,"sideResp":1,"stimulus":"img/250/equaldotanddens/L/15_Ratio_250_L_12_R_3.png","xmouse":[760,760,760,760,760,760,760,760,760,760,760,760,760,760,760,760,760,760,760,760,760,760,760,760,760,760,760,760,760,760,754,716,690,664,646,640,631,627,622,618,610,602,586,581,578,573,546,517,495,478,466,460],"ymouse":[636,636,636,636,636,636,636,636,636,636,636,636,636,636,636,636,636,636,636,636,636,636,636,636,636,636,636,636,636,628,604,506,445,390,340,309,248,234,223,215,206,198,186,182,179,175,159,142,126,112,100,90],"timestamp_mouse":[9,37,48,68,88,109,128,148,169,188,209,228,248,268,289,308,328,348,369,389,408,429,448,469,488,508,529,548,568,588,608,628,648,668,689,708,729,748,769,788,810,829,848,868,888,908,929,948,968,989,1008,1028],"xSR":741.5,"ySR":573.95,"xT1":424.9,"yT1":0,"xT2":1058.1,"yT2":0,"toosoon":0,"cond_shown":"equaldotanddens","ratio_trial":250,"smaller_num":"3","larger_num":"12","correct_side":1,"subjID":"AndreaNataliaChaparroFigueroa11","gender":"1","age":"11","school":"6"},{"start_time":1551901375603,"click_time":1551901376549,"finger_time":1551901376168,"fix_duration":473.8139253751881,"trial":33,"RT":565,"MT":381,"sideResp":1,"stimulus":"img/500/equaldotsize/L/13_Ratio_500_L_12_R_6.png","xmouse":[764,764,764,764,764,764,764,764,764,764,764,764,764,764,764,764,764,764,764,764,764,764,764,764,764,764,764,764,764,749,725,691,649,610,579,542,538,535,534,530,529,530,537,541,547,545,538,522],"ymouse":[612,612,612,612,612,612,612,612,612,612,612,612,612,612,612,612,612,612,612,612,612,612,612,612,612,611,601,591,573,514,478,432,383,337,302,255,247,241,236,222,213,202,187,172,135,107,87,67],"timestamp_mouse":[9,36,45,65,85,105,126,146,165,186,206,225,246,265,285,306,326,345,365,385,406,425,445,466,485,505,526,545,565,586,605,625,645,665,685,705,726,746,765,786,805,825,846,866,885,905,926,946],"xSR":741.5,"ySR":573.95,"xT1":424.9,"yT1":0,"xT2":1058.1,"yT2":0,"toosoon":0,"cond_shown":"equaldotsize","ratio_trial":500,"smaller_num":"6","larger_num":"12","correct_side":1,"subjID":"AndreaNataliaChaparroFigueroa11","gender":"1","age":"11","school":"6"},{"start_time":1551901378299,"click_time":1551901379329,"finger_time":1551901378969,"fix_duration":250,"trial":34,"RT":670,"MT":360,"sideResp":1,"stimulus":"img/900/equaldotsize/R/15_Ratio_900_L_9_R_10.png","xmouse":[786,786,786,786,786,786,786,786,786,786,786,786,786,786,786,786,786,786,786,786,786,786,786,786,786,786,786,786,786,786,780,770,759,746,716,697,664,627,592,548,544,543,543,541,532,526,519,513,509,505,499,494],"ymouse":[641,641,641,641,641,641,641,641,641,641,641,641,641,641,641,641,641,641,641,641,641,641,641,641,641,641,641,641,641,638,618,601,581,559,484,440,400,369,346,321,318,318,317,310,278,257,233,210,188,136,101,81],"timestamp_mouse":[9,34,49,70,89,109,129,149,170,189,209,230,250,270,290,309,330,350,369,390,410,429,450,470,490,509,529,550,570,590,609,629,650,670,690,710,729,749,769,790,809,830,849,870,890,908,929,950,971,990,1009,1030],"xSR":741.5,"ySR":573.95,"xT1":424.9,"yT1":0,"xT2":1058.1,"yT2":0,"toosoon":0,"cond_shown":"equaldotsize","ratio_trial":900,"smaller_num":"9","larger_num":"10","correct_side":2,"subjID":"AndreaNataliaChaparroFigueroa11","gender":"1","age":"11","school":"6"},{"start_time":1551901381810,"click_time":1551901383189,"finger_time":1551901382408,"fix_duration":1461.029602560798,"trial":35,"RT":598,"MT":781,"sideResp":1,"stimulus":"img/900/equaldotanddens/R/11_Ratio_900_L_18_R_20.png","xmouse":[780,780,780,780,780,780,780,780,780,780,780,780,780,780,780,780,780,780,780,780,780,780,780,780,780,780,780,780,780,770,757,741,724,696,677,666,651,639,617,611,606,606,606,606,613,631,650,668,702,706,707,707,707,707,704,697,683,660,611,586,564,549,540,529,519,510,501,492,488],"ymouse":[610,610,610,610,610,610,610,610,610,610,610,610,610,610,610,610,610,610,610,610,610,610,610,610,610,610,610,610,592,557,528,497,468,421,391,372,349,330,298,285,275,273,273,273,272,270,270,270,268,267,267,266,266,266,259,252,241,224,189,171,157,147,139,133,126,118,110,102,94],"timestamp_mouse":[18,38,62,78,98,118,138,158,179,198,219,239,259,278,298,318,338,358,378,399,419,438,459,478,499,518,538,558,579,598,618,638,659,679,698,719,739,758,779,798,818,838,858,878,899,918,938,958,978,998,1018,1038,1058,1078,1099,1118,1138,1159,1178,1197,1218,1238,1258,1279,1298,1319,1338,1358,1379],"xSR":741.5,"ySR":573.95,"xT1":424.9,"yT1":0,"xT2":1058.1,"yT2":0,"toosoon":0,"cond_shown":"equaldotanddens","ratio_trial":900,"smaller_num":"18","larger_num":"20","correct_side":2,"subjID":"AndreaNataliaChaparroFigueroa11","gender":"1","age":"11","school":"6"},{"start_time":1551901385519,"click_time":1551901386948,"finger_time":1551901386489,"fix_duration":1247.7928209054066,"trial":36,"RT":970,"MT":459,"sideResp":2,"stimulus":"img/900/equaldotsize/R/12_Ratio_900_L_18_R_20.png","xmouse":[791,791,791,791,791,791,791,791,791,791,791,791,791,791,791,791,791,791,791,791,791,791,791,791,791,791,791,791,791,791,791,791,791,791,791,791,791,791,791,791,791,791,791,795,798,803,811,820,841,871,909,951,997,1075,1094,1105,1111,1117,1126,1129,1131,1132,1132,1131,1129,1128,1127,1124,1117,1113,1111,1110],"ymouse":[641,641,641,641,641,641,641,641,641,641,641,641,641,641,641,641,641,640,640,640,640,640,640,640,640,640,640,640,640,640,640,640,640,640,640,640,640,640,640,640,640,640,640,628,620,607,591,578,541,507,466,424,383,326,309,297,284,270,239,213,197,183,171,157,153,151,149,143,123,111,100,89],"timestamp_mouse":[9,38,49,69,89,109,130,149,169,189,209,229,250,269,290,309,329,349,369,389,409,430,450,469,490,510,529,550,570,589,609,629,649,670,689,709,730,749,770,790,809,829,849,869,889,909,929,949,970,989,1010,1029,1049,1070,1089,1109,1129,1149,1170,1189,1209,1229,1249,1270,1289,1309,1329,1349,1370,1389,1410,1429],"xSR":741.5,"ySR":573.95,"xT1":424.9,"yT1":0,"xT2":1058.1,"yT2":0,"toosoon":0,"cond_shown":"equaldotsize","ratio_trial":900,"smaller_num":"18","larger_num":"20","correct_side":2,"subjID":"AndreaNataliaChaparroFigueroa11","gender":"1","age":"11","school":"6"},{"start_time":1551901388541,"click_time":1551901389549,"finger_time":1551901389108,"fix_duration":250,"trial":37,"RT":567,"MT":441,"sideResp":1,"stimulus":"img/750/equaldotsize/L/10_Ratio_750_L_4_R_3.png","xmouse":[792,792,792,792,792,792,792,792,792,792,792,792,792,792,792,792,792,792,792,792,792,792,792,792,792,792,791,780,748,715,684,656,626,622,619,617,615,615,607,604,598,591,576,570,564,557,549,536,531,525,520],"ymouse":[654,654,654,654,654,654,654,654,654,654,654,654,654,654,654,654,654,654,654,654,654,654,654,654,654,650,643,598,531,473,412,360,290,276,266,262,257,256,237,225,214,202,182,174,165,155,146,121,110,97,85],"timestamp_mouse":[8,27,47,68,87,107,128,147,167,187,208,227,247,267,288,307,327,347,368,387,407,428,447,467,487,507,527,547,567,586,608,627,647,667,688,707,727,747,767,787,807,827,847,867,887,907,927,947,968,987,1007],"xSR":741.5,"ySR":573.95,"xT1":424.9,"yT1":0,"xT2":1058.1,"yT2":0,"toosoon":0,"cond_shown":"equaldotsize","ratio_trial":750,"smaller_num":"3","larger_num":"4","correct_side":1,"subjID":"AndreaNataliaChaparroFigueroa11","gender":"1","age":"11","school":"6"},{"start_time":1551901391940,"click_time":1551901392628,"finger_time":1551901392489,"fix_duration":1088.78756713304,"trial":38,"RT":549,"MT":139,"sideResp":1,"stimulus":"img/750/equaldotsize/L/14_Ratio_750_L_8_R_6.png","xmouse":[834,834,834,834,834,834,834,834,834,834,834,834,834,834,834,834,834,834,834,834,834,834,834,834,834,832,823,757,669,610,549,503,466,462,461],"ymouse":[610,610,610,610,610,610,610,610,610,610,610,610,610,610,610,610,610,610,610,610,610,610,610,610,605,596,576,497,403,333,258,190,117,100,89],"timestamp_mouse":[8,36,49,69,88,109,128,149,168,189,210,228,248,269,287,309,328,349,368,389,408,429,448,468,489,508,528,549,568,588,608,629,648,668,688],"xSR":741.5,"ySR":573.95,"xT1":424.9,"yT1":0,"xT2":1058.1,"yT2":0,"toosoon":0,"cond_shown":"equaldotsize","ratio_trial":750,"smaller_num":"6","larger_num":"8","correct_side":1,"subjID":"AndreaNataliaChaparroFigueroa11","gender":"1","age":"11","school":"6"},{"start_time":1551901394396,"click_time":1551901395709,"finger_time":1551901394968,"fix_duration":486.69467283231904,"trial":39,"RT":572,"MT":741,"sideResp":2,"stimulus":"img/500/randomdotsizeEA/R/2_Ratio_500_L_3_R_6.png","xmouse":[802,802,802,802,802,802,802,802,802,802,802,802,802,802,802,802,802,802,802,802,802,802,802,802,802,799,795,786,778,771,767,767,767,767,767,767,767,767,767,767,766,766,766,767,789,831,899,968,1025,1068,1072,1073,1073,1073,1073,1073,1069,1065,1060,1058,1057,1057,1057,1057,1058,1070],"ymouse":[629,629,629,629,629,629,629,629,629,629,629,629,629,629,629,629,629,629,629,629,629,629,629,629,629,616,602,584,566,549,533,531,531,531,528,526,519,511,499,469,461,454,448,442,415,384,336,295,259,230,226,224,221,219,205,187,172,156,141,130,112,105,98,91,83,59],"timestamp_mouse":[12,45,52,73,92,112,131,153,173,192,212,232,252,273,292,312,332,352,372,392,413,432,452,472,492,512,532,553,572,592,612,632,652,672,693,712,733,752,773,792,812,833,853,873,892,912,932,952,973,992,1012,1033,1052,1073,1093,1112,1132,1152,1172,1192,1212,1232,1252,1272,1293,1313],"xSR":741.5,"ySR":573.95,"xT1":424.9,"yT1":0,"xT2":1058.1,"yT2":0,"toosoon":0,"cond_shown":"randomdotsizeEA","ratio_trial":500,"smaller_num":"3","larger_num":"6","correct_side":2,"subjID":"AndreaNataliaChaparroFigueroa11","gender":"1","age":"11","school":"6"},{"start_time":1551901396939,"click_time":1551901397868,"finger_time":1551901397668,"fix_duration":250,"trial":40,"RT":729,"MT":200,"sideResp":1,"stimulus":"img/500/equaldotsize/L/5_Ratio_500_L_4_R_2.png","xmouse":[799,799,799,799,799,799,799,799,799,799,799,799,799,799,799,799,799,799,799,799,799,799,799,799,799,799,799,799,799,799,799,799,799,799,795,785,764,683,603,563,543,533,520,515,508,498,488],"ymouse":[626,626,626,626,626,626,626,626,626,626,626,626,626,626,626,626,626,626,626,626,626,626,626,626,626,626,626,626,626,626,626,626,626,626,620,599,558,426,368,327,294,264,194,170,141,108,87],"timestamp_mouse":[10,31,49,69,90,109,129,150,169,190,209,229,249,269,289,309,329,349,369,389,410,429,449,469,489,509,529,549,569,589,609,630,649,669,690,709,729,749,769,789,809,830,849,869,889,909,929],"xSR":741.5,"ySR":573.95,"xT1":424.9,"yT1":0,"xT2":1058.1,"yT2":0,"toosoon":0,"cond_shown":"equaldotsize","ratio_trial":500,"smaller_num":"2","larger_num":"4","correct_side":1,"subjID":"AndreaNataliaChaparroFigueroa11","gender":"1","age":"11","school":"6"},{"start_time":1551901399080,"click_time":1551901400728,"finger_time":1551901400029,"fix_duration":250,"trial":41,"RT":949,"MT":699,"sideResp":1,"stimulus":"img/750/randomdotsizeEA/L/9_Ratio_750_L_4_R_3.png","xmouse":[805,805,805,805,805,805,805,805,805,805,805,805,805,805,805,805,805,805,805,805,805,805,805,805,805,805,805,805,805,805,805,805,805,805,805,805,805,805,805,805,805,805,805,805,803,798,760,713,664,609,549,411,379,361,349,339,334,334,334,334,334,334,334,334,334,334,334,338,342,345,353,363,369,374,378,383,385,388,393,398,405,422,426],"ymouse":[645,645,645,645,645,645,645,645,645,645,645,645,645,645,645,645,645,645,645,645,645,645,645,645,645,645,645,645,645,645,645,645,645,645,645,645,645,645,645,645,645,645,645,645,644,640,584,508,405,294,185,0,0,0,0,0,0,0,0,0,0,0,0,0,0,0,0,0,0,0,4,7,9,12,14,15,16,17,18,20,22,30,32],"timestamp_mouse":[8,29,48,68,89,109,129,148,168,188,209,228,248,268,288,309,328,348,368,389,408,429,448,468,488,509,528,548,569,589,608,628,648,669,688,708,729,749,768,788,808,829,849,868,888,908,928,949,969,989,1009,1029,1048,1068,1088,1108,1129,1149,1169,1188,1209,1228,1249,1268,1289,1308,1328,1348,1369,1388,1408,1428,1448,1468,1488,1508,1527,1548,1568,1588,1608,1629,1648],"xSR":741.5,"ySR":573.95,"xT1":424.9,"yT1":0,"xT2":1058.1,"yT2":0,"toosoon":0,"cond_shown":"randomdotsizeEA","ratio_trial":750,"smaller_num":"3","larger_num":"4","correct_side":1,"subjID":"AndreaNataliaChaparroFigueroa11","gender":"1","age":"11","school":"6"},{"start_time":1551901402255,"click_time":1551901403429,"finger_time":1551901403049,"fix_duration":463.56712975756466,"trial":42,"RT":794,"MT":380,"sideResp":2,"stimulus":"img/750/equaldotsize/R/15_Ratio_750_L_9_R_12.png","xmouse":[757,757,757,757,757,757,757,757,757,757,757,757,757,757,757,757,757,757,757,757,757,757,757,757,757,757,757,757,757,757,757,757,757,757,757,757,757,757,760,768,797,855,883,893,902,911,917,930,939,955,981,1004,1043,1049,1051,1052,1054,1057,1061],"ymouse":[590,590,590,590,590,590,590,590,590,590,590,590,590,590,590,590,590,590,590,590,590,590,590,590,590,590,590,590,590,590,590,590,590,590,590,590,590,590,587,570,513,395,307,274,248,228,213,189,174,157,130,111,77,71,68,67,66,65,63],"timestamp_mouse":[14,36,54,74,93,113,133,153,173,193,214,233,253,273,294,313,333,353,373,393,414,433,453,474,494,514,533,553,573,593,613,633,654,673,693,714,733,753,773,794,814,834,853,873,895,913,934,953,974,993,1013,1033,1054,1073,1093,1114,1133,1153,1174],"xSR":741.5,"ySR":573.95,"xT1":424.9,"yT1":0,"xT2":1058.1,"yT2":0,"toosoon":0,"cond_shown":"equaldotsize","ratio_trial":750,"smaller_num":"9","larger_num":"12","correct_side":2,"subjID":"AndreaNataliaChaparroFigueroa11","gender":"1","age":"11","school":"6"},{"start_time":1551901405457,"click_time":1551901406528,"finger_time":1551901406128,"fix_duration":1107.4912326292445,"trial":43,"RT":671,"MT":400,"sideResp":1,"stimulus":"img/500/equaldotsize/L/11_Ratio_500_L_12_R_6.png","xmouse":[781,781,781,781,781,781,781,781,781,781,781,781,781,781,781,781,781,781,781,781,781,781,781,781,781,781,781,781,781,781,781,781,781,763,716,678,646,639,636,635,635,635,635,634,632,629,619,611,598,582,568,556,529,524],"ymouse":[609,609,609,609,609,609,609,609,609,609,609,609,609,609,609,609,609,609,609,609,609,609,609,609,609,609,609,609,609,609,609,609,609,571,498,454,422,407,395,386,380,371,365,357,343,324,280,253,223,187,162,138,101,95],"timestamp_mouse":[11,34,52,72,92,111,131,151,172,191,211,232,251,273,291,311,332,351,371,391,411,431,451,472,491,511,531,551,571,592,611,631,651,671,692,711,732,751,771,792,812,832,851,871,891,912,932,951,971,991,1011,1032,1052,1071],"xSR":741.5,"ySR":573.95,"xT1":424.9,"yT1":0,"xT2":1058.1,"yT2":0,"toosoon":0,"cond_shown":"equaldotsize","ratio_trial":500,"smaller_num":"6","larger_num":"12","correct_side":1,"subjID":"AndreaNataliaChaparroFigueroa11","gender":"1","age":"11","school":"6"},{"start_time":1551901408240,"click_time":1551901409788,"finger_time":1551901409589,"fix_duration":250,"trial":44,"RT":1349,"MT":199,"sideResp":1,"stimulus":"img/900/randomdotsizeEA/L/2_Ratio_900_L_20_R_18.png","xmouse":[778,778,778,778,778,778,778,778,778,778,778,778,778,778,778,778,778,778,778,778,778,778,778,778,778,778,778,778,778,778,778,778,778,778,778,778,778,778,778,778,778,778,778,778,778,778,778,778,778,778,778,778,778,778,778,778,778,778,778,778,778,778,778,778,778,778,774,726,696,656,620,591,526,502,487,469,449,435],"ymouse":[652,652,652,652,652,652,652,652,652,652,652,652,652,652,652,652,652,652,652,652,652,652,652,652,652,652,652,652,652,652,652,652,652,652,652,652,652,652,652,652,652,652,652,652,652,652,652,652,652,652,652,652,652,652,652,652,652,652,652,652,652,652,652,652,652,651,646,574,530,475,432,391,276,229,194,149,101,44],"timestamp_mouse":[9,32,49,68,89,108,128,149,169,189,208,228,248,268,289,308,328,349,368,388,408,429,448,468,488,508,528,548,569,588,608,628,649,668,689,708,728,748,769,788,808,828,848,868,889,909,928,948,968,988,1009,1028,1049,1068,1089,1108,1128,1148,1169,1188,1208,1228,1248,1268,1288,1309,1328,1349,1368,1389,1409,1428,1449,1468,1488,1508,1528,1548],"xSR":741.5,"ySR":573.95,"xT1":424.9,"yT1":0,"xT2":1058.1,"yT2":0,"toosoon":0,"cond_shown":"randomdotsizeEA","ratio_trial":900,"smaller_num":"18","larger_num":"20","correct_side":1,"subjID":"AndreaNataliaChaparroFigueroa11","gender":"1","age":"11","school":"6"},{"start_time":1551901411640,"click_time":1551901412948,"finger_time":1551901412408,"fix_duration":408.6963865894705,"trial":45,"RT":768,"MT":540,"sideResp":2,"stimulus":"img/500/randomdotsizeEA/R/9_Ratio_500_L_2_R_4.png","xmouse":[800,800,800,800,800,800,800,800,800,800,800,800,800,800,800,800,800,800,800,800,800,800,800,800,800,800,800,800,800,800,800,800,800,800,800,802,810,814,820,821,830,849,899,912,921,928,933,944,954,963,978,993,1021,1036,1042,1047,1050,1054,1055,1057,1058,1061,1065,1070,1074,1078],"ymouse":[638,638,638,638,638,638,638,638,638,638,638,638,638,638,638,638,638,638,638,638,638,638,638,638,638,638,638,638,638,638,638,638,638,638,638,630,607,584,546,532,514,490,442,426,407,391,373,334,313,292,270,248,211,196,190,186,183,175,172,167,162,154,139,123,111,95],"timestamp_mouse":[8,37,49,68,89,109,128,149,169,190,208,228,248,268,288,309,328,348,368,389,408,428,449,468,488,509,529,548,568,589,608,628,648,669,688,708,729,748,768,789,808,828,849,868,888,908,928,949,968,988,1010,1028,1048,1068,1088,1109,1128,1148,1167,1189,1209,1229,1248,1268,1288,1308],"xSR":741.5,"ySR":573.95,"xT1":424.9,"yT1":0,"xT2":1058.1,"yT2":0,"toosoon":0,"cond_shown":"randomdotsizeEA","ratio_trial":500,"smaller_num":"2","larger_num":"4","correct_side":2,"subjID":"AndreaNataliaChaparroFigueroa11","gender":"1","age":"11","school":"6"},{"start_time":1551901415085,"click_time":1551901416110,"finger_time":1551901415648,"fix_duration":914.1869511140794,"trial":46,"RT":563,"MT":462,"sideResp":1,"stimulus":"img/250/randomdotsizeEA/L/5_Ratio_250_L_24_R_6.png","xmouse":[789,789,789,789,789,789,789,789,789,789,789,789,789,789,789,789,789,789,789,789,789,789,789,789,787,772,762,751,734,712,693,654,639,632,630,622,617,611,607,604,598,589,583,574,563,539,529,517,509,501,488,464],"ymouse":[650,650,650,650,650,650,650,650,650,650,650,650,650,650,650,650,650,650,650,650,650,650,650,645,641,625,613,606,595,580,561,515,496,483,471,437,422,409,398,384,355,329,315,301,286,259,244,224,202,180,145,59],"timestamp_mouse":[8,24,46,63,83,103,123,144,164,184,203,223,244,263,283,303,323,343,363,383,404,423,443,464,484,504,523,543,563,583,604,624,643,664,684,704,724,744,765,784,804,823,844,865,883,905,924,944,965,984,1004,1025],"xSR":741.5,"ySR":573.95,"xT1":424.9,"yT1":0,"xT2":1058.1,"yT2":0,"toosoon":0,"cond_shown":"randomdotsizeEA","ratio_trial":250,"smaller_num":"6","larger_num":"24","correct_side":1,"subjID":"AndreaNataliaChaparroFigueroa11","gender":"1","age":"11","school":"6"},{"start_time":1551901419666,"click_time":1551901420829,"finger_time":1551901420309,"fix_duration":1034.9905034991343,"trial":47,"RT":643,"MT":520,"sideResp":1,"stimulus":"img/750/equaldotanddens/L/10_Ratio_750_L_4_R_3.png","xmouse":[782,782,782,782,782,782,782,782,782,782,782,782,782,782,782,782,782,782,782,782,782,782,782,782,782,782,782,782,782,782,777,772,702,654,598,530,456,448,448,448,448,444,441,441,441,441,449,456,459,462,465,470,472,474,475,475,476,476,477],"ymouse":[638,638,638,638,638,638,638,638,638,638,638,638,638,638,638,638,638,638,638,638,638,638,638,638,638,638,638,638,638,638,630,623,512,456,398,346,293,282,277,275,274,257,243,230,217,205,175,161,149,139,129,114,108,104,103,102,101,100,99],"timestamp_mouse":[10,38,44,64,84,103,122,143,163,183,203,223,244,263,284,303,323,343,364,384,403,423,443,464,484,502,524,543,564,583,603,622,643,663,684,703,723,743,763,783,804,823,843,862,883,904,924,943,963,983,1003,1023,1042,1063,1084,1103,1123,1143,1163],"xSR":741.5,"ySR":573.95,"xT1":424.9,"yT1":0,"xT2":1058.1,"yT2":0,"toosoon":0,"cond_shown":"equaldotanddens","ratio_trial":750,"smaller_num":"3","larger_num":"4","correct_side":1,"subjID":"AndreaNataliaChaparroFigueroa11","gender":"1","age":"11","school":"6"},{"start_time":1551901421841,"click_time":1551901422908,"finger_time":1551901422529,"fix_duration":250,"trial":48,"RT":688,"MT":379,"sideResp":1,"stimulus":"img/900/equaldotanddens/R/7_Ratio_900_L_9_R_10.png","xmouse":[790,790,790,790,790,790,790,790,790,790,790,790,790,790,790,790,790,790,790,790,790,790,790,790,790,790,790,790,790,790,790,790,786,771,759,732,696,609,567,536,516,500,487,486,486,485,484,484,484,484,485,488,490,493],"ymouse":[616,616,616,616,616,616,616,616,616,616,616,616,616,616,616,616,616,616,616,616,616,616,616,616,616,616,616,616,616,616,616,613,606,582,563,524,472,329,272,230,202,183,166,165,164,163,161,153,146,136,127,117,103,97],"timestamp_mouse":[9,31,48,67,87,109,129,148,168,188,209,229,249,269,287,308,329,347,369,388,407,429,449,467,489,509,528,548,567,589,609,629,648,668,688,708,729,748,768,788,809,829,849,867,888,908,928,949,968,988,1008,1028,1048,1067],"xSR":741.5,"ySR":573.95,"xT1":424.9,"yT1":0,"xT2":1058.1,"yT2":0,"toosoon":0,"cond_shown":"equaldotanddens","ratio_trial":900,"smaller_num":"9","larger_num":"10","correct_side":2,"subjID":"AndreaNataliaChaparroFigueroa11","gender":"1","age":"11","school":"6"},{"start_time":1551901425961,"click_time":1551901427430,"finger_time":1551901426689,"fix_duration":250,"trial":49,"RT":728,"MT":741,"sideResp":2,"stimulus":"img/750/equaldotanddens/R/7_Ratio_750_L_3_R_4.png","xmouse":[743,743,743,743,743,743,743,743,743,743,743,743,743,743,743,743,743,743,743,743,743,743,743,743,743,743,743,743,743,743,743,746,752,757,759,761,768,779,790,805,822,839,859,864,866,866,866,891,901,911,918,927,945,953,960,969,979,985,987,993,1002,1016,1039,1050,1057,1063,1065,1066,1066,1067,1068,1070,1071,1072],"ymouse":[623,623,623,623,623,623,623,623,623,623,623,623,623,623,623,623,623,623,623,623,623,623,623,623,623,623,623,623,623,623,623,615,604,595,587,582,567,553,541,526,514,500,468,450,430,405,375,290,264,243,225,210,184,173,164,156,150,149,149,148,146,145,138,131,126,121,118,118,116,113,110,104,100,97],"timestamp_mouse":[8,36,49,68,89,107,129,148,169,188,208,228,249,267,289,308,328,348,369,387,408,428,448,468,488,508,527,548,569,587,609,628,648,668,688,708,728,748,768,788,808,828,848,868,888,908,929,948,968,988,1008,1027,1047,1068,1088,1108,1128,1147,1168,1189,1208,1228,1248,1269,1287,1309,1328,1348,1368,1388,1408,1429,1448,1469],"xSR":741.5,"ySR":573.95,"xT1":424.9,"yT1":0,"xT2":1058.1,"yT2":0,"toosoon":0,"cond_shown":"equaldotanddens","ratio_trial":750,"smaller_num":"3","larger_num":"4","correct_side":2,"subjID":"AndreaNataliaChaparroFigueroa11","gender":"1","age":"11","school":"6"},{"start_time":1551901428961,"click_time":1551901430590,"finger_time":1551901430290,"fix_duration":250,"trial":50,"RT":1329,"MT":300,"sideResp":2,"stimulus":"img/900/equaldotanddens/R/9_Ratio_900_L_18_R_20.png","xmouse":[803,803,803,803,803,803,803,803,803,803,803,803,803,803,803,803,803,803,803,803,803,803,803,803,803,803,803,803,803,803,803,803,803,803,803,803,803,803,803,803,803,803,803,803,803,803,803,803,803,803,803,803,803,803,803,803,803,797,784,773,772,772,772,772,778,788,818,825,834,845,856,876,921,950,966,977,989,999,1009,1021,1035,1064],"ymouse":[638,638,638,638,638,638,638,638,638,638,638,638,638,638,638,638,638,638,638,638,638,638,638,638,638,638,638,638,638,638,638,638,638,638,638,638,638,638,638,638,638,638,638,638,638,638,638,638,638,638,638,638,638,638,638,638,638,636,634,634,634,634,634,630,609,588,516,497,476,435,382,327,201,167,149,138,122,111,105,100,96,88],"timestamp_mouse":[13,38,47,68,88,109,129,148,167,188,208,229,248,268,287,308,328,349,368,388,407,428,447,468,488,508,529,549,569,588,609,629,648,668,689,709,729,748,769,788,808,828,849,868,889,909,928,947,969,988,1007,1028,1048,1069,1087,1108,1127,1148,1168,1188,1209,1228,1248,1268,1287,1307,1329,1348,1368,1388,1407,1428,1448,1468,1488,1508,1528,1548,1568,1588,1608,1628],"xSR":741.5,"ySR":573.95,"xT1":424.9,"yT1":0,"xT2":1058.1,"yT2":0,"toosoon":0,"cond_shown":"equaldotanddens","ratio_trial":900,"smaller_num":"18","larger_num":"20","correct_side":2,"subjID":"AndreaNataliaChaparroFigueroa11","gender":"1","age":"11","school":"6"},{"start_time":1551901432727,"click_time":1551901433770,"finger_time":1551901433308,"fix_duration":915.7293306292844,"trial":51,"RT":581,"MT":462,"sideResp":1,"stimulus":"img/250/equaldotsize/L/14_Ratio_250_L_12_R_3.png","xmouse":[811,811,811,811,811,811,811,811,811,811,811,811,811,811,811,811,811,811,811,811,811,811,811,811,811,811,810,810,810,817,826,831,835,836,836,836,828,816,750,712,674,637,603,579,562,562,562,562,562,552,545,536,521],"ymouse":[647,647,647,647,647,647,647,647,647,647,647,647,647,647,647,647,647,647,647,647,647,647,647,647,647,647,637,632,597,568,546,531,518,513,503,494,474,447,324,252,195,152,116,97,85,85,85,85,85,80,76,73,67],"timestamp_mouse":[8,36,42,62,81,102,122,141,163,183,202,222,243,262,283,301,323,341,362,382,401,422,441,463,482,502,522,543,562,581,602,623,642,663,682,701,723,742,762,781,802,822,843,862,882,902,922,942,962,982,1002,1022,1043],"xSR":741.5,"ySR":573.95,"xT1":424.9,"yT1":0,"xT2":1058.1,"yT2":0,"toosoon":0,"cond_shown":"equaldotsize","ratio_trial":250,"smaller_num":"3","larger_num":"12","correct_side":1,"subjID":"AndreaNataliaChaparroFigueroa11","gender":"1","age":"11","school":"6"},{"start_time":1551901436961,"click_time":1551901437849,"finger_time":1551901437570,"fix_duration":250.75817875871832,"trial":52,"RT":609,"MT":279,"sideResp":1,"stimulus":"img/250/equaldotsize/L/5_Ratio_250_L_24_R_6.png","xmouse":[767,768,768,768,768,768,768,768,768,768,768,768,768,768,768,768,768,768,768,768,768,767,766,765,765,764,759,756,751,745,727,635,573,508,445,408,396,396,397,400,405,414,420,424,430],"ymouse":[656,653,652,652,652,652,652,652,652,652,652,652,652,652,652,652,652,652,652,651,651,651,651,651,651,651,651,651,648,639,610,469,362,250,160,110,92,91,88,87,83,75,72,71,68],"timestamp_mouse":[7,43,48,69,88,108,129,148,169,189,209,228,248,269,288,308,329,348,368,388,408,427,448,468,488,509,528,548,568,588,609,628,648,668,688,708,728,748,768,788,808,828,848,868,888],"xSR":741.5,"ySR":573.95,"xT1":424.9,"yT1":0,"xT2":1058.1,"yT2":0,"toosoon":0,"cond_shown":"equaldotsize","ratio_trial":250,"smaller_num":"6","larger_num":"24","correct_side":1,"subjID":"AndreaNataliaChaparroFigueroa11","gender":"1","age":"11","school":"6"},{"start_time":1551901440281,"click_time":1551901442229,"finger_time":1551901440948,"fix_duration":250,"trial":53,"RT":667,"MT":1281,"sideResp":2,"stimulus":"img/750/equaldotanddens/R/11_Ratio_750_L_12_R_16.png","xmouse":[800,800,800,800,800,800,800,800,800,800,800,800,800,800,800,800,800,800,800,800,800,800,800,800,800,800,800,800,800,800,800,802,806,813,818,822,824,831,842,855,866,891,899,908,916,924,946,960,974,984,995,998,1000,1002,1005,1009,1016,1020,1024,1028,1035,1041,1045,1048,1051,1059,1063,1066,1066,1066,1067,1067,1067,1067,1067,1067,1067,1068,1068,1068,1068,1069,1069,1069,1069,1070,1071,1071,1071,1071,1071,1073,1073,1073,1074,1074,1075,1076],"ymouse":[626,626,626,626,626,626,626,626,626,626,626,626,626,626,626,626,626,626,626,626,626,626,626,626,626,626,626,626,626,626,626,617,593,570,549,524,513,495,474,453,433,383,364,344,325,306,272,255,238,226,212,208,205,200,195,190,180,175,172,168,161,155,151,149,144,137,133,129,129,129,128,128,126,125,123,123,123,122,122,121,121,118,118,117,117,115,113,112,111,110,108,106,105,105,104,102,101,99],"timestamp_mouse":[9,40,48,68,88,108,128,148,169,188,209,228,248,268,288,309,327,349,368,388,408,428,448,467,489,508,528,549,567,588,608,629,647,667,689,708,728,748,768,787,809,829,848,868,888,908,928,949,968,988,1008,1027,1048,1068,1089,1109,1128,1149,1169,1188,1208,1227,1248,1269,1288,1308,1328,1348,1368,1388,1409,1429,1448,1469,1488,1508,1528,1549,1569,1587,1609,1628,1648,1668,1689,1709,1728,1748,1768,1788,1808,1829,1849,1867,1888,1909,1928,1948],"xSR":741.5,"ySR":573.95,"xT1":424.9,"yT1":0,"xT2":1058.1,"yT2":0,"toosoon":0,"cond_shown":"equaldotanddens","ratio_trial":750,"smaller_num":"12","larger_num":"16","correct_side":2,"subjID":"AndreaNataliaChaparroFigueroa11","gender":"1","age":"11","school":"6"},{"start_time":1551901445194,"click_time":1551901446789,"finger_time":1551901445989,"fix_duration":1383.826341696638,"trial":54,"RT":795,"MT":800,"sideResp":2,"stimulus":"img/750/equaldotsize/R/12_Ratio_750_L_3_R_4.png","xmouse":[763,763,763,763,763,763,763,763,763,763,763,763,763,763,763,763,763,763,763,763,763,763,763,763,763,763,763,763,763,763,763,763,763,763,763,763,763,764,775,784,785,785,785,785,785,785,785,785,785,785,785,785,786,789,800,811,824,844,884,1007,1074,1134,1171,1195,1204,1218,1220,1222,1223,1223,1223,1219,1216,1216,1214,1206,1196,1185,1174,1154],"ymouse":[654,654,654,654,654,654,654,654,654,654,654,654,654,654,654,654,654,654,654,654,654,654,654,654,654,654,654,654,654,654,654,654,654,654,654,654,654,655,667,680,681,681,681,681,681,681,681,681,681,681,681,677,670,650,602,577,556,532,495,407,345,280,219,170,136,85,76,69,63,54,48,41,37,36,35,32,31,30,29,28],"timestamp_mouse":[16,37,55,75,95,115,136,155,175,195,216,235,255,275,295,315,334,354,374,394,415,435,455,476,495,515,536,554,575,595,615,636,656,676,696,716,735,755,775,795,816,835,855,874,896,916,935,955,976,995,1016,1035,1055,1075,1095,1115,1135,1155,1175,1195,1214,1235,1255,1275,1295,1315,1335,1355,1376,1395,1414,1435,1455,1475,1495,1514,1534,1555,1576,1595],"xSR":741.5,"ySR":573.95,"xT1":424.9,"yT1":0,"xT2":1058.1,"yT2":0,"toosoon":0,"cond_shown":"equaldotsize","ratio_trial":750,"smaller_num":"3","larger_num":"4","correct_side":2,"subjID":"AndreaNataliaChaparroFigueroa11","gender":"1","age":"11","school":"6"},{"start_time":1551901449442,"click_time":1551901450209,"finger_time":1551901450050,"fix_duration":1431.3665731830952,"trial":55,"RT":608,"MT":159,"sideResp":2,"stimulus":"img/250/equaldotanddens/R/13_Ratio_250_L_2_R_8.png","xmouse":[797,797,797,797,797,797,797,797,797,797,797,797,797,797,797,797,797,797,797,797,797,797,797,797,797,797,797,796,796,796,800,806,821,849,887,932,973,1036,1066],"ymouse":[655,655,655,655,655,655,655,655,655,655,655,655,655,655,655,655,655,655,655,655,655,655,655,655,655,655,655,654,634,606,571,530,444,382,315,252,197,115,83],"timestamp_mouse":[8,36,47,67,87,107,127,147,166,188,208,227,247,268,287,307,326,347,366,387,408,426,447,467,486,507,527,548,567,588,608,628,647,667,687,707,727,747,766],"xSR":741.5,"ySR":573.95,"xT1":424.9,"yT1":0,"xT2":1058.1,"yT2":0,"toosoon":0,"cond_shown":"equaldotanddens","ratio_trial":250,"smaller_num":"2","larger_num":"8","correct_side":2,"subjID":"AndreaNataliaChaparroFigueroa11","gender":"1","age":"11","school":"6"},{"start_time":1551901453901,"click_time":1551901455109,"finger_time":1551901454528,"fix_duration":911.3996950437413,"trial":56,"RT":627,"MT":581,"sideResp":2,"stimulus":"img/250/equaldotsize/R/12_Ratio_250_L_5_R_20.png","xmouse":[791,791,791,791,791,791,791,791,791,791,791,791,791,791,791,791,791,791,791,791,791,791,791,791,791,791,791,791,791,791,803,816,834,851,872,886,901,920,948,979,1071,1104,1127,1151,1171,1201,1212,1220,1224,1225,1225,1223,1223,1222,1220,1217,1216,1211,1203,1171,1154],"ymouse":[639,639,639,639,639,639,639,639,639,639,639,639,639,639,639,639,639,639,639,639,639,639,639,639,639,639,639,639,639,630,601,570,530,492,442,416,392,367,335,304,227,198,172,142,118,83,70,59,51,42,37,35,35,34,33,32,32,31,31,31,31],"timestamp_mouse":[8,36,47,68,88,108,128,149,168,188,208,228,249,269,288,308,328,347,369,388,408,427,448,468,487,509,528,549,569,588,608,627,649,668,688,707,728,748,768,788,809,827,847,868,889,908,928,948,968,988,1007,1028,1049,1068,1088,1109,1128,1148,1169,1189,1207],"xSR":741.5,"ySR":573.95,"xT1":424.9,"yT1":0,"xT2":1058.1,"yT2":0,"toosoon":0,"cond_shown":"equaldotsize","ratio_trial":250,"smaller_num":"5","larger_num":"20","correct_side":2,"subjID":"AndreaNataliaChaparroFigueroa11","gender":"1","age":"11","school":"6"},{"start_time":1551901458265,"click_time":1551901459209,"finger_time":1551901459070,"fix_duration":1475.129409703093,"trial":57,"RT":805,"MT":139,"sideResp":1,"stimulus":"img/250/equaldotsize/L/3_Ratio_250_L_8_R_2.png","xmouse":[787,787,787,787,787,787,787,787,787,787,787,787,787,787,787,787,787,787,787,787,787,787,787,787,787,787,787,787,787,787,787,787,787,782,778,775,768,754,750,746,741,703,678,640,593,556,529,496],"ymouse":[618,618,618,618,618,618,618,618,618,618,618,618,618,618,618,618,618,618,618,618,618,618,618,618,618,618,618,618,618,618,618,618,617,618,619,619,619,619,619,616,598,467,398,312,224,148,88,7],"timestamp_mouse":[9,39,45,65,84,104,124,143,164,183,204,224,244,264,285,303,324,344,365,384,403,424,444,464,484,503,525,544,563,584,603,625,644,664,685,704,724,744,764,783,805,824,843,864,885,904,924,943],"xSR":741.5,"ySR":573.95,"xT1":424.9,"yT1":0,"xT2":1058.1,"yT2":0,"toosoon":0,"cond_shown":"equaldotsize","ratio_trial":250,"smaller_num":"2","larger_num":"8","correct_side":1,"subjID":"AndreaNataliaChaparroFigueroa11","gender":"1","age":"11","school":"6"},{"start_time":1551901461445,"click_time":1551901462470,"finger_time":1551901461990,"fix_duration":576.0333552180674,"trial":58,"RT":545,"MT":480,"sideResp":2,"stimulus":"img/250/equaldotanddens/R/4_Ratio_250_L_3_R_12.png","xmouse":[816,816,816,816,816,816,816,816,816,816,816,816,816,816,816,816,816,816,816,816,816,816,816,816,816,816,817,844,879,913,938,953,974,987,998,1012,1026,1064,1079,1093,1103,1109,1118,1121,1123,1124,1126,1128,1129,1129,1129,1129],"ymouse":[643,643,643,643,643,643,643,643,643,643,643,643,643,643,643,643,643,643,643,643,643,643,643,643,643,643,635,572,514,455,410,385,349,331,317,304,290,254,236,216,199,181,157,148,143,139,133,119,113,109,104,99],"timestamp_mouse":[9,24,44,64,84,105,124,144,163,185,204,224,244,264,284,303,325,344,363,383,404,424,444,463,484,505,525,545,564,584,604,625,644,664,684,703,724,744,764,783,804,825,844,863,883,904,925,944,963,984,1004,1025],"xSR":741.5,"ySR":573.95,"xT1":424.9,"yT1":0,"xT2":1058.1,"yT2":0,"toosoon":0,"cond_shown":"equaldotanddens","ratio_trial":250,"smaller_num":"3","larger_num":"12","correct_side":2,"subjID":"AndreaNataliaChaparroFigueroa11","gender":"1","age":"11","school":"6"},{"start_time":1551901464469,"click_time":1551901465329,"finger_time":1551901465009,"fix_duration":699.2370366431916,"trial":59,"RT":540,"MT":320,"sideResp":1,"stimulus":"img/750/equaldotanddens/L/10_Ratio_750_L_4_R_3.png","xmouse":[782,782,782,782,782,782,782,782,782,782,782,782,782,782,782,782,782,782,782,782,782,782,782,782,782,774,747,716,680,642,612,556,541,535,532,532,533,534,534,534,534,530,525,520],"ymouse":[644,644,644,644,644,644,644,644,644,644,644,644,644,644,644,644,644,644,644,644,644,644,644,644,644,630,594,564,538,501,458,341,306,280,260,243,209,192,176,160,142,116,100,90],"timestamp_mouse":[11,20,40,60,80,100,120,140,159,180,200,219,240,260,280,301,320,339,359,381,400,420,440,460,480,499,520,540,559,580,600,620,639,660,680,700,720,740,759,780,800,820,840,860],"xSR":741.5,"ySR":573.95,"xT1":424.9,"yT1":0,"xT2":1058.1,"yT2":0,"toosoon":0,"cond_shown":"equaldotanddens","ratio_trial":750,"smaller_num":"3","larger_num":"4","correct_side":1,"subjID":"AndreaNataliaChaparroFigueroa11","gender":"1","age":"11","school":"6"},{"start_time":1551901468151,"click_time":1551901469289,"finger_time":1551901469008,"fix_duration":1080.8087606605106,"trial":60,"RT":857,"MT":281,"sideResp":2,"stimulus":"img/750/equaldotanddens/R/7_Ratio_750_L_3_R_4.png","xmouse":[769,769,769,769,769,769,769,769,769,769,769,769,769,769,769,769,769,769,769,769,769,769,769,769,769,769,769,769,769,769,769,769,769,771,772,776,778,778,778,778,778,783,817,859,910,959,997,1031,1036,1044,1053,1062,1082,1090,1097,1100,1101],"ymouse":[618,618,618,618,618,618,618,618,618,618,618,618,618,618,618,618,618,618,618,618,618,618,618,618,618,618,618,618,618,618,618,618,618,618,618,620,620,620,620,620,620,615,558,488,431,387,356,312,295,275,251,225,177,152,132,114,93],"timestamp_mouse":[19,38,57,78,99,117,137,158,179,198,218,238,257,278,298,318,338,358,378,398,419,437,457,477,499,518,539,559,577,598,617,639,658,677,699,719,738,758,778,799,818,838,857,879,898,918,938,958,978,998,1018,1038,1058,1078,1098,1118,1138],"xSR":741.5,"ySR":573.95,"xT1":424.9,"yT1":0,"xT2":1058.1,"yT2":0,"toosoon":0,"cond_shown":"equaldotanddens","ratio_trial":750,"smaller_num":"3","larger_num":"4","correct_side":2,"subjID":"AndreaNataliaChaparroFigueroa11","gender":"1","age":"11","school":"6"},{"start_time":1551901471042,"click_time":1551901471988,"finger_time":1551901471768,"fix_duration":411.44988576936635,"trial":61,"RT":726,"MT":220,"sideResp":2,"stimulus":"img/250/randomdotsizeEA/R/4_Ratio_250_L_3_R_12.png","xmouse":[779,779,779,779,779,779,779,779,779,779,779,779,779,779,779,779,779,779,779,779,779,779,779,779,779,779,779,779,779,779,779,779,779,779,780,802,838,877,946,966,980,989,1018,1028,1036,1045,1055,1066],"ymouse":[666,666,666,666,666,666,666,666,666,666,666,666,666,666,666,666,666,666,666,666,666,666,666,666,666,666,666,666,666,666,666,666,666,666,655,617,558,483,364,317,285,262,197,172,152,130,106,81],"timestamp_mouse":[11,39,46,68,87,106,127,147,166,186,207,226,246,268,287,307,327,347,366,387,407,426,447,466,488,507,527,547,566,588,607,627,647,666,687,708,726,747,766,787,807,828,847,866,887,907,927,946],"xSR":741.5,"ySR":573.95,"xT1":424.9,"yT1":0,"xT2":1058.1,"yT2":0,"toosoon":0,"cond_shown":"randomdotsizeEA","ratio_trial":250,"smaller_num":"3","larger_num":"12","correct_side":2,"subjID":"AndreaNataliaChaparroFigueroa11","gender":"1","age":"11","school":"6"},{"start_time":1551901474602,"click_time":1551901475509,"finger_time":1551901475329,"fix_duration":1472.3528658660653,"trial":62,"RT":727,"MT":180,"sideResp":2,"stimulus":"img/750/randomdotsizeEA/R/11_Ratio_750_L_12_R_16.png","xmouse":[801,801,801,801,801,801,801,801,801,801,801,801,801,801,801,801,801,801,801,801,801,801,801,801,801,801,801,801,801,800,802,804,806,807,809,811,813,815,819,837,849,868,900,936,1027,1115],"ymouse":[639,639,639,639,639,639,639,639,639,639,639,639,639,639,639,639,639,639,639,639,639,639,639,639,639,639,639,639,639,631,609,597,591,586,580,577,573,570,565,537,515,480,424,356,201,81],"timestamp_mouse":[9,35,46,67,87,108,127,148,167,187,206,228,248,267,287,307,327,347,367,387,407,427,447,468,486,506,527,547,567,588,606,627,647,668,687,706,727,747,768,787,807,828,846,868,887,907],"xSR":741.5,"ySR":573.95,"xT1":424.9,"yT1":0,"xT2":1058.1,"yT2":0,"toosoon":0,"cond_shown":"randomdotsizeEA","ratio_trial":750,"smaller_num":"12","larger_num":"16","correct_side":2,"subjID":"AndreaNataliaChaparroFigueroa11","gender":"1","age":"11","school":"6"},{"start_time":1551901478295,"click_time":1551901479409,"finger_time":1551901478968,"fix_duration":445.99412853776744,"trial":63,"RT":673,"MT":441,"sideResp":2,"stimulus":"img/250/equaldotanddens/R/4_Ratio_250_L_3_R_12.png","xmouse":[762,762,762,762,762,762,762,762,762,762,762,762,762,762,762,762,762,762,762,762,762,762,762,762,762,762,762,762,762,762,763,770,778,785,793,813,824,837,853,877,914,930,947,966,982,997,1005,1016,1027,1037,1039,1041,1041,1044,1048,1061],"ymouse":[630,630,630,630,630,630,630,630,630,630,630,630,630,630,630,630,630,630,630,630,630,630,630,630,630,630,630,630,630,630,631,618,599,573,544,491,464,435,397,355,304,283,261,234,212,182,171,159,147,130,126,121,116,113,107,98],"timestamp_mouse":[15,43,54,74,94,115,135,155,175,195,214,233,255,273,294,314,333,355,375,394,415,434,455,475,494,513,534,554,575,595,614,633,653,673,693,713,734,753,773,795,814,834,854,874,895,913,934,954,974,994,1013,1034,1055,1074,1094,1114],"xSR":741.5,"ySR":573.95,"xT1":424.9,"yT1":0,"xT2":1058.1,"yT2":0,"toosoon":0,"cond_shown":"equaldotanddens","ratio_trial":250,"smaller_num":"3","larger_num":"12","correct_side":2,"subjID":"AndreaNataliaChaparroFigueroa11","gender":"1","age":"11","school":"6"},{"start_time":1551901480868,"click_time":1551901482008,"finger_time":1551901481550,"fix_duration":417.52086957866317,"trial":64,"RT":682,"MT":458,"sideResp":1,"stimulus":"img/250/equaldotanddens/L/15_Ratio_250_L_12_R_3.png","xmouse":[793,793,793,793,793,793,793,793,793,793,793,793,793,793,793,793,793,793,793,793,793,793,793,793,793,793,793,793,793,793,793,793,782,763,741,721,703,698,695,695,695,688,660,647,636,627,608,601,593,586,583,581,576,570,558,544,515,506],"ymouse":[644,644,644,644,644,644,644,644,644,644,644,644,644,644,644,644,644,644,644,644,644,644,644,644,644,644,644,644,644,644,644,644,620,583,558,532,503,494,480,460,432,392,291,262,235,214,173,159,149,140,137,136,135,132,128,122,104,95],"timestamp_mouse":[9,34,41,61,82,100,121,142,161,181,201,221,240,261,280,301,322,342,361,382,401,421,441,460,480,501,521,542,561,581,600,621,641,661,682,702,721,741,761,780,802,821,840,861,881,900,921,941,962,980,1001,1021,1040,1061,1082,1101,1121,1140],"xSR":741.5,"ySR":573.95,"xT1":424.9,"yT1":0,"xT2":1058.1,"yT2":0,"toosoon":0,"cond_shown":"equaldotanddens","ratio_trial":250,"smaller_num":"3","larger_num":"12","correct_side":1,"subjID":"AndreaNataliaChaparroFigueroa11","gender":"1","age":"11","school":"6"},{"start_time":1551901484201,"click_time":1551901485528,"finger_time":1551901485309,"fix_duration":991.6553439454635,"trial":65,"RT":1108,"MT":219,"sideResp":2,"stimulus":"img/750/randomdotsizeEA/R/3_Ratio_750_L_15_R_20.png","xmouse":[758,758,758,758,758,758,758,758,758,758,758,758,758,758,758,758,758,758,758,758,758,758,758,758,758,758,758,758,758,758,758,758,758,758,758,758,758,758,758,758,758,758,758,758,758,758,758,758,758,758,758,758,758,758,759,792,824,871,911,944,988,1003,1014,1029,1044,1065,1069],"ymouse":[623,623,623,623,623,623,623,623,623,623,623,623,623,623,623,623,623,623,623,623,623,623,623,623,623,623,623,623,623,623,623,623,623,623,623,623,623,623,623,623,623,623,623,623,623,623,623,623,623,623,623,623,623,623,618,561,522,461,410,359,266,229,204,174,148,110,98],"timestamp_mouse":[12,40,49,68,87,108,129,148,167,188,207,228,249,267,288,308,327,348,368,388,407,428,448,468,489,508,528,547,568,588,608,628,648,669,688,708,728,747,769,788,808,829,848,867,888,909,927,948,969,987,1008,1028,1048,1068,1088,1108,1128,1148,1169,1188,1208,1228,1248,1267,1287,1308,1327],"xSR":741.5,"ySR":573.95,"xT1":424.9,"yT1":0,"xT2":1058.1,"yT2":0,"toosoon":0,"cond_shown":"randomdotsizeEA","ratio_trial":750,"smaller_num":"15","larger_num":"20","correct_side":2,"subjID":"AndreaNataliaChaparroFigueroa11","gender":"1","age":"11","school":"6"},{"start_time":1551901487854,"click_time":1551901488750,"finger_time":1551901488588,"fix_duration":1362.8554392408503,"trial":66,"RT":734,