[{"start_time":1551881905905,"click_time":1551881907120,"finger_time":1551881905921,"fix_duration":723.0123317103541,"trial":0,"RT":16,"MT":1199,"sideResp":2,"stimulus":[],"xmouse":[819,819,819,819,819,819,819,819,819,819,819,819,819,819,819,819,819,819,819,819,819,819,819,819,819,819,819,819,820,820,820,820,820,820,820,820,819,819,815,815,815,815,815,815,815,815,829,865,916,931,959,959,961,962,962,963,969,982,1006,1022,1071],"ymouse":[546,546,546,546,546,546,546,546,546,546,546,546,546,546,546,546,546,546,546,546,546,546,546,546,546,546,546,546,549,581,584,584,585,587,594,602,604,611,617,618,618,618,618,618,618,618,570,469,321,290,226,209,200,190,179,151,133,117,103,98,73],"timestamp_mouse":[15,35,54,74,93,114,133,153,173,194,213,235,254,274,293,313,334,354,374,394,414,434,453,474,494,514,534,554,573,594,614,633,654,674,693,713,733,754,774,793,814,834,853,874,893,913,933,954,973,993,1013,1033,1054,1073,1094,1113,1134,1153,1173,1193,1214],"xSR":741.5,"ySR":500.5,"xT1":424.9,"yT1":0,"xT2":1058.1,"yT2":0,"toosoon":0,"cond_shown":"Incongruent","ratio_trial":100,"L_num":9,"L_den":10,"R_num":20,"R_den":25,"correct_side":1,"subjID":"MicaelaReyesPerez8","gender":"1","age":"11","school":"6","test":{"fix_dur":[250,1500],"timestim":1000,"targets_dim":[100,100],"targets_relative_coord":[0.3,0.7],"size_stim":[880,420],"start_dim":[100,100],"size_start":[300,300],"size_fix":60,"samplingrate":20,"img_types":["Congruent","Incongruent"],"ratios":[100,200,300],"rep_conds":19,"nTrials":120,"trials_to_rest":500,"Trials_order":[103,26,75,46,8,115,83,9,82,47,72,77,85,94,99,56,59,78,17,106,68,2,5,81,10,41,102,13,50,14,93,110,58,25,51,39,98,76,64,86,113,101,22,6,73,74,96,40,117,49,19,43,54,100,104,37,29,52,36,4,107,44,18,55,105,15,66,32,119,3,31,11,91,111,34,62,67,79,71,33,95,21,69,16,108,90,30,23,24,7,109,63,92,89,61,53,38,87,57,80,42,45,60,112,116,12,97,88,48,65,0,114,28,27,20,1,118,35,70,84],"cond_shown":["Incongruent","Congruent","Incongruent","Congruent","Congruent","Incongruent","Incongruent","Incongruent","Congruent","Incongruent","Congruent","Incongruent","Incongruent","Congruent","Incongruent","Congruent","Incongruent","Congruent","Incongruent","Congruent","Congruent","Congruent","Incongruent","Incongruent","Congruent","Incongruent","Congruent","Incongruent","Congruent","Congruent","Incongruent","Congruent","Congruent","Incongruent","Incongruent","Incongruent","Congruent","Congruent","Congruent","Congruent","Incongruent","Incongruent","Congruent","Congruent","Incongruent","Congruent","Congruent","Congruent","Incongruent","Incongruent","Incongruent","Incongruent","Congruent","Congruent","Congruent","Incongruent","Incongruent","Congruent","Congruent","Congruent","Incongruent","Congruent","Congruent","Incongruent","Incongruent","Incongruent","Congruent","Congruent","Incongruent","Incongruent","Incongruent","Incongruent","Incongruent","Incongruent","Congruent","Congruent","Incongruent","Incongruent","Incongruent","Incongruent","Incongruent","Incongruent","Incongruent","Congruent","Congruent","Congruent","Congruent","Incongruent","Congruent","Incongruent","Incongruent","Incongruent","Congruent","Incongruent","Incongruent","Incongruent","Congruent","Incongruent","Incongruent","Congruent","Congruent","Incongruent","Congruent","Congruent","Congruent","Congruent","Incongruent","Congruent","Congruent","Incongruent","Congruent","Congruent","Congruent","Incongruent","Congruent","Incongruent","Congruent","Incongruent","Congruent","Congruent"],"ratio_trial":[100,200,200,300,200,100,300,200,300,300,100,300,100,300,200,200,300,100,300,300,200,200,300,200,300,300,100,100,200,200,200,200,300,100,200,200,200,300,300,200,300,300,300,100,100,200,100,300,200,100,100,100,100,300,200,100,300,300,100,300,300,200,100,100,200,200,100,200,300,200,100,300,100,200,300,200,100,100,300,200,300,200,200,300,100,100,100,300,100,100,100,200,200,300,100,300,200,200,200,200,100,200,100,300,200,100,100,300,100,300,100,100,300,200,200,100,300,300,300,100],"left_num":[9,6,7,1,9,13,4,9,24,1,3,8,13,2,7,16,13,2,13,7,9,8,4,14,3,1,1,9,13,8,7,20,7,9,3,7,3,3,11,21,13,13,3,7,11,3,15,1,14,8,11,3,3,2,14,6,7,11,10,9,2,3,1,12,3,1,9,15,8,7,6,1,8,7,11,14,8,17,8,1,4,11,9,1,6,11,1,7,6,3,9,7,3,4,3,8,16,4,7,4,2,14,12,8,3,7,1,1,9,4,9,1,20,4,3,6,12,4,7,2],"right_num":[20,7,8,19,4,6,8,8,8,3,2,9,6,12,12,12,12,6,12,20,13,7,2,12,11,3,18,14,14,3,6,9,20,13,11,6,14,11,4,2,12,12,4,15,9,9,13,8,12,1,9,8,2,10,6,3,8,1,3,3,6,14,3,9,11,2,8,4,9,8,11,3,1,4,1,6,6,10,9,3,2,3,8,11,15,4,3,8,5,11,6,14,11,2,8,14,9,1,14,3,6,6,13,10,9,15,8,19,8,8,8,18,13,1,14,7,2,2,20,11],"left_den":[10,12,10,3,20,26,5,15,30,2,6,10,26,10,10,20,26,5,26,14,30,15,20,30,12,2,2,15,26,15,15,25,14,15,4,15,6,12,22,30,26,26,6,14,22,12,25,30,30,20,22,5,6,20,28,12,10,22,25,10,4,6,2,24,4,3,15,25,10,10,10,2,20,15,22,28,16,30,10,2,20,20,15,5,12,22,2,10,20,5,18,10,10,20,5,10,30,30,10,8,5,30,30,15,12,14,2,3,15,5,15,2,25,30,10,10,24,20,14,5],"right_den":[25,10,16,30,16,10,16,10,16,15,5,18,10,24,24,20,15,12,15,25,26,21,4,18,20,15,30,28,20,9,9,15,25,26,20,9,20,20,20,4,15,15,5,25,15,20,26,24,18,2,15,16,5,25,20,5,20,5,10,5,30,20,5,15,20,15,16,10,18,16,22,15,2,6,5,20,10,15,18,10,4,4,10,22,25,10,5,20,25,22,10,28,22,4,16,28,27,3,28,10,12,9,26,12,20,25,20,30,16,16,16,30,26,3,28,14,10,4,25,22],"correct_side":[1,2,1,2,1,2,1,2,1,1,1,1,2,2,1,1,2,2,2,2,2,1,2,2,2,1,2,1,2,1,2,1,2,1,1,2,2,2,1,1,2,2,2,2,2,2,1,2,2,2,2,1,1,2,1,2,1,1,1,1,1,2,2,2,1,1,1,1,1,1,1,1,2,2,1,1,2,2,1,1,2,2,2,2,2,1,2,1,1,1,2,1,2,2,1,1,1,2,1,1,2,2,2,2,2,2,1,2,1,1,1,2,1,2,2,1,1,2,2,2],"img_shown":["img2/100/Incongruent/L/I_Dist_100_LN_9_LD_10_RN_20_RD_25_0.png","img2/200/Congruent/R/C_Dist_200_LN_6_LD_12_RN_7_RD_10_1.png","img2/200/Incongruent/L/I_Dist_200_LN_7_LD_10_RN_8_RD_16_0.png","img2/300/Congruent/R/C_Dist_300_LN_1_LD_3_RN_19_RD_30_1.png","img2/200/Congruent/L/C_Dist_200_LN_9_LD_20_RN_4_RD_16_0.png","img2/100/Incongruent/R/I_Dist_100_LN_13_LD_26_RN_6_RD_10_1.png","img2/300/Incongruent/L/I_Dist_300_LN_4_LD_5_RN_8_RD_16_0.png","img2/200/Incongruent/R/I_Dist_200_LN_9_LD_15_RN_8_RD_10_1.png","img2/300/Congruent/L/C_Dist_300_LN_24_LD_30_RN_8_RD_16_0.png","img2/300/Incongruent/L/I_Dist_300_LN_1_LD_2_RN_3_RD_15_0.png","img2/100/Congruent/L/C_Dist_100_LN_3_LD_6_RN_2_RD_5_0.png","img2/300/Incongruent/L/I_Dist_300_LN_8_LD_10_RN_9_RD_18_0.png","img2/100/Incongruent/R/I_Dist_100_LN_13_LD_26_RN_6_RD_10_1.png","img2/300/Congruent/R/C_Dist_300_LN_2_LD_10_RN_12_RD_24_1.png","img2/200/Incongruent/L/I_Dist_200_LN_7_LD_10_RN_12_RD_24_0.png","img2/200/Congruent/L/C_Dist_200_LN_16_LD_20_RN_12_RD_20_0.png","img2/300/Incongruent/R/I_Dist_300_LN_13_LD_26_RN_12_RD_15_1.png","img2/100/Congruent/R/C_Dist_100_LN_2_LD_5_RN_6_RD_12_1.png","img2/300/Incongruent/R/I_Dist_300_LN_13_LD_26_RN_12_RD_15_1.png","img2/300/Congruent/R/C_Dist_300_LN_7_LD_14_RN_20_RD_25_1.png","img2/200/Congruent/R/C_Dist_200_LN_9_LD_30_RN_13_RD_26_1.png","img2/200/Congruent/L/C_Dist_200_LN_8_LD_15_RN_7_RD_21_0.png","img2/300/Incongruent/R/I_Dist_300_LN_4_LD_20_RN_2_RD_4_1.png","img2/200/Incongruent/R/I_Dist_200_LN_14_LD_30_RN_12_RD_18_1.png","img2/300/Congruent/R/C_Dist_300_LN_3_LD_12_RN_11_RD_20_1.png","img2/300/Incongruent/L/I_Dist_300_LN_1_LD_2_RN_3_RD_15_0.png","img2/100/Congruent/R/C_Dist_100_LN_1_LD_2_RN_18_RD_30_1.png","img2/100/Incongruent/L/I_Dist_100_LN_9_LD_15_RN_14_RD_28_0.png","img2/200/Congruent/R/C_Dist_200_LN_13_LD_26_RN_14_RD_20_1.png","img2/200/Congruent/L/C_Dist_200_LN_8_LD_15_RN_3_RD_9_0.png","img2/200/Incongruent/R/I_Dist_200_LN_7_LD_15_RN_6_RD_9_1.png","img2/200/Congruent/L/C_Dist_200_LN_20_LD_25_RN_9_RD_15_0.png","img2/300/Congruent/R/C_Dist_300_LN_7_LD_14_RN_20_RD_25_1.png","img2/100/Incongruent/L/I_Dist_100_LN_9_LD_15_RN_13_RD_26_0.png","img2/200/Incongruent/L/I_Dist_200_LN_3_LD_4_RN_11_RD_20_0.png","img2/200/Incongruent/R/I_Dist_200_LN_7_LD_15_RN_6_RD_9_1.png","img2/200/Congruent/R/C_Dist_200_LN_3_LD_6_RN_14_RD_20_1.png","img2/300/Congruent/R/C_Dist_300_LN_3_LD_12_RN_11_RD_20_1.png","img2/300/Congruent/L/C_Dist_300_LN_11_LD_22_RN_4_RD_20_0.png","img2/200/Congruent/L/C_Dist_200_LN_21_LD_30_RN_2_RD_4_0.png","img2/300/Incongruent/R/I_Dist_300_LN_13_LD_26_RN_12_RD_15_1.png","img2/300/Incongruent/R/I_Dist_300_LN_13_LD_26_RN_12_RD_15_1.png","img2/300/Congruent/R/C_Dist_300_LN_3_LD_6_RN_4_RD_5_1.png","img2/100/Congruent/R/C_Dist_100_LN_7_LD_14_RN_15_RD_25_1.png","img2/100/Incongruent/R/I_Dist_100_LN_11_LD_22_RN_9_RD_15_1.png","img2/200/Congruent/R/C_Dist_200_LN_3_LD_12_RN_9_RD_20_1.png","img2/100/Congruent/L/C_Dist_100_LN_15_LD_25_RN_13_RD_26_0.png","img2/300/Congruent/R/C_Dist_300_LN_1_LD_30_RN_8_RD_24_1.png","img2/200/Incongruent/R/I_Dist_200_LN_14_LD_30_RN_12_RD_18_1.png","img2/100/Incongruent/R/I_Dist_100_LN_8_LD_20_RN_1_RD_2_1.png","img2/100/Incongruent/R/I_Dist_100_LN_11_LD_22_RN_9_RD_15_1.png","img2/100/Incongruent/L/I_Dist_100_LN_3_LD_5_RN_8_RD_16_0.png","img2/100/Congruent/L/C_Dist_100_LN_3_LD_6_RN_2_RD_5_0.png","img2/300/Congruent/R/C_Dist_300_LN_2_LD_20_RN_10_RD_25_1.png","img2/200/Congruent/L/C_Dist_200_LN_14_LD_28_RN_6_RD_20_0.png","img2/100/Incongruent/R/I_Dist_100_LN_6_LD_12_RN_3_RD_5_1.png","img2/300/Incongruent/L/I_Dist_300_LN_7_LD_10_RN_8_RD_20_0.png","img2/300/Congruent/L/C_Dist_300_LN_11_LD_22_RN_1_RD_5_0.png","img2/100/Congruent/L/C_Dist_100_LN_10_LD_25_RN_3_RD_10_0.png","img2/300/Congruent/L/C_Dist_300_LN_9_LD_10_RN_3_RD_5_0.png","img2/300/Incongruent/L/I_Dist_300_LN_2_LD_4_RN_6_RD_30_0.png","img2/200/Congruent/R/C_Dist_200_LN_3_LD_6_RN_14_RD_20_1.png","img2/100/Congruent/R/C_Dist_100_LN_1_LD_2_RN_3_RD_5_1.png","img2/100/Incongruent/R/I_Dist_100_LN_12_LD_24_RN_9_RD_15_1.png","img2/200/Incongruent/L/I_Dist_200_LN_3_LD_4_RN_11_RD_20_0.png","img2/200/Incongruent/L/I_Dist_200_LN_1_LD_3_RN_2_RD_15_0.png","img2/100/Congruent/L/C_Dist_100_LN_9_LD_15_RN_8_RD_16_0.png","img2/200/Congruent/L/C_Dist_200_LN_15_LD_25_RN_4_RD_10_0.png","img2/300/Incongruent/L/I_Dist_300_LN_8_LD_10_RN_9_RD_18_0.png","img2/200/Incongruent/L/I_Dist_200_LN_7_LD_10_RN_8_RD_16_0.png","img2/100/Incongruent/L/I_Dist_100_LN_6_LD_10_RN_11_RD_22_0.png","img2/300/Incongruent/L/I_Dist_300_LN_1_LD_2_RN_3_RD_15_0.png","img2/100/Incongruent/R/I_Dist_100_LN_8_LD_20_RN_1_RD_2_1.png","img2/200/Incongruent/R/I_Dist_200_LN_7_LD_15_RN_4_RD_6_1.png","img2/300/Congruent/L/C_Dist_300_LN_11_LD_22_RN_1_RD_5_0.png","img2/200/Congruent/L/C_Dist_200_LN_14_LD_28_RN_6_RD_20_0.png","img2/100/Incongruent/R/I_Dist_100_LN_8_LD_16_RN_6_RD_10_1.png","img2/100/Incongruent/R/I_Dist_100_LN_17_LD_30_RN_10_RD_15_1.png","img2/300/Incongruent/L/I_Dist_300_LN_8_LD_10_RN_9_RD_18_0.png","img2/200/Incongruent/L/I_Dist_200_LN_1_LD_2_RN_3_RD_10_0.png","img2/300/Incongruent/R/I_Dist_300_LN_4_LD_20_RN_2_RD_4_1.png","img2/200/Incongruent/R/I_Dist_200_LN_11_LD_20_RN_3_RD_4_1.png","img2/200/Incongruent/R/I_Dist_200_LN_9_LD_15_RN_8_RD_10_1.png","img2/300/Congruent/R/C_Dist_300_LN_1_LD_5_RN_11_RD_22_1.png","img2/100/Congruent/R/C_Dist_100_LN_6_LD_12_RN_15_RD_25_1.png","img2/100/Congruent/L/C_Dist_100_LN_11_LD_22_RN_4_RD_10_0.png","img2/100/Congruent/R/C_Dist_100_LN_1_LD_2_RN_3_RD_5_1.png","img2/300/Incongruent/L/I_Dist_300_LN_7_LD_10_RN_8_RD_20_0.png","img2/100/Congruent/L/C_Dist_100_LN_6_LD_20_RN_5_RD_25_0.png","img2/100/Incongruent/L/I_Dist_100_LN_3_LD_5_RN_11_RD_22_0.png","img2/100/Incongruent/R/I_Dist_100_LN_9_LD_18_RN_6_RD_10_1.png","img2/200/Incongruent/L/I_Dist_200_LN_7_LD_10_RN_14_RD_28_0.png","img2/200/Congruent/R/C_Dist_200_LN_3_LD_10_RN_11_RD_22_1.png","img2/300/Incongruent/R/I_Dist_300_LN_4_LD_20_RN_2_RD_4_1.png","img2/100/Incongruent/L/I_Dist_100_LN_3_LD_5_RN_8_RD_16_0.png","img2/300/Incongruent/L/I_Dist_300_LN_8_LD_10_RN_14_RD_28_0.png","img2/200/Congruent/L/C_Dist_200_LN_16_LD_30_RN_9_RD_27_0.png","img2/200/Incongruent/R/I_Dist_200_LN_4_LD_30_RN_1_RD_3_1.png","img2/200/Incongruent/L/I_Dist_200_LN_7_LD_10_RN_14_RD_28_0.png","img2/200/Congruent/L/C_Dist_200_LN_4_LD_8_RN_3_RD_10_0.png","img2/100/Congruent/R/C_Dist_100_LN_2_LD_5_RN_6_RD_12_1.png","img2/200/Incongruent/R/I_Dist_200_LN_14_LD_30_RN_6_RD_9_1.png","img2/100/Congruent/R/C_Dist_100_LN_12_LD_30_RN_13_RD_26_1.png","img2/300/Congruent/R/C_Dist_300_LN_8_LD_15_RN_10_RD_12_1.png","img2/200/Congruent/R/C_Dist_200_LN_3_LD_12_RN_9_RD_20_1.png","img2/100/Congruent/R/C_Dist_100_LN_7_LD_14_RN_15_RD_25_1.png","img2/100/Incongruent/L/I_Dist_100_LN_1_LD_2_RN_8_RD_20_0.png","img2/300/Congruent/R/C_Dist_300_LN_1_LD_3_RN_19_RD_30_1.png","img2/100/Congruent/L/C_Dist_100_LN_9_LD_15_RN_8_RD_16_0.png","img2/300/Incongruent/L/I_Dist_300_LN_4_LD_5_RN_8_RD_16_0.png","img2/100/Congruent/L/C_Dist_100_LN_9_LD_15_RN_8_RD_16_0.png","img2/100/Congruent/R/C_Dist_100_LN_1_LD_2_RN_18_RD_30_1.png","img2/300/Congruent/L/C_Dist_300_LN_20_LD_25_RN_13_RD_26_0.png","img2/200/Incongruent/R/I_Dist_200_LN_4_LD_30_RN_1_RD_3_1.png","img2/200/Congruent/R/C_Dist_200_LN_3_LD_10_RN_14_RD_28_1.png","img2/100/Incongruent/L/I_Dist_100_LN_6_LD_10_RN_7_RD_14_0.png","img2/300/Congruent/L/C_Dist_300_LN_12_LD_24_RN_2_RD_10_0.png","img2/300/Incongruent/R/I_Dist_300_LN_4_LD_20_RN_2_RD_4_1.png","img2/300/Congruent/R/C_Dist_300_LN_7_LD_14_RN_20_RD_25_1.png","img2/100/Congruent/R/C_Dist_100_LN_2_LD_5_RN_11_RD_22_1.png"],"dist100_C":[["C_Dist_100_LN_10_LD_25_RN_3_RD_10_0.png","C_Dist_100_LN_11_LD_22_RN_4_RD_10_0.png","C_Dist_100_LN_11_LD_22_RN_6_RD_15_0.png","C_Dist_100_LN_15_LD_25_RN_13_RD_26_0.png","C_Dist_100_LN_3_LD_6_RN_2_RD_5_0.png","C_Dist_100_LN_6_LD_20_RN_5_RD_25_0.png","C_Dist_100_LN_8_LD_16_RN_2_RD_5_0.png","C_Dist_100_LN_9_LD_15_RN_8_RD_16_0.png"],["C_Dist_100_LN_1_LD_2_RN_18_RD_30_1.png","C_Dist_100_LN_1_LD_2_RN_3_RD_5_1.png","C_Dist_100_LN_12_LD_30_RN_13_RD_26_1.png","C_Dist_100_LN_2_LD_5_RN_11_RD_22_1.png","C_Dist_100_LN_2_LD_5_RN_6_RD_12_1.png","C_Dist_100_LN_3_LD_20_RN_4_RD_16_1.png","C_Dist_100_LN_4_LD_10_RN_15_RD_30_1.png","C_Dist_100_LN_4_LD_8_RN_6_RD_10_1.png","C_Dist_100_LN_6_LD_12_RN_15_RD_25_1.png","C_Dist_100_LN_7_LD_14_RN_15_RD_25_1.png","C_Dist_100_LN_7_LD_14_RN_9_RD_15_1.png"]],"dist100_I":[["I_Dist_100_LN_1_LD_2_RN_8_RD_20_0.png","I_Dist_100_LN_2_LD_4_RN_6_RD_15_0.png","I_Dist_100_LN_2_LD_4_RN_8_RD_20_0.png","I_Dist_100_LN_3_LD_5_RN_11_RD_22_0.png","I_Dist_100_LN_3_LD_5_RN_8_RD_16_0.png","I_Dist_100_LN_3_LD_6_RN_4_RD_10_0.png","I_Dist_100_LN_3_LD_9_RN_7_RD_30_0.png","I_Dist_100_LN_4_LD_8_RN_8_RD_20_0.png","I_Dist_100_LN_6_LD_10_RN_11_RD_22_0.png","I_Dist_100_LN_6_LD_10_RN_13_RD_26_0.png","I_Dist_100_LN_6_LD_10_RN_7_RD_14_0.png","I_Dist_100_LN_9_LD_10_RN_20_RD_25_0.png","I_Dist_100_LN_9_LD_15_RN_13_RD_26_0.png","I_Dist_100_LN_9_LD_15_RN_14_RD_28_0.png"],["I_Dist_100_LN_10_LD_25_RN_8_RD_16_1.png","I_Dist_100_LN_10_LD_25_RN_9_RD_18_1.png","I_Dist_100_LN_11_LD_22_RN_9_RD_15_1.png","I_Dist_100_LN_12_LD_24_RN_9_RD_15_1.png","I_Dist_100_LN_12_LD_30_RN_2_RD_4_1.png","I_Dist_100_LN_13_LD_26_RN_12_RD_20_1.png","I_Dist_100_LN_13_LD_26_RN_6_RD_10_1.png","I_Dist_100_LN_17_LD_30_RN_10_RD_15_1.png","I_Dist_100_LN_6_LD_12_RN_3_RD_5_1.png","I_Dist_100_LN_8_LD_16_RN_6_RD_10_1.png","I_Dist_100_LN_8_LD_20_RN_1_RD_2_1.png","I_Dist_100_LN_9_LD_18_RN_6_RD_10_1.png"]],"dist100_S":[["E_Dist_100_LN_2_LD_12_RN_2_RD_30_0.png","E_Dist_100_LN_6_LD_10_RN_6_RD_12_0.png"],["E_Dist_100_LN_6_LD_12_RN_6_RD_10_1.png"]],"dist200_C":[["C_Dist_200_LN_11_LD_22_RN_3_RD_10_0.png","C_Dist_200_LN_12_LD_15_RN_6_RD_10_0.png","C_Dist_200_LN_12_LD_20_RN_6_RD_15_0.png","C_Dist_200_LN_14_LD_28_RN_6_RD_20_0.png","C_Dist_200_LN_15_LD_25_RN_4_RD_10_0.png","C_Dist_200_LN_16_LD_20_RN_12_RD_20_0.png","C_Dist_200_LN_16_LD_30_RN_9_RD_27_0.png","C_Dist_200_LN_20_LD_25_RN_9_RD_15_0.png","C_Dist_200_LN_21_LD_30_RN_2_RD_4_0.png","C_Dist_200_LN_4_LD_10_RN_3_RD_15_0.png","C_Dist_200_LN_4_LD_8_RN_3_RD_10_0.png","C_Dist_200_LN_6_LD_15_RN_3_RD_15_0.png","C_Dist_200_LN_7_LD_21_RN_2_RD_15_0.png","C_Dist_200_LN_8_LD_15_RN_2_RD_6_0.png","C_Dist_200_LN_8_LD_15_RN_3_RD_9_0.png","C_Dist_200_LN_8_LD_15_RN_7_RD_21_0.png","C_Dist_200_LN_9_LD_20_RN_4_RD_16_0.png"],["C_Dist_200_LN_1_LD_2_RN_21_RD_30_1.png","C_Dist_200_LN_13_LD_26_RN_14_RD_20_1.png","C_Dist_200_LN_3_LD_10_RN_11_RD_22_1.png","C_Dist_200_LN_3_LD_10_RN_14_RD_28_1.png","C_Dist_200_LN_3_LD_10_RN_7_RD_14_1.png","C_Dist_200_LN_3_LD_12_RN_9_RD_20_1.png","C_Dist_200_LN_3_LD_6_RN_14_RD_20_1.png","C_Dist_200_LN_5_LD_10_RN_14_RD_20_1.png","C_Dist_200_LN_6_LD_12_RN_7_RD_10_1.png","C_Dist_200_LN_6_LD_20_RN_11_RD_22_1.png","C_Dist_200_LN_7_LD_15_RN_18_RD_27_1.png","C_Dist_200_LN_9_LD_30_RN_13_RD_26_1.png"]],"dist200_I":[["I_Dist_200_LN_1_LD_2_RN_3_RD_10_0.png","I_Dist_200_LN_1_LD_3_RN_2_RD_15_0.png","I_Dist_200_LN_3_LD_4_RN_11_RD_20_0.png","I_Dist_200_LN_4_LD_5_RN_6_RD_10_0.png","I_Dist_200_LN_4_LD_6_RN_14_RD_30_0.png","I_Dist_200_LN_7_LD_10_RN_12_RD_24_0.png","I_Dist_200_LN_7_LD_10_RN_14_RD_28_0.png","I_Dist_200_LN_7_LD_10_RN_8_RD_16_0.png"],["I_Dist_200_LN_11_LD_20_RN_3_RD_4_1.png","I_Dist_200_LN_14_LD_30_RN_12_RD_18_1.png","I_Dist_200_LN_14_LD_30_RN_6_RD_9_1.png","I_Dist_200_LN_3_LD_10_RN_1_RD_2_1.png","I_Dist_200_LN_4_LD_30_RN_1_RD_3_1.png","I_Dist_200_LN_6_LD_20_RN_3_RD_6_1.png","I_Dist_200_LN_7_LD_15_RN_4_RD_6_1.png","I_Dist_200_LN_7_LD_15_RN_6_RD_9_1.png","I_Dist_200_LN_9_LD_15_RN_8_RD_10_1.png"]],"dist200_S":[["E_Dist_200_LN_3_LD_6_RN_3_RD_10_0.png"],["E_Dist_200_LN_3_LD_10_RN_3_RD_6_1.png"]],"dist300_C":[["C_Dist_300_LN_11_LD_22_RN_1_RD_5_0.png","C_Dist_300_LN_11_LD_22_RN_2_RD_10_0.png","C_Dist_300_LN_11_LD_22_RN_4_RD_20_0.png","C_Dist_300_LN_12_LD_24_RN_2_RD_10_0.png","C_Dist_300_LN_18_LD_20_RN_9_RD_15_0.png","C_Dist_300_LN_20_LD_25_RN_13_RD_26_0.png","C_Dist_300_LN_20_LD_25_RN_14_RD_28_0.png","C_Dist_300_LN_20_LD_25_RN_5_RD_10_0.png","C_Dist_300_LN_20_LD_25_RN_8_RD_16_0.png","C_Dist_300_LN_20_LD_25_RN_9_RD_18_0.png","C_Dist_300_LN_24_LD_30_RN_2_RD_4_0.png","C_Dist_300_LN_24_LD_30_RN_8_RD_16_0.png","C_Dist_300_LN_3_LD_6_RN_2_RD_10_0.png","C_Dist_300_LN_4_LD_10_RN_1_RD_10_0.png","C_Dist_300_LN_4_LD_5_RN_2_RD_4_0.png","C_Dist_300_LN_8_LD_16_RN_1_RD_5_0.png","C_Dist_300_LN_9_LD_10_RN_3_RD_5_0.png"],["C_Dist_300_LN_1_LD_20_RN_7_RD_20_1.png","C_Dist_300_LN_1_LD_3_RN_19_RD_30_1.png","C_Dist_300_LN_1_LD_30_RN_8_RD_24_1.png","C_Dist_300_LN_1_LD_5_RN_11_RD_22_1.png","C_Dist_300_LN_1_LD_5_RN_3_RD_6_1.png","C_Dist_300_LN_1_LD_5_RN_6_RD_12_1.png","C_Dist_300_LN_2_LD_10_RN_12_RD_24_1.png","C_Dist_300_LN_2_LD_20_RN_10_RD_25_1.png","C_Dist_300_LN_3_LD_12_RN_11_RD_20_1.png","C_Dist_300_LN_3_LD_6_RN_4_RD_5_1.png","C_Dist_300_LN_4_LD_20_RN_13_RD_26_1.png","C_Dist_300_LN_5_LD_25_RN_6_RD_12_1.png","C_Dist_300_LN_5_LD_25_RN_7_RD_14_1.png","C_Dist_300_LN_7_LD_14_RN_20_RD_25_1.png","C_Dist_300_LN_8_LD_15_RN_10_RD_12_1.png"]],"dist300_I":[["I_Dist_300_LN_1_LD_2_RN_2_RD_10_0.png","I_Dist_300_LN_1_LD_2_RN_3_RD_15_0.png","I_Dist_300_LN_2_LD_4_RN_6_RD_30_0.png","I_Dist_300_LN_3_LD_6_RN_4_RD_20_0.png","I_Dist_300_LN_4_LD_5_RN_6_RD_12_0.png","I_Dist_300_LN_4_LD_5_RN_8_RD_16_0.png","I_Dist_300_LN_7_LD_10_RN_8_RD_20_0.png","I_Dist_300_LN_8_LD_10_RN_14_RD_28_0.png","I_Dist_300_LN_8_LD_10_RN_9_RD_18_0.png"],["I_Dist_300_LN_13_LD_26_RN_12_RD_15_1.png","I_Dist_300_LN_4_LD_20_RN_2_RD_4_1.png"]],"dist300_S":[["E_Dist_300_LN_9_LD_12_RN_9_RD_20_0.png"],["E_Dist_300_LN_18_LD_30_RN_18_RD_20_1.png","E_Dist_300_LN_3_LD_10_RN_3_RD_5_1.png","E_Dist_300_LN_9_LD_20_RN_9_RD_12_1.png"]],"dist500_C":[["C_Dist_500_LN_10_LD_13_RN_7_RD_26_0.png","C_Dist_500_LN_10_LD_15_RN_4_RD_24_0.png","C_Dist_500_LN_12_LD_16_RN_3_RD_12_0.png","C_Dist_500_LN_12_LD_18_RN_4_RD_24_0.png","C_Dist_500_LN_15_LD_18_RN_5_RD_15_0.png","C_Dist_500_LN_15_LD_20_RN_1_RD_4_0.png","C_Dist_500_LN_18_LD_27_RN_1_RD_6_0.png","C_Dist_500_LN_20_LD_24_RN_1_RD_3_0.png","C_Dist_500_LN_20_LD_24_RN_3_RD_9_0.png","C_Dist_500_LN_20_LD_24_RN_7_RD_21_0.png","C_Dist_500_LN_20_LD_28_RN_3_RD_14_0.png","C_Dist_500_LN_21_LD_28_RN_6_RD_24_0.png","C_Dist_500_LN_22_LD_28_RN_2_RD_7_0.png","C_Dist_500_LN_25_LD_30_RN_9_RD_27_0.png","C_Dist_500_LN_4_LD_6_RN_1_RD_6_0.png","C_Dist_500_LN_5_LD_6_RN_2_RD_6_0.png","C_Dist_500_LN_6_LD_9_RN_1_RD_6_0.png","C_Dist_500_LN_7_LD_10_RN_1_RD_5_0.png","C_Dist_500_LN_8_LD_12_RN_1_RD_6_0.png","C_Dist_500_LN_8_LD_12_RN_4_RD_24_0.png"],["C_Dist_500_LN_1_LD_4_RN_12_RD_16_1.png","C_Dist_500_LN_1_LD_4_RN_9_RD_12_1.png","C_Dist_500_LN_1_LD_9_RN_11_RD_18_1.png","C_Dist_500_LN_10_LD_24_RN_22_RD_24_1.png","C_Dist_500_LN_2_LD_12_RN_10_RD_15_1.png","C_Dist_500_LN_2_LD_12_RN_12_RD_18_1.png","C_Dist_500_LN_2_LD_12_RN_4_RD_6_1.png","C_Dist_500_LN_2_LD_24_RN_7_RD_12_1.png","C_Dist_500_LN_2_LD_5_RN_18_RD_20_1.png","C_Dist_500_LN_2_LD_5_RN_9_RD_10_1.png","C_Dist_500_LN_2_LD_8_RN_12_RD_16_1.png","C_Dist_500_LN_2_LD_8_RN_21_RD_28_1.png","C_Dist_500_LN_3_LD_10_RN_4_RD_5_1.png","C_Dist_500_LN_3_LD_12_RN_15_RD_20_1.png","C_Dist_500_LN_3_LD_30_RN_6_RD_10_1.png","C_Dist_500_LN_3_LD_8_RN_14_RD_16_1.png","C_Dist_500_LN_4_LD_16_RN_15_RD_20_1.png","C_Dist_500_LN_4_LD_24_RN_12_RD_18_1.png","C_Dist_500_LN_5_LD_14_RN_6_RD_7_1.png","C_Dist_500_LN_7_LD_21_RN_20_RD_24_1.png","C_Dist_500_LN_7_LD_28_RN_12_RD_16_1.png","C_Dist_500_LN_7_LD_28_RN_9_RD_12_1.png","C_Dist_500_LN_9_LD_27_RN_20_RD_24_1.png"]],"dist500_I":[["I_Dist_500_LN_2_LD_3_RN_4_RD_24_0.png","I_Dist_500_LN_5_LD_6_RN_6_RD_18_0.png","I_Dist_500_LN_7_LD_8_RN_9_RD_24_0.png"],["I_Dist_500_LN_7_LD_21_RN_5_RD_6_1.png"]],"dist500_S":[["E_Dist_500_LN_6_LD_8_RN_6_RD_24_0.png"],["E_Dist_500_LN_2_LD_12_RN_2_RD_3_1.png","E_Dist_500_LN_6_LD_24_RN_6_RD_8_1.png"]]}},{"start_time":1551881909239,"click_time":1551881912779,"finger_time":1551881912458,"fix_duration":1397.9442012106665,"trial":1,"RT":3219,"MT":321,"sideResp":1,"stimulus":[],"xmouse":[770,770,770,770,770,770,770,770,770,770,770,770,770,770,770,770,770,770,770,770,770,770,770,770,770,770,770,770,770,770,770,770,770,770,770,770,770,770,770,770,770,770,770,770,770,770,770,770,770,770,770,770,770,770,770,770,770,770,770,770,770,770,770,770,770,770,770,770,770,770,770,770,770,770,770,770,770,770,770,770,770,770,770,770,770,770,770,770,770,770,770,770,770,770,770,770,770,770,770,770,770,770,770,770,770,770,770,770,770,770,770,770,770,770,770,770,770,770,770,770,770,770,770,770,770,770,770,770,770,770,770,770,770,770,770,770,770,770,770,770,770,770,770,770,770,770,770,770,770,770,770,770,770,770,770,770,770,770,770,770,771,751,717,664,620,617,617,617,617,608,594,591,591,591,588,570,536,506],"ymouse":[625,625,625,625,625,625,625,625,625,625,625,625,625,625,625,625,625,625,625,625,625,625,625,625,625,625,625,625,625,625,625,625,625,625,625,625,625,625,625,625,625,625,625,625,625,625,625,625,625,625,625,625,625,625,625,625,625,625,625,625,625,625,625,625,625,625,625,625,625,625,625,625,625,625,625,625,625,625,625,625,625,625,625,625,625,625,625,625,625,625,625,625,625,625,625,625,625,625,625,625,625,625,625,625,625,625,625,625,625,625,625,625,625,625,625,625,625,625,625,625,625,625,625,625,625,625,625,625,625,625,625,625,625,625,625,625,625,625,625,625,625,625,625,625,625,625,625,625,625,625,625,625,625,625,625,625,625,625,625,625,614,542,444,353,318,318,318,318,318,272,223,213,211,208,173,127,71,43],"timestamp_mouse":[1,20,55,60,81,101,119,139,159,179,199,219,239,259,279,299,320,340,359,380,399,419,439,459,479,499,519,539,559,579,599,619,639,660,679,699,719,739,759,779,799,819,839,859,879,899,919,941,959,979,1000,1019,1040,1060,1081,1099,1119,1139,1160,1180,1199,1219,1239,1259,1279,1300,1319,1340,1360,1379,1399,1420,1441,1459,1479,1500,1519,1540,1559,1579,1599,1619,1640,1660,1679,1699,1719,1739,1759,1779,1800,1819,1839,1859,1880,1900,1919,1939,1959,1979,2000,2020,2041,2060,2081,2100,2119,2139,2159,2180,2199,2220,2240,2259,2279,2300,2320,2339,2360,2379,2400,2419,2439,2461,2481,2499,2519,2540,2560,2579,2599,2619,2639,2660,2680,2700,2720,2739,2760,2779,2800,2820,2840,2859,2879,2900,2920,2939,2960,2980,3000,3019,3039,3060,3080,3099,3120,3139,3160,3179,3199,3219,3239,3260,3279,3299,3319,3339,3360,3379,3399,3419,3440,3459,3479,3499,3519,3539],"xSR":741.5,"ySR":573.95,"xT1":424.9,"yT1":0,"xT2":1058.1,"yT2":0,"toosoon":0,"cond_shown":"Congruent","ratio_trial":200,"L_num":6,"L_den":12,"R_num":7,"R_den":10,"correct_side":2,"subjID":"MicaelaReyesPerez8","gender":"1","school":"6","age":"11"},{"start_time":1551881919558,"click_time":1551881921360,"finger_time":1551881921038,"fix_duration":1078.7610732362966,"trial":2,"RT":1480,"MT":322,"sideResp":1,"stimulus":[],"xmouse":[785,785,785,785,785,785,785,785,785,785,785,785,785,785,784,784,784,784,784,784,784,784,784,784,784,784,784,784,784,784,784,784,784,784,784,784,784,784,784,784,784,784,784,784,784,784,784,784,784,784,784,784,784,784,784,784,784,784,784,784,784,784,784,784,784,784,784,784,784,784,784,780,776,771,762,750,733,715,689,625,578,495,481,466,464,463,463,462,462,461,459],"ymouse":[616,616,616,616,616,616,616,616,616,616,616,616,616,616,616,616,616,616,616,616,616,616,616,616,616,616,616,616,616,616,616,616,616,616,616,616,616,616,616,616,616,616,616,616,616,616,616,616,616,616,616,616,616,616,616,616,616,616,616,616,616,616,616,616,616,616,616,616,616,616,616,614,606,597,569,527,465,395,313,140,64,0,0,0,0,0,0,0,0,0,2],"timestamp_mouse":[9,20,42,60,82,101,121,141,160,180,201,221,240,261,281,301,322,340,360,381,400,421,441,461,481,501,521,542,560,581,601,621,642,661,681,701,720,740,761,780,801,821,841,860,881,901,920,940,961,980,1000,1021,1040,1060,1080,1101,1121,1140,1161,1180,1201,1221,1240,1261,1280,1300,1320,1341,1360,1381,1401,1420,1440,1461,1480,1500,1521,1540,1560,1580,1600,1620,1640,1661,1680,1700,1720,1740,1761,1780,1802],"xSR":741.5,"ySR":573.95,"xT1":424.9,"yT1":0,"xT2":1058.1,"yT2":0,"toosoon":0,"cond_shown":"Incongruent","ratio_trial":200,"L_num":7,"L_den":10,"R_num":8,"R_den":16,"correct_side":1,"subjID":"MicaelaReyesPerez8","gender":"1","school":"6","age":"11"},{"start_time":1551881932352,"click_time":1551881934078,"finger_time":1551881933639,"fix_duration":671.7210068665225,"trial":3,"RT":1287,"MT":439,"sideResp":2,"stimulus":[],"xmouse":[778,778,778,778,778,778,778,778,778,778,778,778,778,778,778,778,778,778,778,778,778,778,778,778,778,778,778,778,778,778,778,778,778,778,778,778,778,778,778,778,778,778,778,778,778,778,778,778,780,781,783,785,785,785,785,785,785,785,785,785,785,785,786,788,792,799,820,835,847,858,874,886,900,917,944,960,984,994,1002,1006,1016,1019,1022,1025,1031,1048,1071],"ymouse":[599,599,599,599,599,599,599,599,599,599,599,599,599,599,599,599,599,599,599,599,599,599,599,599,599,599,599,599,599,599,599,599,599,599,599,599,599,599,599,599,599,599,599,599,599,599,599,599,596,592,589,584,583,582,582,582,582,582,582,582,582,582,578,575,566,553,513,487,466,447,414,394,370,337,289,251,193,171,154,141,120,114,110,107,105,100,95],"timestamp_mouse":[10,40,47,67,86,107,127,146,166,187,207,226,246,266,286,307,326,346,367,387,407,427,446,467,486,507,526,548,566,587,607,626,646,666,686,706,726,747,766,788,807,826,847,866,886,906,926,946,966,986,1006,1026,1046,1066,1087,1107,1127,1147,1166,1186,1206,1226,1246,1266,1287,1306,1326,1346,1366,1386,1407,1426,1446,1466,1487,1506,1527,1546,1566,1587,1607,1626,1646,1666,1686,1706,1726],"xSR":741.5,"ySR":573.95,"xT1":424.9,"yT1":0,"xT2":1058.1,"yT2":0,"toosoon":0,"cond_shown":"Congruent","ratio_trial":300,"L_num":1,"L_den":3,"R_num":19,"R_den":30,"correct_side":2,"subjID":"MicaelaReyesPerez8","gender":"1","school":"6","age":"11"},{"start_time":1551881937301,"click_time":1551881939339,"finger_time":1551881938818,"fix_duration":1422.1859369430283,"trial":4,"RT":1517,"MT":521,"sideResp":1,"stimulus":[],"xmouse":[773,773,773,773,773,773,773,773,773,773,773,773,773,773,773,773,773,773,773,773,773,773,773,773,773,773,773,773,773,773,773,773,773,773,773,774,774,774,775,775,775,775,775,775,776,776,776,776,776,776,776,776,777,777,777,777,777,777,777,777,777,777,777,777,777,777,777,777,777,777,778,778,778,778,773,731,664,575,366,273,215,202,200,200,200,206,216,230,260,276,288,298,304,311,314,315,316,322,347,373,411,444],"ymouse":[623,623,623,623,623,623,623,623,623,623,623,623,623,623,623,623,623,623,623,623,623,623,623,623,623,623,623,623,623,623,622,622,621,621,621,621,621,621,620,620,620,620,620,620,620,620,620,620,620,620,620,620,619,619,619,619,619,619,619,619,619,619,619,619,619,619,619,619,619,619,617,616,615,608,596,548,481,400,225,154,112,100,99,99,99,99,98,95,76,65,56,49,44,38,36,35,35,35,35,35,36,40],"timestamp_mouse":[17,45,57,77,97,117,138,158,178,198,217,237,257,279,297,318,337,358,377,398,418,438,457,477,498,519,538,557,577,597,617,638,658,678,697,717,737,757,777,798,817,838,857,879,897,917,937,957,978,997,1017,1037,1057,1077,1099,1117,1137,1158,1177,1197,1217,1237,1258,1278,1298,1318,1337,1358,1378,1397,1418,1437,1458,1477,1497,1517,1538,1557,1577,1597,1617,1637,1657,1678,1698,1717,1737,1758,1777,1797,1817,1838,1858,1877,1897,1917,1938,1958,1977,1997,2017,2038],"xSR":741.5,"ySR":573.95,"xT1":424.9,"yT1":0,"xT2":1058.1,"yT2":0,"toosoon":0,"cond_shown":"Congruent","ratio_trial":200,"L_num":9,"L_den":20,"R_num":4,"R_den":16,"correct_side":1,"subjID":"MicaelaReyesPerez8","gender":"1","school":"6","age":"11"},{"start_time":1551881940989,"click_time":1551881943039,"finger_time":1551881942478,"fix_duration":250,"trial":5,"RT":1489,"MT":561,"sideResp":2,"stimulus":[],"xmouse":[788,788,788,788,788,788,788,788,788,788,788,788,788,788,788,788,788,788,788,788,788,788,788,788,788,788,788,788,788,788,788,788,788,788,788,788,788,788,788,788,788,788,788,788,788,788,788,788,788,788,788,788,788,788,788,788,788,788,788,788,788,788,788,788,788,788,788,788,789,790,792,795,798,806,817,861,883,919,941,958,974,976,977,977,980,992,997,1000,1002,1002,1002,1004,1012,1019,1026,1032,1034,1038,1041,1043,1049,1058,1064],"ymouse":[603,603,603,603,603,603,603,603,603,603,603,603,603,603,603,603,603,603,603,603,603,603,603,603,603,603,603,603,603,603,603,603,603,603,603,603,603,603,603,603,603,603,603,603,603,603,603,603,603,603,603,603,603,603,603,603,603,603,603,603,603,603,603,603,603,603,603,603,602,601,598,595,591,584,570,517,484,421,379,348,309,301,299,297,291,259,239,227,221,221,220,220,216,209,201,189,183,169,158,148,120,82,54],"timestamp_mouse":[9,29,52,69,91,109,129,149,169,189,209,229,250,269,289,309,329,349,369,389,410,429,449,470,489,509,529,549,570,589,609,630,649,669,690,709,729,749,769,789,809,829,849,870,889,909,929,949,969,990,1010,1029,1049,1069,1089,1109,1131,1149,1169,1190,1209,1230,1250,1270,1289,1309,1329,1349,1369,1389,1409,1429,1449,1470,1489,1509,1529,1549,1569,1590,1609,1629,1649,1669,1690,1709,1730,1749,1770,1789,1809,1829,1849,1869,1889,1909,1929,1949,1969,1990,2009,2029,2050],"xSR":741.5,"ySR":573.95,"xT1":424.9,"yT1":0,"xT2":1058.1,"yT2":0,"toosoon":0,"cond_shown":"Incongruent","ratio_trial":100,"L_num":13,"L_den":26,"R_num":6,"R_den":10,"correct_side":2,"subjID":"MicaelaReyesPerez8","gender":"1","school":"6","age":"11"},{"start_time":1551881945022,"click_time":1551881946759,"finger_time":1551881946378,"fix_duration":623.1884750910671,"trial":6,"RT":1356,"MT":381,"sideResp":1,"stimulus":[],"xmouse":[773,774,775,776,778,780,782,783,785,785,785,785,786,786,786,786,786,786,786,786,786,786,786,786,786,786,786,786,786,786,786,786,787,788,789,790,790,791,791,791,791,791,791,791,791,791,791,791,791,791,791,791,791,791,791,791,791,791,791,791,791,791,791,791,785,777,764,749,674,633,601,590,589,589,588,588,588,588,579,568,554,541,533,529,526,525,524],"ymouse":[649,648,647,645,645,642,641,640,638,637,637,637,637,637,637,637,637,637,637,637,637,637,637,637,637,637,637,637,637,637,637,637,636,634,631,631,630,629,628,628,627,627,627,627,627,627,627,627,627,627,627,627,627,627,627,627,627,627,627,627,627,627,625,623,613,601,583,552,419,330,249,206,191,182,182,182,182,182,173,158,142,127,116,107,96,92,90],"timestamp_mouse":[16,37,56,76,96,116,136,156,176,197,217,236,257,278,297,318,337,356,376,396,416,437,457,477,496,517,536,557,576,596,618,636,656,676,696,716,737,756,777,797,817,837,858,876,896,917,936,957,977,996,1017,1036,1056,1076,1097,1117,1137,1156,1176,1196,1217,1236,1256,1276,1296,1316,1336,1356,1376,1396,1416,1436,1456,1477,1497,1517,1537,1557,1576,1596,1616,1637,1656,1676,1698,1716,1737],"xSR":741.5,"ySR":573.95,"xT1":424.9,"yT1":0,"xT2":1058.1,"yT2":0,"toosoon":0,"cond_shown":"Incongruent","ratio_trial":300,"L_num":4,"L_den":5,"R_num":8,"R_den":16,"correct_side":1,"subjID":"MicaelaReyesPerez8","gender":"1","school":"6","age":"11"},{"start_time":1551881954796,"click_time":1551881956657,"finger_time":1551881956159,"fix_duration":477.62635616622117,"trial":7,"RT":1363,"MT":498,"sideResp":2,"stimulus":[],"xmouse":[766,766,766,766,766,766,766,766,766,766,766,766,766,766,766,766,766,766,766,766,766,766,766,766,766,766,766,766,766,766,766,766,766,766,766,766,766,766,766,766,766,766,766,766,766,766,766,766,766,766,766,766,766,766,766,766,766,766,766,766,766,766,766,766,766,766,768,775,785,796,808,824,859,875,891,910,955,977,996,1014,1024,1034,1037,1038,1038,1038,1039,1039,1038,1038,1039,1049,1057,1060],"ymouse":[603,603,603,603,603,603,603,603,603,603,603,603,603,603,603,603,603,603,603,603,603,603,603,603,603,603,603,603,603,603,603,603,603,603,603,603,603,603,603,603,603,603,603,603,603,603,603,603,603,603,603,603,603,603,603,603,603,603,603,603,603,603,603,603,603,603,596,584,571,550,524,498,434,407,382,357,302,284,267,255,247,238,230,221,207,192,164,149,135,128,121,100,88,84],"timestamp_mouse":[8,22,47,62,82,101,121,143,161,183,202,222,242,261,281,303,321,342,361,383,401,421,441,461,482,501,521,542,561,581,601,621,642,661,687,701,723,741,762,783,802,822,841,861,883,902,922,942,963,981,1001,1021,1042,1062,1083,1103,1121,1141,1161,1181,1201,1221,1242,1263,1283,1301,1321,1341,1363,1381,1402,1422,1441,1461,1482,1501,1521,1541,1562,1581,1602,1622,1641,1662,1682,1702,1721,1741,1762,1781,1801,1822,1841,1861],"xSR":741.5,"ySR":573.95,"xT1":424.9,"yT1":0,"xT2":1058.1,"yT2":0,"toosoon":0,"cond_shown":"Incongruent","ratio_trial":200,"L_num":9,"L_den":15,"R_num":8,"R_den":10,"correct_side":2,"subjID":"MicaelaReyesPerez8","gender":"1","school":"6","age":"11"},{"start_time":1551881970084,"click_time":1551881971938,"finger_time":1551881971417,"fix_duration":785.3967085178413,"trial":8,"RT":1333,"MT":521,"sideResp":1,"stimulus":[],"xmouse":[767,767,767,767,767,767,767,767,767,767,767,767,767,767,767,767,767,767,767,767,767,767,767,767,767,767,767,767,767,767,767,767,767,767,767,767,767,767,767,767,767,767,767,767,767,767,767,767,767,767,767,767,767,767,767,767,767,767,767,767,767,767,767,765,754,742,728,677,492,385,320,304,302,307,308,310,311,312,320,330,339,349,352,359,369,377,382,385,385,386,386,405,438],"ymouse":[636,636,636,636,636,636,636,636,636,636,636,636,636,636,636,636,636,636,636,636,636,636,636,636,636,636,636,636,636,636,636,636,636,636,636,636,636,636,636,636,636,636,636,636,636,636,636,636,636,636,636,636,636,636,636,636,636,636,636,636,636,636,636,636,628,617,595,524,312,221,166,136,95,59,58,56,55,54,49,46,44,39,37,37,37,37,37,37,37,37,37,37,37],"timestamp_mouse":[14,39,55,74,95,114,133,154,173,195,213,235,253,273,293,313,333,353,373,393,415,433,454,474,494,513,534,553,574,593,614,634,654,675,693,714,734,753,774,793,814,833,854,873,893,914,933,954,974,993,1013,1034,1053,1074,1095,1115,1134,1153,1173,1195,1214,1235,1253,1274,1293,1314,1333,1353,1373,1393,1414,1433,1453,1473,1493,1515,1534,1553,1573,1594,1614,1634,1654,1673,1694,1713,1733,1754,1774,1795,1814,1833,1854],"xSR":741.5,"ySR":573.95,"xT1":424.9,"yT1":0,"xT2":1058.1,"yT2":0,"toosoon":0,"cond_shown":"Congruent","ratio_trial":300,"L_num":24,"L_den":30,"R_num":8,"R_den":16,"correct_side":1,"subjID":"MicaelaReyesPerez8","gender":"1","school":"6","age":"11"},{"start_time":1551881997836,"click_time":1551882000137,"finger_time":1551881999337,"fix_duration":1216.7430092561092,"trial":9,"RT":1501,"MT":800,"sideResp":1,"stimulus":[],"xmouse":[804,804,804,804,804,804,804,804,804,804,804,804,804,804,804,804,804,804,804,804,804,804,804,804,804,803,802,802,802,801,801,801,801,801,800,800,800,800,800,800,800,800,800,800,800,800,800,800,800,800,800,800,800,800,800,800,800,800,800,800,800,800,800,800,800,800,800,798,796,796,794,793,789,773,767,762,758,755,749,749,748,748,748,748,748,748,748,748,748,746,736,719,689,567,531,510,503,500,500,500,500,502,503,505,507,507,507,507,507,507,507,508,490,468,448,448],"ymouse":[609,609,609,609,609,609,609,609,609,609,609,609,609,609,609,609,609,609,609,609,609,609,609,609,609,609,609,609,609,609,609,609,609,609,609,609,609,609,609,609,609,609,609,609,609,609,609,609,609,609,609,609,609,609,609,609,609,609,609,609,609,609,609,609,609,609,609,607,606,605,604,602,598,582,576,570,566,561,557,557,556,556,556,556,556,556,556,556,556,554,542,524,497,363,307,265,244,230,221,220,219,219,219,219,219,219,219,219,219,219,219,216,185,143,101,96],"timestamp_mouse":[9,21,42,62,82,101,123,143,162,183,202,221,241,261,282,302,322,341,361,383,402,421,443,461,481,501,521,541,563,581,601,622,642,661,683,701,722,742,762,782,801,823,841,863,881,901,922,941,963,983,1001,1022,1042,1061,1082,1102,1121,1142,1161,1181,1203,1221,1242,1263,1283,1302,1321,1341,1361,1381,1401,1421,1441,1462,1481,1501,1521,1542,1561,1581,1602,1621,1642,1662,1681,1723,1723,1742,1763,1781,1801,1822,1841,1862,1881,1902,1921,1942,1962,1981,2001,2022,2043,2061,2081,2102,2121,2141,2161,2181,2202,2222,2242,2262,2281,2301],"xSR":741.5,"ySR":573.95,"xT1":424.9,"yT1":0,"xT2":1058.1,"yT2":0,"toosoon":0,"cond_shown":"Incongruent","ratio_trial":300,"L_num":1,"L_den":2,"R_num":3,"R_den":15,"correct_side":1,"subjID":"MicaelaReyesPerez8","gender":"1","school":"6","age":"11"},{"start_time":1551882002010,"click_time":1551882004077,"finger_time":1551882003479,"fix_duration":252.73049798219282,"trial":10,"RT":1469,"MT":598,"sideResp":1,"stimulus":[],"xmouse":[812,812,812,812,812,812,812,812,812,812,812,812,812,812,812,812,812,812,812,812,812,812,812,812,812,812,812,812,812,812,812,812,812,812,812,812,812,812,812,812,812,812,812,812,812,812,812,812,812,812,812,812,812,812,812,812,812,812,812,812,812,812,812,812,812,812,812,812,812,812,812,809,799,787,772,752,738,737,735,727,717,672,634,603,590,584,577,574,570,563,561,558,556,554,552,549,542,538,536,535,534,530,525,520],"ymouse":[595,595,595,595,595,595,595,595,595,595,595,595,595,595,595,595,595,595,595,595,595,595,595,595,595,595,595,595,595,595,595,595,595,595,595,595,595,595,595,595,595,595,595,595,595,595,595,595,595,595,595,595,595,595,595,595,595,595,595,595,595,595,595,595,595,595,595,595,595,595,595,591,580,562,542,509,474,465,456,434,412,324,255,200,177,164,148,141,134,124,119,110,108,104,100,95,84,79,77,77,77,77,77,77],"timestamp_mouse":[9,39,49,67,87,109,127,148,167,187,209,228,248,268,289,307,327,348,367,388,407,427,448,468,488,508,528,548,568,587,608,628,648,669,688,708,728,748,767,787,807,827,848,868,887,907,928,948,967,988,1007,1027,1049,1067,1088,1107,1127,1148,1167,1189,1207,1227,1247,1268,1287,1307,1327,1347,1367,1388,1407,1427,1447,1469,1488,1508,1527,1548,1568,1589,1608,1627,1647,1667,1687,1707,1727,1748,1767,1788,1807,1827,1847,1868,1888,1909,1927,1947,1967,1988,2007,2028,2047,2067],"xSR":741.5,"ySR":573.95,"xT1":424.9,"yT1":0,"xT2":1058.1,"yT2":0,"toosoon":0,"cond_shown":"Congruent","ratio_trial":100,"L_num":3,"L_den":6,"R_num":2,"R_den":5,"correct_side":1,"subjID":"MicaelaReyesPerez8","gender":"1","school":"6","age":"11"},{"start_time":1551882006053,"click_time":1551882008317,"finger_time":1551882007878,"fix_duration":694.5917434140255,"trial":11,"RT":1825,"MT":439,"sideResp":1,"stimulus":[],"xmouse":[759,759,759,759,759,759,759,759,759,759,759,759,759,759,759,759,759,759,759,759,759,759,760,760,760,760,760,760,760,760,760,760,760,760,760,760,760,760,760,760,760,760,760,760,760,760,760,760,760,760,760,760,760,760,760,760,760,760,760,760,760,760,760,760,760,760,760,760,760,760,760,760,760,760,760,760,760,760,760,763,766,768,769,770,770,770,770,770,770,769,762,751,730,692,549,413,364,346,340,335,333,333,333,334,357,389,405,413,417,417,417,418,420,427],"ymouse":[615,615,615,615,615,615,615,615,615,615,615,615,615,615,615,615,615,615,615,615,615,615,615,615,615,615,615,615,615,615,615,615,615,615,615,615,615,615,615,615,615,615,615,615,615,615,615,615,615,615,615,615,615,615,615,615,615,615,615,615,615,615,615,615,615,615,615,615,615,615,615,615,615,615,615,615,615,615,615,614,606,601,599,598,596,596,596,596,596,593,583,567,535,480,326,206,160,138,125,93,81,70,64,60,52,49,49,49,48,48,48,48,48,48],"timestamp_mouse":[12,24,45,66,84,104,125,144,165,186,205,225,246,265,285,306,325,344,365,386,406,424,445,464,485,504,525,544,564,585,604,626,645,665,684,705,724,745,765,785,804,826,844,865,884,905,925,945,964,984,1004,1025,1044,1064,1084,1104,1124,1144,1165,1185,1204,1224,1244,1265,1284,1305,1325,1344,1366,1385,1406,1426,1444,1465,1484,1505,1524,1544,1566,1585,1604,1626,1644,1664,1685,1704,1726,1744,1764,1785,1804,1825,1845,1865,1885,1905,1924,1946,1964,1985,2004,2025,2045,2065,2084,2106,2124,2144,2166,2185,2204,2225,2245,2264],"xSR":741.5,"ySR":573.95,"xT1":424.9,"yT1":0,"xT2":1058.1,"yT2":0,"toosoon":0,"cond_shown":"Incongruent","ratio_trial":300,"L_num":8,"L_den":10,"R_num":9,"R_den":18,"correct_side":1,"subjID":"MicaelaReyesPerez8","gender":"1","school":"6","age":"11"},{"start_time":1551882014526,"click_time":1551882016137,"finger_time":1551882015375,"fix_duration":527.2378951674432,"trial":12,"RT":849,"MT":762,"sideResp":2,"stimulus":[],"xmouse":[793,793,793,793,793,793,793,793,793,793,793,793,793,793,793,793,793,793,793,793,793,793,793,793,793,793,793,793,793,793,793,793,793,793,793,793,793,793,793,793,793,793,793,793,793,793,793,793,793,793,793,793,793,793,793,793,793,793,794,802,810,833,851,871,892,912,942,953,957,961,963,964,966,974,985,995,1003,1008,1019,1039,1077],"ymouse":[654,654,654,654,654,654,654,654,654,654,654,654,654,654,654,654,654,654,654,654,654,654,654,654,654,654,654,654,654,654,654,654,654,654,654,654,654,654,649,638,625,589,572,559,553,551,551,551,551,551,551,551,551,551,551,551,551,550,544,528,508,451,408,360,309,261,191,157,142,133,128,127,125,115,106,100,93,93,93,94,96],"timestamp_mouse":[13,31,52,71,92,112,131,151,171,193,211,231,253,271,290,311,330,350,370,390,411,430,451,470,490,510,530,549,570,590,610,630,650,670,690,710,731,750,769,791,810,830,849,870,891,910,930,951,969,990,1010,1031,1051,1070,1090,1111,1129,1150,1169,1190,1210,1230,1249,1270,1291,1310,1330,1350,1370,1389,1409,1430,1449,1470,1490,1510,1530,1550,1570,1589,1610],"xSR":741.5,"ySR":573.95,"xT1":424.9,"yT1":0,"xT2":1058.1,"yT2":0,"toosoon":0,"cond_shown":"Incongruent","ratio_trial":100,"L_num":13,"L_den":26,"R_num":6,"R_den":10,"correct_side":2,"subjID":"MicaelaReyesPerez8","gender":"1","school":"6","age":"11"},{"start_time":1551882033129,"click_time":1551882035557,"finger_time":1551882034896,"fix_duration":1331.280899350873,"trial":13,"RT":1767,"MT":661,"sideResp":2,"stimulus":[],"xmouse":[820,820,820,820,820,820,820,820,820,820,820,820,820,820,820,820,820,820,820,820,820,820,820,820,820,820,820,820,820,820,820,820,820,820,820,820,820,820,820,820,820,820,820,820,820,820,820,820,820,820,820,820,820,820,820,820,820,820,820,820,820,820,820,820,820,820,820,820,820,820,820,820,820,820,820,820,820,820,820,820,820,820,820,820,820,820,820,822,858,932,960,1018,1043,1058,1060,1061,1063,1068,1078,1083,1083,1080,1074,1072,1072,1072,1072,1072,1072,1072,1072,1072,1073,1076,1077,1077,1078,1079,1080,1083,1084,1089],"ymouse":[624,624,624,624,624,624,624,624,624,624,624,624,624,624,624,624,624,624,624,624,624,624,624,624,624,624,624,624,624,624,624,624,624,624,624,624,624,624,624,624,624,624,624,624,624,624,624,624,624,624,624,624,624,624,624,624,624,624,624,624,624,624,624,624,624,624,624,624,624,624,624,624,624,624,624,624,624,624,624,624,624,624,624,624,624,624,624,622,593,529,506,446,415,384,375,369,356,339,292,236,151,130,118,115,115,115,115,115,115,115,115,114,113,112,112,112,111,111,109,105,104,94],"timestamp_mouse":[8,41,48,67,88,107,128,146,167,189,208,227,248,268,286,306,327,346,367,387,408,428,447,466,487,507,528,548,568,588,607,627,646,666,688,706,726,747,768,787,807,827,847,866,886,907,927,947,967,988,1007,1027,1046,1067,1087,1107,1127,1148,1167,1187,1207,1227,1246,1268,1287,1307,1328,1347,1367,1387,1407,1428,1447,1468,1487,1507,1528,1546,1567,1587,1607,1627,1648,1667,1687,1708,1726,1747,1767,1786,1807,1827,1847,1868,1886,1908,1927,1946,1967,1987,2006,2027,2046,2067,2088,2107,2127,2147,2168,2187,2208,2226,2246,2267,2288,2307,2326,2348,2366,2387,2407,2428],"xSR":741.5,"ySR":573.95,"xT1":424.9,"yT1":0,"xT2":1058.1,"yT2":0,"toosoon":0,"cond_shown":"Congruent","ratio_trial":300,"L_num":2,"L_den":10,"R_num":12,"R_den":24,"correct_side":2,"subjID":"MicaelaReyesPerez8","gender":"1","school":"6","age":"11"},{"start_time":1551882038144,"click_time":1551882039596,"finger_time":1551882039496,"fix_duration":1366.3458620546407,"trial":14,"RT":1352,"MT":100,"sideResp":1,"stimulus":[],"xmouse":[822,822,822,822,822,822,822,822,822,822,822,822,822,822,822,822,822,822,822,822,822,822,822,822,822,822,822,822,822,822,822,822,822,822,822,822,822,822,822,822,822,822,822,822,822,822,822,822,822,822,822,822,821,821,821,821,821,821,821,821,821,820,820,819,817,815,811,792,775,748,683,611,490],"ymouse":[603,603,603,603,603,603,603,603,603,603,603,603,603,603,603,603,603,603,603,603,603,603,603,603,603,603,603,603,603,603,603,603,603,603,603,603,603,603,603,603,603,603,603,603,603,603,603,603,601,601,601,601,600,600,600,600,600,600,600,600,599,598,596,595,592,588,581,534,485,425,325,227,87],"timestamp_mouse":[12,40,53,71,92,112,133,153,172,193,212,232,253,272,292,312,332,353,373,392,412,433,453,472,492,513,531,552,573,591,612,633,651,672,692,713,731,752,772,791,812,833,852,873,892,912,932,952,972,992,1012,1032,1051,1073,1092,1112,1133,1153,1172,1191,1212,1232,1252,1271,1292,1311,1332,1352,1371,1392,1413,1432,1452],"xSR":741.5,"ySR":573.95,"xT1":424.9,"yT1":0,"xT2":1058.1,"yT2":0,"toosoon":0,"cond_shown":"Incongruent","ratio_trial":200,"L_num":7,"L_den":10,"R_num":12,"R_den":24,"correct_side":1,"subjID":"MicaelaReyesPerez8","gender":"1","school":"6","age":"11"},{"start_time":1551882043303,"click_time":1551882045196,"finger_time":1551882044716,"fix_duration":1305.6621249885893,"trial":15,"RT":1413,"MT":480,"sideResp":1,"stimulus":[],"xmouse":[806,806,806,806,806,806,806,806,806,806,806,806,806,806,806,806,806,806,806,806,806,806,806,806,806,806,806,806,806,806,806,806,806,806,806,806,806,806,806,806,806,806,806,806,806,806,806,806,806,806,806,806,806,806,806,806,806,806,806,806,806,806,806,806,806,806,806,805,798,788,753,729,709,685,662,622,610,601,594,590,584,584,584,584,583,580,576,573,558,545,523,515,508,498,491],"ymouse":[601,601,601,602,602,602,602,602,602,602,602,602,602,602,602,602,602,602,602,602,602,602,602,602,602,602,602,602,602,602,602,602,602,602,602,602,602,602,602,602,602,602,602,602,602,602,602,602,602,602,602,602,602,602,602,602,602,602,602,602,602,602,602,602,602,602,600,596,586,575,541,522,507,485,458,375,329,270,231,208,187,187,187,186,184,179,176,174,167,161,148,141,129,110,92],"timestamp_mouse":[19,44,53,73,94,113,132,153,172,194,213,233,253,274,293,313,332,354,373,394,414,434,453,473,494,513,534,554,573,593,614,632,653,674,692,714,733,752,773,793,813,833,853,873,894,914,933,953,974,993,1012,1034,1054,1073,1094,1114,1133,1154,1173,1194,1214,1233,1254,1274,1293,1312,1333,1353,1373,1393,1413,1433,1452,1472,1494,1512,1533,1552,1573,1593,1614,1632,1653,1672,1693,1713,1732,1753,1774,1793,1812,1833,1853,1873,1892],"xSR":741.5,"ySR":573.95,"xT1":424.9,"yT1":0,"xT2":1058.1,"yT2":0,"toosoon":0,"cond_shown":"Congruent","ratio_trial":200,"L_num":16,"L_den":20,"R_num":12,"R_den":20,"correct_side":1,"subjID":"MicaelaReyesPerez8","gender":"1","school":"6","age":"11"},{"start_time":1551882062908,"click_time":1551882064416,"finger_time":1551882064075,"fix_duration":1349.028341714755,"trial":16,"RT":1167,"MT":341,"sideResp":2,"stimulus":[],"xmouse":[758,758,758,758,758,758,758,758,758,758,758,758,758,758,758,758,758,758,758,758,758,758,758,758,758,758,758,758,758,758,758,758,758,758,758,758,758,758,758,758,758,758,758,758,758,758,758,758,758,758,758,758,758,758,758,764,779,796,855,890,919,950,977,1002,1010,1014,1014,1014,1014,1014,1015,1016,1024,1043,1049,1059],"ymouse":[672,672,672,672,672,672,672,672,672,672,672,672,672,672,672,672,672,672,672,672,672,672,672,672,672,672,672,672,672,672,672,672,672,672,672,672,672,672,672,672,672,672,672,672,672,672,672,672,672,672,672,672,672,672,670,662,652,637,569,493,403,306,219,94,76,68,68,68,68,68,67,66,60,47,44,41],"timestamp_mouse":[10,35,47,67,88,108,128,148,169,188,208,227,249,269,288,309,328,347,368,389,408,428,449,469,489,507,529,548,568,587,608,628,649,668,689,709,728,747,768,788,808,828,848,868,889,907,928,948,967,988,1009,1027,1048,1067,1088,1107,1129,1148,1167,1187,1208,1228,1248,1267,1288,1308,1327,1349,1369,1388,1408,1428,1448,1468,1489,1508],"xSR":741.5,"ySR":573.95,"xT1":424.9,"yT1":0,"xT2":1058.1,"yT2":0,"toosoon":0,"cond_shown":"Incongruent","ratio_trial":300,"L_num":13,"L_den":26,"R_num":12,"R_den":15,"correct_side":2,"subjID":"MicaelaReyesPerez8","gender":"1","school":"6","age":"11"},{"start_time":1551882085230,"click_time":1551882087477,"finger_time":1551882086596,"fix_duration":492.2629419952655,"trial":17,"RT":1366,"MT":881,"sideResp":2,"stimulus":[],"xmouse":[798,798,798,798,798,798,798,798,798,798,798,798,798,798,798,798,798,798,798,798,798,798,798,798,798,798,798,798,798,798,798,798,798,798,798,798,798,798,798,798,798,798,798,798,798,798,798,798,798,798,798,798,798,798,798,798,798,798,798,798,798,797,796,795,787,780,767,748,724,669,627,601,576,547,524,517,512,508,505,505,505,505,505,505,515,523,531,538,544,552,561,571,583,599,638,661,683,697,717,739,799,864,915,959,1013,1036,1042,1042,1042,1042,1050,1059,1063],"ymouse":[629,629,629,629,629,629,629,629,629,629,629,629,629,629,629,629,629,629,629,629,629,629,629,629,629,629,629,629,629,629,629,629,629,629,629,629,629,629,629,629,629,629,629,629,629,629,629,629,629,629,629,629,629,629,629,629,629,629,629,629,629,629,628,627,620,615,606,594,580,544,512,486,456,424,379,358,342,328,318,311,311,311,311,311,313,317,322,328,334,349,361,369,376,382,387,387,380,369,345,288,210,151,107,64,7,0,0,0,0,0,0,0,2],"timestamp_mouse":[9,41,47,66,85,106,127,147,167,186,206,226,247,267,286,306,327,346,366,386,406,426,446,466,487,506,527,547,567,587,607,627,646,666,686,707,726,746,766,787,807,826,847,867,887,906,927,947,967,986,1006,1026,1046,1067,1087,1107,1126,1146,1166,1187,1206,1226,1247,1266,1286,1306,1327,1346,1366,1386,1407,1426,1447,1466,1486,1506,1526,1546,1566,1586,1606,1627,1646,1665,1686,1705,1726,1747,1766,1786,1807,1826,1846,1866,1886,1906,1927,1946,1966,1986,2007,2025,2046,2066,2086,2107,2127,2146,2167,2186,2206,2226,2247],"xSR":741.5,"ySR":573.95,"xT1":424.9,"yT1":0,"xT2":1058.1,"yT2":0,"toosoon":0,"cond_shown":"Congruent","ratio_trial":100,"L_num":2,"L_den":5,"R_num":6,"R_den":12,"correct_side":2,"subjID":"MicaelaReyesPerez8","gender":"1","school":"6","age":"11"},{"start_time":1551882090041,"click_time":1551882091976,"finger_time":1551882091416,"fix_duration":1282.5626631197717,"trial":18,"RT":1375,"MT":560,"sideResp":2,"stimulus":[],"xmouse":[812,812,812,812,812,812,812,812,812,812,812,812,812,812,812,812,812,812,812,812,812,812,812,812,812,812,812,812,812,812,812,812,812,812,812,812,812,812,812,812,812,812,812,812,812,812,812,812,812,812,812,812,812,812,812,812,812,812,812,812,812,812,812,812,812,812,816,823,833,865,879,891,900,911,930,941,953,959,964,974,981,984,988,991,998,1004,1016,1026,1031,1036,1036,1036,1037,1040,1059,1069,1073],"ymouse":[619,619,619,619,619,619,619,619,619,619,619,619,619,619,619,619,619,619,619,619,619,619,619,619,619,619,619,619,619,619,619,619,619,619,619,619,619,619,619,619,619,619,619,619,619,619,619,619,619,619,619,619,619,619,619,619,619,619,619,619,619,619,619,619,619,619,607,588,566,507,483,458,437,407,342,315,286,274,266,257,252,247,236,220,172,112,63,32,14,1,0,0,0,0,0,0,1],"timestamp_mouse":[16,42,56,75,95,115,135,155,175,196,215,235,255,275,294,315,335,355,375,395,415,435,455,475,496,516,535,555,575,595,615,635,655,674,695,716,735,755,775,796,815,835,855,875,895,915,935,955,975,995,1016,1035,1055,1075,1095,1115,1135,1154,1175,1195,1215,1236,1256,1275,1295,1315,1334,1356,1375,1395,1415,1435,1455,1476,1494,1514,1535,1555,1575,1595,1614,1635,1655,1675,1695,1715,1735,1755,1775,1795,1815,1836,1856,1875,1895,1915,1935],"xSR":741.5,"ySR":573.95,"xT1":424.9,"yT1":0,"xT2":1058.1,"yT2":0,"toosoon":0,"cond_shown":"Incongruent","ratio_trial":300,"L_num":13,"L_den":26,"R_num":12,"R_den":15,"correct_side":2,"subjID":"MicaelaReyesPerez8","gender":"1","school":"6","age":"11"},{"start_time":1551882094286,"click_time":1551882095776,"finger_time":1551882095375,"fix_duration":1149.196259752485,"trial":19,"RT":1089,"MT":401,"sideResp":2,"stimulus":[],"xmouse":[810,810,810,810,810,810,810,810,810,810,810,810,810,810,810,810,810,810,810,810,810,810,810,810,810,810,810,810,810,810,810,810,810,810,810,810,810,810,810,810,810,810,810,810,810,810,810,810,810,810,810,810,814,823,834,852,870,923,944,962,973,979,985,1005,1012,1016,1023,1028,1034,1039,1042,1044,1049,1058,1060],"ymouse":[593,593,593,593,593,593,593,593,593,593,593,593,593,593,593,593,593,593,593,593,593,593,593,593,593,593,593,593,593,593,593,593,593,593,593,593,593,593,593,593,593,593,593,593,593,593,593,593,593,593,593,593,587,576,561,543,520,450,413,380,351,330,312,266,250,232,212,191,148,128,102,95,89,80,78],"timestamp_mouse":[11,42,51,71,90,110,130,151,169,191,210,230,250,271,291,311,330,350,370,390,410,430,450,471,490,510,530,550,570,590,610,630,650,671,691,710,730,750,771,789,811,830,850,871,891,910,930,950,970,990,1009,1030,1050,1071,1089,1110,1129,1150,1170,1190,1210,1230,1250,1271,1290,1310,1330,1350,1369,1390,1410,1431,1450,1471,1490],"xSR":741.5,"ySR":573.95,"xT1":424.9,"yT1":0,"xT2":1058.1,"yT2":0,"toosoon":0,"cond_shown":"Congruent","ratio_trial":300,"L_num":7,"L_den":14,"R_num":20,"R_den":25,"correct_side":2,"subjID":"MicaelaReyesPerez8","gender":"1","school":"6","age":"11"},{"start_time":1551882097451,"click_time":1551882099176,"finger_time":1551882098816,"fix_duration":474.35676552920626,"trial":20,"RT":1365,"MT":360,"sideResp":2,"stimulus":[],"xmouse":[803,803,803,803,803,803,803,803,803,803,803,803,803,803,803,803,803,803,803,803,803,803,803,803,803,803,803,803,803,803,803,803,803,803,803,803,803,803,803,803,803,803,803,803,803,803,803,803,803,803,803,803,803,803,803,803,803,803,803,803,803,803,803,803,803,803,803,808,817,826,866,887,911,938,953,976,985,994,1004,1013,1031,1040,1052,1055,1056,1057,1059],"ymouse":[620,620,620,620,620,620,620,620,620,620,620,620,620,620,620,620,620,620,620,620,620,620,620,620,620,620,620,620,620,620,620,620,620,620,620,620,620,620,620,620,620,620,620,620,620,620,620,620,620,620,620,620,620,619,619,619,619,619,619,619,619,619,619,618,617,610,600,588,570,552,477,447,407,338,289,205,178,154,130,108,67,48,29,23,21,21,21],"timestamp_mouse":[12,26,46,65,85,106,128,146,165,186,205,226,244,266,287,306,326,346,366,385,406,424,445,466,486,505,526,545,565,586,606,626,645,666,686,706,725,746,764,785,806,825,845,865,885,905,926,945,965,985,1005,1025,1045,1065,1085,1105,1125,1146,1165,1185,1205,1225,1245,1266,1285,1305,1325,1345,1365,1385,1405,1426,1444,1465,1485,1506,1525,1545,1565,1585,1604,1625,1645,1664,1686,1706,1724],"xSR":741.5,"ySR":573.95,"xT1":424.9,"yT1":0,"xT2":1058.1,"yT2":0,"toosoon":0,"cond_shown":"Congruent","ratio_trial":200,"L_num":9,"L_den":30,"R_num":13,"R_den":26,"correct_side":2,"subjID":"MicaelaReyesPerez8","gender":"1","school":"6","age":"11"},{"start_time":1551882100968,"click_time":1551882102816,"finger_time":1551882102336,"fix_duration":790.7964117874931,"trial":21,"RT":1368,"MT":480,"sideResp":1,"stimulus":[],"xmouse":[782,782,782,782,782,782,782,782,782,782,782,782,782,782,782,782,782,782,782,782,782,782,782,782,782,782,782,782,782,782,782,782,782,782,782,782,782,782,782,782,782,782,782,782,782,782,782,782,782,782,782,782,782,782,782,782,782,782,782,782,782,782,782,782,782,782,782,774,754,695,666,646,635,622,603,594,591,590,590,590,589,586,582,578,568,558,548,540,533,525,525,525,524],"ymouse":[593,594,594,595,595,597,597,597,597,597,597,597,597,597,597,597,597,597,597,597,597,597,597,597,597,597,597,597,597,597,597,597,597,597,597,597,597,597,597,597,597,597,597,597,597,597,597,597,597,597,597,597,597,597,597,597,597,597,597,597,597,597,597,597,597,597,596,581,545,422,360,314,275,234,163,133,125,123,123,122,122,122,122,122,122,120,114,106,94,75,71,68,67],"timestamp_mouse":[9,37,49,68,88,108,128,148,169,189,208,229,248,269,288,308,328,349,369,387,408,428,449,468,488,509,528,548,569,588,608,628,648,669,688,708,727,749,769,787,808,829,848,868,888,908,928,949,968,988,1009,1028,1048,1069,1088,1109,1128,1148,1168,1189,1208,1229,1248,1267,1289,1308,1328,1348,1368,1388,1408,1428,1449,1468,1487,1508,1528,1548,1568,1588,1608,1628,1648,1668,1687,1709,1728,1748,1768,1788,1808,1829,1848],"xSR":741.5,"ySR":573.95,"xT1":424.9,"yT1":0,"xT2":1058.1,"yT2":0,"toosoon":0,"cond_shown":"Congruent","ratio_trial":200,"L_num":8,"L_den":15,"R_num":7,"R_den":21,"correct_side":1,"subjID":"MicaelaReyesPerez8","gender":"1","school":"6","age":"11"},{"start_time":1551882108291,"click_time":1551882109996,"finger_time":1551882109636,"fix_duration":353.40101819324144,"trial":22,"RT":1345,"MT":360,"sideResp":2,"stimulus":[],"xmouse":[781,781,781,781,781,781,781,781,781,781,781,781,781,781,781,781,781,781,781,781,781,781,781,781,781,781,781,781,781,781,781,781,781,781,781,781,781,781,781,781,781,781,781,781,781,781,781,781,781,783,783,783,783,783,783,783,783,783,783,783,783,783,783,783,784,785,790,801,820,866,888,907,923,939,969,984,1004,1017,1031,1058,1071,1085,1090,1094,1096,1097],"ymouse":[608,608,608,608,608,608,608,608,608,608,608,608,608,608,608,608,608,608,608,608,608,608,608,608,608,608,608,608,608,608,608,608,608,608,608,608,608,608,608,608,608,608,608,608,608,608,608,607,605,599,598,595,595,595,595,595,595,595,595,595,595,595,595,595,593,592,583,565,535,440,386,345,314,289,248,231,208,190,173,144,131,117,111,105,101,97],"timestamp_mouse":[8,25,48,65,86,105,125,146,165,185,205,225,246,265,285,306,326,345,365,386,405,425,446,466,485,505,526,545,566,585,605,625,646,665,686,706,725,745,766,785,806,825,845,865,885,906,925,945,965,985,1005,1025,1045,1065,1085,1105,1125,1145,1165,1186,1205,1225,1245,1265,1285,1305,1325,1345,1365,1385,1405,1425,1445,1466,1485,1505,1525,1546,1565,1585,1605,1625,1645,1666,1684,1705],"xSR":741.5,"ySR":573.95,"xT1":424.9,"yT1":0,"xT2":1058.1,"yT2":0,"toosoon":0,"cond_shown":"Incongruent","ratio_trial":300,"L_num":4,"L_den":20,"R_num":2,"R_den":4,"correct_side":2,"subjID":"MicaelaReyesPerez8","gender":"1","school":"6","age":"11"},{"start_time":1551882128743,"click_time":1551882130376,"finger_time":1551882129856,"fix_duration":1086.6668540933185,"trial":23,"RT":1113,"MT":520,"sideResp":2,"stimulus":[],"xmouse":[795,795,795,795,795,795,795,795,795,795,795,795,795,795,795,795,795,793,793,793,792,792,792,792,792,792,792,792,792,792,792,792,792,792,792,792,792,792,792,792,792,792,792,792,792,792,791,790,789,789,789,789,789,789,789,791,800,817,836,868,881,889,901,913,949,968,986,1009,1039,1047,1053,1055,1058,1061,1064,1068,1070,1071,1071,1072,1072,1075],"ymouse":[597,597,597,597,597,597,597,597,597,597,597,597,597,597,597,597,597,596,596,596,596,596,596,596,596,596,596,596,596,596,596,596,596,596,596,596,596,596,596,596,596,596,596,596,596,596,595,594,592,592,592,592,592,590,583,569,549,520,488,442,429,423,414,405,375,359,337,310,272,259,249,242,237,228,223,215,209,201,170,137,107,77],"timestamp_mouse":[13,41,53,73,93,113,133,153,173,194,213,233,254,273,293,313,333,353,373,393,413,433,453,473,493,513,534,553,573,593,614,633,653,673,693,713,733,753,774,793,814,833,853,873,894,913,934,953,973,994,1013,1034,1053,1073,1094,1113,1134,1153,1173,1193,1213,1233,1254,1273,1293,1313,1333,1353,1373,1392,1413,1433,1454,1473,1493,1513,1533,1553,1573,1593,1613,1632],"xSR":741.5,"ySR":573.95,"xT1":424.9,"yT1":0,"xT2":1058.1,"yT2":0,"toosoon":0,"cond_shown":"Incongruent","ratio_trial":200,"L_num":14,"L_den":30,"R_num":12,"R_den":18,"correct_side":2,"subjID":"MicaelaReyesPerez8","gender":"1","school":"6","age":"11"},{"start_time":1551882132463,"click_time":1551882134496,"finger_time":1551882134036,"fix_duration":865.5443945528941,"trial":24,"RT":1573,"MT":460,"sideResp":2,"stimulus":[],"xmouse":[779,779,779,779,779,779,779,779,779,779,779,779,779,779,779,779,779,779,779,779,779,779,779,779,779,779,778,778,778,778,778,778,778,778,778,778,778,778,778,778,778,778,778,778,778,778,778,778,778,778,778,778,778,778,778,778,778,778,778,778,778,778,778,778,778,778,778,778,778,778,778,778,778,778,778,778,778,779,792,802,812,830,845,882,899,934,961,994,1057,1081,1098,1114,1129,1145,1147,1147,1147,1147,1147,1147,1146,1138],"ymouse":[614,614,614,614,614,614,614,614,614,614,614,614,614,614,614,614,614,614,614,614,614,614,614,614,613,611,611,610,610,609,609,609,609,609,609,609,609,609,609,609,609,609,609,609,609,609,609,609,609,609,609,609,609,609,609,609,609,609,609,609,609,609,609,609,609,609,609,609,609,609,609,609,609,609,608,604,598,589,556,534,511,480,457,398,372,320,285,250,191,172,157,143,131,112,107,106,106,106,106,105,102,96],"timestamp_mouse":[14,38,54,73,93,114,134,153,173,193,214,233,254,274,294,314,333,353,373,393,413,433,454,474,494,513,533,553,574,593,613,633,653,672,694,713,733,754,773,793,813,833,853,873,894,913,933,954,973,993,1013,1034,1053,1074,1093,1113,1133,1153,1173,1194,1213,1233,1253,1273,1292,1314,1333,1353,1373,1393,1413,1432,1453,1474,1493,1513,1533,1553,1573,1593,1613,1633,1654,1672,1693,1712,1734,1753,1773,1793,1813,1833,1854,1873,1894,1913,1933,1953,1973,1993,2013,2033],"xSR":741.5,"ySR":573.95,"xT1":424.9,"yT1":0,"xT2":1058.1,"yT2":0,"toosoon":0,"cond_shown":"Congruent","ratio_trial":300,"L_num":3,"L_den":12,"R_num":11,"R_den":20,"correct_side":2,"subjID":"MicaelaReyesPerez8","gender":"1","school":"6","age":"11"},{"start_time":1551882140740,"click_time":1551882142295,"finger_time":1551882141936,"fix_duration":1382.8332721471368,"trial":25,"RT":1196,"MT":359,"sideResp":1,"stimulus":[],"xmouse":[796,796,796,796,796,796,796,796,796,796,796,796,796,796,796,796,796,796,796,796,796,796,796,796,796,796,796,796,796,795,794,794,794,794,793,793,793,793,793,793,793,793,793,793,793,793,793,793,793,793,793,793,793,793,792,789,782,770,760,711,588,537,503,489,483,482,487,489,497,500,511,516,522,528,531,530,519,495],"ymouse":[618,618,618,618,618,618,618,618,618,618,618,618,618,618,618,618,618,618,618,618,618,618,618,618,618,618,618,617,617,617,615,615,615,615,615,615,615,615,615,615,615,615,615,615,615,615,615,615,615,615,615,615,615,614,612,608,599,585,575,531,432,390,358,336,321,293,269,262,239,227,201,188,176,164,153,127,107,79],"timestamp_mouse":[35,36,56,76,96,116,137,157,175,196,215,237,256,276,296,316,336,356,377,395,416,436,456,477,497,517,536,556,576,597,617,636,656,676,696,715,736,756,777,796,816,837,856,877,897,916,937,957,975,997,1017,1036,1057,1076,1096,1116,1137,1156,1176,1196,1216,1237,1257,1276,1295,1315,1336,1355,1376,1396,1417,1435,1456,1475,1495,1515,1536,1555],"xSR":741.5,"ySR":573.95,"xT1":424.9,"yT1":0,"xT2":1058.1,"yT2":0,"toosoon":0,"cond_shown":"Incongruent","ratio_trial":300,"L_num":1,"L_den":2,"R_num":3,"R_den":15,"correct_side":1,"subjID":"MicaelaReyesPerez8","gender":"1","school":"6","age":"11"},{"start_time":1551882143906,"click_time":1551882145216,"finger_time":1551882144735,"fix_duration":250,"trial":26,"RT":829,"MT":481,"sideResp":2,"stimulus":[],"xmouse":[783,783,783,783,783,783,783,783,783,783,783,783,783,783,782,782,781,781,781,781,781,781,781,781,781,781,781,781,781,781,781,781,781,781,781,781,781,781,781,782,789,795,808,811,812,812,812,812,812,812,812,813,815,819,823,832,843,874,914,948,982,1016,1069,1087,1096,1099],"ymouse":[667,667,667,667,667,667,667,667,667,667,667,667,667,666,664,663,662,662,662,662,662,662,662,661,661,661,661,661,661,661,660,659,658,657,656,654,652,643,630,615,594,571,537,532,530,529,529,529,529,529,529,529,522,515,506,490,473,423,360,313,266,217,147,119,102,89],"timestamp_mouse":[10,29,49,69,90,109,130,149,170,190,210,231,249,269,289,309,330,349,370,389,409,430,450,470,489,509,530,550,570,589,610,629,649,670,689,710,729,749,770,790,810,829,850,870,890,910,929,950,970,991,1010,1030,1050,1070,1090,1109,1130,1149,1169,1189,1209,1229,1249,1269,1289,1310],"xSR":741.5,"ySR":573.95,"xT1":424.9,"yT1":0,"xT2":1058.1,"yT2":0,"toosoon":0,"cond_shown":"Congruent","ratio_trial":100,"L_num":1,"L_den":2,"R_num":18,"R_den":30,"correct_side":2,"subjID":"MicaelaReyesPerez8","gender":"1","school":"6","age":"11"},{"start_time":1551882148443,"click_time":1551882150357,"finger_time":1551882149835,"fix_duration":1307.692420589336,"trial":27,"RT":1392,"MT":522,"sideResp":1,"stimulus":[],"xmouse":[812,812,812,812,812,812,812,812,812,812,812,812,812,812,812,812,812,812,812,812,812,812,812,812,812,812,812,812,812,812,812,812,812,812,812,812,812,812,812,812,812,812,812,812,812,812,812,812,812,812,812,812,812,812,812,812,812,812,812,812,812,812,812,812,812,811,811,811,805,795,763,712,689,678,670,667,666,664,663,658,619,602,590,581,575,556,549,546,545,543,542,541,537,531,526,516],"ymouse":[618,618,618,618,618,618,618,618,618,618,618,618,618,618,618,618,618,618,618,618,618,618,618,618,618,618,618,618,618,618,618,618,618,618,618,618,618,618,618,618,618,618,618,618,618,618,618,618,618,618,618,618,618,618,618,618,618,618,618,618,618,618,618,618,618,617,611,600,580,549,458,325,271,246,228,220,214,210,204,194,147,134,127,123,122,116,114,112,111,110,108,108,105,103,100,94],"timestamp_mouse":[14,42,54,74,93,112,133,153,173,192,212,233,252,272,293,313,332,352,372,392,412,433,452,472,492,512,533,552,572,592,612,632,652,672,692,712,732,754,772,792,814,832,852,872,893,912,932,953,973,993,1012,1032,1052,1072,1092,1112,1132,1152,1173,1193,1213,1232,1252,1272,1293,1313,1333,1354,1372,1392,1412,1432,1452,1474,1492,1513,1532,1552,1573,1592,1612,1632,1652,1673,1692,1713,1732,1752,1772,1792,1812,1832,1853,1872,1892,1914],"xSR":741.5,"ySR":573.95,"xT1":424.9,"yT1":0,"xT2":1058.1,"yT2":0,"toosoon":0,"cond_shown":"Incongruent","ratio_trial":100,"L_num":9,"L_den":15,"R_num":14,"R_den":28,"correct_side":1,"subjID":"MicaelaReyesPerez8","gender":"1","school":"6","age":"11"},{"start_time":1551882174179,"click_time":1551882175576,"finger_time":1551882175455,"fix_duration":1161.744869410194,"trial":28,"RT":1276,"MT":121,"sideResp":2,"stimulus":[],"xmouse":[810,810,810,810,810,810,810,810,810,810,810,810,810,810,810,810,810,810,810,810,810,810,810,810,810,810,810,810,810,810,810,810,810,810,810,810,810,810,810,810,810,810,810,810,810,810,810,810,810,810,810,810,810,810,809,810,811,813,814,815,815,818,836,850,876,910,950,1034,1089,1100],"ymouse":[630,630,630,630,630,630,630,630,630,630,630,630,630,630,630,630,630,630,630,630,630,630,630,630,630,630,630,630,630,630,630,630,630,630,630,630,630,630,630,630,630,630,630,630,630,630,630,630,630,630,630,630,630,630,628,625,621,616,615,612,610,603,574,546,504,450,380,231,126,98],"timestamp_mouse":[17,46,57,76,97,118,138,156,178,196,216,236,257,276,298,317,336,356,378,397,416,437,458,478,496,517,537,556,576,597,616,636,657,676,696,718,736,756,776,796,817,837,856,877,896,916,938,956,978,997,1017,1036,1058,1076,1096,1116,1136,1156,1178,1198,1218,1236,1256,1276,1296,1316,1336,1356,1376,1396],"xSR":741.5,"ySR":573.95,"xT1":424.9,"yT1":0,"xT2":1058.1,"yT2":0,"toosoon":0,"cond_shown":"Congruent","ratio_trial":200,"L_num":13,"L_den":26,"R_num":14,"R_den":20,"correct_side":2,"subjID":"MicaelaReyesPerez8","gender":"1","school":"6","age":"11"},{"start_time":1551882178530,"click_time":1551882180835,"finger_time":1551882180115,"fix_duration":1492.333010129524,"trial":29,"RT":1585,"MT":720,"sideResp":1,"stimulus":[],"xmouse":[800,800,800,800,800,800,800,800,800,800,800,800,800,800,800,800,800,800,800,800,800,800,800,800,800,800,800,800,800,800,800,800,800,800,800,800,800,800,800,800,800,800,800,800,800,800,800,800,800,800,800,800,800,800,800,800,800,800,800,800,800,800,800,800,800,800,800,800,798,797,790,789,788,787,786,783,781,776,773,770,766,765,765,765,765,765,769,774,782,790,830,847,860,867,873,874,867,851,817,776,626,577,546,531,530,529,529,529,529,528,528,529,529,529,527,521],"ymouse":[630,630,630,630,630,630,630,630,630,630,630,630,630,630,630,630,630,630,630,630,630,630,630,630,630,630,630,630,630,630,630,630,630,630,630,630,630,630,630,630,630,630,630,630,630,630,630,630,630,630,630,630,630,630,630,630,630,630,630,630,630,630,630,630,630,630,630,630,628,626,614,612,611,609,606,597,590,582,575,567,558,556,556,556,556,553,549,543,531,519,459,430,406,384,361,325,305,277,237,189,55,13,0,0,0,0,0,0,1,8,24,46,55,61,67,74],"timestamp_mouse":[10,25,45,65,85,105,126,147,167,185,206,227,245,266,285,306,326,346,365,385,406,426,445,465,485,505,525,545,566,587,605,625,645,666,685,706,727,745,765,785,806,826,847,865,885,906,926,946,966,985,1005,1026,1047,1067,1085,1105,1126,1145,1165,1186,1206,1225,1247,1265,1287,1307,1325,1345,1365,1385,1405,1426,1445,1465,1486,1505,1527,1545,1566,1585,1606,1625,1645,1665,1685,1706,1725,1746,1765,1785,1806,1826,1845,1867,1885,1905,1926,1946,1965,1985,2005,2025,2045,2065,2085,2107,2127,2146,2166,2186,2205,2225,2245,2265,2285,2305],"xSR":741.5,"ySR":573.95,"xT1":424.9,"yT1":0,"xT2":1058.1,"yT2":0,"toosoon":0,"cond_shown":"Congruent","ratio_trial":200,"L_num":8,"L_den":15,"R_num":3,"R_den":9,"correct_side":1,"subjID":"MicaelaReyesPerez8","gender":"1","school":"6","age":"11"},{"start_time":1551882186011,"click_time":1551882187755,"finger_time":1551882187476,"fix_duration":1214.3595756762115,"trial":30,"RT":1465,"MT":279,"sideResp":2,"stimulus":[],"xmouse":[770,770,770,770,770,770,770,770,770,770,770,770,770,770,770,770,770,770,770,770,770,770,770,770,770,770,770,770,770,770,770,770,770,770,770,770,770,770,770,770,770,770,770,770,770,770,770,770,770,770,770,770,770,770,770,770,770,770,770,770,770,770,770,770,770,770,771,771,773,773,774,776,779,792,814,863,918,1031,1079,1106,1119,1130,1146,1156,1162,1164,1164,1154],"ymouse":[600,600,600,600,600,600,600,600,600,600,600,600,600,600,600,600,600,600,600,600,600,600,600,600,600,600,600,600,600,600,600,600,600,600,600,600,600,600,600,600,600,600,600,600,600,600,600,600,600,600,600,600,600,600,600,600,600,600,600,600,600,600,600,600,600,600,600,600,599,598,596,593,585,571,550,504,449,335,288,258,238,220,184,156,140,127,109,71],"timestamp_mouse":[10,25,44,64,84,104,126,145,165,184,204,224,245,264,285,305,325,346,364,384,404,424,445,464,485,504,526,544,565,584,605,626,648,665,684,704,724,745,764,785,805,824,844,864,885,904,924,944,966,984,1004,1024,1045,1065,1085,1104,1125,1144,1165,1186,1205,1225,1244,1265,1284,1305,1325,1345,1365,1385,1404,1424,1444,1465,1485,1504,1524,1544,1564,1584,1604,1624,1644,1665,1684,1704,1724,1744],"xSR":741.5,"ySR":573.95,"xT1":424.9,"yT1":0,"xT2":1058.1,"yT2":0,"toosoon":0,"cond_shown":"Incongruent","ratio_trial":200,"L_num":7,"L_den":15,"R_num":6,"R_den":9,"correct_side":2,"subjID":"MicaelaReyesPerez8","gender":"1","school":"6","age":"11"},{"start_time":1551882203013,"click_time":1551882204835,"finger_time":1551882204314,"fix_duration":1236.3786565807388,"trial":31,"RT":1301,"MT":521,"sideResp":1,"stimulus":[],"xmouse":[800,800,800,800,800,800,800,800,800,800,800,800,800,800,800,800,800,800,800,800,800,800,800,800,800,800,800,800,800,800,800,800,800,800,800,800,800,800,800,800,800,800,800,800,800,800,800,800,798,797,797,797,795,794,794,794,794,793,792,790,789,786,783,780,757,736,698,633,605,578,577,577,577,577,573,567,556,551,545,532,521,506,490,479,477,477,477,479,481,485,485,485],"ymouse":[622,622,622,622,622,622,622,622,622,622,622,622,622,622,622,622,622,622,622,622,622,622,622,622,622,622,622,622,622,622,622,622,622,622,622,622,622,622,622,622,622,622,622,622,622,622,622,622,622,621,620,619,618,617,617,617,617,615,614,612,611,607,605,601,579,551,505,408,350,265,240,221,209,203,192,183,169,164,159,152,147,139,130,122,120,119,115,113,110,104,101,98],"timestamp_mouse":[11,23,47,62,82,102,122,143,162,182,202,222,242,262,282,303,322,342,362,383,402,422,442,462,481,502,522,541,562,582,601,623,641,663,682,702,723,743,763,781,802,823,842,863,881,902,923,942,963,982,1002,1023,1041,1062,1083,1102,1121,1143,1163,1181,1203,1223,1241,1262,1282,1301,1322,1342,1362,1383,1402,1421,1442,1462,1482,1502,1521,1542,1562,1583,1602,1621,1642,1661,1682,1702,1721,1742,1761,1782,1802,1821],"xSR":741.5,"ySR":573.95,"xT1":424.9,"yT1":0,"xT2":1058.1,"yT2":0,"toosoon":0,"cond_shown":"Congruent","ratio_trial":200,"L_num":20,"L_den":25,"R_num":9,"R_den":15,"correct_side":1,"subjID":"MicaelaReyesPerez8","gender":"1","school":"6","age":"11"},{"start_time":1551882207038,"click_time":1551882208495,"finger_time":1551882208135,"fix_duration":841.6207322068549,"trial":32,"RT":1097,"MT":360,"sideResp":2,"stimulus":[],"xmouse":[782,782,782,784,784,784,784,784,784,784,784,784,784,784,784,784,784,784,784,784,784,784,784,784,784,784,784,784,784,784,784,784,784,785,785,785,785,786,788,788,791,793,796,797,799,799,800,800,802,803,806,810,824,832,848,867,886,921,939,952,966,979,1003,1008,1012,1017,1022,1034,1039,1045,1050,1054,1060],"ymouse":[620,620,620,619,619,619,619,619,619,619,619,619,619,619,619,619,619,619,619,619,619,619,619,619,619,619,619,619,619,619,619,619,619,618,618,618,618,618,616,615,613,611,604,602,600,600,599,599,597,597,595,593,585,580,571,560,549,521,502,482,454,422,332,302,275,249,226,181,162,142,124,108,89],"timestamp_mouse":[29,38,57,77,97,118,137,158,176,197,216,237,258,278,297,318,338,357,378,398,418,438,457,476,497,518,537,556,577,598,616,637,657,678,698,716,736,757,777,797,817,838,856,878,896,918,938,957,976,996,1016,1038,1056,1078,1097,1117,1137,1157,1177,1197,1217,1236,1256,1278,1297,1316,1337,1357,1378,1397,1416,1438,1457],"xSR":741.5,"ySR":573.95,"xT1":424.9,"yT1":0,"xT2":1058.1,"yT2":0,"toosoon":0,"cond_shown":"Congruent","ratio_trial":300,"L_num":7,"L_den":14,"R_num":20,"R_den":25,"correct_side":2,"subjID":"MicaelaReyesPerez8","gender":"1","school":"6","age":"11"},{"start_time":1551882210533,"click_time":1551882211995,"finger_time":1551882211895,"fix_duration":496.1834606177762,"trial":33,"RT":1362,"MT":100,"sideResp":1,"stimulus":[],"xmouse":[801,801,801,801,801,801,801,801,801,801,801,801,801,801,801,801,801,801,801,801,801,801,801,801,801,801,801,801,801,801,801,801,801,801,801,801,801,801,801,801,801,801,801,801,801,801,801,801,801,801,801,801,801,801,801,801,801,801,801,801,801,801,801,801,801,801,801,789,783,699,635,569,519,473],"ymouse":[582,582,582,582,582,582,582,582,582,582,582,583,583,583,583,583,583,583,583,583,583,583,583,583,583,583,583,583,583,583,583,583,583,583,583,583,583,583,583,583,583,583,583,583,583,583,583,583,583,583,583,583,583,583,583,583,583,583,583,583,583,583,583,583,583,583,584,576,570,475,383,273,172,67],"timestamp_mouse":[10,23,41,62,82,102,123,142,163,183,201,223,242,262,282,303,322,341,363,383,403,422,443,462,481,501,523,543,562,581,603,623,642,662,681,703,723,742,762,782,803,821,841,863,883,902,922,943,962,982,1002,1021,1042,1062,1082,1101,1123,1143,1162,1183,1203,1223,1243,1262,1282,1303,1322,1342,1362,1382,1402,1422,1442,1462],"xSR":741.5,"ySR":573.95,"xT1":424.9,"yT1":0,"xT2":1058.1,"yT2":0,"toosoon":0,"cond_shown":"Incongruent","ratio_trial":100,"L_num":9,"L_den":15,"R_num":13,"R_den":26,"correct_side":1,"subjID":"MicaelaReyesPerez8","gender":"1","school":"6","age":"11"},{"start_time":1551882213447,"click_time":1551882214955,"finger_time":1551882214515,"fix_duration":250,"trial":34,"RT":1068,"MT":440,"sideResp":1,"stimulus":[],"xmouse":[777,777,776,776,775,775,775,775,775,775,775,775,775,775,775,775,775,775,775,775,775,775,775,775,775,775,775,775,773,771,770,770,770,769,769,768,767,767,767,767,767,767,767,767,767,767,767,767,766,765,764,762,755,736,727,714,706,698,679,666,639,607,575,530,519,514,510,507,507,507,507,507,498,475,456,439],"ymouse":[598,598,599,599,599,599,599,599,599,599,599,599,599,599,599,599,599,599,599,599,599,599,599,599,599,599,599,599,599,599,598,598,598,598,598,597,596,596,596,596,596,596,596,596,596,596,596,596,595,594,593,591,582,559,548,534,519,506,474,457,429,402,376,332,312,303,295,288,284,280,273,249,197,153,116,81],"timestamp_mouse":[8,35,49,69,88,107,129,148,168,188,209,229,248,268,288,309,328,348,368,388,409,428,448,468,488,507,528,549,568,588,608,628,648,668,689,708,728,748,768,788,808,827,848,869,888,909,928,947,968,988,1008,1029,1048,1068,1087,1109,1128,1148,1168,1187,1208,1227,1247,1268,1287,1308,1328,1349,1368,1389,1408,1428,1449,1468,1488,1508],"xSR":741.5,"ySR":573.95,"xT1":424.9,"yT1":0,"xT2":1058.1,"yT2":0,"toosoon":0,"cond_shown":"Incongruent","ratio_trial":200,"L_num":3,"L_den":4,"R_num":11,"R_den":20,"correct_side":1,"subjID":"MicaelaReyesPerez8","gender":"1","school":"6","age":"11"},{"start_time":1551882236605,"click_time":1551882238655,"finger_time":1551882238115,"fix_duration":808.3042152397375,"trial":35,"RT":1510,"MT":540,"sideResp":2,"stimulus":[],"xmouse":[819,819,819,819,819,819,819,819,819,819,819,819,819,819,819,819,819,819,819,819,819,819,819,819,819,819,819,819,819,819,819,819,819,819,819,819,819,819,819,819,819,819,819,819,819,819,819,819,819,819,819,819,819,819,819,819,819,819,819,819,819,819,819,819,819,819,819,819,819,819,819,819,819,819,819,827,834,859,918,959,974,999,1009,1025,1032,1034,1035,1035,1039,1044,1052,1070,1092,1120,1122,1122,1122,1123,1123,1122,1117,1114,1112],"ymouse":[579,579,579,579,579,579,579,579,579,579,579,579,579,579,579,579,579,579,579,579,579,579,579,579,579,579,579,579,579,579,579,579,579,579,579,579,579,579,579,579,579,579,579,579,579,579,579,579,579,579,579,579,579,579,579,579,579,579,579,579,579,579,579,579,579,579,579,579,579,579,579,579,579,579,579,570,558,526,436,350,304,232,166,125,115,114,113,113,113,113,113,113,117,119,119,119,119,118,116,114,107,103,94],"timestamp_mouse":[11,35,51,71,90,110,130,151,170,190,209,230,251,270,290,309,331,349,370,390,410,429,450,470,491,510,531,550,570,590,610,630,650,670,690,710,730,749,770,791,809,831,850,869,889,910,931,951,971,991,1010,1030,1050,1070,1090,1111,1131,1151,1171,1191,1209,1231,1250,1270,1291,1309,1330,1350,1371,1390,1411,1431,1450,1471,1491,1510,1530,1549,1569,1589,1610,1631,1650,1670,1690,1710,1730,1750,1769,1791,1810,1831,1850,1871,1889,1909,1930,1950,1970,1990,2009,2031,2050],"xSR":741.5,"ySR":573.95,"xT1":424.9,"yT1":0,"xT2":1058.1,"yT2":0,"toosoon":0,"cond_shown":"Incongruent","ratio_trial":200,"L_num":7,"L_den":15,"R_num":6,"R_den":9,"correct_side":2,"subjID":"MicaelaReyesPerez8","gender":"1","school":"6","age":"11"},{"start_time":1551882240327,"click_time":1551882242475,"finger_time":1551882241935,"fix_duration":690.7362206777277,"trial":36,"RT":1608,"MT":540,"sideResp":2,"stimulus":[],"xmouse":[797,797,797,797,797,797,797,797,796,796,796,796,796,796,796,796,796,796,795,795,795,795,795,795,795,795,795,795,795,795,795,795,795,795,795,795,795,795,795,795,795,795,795,795,795,795,795,795,795,795,795,795,795,795,795,795,795,795,795,795,795,795,794,794,794,794,794,794,794,794,794,794,793,793,793,793,793,795,800,805,808,812,815,815,815,815,815,815,815,815,815,817,831,840,850,861,874,902,915,923,927,931,934,958,987,1038,1101,1147],"ymouse":[639,639,639,639,639,639,639,639,639,639,639,639,639,639,639,639,639,639,638,638,638,638,638,638,638,638,638,638,638,638,638,638,638,638,638,638,638,638,638,638,638,638,638,638,638,638,638,638,638,638,638,638,638,638,638,638,638,638,638,638,638,638,637,636,636,636,636,636,635,635,635,635,635,633,632,628,623,610,600,586,573,561,549,548,548,548,548,548,548,547,540,529,487,465,443,422,401,362,345,333,327,322,318,288,253,205,148,48],"timestamp_mouse":[8,38,48,68,88,109,128,147,168,189,208,228,248,268,288,309,328,348,368,388,408,428,448,468,488,509,527,547,568,588,608,628,649,668,688,709,729,747,767,788,807,827,848,868,888,908,929,947,968,988,1008,1028,1048,1069,1088,1109,1127,1148,1167,1188,1208,1228,1248,1268,1289,1309,1329,1348,1367,1389,1409,1428,1447,1468,1488,1507,1528,1548,1567,1588,1608,1628,1648,1668,1687,1709,1727,1749,1768,1789,1808,1828,1848,1867,1888,1908,1928,1948,1967,1987,2008,2028,2048,2068,2088,2108,2127,2148],"xSR":741.5,"ySR":573.95,"xT1":424.9,"yT1":0,"xT2":1058.1,"yT2":0,"toosoon":0,"cond_shown":"Congruent","ratio_trial":200,"L_num":3,"L_den":6,"R_num":14,"R_den":20,"correct_side":2,"subjID":"MicaelaReyesPerez8","gender":"1","school":"6","age":"11"},{"start_time":1551882246491,"click_time":1551882248256,"finger_time":1551882247855,"fix_duration":754.9030739767633,"trial":37,"RT":1364,"MT":401,"sideResp":2,"stimulus":[],"xmouse":[768,768,768,768,768,768,768,768,768,768,768,768,768,768,768,768,768,768,768,768,768,768,768,768,768,768,768,768,768,768,768,768,768,768,768,768,768,768,768,768,768,768,768,768,768,768,768,768,768,768,768,768,768,768,768,768,768,768,768,768,768,768,768,768,768,777,789,806,839,888,1087,1128,1232,1280,1297,1301,1301,1301,1301,1301,1301,1300,1290,1272,1250,1202,1182,1165,1153],"ymouse":[637,637,637,637,637,637,637,637,637,637,637,637,637,637,637,637,637,637,637,637,637,637,637,637,637,637,637,637,637,637,637,637,637,637,637,637,637,637,637,637,637,637,637,637,637,637,637,637,637,637,637,637,637,637,637,637,637,637,637,637,637,637,637,637,637,627,607,581,527,463,241,194,74,15,0,0,0,0,0,0,0,0,2,7,16,28,30,34,36],"timestamp_mouse":[11,36,45,64,84,103,125,144,165,183,204,224,244,264,283,304,325,345,365,384,404,424,445,464,484,504,524,545,563,584,604,624,644,664,685,704,725,745,763,784,804,824,845,864,883,904,923,945,965,983,1004,1023,1045,1063,1084,1104,1123,1145,1165,1183,1205,1224,1244,1264,1285,1304,1323,1344,1364,1385,1403,1424,1444,1464,1483,1503,1525,1544,1564,1584,1604,1624,1643,1665,1684,1704,1724,1745,1765],"xSR":741.5,"ySR":573.95,"xT1":424.9,"yT1":0,"xT2":1058.1,"yT2":0,"toosoon":0,"cond_shown":"Congruent","ratio_trial":300,"L_num":3,"L_den":12,"R_num":11,"R_den":20,"correct_side":2,"subjID":"MicaelaReyesPerez8","gender":"1","school":"6","age":"11"},{"start_time":1551882250679,"click_time":1551882252515,"finger_time":1551882251995,"fix_duration":1484.5893587520236,"trial":38,"RT":1316,"MT":520,"sideResp":1,"stimulus":[],"xmouse":[826,826,825,824,823,822,818,817,817,817,817,816,816,816,816,816,816,816,816,816,816,816,816,816,816,816,816,816,816,816,816,816,816,816,816,816,816,816,816,816,816,816,816,816,816,816,816,816,816,816,816,816,816,816,816,816,816,816,816,816,816,815,812,810,804,791,739,701,670,647,640,644,650,656,659,659,649,638,628,617,604,597,596,591,588,584,580,575,573,565,534,521],"ymouse":[603,603,603,603,603,603,604,604,604,604,604,604,604,604,604,604,604,604,604,604,604,604,604,604,604,604,604,604,604,604,604,604,604,604,604,604,604,604,604,604,604,604,604,604,604,604,604,604,604,604,604,604,604,604,604,604,604,604,604,604,604,604,601,598,590,571,488,424,361,295,234,212,189,167,149,131,88,67,52,38,28,27,27,30,37,43,51,59,61,69,89,94],"timestamp_mouse":[16,48,56,76,96,115,135,157,177,197,217,235,256,275,296,316,335,356,376,396,415,437,457,477,496,517,537,557,577,595,616,636,657,676,695,715,737,756,777,795,817,836,855,877,896,916,937,956,976,996,1016,1036,1056,1077,1096,1116,1135,1156,1177,1196,1215,1236,1255,1276,1296,1316,1335,1357,1376,1395,1416,1436,1457,1476,1496,1515,1536,1555,1576,1596,1616,1636,1655,1676,1695,1716,1736,1755,1776,1795,1816,1836],"xSR":741.5,"ySR":573.95,"xT1":424.9,"yT1":0,"xT2":1058.1,"yT2":0,"toosoon":0,"cond_shown":"Congruent","ratio_trial":300,"L_num":11,"L_den":22,"R_num":4,"R_den":20,"correct_side":1,"subjID":"MicaelaReyesPerez8","gender":"1","school":"6","age":"11"},{"start_time":1551882259888,"click_time":1551882261535,"finger_time":1551882260635,"fix_duration":1191.021879461352,"trial":39,"RT":747,"MT":900,"sideResp":1,"stimulus":[],"xmouse":[792,792,792,792,792,792,792,792,792,792,792,792,792,792,792,792,792,792,792,792,792,792,792,792,792,792,792,792,792,792,792,792,792,792,792,792,792,799,800,801,801,792,787,785,782,779,774,762,753,744,735,715,709,701,690,680,659,650,642,636,632,629,627,627,623,620,611,606,601,595,588,579,556,548,545,545,543,542,538,536,532,528,510],"ymouse":[598,598,598,598,598,598,598,598,598,598,598,598,598,598,598,598,598,598,598,598,598,598,598,598,598,598,598,598,598,598,598,598,598,598,599,599,599,552,525,491,466,437,429,426,421,416,408,382,362,342,314,271,256,244,231,220,195,184,175,169,163,160,159,158,156,153,146,140,129,110,89,65,19,8,4,4,4,4,4,4,4,4,13],"timestamp_mouse":[8,43,46,66,87,108,126,147,168,188,208,228,248,268,287,307,327,348,367,388,406,428,448,468,487,507,527,547,566,586,608,628,647,668,687,707,726,747,766,788,806,827,847,867,886,907,927,946,966,987,1006,1026,1047,1066,1087,1108,1127,1147,1166,1186,1206,1227,1247,1267,1286,1308,1327,1347,1367,1387,1408,1427,1447,1467,1487,1507,1527,1546,1566,1587,1606,1628,1647],"xSR":741.5,"ySR":573.95,"xT1":424.9,"yT1":0,"xT2":1058.1,"yT2":0,"toosoon":0,"cond_shown":"Congruent","ratio_trial":200,"L_num":21,"L_den":30,"R_num":2,"R_den":4,"correct_side":1,"subjID":"MicaelaReyesPerez8","gender":"1","school":"6","age":"11"},{"start_time":1551882263452,"click_time":1551882265315,"finger_time":1551882264675,"fix_duration":1096.210661872482,"trial":40,"RT":1223,"MT":640,"sideResp":2,"stimulus":[],"xmouse":[824,824,824,824,824,824,824,823,822,822,822,822,822,822,822,822,822,821,821,821,821,821,821,821,821,821,821,821,821,821,821,821,821,821,821,821,821,821,821,821,821,821,821,821,821,821,821,821,821,821,821,821,821,821,821,821,821,822,823,829,838,856,897,946,1062,1135,1152,1183,1191,1196,1196,1196,1196,1196,1196,1196,1194,1191,1188,1184,1183,1180,1177,1175,1167,1158,1155,1149,1137,1122,1115,1112,1107,1106],"ymouse":[642,642,642,642,641,641,641,639,639,639,638,638,638,637,637,637,637,636,636,636,636,636,636,636,636,636,636,636,636,636,636,636,636,636,636,636,636,636,636,635,635,635,635,635,635,635,635,634,634,634,634,634,634,634,634,632,631,627,624,611,600,582,551,516,428,357,337,295,278,267,266,266,265,264,252,247,239,235,231,226,222,216,208,200,180,164,158,142,125,108,104,102,100,99],"timestamp_mouse":[11,34,43,62,82,102,123,142,162,182,203,222,242,263,283,302,322,342,362,383,403,422,443,462,483,503,523,543,562,583,604,623,642,663,682,703,722,742,763,784,803,822,843,864,884,902,923,942,962,982,1002,1023,1042,1063,1083,1103,1122,1142,1162,1182,1203,1223,1242,1262,1282,1302,1322,1342,1362,1383,1402,1423,1443,1463,1482,1502,1522,1543,1562,1583,1602,1623,1642,1663,1682,1702,1723,1744,1762,1782,1802,1822,1842,1863],"xSR":741.5,"ySR":573.95,"xT1":424.9,"yT1":0,"xT2":1058.1,"yT2":0,"toosoon":0,"cond_shown":"Incongruent","ratio_trial":300,"L_num":13,"L_den":26,"R_num":12,"R_den":15,"correct_side":2,"subjID":"MicaelaReyesPerez8","gender":"1","school":"6","age":"11"},{"start_time":1551882266815,"click_time":1551882268295,"finger_time":1551882267775,"fix_duration":279.9508047181922,"trial":41,"RT":960,"MT":520,"sideResp":2,"stimulus":[],"xmouse":[812,812,812,812,812,812,812,812,812,812,812,812,812,812,812,812,812,812,812,812,812,812,812,812,812,812,812,812,812,812,812,812,812,812,812,812,812,812,812,812,812,812,812,812,812,821,832,850,876,896,927,938,949,956,963,1023,1036,1040,1041,1041,1041,1041,1043,1045,1047,1050,1051,1052,1054,1058,1069,1077,1083,1087],"ymouse":[607,607,607,607,607,607,607,607,607,607,607,607,607,607,607,607,607,607,607,607,607,607,607,607,607,607,607,607,607,607,607,607,607,607,607,607,607,607,607,607,607,607,607,607,607,602,595,582,564,549,515,498,475,455,438,361,344,331,314,290,254,242,228,215,205,186,181,175,168,159,136,121,107,98],"timestamp_mouse":[19,40,59,79,100,119,139,159,179,201,219,239,259,279,299,319,340,359,381,400,420,440,459,479,499,521,539,560,579,600,619,639,661,679,699,720,739,760,779,801,819,839,860,879,900,919,940,960,980,999,1019,1039,1060,1079,1100,1119,1140,1160,1179,1200,1219,1239,1259,1279,1300,1320,1339,1360,1380,1400,1419,1439,1459,1480],"xSR":741.5,"ySR":573.95,"xT1":424.9,"yT1":0,"xT2":1058.1,"yT2":0,"toosoon":0,"cond_shown":"Incongruent","ratio_trial":300,"L_num":13,"L_den":26,"R_num":12,"R_den":15,"correct_side":2,"subjID":"MicaelaReyesPerez8","gender":"1","school":"6","age":"11"},{"start_time":1551882273352,"click_time":1551882274916,"finger_time":1551882274395,"fix_duration":296.05769809045546,"trial":42,"RT":1043,"MT":521,"sideResp":2,"stimulus":[],"xmouse":[805,805,805,805,805,805,805,805,805,805,805,805,805,805,805,805,805,805,805,805,805,805,805,805,805,805,805,805,805,805,805,805,805,805,805,805,805,805,805,805,805,805,805,805,805,805,805,805,805,805,810,833,878,951,1032,1179,1230,1268,1285,1286,1286,1286,1286,1286,1286,1282,1278,1267,1240,1214,1182,1176,1174,1172,1168,1165,1162,1157,1151],"ymouse":[604,604,604,604,604,604,604,604,604,604,604,604,604,604,604,604,604,604,604,604,604,604,604,604,604,604,604,604,604,604,604,604,604,604,604,604,604,604,604,604,604,604,604,604,604,604,604,604,604,604,602,589,565,516,462,340,276,224,186,180,180,180,180,179,177,172,170,166,158,151,142,140,139,137,134,129,124,117,89],"timestamp_mouse":[9,22,42,63,82,102,123,143,162,183,202,222,243,264,284,302,322,343,362,382,402,423,442,462,483,503,522,543,562,582,603,622,642,664,684,702,724,742,762,784,802,824,842,863,884,902,923,944,962,982,1002,1022,1043,1062,1082,1102,1122,1143,1163,1184,1203,1223,1243,1263,1282,1302,1322,1342,1362,1383,1403,1422,1442,1462,1483,1502,1522,1542,1564],"xSR":741.5,"ySR":573.95,"xT1":424.9,"yT1":0,"xT2":1058.1,"yT2":0,"toosoon":0,"cond_shown":"Congruent","ratio_trial":300,"L_num":3,"L_den":6,"R_num":4,"R_den":5,"correct_side":2,"subjID":"MicaelaReyesPerez8","gender":"1","school":"6","age":"11"},{"start_time":1551882276979,"click_time":1551882278856,"finger_time":1551882278354,"fix_duration":883.5699936881157,"trial":43,"RT":1375,"MT":502,"sideResp":2,"stimulus":[],"xmouse":[783,783,783,783,783,783,783,783,783,783,783,783,783,783,783,783,783,783,783,783,783,783,783,783,783,783,783,783,783,783,783,783,783,783,783,783,783,783,783,783,783,783,783,783,783,783,783,783,783,783,783,783,783,783,783,783,783,783,783,783,783,783,783,783,783,789,804,824,855,975,1018,1047,1052,1053,1056,1058,1059,1060,1061,1061,1061,1061,1061,1061,1064,1065,1067,1067,1067,1067,1066,1066,1066,1069],"ymouse":[606,606,606,606,606,606,606,606,606,606,606,606,606,606,606,606,606,606,606,606,606,606,606,606,606,606,606,606,606,606,606,606,606,606,606,606,606,606,606,606,606,606,606,606,606,606,606,606,606,606,606,606,605,605,605,605,605,605,605,605,605,605,605,605,605,604,601,597,592,557,546,533,528,519,478,452,427,405,374,364,358,350,346,328,302,296,290,286,282,263,239,206,132,74],"timestamp_mouse":[16,49,59,76,96,115,137,156,176,195,215,236,257,275,296,316,336,355,376,396,415,437,455,475,495,517,537,557,576,595,615,635,655,676,696,716,736,755,776,795,815,836,855,875,897,915,936,955,975,995,1015,1035,1055,1075,1096,1116,1136,1157,1175,1195,1217,1235,1256,1276,1296,1316,1336,1355,1375,1395,1416,1435,1455,1476,1496,1515,1536,1555,1576,1595,1616,1636,1657,1675,1696,1716,1735,1755,1776,1795,1815,1835,1856,1877],"xSR":741.5,"ySR":573.95,"xT1":424.9,"yT1":0,"xT2":1058.1,"yT2":0,"toosoon":0,"cond_shown":"Congruent","ratio_trial":100,"L_num":7,"L_den":14,"R_num":15,"R_den":25,"correct_side":2,"subjID":"MicaelaReyesPerez8","gender":"1","school":"6","age":"11"},{"start_time":1551882281006,"click_time":1551882283274,"finger_time":1551882282914,"fix_duration":250,"trial":44,"RT":1908,"MT":360,"sideResp":1,"stimulus":[],"xmouse":[830,830,830,824,822,819,814,809,794,790,785,783,782,782,782,782,782,782,782,782,782,782,782,782,782,782,782,782,782,782,782,782,782,782,782,782,782,782,782,782,782,782,782,782,782,782,782,782,782,782,782,782,782,782,782,782,782,782,782,782,782,782,782,782,782,782,782,782,782,782,782,782,782,782,782,782,782,782,782,782,782,782,782,782,782,782,782,782,782,782,782,782,782,783,783,783,769,746,705,687,679,668,653,631,624,616,611,606,602,599,594,580,560,497],"ymouse":[579,579,579,582,583,584,587,589,597,598,600,600,600,600,600,600,600,600,600,600,600,600,600,600,600,600,600,600,600,600,600,600,600,600,600,600,600,600,600,600,600,600,600,600,600,600,600,600,600,600,600,600,600,600,600,600,600,600,600,600,600,600,600,600,600,600,600,600,600,600,600,600,600,600,600,600,600,600,600,600,600,600,600,600,600,600,600,600,600,600,600,600,600,599,588,561,512,443,294,201,144,96,61,10,0,0,0,0,0,0,0,8,21,66],"timestamp_mouse":[9,38,48,68,88,108,128,149,169,188,208,230,248,269,288,310,328,349,369,389,408,428,448,469,489,508,529,548,569,588,609,628,648,668,688,708,728,749,768,788,809,830,849,868,889,908,928,950,968,988,1008,1028,1048,1068,1089,1108,1130,1148,1170,1188,1209,1229,1248,1268,1288,1309,1328,1348,1368,1389,1409,1429,1448,1468,1489,1508,1530,1549,1569,1588,1609,1630,1649,1669,1689,1709,1728,1748,1769,1788,1809,1828,1850,1868,1888,1908,1928,1948,1968,1989,2008,2028,2048,2068,2088,2109,2129,2149,2169,2189,2208,2229,2248,2268],"xSR":741.5,"ySR":573.95,"xT1":424.9,"yT1":0,"xT2":1058.1,"yT2":0,"toosoon":0,"cond_shown":"Incongruent","ratio_trial":100,"L_num":11,"L_den":22,"R_num":9,"R_den":15,"correct_side":2,"subjID":"MicaelaReyesPerez8","gender":"1","school":"6","age":"11"},{"start_time":1551882299066,"click_time":1551882300554,"finger_time":1551882300414,"fix_duration":250,"trial":45,"RT":1348,"MT":140,"sideResp":2,"stimulus":[],"xmouse":[783,783,783,783,783,783,783,783,783,783,783,783,783,783,783,783,783,783,783,783,783,783,783,783,783,783,783,783,783,783,783,783,783,783,783,783,783,783,783,783,783,783,783,783,783,783,783,783,783,783,783,783,783,783,783,783,783,783,783,783,783,783,783,783,783,786,798,922,988,1044,1086,1111,1134,1134,1134],"ymouse":[605,605,605,605,605,605,605,605,605,605,605,605,605,605,605,605,605,605,605,605,605,605,605,605,605,605,605,605,605,605,605,605,605,605,605,605,605,605,605,605,605,605,605,605,605,605,605,605,605,605,605,605,605,605,605,605,605,605,605,605,605,605,605,605,605,605,597,479,415,357,307,262,157,114,87],"timestamp_mouse":[12,38,49,68,89,109,128,148,168,189,209,230,248,268,288,308,330,348,368,389,409,428,449,470,490,509,528,549,569,590,608,628,649,669,690,709,728,749,768,789,808,828,848,868,888,909,929,949,968,989,1008,1029,1048,1068,1089,1108,1128,1149,1169,1188,1210,1228,1248,1269,1288,1308,1330,1348,1369,1388,1408,1428,1448,1469,1488],"xSR":741.5,"ySR":573.95,"xT1":424.9,"yT1":0,"xT2":1058.1,"yT2":0,"toosoon":0,"cond_shown":"Congruent","ratio_trial":200,"L_num":3,"L_den":12,"R_num":9,"R_den":20,"correct_side":2,"subjID":"MicaelaReyesPerez8","gender":"1","school":"6","age":"11"},{"start_time":1551882302079,"click_time":1551882303535,"finger_time":1551882303394,"fix_duration":682.906595060135,"trial":46,"RT":1315,"MT":141,"sideResp":1,"stimulus":[],"xmouse":[780,780,780,780,780,780,780,780,780,780,780,780,780,780,780,780,781,783,784,784,784,784,784,784,784,784,784,784,784,784,784,784,784,784,784,784,784,784,784,784,784,784,784,784,784,784,784,784,784,784,784,784,784,784,784,785,785,785,785,785,785,785,786,776,762,741,712,672,651,627,587,528,512],"ymouse":[622,622,622,622,622,622,622,622,622,622,622,622,622,622,622,622,622,621,621,621,621,621,621,621,621,621,621,621,621,621,621,621,621,621,621,621,621,621,621,621,621,621,621,621,621,621,621,621,621,621,621,621,621,621,621,621,621,621,621,621,621,621,617,601,575,534,465,371,330,275,211,121,99],"timestamp_mouse":[15,42,56,76,96,117,135,156,176,197,216,235,255,275,295,315,335,356,375,397,416,435,456,477,495,517,535,556,576,595,616,635,656,675,695,716,735,755,775,796,816,837,855,876,895,915,936,955,975,996,1015,1035,1055,1075,1095,1116,1135,1155,1176,1195,1216,1236,1255,1275,1295,1315,1335,1355,1375,1395,1415,1436,1456],"xSR":741.5,"ySR":573.95,"xT1":424.9,"yT1":0,"xT2":1058.1,"yT2":0,"toosoon":0,"cond_shown":"Congruent","ratio_trial":100,"L_num":15,"L_den":25,"R_num":13,"R_den":26,"correct_side":1,"subjID":"MicaelaReyesPerez8","gender":"1","school":"6","age":"11"},{"start_time":1551882305509,"click_time":1551882306994,"finger_time":1551882306475,"fix_duration":1013.5362956030564,"trial":47,"RT":966,"MT":519,"sideResp":2,"stimulus":[],"xmouse":[827,827,827,827,827,827,827,827,827,827,827,827,827,827,827,827,827,827,827,827,827,827,827,827,827,827,827,827,827,827,827,827,827,827,827,827,827,827,827,827,827,827,827,827,827,827,827,834,846,866,918,943,968,980,987,998,1001,1003,1005,1005,1006,1007,1007,1007,1004,1003,1003,1003,1003,1003,1003,1003,1017,1026,1066],"ymouse":[608,608,608,608,608,608,608,608,608,608,608,608,608,608,608,608,608,608,608,608,608,608,608,608,608,608,608,608,608,608,608,608,608,608,608,608,608,608,608,608,608,608,608,608,608,608,606,592,575,547,472,436,393,369,350,314,294,273,252,231,211,172,156,144,130,129,128,128,128,128,128,125,112,104,73],"timestamp_mouse":[10,39,46,65,86,107,125,145,165,185,206,225,245,265,285,306,325,346,367,386,406,425,445,466,485,505,525,545,567,586,605,625,645,665,685,705,726,746,766,786,805,827,847,865,885,906,926,945,966,985,1008,1025,1046,1065,1085,1106,1125,1146,1166,1185,1205,1225,1246,1266,1286,1306,1325,1347,1366,1385,1405,1425,1446,1466,1485],"xSR":741.5,"ySR":573.95,"xT1":424.9,"yT1":0,"xT2":1058.1,"yT2":0,"toosoon":0,"cond_shown":"Congruent","ratio_trial":300,"L_num":1,"L_den":30,"R_num":8,"R_den":24,"correct_side":2,"subjID":"MicaelaReyesPerez8","gender":"1","school":"6","age":"11"},{"start_time":1551882312271,"click_time":1551882313894,"finger_time":1551882313314,"fix_duration":936.0984574212281,"trial":48,"RT":1043,"MT":580,"sideResp":2,"stimulus":[],"xmouse":[813,813,813,813,813,813,813,813,813,813,813,813,813,813,813,813,813,813,813,813,813,813,813,813,813,813,813,813,813,813,813,813,813,813,813,813,813,813,813,813,813,813,813,813,813,814,815,815,815,816,819,820,825,845,860,883,927,973,1031,1045,1049,1049,1049,1049,1049,1049,1049,1049,1049,1049,1049,1049,1049,1049,1049,1049,1049,1049,1049,1051,1055,1066],"ymouse":[603,603,603,603,603,603,603,603,603,603,603,603,603,603,603,603,603,603,603,603,603,603,603,603,603,603,603,603,603,603,603,603,603,603,603,603,603,603,603,603,603,603,603,602,595,591,587,584,582,581,578,576,572,550,531,501,443,377,269,227,201,170,129,104,77,71,66,63,61,60,60,60,60,60,60,60,60,60,59,59,59,59],"timestamp_mouse":[11,33,43,64,83,104,123,143,164,183,204,224,243,263,283,304,324,343,363,384,405,424,443,463,485,503,525,543,563,583,604,623,643,664,684,704,724,744,764,783,803,825,844,863,884,903,924,943,963,983,1003,1023,1043,1063,1083,1103,1123,1143,1163,1183,1203,1223,1243,1263,1283,1304,1323,1343,1363,1384,1403,1424,1445,1463,1484,1504,1523,1543,1564,1585,1604,1623],"xSR":741.5,"ySR":573.95,"xT1":424.9,"yT1":0,"xT2":1058.1,"yT2":0,"toosoon":0,"cond_shown":"Incongruent","ratio_trial":200,"L_num":14,"L_den":30,"R_num":12,"R_den":18,"correct_side":2,"subjID":"MicaelaReyesPerez8","gender":"1","school":"6","age":"11"},{"start_time":1551882316522,"click_time":1551882319135,"finger_time":1551882318915,"fix_duration":1386.5724660941191,"trial":49,"RT":2393,"MT":220,"sideResp":2,"stimulus":[],"xmouse":[806,806,806,806,806,806,806,806,806,806,806,806,806,806,806,806,806,806,806,806,806,806,806,806,806,806,806,806,806,806,806,806,806,806,806,806,806,806,806,806,806,806,806,806,806,806,806,806,806,806,806,806,806,806,806,806,806,806,806,806,806,806,806,806,806,806,806,806,806,806,806,806,806,806,806,806,806,806,806,806,806,806,806,806,806,806,806,806,806,806,806,806,806,806,806,806,806,806,806,806,806,806,806,806,806,806,806,806,806,806,806,806,806,806,806,806,806,807,814,831,866,934,960,979,991,998,1011,1024,1036,1054,1071],"ymouse":[623,623,623,623,623,623,623,623,623,623,623,623,623,623,623,623,623,623,623,623,623,623,623,623,623,623,623,623,623,623,623,623,623,623,623,623,623,623,623,623,623,623,623,623,623,623,623,623,623,623,623,623,623,623,623,623,623,623,623,623,623,623,623,623,623,623,623,623,623,623,623,623,623,623,623,623,623,623,623,623,623,623,623,623,623,623,623,623,623,623,623,623,623,623,623,623,623,623,623,623,623,623,623,623,623,623,623,623,623,623,623,623,623,623,623,623,621,610,590,553,492,368,320,268,237,217,187,164,145,115,75],"timestamp_mouse":[13,32,52,72,92,112,132,153,172,192,213,232,253,274,293,313,332,353,373,392,413,433,452,474,493,512,533,553,572,592,613,632,652,672,692,712,733,752,772,792,813,832,852,874,893,912,932,952,973,993,1013,1032,1052,1072,1093,1112,1132,1152,1172,1192,1212,1233,1252,1273,1292,1312,1334,1353,1372,1392,1413,1432,1454,1474,1493,1512,1532,1553,1573,1592,1612,1632,1653,1672,1693,1712,1732,1753,1772,1792,1812,1833,1853,1872,1893,1912,1932,1954,1972,19