[{"start_time":1551882819342,"click_time":1551882824769,"finger_time":1551882824528,"fix_duration":747.0346907552984,"trial":0,"RT":5186,"MT":241,"sideResp":2,"stimulus":"img/900/randomdotsizeEA/R/7_Ratio_900_L_9_R_10.png","xmouse":[771,771,771,771,771,771,771,771,771,771,771,771,771,771,771,771,771,771,771,771,771,771,771,771,771,771,771,771,771,771,771,771,771,771,771,771,771,771,771,771,771,771,771,771,771,771,771,771,771,771,771,771,771,771,771,771,771,771,771,771,771,771,771,771,771,771,771,771,771,771,771,771,771,771,771,771,771,771,771,771,771,771,771,771,771,771,771,771,771,771,771,771,771,771,771,771,771,771,771,771,771,771,771,771,771,771,771,771,771,771,771,771,771,771,771,771,771,771,771,771,771,771,771,771,771,771,771,771,771,771,771,771,771,771,771,771,771,771,771,771,771,771,771,771,771,771,771,771,771,771,771,771,771,771,771,771,771,771,771,771,771,771,771,771,771,771,771,771,771,771,771,771,771,771,771,771,771,771,771,771,771,771,771,771,771,771,771,771,771,771,771,771,771,771,771,771,771,771,771,771,771,771,771,771,771,771,771,771,771,771,771,771,771,771,771,771,771,771,771,771,771,771,771,771,771,771,771,771,771,771,771,771,771,771,771,771,771,771,771,771,771,771,771,771,771,771,771,771,771,771,771,771,771,771,771,771,771,776,794,843,846,847,850,854,872,891,923,948,970,1027,1060,1068],"ymouse":[535,535,535,535,535,535,535,535,535,535,535,535,535,535,535,535,535,535,535,535,535,535,535,535,535,535,535,535,535,535,535,535,535,535,535,535,535,535,535,535,535,535,535,535,535,535,535,535,535,535,535,535,535,535,535,535,535,535,535,535,535,535,535,535,535,535,535,535,535,535,535,535,535,535,535,535,535,535,535,535,535,535,535,535,535,535,535,535,535,535,535,535,535,535,535,535,535,535,535,535,535,535,535,535,535,535,535,535,535,535,535,535,535,535,535,535,535,535,535,535,535,535,535,535,535,535,535,535,535,535,535,535,535,535,535,535,535,535,535,535,535,535,535,535,535,535,535,535,535,535,535,535,535,535,535,535,535,535,535,535,535,535,535,535,535,535,535,535,535,535,535,535,535,535,535,535,535,535,535,535,535,535,535,535,535,535,535,535,535,535,535,535,535,535,535,535,535,535,535,535,535,535,535,535,535,535,535,535,535,535,535,535,535,535,535,535,535,535,535,535,535,535,535,535,535,535,535,535,535,535,535,535,535,535,535,535,535,535,535,535,535,535,535,535,535,535,535,535,535,535,535,535,535,535,535,535,535,535,532,484,471,465,459,445,408,377,319,274,228,150,107,96],"timestamp_mouse":[9,45,46,68,86,108,126,147,167,188,207,226,248,268,286,307,327,346,367,388,407,426,446,466,486,507,527,547,567,586,606,626,647,666,688,708,727,747,767,788,807,828,847,866,887,908,927,948,966,988,1006,1027,1048,1066,1086,1106,1126,1147,1166,1187,1207,1228,1246,1266,1287,1308,1326,1347,1368,1387,1406,1428,1447,1467,1487,1506,1528,1547,1566,1586,1606,1627,1646,1668,1688,1707,1728,1746,1767,1786,1806,1827,1846,1867,1887,1906,1928,1946,1966,1988,2007,2026,2048,2066,2086,2106,2126,2146,2166,2187,2206,2226,2247,2268,2286,2308,2326,2346,2368,2387,2408,2428,2446,2467,2487,2507,2526,2547,2566,2588,2606,2626,2648,2666,2687,2706,2728,2747,2767,2788,2807,2827,2847,2866,2887,2908,2926,2947,2967,2986,3007,3027,3048,3066,3088,3108,3127,3147,3166,3187,3208,3227,3248,3267,3287,3308,3326,3347,3367,3387,3408,3428,3446,3466,3487,3507,3527,3547,3567,3586,3606,3626,3647,3666,3688,3706,3726,3746,3766,3787,3806,3826,3846,3866,3887,3906,3927,3946,3967,3986,4006,4026,4046,4067,4086,4106,4126,4146,4168,4188,4207,4228,4246,4267,4287,4307,4328,4348,4367,4386,4408,4426,4446,4466,4486,4507,4528,4547,4567,4588,4608,4627,4647,4667,4687,4708,4727,4747,4768,4786,4807,4827,4847,4868,4886,4907,4926,4947,4966,4986,5007,5028,5047,5066,5086,5107,5127,5147,5167,5186,5207,5226,5247,5267,5287,5306,5327,5346,5367,5387,5406,5427],"xSR":741.5,"ySR":501.8,"xT1":424.9,"yT1":0,"xT2":1058.1,"yT2":0,"toosoon":0,"cond_shown":"randomdotsizeEA","ratio_trial":900,"smaller_num":"9","larger_num":"10","correct_side":2,"subjID":"MicaelaReyesPerez8","gender":"1","age":"11","school":"6","test":{"fix_dur":[250,1500],"timestim":300,"targets_dim":[100,100],"targets_relative_coord":[0.3,0.7],"size_stim":[880,420],"start_dim":[100,100],"size_start":[300,300],"size_fix":60,"samplingrate":20,"img_types":["equaldotsize","equaldotanddens","randomdotsizeEA"],"ratios":[250,500,750,900],"rep_conds":9,"nTrials":120,"trials_to_rest":500,"Trials_order":[71,92,48,14,59,94,5,39,96,87,40,29,76,58,99,75,82,31,24,65,67,28,19,62,18,68,15,74,45,86,91,107,49,44,79,57,108,98,52,80,16,72,17,21,114,60,53,9,64,81,32,7,10,95,84,50,12,113,117,66,42,23,26,103,109,11,88,3,8,78,97,102,61,2,34,54,56,37,110,6,105,77,51,69,63,116,90,25,73,83,33,104,35,106,27,93,101,36,43,46,4,55,85,89,38,100,1,30,119,47,0,70,115,112,20,118,111,22,13,41],"cond_shown":["randomdotsizeEA","randomdotsizeEA","equaldotsize","randomdotsizeEA","randomdotsizeEA","equaldotanddens","randomdotsizeEA","equaldotsize","equaldotsize","equaldotsize","equaldotanddens","randomdotsizeEA","equaldotanddens","equaldotanddens","equaldotsize","equaldotsize","equaldotanddens","equaldotanddens","equaldotsize","randomdotsizeEA","equaldotanddens","equaldotanddens","equaldotanddens","randomdotsizeEA","equaldotsize","randomdotsizeEA","equaldotsize","randomdotsizeEA","equaldotsize","randomdotsizeEA","equaldotanddens","randomdotsizeEA","equaldotanddens","randomdotsizeEA","equaldotanddens","equaldotsize","equaldotsize","randomdotsizeEA","equaldotanddens","randomdotsizeEA","equaldotanddens","equaldotsize","randomdotsizeEA","equaldotsize","equaldotsize","equaldotsize","randomdotsizeEA","equaldotsize","equaldotanddens","equaldotsize","randomdotsizeEA","equaldotanddens","equaldotanddens","randomdotsizeEA","equaldotsize","randomdotsizeEA","equaldotsize","randomdotsizeEA","equaldotsize","equaldotsize","equaldotsize","randomdotsizeEA","randomdotsizeEA","equaldotanddens","equaldotanddens","randomdotsizeEA","equaldotanddens","equaldotsize","randomdotsizeEA","equaldotsize","equaldotanddens","equaldotsize","equaldotanddens","randomdotsizeEA","equaldotanddens","equaldotsize","randomdotsizeEA","equaldotanddens","randomdotsizeEA","equaldotsize","equaldotsize","randomdotsizeEA","equaldotsize","equaldotsize","equaldotsize","randomdotsizeEA","equaldotsize","equaldotanddens","equaldotanddens","randomdotsizeEA","equaldotsize","randomdotsizeEA","randomdotsizeEA","equaldotanddens","equaldotsize","equaldotsize","randomdotsizeEA","equaldotsize","equaldotanddens","equaldotanddens","equaldotanddens","equaldotanddens","equaldotanddens","randomdotsizeEA","randomdotsizeEA","equaldotanddens","equaldotanddens","equaldotsize","randomdotsizeEA","randomdotsizeEA","equaldotsize","equaldotanddens","equaldotanddens","equaldotanddens","randomdotsizeEA","equaldotanddens","equaldotsize","equaldotanddens","equaldotanddens","randomdotsizeEA"],"ratio_trial":[900,750,250,250,900,900,500,500,250,500,500,500,500,900,500,500,900,750,250,500,750,500,750,250,750,750,500,250,900,250,750,900,250,750,750,900,250,250,500,750,500,250,500,900,750,250,500,900,500,900,750,750,900,900,250,250,250,500,900,750,750,900,250,750,250,900,500,500,750,750,250,750,250,250,900,750,750,250,250,750,900,500,500,900,500,750,750,250,250,900,900,750,900,900,500,900,500,250,750,900,500,750,250,500,250,500,250,750,900,900,250,900,750,500,750,900,500,900,250,500],"smaller_num":["9","3","2","6","9","18","4","10","2","10","6","3","2","9","9","9","18","6","3","1","3","5","6","3","15","6","5","2","18","2","3","18","3","9","9","18","3","6","9","15","9","3","5","18","3","5","6","18","4","9","3","3","18","18","2","3","4","9","9","6","3","9","2","15","1","18","5","6","12","6","4","6","3","1","9","6","6","4","2","3","9","2","2","9","2","9","3","3","3","9","18","15","9","18","10","9","6","3","3","18","6","15","2","6","2","9","3","15","9","18","3","18","15","1","6","18","6","9","5","9"],"larger_num":["10","4","8","24","10","20","8","20","8","20","12","6","4","10","18","18","20","8","12","2","4","10","8","12","20","8","10","8","20","8","4","20","12","12","12","20","12","24","18","20","18","12","10","20","4","20","12","20","8","10","4","4","20","20","8","12","16","18","10","8","4","10","8","20","4","20","10","12","16","8","16","8","12","4","10","8","8","16","8","4","10","4","4","10","4","12","4","12","12","10","20","20","10","20","20","10","12","12","4","20","12","20","8","12","8","18","12","20","10","20","12","20","20","2","8","20","12","10","20","18"],"correct_side":[2,2,1,1,2,1,1,2,1,2,1,2,1,2,1,2,2,2,2,2,2,2,1,2,2,1,1,1,1,1,1,1,1,2,2,1,1,1,1,2,1,2,2,2,1,2,1,1,1,2,1,1,1,2,2,1,1,2,1,2,1,2,1,2,2,1,1,1,2,2,2,1,1,2,2,2,2,1,1,1,2,2,1,1,2,2,2,1,2,2,1,1,1,2,2,2,1,2,1,1,1,1,1,1,1,2,1,1,2,1,2,1,2,2,1,1,1,1,2,2],"img_shown":["img/900/randomdotsizeEA/R/7_Ratio_900_L_9_R_10.png","img/750/randomdotsizeEA/R/7_Ratio_750_L_3_R_4.png","img/250/equaldotsize/L/3_Ratio_250_L_8_R_2.png","img/250/randomdotsizeEA/L/5_Ratio_250_L_24_R_6.png","img/900/randomdotsizeEA/R/5_Ratio_900_L_9_R_10.png","img/900/equaldotanddens/L/8_Ratio_900_L_20_R_18.png","img/500/randomdotsizeEA/L/8_Ratio_500_L_8_R_4.png","img/500/equaldotsize/R/3_Ratio_500_L_10_R_20.png","img/250/equaldotsize/L/3_Ratio_250_L_8_R_2.png","img/500/equaldotsize/R/3_Ratio_500_L_10_R_20.png","img/500/equaldotanddens/L/11_Ratio_500_L_12_R_6.png","img/500/randomdotsizeEA/R/2_Ratio_500_L_3_R_6.png","img/500/equaldotanddens/L/5_Ratio_500_L_4_R_2.png","img/900/equaldotanddens/R/3_Ratio_900_L_9_R_10.png","img/500/equaldotsize/L/4_Ratio_500_L_18_R_9.png","img/500/equaldotsize/R/1_Ratio_500_L_9_R_18.png","img/900/equaldotanddens/R/14_Ratio_900_L_18_R_20.png","img/750/equaldotanddens/R/2_Ratio_750_L_6_R_8.png","img/250/equaldotsize/R/11_Ratio_250_L_3_R_12.png","img/500/randomdotsizeEA/R/12_Ratio_500_L_1_R_2.png","img/750/equaldotanddens/R/12_Ratio_750_L_3_R_4.png","img/500/equaldotanddens/R/14_Ratio_500_L_5_R_10.png","img/750/equaldotanddens/L/14_Ratio_750_L_8_R_6.png","img/250/randomdotsizeEA/R/4_Ratio_250_L_3_R_12.png","img/750/equaldotsize/R/4_Ratio_750_L_15_R_20.png","img/750/randomdotsizeEA/L/13_Ratio_750_L_8_R_6.png","img/500/equaldotsize/L/7_Ratio_500_L_10_R_5.png","img/250/randomdotsizeEA/L/1_Ratio_250_L_8_R_2.png","img/900/equaldotsize/L/8_Ratio_900_L_20_R_18.png","img/250/randomdotsizeEA/L/7_Ratio_250_L_8_R_2.png","img/750/equaldotanddens/L/8_Ratio_750_L_4_R_3.png","img/900/randomdotsizeEA/L/8_Ratio_900_L_20_R_18.png","img/250/equaldotanddens/L/14_Ratio_250_L_12_R_3.png","img/750/randomdotsizeEA/R/15_Ratio_750_L_9_R_12.png","img/750/equaldotanddens/R/15_Ratio_750_L_9_R_12.png","img/900/equaldotsize/L/2_Ratio_900_L_20_R_18.png","img/250/equaldotsize/L/14_Ratio_250_L_12_R_3.png","img/250/randomdotsizeEA/L/5_Ratio_250_L_24_R_6.png","img/500/equaldotanddens/L/4_Ratio_500_L_18_R_9.png","img/750/randomdotsizeEA/R/4_Ratio_750_L_15_R_20.png","img/500/equaldotanddens/L/4_Ratio_500_L_18_R_9.png","img/250/equaldotsize/R/11_Ratio_250_L_3_R_12.png","img/500/randomdotsizeEA/R/14_Ratio_500_L_5_R_10.png","img/900/equaldotsize/R/11_Ratio_900_L_18_R_20.png","img/750/equaldotsize/L/9_Ratio_750_L_4_R_3.png","img/250/equaldotsize/R/12_Ratio_250_L_5_R_20.png","img/500/randomdotsizeEA/L/13_Ratio_500_L_12_R_6.png","img/900/equaldotsize/L/2_Ratio_900_L_20_R_18.png","img/500/equaldotanddens/L/8_Ratio_500_L_8_R_4.png","img/900/equaldotsize/R/15_Ratio_900_L_9_R_10.png","img/750/randomdotsizeEA/L/9_Ratio_750_L_4_R_3.png","img/750/equaldotanddens/L/8_Ratio_750_L_4_R_3.png","img/900/equaldotanddens/L/8_Ratio_900_L_20_R_18.png","img/900/randomdotsizeEA/R/11_Ratio_900_L_18_R_20.png","img/250/equaldotsize/R/13_Ratio_250_L_2_R_8.png","img/250/randomdotsizeEA/L/14_Ratio_250_L_12_R_3.png","img/250/equaldotsize/L/2_Ratio_250_L_16_R_4.png","img/500/randomdotsizeEA/R/1_Ratio_500_L_9_R_18.png","img/900/equaldotsize/L/1_Ratio_900_L_10_R_9.png","img/750/equaldotsize/R/2_Ratio_750_L_6_R_8.png","img/750/equaldotsize/L/9_Ratio_750_L_4_R_3.png","img/900/randomdotsizeEA/R/7_Ratio_900_L_9_R_10.png","img/250/randomdotsizeEA/L/7_Ratio_250_L_8_R_2.png","img/750/equaldotanddens/R/4_Ratio_750_L_15_R_20.png","img/250/equaldotanddens/R/8_Ratio_250_L_1_R_4.png","img/900/randomdotsizeEA/L/10_Ratio_900_L_20_R_18.png","img/500/equaldotanddens/L/7_Ratio_500_L_10_R_5.png","img/500/equaldotsize/L/11_Ratio_500_L_12_R_6.png","img/750/randomdotsizeEA/R/11_Ratio_750_L_12_R_16.png","img/750/equaldotsize/R/2_Ratio_750_L_6_R_8.png","img/250/equaldotanddens/R/10_Ratio_250_L_4_R_16.png","img/750/equaldotsize/L/13_Ratio_750_L_8_R_6.png","img/250/equaldotanddens/L/15_Ratio_250_L_12_R_3.png","img/250/randomdotsizeEA/R/8_Ratio_250_L_1_R_4.png","img/900/equaldotanddens/R/3_Ratio_900_L_9_R_10.png","img/750/equaldotsize/R/2_Ratio_750_L_6_R_8.png","img/750/randomdotsizeEA/R/2_Ratio_750_L_6_R_8.png","img/250/equaldotanddens/L/2_Ratio_250_L_16_R_4.png","img/250/randomdotsizeEA/L/7_Ratio_250_L_8_R_2.png","img/750/equaldotsize/L/9_Ratio_750_L_4_R_3.png","img/900/equaldotsize/R/3_Ratio_900_L_9_R_10.png","img/500/randomdotsizeEA/R/9_Ratio_500_L_2_R_4.png","img/500/equaldotsize/L/10_Ratio_500_L_4_R_2.png","img/900/equaldotsize/L/1_Ratio_900_L_10_R_9.png","img/500/equaldotsize/R/9_Ratio_500_L_2_R_4.png","img/750/randomdotsizeEA/R/15_Ratio_750_L_9_R_12.png","img/750/equaldotsize/R/12_Ratio_750_L_3_R_4.png","img/250/equaldotanddens/L/14_Ratio_250_L_12_R_3.png","img/250/equaldotanddens/R/4_Ratio_250_L_3_R_12.png","img/900/randomdotsizeEA/R/6_Ratio_900_L_9_R_10.png","img/900/equaldotsize/L/4_Ratio_900_L_20_R_18.png","img/750/randomdotsizeEA/L/1_Ratio_750_L_20_R_15.png","img/900/randomdotsizeEA/L/1_Ratio_900_L_10_R_9.png","img/900/equaldotanddens/R/12_Ratio_900_L_18_R_20.png","img/500/equaldotsize/R/3_Ratio_500_L_10_R_20.png","img/900/equaldotsize/R/5_Ratio_900_L_9_R_10.png","img/500/randomdotsizeEA/L/11_Ratio_500_L_12_R_6.png","img/250/equaldotsize/R/9_Ratio_250_L_3_R_12.png","img/750/equaldotanddens/L/8_Ratio_750_L_4_R_3.png","img/900/equaldotanddens/L/8_Ratio_900_L_20_R_18.png","img/500/equaldotanddens/L/13_Ratio_500_L_12_R_6.png","img/750/equaldotanddens/L/1_Ratio_750_L_20_R_15.png","img/250/equaldotanddens/L/7_Ratio_250_L_8_R_2.png","img/500/randomdotsizeEA/L/13_Ratio_500_L_12_R_6.png","img/250/randomdotsizeEA/L/7_Ratio_250_L_8_R_2.png","img/500/equaldotanddens/R/6_Ratio_500_L_9_R_18.png","img/250/equaldotanddens/L/15_Ratio_250_L_12_R_3.png","img/750/equaldotsize/L/1_Ratio_750_L_20_R_15.png","img/900/randomdotsizeEA/R/15_Ratio_900_L_9_R_10.png","img/900/randomdotsizeEA/L/4_Ratio_900_L_20_R_18.png","img/250/equaldotsize/R/11_Ratio_250_L_3_R_12.png","img/900/equaldotanddens/L/10_Ratio_900_L_20_R_18.png","img/750/equaldotanddens/R/5_Ratio_750_L_15_R_20.png","img/500/equaldotanddens/R/15_Ratio_500_L_1_R_2.png","img/750/randomdotsizeEA/L/13_Ratio_750_L_8_R_6.png","img/900/equaldotanddens/L/8_Ratio_900_L_20_R_18.png","img/500/equaldotsize/L/13_Ratio_500_L_12_R_6.png","img/900/equaldotanddens/L/1_Ratio_900_L_10_R_9.png","img/250/equaldotanddens/R/12_Ratio_250_L_5_R_20.png","img/500/randomdotsizeEA/R/1_Ratio_500_L_9_R_18.png"],"Rat0":[["12_Ratio_0_L_9_R_0.png","13_Ratio_0_L_6_R_0.png","5_Ratio_0_L_2_R_0.png","6_Ratio_0_L_4_R_0.png","8_Ratio_0_L_6_R_0.png"],["1_Ratio_0_L_0_R_17.png","10_Ratio_0_L_0_R_22.png","11_Ratio_0_L_0_R_1.png","14_Ratio_0_L_0_R_24.png","15_Ratio_0_L_0_R_4.png","2_Ratio_0_L_0_R_5.png","3_Ratio_0_L_0_R_17.png","4_Ratio_0_L_0_R_7.png","7_Ratio_0_L_0_R_19.png","9_Ratio_0_L_0_R_15.png"]],"Rat250":[["1_Ratio_250_L_8_R_2.png","14_Ratio_250_L_12_R_3.png","15_Ratio_250_L_12_R_3.png","2_Ratio_250_L_16_R_4.png","3_Ratio_250_L_8_R_2.png","5_Ratio_250_L_24_R_6.png","7_Ratio_250_L_8_R_2.png"],["10_Ratio_250_L_4_R_16.png","11_Ratio_250_L_3_R_12.png","12_Ratio_250_L_5_R_20.png","13_Ratio_250_L_2_R_8.png","4_Ratio_250_L_3_R_12.png","6_Ratio_250_L_6_R_24.png","8_Ratio_250_L_1_R_4.png","9_Ratio_250_L_3_R_12.png"]],"Rat500":[["10_Ratio_500_L_4_R_2.png","11_Ratio_500_L_12_R_6.png","13_Ratio_500_L_12_R_6.png","4_Ratio_500_L_18_R_9.png","5_Ratio_500_L_4_R_2.png","7_Ratio_500_L_10_R_5.png","8_Ratio_500_L_8_R_4.png"],["1_Ratio_500_L_9_R_18.png","12_Ratio_500_L_1_R_2.png","14_Ratio_500_L_5_R_10.png","15_Ratio_500_L_1_R_2.png","2_Ratio_500_L_3_R_6.png","3_Ratio_500_L_10_R_20.png","6_Ratio_500_L_9_R_18.png","9_Ratio_500_L_2_R_4.png"]],"Rat750":[["1_Ratio_750_L_20_R_15.png","10_Ratio_750_L_4_R_3.png","13_Ratio_750_L_8_R_6.png","14_Ratio_750_L_8_R_6.png","6_Ratio_750_L_24_R_18.png","8_Ratio_750_L_4_R_3.png","9_Ratio_750_L_4_R_3.png"],["11_Ratio_750_L_12_R_16.png","12_Ratio_750_L_3_R_4.png","15_Ratio_750_L_9_R_12.png","2_Ratio_750_L_6_R_8.png","3_Ratio_750_L_15_R_20.png","4_Ratio_750_L_15_R_20.png","5_Ratio_750_L_15_R_20.png","7_Ratio_750_L_3_R_4.png"]],"Rat900":[["1_Ratio_900_L_10_R_9.png","10_Ratio_900_L_20_R_18.png","2_Ratio_900_L_20_R_18.png","4_Ratio_900_L_20_R_18.png","8_Ratio_900_L_20_R_18.png"],["11_Ratio_900_L_18_R_20.png","12_Ratio_900_L_18_R_20.png","13_Ratio_900_L_18_R_20.png","14_Ratio_900_L_18_R_20.png","15_Ratio_900_L_9_R_10.png","3_Ratio_900_L_9_R_10.png","5_Ratio_900_L_9_R_10.png","6_Ratio_900_L_9_R_10.png","7_Ratio_900_L_9_R_10.png","9_Ratio_900_L_18_R_20.png"]],"Rat1000":[["10_Ratio_1000_L_16_R_16.png","11_Ratio_1000_L_6_R_6.png","12_Ratio_1000_L_14_R_14.png","13_Ratio_1000_L_20_R_20.png","15_Ratio_1000_L_15_R_15.png","2_Ratio_1000_L_17_R_17.png","4_Ratio_1000_L_9_R_9.png","5_Ratio_1000_L_6_R_6.png","6_Ratio_1000_L_19_R_19.png","8_Ratio_1000_L_14_R_14.png","9_Ratio_1000_L_25_R_25.png"],["1_Ratio_1000_L_1_R_1.png","14_Ratio_1000_L_17_R_17.png","3_Ratio_1000_L_17_R_17.png","7_Ratio_1000_L_6_R_6.png"]]}},{"start_time":1551882826106,"click_time":1551882829189,"finger_time":1551882828649,"fix_duration":534.3554439432576,"trial":1,"RT":2543,"MT":540,"sideResp":1,"stimulus":"img/750/randomdotsizeEA/R/7_Ratio_750_L_3_R_4.png","xmouse":[796,796,796,796,796,796,796,796,796,796,796,796,796,796,796,796,796,796,796,796,796,796,796,796,796,796,796,796,796,796,796,796,796,796,796,796,796,796,796,796,796,796,796,796,796,796,796,796,796,796,796,796,796,796,796,796,796,796,796,796,796,796,796,796,796,796,796,796,796,796,796,796,796,796,796,796,796,796,796,796,796,796,796,796,796,796,796,796,796,796,796,796,796,796,796,796,796,796,796,796,796,796,796,796,796,796,796,796,796,796,796,796,796,796,796,796,796,796,796,796,796,796,796,796,796,795,795,794,790,789,787,786,778,770,762,752,743,730,717,689,623,546,331,289,271,269,269,269,273,279,284,329,370,421,466],"ymouse":[510,510,510,510,510,510,510,510,510,510,510,510,510,510,510,510,510,510,510,510,510,510,510,510,510,510,510,510,510,510,510,510,510,510,510,510,510,510,510,510,510,510,510,510,510,510,510,510,510,510,510,510,510,510,510,510,510,510,510,510,510,510,510,510,510,510,510,510,510,510,510,510,510,510,510,510,510,510,510,510,510,510,510,510,510,510,510,510,510,510,510,510,510,510,510,510,510,510,510,510,510,510,510,510,510,510,510,510,510,510,510,510,510,510,510,510,510,510,510,510,510,510,510,510,510,510,477,443,419,403,390,377,348,332,318,303,293,283,275,260,226,180,94,81,77,77,77,77,77,77,77,77,77,80,87],"timestamp_mouse":[9,23,51,63,82,102,123,143,163,182,204,222,242,263,282,303,324,343,364,382,403,423,443,462,484,504,522,542,563,582,604,623,644,663,683,704,723,743,763,782,804,822,842,863,882,903,924,942,963,983,1002,1023,1042,1064,1083,1102,1122,1144,1163,1184,1203,1223,1242,1262,1282,1304,1322,1343,1363,1382,1404,1424,1442,1463,1482,1502,1523,1542,1562,1582,1603,1622,1644,1662,1682,1703,1722,1743,1763,1783,1802,1822,1842,1862,1883,1902,1923,1943,1963,1983,2003,2023,2042,2062,2083,2102,2122,2142,2162,2182,2202,2223,2242,2262,2282,2302,2324,2342,2363,2382,2403,2422,2443,2462,2484,2502,2524,2542,2564,2583,2603,2623,2642,2662,2683,2703,2722,2742,2762,2782,2803,2823,2843,2862,2883,2902,2923,2942,2963,2982,3003,3023,3042,3062,3082],"xSR":741.5,"ySR":469.95,"xT1":424.9,"yT1":0,"xT2":1058.1,"yT2":0,"toosoon":0,"cond_shown":"randomdotsizeEA","ratio_trial":750,"smaller_num":"3","larger_num":"4","correct_side":2,"subjID":"MicaelaReyesPerez8","gender":"1","age":"11","school":"6"},{"start_time":1551882830959,"click_time":1551882833129,"finger_time":1551882832788,"fix_duration":250,"trial":2,"RT":1829,"MT":341,"sideResp":1,"stimulus":"img/250/equaldotsize/L/3_Ratio_250_L_8_R_2.png","xmouse":[768,768,768,768,768,768,768,768,768,768,768,768,768,768,768,768,768,768,768,768,768,768,768,768,768,768,768,768,768,768,768,768,768,768,768,768,768,768,768,768,768,768,768,768,768,768,768,768,768,768,768,768,768,768,768,768,768,768,768,768,768,768,768,768,768,768,768,768,768,768,768,768,768,768,769,769,769,769,769,770,770,770,770,770,770,770,770,770,771,767,751,730,711,699,686,680,668,659,648,630,622,615,611,608,587,566,530,513,506],"ymouse":[519,519,519,519,519,519,519,519,519,519,519,519,519,519,519,519,519,519,519,519,519,519,519,519,519,519,519,519,519,519,519,519,519,519,519,519,519,519,519,519,519,519,519,519,519,519,519,519,519,519,519,519,519,519,519,519,519,519,519,519,519,519,519,519,519,519,519,519,519,519,519,519,519,519,519,519,519,519,519,517,516,516,516,516,516,516,516,516,515,500,472,431,390,360,315,296,274,262,250,232,227,222,219,217,201,185,142,117,99],"timestamp_mouse":[12,40,50,70,90,110,129,150,170,191,209,229,250,271,290,311,331,349,370,391,410,429,449,470,490,509,531,550,570,590,610,629,651,670,691,710,729,751,769,789,811,829,850,869,890,909,929,950,969,989,1009,1031,1049,1069,1091,1111,1129,1150,1170,1190,1210,1231,1250,1270,1290,1309,1329,1350,1371,1390,1410,1431,1450,1470,1490,1509,1531,1549,1569,1590,1610,1629,1650,1669,1689,1710,1730,1750,1769,1789,1809,1829,1849,1869,1889,1910,1929,1949,1971,1990,2009,2029,2050,2069,2089,2110,2129,2149,2169],"xSR":741.5,"ySR":469.95,"xT1":424.9,"yT1":0,"xT2":1058.1,"yT2":0,"toosoon":0,"cond_shown":"equaldotsize","ratio_trial":250,"smaller_num":"2","larger_num":"8","correct_side":1,"subjID":"MicaelaReyesPerez8","gender":"1","age":"11","school":"6"},{"start_time":1551882834679,"click_time":1551882836589,"finger_time":1551882836149,"fix_duration":569.6203988717003,"trial":3,"RT":1470,"MT":440,"sideResp":1,"stimulus":"img/250/randomdotsizeEA/L/5_Ratio_250_L_24_R_6.png","xmouse":[838,838,838,838,838,838,838,838,838,838,838,838,838,838,838,838,838,838,838,838,838,838,838,838,838,838,838,838,838,838,838,838,838,838,838,838,838,838,838,838,838,838,838,838,838,838,838,838,838,838,838,838,838,838,838,838,838,838,838,838,838,838,838,838,838,838,838,838,836,819,805,788,770,737,719,705,691,675,654,645,638,630,623,613,585,569,557,549,539,525,518,513,510,507,506,505],"ymouse":[516,516,516,516,516,516,516,516,516,516,516,516,516,516,516,516,516,516,516,516,516,516,516,516,516,516,516,516,516,516,516,516,516,516,516,516,516,516,516,516,516,516,516,516,516,516,516,516,516,516,516,516,516,516,516,516,516,516,516,516,516,516,516,516,516,516,516,516,516,508,504,499,491,470,455,436,414,376,331,313,301,292,284,276,252,233,213,196,172,144,133,125,120,113,109,98],"timestamp_mouse":[9,40,49,69,89,109,130,149,170,190,210,229,251,270,291,310,330,349,370,391,409,429,450,470,489,510,531,551,571,590,610,630,649,669,690,710,729,749,770,790,809,830,850,870,889,910,930,949,970,990,1010,1030,1050,1071,1090,1111,1131,1150,1170,1190,1211,1231,1251,1270,1290,1309,1330,1350,1369,1390,1409,1430,1450,1470,1489,1509,1530,1551,1571,1589,1610,1630,1651,1669,1689,1709,1730,1749,1770,1789,1810,1829,1850,1871,1890,1910],"xSR":741.5,"ySR":469.95,"xT1":424.9,"yT1":0,"xT2":1058.1,"yT2":0,"toosoon":0,"cond_shown":"randomdotsizeEA","ratio_trial":250,"smaller_num":"6","larger_num":"24","correct_side":1,"subjID":"MicaelaReyesPerez8","gender":"1","age":"11","school":"6"},{"start_time":1551882838237,"click_time":1551882840368,"finger_time":1551882839348,"fix_duration":988.6502369046752,"trial":4,"RT":1111,"MT":1020,"sideResp":1,"stimulus":"img/900/randomdotsizeEA/R/5_Ratio_900_L_9_R_10.png","xmouse":[806,806,806,806,806,806,806,806,806,806,806,806,806,806,806,806,806,806,806,806,806,806,806,806,806,806,806,806,806,806,806,806,806,806,806,806,806,806,806,806,806,806,806,806,806,806,806,809,810,810,810,810,803,791,771,743,666,640,623,611,608,605,603,600,597,592,580,573,564,546,508,485,484,484,484,484,484,484,484,484,484,484,484,484,484,484,484,484,484,484,484,484,484,484,484,484,484,484,484,484,484,484,484,485,485,486,487],"ymouse":[543,543,543,543,543,543,543,543,543,543,543,543,543,543,543,543,543,543,543,543,543,543,543,543,543,543,543,543,543,543,543,543,543,543,543,543,543,543,543,543,543,543,543,543,543,543,543,543,536,533,530,521,511,495,472,435,346,310,285,260,253,241,235,225,211,193,161,149,140,133,124,115,114,114,114,114,114,114,114,114,114,114,114,113,111,110,108,108,108,107,107,106,105,104,104,104,104,104,104,104,103,103,103,102,102,101,96],"timestamp_mouse":[12,31,51,79,92,112,132,152,171,193,213,231,252,272,292,313,332,351,371,391,411,431,451,471,491,511,531,551,573,592,613,631,651,671,692,711,731,753,771,791,811,832,851,871,891,911,931,951,971,992,1012,1031,1051,1072,1093,1111,1131,1152,1171,1192,1212,1231,1251,1272,1291,1311,1331,1352,1372,1391,1411,1432,1454,1473,1492,1512,1531,1551,1571,1592,1612,1631,1652,1671,1692,1711,1731,1751,1771,1792,1811,1832,1852,1871,1891,1913,1932,1952,1971,1991,2011,2032,2053,2072,2092,2113,2131],"xSR":741.5,"ySR":469.95,"xT1":424.9,"yT1":0,"xT2":1058.1,"yT2":0,"toosoon":0,"cond_shown":"randomdotsizeEA","ratio_trial":900,"smaller_num":"9","larger_num":"10","correct_side":2,"subjID":"MicaelaReyesPerez8","gender":"1","age":"11","school":"6"},{"start_time":1551882842511,"click_time":1551882843629,"finger_time":1551882843488,"fix_duration":1142.7127792494691,"trial":5,"RT":977,"MT":141,"sideResp":1,"stimulus":"img/900/equaldotanddens/L/8_Ratio_900_L_20_R_18.png","xmouse":[820,820,820,820,820,820,820,820,820,820,820,820,820,820,820,820,820,820,820,820,820,820,820,820,820,820,820,820,820,820,820,820,820,820,820,820,820,821,823,823,823,823,823,823,823,823,823,823,812,795,765,729,683,566,537,519],"ymouse":[545,545,545,545,545,545,545,545,545,545,545,545,545,545,545,545,545,545,545,545,545,545,545,545,545,545,545,545,545,545,545,545,545,545,545,542,540,532,528,524,524,522,522,521,521,519,516,493,469,433,378,319,251,82,43,23],"timestamp_mouse":[19,38,57,78,98,118,138,158,178,199,217,237,257,277,298,317,338,357,378,397,418,438,458,478,497,519,538,558,578,597,618,639,657,677,698,719,738,757,777,798,817,838,859,878,897,919,938,958,977,997,1017,1038,1057,1077,1097,1118],"xSR":741.5,"ySR":469.95,"xT1":424.9,"yT1":0,"xT2":1058.1,"yT2":0,"toosoon":0,"cond_shown":"equaldotanddens","ratio_trial":900,"smaller_num":"18","larger_num":"20","correct_side":1,"subjID":"MicaelaReyesPerez8","gender":"1","age":"11","school":"6"},{"start_time":1551882845019,"click_time":1551882846770,"finger_time":1551882846369,"fix_duration":467.1126259692926,"trial":6,"RT":1350,"MT":401,"sideResp":1,"stimulus":"img/500/randomdotsizeEA/L/8_Ratio_500_L_8_R_4.png","xmouse":[769,769,769,770,770,771,771,771,771,771,771,771,771,771,771,771,771,771,771,771,771,771,771,771,771,771,771,771,771,771,772,772,772,773,775,776,776,777,777,777,777,777,777,777,777,777,777,777,777,777,777,777,777,777,777,777,778,778,779,779,779,780,780,781,779,769,758,728,672,653,638,628,623,616,612,607,599,590,583,582,580,577,575,565,560,554,545,514],"ymouse":[540,540,540,541,541,543,543,543,543,543,543,543,543,543,543,543,543,543,543,543,543,543,543,543,543,543,543,543,543,543,543,543,543,543,543,543,542,542,541,541,541,541,541,541,541,541,541,541,541,541,541,541,541,541,541,541,541,541,540,539,538,535,532,518,508,490,470,395,268,230,197,179,167,157,152,148,141,133,129,128,128,127,127,125,124,123,117,97],"timestamp_mouse":[9,35,49,70,89,110,131,149,170,189,211,229,251,270,290,310,330,351,369,389,409,429,449,470,489,509,530,549,569,591,609,629,649,669,689,710,730,751,770,789,811,829,851,869,889,909,929,949,970,990,1009,1029,1050,1069,1089,1109,1130,1150,1170,1189,1209,1229,1249,1269,1289,1310,1329,1350,1370,1389,1409,1429,1450,1469,1490,1510,1529,1550,1570,1590,1609,1629,1650,1669,1689,1709,1731,1751],"xSR":741.5,"ySR":469.95,"xT1":424.9,"yT1":0,"xT2":1058.1,"yT2":0,"toosoon":0,"cond_shown":"randomdotsizeEA","ratio_trial":500,"smaller_num":"4","larger_num":"8","correct_side":1,"subjID":"MicaelaReyesPerez8","gender":"1","age":"11","school":"6"},{"start_time":1551882848240,"click_time":1551882849649,"finger_time":1551882848928,"fix_duration":649.6159823544809,"trial":7,"RT":688,"MT":721,"sideResp":2,"stimulus":"img/500/equaldotsize/R/3_Ratio_500_L_10_R_20.png","xmouse":[813,813,813,813,813,813,813,813,813,813,813,813,813,813,813,813,813,813,813,813,813,813,813,813,813,813,813,813,813,813,813,813,819,839,850,861,874,874,871,870,869,869,875,879,881,886,889,911,928,945,960,967,973,979,981,991,998,1013,1017,1021,1026,1029,1037,1040,1043,1044,1044,1047,1049,1054,1059],"ymouse":[552,552,552,552,552,552,552,552,552,552,552,552,552,552,552,552,552,552,552,552,552,552,552,552,552,552,552,552,552,552,552,552,535,491,460,421,365,309,292,283,276,270,255,246,244,236,231,217,206,196,186,178,160,149,144,127,118,100,93,89,84,81,77,75,74,73,73,71,70,67,64],"timestamp_mouse":[10,35,48,69,89,109,128,149,168,189,208,228,249,269,290,309,328,349,370,388,408,429,448,469,488,508,528,548,568,588,610,629,648,670,688,708,729,749,768,788,809,828,848,868,888,910,928,949,968,989,1008,1029,1048,1068,1089,1108,1128,1148,1168,1188,1208,1229,1248,1269,1288,1308,1328,1349,1368,1388,1409],"xSR":741.5,"ySR":469.95,"xT1":424.9,"yT1":0,"xT2":1058.1,"yT2":0,"toosoon":0,"cond_shown":"equaldotsize","ratio_trial":500,"smaller_num":"10","larger_num":"20","correct_side":2,"subjID":"MicaelaReyesPerez8","gender":"1","age":"11","school":"6"},{"start_time":1551882863620,"click_time":1551882865128,"finger_time":1551882864348,"fix_duration":1008.323291389561,"trial":8,"RT":728,"MT":780,"sideResp":1,"stimulus":"img/250/equaldotsize/L/3_Ratio_250_L_8_R_2.png","xmouse":[813,813,813,813,813,813,813,813,813,813,813,813,813,813,813,813,813,813,813,813,813,813,813,813,813,813,813,813,813,813,813,813,813,813,812,783,765,738,720,703,665,642,616,587,549,493,486,486,486,486,486,485,482,479,475,471,470,468,468,468,468,468,468,468,469,471,471,471,471,471,471,471,471,471,471,475],"ymouse":[545,545,545,545,545,545,545,545,545,545,545,545,545,545,545,545,545,545,545,545,545,545,545,545,545,545,545,545,545,545,545,545,543,538,524,485,466,438,417,397,348,316,284,261,238,217,215,215,215,215,215,212,203,191,181,162,153,146,143,141,137,136,134,131,126,120,119,119,118,118,118,118,116,114,109,93],"timestamp_mouse":[10,39,48,68,89,108,128,150,168,190,208,228,249,268,288,309,329,349,368,388,408,430,448,468,488,508,528,550,569,588,608,628,649,669,688,708,728,748,768,788,808,828,849,869,889,908,928,949,970,989,1009,1028,1048,1070,1090,1108,1128,1148,1168,1189,1210,1228,1249,1268,1289,1308,1329,1348,1368,1389,1409,1429,1449,1468,1490,1508],"xSR":741.5,"ySR":469.95,"xT1":424.9,"yT1":0,"xT2":1058.1,"yT2":0,"toosoon":0,"cond_shown":"equaldotsize","ratio_trial":250,"smaller_num":"2","larger_num":"8","correct_side":1,"subjID":"MicaelaReyesPerez8","gender":"1","age":"11","school":"6"},{"start_time":1551882868088,"click_time":1551882869068,"finger_time":1551882868768,"fix_duration":298.55030757758215,"trial":9,"RT":680,"MT":300,"sideResp":2,"stimulus":"img/500/equaldotsize/R/3_Ratio_500_L_10_R_20.png","xmouse":[752,752,752,752,752,752,752,752,752,752,752,752,752,752,752,752,752,752,752,752,752,752,752,752,752,752,752,752,752,752,752,754,767,785,807,819,833,892,915,928,939,948,957,967,976,988,1004,1037,1053,1065],"ymouse":[524,524,524,524,524,524,524,524,524,524,524,524,524,524,524,524,524,524,524,524,524,524,524,524,524,524,524,524,524,524,524,523,502,479,450,435,413,328,298,278,259,242,219,199,180,163,141,100,85,75],"timestamp_mouse":[9,22,42,61,81,102,120,141,160,180,201,222,240,261,282,301,321,340,361,382,401,420,440,462,481,501,522,540,561,581,601,620,641,660,680,701,720,740,760,780,800,820,841,860,880,901,921,941,960,980],"xSR":741.5,"ySR":469.95,"xT1":424.9,"yT1":0,"xT2":1058.1,"yT2":0,"toosoon":0,"cond_shown":"equaldotsize","ratio_trial":500,"smaller_num":"10","larger_num":"20","correct_side":2,"subjID":"MicaelaReyesPerez8","gender":"1","age":"11","school":"6"},{"start_time":1551882870745,"click_time":1551882871848,"finger_time":1551882871448,"fix_duration":715.4591403190038,"trial":10,"RT":703,"MT":400,"sideResp":1,"stimulus":"img/500/equaldotanddens/L/11_Ratio_500_L_12_R_6.png","xmouse":[780,780,780,780,780,780,780,780,780,780,780,780,780,780,780,780,780,780,780,780,780,780,780,780,780,780,780,780,780,780,780,780,780,780,771,758,748,728,706,652,634,610,582,564,564,564,564,564,564,564,564,564,564,564,564,498],"ymouse":[516,516,516,516,516,516,516,516,516,516,516,516,516,516,516,516,516,516,516,516,516,516,516,516,516,516,516,516,516,516,516,516,516,516,476,418,347,277,225,144,116,81,44,22,22,22,22,22,22,22,22,22,22,22,22,14],"timestamp_mouse":[6,23,44,65,84,104,123,144,164,183,203,224,244,264,283,303,324,343,363,384,404,424,443,465,484,503,524,543,565,584,604,624,645,663,684,703,724,743,764,785,804,823,844,865,885,905,924,943,964,984,1004,1024,1045,1063,1084,1103],"xSR":741.5,"ySR":469.95,"xT1":424.9,"yT1":0,"xT2":1058.1,"yT2":0,"toosoon":0,"cond_shown":"equaldotanddens","ratio_trial":500,"smaller_num":"6","larger_num":"12","correct_side":1,"subjID":"MicaelaReyesPerez8","gender":"1","age":"11","school":"6"},{"start_time":1551882874147,"click_time":1551882875029,"finger_time":1551882874848,"fix_duration":1417.5692300984297,"trial":11,"RT":701,"MT":181,"sideResp":1,"stimulus":"img/500/randomdotsizeEA/R/2_Ratio_500_L_3_R_6.png","xmouse":[809,809,809,809,809,809,809,807,804,798,788,786,785,785,785,785,785,785,785,785,785,785,785,785,785,785,785,785,785,785,785,785,785,782,776,744,718,695,661,635,588,572,556,540,523],"ymouse":[523,523,523,523,523,523,523,521,519,516,510,508,507,507,507,507,507,507,507,507,507,507,507,507,507,507,507,507,507,507,507,507,507,504,497,445,409,367,285,221,134,113,94,76,63],"timestamp_mouse":[9,22,42,63,83,102,123,141,162,181,201,221,241,261,282,301,321,341,363,383,401,421,441,461,482,501,521,541,561,582,603,621,641,661,681,701,722,741,761,782,802,821,842,861,882],"xSR":741.5,"ySR":469.95,"xT1":424.9,"yT1":0,"xT2":1058.1,"yT2":0,"toosoon":0,"cond_shown":"randomdotsizeEA","ratio_trial":500,"smaller_num":"3","larger_num":"6","correct_side":2,"subjID":"MicaelaReyesPerez8","gender":"1","age":"11","school":"6"},{"start_time":1551882876426,"click_time":1551882877488,"finger_time":1551882877048,"fix_duration":635.2701016861296,"trial":12,"RT":622,"MT":440,"sideResp":1,"stimulus":"img/500/equaldotanddens/L/5_Ratio_500_L_4_R_2.png","xmouse":[761,761,761,761,761,761,761,761,761,761,761,761,761,761,761,761,761,761,761,761,761,761,761,761,762,762,763,763,763,763,764,764,764,758,742,725,680,662,648,639,639,639,639,639,639,639,639,639,639,639,639,639,639,485],"ymouse":[485,485,485,485,485,485,485,485,485,485,485,485,485,485,485,485,485,485,485,485,485,485,485,485,484,484,483,483,479,477,471,425,311,236,176,131,54,27,12,4,4,4,4,4,4,4,4,4,4,4,4,4,4,62],"timestamp_mouse":[11,22,43,62,82,102,122,143,162,183,203,223,244,262,282,302,322,342,362,382,403,423,442,462,482,502,522,542,563,583,602,622,643,662,682,702,722,742,763,783,802,822,842,862,882,904,922,942,963,982,1002,1023,1043,1062],"xSR":741.5,"ySR":469.95,"xT1":424.9,"yT1":0,"xT2":1058.1,"yT2":0,"toosoon":0,"cond_shown":"equaldotanddens","ratio_trial":500,"smaller_num":"2","larger_num":"4","correct_side":1,"subjID":"MicaelaReyesPerez8","gender":"1","age":"11","school":"6"},{"start_time":1551882879514,"click_time":1551882880248,"finger_time":1551882880149,"fix_duration":1004.7178056483407,"trial":13,"RT":635,"MT":99,"sideResp":2,"stimulus":"img/900/equaldotanddens/R/3_Ratio_900_L_9_R_10.png","xmouse":[816,816,816,816,816,816,816,816,816,816,816,816,816,816,816,816,816,816,816,816,816,816,816,816,816,816,816,816,816,816,818,852,891,940,993,1046,1090],"ymouse":[499,499,499,499,499,499,499,499,499,499,499,499,499,499,499,499,499,499,499,499,499,499,499,499,499,499,499,499,499,499,494,454,399,323,235,134,18],"timestamp_mouse":[15,35,54,76,95,114,134,154,174,194,214,235,254,274,294,314,336,355,374,394,415,435,454,474,494,514,534,556,575,595,614,635,654,674,695,715,734],"xSR":741.5,"ySR":469.95,"xT1":424.9,"yT1":0,"xT2":1058.1,"yT2":0,"toosoon":0,"cond_shown":"equaldotanddens","ratio_trial":900,"smaller_num":"9","larger_num":"10","correct_side":2,"subjID":"MicaelaReyesPerez8","gender":"1","age":"11","school":"6"},{"start_time":1551882881774,"click_time":1551882882708,"finger_time":1551882882428,"fix_duration":604.5010016923192,"trial":14,"RT":654,"MT":280,"sideResp":1,"stimulus":"img/500/equaldotsize/L/4_Ratio_500_L_18_R_9.png","xmouse":[783,783,783,783,783,783,783,783,783,783,783,783,783,783,783,783,783,783,783,783,783,783,783,783,783,783,783,783,783,782,782,781,766,739,640,640,640,640,640,640,640,640,640,640,640,640,515],"ymouse":[527,527,527,527,527,527,527,527,527,527,527,527,527,527,527,527,527,527,527,527,527,527,527,527,527,527,527,527,527,524,513,494,438,340,55,55,55,55,55,55,55,55,55,55,55,55,20],"timestamp_mouse":[14,42,56,74,94,114,135,154,176,196,214,234,255,275,296,314,334,354,375,395,414,434,454,474,495,514,535,555,574,594,615,635,654,675,695,714,735,755,775,795,814,835,854,874,894,914,934],"xSR":741.5,"ySR":469.95,"xT1":424.9,"yT1":0,"xT2":1058.1,"yT2":0,"toosoon":0,"cond_shown":"equaldotsize","ratio_trial":500,"smaller_num":"9","larger_num":"18","correct_side":1,"subjID":"MicaelaReyesPerez8","gender":"1","age":"11","school":"6"},{"start_time":1551882884325,"click_time":1551882884929,"finger_time":1551882884789,"fix_duration":755.7088672187167,"trial":15,"RT":464,"MT":140,"sideResp":2,"stimulus":"img/500/equaldotsize/R/1_Ratio_500_L_9_R_18.png","xmouse":[784,784,785,786,787,787,788,789,789,791,792,793,794,796,796,797,797,798,798,799,800,804,832,896,949,996,1041,1100,1115,1125,1130],"ymouse":[513,513,513,513,513,513,513,513,513,512,512,512,512,512,512,512,512,512,512,512,511,510,498,458,415,360,300,187,145,112,92],"timestamp_mouse":[4,23,44,63,83,104,125,144,163,184,203,223,243,264,283,303,323,344,363,384,404,423,443,464,483,504,524,544,563,583,604],"xSR":741.5,"ySR":469.95,"xT1":424.9,"yT1":0,"xT2":1058.1,"yT2":0,"toosoon":0,"cond_shown":"equaldotsize","ratio_trial":500,"smaller_num":"9","larger_num":"18","correct_side":2,"subjID":"MicaelaReyesPerez8","gender":"1","age":"11","school":"6"},{"start_time":1551882886403,"click_time":1551882887448,"finger_time":1551882887088,"fix_duration":413.15578761292903,"trial":16,"RT":685,"MT":360,"sideResp":1,"stimulus":"img/900/equaldotanddens/R/14_Ratio_900_L_18_R_20.png","xmouse":[762,761,761,761,761,761,761,761,761,761,761,761,761,761,761,761,761,761,761,761,761,761,761,761,761,761,761,761,761,761,761,761,758,756,734,711,685,654,612,604,599,595,593,588,585,583,579,571,547,532,527,525,520],"ymouse":[518,518,518,518,518,518,518,518,518,518,518,518,518,518,518,518,518,518,518,518,518,518,518,518,518,518,518,518,518,518,518,518,503,492,423,365,300,249,182,168,159,153,149,141,138,135,130,122,105,95,91,89,86],"timestamp_mouse":[5,26,50,66,87,105,125,146,166,185,205,226,246,265,285,306,325,346,365,385,406,426,446,466,485,505,527,547,566,585,605,625,645,665,685,706,725,746,766,786,805,825,846,867,885,905,926,945,966,985,1005,1025,1045],"xSR":741.5,"ySR":469.95,"xT1":424.9,"yT1":0,"xT2":1058.1,"yT2":0,"toosoon":0,"cond_shown":"equaldotanddens","ratio_trial":900,"smaller_num":"18","larger_num":"20","correct_side":2,"subjID":"MicaelaReyesPerez8","gender":"1","age":"11","school":"6"},{"start_time":1551882889808,"click_time":1551882890988,"finger_time":1551882890428,"fix_duration":1359.4276037555771,"trial":17,"RT":620,"MT":560,"sideResp":2,"stimulus":"img/750/equaldotanddens/R/2_Ratio_750_L_6_R_8.png","xmouse":[801,802,802,802,802,803,803,803,804,804,804,804,804,804,804,805,805,805,805,805,805,805,805,805,805,805,805,805,807,813,824,839,869,899,955,971,978,980,982,985,986,988,989,991,992,994,996,1003,1009,1016,1018,1022,1024,1027,1030,1032,1034,1041,1049,1078],"ymouse":[499,500,502,502,502,504,504,504,505,505,505,505,505,506,506,506,506,506,506,506,506,506,506,506,506,506,506,506,506,503,489,463,410,348,225,186,161,145,128,112,104,96,91,88,87,85,85,82,80,77,76,75,74,74,72,72,71,69,67,61],"timestamp_mouse":[4,20,40,61,81,101,122,140,161,180,201,220,240,261,280,301,320,342,360,380,401,422,441,460,481,500,522,541,560,580,600,620,641,661,680,700,721,741,761,781,800,820,840,860,880,901,921,940,962,981,1000,1021,1042,1060,1080,1101,1120,1140,1161,1180],"xSR":741.5,"ySR":469.95,"xT1":424.9,"yT1":0,"xT2":1058.1,"yT2":0,"toosoon":0,"cond_shown":"equaldotanddens","ratio_trial":750,"smaller_num":"6","larger_num":"8","correct_side":2,"subjID":"MicaelaReyesPerez8","gender":"1","age":"11","school":"6"},{"start_time":1551882912455,"click_time":1551882913389,"finger_time":1551882913188,"fix_duration":366.41899871030057,"trial":18,"RT":733,"MT":201,"sideResp":2,"stimulus":"img/250/equaldotsize/R/11_Ratio_250_L_3_R_12.png","xmouse":[830,830,830,830,830,830,830,830,830,830,830,830,830,830,830,830,830,830,830,830,830,830,830,830,830,830,830,830,830,830,830,830,830,830,830,829,852,891,977,1025,1058,1078,1094,1096,1102,1106,1114],"ymouse":[529,529,529,529,529,529,529,529,529,529,529,529,529,529,529,529,529,529,529,529,529,529,529,529,529,529,529,529,529,529,529,529,529,529,529,527,500,456,341,272,209,161,125,119,109,105,99],"timestamp_mouse":[13,34,54,74,93,114,134,153,173,194,214,233,254,273,293,313,333,353,374,394,414,434,453,473,494,513,533,554,573,594,614,633,653,672,693,713,733,753,773,793,813,833,854,873,893,913,933],"xSR":741.5,"ySR":469.95,"xT1":424.9,"yT1":0,"xT2":1058.1,"yT2":0,"toosoon":0,"cond_shown":"equaldotsize","ratio_trial":250,"smaller_num":"3","larger_num":"12","correct_side":2,"subjID":"MicaelaReyesPerez8","gender":"1","age":"11","school":"6"},{"start_time":1551882915372,"click_time":1551882916509,"finger_time":1551882916268,"fix_duration":861.5241536271091,"trial":19,"RT":896,"MT":241,"sideResp":2,"stimulus":"img/500/randomdotsizeEA/R/12_Ratio_500_L_1_R_2.png","xmouse":[832,832,832,832,832,832,832,832,832,832,832,832,832,832,832,832,832,832,832,832,832,832,832,832,832,832,832,832,832,832,832,832,832,832,832,832,832,832,832,832,832,832,832,834,840,851,886,920,995,1023,1036,1044,1050,1060,1067,1069,1079],"ymouse":[521,521,521,521,521,521,521,521,521,521,521,521,521,521,521,521,521,521,521,521,521,521,521,521,521,521,521,521,521,521,521,521,521,521,521,521,521,521,521,521,521,521,520,500,466,430,365,316,209,170,149,136,127,116,107,103,91],"timestamp_mouse":[16,37,56,77,96,116,136,156,176,197,216,236,257,277,296,316,337,357,376,396,415,436,457,476,497,515,537,557,576,597,617,637,656,676,697,716,736,756,777,798,817,837,856,876,896,917,937,956,976,996,1016,1036,1057,1076,1096,1116,1137],"xSR":741.5,"ySR":469.95,"xT1":424.9,"yT1":0,"xT2":1058.1,"yT2":0,"toosoon":0,"cond_shown":"randomdotsizeEA","ratio_trial":500,"smaller_num":"1","larger_num":"2","correct_side":2,"subjID":"MicaelaReyesPerez8","gender":"1","age":"11","school":"6"},{"start_time":1551882919547,"click_time":1551882920588,"finger_time":1551882920248,"fix_duration":678.8672757951703,"trial":20,"RT":701,"MT":340,"sideResp":2,"stimulus":"img/750/equaldotanddens/R/12_Ratio_750_L_3_R_4.png","xmouse":[781,781,782,783,784,784,785,786,786,786,786,786,786,786,786,786,787,787,787,787,787,787,787,787,787,787,787,787,787,787,787,788,792,801,814,862,910,942,967,986,1005,1011,1015,1018,1020,1022,1031,1034,1037,1039,1045,1053,1069],"ymouse":[565,564,561,558,556,551,546,545,543,542,542,542,542,542,542,542,541,541,541,541,541,541,541,541,541,541,541,541,541,541,541,539,532,517,494,397,281,205,146,105,67,58,52,49,47,46,41,41,41,40,40,40,47],"timestamp_mouse":[8,21,47,62,81,101,122,141,161,181,202,221,241,262,281,302,321,342,361,382,402,422,441,462,481,501,521,541,561,582,601,621,642,661,681,701,722,741,761,782,801,821,841,862,881,901,922,941,962,981,1001,1021,1041],"xSR":741.5,"ySR":469.95,"xT1":424.9,"yT1":0,"xT2":1058.1,"yT2":0,"toosoon":0,"cond_shown":"equaldotanddens","ratio_trial":750,"smaller_num":"3","larger_num":"4","correct_side":2,"subjID":"MicaelaReyesPerez8","gender":"1","age":"11","school":"6"},{"start_time":1551882921745,"click_time":1551882922609,"finger_time":1551882922308,"fix_duration":636.2501374108426,"trial":21,"RT":563,"MT":301,"sideResp":2,"stimulus":"img/500/equaldotanddens/R/14_Ratio_500_L_5_R_10.png","xmouse":[754,754,754,754,754,754,754,754,754,754,754,754,754,754,754,754,754,754,754,754,754,755,755,755,756,757,786,824,870,912,1074,1175,1249,1287,1297,1295,1288,1281,1280,1279,1265,1242,1210,1156],"ymouse":[511,511,511,511,511,511,511,511,511,511,511,511,511,511,511,511,511,511,511,511,511,511,511,511,511,510,495,475,447,414,292,220,167,132,114,90,83,79,78,78,77,77,81,81],"timestamp_mouse":[9,35,42,63,83,103,124,143,164,183,203,223,244,263,284,303,323,343,363,383,403,423,443,463,483,503,523,543,563,583,604,623,644,664,684,704,723,743,764,783,803,823,842,864],"xSR":741.5,"ySR":469.95,"xT1":424.9,"yT1":0,"xT2":1058.1,"yT2":0,"toosoon":0,"cond_shown":"equaldotanddens","ratio_trial":500,"smaller_num":"5","larger_num":"10","correct_side":2,"subjID":"MicaelaReyesPerez8","gender":"1","age":"11","school":"6"},{"start_time":1551882924840,"click_time":1551882925828,"finger_time":1551882925488,"fix_duration":1330.3113342544927,"trial":22,"RT":648,"MT":340,"sideResp":1,"stimulus":"img/750/equaldotanddens/L/14_Ratio_750_L_8_R_6.png","xmouse":[830,827,823,818,813,808,800,799,799,799,799,799,799,799,799,799,799,799,799,799,799,799,799,799,799,799,799,799,799,799,796,778,747,713,673,629,582,568,551,541,532,513,502,494,489,488,486,486,486,486],"ymouse":[515,518,522,526,530,535,541,542,542,542,542,542,542,542,542,542,542,542,542,542,542,542,542,542,542,542,542,542,542,542,540,502,456,398,349,298,242,227,206,195,186,165,155,148,143,141,136,126,108,76],"timestamp_mouse":[9,36,48,68,88,108,128,149,168,189,207,229,248,268,289,308,328,348,369,388,408,428,449,468,489,509,528,549,568,588,608,628,648,668,689,709,728,748,768,789,808,828,848,868,888,908,927,949,968,988],"xSR":741.5,"ySR":469.95,"xT1":424.9,"yT1":0,"xT2":1058.1,"yT2":0,"toosoon":0,"cond_shown":"equaldotanddens","ratio_trial":750,"smaller_num":"6","larger_num":"8","correct_side":1,"subjID":"MicaelaReyesPerez8","gender":"1","age":"11","school":"6"},{"start_time":1551882928708,"click_time":1551882929970,"finger_time":1551882929649,"fix_duration":637.3695506314399,"trial":23,"RT":941,"MT":321,"sideResp":2,"stimulus":"img/250/randomdotsizeEA/R/4_Ratio_250_L_3_R_12.png","xmouse":[818,818,819,820,820,820,820,820,820,820,820,820,820,820,820,820,820,820,820,820,820,820,820,820,820,820,820,820,820,820,820,820,820,820,820,820,820,820,820,820,820,820,820,820,820,821,828,844,868,948,973,990,998,1005,1008,1011,1016,1021,1037,1044,1049,1051,1054,1062],"ymouse":[498,496,495,495,494,494,494,494,494,494,494,494,494,494,494,494,494,494,494,494,494,494,494,494,494,494,494,494,494,494,494,494,494,494,494,494,494,494,494,494,494,494,494,494,494,494,488,475,453,350,303,263,226,176,155,145,134,125,100,89,81,77,74,67],"timestamp_mouse":[1,21,40,60,80,101,120,140,160,181,200,220,240,260,280,301,321,341,360,381,399,420,441,460,480,500,519,540,560,581,601,620,640,660,681,700,721,740,760,780,800,820,841,859,880,900,921,941,960,980,1000,1020,1040,1060,1080,1100,1120,1141,1160,1180,1200,1221,1239,1261],"xSR":741.5,"ySR":469.95,"xT1":424.9,"yT1":0,"xT2":1058.1,"yT2":0,"toosoon":0,"cond_shown":"randomdotsizeEA","ratio_trial":250,"smaller_num":"3","larger_num":"12","correct_side":2,"subjID":"MicaelaReyesPerez8","gender":"1","age":"11","school":"6"},{"start_time":1551882932124,"click_time":1551882933168,"finger_time":1551882932788,"fix_duration":1454.052824244527,"trial":24,"RT":664,"MT":380,"sideResp":2,"stimulus":"img/750/equaldotsize/R/4_Ratio_750_L_15_R_20.png","xmouse":[801,801,801,801,801,801,801,801,801,801,801,801,801,801,801,801,801,801,801,801,801,801,801,801,801,801,801,801,801,801,801,801,804,851,889,933,961,977,991,993,994,995,1000,1003,1007,1010,1014,1017,1029,1042,1055,1070,1090],"ymouse":[534,534,534,534,534,534,534,534,534,534,534,534,534,534,534,534,534,534,534,534,534,534,534,534,534,534,534,534,534,534,534,533,526,455,386,314,264,235,208,204,203,201,194,188,183,179,175,170,157,146,130,115,82],"timestamp_mouse":[11,37,45,63,84,104,124,145,164,184,205,225,244,265,285,305,325,345,365,384,404,424,445,463,484,505,525,545,565,584,604,624,645,664,684,704,724,744,764,784,804,825,845,864,884,905,924,944,964,984,1004,1025,1044],"xSR":741.5,"ySR":469.95,"xT1":424.9,"yT1":0,"xT2":1058.1,"yT2":0,"toosoon":0,"cond_shown":"equaldotsize","ratio_trial":750,"smaller_num":"15","larger_num":"20","correct_side":2,"subjID":"MicaelaReyesPerez8","gender":"1","age":"11","school":"6"},{"start_time":1551882935221,"click_time":1551882936528,"finger_time":1551882935928,"fix_duration":1151.6971553547342,"trial":25,"RT":707,"MT":600,"sideResp":1,"stimulus":"img/750/randomdotsizeEA/L/13_Ratio_750_L_8_R_6.png","xmouse":[818,818,818,818,818,818,818,818,818,818,818,818,818,818,818,818,818,818,818,818,818,818,818,818,818,818,818,818,818,818,818,818,818,818,818,817,817,817,787,756,734,722,716,716,716,716,716,716,716,716,602,598,590,579,577,576,576,576,576,576,576,572,562,530,526,515],"ymouse":[517,517,516,513,510,507,504,502,497,497,497,497,497,497,497,497,497,497,497,497,497,497,497,497,497,497,497,497,497,497,497,497,497,495,484,466,444,405,186,94,42,14,4,4,4,4,4,4,4,4,9,28,48,82,89,90,90,90,90,90,90,90,85,65,63,53],"timestamp_mouse":[8,26,47,67,87,107,127,148,166,187,208,228,248,268,287,307,327,347,367,388,407,427,447,468,486,507,528,547,568,587,608,628,647,667,687,707,727,747,768,787,807,827,848,867,888,907,928,947,968,987,1008,1027,1047,1068,1087,1107,1128,1146,1167,1188,1207,1228,1248,1268,1287,1307],"xSR":741.5,"ySR":469.95,"xT1":424.9,"yT1":0,"xT2":1058.1,"yT2":0,"toosoon":0,"cond_shown":"randomdotsizeEA","ratio_trial":750,"smaller_num":"6","larger_num":"8","correct_side":1,"subjID":"MicaelaReyesPerez8","gender":"1","age":"11","school":"6"},{"start_time":1551882938586,"click_time":1551882939708,"finger_time":1551882939328,"fix_duration":1197.9984535091075,"trial":26,"RT":742,"MT":380,"sideResp":1,"stimulus":"img/500/equaldotsize/L/7_Ratio_500_L_10_R_5.png","xmouse":[765,765,765,765,765,765,765,765,765,765,765,765,765,765,765,765,765,765,765,765,765,765,765,765,765,765,765,765,765,765,765,765,765,765,765,757,752,745,733,721,666,636,606,588,580,578,578,578,577,577,577,577,574,568,559,536,522],"ymouse":[517,517,517,517,517,517,517,517,517,517,517,517,517,517,517,517,517,517,517,517,517,517,517,517,517,517,517,517,517,517,517,517,517,517,513,489,478,460,434,395,298,242,198,168,154,146,144,139,132,125,117,113,107,99,87,58,43],"timestamp_mouse":[9,37,43,62,83,102,123,142,162,183,202,223,242,262,283,302,322,342,362,383,403,423,441,462,482,502,522,543,562,582,603,623,642,662,683,703,723,742,763,783,803,822,842,863,883,903,922,942,962,983,1003,1022,1042,1062,1082,1103,1121],"xSR":741.5,"ySR":469.95,"xT1":424.9,"yT1":0,"xT2":1058.1,"yT2":0,"toosoon":0,"cond_shown":"equaldotsize","ratio_trial":500,"smaller_num":"5","larger_num":"10","correct_side":1,"subjID":"MicaelaReyesPerez8","gender":"1","age":"11","school":"6"},{"start_time":1551882941814,"click_time":1551882943008,"finger_time":1551882942608,"fix_duration":1263.0282413167254,"trial":27,"RT":794,"MT":400,"sideResp":1,"stimulus":"img/250/randomdotsizeEA/L/1_Ratio_250_L_8_R_2.png","xmouse":[769,769,769,769,769,769,769,769,769,769,769,769,769,769,769,769,769,769,769,769,769,769,769,769,769,769,769,769,769,769,769,769,769,769,769,769,769,769,766,750,722,667,545,462,392,389,389,389,389,389,389,389,383,370,359,359,361,372,394,477],"ymouse":[521,521,521,521,521,521,521,521,521,521,521,521,521,521,521,521,521,521,521,521,521,521,521,521,521,521,521,521,521,521,521,521,521,521,521,516,511,506,495,460,429,374,269,200,142,138,138,138,138,138,138,138,131,113,90,88,86,86,86,93],"timestamp_mouse":[15,40,55,74,95,113,135,155,175,194,214,234,255,275,294,314,334,355,374,394,414,435,455,474,494,514,534,554,575,594,615,634,654,674,694,714,735,754,774,794,814,834,854,874,894,914,934,955,974,994,1015,1034,1054,1075,1094,1115,1134,1154,1175,1194],"xSR":741.5,"ySR":469.95,"xT1":424.9,"yT1":0,"xT2":1058.1,"yT2":0,"toosoon":0,"cond_shown":"randomdotsizeEA","ratio_trial":250,"smaller_num":"2","larger_num":"8","correct_side":1,"subjID":"MicaelaReyesPerez8","gender":"1","age":"11","school":"6"},{"start_time":1551882949038,"click_time":1551882949910,"finger_time":1551882949768,"fix_duration":1229.0195580735092,"trial":28,"RT":730,"MT":142,"sideResp":1,"stimulus":"img/900/equaldotsize/L/8_Ratio_900_L_20_R_18.png","xmouse":[776,776,776,777,777,777,777,777,777,777,777,777,777,777,777,777,777,777,777,777,777,777,777,777,777,777,777,777,777,778,778,778,778,779,780,781,781,781,748,716,671,602,517,434],"ymouse":[494,494,494,494,493,493,493,493,493,493,493,493,493,493,493,493,493,493,493,493,493,493,493,493,493,493,493,493,493,493,492,492,492,490,486,475,463,430,334,283,218,153,102,68],"timestamp_mouse":[10,39,50,70,90,110,131,151,171,190,210,231,250,271,291,310,330,350,370,391,410,430,451,470,491,511,530,550,570,590,611,631,650,670,690,711,730,750,772,790,810,831,850,872],"xSR":741.5,"ySR":469.95,"xT1":424.9,"yT1":0,"xT2":1058.1,"yT2":0,"toosoon":0,"cond_shown":"equaldotsize","ratio_trial":900,"smaller_num":"18","larger_num":"20","correct_side":1,"subjID":"MicaelaReyesPerez8","gender":"1","age":"11","school":"6"},{"start_time":1551882951965,"click_time":1551882953069,"finger_time":1551882952648,"fix_duration":1335.0852255144405,"trial":29,"RT":683,"MT":421,"sideResp":1,"stimulus":"img/250/randomdotsizeEA/L/7_Ratio_250_L_8_R_2.png","xmouse":[806,806,806,806,806,806,806,806,806,806,806,806,806,806,806,806,806,806,806,806,806,806,806,806,806,806,806,806,806,806,806,806,805,789,780,773,764,755,712,677,634,608,589,555,546,541,537,532,521,520,520,520,520,520,519,517],"ymouse":[532,532,532,532,532,532,532,532,532,532,532,532,532,532,532,532,532,532,532,532,532,532,532,532,532,532,532,532,532,532,532,532,528,491,466,448,430,411,329,284,234,206,186,154,142,135,129,123,109,107,107,107,107,107,105,97],"timestamp_mouse":[8,23,44,63,83,103,123,144,163,184,204,223,244,263,283,303,323,343,363,384,403,423,444,463,484,504,524,543,563,583,604,623,643,663,683,703,723,744,763,783,803,823,843,863,883,903,922,943,963,984,1003,1024,1044,1063,1083,1103],"xSR":741.5,"ySR":469.95,"xT1":424.9,"yT1":0,"xT2":1058.1,"yT2":0,"toosoon":0,"cond_shown":"randomdotsizeEA","ratio_trial":250,"smaller_num":"2","larger_num":"8","correct_side":1,"subjID":"MicaelaReyesPerez8","gender":"1","age":"11","school":"6"},{"start_time":1551882955211,"click_time":1551882956308,"finger_time":1551882955948,"fix_duration":1482.0486560650404,"trial":30,"RT":737,"MT":360,"sideResp":1,"stimulus":"img/750/equaldotanddens/L/8_Ratio_750_L_4_R_3.png","xmouse":[815,815,815,815,815,815,815,815,815,815,815,815,815,815,815,815,815,815,815,815,815,815,815,815,815,815,815,815,815,815,815,815,815,813,811,789,777,764,746,718,664,646,630,618,602,567,546,527,512,501,491,487,486,485,483],"ymouse":[516,516,516,516,516,516,516,516,516,516,516,516,516,516,516,516,516,516,516,516,516,516,516,516,516,516,516,516,516,516,516,516,516,515,510,479,464,449,431,407,358,341,323,303,274,221,194,174,157,147,130,120,113,106,99],"timestamp_mouse":[20,39,56,78,97,117,137,157,177,197,218,236,257,277,297,317,337,358,377,397,418,438,458,478,498,517,538,557,578,598,617,638,657,677,698,717,737,757,777,797,817,836,857,877,898,917,937,957,977,998,1017,1037,1056,1078,1097],"xSR":741.5,"ySR":469.95,"xT1":424.9,"yT1":0,"xT2":1058.1,"yT2":0,"toosoon":0,"cond_shown":"equaldotanddens","ratio_trial":750,"smaller_num":"3","larger_num":"4","correct_side":1,"subjID":"MicaelaReyesPerez8","gender":"1","age":"11","school":"6"},{"start_time":1551882957757,"click_time":1551882958768,"finger_time":1551882958549,"fix_duration":788.0558250212435,"trial":31,"RT":792,"MT":219,"sideResp":1,"stimulus":"img/900/randomdotsizeEA/L/8_Ratio_900_L_20_R_18.png","xmouse":[838,839,839,839,839,839,839,839,839,839,839,839,839,839,839,839,839,839,839,839,839,839,839,839,839,839,839,839,839,839,839,839,839,839,839,839,839,839,840,842,843,846,846,827,811,791,767,731,590,528,502],"ymouse":[486,487,487,487,487,487,487,487,487,487,487,487,487,487,487,487,487,487,487,487,487,487,487,487,487,487,487,487,487,487,487,487,487,487,487,487,487,487,487,471,453,424,399,359,339,315,289,256,148,107,91],"timestamp_mouse":[12,37,51,72,91,111,132,152,171,191,211,231,251,272,291,311,332,351,372,409,411,430,451,472,492,512,531,552,571,592,611,631,651,672,692,712,731,752,771,792,810,831,852,873,891,912,931,951,972,991,1011],"xSR":741.5,"ySR":469.95,"xT1":424.9,"yT1":0,"xT2":1058.1,"yT2":0,"toosoon":0,"cond_shown":"randomdotsizeEA","ratio_trial":900,"smaller_num":"18","larger_num":"20","correct_side":1,"subjID":"MicaelaReyesPerez8","gender":"1","age":"11","school":"6"},{"start_time":1551882960835,"click_time":1551882961848,"finger_time":1551882961548,"fix_duration":1486.2514486625014,"trial":32,"RT":713,"MT":300,"sideResp":1,"stimulus":"img/250/equaldotanddens/L/14_Ratio_250_L_12_R_3.png","xmouse":[762,762,763,763,763,763,765,765,765,765,765,765,765,765,765,765,765,765,765,765,765,765,765,765,765,765,765,765,765,765,765,765,765,765,763,733,712,688,662,637,600,588,570,555,537,499,488,482,477,473,464],"ymouse":[510,510,510,510,510,510,510,510,510,510,510,510,510,510,510,510,510,510,510,510,510,510,510,510,510,510,510,510,510,510,510,510,510,507,501,455,424,395,359,325,272,256,237,222,207,181,171,162,149,133,98],"timestamp_mouse":[13,35,54,73,93,113,132,153,173,193,212,233,253,273,293,313,333,353,374,393,414,434,453,473,494,513,533,553,573,593,613,633,653,674,692,713,732,753,773,794,813,834,853,873,893,913,933,953,973,994,1013],"xSR":741.5,"ySR":469.95,"xT1":424.9,"yT1":0,"xT2":1058.1,"yT2":0,"toosoon":0,"cond_shown":"equaldotanddens","ratio_trial":250,"smaller_num":"3","larger_num":"12","correct_side":1,"subjID":"MicaelaReyesPerez8","gender":"1","age":"11","school":"6"},{"start_time":1551882962989,"click_time":1551882964128,"finger_time":1551882963628,"fix_duration":279.9842348798185,"trial":33,"RT":639,"MT":500,"sideResp":2,"stimulus":"img/750/randomdotsizeEA/R/15_Ratio_750_L_9_R_12.png","xmouse":[791,791,791,791,791,791,791,791,791,791,792,792,792,792,792,792,792,792,792,792,792,792,792,792,792,792,792,792,793,800,810,823,839,874,889,898,904,910,922,931,945,956,963,972,976,979,983,989,1004,1011,1014,1015,1018,1032,1037,1043,1049,1059],"ymouse":[518,518,518,518,518,518,518,518,518,518,518,518,518,518,518,518,518,518,518,518,518,518,518,518,518,518,518,518,518,510,499,483,464,418,391,373,359,343,304,269,223,182,158,129,120,114,106,94,71,63,60,58,56,53,52,52,52,52],"timestamp_mouse":[1,19,40,60,79,99,120,139,160,179,199,219,238,259,279,299,319,340,358,380,400,419,439,459,479,499,519,539,559,579,599,620,639,659,680,699,718,739,759,778,799,819,839,860,878,899,919,939,960,978,1000,1020,1040,1060,1079,1099,1119,1139],"xSR":741.5,"ySR":469.95,"xT1":424.9,"yT1":0,"xT2":1058.1,"yT2":0,"toosoon":0,"cond_shown":"randomdotsizeEA","ratio_trial":750,"smaller_num":"9","larger_num":"12","correct_side":2,"subjID":"MicaelaReyesPerez8","gender":"1","age":"11","school":"6"},{"start_time":1551882967668,"click_time":1551882968768,"finger_time":1551882968447,"fix_duration":897.8293321488428,"trial":34,"RT":779,"MT":321,"sideResp":2,"stimulus":"img/750/equaldotanddens/R/15_Ratio_750_L_9_R_12.png","xmouse":[810,810,810,810,810,810,810,810,810,809,809,809,809,809,809,809,809,809,808,808,808,808,808,808,808,808,808,808,808,808,808,808,808,808,808,808,808,808,809,823,886,928,961,977,982,983,985,989,1003,1015,1030,1035,1038,1044,1052,1063],"ymouse":[516,516,516,516,516,516,516,516,516,514,514,514,514,514,514,514,513,513,512,512,512,512,512,512,512,512,512,512,512,512,512,512,512,512,512,512,509,504,495,458,279,183,117,87,77,76,73,67,52,43,34,32,31,31,31,34],"timestamp_mouse":[8,21,40,60,80,100,120,141,161,180,200,219,240,260,280,300,320,340,359,380,401,420,440,461,481,500,520,541,561,581,601,621,641,661,680,700,720,741,761,779,800,820,840,860,881,900,920,940,960,981,1000,1020,1040,1060,1080,1100],"xSR":741.5,"ySR":469.95,"xT1":424.9,"yT1":0,"xT2":1058.1,"yT2":0,"toosoon":0,"cond_shown":"equaldotanddens","ratio_trial":750,"smaller_num":"9","larger_num":"12","correct_side":2,"subjID":"MicaelaReyesPerez8","gender":"1","age":"11","school":"6"},{"start_time":1551882969983,"click_time":1551882970888,"finger_time":1551882970688,"fix_duration":252.96495433449184,"trial":35,"RT":705,"MT":200,"sideResp":1,"stimulus":"img/900/equaldotsize/L/2_Ratio_900_L_20_R_18.png","xmouse":[777,776,775,774,774,774,774,774,774,774,774,774,774,774,774,774,774,774,774,774,774,774,774,774,774,774,774,774,774,774,774,774,773,770,751,728,692,651,611,551,531,525,520,515,505,498],"ymouse":[554,556,560,561,562,562,562,562,562,562,562,562,562,562,562,562,562,562,562,562,562,562,562,562,562,562,562,562,562,562,562,562,556,534,472,416,352,290,237,167,141,132,125,117,103,92],"timestamp_mouse":[6,25,48,65,85,105,125,145,165,185,206,226,246,266,286,305,326,345,365,386,404,425,446,465,486,505,526,546,565,585,606,625,646,666,685,705,725,746,765,785,806,825,846,864,885,905],"xSR":741.5,"ySR":469.95,"xT1":424.9,"yT1":0,"xT2":1058.1,"yT2":0,"toosoon":0,"cond_shown":"equaldotsize","ratio_trial":900,"smaller_num":"18","larger_num":"20","correct_side":1,"subjID":"MicaelaReyesPerez8","gender":"1","age":"11","school":"6"},{"start_time":1551882971700,"click_time":1551882972608,"finger_time":1551882972349,"fix_duration":250,"trial":36,"RT":649,"MT":259,"sideResp":1,"stimulus":"img/250/equaldotsize/L/14_Ratio_250_L_12_R_3.png","xmouse":[788,788,788,788,788,788,788,788,788,788,788,788,788,788,788,788,788,788,788,788,788,788,788,788,788,788,788,788,789,789,789,781,763,688,634,618,609,605,599,593,585,578,570,547,531,521],"ymouse":[551,551,551,551,551,551,551,551,551,551,551,551,551,551,551,551,551,551,551,551,551,551,551,551,551,551,551,551,550,543,526,496,441,259,153,126,112,100,85,77,67,59,51,40,38,38],"timestamp_mouse":[8,38,49,69,88,109,129,149,167,189,208,227,248,269,287,308,329,347,369,389,407,427,449,469,488,509,527,549,569,587,608,627,648,668,687,708,728,748,768,787,808,828,849,868,888,908],"xSR":741.5,"ySR":469.95,"xT1":424.9,"yT1":0,"xT2":1058.1,"yT2":0,"toosoon":0,"cond_shown":"equaldotsize","ratio_trial":250,"smaller_num":"3","larger_num":"12","correct_side":1,"subjID":"MicaelaReyesPerez8","gender":"1","age":"11","school":"6"},{"start_time":1551882976308,"click_time":1551882977307,"finger_time":1551882976887,"fix_duration":1299.856479026488,"trial":37,"RT":579,"MT":420,"sideResp":1,"stimulus":"img/250/randomdotsizeEA/L/5_Ratio_250_L_24_R_6.png","xmouse":[785,785,785,785,785,785,785,785,785,785,785,785,785,785,785,785,785,785,785,785,785,785,785,785,785,785,785,785,785,767,743,714,693,650,639,631,623,614,588,571,557,543,528,525,524,523,522,518,504,492,476],"ymouse":[495,495,495,495,495,495,495,495,495,495,495,495,495,495,495,495,495,495,495,495,495,495,495,495,495,495,495,492,487,448,412,367,330,256,236,224,214,202,182,170,161,152,143,141,139,139,136,131,114,100,86],"timestamp_mouse":[1,20,43,61,80,99,120,140,161,180,199,221,240,261,281,301,320,341,360,379,400,421,441,460,481,501,521,539,560,579,599,620,640,661,680,699,720,740,761,780,800,819,840,860,880,899,919,939,961,979,999],"xSR":741.5,"ySR":469.95,"xT1":424.9,"yT1":0,"xT2":1058.1,"yT2":0,"toosoon":0,"cond_shown":"randomdotsizeEA","ratio_trial":250,"smaller_num":"6","larger_num":"24","correct_side":1,"subjID":"MicaelaReyesPerez8","gender":"1","age":"11","school":"6"},{"start_time":1551882978334,"click_time":1551882979689,"finger_time":1551882978988,"fix_duration":524.9573061811642,"trial":38,"RT":654,"MT":701,"sideResp":1,"stimulus":"img/500/equaldotanddens/L/4_Ratio_500_L_18_R_9.png","xmouse":[837,837,837,837,837,837,837,837,837,837,837,837,837,837,837,837,837,837,837,837,837,837,837,837,837,837,837,837,837,828,813,794,739,700,636,556,453,229,133,133,133,133,133,133,133,133,133,133,133,133,133,133,133,133,133,133,133,133,133,133,133,133,399,404,409,413,416,429],"ymouse":[553,553,553,553,553,553,553,553,553,553,553,553,553,553,553,553,553,553,553,553,553,553,553,553,553,553,553,553,553,546,538,527,492,462,413,344,252,74,3,3,3,3,3,3,3,3,3,3,3,3,3,3,3,3,3,3,3,3,3,3,3,3,3,7,10,13,14,21],"timestamp_mouse":[14,36,54,74,94,114,135,154,174,193,215,233,254,274,293,314,335,354,375,393,414,434,454,474,493,515,533,554,574,593,615,634,654,675,693,713,735,754,774,794,814,834,854,875,895,914,935,954,974,994,1014,1035,1055,1073,1094,1114,1134,1154,1174,1194,1215,1233,1255,1273,1294,1313,1333,1355],"xSR":741.5,"ySR":469.95,"xT1":424.9,"yT1":0,"xT2":1058.1,"yT2":0,"toosoon":0,"cond_shown":"equaldotanddens","ratio_trial":500,"smaller_num":"9","larger_num":"18","correct_side":1,"subjID":"MicaelaReyesPerez8","gender":"1","age":"11","school":"6"},{"start_time":1551882981088,"click_time":1551882982268,"finger_time":1551882981828,"fix_duration":638.4277777102419,"trial":39,"RT":740,"MT":440,"sideResp":2,"stimulus":"img/750/randomdotsizeEA/R/4_Ratio_750_L_15_R_20.png","xmouse":[827,827,827,827,827,827,827,827,827,827,827,827,827,827,827,827,827,827,827,827,827,827,827,828,828,829,830,830,830,830,830,830,830,830,830,834,841,851,866,885,933,972,999,1014,1033,1048,1050,1052,1052,1052,1052,1052,1052,1051,1051,1051,1052,1055,1058,1059],"ymouse":[523,523,523,523,523,523,523,523,523,523,523,523,523,523,523,523,523,523,523,523,523,523,523,523,522,521,520,519,519,517,516,515,514,514,513,503,490,471,445,414,338,287,248,225,194,152,140,130,121,111,96,92,90,88,86,80,76,71,68,67],"timestamp_mouse":[9,20,40,60,80,101,120,140,160,180,200,219,240,261,279,300,320,341,360,380,399,420,441,461,480,501,520,540,561,581,602,621,640,661,680,700,719,740,760,780,800,820,840,860,879,900,919,940,960,980,1000,1019,1040,1059,1080,1099,1120,1140,1160,1180],"xSR":741.5,"ySR":469.95,"xT1":424.9,"yT1":0,"xT2":1058.1,"yT2":0,"toosoon":0,"cond_shown":"randomdotsizeEA","ratio_trial":750,"smaller_num":"15","larger_num":"20","correct_side":2,"subjID":"MicaelaReyesPerez8","gender":"1","age":"11","school":"6"},{"start_time":1551882991333,"click_time":1551882992608,"finger_time":1551882991968,"fix_duration":824.6333109224092,"trial":40,"RT":635,"MT":640,"sideResp":1,"stimulus":"img/500/equaldotanddens/L/4_Ratio_500_L_18_R_9.png","xmouse":[794,794,794,794,794,794,794,794,794,794,794,794,794,794,794,794,794,794,794,794,794,794,794,794,794,794,794,794,792,782,759,700,568,375,309,286,286,286,286,286,286,286,286,286,286,286,286,286,286,286,286,286,353,368,386,395,402,408,411,415,415,417,422,434],"ymouse":[523,523,523,523,523,523,523,523,523,523,523,523,523,523,523,523,523,523,523,523,523,523,523,523,523,523,523,523,523,510,477,408,263,94,35,13,13,13,13,13,13,13,13,13,13,13,13,13,13,13,13,13,0,24,48,58,65,69,72,74,75,75,75,75],"timestamp_mouse":[15,41,56,75,94,115,136,154,175,196,214,236,254,275,295,315,334,354,375,395,414,435,455,474,495,515,535,554,575,594,614,635,655,675,694,716,735,755,776,794,814,835,855,876,896,916,935,956,975,995,1015,1035,1056,1076,1095,1115,1135,1156,1175,1196,1215,1236,1255,1275],"xSR":741.5,"ySR":469.95,"xT1":424.9,"yT1":0,"xT2":1058.1,"yT2":0,"toosoon":0,"cond_shown":"equaldotanddens","ratio_trial":500,"smaller_num":"9","larger_num":"18","correct_side":1,"subjID":"MicaelaReyesPerez8","gender":"1","age":"11","school":"6"},{"start_time":1551883001126,"click_time":1551883002029,"finger_time":1551883001708,"fix_duration":1297.1495817129314,"trial":41,"RT":582,"MT":321,"sideResp":2,"stimulus":"img/250/equaldotsize/R/11_Ratio_250_L_3_R_12.png","xmouse":[820,820,820,820,820,820,820,820,820,820,820,820,820,820,820,820,820,820,820,820,820,820,820,820,820,820,820,827,837,923,999,1170,1239,1273,1286,1290,1290,1290,1290,1290,1289,1269,1248,1203,1171,1153],"ymouse":[533,533,533,533,533,533,533,533,533,533,533,533,533,533,533,533,533,533,533,533,533,533,533,533,533,533,533,530,522,470,423,299,249,216,197,184,176,175,174,174,172,159,147,120,103,90],"timestamp_mouse":[9,33,41,61,82,103,122,141,162,182,202,222,242,262,282,302,321,341,363,381,402,423,443,462,482,501,522,542,562,582,602,622,641,663,682,701,722,743,762,783,802,821,842,862,881,902],"xSR":741.5,"ySR":469.95,"xT1":424.9,"yT1":0,"xT2":1058.1,"yT2":0,"toosoon":0,"cond_shown":"equaldotsize","ratio_trial":250,"smaller_num":"3","larger_num":"12","correct_side":2,"subjID":"MicaelaReyesPerez8","gender":"1","age":"11","school":"6"},{"start_time":1551883003601,"click_time":1551883004868,"finger_time":1551883004167,"fix_duration":851.3638530160567,"trial":42,"RT":566,"MT":701,"sideResp":2,"stimulus":"img/500/randomdotsizeEA/R/14_Ratio_500_L_5_R_10.png","xmouse":[811,811,811,811,811,811,811,811,811,812,812,812,813,813,813,813,813,813,813,814,814,814,815,815,816,816,816,806,795,777,747,723,714,714,715,722,726,749,767,796,821,845,875,886,901,919,936,963,974,982,988,996,1022,1022,1022,1022,1022,1022,1022,1022,1022,1022,1022,1114],"ymouse":[547,547,547,547,547,544,543,542,541,541,541,540,540,540,539,539,539,538,537,537,536,535,534,533,530,523,514,479,448,407,352,312,285,276,273,261,252,230,215,199,187,174,158,151,140,128,119,99,87,72,56,40,4,4,4,4,4,4,4,4,4,4,4,4],"timestamp_mouse":[8,38,46,68,86,108,126,147,166,186,206,227,248,267,288,307,326,348,366,388,406,427,446,467,487,508,527,546,566,587,607,628,646,666,687,708,727,747,767,788,807,827,846,867,886,908,927,946,966,987,1007,1026,1047,1067,1087,1108,1128,1148,1167,1186,1207,1228,1248,1267],"xSR":741.5,"ySR":469.95,"xT1":424.9,"yT1":0,"xT2":1058.1,"yT2":0,"toosoon":0,"cond_shown":"randomdotsizeEA","ratio_trial":500,"smaller_num":"5","larger_num":"10","correct_side":2,"subjID":"MicaelaReyesPerez8","gender":"1","age":"11","school":"6"},{"start_time":1551883010114,"click_time":1551883010868,"finger_time":1551883010728,"fix_duration":843.5385287102715,"trial":43,"RT":614,"MT":140,"sideResp":2,"stimulus":"img/900/equaldotsize/R/11_Ratio_900_L_18_R_20.png","xmouse":[780,780,781,781,781,781,781,781,781,781,781,781,781,781,781,781,781,781,781,781,781,781,781,781,781,781,783,795,808,830,861,930,957,980,995,1011,1053,1064],"ymouse":[537,537,536,536,536,536,536,536,536,536,536,536,536,536,536,536,536,536,536,536,536,536,536,536,536,535,532,516,500,475,433,334,289,249,221,195,122,99],"timestamp_mouse":[22,38,53,75,94,115,135,153,175,195,213,234,254,275,293,315,335,355,373,395,414,434,454,474,494,514,534,554,573,595,614,635,654,674,694,715,735,754],"xSR":741.5,"ySR":469.95,"xT1":424.9,"yT1":0,"xT2":1058.1,"yT2":0,"toosoon":0,"cond_shown":"equaldotsize","ratio_trial":900,"smaller_num":"18","larger_num":"20","correct_side":2,"subjID":"MicaelaReyesPerez8","gender":"1","age":"11","school":"6"},{"start_time":1551883012593,"click_time":1551883013567,"finger_time":1551883013268,"fix_duration":944.6756818689547,"trial":44,"RT":675,"MT":299,"sideResp":1,"stimulus":"img/750/equaldotsize/L/9_Ratio_750_L_4_R_3.png","xmouse":[821,821,821,820,820,820,819,819,818,818,818,818,818,818,818,818,818,818,818,817,817,817,817,816,816,816,816,816,815,814,813,809,798,738,686,640,577,524,486,480,475,469,463,457,455,454,454,454,464],"ymouse":[544,544,544,544,544,544,544,543,542,542,542,542,541,541,541,541,541,541,541,541,541,541,541,540,540,538,538,538,537,535,532,526,510,440,390,351,308,276,242,230,219,204,194,183,176,168,154,134,97],"timestamp_mouse":[15,40,54,75,94,115,135,156,174,196,215,235,255,276,296,315,334,356,375,395,414,434,455,475,494,515,535,555,574,594,614,636,654,675,695,715,735,756,775,794,815,836,855,875,895,915,935,956,974],"xSR":741.5,"ySR":469.95,"xT1":424.9,"yT1":0,"xT2":1058.1,"yT2":0,"toosoon":0,"cond_shown":"equaldotsize","ratio_trial":750,"smaller_num":"3","larger_num":"4","correct_side":1,"subjID":"MicaelaReyesPerez8","gender":"1","age":"11","school":"6"},{"start_time":1551883014742,"click_time":1551883015608,"finger_time":1551883015327,"fix_duration":452.4243576286675,"trial":45,"RT":585,"MT":281,"sideResp":2,"stimulus":"img/250/equaldotsize/R/12_Ratio_250_L_5_R_20.png","xmouse":[798,798,798,798,798,798,799,799,799,799,799,799,799,799,799,799,799,799,799,799,799,799,799,799,799,801,807,815,827,843,871,929,944,947,949,949,956,977,998,1022,1038,1053,1056,1060],"ymouse":[522,522,522,522,521,520,514,512,511,511,511,511,511,511,511,511,511,511,511,511,511,511,511,511,511,510,502,490,474,451,405,290,256,239,219,200,160,130,107,92,84,75,74,72],"timestamp_mouse":[9,38,47,66,86,106,125,147,165,185,206,226,246,266,285,306,326,347,365,385,407,425,446,465,485,505,525,545,567,585,606,626,647,665,686,706,725,747,766,785,807,826,846,866],"xSR":741.5,"ySR":469.95,"xT1":424.9,"yT1":0,"xT2":1058.1,"yT2":0,"toosoon":0,"cond_shown":"equaldotsize","ratio_trial":250,"smaller_num":"5","larger_num":"20","correct_side":2,"subjID":"MicaelaReyesPerez8","gender":"1","age":"11","school":"6"},{"start_time":1551883019661,"click_time":1551883020888,"finger_time":1551883020327,"fix_duration":411.09894273255344,"trial":46,"RT":666,"MT":561,"sideResp":1,"stimulus":"img/500/randomdotsizeEA/L/13_Ratio_500_L_12_R_6.png","xmouse":[770,770,770,770,770,770,770,770,770,770,770,770,770,770,770,770,770,770,770,770,770,770,770,770,770,770,770,770,770,770,770,770,765,734,659,500,333,314,311,311,311,311,313,319,324,333,359,388,437,491,543,585,587,589,588,586,579,575,568,558,543,501],"ymouse":[527,527,527,527,527,527,527,527,527,527,527,527,527,527,527,527,527,527,527,527,527,525,524,524,524,524,523,522,521,521,521,518,509,476,413,290,182,166,163,161,160,158,155,149,144,139,137,137,137,137,137,129,126,122,118,113,106,102,94,84,68,42],"timestamp_mouse":[9,40,46,68,87,106,128,147,168,186,208,227,247,267,286,306,328,347,368,386,408,427,447,468,487,507,527,546,567,588,607,627,647,666,688,707,727,746,766,786,808,826,847,866,887,907,927,947,967,987,1006,1027,1047,1067,1087,1107,1126,1146,1167,1187,1207,1227],"xSR":741.5,"ySR":469.95,"xT1":424.9,"yT1":0,"xT2":1058.1,"yT2":0,"toosoon":0,"cond_shown":"randomdotsizeEA","ratio_trial":500,"smaller_num":"6","larger_num":"12","correct_side":1,"subjID":"MicaelaReyesPerez8","gender":"1","age":"11","school":"6"},{"start_time":1551883022757,"click_time":1551883023708,"finger_time":1551883023368,"fix_duration":787.4767409073377,"trial":47,"RT":611,"MT":340,"sideResp":2,"stimulus":"img/900/equaldotsize/L/2_Ratio_900_L_20_R_18.png","xmouse":[793,793,793,793,793,793,793,793,793,793,793,793,793,793,793,793,793,793,793,793,793,793,793,793,793,793,793,793,798,808,823,855,868,881,891,901,925,954,970,982,988,1006,1019,1034,1044,1050,1057,1065],"ymouse":[552,552,552,552,552,552,552,552,552,552,552,552,552,552,552,552,551,550,550,550,550,550,550,550,550,550,550,541,523,495,457,379,341,312,289,266,210,144,108,90,81,64,55,47,41,39,36,36],"timestamp_mouse":[11,31,51,72,90,112,130,151,172,191,211,232,250,271,291,310,332,351,372,390,411,431,452,471,491,511,530,551,570,591,611,631,652,671,691,712,730,752,770,792,811,831,850,871,890,912,930,951],"xSR":741.5,"ySR":469.95,"xT1":424.9,"yT1":0,"xT2":1058.1,"yT2":0,"toosoon":0,"cond_shown":"equaldotsize","ratio_trial":900,"smaller_num":"18","larger_num":"20","correct_side":1,"subjID":"MicaelaReyesPerez8","gender":"1","age":"11","school":"6"},{"start_time":1551883026713,"click_time":1551883027428,"finger_time":1551883027327,"fix_duration":324.7601074385833,"trial":48,"RT":614,"MT":101,"sideResp":1,"stimulus":"img/500/equaldotanddens/L/8_Ratio_500_L_8_R_4.png","xmouse":[754,754,754,754,754,754,754,754,754,754,754,754,754,754,754,754,754,754,754,754,754,754,754,754,754,754,754,754,754,749,736,701,659,586,484,468],"ymouse":[507,507,507,507,507,507,507,507,507,507,507,507,507,507,507,507,507,507,507,507,507,507,507,507,507,507,507,507,507,493,462,401,319,226,101,73],"timestamp_mouse":[15,39,54,75,95,114,135,155,175,194,216,234,256,275,294,315,335,355,374,394,415,434,455,476,494,515,536,556,574,595,614,635,655,676,695,715],"xSR":741.5,"ySR":469.95,"xT1":424.9,"yT1":0,"xT2":1058.1,"yT2":0,"toosoon":0,"cond_shown":"equaldotanddens","ratio_trial":500,"smaller_num":"4","larger_num":"8","correct_side":1,"subjID":"MicaelaReyesPerez8","gender":"1","age":"11","school":"6"},{"start_time":1551883029910,"click_time":1551883030869,"finger_time":1551883030469,"fix_duration":880.0564206830655,"trial":49,"RT":559,"MT":400,"sideResp":2,"stimulus":"img/900/equaldotsize/R/15_Ratio_900_L_9_R_10.png","xmouse":[768,768,768,768,768,769,769,769,770,772,773,774,774,774,775,775,775,775,776,777,778,778,778,779,789,806,822,847,872,926,950,969,987,1003,1025,1031,1034,1035,1037,1042,1042,1042,1042,1042,1042,1042,1042,1083],"ymouse":[546,546,546,546,546,545,545,545,542,539,538,537,535,534,534,533,533,533,531,530,529,529,529,527,517,496,479,446,415,326,267,202,142,97,49,32,26,21,16,3,3,3,3,3,3,3,3,8],"timestamp_mouse":[17,38,57,79,97,118,139,158,178,198,217,239,258,278,297,319,338,358,379,399,417,439,459,477,497,519,537,559,578,597,618,637,658,678,697,717,737,758,778,797,818,839,859,878,898,918,939,959],"xSR":741.5,"ySR":469.95,"xT1":424.9,"yT1":0,"xT2":1058.1,"yT2":0,"toosoon":0,"cond_shown":"equaldotsize","ratio_trial":900,"smaller_num":"9","larger_num":"10","correct_side":2,"subjID":"MicaelaReyesPerez8","gender":"1","age":"11","school":"6"},{"start_time":1551883033050,"click_time":1551883041367,"finger_time":1551883035147,"fix_duration":1441.9545544908772,"trial":50,"RT":2097,"MT":6220,"sideResp":2,"stimulus":"img/750/randomdotsizeEA/L/9_Ratio_750_L_4_R_3.png","xmouse":[826,826,826,826,826,826,826,826,826,826,826,826,826,826,826,826,826,826,826,826,826,826,826,826,826,826,826,826,826,826,826,826,826,826,826,826,826,826,826,826,826,826,826,826,826,826,826,826,826,826,826,826,826,826,826,826,826,826,826,826,826,826,826,826,826,826,826,826,826,826,826,826,826,826,826,826,826,826,826,826,826,826,826,826,826,826,826,826,826,826,826,826,826,826,826,826,826,826,826,826,826,822,784,752,728,714,708,707,707,707,707,707,707,707,707,707,707,707,707,707,708,709,712,713,715,717,727,746,809,831,844,847,847,847,847,847,847,846,842,837,830,824,820,813,809,805,800,795,781,771,760,754,748,741,741,740,740,740,740,740,740,740,740,746,751,756,760,765,772,776,779,785,793,803,807,809,819,834,870,887,905,918,944,968,1020,1086,1152,1233,1270,1270,1270,1270,1270,1262,1256,1250,1245,1241,1233,1229,1221,1216,1209,1190,1176,1163,1143,1131,1117,1115,1115,1115,1114,1103,1092,1081,1067,1064,1064,1064,1064,1064,1064,1064,1064,1064,1064,1064,1064,1063,1062,1060,1058,1055,1055,1055,1055,1055,1055,1055,1055,1055,1055,1055,1055,1055,1055,1055,1055,1055,1055,1055,1055,1055,1053,1043,1031,1014,967,939,919,907,900,888,879,863,856,851,848,848,848,848,848,849,849,839,829,820,816,816,812,804,796,782,776,768,735,676,676,676,676,676,676,676,676,645,668,724,875,943,984,1007,1018,1023,1023,1023,1022,1013,976,966,964,968,971,980,984,984,984,984,980,979,974,969,966,954,945,931,924,916,901,895,890,884,876,851,824,797,772,748,721,719,719,719,719,719,719,719,719,719,719,719,723,733,745,768,775,778,778,778,778,778,778,778,778,778,778,778,778,780,799,827,857,891,914,927,927,927,927,927,927,927,927,927,927,918,901,887,875,865,855,854,854,854,854,854,854,853,853,851,849,847,846,845,845,845,907,964,998,1017,1028,1029,1031,1034,1036,1044,1056,1066],"ymouse":[508,508,508,508,508,508,508,508,508,508,508,508,508,508,508,508,508,508,508,508,508,508,508,508,508,508,508,508,508,508,508,508,508,508,508,508,508,508,508,508,508,508,508,508,508,508,508,508,508,508,508,508,508,508,508,508,508,508,508,508,508,508,508,508,508,508,508,508,508,508,508,508,508,508,508,508,508,508,508,508,508,508,508,508,508,508,508,508,508,508,508,508,508,508,508,508,508,508,508,508,508,509,520,532,547,560,568,574,574,574,574,574,574,574,574,574,574,574,572,566,558,553,544,541,538,536,529,523,515,511,508,507,507,507,507,507,507,507,507,507,507,507,507,508,510,513,519,523,541,555,569,580,588,600,602,603,603,603,603,603,603,603,596,580,570,559,553,545,538,534,531,527,522,515,512,510,505,499,481,473,465,460,454,451,451,451,454,466,473,473,473,473,473,473,473,473,473,473,474,475,477,478,481,486,493,498,507,512,519,522,523,524,530,573,614,647,682,692,695,695,695,695,695,695,695,695,695,695,695,696,697,699,702,705,706,706,706,706,706,706,706,706,706,706,706,706,706,706,706,706,706,706,706,706,706,706,706,706,705,704,703,703,701,699,694,679,666,650,614,600,584,568,550,522,511,492,476,464,459,458,459,468,485,514,533,559,632,721,721,721,721,721,721,721,721,707,680,633,518,454,389,341,305,271,264,263,263,264,299,330,353,372,388,421,446,463,481,497,508,510,511,512,512,509,506,500,498,496,493,492,491,490,490,490,501,513,523,534,549,550,550,550,550,550,550,550,550,550,550,551,551,549,545,538,534,534,534,534,534,534,534,534,534,534,534,534,533,532,478,413,348,285,245,224,224,224,224,224,224,224,224,224,234,268,311,337,358,376,394,395,395,395,395,395,397,402,409,414,422,425,429,430,430,430,328,204,118,75,58,57,56,56,56,56,60,67],"timestamp_mouse":[17,41,57,78,98,116,138,157,177,197,216,238,258,276,297,318,337,356,378,396,418,437,456,478,496,517,537,557,578,597,617,637,657,677,696,717,737,756,777,797,818,837,857,878,898,918,937,957,978,996,1016,1038,1057,1078,1098,1117,1137,1157,1178,1198,1216,1238,1257,1277,1297,1317,1338,1358,1376,1397,1418,1437,1456,1478,1498,1517,1537,1557,1577,1597,1618,1638,1656,1678,1698,1718,1736,1758,1777,1797,1817,1838,1856,1878,1897,1917,1938,1956,1977,1997,2018,2036,2057,2076,2097,2117,2137,2157,2176,2197,2218,2237,2257,2277,2297,2318,2336,2358,2376,2397,2417,2437,2458,2476,2497,2517,2537,2557,2578,2598,2617,2638,2657,2677,2698,2718,2737,2757,2777,2797,2817,2837,2858,2877,2897,2918,2937,2957,2977,2997,3017,3037,3057,3077,3097,3118,3138,3157,3177,3196,3217,3236,3257,3277,3297,3317,3337,3357,3377,3396,3418,3436,3457,3476,3496,3517,3538,3557,3577,3597,3618,3637,3658,3676,3697,3717,3737,3757,3776,3797,3818,3836,3857,3876,3897,3917,3937,3957,3977,3996,4016,4037,4057,4076,4096,4117,4137,4157,4177,4198,4217,4237,4256,4276,4297,4317,4336,4358,4377,4398,4417,4437,4457,4476,4498,4517,4537,4557,4577,4597,4618,4637,4657,4676,4697,4718,4736,4757,4776,4797,4817,4838,4858,4876,4897,4917,4937,4957,4978,4998,5017,5037,5057,5077,5096,5118,5137,5157,5178,5198,5217,5237,5257,5277,5297,5317,5337,5358,5377,5397,5417,5437,5456,5476,5498,5516,5537,5557,5576,5597,5618,5637,5658,5676,5698,5717,5736,5757,5777,5798,5817,5837,5856,5877,5898,5918,5937,5958,5977,5998,6016,6038,6058,6076,6098,6117,6137,6157,6176,6198,6217,6237,6258,6276,6297,6316,6337,6358,6377,6398,6417,6438,6457,6476,6498,6517,6538,6558,6578,6597,6617,6637,6657,6676,6696,6716,6737,6758,6777,6796,6818,6837,6856,6877,6896,6917,6937,6958,6977,6996,7017,7037,7056,7076,7098,7117,7136,7157,7178,7197,7218,7237,7258,7277,7297,7316,7337,7357,7377,7396,7416,7437,7457,7477,7498,7516,7537,7557,7577,7597,7617,7636,7657,7677,7697,7716,7737,7757,7778,7797,7816,7836,7856,7877,7897,7916,7937,7956,7977,7997,8017,8036,8058,8077,8098,8117,8137,8156,8176,8197,8218,8237,8257,8277,8297,8316],"xSR":741.5,"ySR":469.95,"xT1":424.9,"yT1":0,"xT2":1058.1,"yT2":0,"toosoon":0,"cond_shown":"randomdotsizeEA","ratio_trial":750,"smaller_num":"3","larger_num":"4","correct_side":1,"subjID":"MicaelaReyesPerez8","gender":"1","age":"11","school":"6"},{"start_time":1551883046303,"click_time":1551883047147,"finger_time":1551883047028,"fix_duration":755.8628447111994,"trial":51,"RT":725,"MT":119,"sideResp":1,"stimulus":"img/750/equaldotanddens/L/8_Ratio_750_L_4_R_3.png","xmouse":[788,788,788,788,788,788,788,788,788,788,788,788,788,788,788,788,788,788,788,788,788,788,788,788,788,788,788,788,788,788,788,788,787,787,787,784,764,747,724,671,624,568,489],"ymouse":[546,546,546,546,546,546,546,546,546,546,546,546,546,546,546,546,546,546,546,546,546,546,546,546,546,546,546,546,546,546,546,546,545,532,512,483,393,338,286,201,140,82,15],"timestamp_mouse":[10,24,44,63,83,103,124,143,165,183,203,224,243,265,283,305,325,345,364,384,403,425,445,464,485,503,524,545,563,585,604,623,645,663,685,704,725,743,764,784,804,824,844],"xSR":741.5,"ySR":469.95,"xT1":424.9,"yT1":0,"xT2":1058.1,"yT2":0,"toosoon":0,"cond_shown":"equaldotanddens","ratio_trial":750,"smaller_num":"3","larger_num":"4","correct_side":1,"subjID":"MicaelaReyesPerez8","gender":"1","age":"11","school":"6"},{"start_time":1551883049111,"click_time":1551883050067,"finger_time":1551883049766,"fix_duration":1063.9440681730157,"trial":52,"RT":655,"MT":301,"sideResp":2,"stimulus":"img/900/equaldotanddens/L/8_Ratio_900_L_20_R_18.png","xmouse":[791,791,791,791,791,791,791,791,791,791,791,792,792,792,792,792,793,793,793,793,793,793,793,793,793,793,793,793,793,793,793,799,811,826,845,898,1035,1090,1104,1108,1110,1117,1120,1123,1125,1128,1128,1123],"ymouse":[495,495,494,493,493,493,493,493,492,492,492,492,492,491,491,491,489,489,489,489,489,489,489,489,489,489,489,489,489,489,488,481,468,451,432,387,271,225,212,207,202,183,173,163,153,138,112,97],"timestamp_mouse":[16,36,57,76,96,117,135,157,177,197,215,236,255,276,296,316,337,356,377,396,417,435,456,477,495,517,537,557,575,597,615,635,655,676,696,717,736,755,775,795,816,835,857,876,895,917,936,956],"xSR":741.5,"ySR":469.95,"xT1":424.9,"yT1":0,"xT2":1058.1,"yT2":0,"toosoon":0,"cond_shown":"equaldotanddens","ratio_trial":900,"smaller_num":"18","larger_num":"20","correct_side":1,"subjID":"MicaelaReyesPerez8","gender":"1","age":"11","school":"6"},{"start_time":1551883052810,"click_time":1551883053607,"finger_time":1551883053447,"fix_duration":362.5878513013989,"trial":53,"RT":637,"MT":160,"sideResp":1,"stimulus":"img/900/randomdotsizeEA/R/11_Ratio_900_L_18_R_20.png","xmouse":[800,800,800,800,800,800,800,800,800,800,800,800,800,800,800,800,800,800,800,800,800,800,800,800,800,800,800,800,801,810,815,826,836,836,824,799,758,633,554,471],"ymouse":[498,498,498,498,498,498,498,498,498,498,498,498,498,498,498,498,498,498,498,498,498,498,498,498,498,498,498,497,495,477,470,443,399,372,336,294,248,160,104,54],"timestamp_mouse":[16,36,57,78,97,118,137,157,177,198,216,238,257,278,297,317,338,357,376,397,416,437,458,476,496,517,538,557,577,597,616,637,658,676,696,717,737,757,778,797],"xSR":741.5,"ySR":469.95,"xT1":424.9,"yT1":0,"xT2":1058.1,"yT2":0,"toosoon":0,"cond_shown":"randomdotsizeEA","ratio_trial":900,"smaller_num":"18","larger_num":"20","correct_side":2,"subjID":"MicaelaReyesPerez8","gender":"1","age":"11","school":"6"},{"start_time":1551883055587,"click_time":1551883056267,"finger_time":1551883056148,"fix_duration":878.2342865958954,"trial":54,"RT":561,"MT":119,"sideResp":2,"stimulus":"img/250/equaldotsize/R/13_Ratio_250_L_2_R_8.png","xmouse":[797,798,798,798,798,798,798,801,804,810,810,810,810,810,810,810,810,810,810,810,810,810,810,810,810,812,819,839,868,948,981,1007,1011,1018,1085],"ymouse":[510,509,509,509,509,509,509,508,502,494,494,494,494,494,494,494,494,494,494,494,494,494,493,493,493,493,491,482,467,373,305,223,191,169,64],"timestamp_mouse":[8,20,39,61,80,100,121,140,160,180,201,219,241,261,280,300,320,341,360,379,401,420,440,460,480,499,519,540,561,579,600,619,640,660,680],"xSR":741.5,"ySR":469.95,"xT1":424.9,"yT1":0,"xT2":1058.1,"yT2":0,"toosoon":0,"cond_shown":"equaldotsize","ratio_trial":250,"smaller_num":"2","larger_num":"8","correct_side":2,"subjID":"MicaelaReyesPerez8","gender":"1","age":"11","school":"6"},{"start_time":1551883057710,"click_time":1551883058427,"finger_time":1551883058327,"fix_duration":302.97707466708323,"trial":55,"RT":617,"MT":100,"sideResp":1,"stimulus":"img/250/randomdotsizeEA/L/14_Ratio_250_L_12_R_3.png","xmouse":[820,820,820,820,820,820,820,820,820,820,819,819,819,819,819,818,818,818,818,818,818,818,818,818,818,818,818,816,810,799,770,725,582,481,445,430],"ymouse":[540,540,540,539,539,539,539,539,539,539,538,537,536,536,536,534,534,533,533,533,532,532,532,532,532,531,530,524,513,496,462,413,270,169,122,97],"timestamp_mouse":[17,37,56,76,98,117,138,156,177,197,217,238,257,278,296,317,337,357,377,398,417,438,457,476,498,517,537,557,577,597,617,638,657,678,696,717],"xSR":741.5,"ySR":469.95,"xT1":424.9,"yT1":0,"xT2":1058.1,"yT2":0,"toosoon":0,"cond_shown":"randomdotsizeEA","ratio_trial":250,"smaller_num":"3","larger_num":"12","correct_side":1,"subjID":"MicaelaReyesPerez8","gender":"1","age":"11","school":"6"},{"start_time":1551883062029,"click_time":1551883063006,"finger_time":1551883062628,"fix_duration":1498.6097776556753,"trial":56,"RT":599,"MT":378,"sideResp":1,"stimulus":"img/250/equaldotsize/L/2_Ratio_250_L_16_R_4.png","xmouse":[794,794,793,793,793,793,793,792,792,792,792,792,792,792,792,792,792,792,792,792,792,792,792,792,792,792,791,791,787,775,742,699,563,489,444,432,431,431,430,430,430,431,435,438,442,447,455,458,462,463],"ymouse":[517,517,516,514,513,511,511,509,509,509,508,507,507,506,505,505,504,503,503,502,502,501,501,499,499,497,496,495,487,477,454,424,332,282,246,237,236,226,217,211,206,202,192,186,180,169,151,137,107,93],"timestamp_mouse":[1,19,39,57,77,98,118,139,159,178,198,218,238,258,278,297,317,338,358,377,398,418,437,458,479,498,518,538,558,578,599,618,639,657,678,699,718,738,758,778,798,818,838,857,879,898,918,938,958,977],"xSR":741.5,"ySR":469.95,"xT1":424.9,"yT1":0,"xT2":1058.1,"yT2":0,"toosoon":0,"cond_shown":"equaldotsize","ratio_trial":250,"smaller_num":"4","larger_num":"16","correct_side":1,"subjID":"MicaelaReyesPerez8","gender":"1","age":"11","school":"6"},{"start_time":1551883064180,"click_time":1551883065267,"finger_time":1551883064907,"fix_duration":612.4656277905045,"trial":57,"RT":727,"MT":360,"sideResp":1,"stimulus":"img/500/randomdotsizeEA/R/1_Ratio_500_L_9_R_18.png","xmouse":[797,797,797,797,797,797,797,797,797,797,797,797,797,797,797,797,797,797,797,797,797,797,797,797,797,797,797,797,797,797,797,797,797,797,797,798,793,788,744,694,581,538,519,511,508,505,504,504,504,504,504,504,504,504,503],"ymouse":[501,501,501,501,501,501,501,501,501,501,501,501,501,501,501,501,501,501,501,501,501,501,501,501,501,501,501,501,501,501,501,501,501,501,497,484,461,450,371,302,180,141,124,115,112,106,105,104,104,104,104,104,104,102,98],"timestamp_mouse":[8,36,46,68,86,106,127,147,168,186,208,227,246,268,286,308,328,346,368,387,408,428,448,467,487,508,526,547,567,586,606,626,648,666,686,706,727,746,767,787,808,828,847,866,887,906,927,946,966,987,1007,1027,1047,1067,1087],"xSR":741.5,"ySR":469.95,"xT1":424.9,"yT1":0,"xT2":1058.1,"yT2":0,"toosoon":0,"cond_shown":"randomdotsizeEA","ratio_trial":500,"smaller_num":"9","larger_num":"18","correct_side":2,"subjID":"MicaelaReyesPerez8","gender":"1","age":"11","school":"6"},{"start_time":1551883068995,"click_time":1551883070188,"finger_time":1551883069627,"fix_duration":867.0087109423802,"trial":58,"RT":632,"MT":561,"sideResp":1,"stimulus":"img/900/equaldotsize/L/1_Ratio_900_L_10_R_9.png","xmouse":[798,798,798,798,798,798,798,798,798,798,798,798,798,798,798,798,798,798,798,798,798,798,798,798,798,798,798,798,798,802,817,839,864,893,929,930,930,929,919,889,871,848,822,770,675,652,643,639,639,637,633,626,614,598,565,554,544,536,526,510],"ymouse":[499,499,499,499,499,499,499,499,499,499,499,499,499,499,499,499,499,499,499,499,499,499,499,499,499,499,499,499,499,494,479,456,426,398,357,351,347,340,326,298,288,274,260,231,190,181,178,177,177,177,177,176,170,162,139,128,119,110,100,84],"timestamp_mouse":[11,42,51,71,92,112,131,152,173,191,212,233,253,272,292,312,331,352,371,391,412,431,451,472,492,511,532,552,571,592,612,632,651,673,692,711,731,752,771,793,811,832,852,871,893,911,932,952,971,992,1011,1032,1052,1072,1092,1111,1132,1152,1172,1193],"xSR":741.5,"ySR":469.95,"xT1":424.9,"yT1":0,"xT2":1058.1,"yT2":0,"toosoon":0,"cond_shown":"equaldotsize","ratio_trial":900,"smaller_num":"9","larger_num":"10","correct_side":1,"subjID":"MicaelaReyesPerez8","gender":"1","age":"11","school":"6"},{"start_time":1551883071394,"click_time":1551883072327,"finger_time":1551883072067,"fix_duration":624.2442961622088,"trial":59,"RT":673,"MT":260,"sideResp":2,"stimulus":"img/750/equaldotsize/R/2_Ratio_750_L_6_R_8.png","xmouse":[830,830,830,830,830,830,830,830,830,830,830,830,830,830,830,830,830,830,829,829,827,827,827,826,826,825,824,824,824,823,823,823,825,839,852,883,892,902,911,928,932,938,948,970,996,1056,1073],"ymouse":[513,513,513,513,513,513,513,513,513,513,513,513,513,513,512,512,512,512,511,511,509,509,509,508,507,505,505,504,503,502,496,490,480,456,430,362,338,315,294,254,237,217,198,166,139,99,90],"timestamp_mouse":[13,34,53,73,93,114,134,153,173,194,213,232,254,273,294,313,334,353,373,393,413,433,454,473,492,512,533,553,573,593,612,633,653,673,693,714,733,753,773,794,812,833,852,872,893,913,933],"xSR":741.5,"ySR":469.95,"xT1":424.9,"yT1":0,"xT2":1058.1,"yT2":0,"toosoon":0,"cond_shown":"equaldotsize","ratio_trial":750,"smaller_num":"6","larger_num":"8","correct_side":2,"subjID":"MicaelaReyesPerez8","gender":"1","age":"11","school":"6"},{"start_time":1551883075218,"click_time":1551883076227,"finger_time":1551883075907,"fix_duration":1470.9924476846222,"trial":60,"RT":689,"MT":320,"sideResp":1,"stimulus":"img/750/equaldotsize/L/9_Ratio_750_L_4_R_3.png","xmouse":[816,816,816,816,816,816,816,816,816,816,816,816,816,816,816,816,816,816,816,816,816,816,816,816,816,816,816,816,816,816,816,816,816,815,797,767,722,681,663,658,655,652,648,641,621,609,592,571,554,538,524],"ymouse":[519,518,518,517,517,517,516,516,516,516,515,515,515,515,514,513,513,512,512,510,508,508,507,505,504,503,502,502,502,501,501,499,497,493,427,340,232,168,142,128,125,122,117,111,100,98,92,86,80,75,71],"timestamp_mouse":[12,38,49,68,89,110,130,149,169,189,209,228,249,269,289,309,329,349,368,388,409,430,449,469,490,509,528,549,570,590,609,629,649,669,689,708,728,749,769,788,809,828,850,870,890,909,929,948,969,989,1009],"xSR":741.5,"ySR":469.95,"xT1":424.9,"yT1":0,"xT2":1058.1,"yT2":0,"toosoon":0,"cond_shown":"equaldotsize","ratio_trial":750,"smaller_num":"3","larger_num":"4","correct_side":1,"subjID":"MicaelaReyesPerez8","gender":"1","age":"11","school":"6"},{"start_time":1551883078991,"click_time":1551883080487,"finger_time":1551883079667,"fix_duration":343.7880185433776,"trial":61,"RT":676,"MT":820,"sideResp":2,"stimulus":"img/900/randomdotsizeEA/R/7_Ratio_900_L_9_R_10.png","xmouse":[776,776,776,776,776,776,776,776,776,776,776,776,776,776,776,776,776,776,776,776,776,776,776,776,776,776,776,776,776,776,776,776,776,778,782,790,811,824,839,852,872,906,926,948,969,985,1001,1007,1016,1019,1031,1061,1079,1105,1195,1195,1195,1195,1195,1195,1195,1195,1195,1342,1336,1322,1283,1251,1208,1164,1111,1110,1110,1113,1119],"ymouse":[480,480,480,480,480,480,480,480,480,480,480,480,480,480,480,480,480,480,480,480,480,480,480,480,480,480,480,480,480,480,480,478,472,466,457,443,402,381,359,342,315,282,270,260,251,244,233,227,217,215,201,175,160,136,23,23,23,23,23,23,23,23,23,3,13,34,80,97,108,114,116,116,116,105,93],"timestamp_mouse":[32,36,57,76,95,116,137,155,176,197,216,235,256,275,296,316,335,357,375,397,416,435,457,475,496,516,535,557,576,595,617,635,656,676,696,716,735,756,776,795,815,836,857,876,896,917,935,956,976,995,1015,1036,1055,1076,1096,1116,1137,1156,1176,1196,1215,1236,1256,1276,1296,1316,1337,1357,1377,1397,1416,1436,1455,1477,1496],"xSR":741.5,"ySR":469.95,"xT1":424.9,"yT1":0,"xT2":1058.1,"yT2":0,"toosoon":0,"cond_shown":"randomdotsizeEA","ratio_trial":900,"smaller_num":"9","larger_num":"10","correct_side":2,"subjID":"MicaelaReyesPerez8","gender":"1","age":"11","school":"6"},{"start_time":1551883085952,"click_time":1551883086667,"finger_time":1551883086548,"fix_duration":744.0908192013534,"trial":62,"RT":596,"MT":119,"sideResp":1,"stimulus":"img/250/randomdotsizeEA/L/7_Ratio_250_L_8_R_2.png","xmouse":[840,840,840,840,840,840,840,839,837,833,833,833,833,833,832,832,832,832,832,832,832,832,832,832,832,832,829,823,813,781,762,740,718,618,539,467],"ymouse":[542,542,542,542,542,542,542,542,541,540,540,540,540,540,540,540,540,540,540,540,540,540,540,540,540,538,533,525,512,467,440,409,378,247,153,79],"timestamp_mouse":[16,40,54,74,95,114,136,155,174,196,216,235,256,275,295,314,336,356,375,396,414,434,456,474,494,515,535,556,574,596,615,636,655,675,694,715],"xSR":741.5,"ySR":469.95,"xT1":424.9,"yT1":0,"xT2":1058.1,"yT2":0,"toosoon":0,"cond_shown":"randomdotsizeEA","ratio_trial":250,"smaller_num":"2","larger_num":"8","correct_side":1,"subjID":"MicaelaReyesPerez8","gender":"1","age":"11","school":"6"},{"start_time":1551883089875,"click_time":1551883090846,"finger_time":1551883090548,"fix_duration":906.116118718504,"trial":63,"RT":673,"MT":298,"sideResp":2,"stimulus":"img/750/equaldotanddens/R/4_Ratio_750_L_15_R_20.png","xmouse":[819,819,819,819,819,819,819,819,816,814,811,811,811,811,811,811,811,811,811,811,811,811,811,811,811,811,811,811,811,811,811,818,839,1078,1209,1310,1370,1390,1395,1395,1395,1395,1395,1381,1360,1316,1254,1180,1100],"ymouse":[554,554,554,554,554,554,554,554,554,555,555,555,555,555,555,555,555,555,555,555,555,555,555,555,555,555,555,555,555,555,555,554,540,392,319,247,177,134,108,107,107,107,107,105,103,93,76,55,35],"timestamp_mouse":[13,35,53,72,93,112,133,152,172,193,212,231,253,271,293,312,331,352,371,392,413,433,453,473,492,513,532,552,571,591,613,631,652,673,692,712,732,753,771,792,812,831,852,872,891,912,931,952,971],"xSR":741.5,"ySR":469.95,"xT1":424.9,"yT1":0,"xT2":1058.1,"yT2":0,"toosoon":0,"cond_shown":"equaldotanddens","ratio_trial":750,"smaller_num":"15","larger_num":"20","correct_side":2,"subjID":"MicaelaReyesPerez8","gender":"1","age":"11","school":"6"},{"start_time":1551883093188,"click_time":1551883094068,"finger_time":1551883093867,"fix_duration":1400.6182639365934,"trial":64,"RT":679,"MT":201,"sideResp":2,"stimulus":"img/250/equaldotanddens/R/8_Ratio_250_L_1_R_4.png","xmouse":[815,815,815,815,815,815,815,814,814,814,814,814,813,813,813,813,813,813,813,813,813,813,813,813,813,813,813,813,813,813,813,813,814,852,903,955,1003,1048,1054,1058,1062,1067,1083,1092],"ymouse":[509,509,509,509,509,509,509,509,509,509,509,509,509,509,509,509,509,509,509,509,509,509,509,509,509,509,509,509,509,509,509,509,505,456,405,344,287,206,184,168,154,142,111,95],"timestamp_mouse":[19,41,59,79,98,120,140,159,178,199,219,239,258,279,299,318,338,358,380,398,419,440,458,478,498,518,540,559,579,600,618,638,658,679,698,719,738,759,779,799,818,838,859,880],"xSR":741.5,"ySR":469.95,"xT1":424.9,"yT1":0,"xT2":1058.1,"yT2":0,"toosoon":0,"cond_shown":"equaldotanddens","ratio_trial":250,"smaller_num":"1","larger_num":"4","correct_side":2,"subjID":"MicaelaReyesPerez8","gender":"1","age":"11","school":"6"},{"start_time":1551883095637,"click_time":1551883096827,"finger_time":1551883096447,"fix_duration":250,"trial":65,"RT":810,"MT":380,"sideResp":1,"stimulus":"img/900/randomdotsizeEA/L/10_Ratio_900_L_20_R_18.png","xmouse":[786,786,786,786,786,786,786,786,786,786,786,786,786,786,786,786,786,786,786,786,786,786,786,786,786,786,786,786,786,785,785,784,784,783,782,782,781,779,776,771,743,719,679,638,604,571,567,566,565,563,558,557,556,556,556,556,548,538,522,508],"ymouse":[524,524,524,524,524,524,524,524,524,524,524,524,524,524,524,524,524,524,524,524,523,523,523,523,523,523,523,523,523,523,522,522,522,520,520,520,518,517,514,508,462,422,374,326,288,246,239,237,234,232,217,207,196,184,174,166,143,126,108,92],"timestamp_mouse":[11,41,50,69,89,109,129,150,169,189,210,229,251,269,290,310,330,350,370,389,410,429,450,470,491,510,530,550,569,590,609,629,649,669,689,710,730,750,770,789,810,830,849,870,889,910,929,949,970,989,1010,1029,1051,1069,1090,1111,1130,1150,1170,1190],"xSR":741.5,"ySR":469.95,"xT1":424.9,"yT1":0,"xT2":1058.1,"yT2":0,"toosoon":0,"cond_shown":"randomdotsizeEA","ratio_trial":900,"smaller_num":"18","larger_num":"20","correct_side":1,"subjID":"MicaelaReyesPerez8","gender":"1","age":"11","school":"6"},{"start_time":1551883099713,"click_time":1551883100907,"finger_time":1551883100347,"fix_duration":663.6514622760758,"trial":66,"RT":634,"MT":560,"sideResp":1,"stimulus":"img/500/equaldotanddens/L/7_Ratio_500_L_10_R_5.png","xmouse":[813,813,813,813,812,808,806,803,802,800,799,799,798,798,798,797,797,797,797,797,797,796,796,795,794,794,793,793,790,786,773,738,640,611,595,588,577,535,492,428,364,309,297,297,297,299,309,335,346,351,357,360,378,386,392,396,398,406,415,428],"ymouse":[528,528,528,528,528,531,532,534,534,535,536,536,537,537,537,537,537,537,537,537,537,537,537,538,538,538,538,538,536,