[{"start_time":1551900674882,"click_time":1551900676196,"finger_time":1551900675837,"fix_duration":802.6783217069699,"trial":0,"RT":955,"MT":359,"sideResp":2,"stimulus":"img/750/equaldotsize/R/2_Ratio_750_L_6_R_8.png","xmouse":[806,806,806,806,806,806,806,806,806,806,806,806,806,806,806,806,806,806,806,806,806,806,806,806,806,805,804,804,804,804,804,804,804,804,804,804,804,804,804,804,804,804,804,804,808,813,821,839,862,911,932,950,961,966,972,977,985,1005,1029,1029,1029,1029,1029,1029,1109],"ymouse":[526,526,526,526,526,526,526,526,526,526,526,526,526,526,526,526,526,526,526,526,526,526,526,526,526,526,525,524,523,523,523,523,523,523,523,523,523,523,523,523,523,522,520,511,494,478,458,413,345,194,139,102,82,67,47,39,30,16,2,2,2,2,2,2,4],"timestamp_mouse":[14,59,74,95,114,135,155,174,195,216,235,256,274,295,314,335,354,375,394,415,434,455,475,494,514,535,554,574,595,614,635,654,674,695,715,735,755,774,795,814,834,854,875,895,915,934,955,974,994,1015,1034,1055,1075,1095,1114,1135,1154,1174,1196,1214,1234,1255,1275,1294,1314],"xSR":741.5,"ySR":501.8,"xT1":424.9,"yT1":0,"xT2":1058.1,"yT2":0,"toosoon":0,"cond_shown":"equaldotsize","ratio_trial":750,"smaller_num":"6","larger_num":"8","correct_side":2,"subjID":"miguelacevedo11","gender":"0","age":"0","school":"6","test":{"fix_dur":[250,1500],"timestim":300,"targets_dim":[100,100],"targets_relative_coord":[0.3,0.7],"size_stim":[880,420],"start_dim":[100,100],"size_start":[300,300],"size_fix":60,"samplingrate":20,"img_types":["equaldotsize","equaldotanddens","randomdotsizeEA"],"ratios":[250,500,750,900],"rep_conds":9,"nTrials":120,"trials_to_rest":500,"Trials_order":[18,78,99,107,35,106,103,66,28,47,68,71,41,30,117,9,26,36,119,15,22,56,83,37,1,93,95,10,3,102,5,70,11,42,77,59,76,118,48,46,49,75,69,54,113,64,60,17,62,100,7,13,27,91,65,115,40,53,55,14,86,6,92,108,112,43,116,57,79,21,97,111,67,84,32,109,52,34,44,2,25,0,82,63,74,12,96,104,31,73,81,33,88,105,8,20,19,50,114,85,61,90,38,101,39,72,23,80,98,45,51,94,110,16,4,89,24,87,58,29],"cond_shown":["equaldotsize","equaldotsize","equaldotsize","randomdotsizeEA","randomdotsizeEA","equaldotanddens","equaldotanddens","equaldotsize","equaldotanddens","randomdotsizeEA","randomdotsizeEA","randomdotsizeEA","randomdotsizeEA","equaldotsize","equaldotsize","equaldotsize","randomdotsizeEA","equaldotsize","randomdotsizeEA","equaldotsize","equaldotanddens","randomdotsizeEA","randomdotsizeEA","equaldotanddens","equaldotanddens","equaldotsize","randomdotsizeEA","equaldotanddens","equaldotsize","equaldotsize","randomdotsizeEA","equaldotanddens","randomdotsizeEA","equaldotsize","randomdotsizeEA","randomdotsizeEA","equaldotanddens","equaldotanddens","equaldotsize","equaldotanddens","equaldotanddens","equaldotsize","equaldotsize","equaldotsize","randomdotsizeEA","equaldotanddens","equaldotsize","randomdotsizeEA","randomdotsizeEA","equaldotanddens","equaldotanddens","equaldotanddens","equaldotsize","equaldotanddens","randomdotsizeEA","equaldotanddens","equaldotanddens","randomdotsizeEA","equaldotanddens","randomdotsizeEA","randomdotsizeEA","equaldotsize","randomdotsizeEA","equaldotsize","equaldotanddens","equaldotanddens","randomdotsizeEA","equaldotsize","equaldotanddens","equaldotsize","equaldotanddens","equaldotsize","equaldotanddens","equaldotsize","randomdotsizeEA","equaldotanddens","equaldotanddens","equaldotanddens","randomdotsizeEA","randomdotsizeEA","equaldotanddens","equaldotsize","equaldotanddens","equaldotsize","randomdotsizeEA","equaldotsize","equaldotsize","randomdotsizeEA","equaldotanddens","equaldotanddens","equaldotsize","equaldotsize","equaldotanddens","equaldotsize","randomdotsizeEA","randomdotsizeEA","equaldotanddens","randomdotsizeEA","equaldotsize","equaldotanddens","equaldotanddens","equaldotsize","randomdotsizeEA","randomdotsizeEA","equaldotsize","equaldotsize","randomdotsizeEA","randomdotsizeEA","randomdotsizeEA","equaldotsize","equaldotsize","equaldotanddens","randomdotsizeEA","equaldotanddens","equaldotanddens","randomdotsizeEA","equaldotsize","equaldotsize","equaldotanddens","randomdotsizeEA"],"ratio_trial":[750,750,500,900,900,900,750,750,500,900,750,900,500,750,900,900,250,250,900,500,900,750,900,250,250,900,900,900,500,750,500,900,900,750,500,900,500,900,250,900,250,500,900,750,500,500,250,500,250,500,750,250,500,750,500,750,500,500,750,250,250,750,750,250,500,750,750,900,750,900,250,500,750,250,750,250,500,900,750,250,250,250,900,500,250,250,250,750,750,250,900,900,500,900,750,750,750,250,750,250,250,750,250,500,500,250,900,750,250,900,500,900,250,500,500,500,250,500,900,500],"smaller_num":["6","6","4","18","9","9","18","3","9","9","18","9","9","9","18","9","2","2","18","2","18","3","9","4","3","18","9","18","2","6","5","9","18","18","2","9","1","9","4","18","2","4","9","6","6","2","6","10","4","5","15","2","1","6","2","6","1","1","3","3","2","9","15","3","9","15","3","18","3","9","5","5","15","3","3","3","6","18","9","2","2","3","9","9","3","2","6","3","6","4","18","18","3","18","6","3","9","3","15","3","6","6","6","5","2","3","18","6","4","18","2","18","4","3","9","6","3","1","9","6"],"larger_num":["8","8","8","20","10","10","24","4","18","10","24","10","18","12","20","10","8","8","20","4","20","4","10","16","12","20","10","20","4","8","10","10","20","24","4","10","2","10","16","20","8","8","10","8","12","4","24","20","16","10","20","8","2","8","4","8","2","2","4","12","8","12","20","12","18","20","4","20","4","10","20","10","20","12","4","12","12","20","12","8","8","12","10","18","12","8","24","4","8","16","20","20","6","20","8","4","12","12","20","12","24","8","24","10","4","12","20","8","16","20","4","20","16","6","18","12","12","2","10","12"],"correct_side":[2,1,1,2,2,2,1,1,2,2,1,2,2,2,2,1,2,1,1,1,1,1,1,2,1,1,2,2,2,1,2,2,1,1,1,2,2,2,1,1,1,1,2,1,1,1,2,2,1,1,2,1,2,1,1,1,2,2,1,2,2,2,2,2,2,2,1,1,1,1,2,2,2,1,1,2,1,1,2,1,1,1,2,2,1,1,2,1,1,2,2,1,2,1,1,1,2,1,2,2,2,2,1,1,1,1,1,1,1,1,2,2,1,2,2,1,2,2,1,1],"img_shown":["img/750/equaldotsize/R/2_Ratio_750_L_6_R_8.png","img/750/equaldotsize/L/13_Ratio_750_L_8_R_6.png","img/500/equaldotsize/L/8_Ratio_500_L_8_R_4.png","img/900/randomdotsizeEA/R/11_Ratio_900_L_18_R_20.png","img/900/randomdotsizeEA/R/6_Ratio_900_L_9_R_10.png","img/900/equaldotanddens/R/3_Ratio_900_L_9_R_10.png","img/750/equaldotanddens/L/6_Ratio_750_L_24_R_18.png","img/750/equaldotsize/L/9_Ratio_750_L_4_R_3.png","img/500/equaldotanddens/R/6_Ratio_500_L_9_R_18.png","img/900/randomdotsizeEA/R/5_Ratio_900_L_9_R_10.png","img/750/randomdotsizeEA/L/6_Ratio_750_L_24_R_18.png","img/900/randomdotsizeEA/R/3_Ratio_900_L_9_R_10.png","img/500/randomdotsizeEA/R/6_Ratio_500_L_9_R_18.png","img/750/equaldotsize/R/15_Ratio_750_L_9_R_12.png","img/900/equaldotsize/R/9_Ratio_900_L_18_R_20.png","img/900/equaldotsize/L/1_Ratio_900_L_10_R_9.png","img/250/randomdotsizeEA/R/13_Ratio_250_L_2_R_8.png","img/250/equaldotsize/L/7_Ratio_250_L_8_R_2.png","img/900/randomdotsizeEA/L/10_Ratio_900_L_20_R_18.png","img/500/equaldotsize/L/10_Ratio_500_L_4_R_2.png","img/900/equaldotanddens/L/8_Ratio_900_L_20_R_18.png","img/750/randomdotsizeEA/L/10_Ratio_750_L_4_R_3.png","img/900/randomdotsizeEA/L/1_Ratio_900_L_10_R_9.png","img/250/equaldotanddens/R/10_Ratio_250_L_4_R_16.png","img/250/equaldotanddens/L/15_Ratio_250_L_12_R_3.png","img/900/equaldotsize/L/2_Ratio_900_L_20_R_18.png","img/900/randomdotsizeEA/R/15_Ratio_900_L_9_R_10.png","img/900/equaldotanddens/R/11_Ratio_900_L_18_R_20.png","img/500/equaldotsize/R/9_Ratio_500_L_2_R_4.png","img/750/equaldotsize/L/14_Ratio_750_L_8_R_6.png","img/500/randomdotsizeEA/R/14_Ratio_500_L_5_R_10.png","img/900/equaldotanddens/R/7_Ratio_900_L_9_R_10.png","img/900/randomdotsizeEA/L/8_Ratio_900_L_20_R_18.png","img/750/equaldotsize/L/6_Ratio_750_L_24_R_18.png","img/500/randomdotsizeEA/L/10_Ratio_500_L_4_R_2.png","img/900/randomdotsizeEA/R/15_Ratio_900_L_9_R_10.png","img/500/equaldotanddens/R/12_Ratio_500_L_1_R_2.png","img/900/equaldotanddens/R/5_Ratio_900_L_9_R_10.png","img/250/equaldotsize/L/2_Ratio_250_L_16_R_4.png","img/900/equaldotanddens/L/10_Ratio_900_L_20_R_18.png","img/250/equaldotanddens/L/7_Ratio_250_L_8_R_2.png","img/500/equaldotsize/L/8_Ratio_500_L_8_R_4.png","img/900/equaldotsize/R/3_Ratio_900_L_9_R_10.png","img/750/equaldotsize/L/14_Ratio_750_L_8_R_6.png","img/500/randomdotsizeEA/L/11_Ratio_500_L_12_R_6.png","img/500/equaldotanddens/L/10_Ratio_500_L_4_R_2.png","img/250/equaldotsize/R/6_Ratio_250_L_6_R_24.png","img/500/randomdotsizeEA/R/3_Ratio_500_L_10_R_20.png","img/250/randomdotsizeEA/L/2_Ratio_250_L_16_R_4.png","img/500/equaldotanddens/L/7_Ratio_500_L_10_R_5.png","img/750/equaldotanddens/R/4_Ratio_750_L_15_R_20.png","img/250/equaldotanddens/L/7_Ratio_250_L_8_R_2.png","img/500/equaldotsize/R/15_Ratio_500_L_1_R_2.png","img/750/equaldotanddens/L/13_Ratio_750_L_8_R_6.png","img/500/randomdotsizeEA/L/5_Ratio_500_L_4_R_2.png","img/750/equaldotanddens/L/14_Ratio_750_L_8_R_6.png","img/500/equaldotanddens/R/12_Ratio_500_L_1_R_2.png","img/500/randomdotsizeEA/R/15_Ratio_500_L_1_R_2.png","img/750/equaldotanddens/L/9_Ratio_750_L_4_R_3.png","img/250/randomdotsizeEA/R/4_Ratio_250_L_3_R_12.png","img/250/randomdotsizeEA/R/13_Ratio_250_L_2_R_8.png","img/750/equaldotsize/R/15_Ratio_750_L_9_R_12.png","img/750/randomdotsizeEA/R/4_Ratio_750_L_15_R_20.png","img/250/equaldotsize/R/9_Ratio_250_L_3_R_12.png","img/500/equaldotanddens/R/1_Ratio_500_L_9_R_18.png","img/750/equaldotanddens/R/3_Ratio_750_L_15_R_20.png","img/750/randomdotsizeEA/L/10_Ratio_750_L_4_R_3.png","img/900/equaldotsize/L/8_Ratio_900_L_20_R_18.png","img/750/equaldotanddens/L/10_Ratio_750_L_4_R_3.png","img/900/equaldotsize/L/1_Ratio_900_L_10_R_9.png","img/250/equaldotanddens/R/12_Ratio_250_L_5_R_20.png","img/500/equaldotsize/R/14_Ratio_500_L_5_R_10.png","img/750/equaldotanddens/R/3_Ratio_750_L_15_R_20.png","img/250/equaldotsize/L/15_Ratio_250_L_12_R_3.png","img/750/randomdotsizeEA/L/9_Ratio_750_L_4_R_3.png","img/250/equaldotanddens/R/9_Ratio_250_L_3_R_12.png","img/500/equaldotanddens/L/13_Ratio_500_L_12_R_6.png","img/900/equaldotanddens/L/4_Ratio_900_L_20_R_18.png","img/750/randomdotsizeEA/R/15_Ratio_750_L_9_R_12.png","img/250/randomdotsizeEA/L/3_Ratio_250_L_8_R_2.png","img/250/equaldotanddens/L/7_Ratio_250_L_8_R_2.png","img/250/equaldotsize/L/14_Ratio_250_L_12_R_3.png","img/900/equaldotanddens/R/3_Ratio_900_L_9_R_10.png","img/500/equaldotsize/R/6_Ratio_500_L_9_R_18.png","img/250/randomdotsizeEA/L/15_Ratio_250_L_12_R_3.png","img/250/equaldotsize/L/3_Ratio_250_L_8_R_2.png","img/250/equaldotsize/R/6_Ratio_250_L_6_R_24.png","img/750/randomdotsizeEA/L/10_Ratio_750_L_4_R_3.png","img/750/equaldotanddens/L/14_Ratio_750_L_8_R_6.png","img/250/equaldotanddens/R/10_Ratio_250_L_4_R_16.png","img/900/equaldotsize/R/11_Ratio_900_L_18_R_20.png","img/900/equaldotsize/L/8_Ratio_900_L_20_R_18.png","img/500/equaldotanddens/R/2_Ratio_500_L_3_R_6.png","img/900/equaldotsize/L/8_Ratio_900_L_20_R_18.png","img/750/randomdotsizeEA/L/13_Ratio_750_L_8_R_6.png","img/750/randomdotsizeEA/L/8_Ratio_750_L_4_R_3.png","img/750/equaldotanddens/R/15_Ratio_750_L_9_R_12.png","img/250/randomdotsizeEA/L/15_Ratio_250_L_12_R_3.png","img/750/equaldotsize/R/5_Ratio_750_L_15_R_20.png","img/250/equaldotanddens/R/11_Ratio_250_L_3_R_12.png","img/250/equaldotanddens/R/6_Ratio_250_L_6_R_24.png","img/750/equaldotsize/R/2_Ratio_750_L_6_R_8.png","img/250/randomdotsizeEA/L/5_Ratio_250_L_24_R_6.png","img/500/randomdotsizeEA/L/7_Ratio_500_L_10_R_5.png","img/500/equaldotsize/L/5_Ratio_500_L_4_R_2.png","img/250/equaldotsize/L/15_Ratio_250_L_12_R_3.png","img/900/randomdotsizeEA/L/4_Ratio_900_L_20_R_18.png","img/750/randomdotsizeEA/L/13_Ratio_750_L_8_R_6.png","img/250/randomdotsizeEA/L/2_Ratio_250_L_16_R_4.png","img/900/equaldotsize/L/2_Ratio_900_L_20_R_18.png","img/500/equaldotsize/R/9_Ratio_500_L_2_R_4.png","img/900/equaldotanddens/R/11_Ratio_900_L_18_R_20.png","img/250/randomdotsizeEA/L/2_Ratio_250_L_16_R_4.png","img/500/equaldotanddens/R/2_Ratio_500_L_3_R_6.png","img/500/equaldotanddens/R/1_Ratio_500_L_9_R_18.png","img/500/randomdotsizeEA/L/11_Ratio_500_L_12_R_6.png","img/250/equaldotsize/R/11_Ratio_250_L_3_R_12.png","img/500/equaldotsize/R/12_Ratio_500_L_1_R_2.png","img/900/equaldotanddens/L/1_Ratio_900_L_10_R_9.png","img/500/randomdotsizeEA/L/11_Ratio_500_L_12_R_6.png"],"Rat0":[["12_Ratio_0_L_9_R_0.png","13_Ratio_0_L_6_R_0.png","5_Ratio_0_L_2_R_0.png","6_Ratio_0_L_4_R_0.png","8_Ratio_0_L_6_R_0.png"],["1_Ratio_0_L_0_R_17.png","10_Ratio_0_L_0_R_22.png","11_Ratio_0_L_0_R_1.png","14_Ratio_0_L_0_R_24.png","15_Ratio_0_L_0_R_4.png","2_Ratio_0_L_0_R_5.png","3_Ratio_0_L_0_R_17.png","4_Ratio_0_L_0_R_7.png","7_Ratio_0_L_0_R_19.png","9_Ratio_0_L_0_R_15.png"]],"Rat250":[["1_Ratio_250_L_8_R_2.png","14_Ratio_250_L_12_R_3.png","15_Ratio_250_L_12_R_3.png","2_Ratio_250_L_16_R_4.png","3_Ratio_250_L_8_R_2.png","5_Ratio_250_L_24_R_6.png","7_Ratio_250_L_8_R_2.png"],["10_Ratio_250_L_4_R_16.png","11_Ratio_250_L_3_R_12.png","12_Ratio_250_L_5_R_20.png","13_Ratio_250_L_2_R_8.png","4_Ratio_250_L_3_R_12.png","6_Ratio_250_L_6_R_24.png","8_Ratio_250_L_1_R_4.png","9_Ratio_250_L_3_R_12.png"]],"Rat500":[["10_Ratio_500_L_4_R_2.png","11_Ratio_500_L_12_R_6.png","13_Ratio_500_L_12_R_6.png","4_Ratio_500_L_18_R_9.png","5_Ratio_500_L_4_R_2.png","7_Ratio_500_L_10_R_5.png","8_Ratio_500_L_8_R_4.png"],["1_Ratio_500_L_9_R_18.png","12_Ratio_500_L_1_R_2.png","14_Ratio_500_L_5_R_10.png","15_Ratio_500_L_1_R_2.png","2_Ratio_500_L_3_R_6.png","3_Ratio_500_L_10_R_20.png","6_Ratio_500_L_9_R_18.png","9_Ratio_500_L_2_R_4.png"]],"Rat750":[["1_Ratio_750_L_20_R_15.png","10_Ratio_750_L_4_R_3.png","13_Ratio_750_L_8_R_6.png","14_Ratio_750_L_8_R_6.png","6_Ratio_750_L_24_R_18.png","8_Ratio_750_L_4_R_3.png","9_Ratio_750_L_4_R_3.png"],["11_Ratio_750_L_12_R_16.png","12_Ratio_750_L_3_R_4.png","15_Ratio_750_L_9_R_12.png","2_Ratio_750_L_6_R_8.png","3_Ratio_750_L_15_R_20.png","4_Ratio_750_L_15_R_20.png","5_Ratio_750_L_15_R_20.png","7_Ratio_750_L_3_R_4.png"]],"Rat900":[["1_Ratio_900_L_10_R_9.png","10_Ratio_900_L_20_R_18.png","2_Ratio_900_L_20_R_18.png","4_Ratio_900_L_20_R_18.png","8_Ratio_900_L_20_R_18.png"],["11_Ratio_900_L_18_R_20.png","12_Ratio_900_L_18_R_20.png","13_Ratio_900_L_18_R_20.png","14_Ratio_900_L_18_R_20.png","15_Ratio_900_L_9_R_10.png","3_Ratio_900_L_9_R_10.png","5_Ratio_900_L_9_R_10.png","6_Ratio_900_L_9_R_10.png","7_Ratio_900_L_9_R_10.png","9_Ratio_900_L_18_R_20.png"]],"Rat1000":[["10_Ratio_1000_L_16_R_16.png","11_Ratio_1000_L_6_R_6.png","12_Ratio_1000_L_14_R_14.png","13_Ratio_1000_L_20_R_20.png","15_Ratio_1000_L_15_R_15.png","2_Ratio_1000_L_17_R_17.png","4_Ratio_1000_L_9_R_9.png","5_Ratio_1000_L_6_R_6.png","6_Ratio_1000_L_19_R_19.png","8_Ratio_1000_L_14_R_14.png","9_Ratio_1000_L_25_R_25.png"],["1_Ratio_1000_L_1_R_1.png","14_Ratio_1000_L_17_R_17.png","3_Ratio_1000_L_17_R_17.png","7_Ratio_1000_L_6_R_6.png"]]}},{"start_time":1551900678245,"click_time":1551900678978,"finger_time":1551900678596,"fix_duration":847.7587168792406,"trial":1,"RT":351,"MT":382,"sideResp":1,"stimulus":"img/750/equaldotsize/L/13_Ratio_750_L_8_R_6.png","xmouse":[798,798,798,798,798,798,798,798,798,798,798,798,798,798,799,799,794,732,704,683,662,638,605,596,594,593,593,593,592,587,577,564,541,531,524,520,514],"ymouse":[535,535,535,535,535,535,535,535,535,535,535,535,535,535,534,530,513,377,334,299,269,244,211,206,204,204,204,204,203,199,188,173,142,129,117,109,99],"timestamp_mouse":[11,32,63,71,92,112,132,152,172,192,212,231,251,272,292,312,332,351,372,391,411,432,451,471,491,512,532,551,572,591,611,631,651,671,692,711,732],"xSR":741.5,"ySR":469.95,"xT1":424.9,"yT1":0,"xT2":1058.1,"yT2":0,"toosoon":0,"cond_shown":"equaldotsize","ratio_trial":750,"smaller_num":"6","larger_num":"8","correct_side":1,"subjID":"miguelacevedo11","gender":"0","age":"0","school":"6"},{"start_time":1551900680348,"click_time":1551900681018,"finger_time":1551900680717,"fix_duration":250,"trial":2,"RT":369,"MT":301,"sideResp":1,"stimulus":"img/500/equaldotsize/L/8_Ratio_500_L_8_R_4.png","xmouse":[812,812,812,812,812,812,812,812,812,812,812,812,812,812,812,812,813,818,823,827,833,836,838,828,808,779,753,712,690,668,631,605,553,524],"ymouse":[509,509,509,509,509,509,509,509,509,509,509,509,509,509,509,508,505,486,469,453,425,401,335,294,246,198,168,137,126,115,100,91,68,57],"timestamp_mouse":[13,28,52,68,89,109,129,149,169,188,209,228,248,268,288,309,328,348,369,389,408,429,448,468,488,508,530,548,567,589,608,629,649,669],"xSR":741.5,"ySR":469.95,"xT1":424.9,"yT1":0,"xT2":1058.1,"yT2":0,"toosoon":0,"cond_shown":"equaldotsize","ratio_trial":500,"smaller_num":"4","larger_num":"8","correct_side":1,"subjID":"miguelacevedo11","gender":"0","age":"0","school":"6"},{"start_time":1551900683394,"click_time":1551900684476,"finger_time":1551900683977,"fix_duration":1476.3801552803375,"trial":3,"RT":583,"MT":499,"sideResp":2,"stimulus":"img/900/randomdotsizeEA/R/11_Ratio_900_L_18_R_20.png","xmouse":[788,788,788,788,788,788,788,788,788,788,788,788,788,788,788,788,788,788,788,788,788,788,788,788,788,788,787,786,786,787,794,803,809,827,849,913,932,957,971,984,1003,1013,1015,1017,1019,1022,1033,1038,1039,1041,1042,1049,1052,1056,1060],"ymouse":[492,492,492,492,492,492,492,492,492,492,492,492,492,492,492,492,492,492,492,492,492,492,492,492,492,492,489,483,471,449,425,371,339,292,252,179,160,139,128,115,82,69,65,62,62,61,57,54,52,51,49,49,47,46,44],"timestamp_mouse":[16,31,42,62,82,102,122,142,163,182,203,222,242,262,283,303,322,343,362,383,403,423,442,463,483,502,523,543,563,583,603,622,643,662,683,704,722,742,763,782,803,822,842,862,882,903,922,942,962,983,1003,1022,1042,1062,1082],"xSR":741.5,"ySR":469.95,"xT1":424.9,"yT1":0,"xT2":1058.1,"yT2":0,"toosoon":0,"cond_shown":"randomdotsizeEA","ratio_trial":900,"smaller_num":"18","larger_num":"20","correct_side":2,"subjID":"miguelacevedo11","gender":"0","age":"0","school":"6"},{"start_time":1551900686927,"click_time":1551900687777,"finger_time":1551900687297,"fix_duration":1290.796110713437,"trial":4,"RT":370,"MT":480,"sideResp":2,"stimulus":"img/900/randomdotsizeEA/R/6_Ratio_900_L_9_R_10.png","xmouse":[798,798,798,798,798,799,799,799,799,799,799,799,799,799,799,799,799,800,804,819,834,854,876,894,938,968,995,1019,1024,1054,1054,1054,1054,1054,1054,1054,1054,1054,1054,1054,1054,1054,1130],"ymouse":[488,488,488,488,488,490,490,490,490,490,490,490,490,490,490,489,484,478,463,413,375,332,280,238,156,119,91,59,51,8,8,8,8,8,8,8,8,8,8,8,8,8,12],"timestamp_mouse":[9,42,49,68,90,110,129,149,170,190,209,230,250,270,290,309,329,349,370,389,410,430,449,469,489,510,530,550,569,589,610,630,649,670,689,710,729,750,769,789,810,830,850],"xSR":741.5,"ySR":469.95,"xT1":424.9,"yT1":0,"xT2":1058.1,"yT2":0,"toosoon":0,"cond_shown":"randomdotsizeEA","ratio_trial":900,"smaller_num":"9","larger_num":"10","correct_side":2,"subjID":"miguelacevedo11","gender":"0","age":"0","school":"6"},{"start_time":1551900688949,"click_time":1551900689997,"finger_time":1551900689336,"fix_duration":250,"trial":5,"RT":387,"MT":661,"sideResp":1,"stimulus":"img/900/equaldotanddens/R/3_Ratio_900_L_9_R_10.png","xmouse":[770,775,781,789,789,789,789,789,789,789,789,789,789,789,789,789,789,784,766,754,741,728,709,657,635,621,612,608,598,585,566,544,530,515,510,508,505,501,493,489,485,481,480,478,472,466,461,459,456,455,451,447,443],"ymouse":[563,562,561,560,560,560,560,560,560,560,560,560,560,560,560,560,555,542,495,464,434,407,370,304,283,270,264,261,260,258,254,247,242,233,227,223,216,209,188,178,169,161,157,149,142,136,131,128,123,120,115,103,87],"timestamp_mouse":[10,27,48,80,87,107,127,147,168,188,207,227,247,267,288,307,327,348,367,387,407,428,447,467,488,508,528,548,567,587,607,627,648,668,687,707,728,747,767,788,808,828,847,867,887,907,927,947,968,987,1008,1028,1048],"xSR":741.5,"ySR":469.95,"xT1":424.9,"yT1":0,"xT2":1058.1,"yT2":0,"toosoon":0,"cond_shown":"equaldotanddens","ratio_trial":900,"smaller_num":"9","larger_num":"10","correct_side":2,"subjID":"miguelacevedo11","gender":"0","age":"0","school":"6"},{"start_time":1551900692067,"click_time":1551900693758,"finger_time":1551900692437,"fix_duration":828.4571737162677,"trial":6,"RT":370,"MT":1321,"sideResp":1,"stimulus":"img/750/equaldotanddens/L/6_Ratio_750_L_24_R_18.png","xmouse":[808,808,808,808,808,808,809,809,809,809,809,809,809,809,810,811,815,820,846,888,909,918,922,924,925,925,925,926,926,927,927,929,937,942,944,944,944,931,912,859,818,785,742,730,720,709,693,677,635,616,592,574,558,542,538,534,532,530,528,527,525,523,521,519,518,516,515,513,497,494,492,492,492,492,492,491,491,491,491,491,491,491,491,491,490],"ymouse":[502,502,502,502,502,502,501,500,500,500,500,500,500,500,500,499,493,481,427,360,327,309,301,296,293,293,293,292,290,287,286,282,270,264,259,257,255,247,243,236,230,225,223,221,219,219,219,217,215,210,199,190,179,153,144,135,130,125,121,120,118,115,113,110,109,108,107,106,104,103,103,103,103,103,103,103,103,103,103,103,103,103,102,100,98],"timestamp_mouse":[9,30,50,69,89,109,129,150,170,189,209,229,250,271,289,310,330,349,370,389,409,430,449,469,489,509,530,550,570,590,609,629,650,669,689,710,730,751,769,789,809,829,851,869,890,909,930,949,969,989,1009,1030,1050,1070,1089,1109,1130,1150,1171,1190,1210,1230,1249,1269,1290,1309,1330,1350,1371,1389,1409,1430,1450,1469,1489,1509,1529,1549,1569,1590,1610,1629,1650,1669,1691],"xSR":741.5,"ySR":469.95,"xT1":424.9,"yT1":0,"xT2":1058.1,"yT2":0,"toosoon":0,"cond_shown":"equaldotanddens","ratio_trial":750,"smaller_num":"18","larger_num":"24","correct_side":1,"subjID":"miguelacevedo11","gender":"0","age":"0","school":"6"},{"start_time":1551900697709,"click_time":1551900698656,"finger_time":1551900698196,"fix_duration":1311.4215240363417,"trial":7,"RT":487,"MT":460,"sideResp":1,"stimulus":"img/750/equaldotsize/L/9_Ratio_750_L_4_R_3.png","xmouse":[818,818,818,818,818,818,818,818,818,818,818,818,818,818,818,818,818,818,818,818,818,815,807,796,782,773,754,745,736,728,720,706,695,683,660,640,622,593,582,574,569,562,558,554,548,541,526,515],"ymouse":[542,542,542,542,542,542,542,542,542,542,542,542,542,542,542,542,542,542,542,542,542,533,505,484,461,444,412,398,383,370,357,334,321,307,290,277,264,242,233,224,219,206,195,177,144,126,100,88],"timestamp_mouse":[10,40,48,69,87,107,128,148,169,187,208,228,249,267,288,308,328,347,367,387,409,427,447,467,487,509,527,548,569,588,607,628,648,669,688,708,727,748,768,788,807,829,848,869,889,907,928,947],"xSR":741.5,"ySR":469.95,"xT1":424.9,"yT1":0,"xT2":1058.1,"yT2":0,"toosoon":0,"cond_shown":"equaldotsize","ratio_trial":750,"smaller_num":"3","larger_num":"4","correct_side":1,"subjID":"miguelacevedo11","gender":"0","age":"0","school":"6"},{"start_time":1551900701767,"click_time":1551900702838,"finger_time":1551900702257,"fix_duration":708.2711980176781,"trial":8,"RT":490,"MT":581,"sideResp":2,"stimulus":"img/500/equaldotanddens/R/6_Ratio_500_L_9_R_18.png","xmouse":[790,790,790,790,790,790,790,790,790,790,790,790,790,790,790,790,790,790,790,790,788,784,779,769,737,722,710,700,692,686,686,686,688,712,730,752,776,806,842,880,897,915,928,939,956,964,970,977,995,1005,1017,1030,1043,1069],"ymouse":[542,542,542,542,542,542,542,542,542,542,542,542,542,542,542,542,542,542,542,542,539,534,527,514,482,464,450,435,420,404,402,402,398,392,384,374,362,347,324,300,287,274,259,247,223,211,202,195,174,163,150,134,116,78],"timestamp_mouse":[9,29,53,70,90,109,131,149,170,189,209,230,251,269,290,309,329,351,371,389,410,431,450,471,490,510,530,550,571,591,610,629,649,671,689,709,729,750,769,789,810,830,851,870,890,909,930,949,971,989,1009,1031,1050,1071],"xSR":741.5,"ySR":469.95,"xT1":424.9,"yT1":0,"xT2":1058.1,"yT2":0,"toosoon":0,"cond_shown":"equaldotanddens","ratio_trial":500,"smaller_num":"9","larger_num":"18","correct_side":2,"subjID":"miguelacevedo11","gender":"0","age":"0","school":"6"},{"start_time":1551900704376,"click_time":1551900705497,"finger_time":1551900704777,"fix_duration":717.2825972393061,"trial":9,"RT":401,"MT":720,"sideResp":2,"stimulus":"img/900/randomdotsizeEA/R/5_Ratio_900_L_9_R_10.png","xmouse":[784,784,782,782,782,781,781,781,781,781,781,781,781,781,780,779,778,774,769,757,748,741,734,728,724,724,724,724,724,753,763,774,790,811,853,872,892,917,928,957,962,964,966,968,971,973,975,978,980,983,991,998,1005,1020,1048,1063,1078],"ymouse":[550,550,547,546,544,544,544,544,544,544,544,544,543,543,539,535,531,523,510,482,465,451,438,427,420,419,419,419,418,412,408,402,394,382,361,346,324,287,271,214,197,186,176,170,160,156,152,146,143,140,135,132,129,124,110,104,98],"timestamp_mouse":[10,22,41,61,81,101,120,141,162,181,200,220,241,261,281,300,321,342,361,381,401,422,440,462,481,501,520,541,562,581,601,622,641,661,681,701,721,741,762,782,800,822,841,861,880,901,921,942,961,980,1000,1022,1040,1061,1080,1101,1120],"xSR":741.5,"ySR":469.95,"xT1":424.9,"yT1":0,"xT2":1058.1,"yT2":0,"toosoon":0,"cond_shown":"randomdotsizeEA","ratio_trial":900,"smaller_num":"9","larger_num":"10","correct_side":2,"subjID":"miguelacevedo11","gender":"0","age":"0","school":"6"},{"start_time":1551900707131,"click_time":1551900707958,"finger_time":1551900707497,"fix_duration":831.9326449034005,"trial":10,"RT":366,"MT":461,"sideResp":1,"stimulus":"img/750/randomdotsizeEA/L/6_Ratio_750_L_24_R_18.png","xmouse":[766,766,766,766,766,766,766,766,766,766,766,766,766,766,766,765,762,760,753,746,740,724,713,703,695,687,670,665,659,654,649,640,635,632,627,623,611,601,579,566,554,514],"ymouse":[516,516,516,516,516,516,516,516,516,516,516,516,516,516,515,510,501,492,465,445,423,374,351,331,314,298,274,267,259,250,243,232,227,223,218,214,208,201,183,169,152,99],"timestamp_mouse":[9,25,46,78,86,105,127,146,166,186,206,225,247,267,286,306,326,347,366,386,405,425,446,466,485,505,527,545,566,586,607,625,646,666,685,705,726,745,766,785,805,826],"xSR":741.5,"ySR":469.95,"xT1":424.9,"yT1":0,"xT2":1058.1,"yT2":0,"toosoon":0,"cond_shown":"randomdotsizeEA","ratio_trial":750,"smaller_num":"18","larger_num":"24","correct_side":1,"subjID":"miguelacevedo11","gender":"0","age":"0","school":"6"},{"start_time":1551900709791,"click_time":1551900710618,"finger_time":1551900710157,"fix_duration":1092.0262284147211,"trial":11,"RT":366,"MT":461,"sideResp":2,"stimulus":"img/900/randomdotsizeEA/R/3_Ratio_900_L_9_R_10.png","xmouse":[786,786,786,786,786,786,786,786,786,786,786,787,787,788,791,794,799,806,826,840,852,866,880,908,921,927,931,933,934,937,940,943,945,950,971,979,985,990,1010,1027,1043,1062],"ymouse":[534,534,534,534,533,533,531,531,531,530,530,528,528,525,520,512,499,482,440,418,393,368,343,287,255,236,220,208,201,191,186,180,175,169,147,141,137,134,123,117,109,99],"timestamp_mouse":[11,26,46,67,86,105,126,145,167,186,206,226,245,266,285,306,325,346,366,386,407,426,445,468,486,506,526,546,565,585,605,626,647,666,687,706,726,746,767,785,807,827],"xSR":741.5,"ySR":469.95,"xT1":424.9,"yT1":0,"xT2":1058.1,"yT2":0,"toosoon":0,"cond_shown":"randomdotsizeEA","ratio_trial":900,"smaller_num":"9","larger_num":"10","correct_side":2,"subjID":"miguelacevedo11","gender":"0","age":"0","school":"6"},{"start_time":1551900711609,"click_time":1551900712518,"finger_time":1551900711997,"fix_duration":250,"trial":12,"RT":388,"MT":521,"sideResp":1,"stimulus":"img/500/randomdotsizeEA/R/6_Ratio_500_L_9_R_18.png","xmouse":[792,792,792,792,792,792,792,792,792,792,792,792,792,792,792,791,784,775,745,735,726,720,714,705,700,692,681,668,639,623,602,585,569,562,560,560,560,560,557,554,551,548,543,531,525,519],"ymouse":[518,518,518,518,518,518,518,518,518,518,518,518,518,518,518,518,513,505,484,474,464,456,448,431,420,403,380,357,290,248,204,170,139,118,115,112,112,112,109,108,107,105,102,99,97,94],"timestamp_mouse":[7,27,47,68,88,109,127,147,167,188,207,228,248,267,287,307,329,348,368,388,408,427,448,467,487,508,528,548,567,588,607,627,649,668,688,708,728,748,768,787,808,828,848,867,888,909],"xSR":741.5,"ySR":469.95,"xT1":424.9,"yT1":0,"xT2":1058.1,"yT2":0,"toosoon":0,"cond_shown":"randomdotsizeEA","ratio_trial":500,"smaller_num":"9","larger_num":"18","correct_side":2,"subjID":"miguelacevedo11","gender":"0","age":"0","school":"6"},{"start_time":1551900713568,"click_time":1551900714197,"finger_time":1551900713697,"fix_duration":330.6276177114027,"trial":13,"RT":129,"MT":500,"sideResp":2,"stimulus":"img/750/equaldotsize/R/15_Ratio_750_L_9_R_12.png","xmouse":[797,798,798,799,800,803,806,812,817,827,858,871,885,898,916,937,945,950,955,960,966,968,969,970,971,976,980,987,997,1010,1051,1061],"ymouse":[490,489,487,485,483,472,459,444,427,404,334,306,276,252,224,192,183,176,170,163,155,153,150,150,147,139,134,127,115,97,28,10],"timestamp_mouse":[11,29,55,70,89,110,129,148,169,190,208,229,249,268,289,309,329,349,369,389,408,429,449,469,489,508,529,550,569,588,608,629],"xSR":741.5,"ySR":469.95,"xT1":424.9,"yT1":0,"xT2":1058.1,"yT2":0,"toosoon":0,"cond_shown":"equaldotsize","ratio_trial":750,"smaller_num":"9","larger_num":"12","correct_side":2,"subjID":"miguelacevedo11","gender":"0","age":"0","school":"6"},{"start_time":1551900716499,"click_time":1551900717557,"finger_time":1551900716897,"fix_duration":1320.8602639826688,"trial":14,"RT":398,"MT":660,"sideResp":1,"stimulus":"img/900/equaldotsize/R/9_Ratio_900_L_18_R_20.png","xmouse":[808,808,808,808,808,808,808,808,808,808,808,808,808,808,808,808,805,803,792,781,770,763,756,747,731,713,701,691,667,647,626,607,592,577,547,529,523,521,520,520,520,520,520,519,517,515,513,511,508,507,506,505,504],"ymouse":[506,506,506,506,506,506,506,506,506,506,506,506,506,506,506,506,503,497,471,447,422,397,374,351,315,289,274,262,238,223,209,197,184,172,152,140,136,135,133,132,132,132,132,130,125,120,116,112,108,106,102,100,98],"timestamp_mouse":[18,38,70,78,99,119,137,159,178,199,219,239,258,277,298,318,338,358,377,398,417,438,458,478,499,518,537,558,578,598,618,639,658,678,697,718,739,759,778,798,818,839,859,879,897,918,938,957,979,997,1018,1037,1058],"xSR":741.5,"ySR":469.95,"xT1":424.9,"yT1":0,"xT2":1058.1,"yT2":0,"toosoon":0,"cond_shown":"equaldotsize","ratio_trial":900,"smaller_num":"18","larger_num":"20","correct_side":2,"subjID":"miguelacevedo11","gender":"0","age":"0","school":"6"},{"start_time":1551900718989,"click_time":1551900720518,"finger_time":1551900719337,"fix_duration":250,"trial":15,"RT":348,"MT":1181,"sideResp":1,"stimulus":"img/900/equaldotsize/L/1_Ratio_900_L_10_R_9.png","xmouse":[759,759,760,760,761,761,761,761,761,761,763,767,771,775,778,784,791,805,827,854,924,952,968,979,996,1000,1002,1003,1003,1003,1003,1003,1003,1004,1004,1006,1006,1006,1007,1019,1031,1038,1041,1042,1042,1042,1042,1036,1023,1011,975,955,929,885,781,756,743,734,723,709,634,558,474,430,423,423,423,423,423,423,423,423,422,424,430,433,436],"ymouse":[494,494,495,495,496,496,496,496,496,496,496,496,496,496,496,494,484,468,438,399,267,217,179,152,105,89,77,73,72,72,72,72,72,72,72,72,72,72,72,75,77,78,78,78,78,79,81,86,93,100,107,107,103,90,73,70,69,68,68,68,84,106,130,143,145,145,145,145,145,145,145,145,143,140,123,112,99],"timestamp_mouse":[9,30,52,68,88,108,128,149,168,187,207,228,248,267,288,308,329,348,368,389,407,428,448,468,489,507,527,547,568,589,609,628,647,668,688,709,727,748,768,789,807,828,848,868,887,908,928,947,967,988,1009,1029,1049,1068,1089,1107,1128,1148,1168,1188,1207,1228,1249,1268,1289,1309,1328,1349,1367,1387,1408,1427,1449,1468,1489,1508,1529],"xSR":741.5,"ySR":469.95,"xT1":424.9,"yT1":0,"xT2":1058.1,"yT2":0,"toosoon":0,"cond_shown":"equaldotsize","ratio_trial":900,"smaller_num":"9","larger_num":"10","correct_side":1,"subjID":"miguelacevedo11","gender":"0","age":"0","school":"6"},{"start_time":1551900722246,"click_time":1551900724497,"finger_time":1551900722717,"fix_duration":485.8683361663697,"trial":16,"RT":471,"MT":1780,"sideResp":2,"stimulus":"img/250/randomdotsizeEA/R/13_Ratio_250_L_2_R_8.png","xmouse":[805,805,805,805,805,805,805,805,805,805,805,805,805,804,804,804,804,804,804,804,804,804,804,804,804,804,804,803,803,803,802,802,800,800,800,800,800,800,800,800,800,809,851,876,890,911,921,923,923,923,923,924,924,929,939,945,950,958,960,960,960,960,960,961,961,961,961,961,961,961,961,961,961,961,961,961,961,961,961,961,961,961,961,961,961,961,961,961,961,961,961,961,963,963,966,969,971,976,978,980,982,985,992,996,999,1004,1008,1017,1021,1028,1036,1047,1067],"ymouse":[492,492,492,492,492,492,492,492,492,492,492,492,490,486,482,481,481,481,481,480,478,474,470,467,463,461,455,438,429,420,412,406,395,394,393,393,393,393,393,391,387,373,300,255,232,204,192,190,190,190,190,190,190,186,180,177,174,170,170,170,170,170,170,169,169,169,169,169,169,169,169,169,169,169,169,169,169,169,169,169,169,169,169,169,169,169,169,169,169,169,168,168,165,163,159,156,152,147,145,143,140,137,128,124,121,117,114,109,106,101,93,83,58],"timestamp_mouse":[11,31,51,83,91,111,130,150,172,191,210,231,251,272,290,311,332,352,371,392,411,431,450,471,490,511,531,551,572,590,611,631,650,671,692,711,731,752,771,791,810,831,851,871,892,912,931,951,971,992,1012,1030,1050,1070,1091,1112,1131,1151,1170,1191,1211,1232,1251,1271,1291,1311,1332,1352,1372,1391,1410,1430,1451,1471,1491,1511,1531,1550,1571,1590,1612,1632,1650,1671,1691,1711,1730,1750,1771,1791,1811,1830,1851,1871,1890,1911,1931,1950,1970,1991,2011,2031,2051,2070,2090,2110,2130,2150,2171,2191,2211,2230,2251],"xSR":741.5,"ySR":469.95,"xT1":424.9,"yT1":0,"xT2":1058.1,"yT2":0,"toosoon":0,"cond_shown":"randomdotsizeEA","ratio_trial":250,"smaller_num":"2","larger_num":"8","correct_side":2,"subjID":"miguelacevedo11","gender":"0","age":"0","school":"6"},{"start_time":1551900726508,"click_time":1551900727597,"finger_time":1551900726876,"fix_duration":468.3004632836698,"trial":17,"RT":368,"MT":721,"sideResp":1,"stimulus":"img/250/equaldotsize/L/7_Ratio_250_L_8_R_2.png","xmouse":[797,797,797,797,797,797,797,797,797,797,797,797,795,794,793,793,793,793,793,793,793,787,777,766,757,752,752,752,755,756,753,748,738,720,669,649,634,625,618,614,609,597,583,573,567,563,562,560,558,556,550,547,544,536,518],"ymouse":[510,510,510,510,510,510,510,510,510,510,510,510,509,508,501,495,488,479,468,438,408,384,359,337,320,297,291,286,278,252,231,220,210,204,196,196,195,194,193,192,187,177,164,152,143,134,127,123,119,117,110,108,106,104,99],"timestamp_mouse":[9,30,49,72,89,108,129,150,169,190,209,229,248,270,289,308,329,348,368,390,408,429,450,469,489,509,528,548,569,589,609,629,649,668,689,709,728,749,770,790,808,828,848,868,890,908,928,949,970,988,1008,1029,1049,1069,1089],"xSR":741.5,"ySR":469.95,"xT1":424.9,"yT1":0,"xT2":1058.1,"yT2":0,"toosoon":0,"cond_shown":"equaldotsize","ratio_trial":250,"smaller_num":"2","larger_num":"8","correct_side":1,"subjID":"miguelacevedo11","gender":"0","age":"0","school":"6"},{"start_time":1551900729224,"click_time":1551900730078,"finger_time":1551900729617,"fix_duration":804.5887791124522,"trial":18,"RT":393,"MT":461,"sideResp":1,"stimulus":"img/900/randomdotsizeEA/L/10_Ratio_900_L_20_R_18.png","xmouse":[805,805,805,805,805,805,805,805,805,805,805,805,805,805,805,805,804,802,798,767,742,712,666,656,619,609,597,586,572,527,503,482,470,463,458,458,458,458,458,457,457,457,457],"ymouse":[525,525,525,525,525,525,525,525,525,525,525,525,525,525,525,521,511,498,483,425,387,341,286,274,233,224,214,204,193,164,150,137,126,119,115,114,114,114,114,113,105,101,94],"timestamp_mouse":[13,34,54,74,93,114,132,152,172,193,214,233,254,274,293,313,333,353,373,393,413,433,452,472,492,513,533,552,573,593,613,633,652,673,693,714,733,753,772,792,813,834,854],"xSR":741.5,"ySR":469.95,"xT1":424.9,"yT1":0,"xT2":1058.1,"yT2":0,"toosoon":0,"cond_shown":"randomdotsizeEA","ratio_trial":900,"smaller_num":"18","larger_num":"20","correct_side":1,"subjID":"miguelacevedo11","gender":"0","age":"0","school":"6"},{"start_time":1551900731964,"click_time":1551900733177,"finger_time":1551900732597,"fix_duration":1286.4797319254792,"trial":19,"RT":633,"MT":580,"sideResp":1,"stimulus":"img/500/equaldotsize/L/10_Ratio_500_L_4_R_2.png","xmouse":[777,777,777,777,777,777,777,777,777,777,777,777,777,777,777,777,777,777,777,777,777,777,777,777,777,777,777,777,777,758,745,732,709,680,674,669,665,654,649,644,643,643,641,638,625,617,609,573,528,491,467,453,448,448,448,448,448,450,451,452,457],"ymouse":[543,543,543,543,543,543,543,543,543,543,543,543,543,543,543,543,543,543,543,543,543,543,543,543,543,543,543,543,543,531,520,505,448,368,349,314,292,257,239,223,217,214,209,203,189,179,172,153,137,125,116,110,106,106,105,105,103,103,102,101,97],"timestamp_mouse":[12,39,53,73,92,112,132,154,172,194,214,233,252,274,292,312,332,352,373,393,412,432,453,472,494,514,532,552,574,592,613,633,652,673,693,713,734,752,773,793,813,834,853,872,893,913,934,952,973,993,1013,1033,1053,1072,1093,1113,1133,1152,1173,1193,1213],"xSR":741.5,"ySR":469.95,"xT1":424.9,"yT1":0,"xT2":1058.1,"yT2":0,"toosoon":0,"cond_shown":"equaldotsize","ratio_trial":500,"smaller_num":"2","larger_num":"4","correct_side":1,"subjID":"miguelacevedo11","gender":"0","age":"0","school":"6"},{"start_time":1551900735673,"click_time":1551900737918,"finger_time":1551900736277,"fix_duration":1254.3953988661717,"trial":20,"RT":604,"MT":1641,"sideResp":1,"stimulus":"img/900/equaldotanddens/L/8_Ratio_900_L_20_R_18.png","xmouse":[802,802,802,802,802,802,802,802,802,802,802,802,802,802,802,802,802,802,802,802,802,802,802,802,802,802,800,786,768,742,706,669,636,629,620,612,610,600,594,591,587,580,567,564,561,557,542,513,501,488,475,457,444,425,419,413,404,392,343,320,302,285,271,278,342,452,454,454,454,454,454,454,454,454,454,454,454,454,470,474,475,475,441,399,366,311,192,153,90,90,90,90,90,90,90,90,90,90,144,192,230,268,293,314,314,314,314,314,314,314,314,424,453],"ymouse":[550,550,550,550,550,550,550,550,550,550,550,550,550,550,550,550,550,550,550,550,550,550,550,550,550,550,550,533,514,492,466,436,404,396,385,376,373,363,359,357,354,349,338,335,333,329,318,301,286,282,280,280,280,280,280,281,281,281,281,281,281,285,291,331,384,449,449,449,449,449,449,449,449,449,449,449,449,452,481,483,484,484,456,410,346,270,129,82,7,7,7,7,7,7,7,7,7,7,8,11,11,11,6,0,0,0,0,0,0,0,0,5,23],"timestamp_mouse":[8,25,51,65,85,103,123,143,164,184,205,223,243,264,283,303,325,344,365,384,404,424,444,463,483,504,524,545,564,584,604,623,644,664,685,704,724,745,763,783,804,825,846,864,885,903,937,944,964,984,1003,1024,1043,1063,1084,1104,1124,1144,1165,1184,1204,1224,1244,1264,1284,1304,1323,1344,1363,1384,1403,1425,1444,1465,1485,1503,1524,1544,1563,1584,1603,1624,1645,1663,1685,1704,1724,1744,1765,1784,1804,1823,1843,1863,1883,1904,1925,1943,1965,1983,2005,2025,2044,2063,2084,2104,2123,2145,2163,2184,2205,2224,2245],"xSR":741.5,"ySR":469.95,"xT1":424.9,"yT1":0,"xT2":1058.1,"yT2":0,"toosoon":0,"cond_shown":"equaldotanddens","ratio_trial":900,"smaller_num":"18","larger_num":"20","correct_side":1,"subjID":"miguelacevedo11","gender":"0","age":"0","school":"6"},{"start_time":1551900739685,"click_time":1551900741337,"finger_time":1551900740596,"fix_duration":287.61096249904284,"trial":21,"RT":911,"MT":741,"sideResp":2,"stimulus":"img/750/randomdotsizeEA/L/10_Ratio_750_L_4_R_3.png","xmouse":[789,789,789,789,789,789,789,789,789,789,789,789,789,789,789,789,789,789,789,789,789,789,789,789,789,789,789,789,789,789,789,789,789,789,789,789,789,789,789,789,788,787,781,773,763,743,684,531,454,393,364,348,331,329,328,328,330,345,362,384,411,441,548,628,771,877,971,1051,1051,1051,1051,1051,1051,1051,1051,1051,1051,1051,1051,1051,1051,1051,1109],"ymouse":[541,541,541,541,541,541,541,541,541,541,541,541,541,541,541,541,541,541,541,541,541,541,541,541,541,541,541,541,541,541,541,541,541,541,541,541,541,541,541,541,541,539,517,497,476,449,396,303,262,225,203,187,159,150,141,135,132,129,128,128,128,128,120,111,88,58,31,2,2,2,2,2,2,2,2,2,2,2,2,2,2,2,20],"timestamp_mouse":[12,39,52,72,92,112,132,152,172,193,213,231,251,272,293,313,331,352,372,393,412,431,453,472,491,512,532,551,572,593,612,632,652,671,693,711,732,753,773,792,811,833,852,872,892,911,933,952,972,992,1012,1032,1051,1071,1092,1113,1132,1152,1172,1192,1211,1233,1252,1273,1292,1311,1331,1352,1372,1393,1412,1431,1452,1473,1493,1512,1532,1553,1572,1591,1612,1632,1652],"xSR":741.5,"ySR":469.95,"xT1":424.9,"yT1":0,"xT2":1058.1,"yT2":0,"toosoon":0,"cond_shown":"randomdotsizeEA","ratio_trial":750,"smaller_num":"3","larger_num":"4","correct_side":1,"subjID":"miguelacevedo11","gender":"0","age":"0","school":"6"},{"start_time":1551900743121,"click_time":1551900744756,"finger_time":1551900744017,"fix_duration":523.0975110073203,"trial":22,"RT":896,"MT":739,"sideResp":1,"stimulus":"img/900/randomdotsizeEA/L/1_Ratio_900_L_10_R_9.png","xmouse":[785,785,785,785,785,785,785,785,785,785,785,785,785,785,785,785,785,785,785,785,785,785,785,785,785,785,785,785,785,785,785,785,785,785,785,785,785,785,785,785,785,785,783,768,745,699,657,616,569,520,453,309,282,268,261,259,260,264,267,269,270,273,274,275,278,296,309,319,330,339,355,364,368,371,372,372,373,376,381,388,418,444],"ymouse":[498,498,498,498,498,498,498,498,498,498,498,498,498,498,498,498,498,498,498,498,498,498,498,498,498,498,498,498,498,498,498,498,498,498,498,498,498,498,498,498,498,498,498,479,448,394,362,334,309,287,262,213,200,190,175,140,121,101,84,69,50,42,40,38,37,37,38,38,38,36,23,16,15,14,14,14,14,14,21,29,54,67],"timestamp_mouse":[15,43,56,76,96,117,136,155,177,196,217,236,256,277,296,316,336,355,376,397,416,436,456,475,495,516,535,556,576,595,615,636,656,677,695,716,737,755,777,795,815,837,855,876,896,916,935,955,977,997,1016,1036,1055,1075,1096,1116,1135,1155,1177,1196,1216,1235,1256,1275,1297,1316,1335,1356,1376,1396,1416,1437,1456,1476,1495,1516,1535,1556,1576,1596,1617,1635],"xSR":741.5,"ySR":469.95,"xT1":424.9,"yT1":0,"xT2":1058.1,"yT2":0,"toosoon":0,"cond_shown":"randomdotsizeEA","ratio_trial":900,"smaller_num":"9","larger_num":"10","correct_side":1,"subjID":"miguelacevedo11","gender":"0","age":"0","school":"6"},{"start_time":1551900746782,"click_time":1551900748037,"finger_time":1551900747616,"fix_duration":902.5062823186269,"trial":23,"RT":834,"MT":421,"sideResp":2,"stimulus":"img/250/equaldotanddens/R/10_Ratio_250_L_4_R_16.png","xmouse":[793,793,793,793,793,793,793,793,793,793,793,793,793,793,793,793,793,793,793,793,793,793,793,793,793,793,793,793,793,793,793,793,793,793,793,793,793,793,793,803,825,851,877,942,969,998,1034,1046,1042,1034,1029,1026,1026,1026,1024,1024,1024,1024,1024,1030,1044,1058,1063],"ymouse":[507,507,507,507,507,507,507,507,507,507,507,507,507,507,507,507,507,507,507,507,507,507,507,507,507,507,507,507,507,507,507,507,507,507,507,507,507,507,507,495,478,458,439,387,359,311,199,94,74,60,55,53,53,53,51,50,50,49,45,41,37,33,32],"timestamp_mouse":[23,36,69,75,94,115,135,155,174,195,216,236,256,275,296,315,335,355,375,395,416,436,455,475,496,515,536,556,575,596,614,635,656,676,694,715,736,756,776,795,815,834,856,874,895,914,935,956,974,994,1016,1035,1054,1074,1094,1115,1134,1155,1175,1195,1216,1235,1255],"xSR":741.5,"ySR":469.95,"xT1":424.9,"yT1":0,"xT2":1058.1,"yT2":0,"toosoon":0,"cond_shown":"equaldotanddens","ratio_trial":250,"smaller_num":"4","larger_num":"16","correct_side":2,"subjID":"miguelacevedo11","gender":"0","age":"0","school":"6"},{"start_time":1551900750328,"click_time":1551900751396,"finger_time":1551900750798,"fix_duration":1390.5072533994764,"trial":24,"RT":470,"MT":598,"sideResp":1,"stimulus":"img/250/equaldotanddens/L/15_Ratio_250_L_12_R_3.png","xmouse":[807,807,807,807,807,807,807,807,807,807,807,807,807,807,807,807,807,807,807,807,807,800,788,758,714,652,535,468,454,429,423,415,408,397,378,349,335,335,335,335,335,335,335,335,335,335,335,335,399,406,414,422,424,425],"ymouse":[515,515,515,515,515,515,515,515,515,515,515,515,515,515,515,515,515,515,515,515,515,509,494,466,432,394,328,298,292,275,269,251,230,190,117,45,7,7,7,7,7,7,7,7,7,7,7,7,2,10,18,32,35,38],"timestamp_mouse":[9,28,58,69,89,109,130,148,170,190,210,229,249,269,290,310,330,349,368,389,410,429,449,470,489,509,529,549,568,589,609,629,650,669,689,709,729,749,769,789,809,829,849,868,889,909,930,950,968,989,1010,1028,1048,1068],"xSR":741.5,"ySR":469.95,"xT1":424.9,"yT1":0,"xT2":1058.1,"yT2":0,"toosoon":0,"cond_shown":"equaldotanddens","ratio_trial":250,"smaller_num":"3","larger_num":"12","correct_side":1,"subjID":"miguelacevedo11","gender":"0","age":"0","school":"6"},{"start_time":1551900753187,"click_time":1551900753997,"finger_time":1551900753617,"fix_duration":808.8871818211325,"trial":25,"RT":430,"MT":380,"sideResp":1,"stimulus":"img/900/equaldotsize/L/2_Ratio_900_L_20_R_18.png","xmouse":[816,816,816,816,816,816,816,816,816,816,816,816,816,816,816,816,816,816,816,816,814,808,795,761,734,719,710,703,695,689,679,661,626,575,449,435,432,430,430,430,435],"ymouse":[491,491,491,491,491,491,491,491,491,491,491,491,491,491,491,491,491,491,491,486,475,455,430,376,347,336,327,321,313,306,295,280,254,221,134,120,113,108,106,100,91],"timestamp_mouse":[10,30,49,71,91,110,129,150,171,191,211,231,250,269,289,310,331,351,370,390,411,430,450,471,489,509,530,550,570,589,610,630,651,670,691,710,730,749,769,790,810],"xSR":741.5,"ySR":469.95,"xT1":424.9,"yT1":0,"xT2":1058.1,"yT2":0,"toosoon":0,"cond_shown":"equaldotsize","ratio_trial":900,"smaller_num":"18","larger_num":"20","correct_side":1,"subjID":"miguelacevedo11","gender":"0","age":"0","school":"6"},{"start_time":1551900755829,"click_time":1551900756757,"finger_time":1551900756218,"fix_duration":910.8170244259293,"trial":26,"RT":389,"MT":539,"sideResp":2,"stimulus":"img/900/randomdotsizeEA/R/15_Ratio_900_L_9_R_10.png","xmouse":[809,809,809,809,809,809,809,809,809,809,809,809,809,809,809,809,810,811,813,816,820,825,832,837,845,858,874,919,949,976,991,994,1003,1007,1012,1015,1021,1023,1023,1023,1023,1027,1034,1038,1045,1057,1073],"ymouse":[485,485,485,485,485,485,485,485,485,485,485,485,485,485,485,484,482,478,471,462,448,424,390,374,360,343,326,296,283,268,252,246,215,200,185,171,148,135,125,115,108,99,91,88,85,82,80],"timestamp_mouse":[9,39,48,68,88,108,127,147,168,187,207,227,249,267,289,309,328,348,368,388,407,429,448,469,488,508,528,548,568,587,607,629,648,668,688,708,730,747,767,789,808,828,848,868,888,909,928],"xSR":741.5,"ySR":469.95,"xT1":424.9,"yT1":0,"xT2":1058.1,"yT2":0,"toosoon":0,"cond_shown":"randomdotsizeEA","ratio_trial":900,"smaller_num":"9","larger_num":"10","correct_side":2,"subjID":"miguelacevedo11","gender":"0","age":"0","school":"6"},{"start_time":1551900757869,"click_time":1551900758757,"finger_time":1551900758277,"fix_duration":250,"trial":27,"RT":408,"MT":480,"sideResp":1,"stimulus":"img/900/equaldotanddens/R/11_Ratio_900_L_18_R_20.png","xmouse":[807,807,807,807,807,807,807,807,807,807,807,807,807,807,807,807,807,806,795,779,722,688,658,636,619,596,588,586,585,581,571,564,554,543,538,537,536,534,529,522,496,484,475,469,463],"ymouse":[518,518,518,518,518,518,518,518,518,518,518,518,518,518,518,518,518,518,503,482,415,381,354,334,319,297,291,287,282,273,250,234,212,191,177,172,170,166,158,150,127,118,108,103,98],"timestamp_mouse":[9,37,47,67,89,108,128,148,168,187,208,229,247,269,288,308,328,348,368,388,408,428,448,467,487,507,529,547,567,589,607,628,648,668,688,708,728,748,768,788,808,828,849,868,888],"xSR":741.5,"ySR":469.95,"xT1":424.9,"yT1":0,"xT2":1058.1,"yT2":0,"toosoon":0,"cond_shown":"equaldotanddens","ratio_trial":900,"smaller_num":"18","larger_num":"20","correct_side":2,"subjID":"miguelacevedo11","gender":"0","age":"0","school":"6"},{"start_time":1551900759728,"click_time":1551900760558,"finger_time":1551900759997,"fix_duration":250,"trial":28,"RT":269,"MT":561,"sideResp":2,"stimulus":"img/500/equaldotsize/R/9_Ratio_500_L_2_R_4.png","xmouse":[827,827,827,827,827,827,827,827,827,827,827,827,836,851,882,908,934,975,988,999,1005,1011,1017,1019,1021,1021,1019,1016,1015,1015,1015,1015,1021,1031,1051,1062,1069,1076,1081,1085,1091,1096],"ymouse":[538,538,538,538,538,538,538,538,538,536,534,528,497,476,433,401,372,324,303,278,253,233,187,172,162,159,155,148,146,145,143,142,136,132,124,120,116,111,109,106,103,99],"timestamp_mouse":[10,29,49,70,89,110,128,148,168,189,210,230,248,269,289,309,329,348,369,389,410,429,449,469,488,510,529,549,569,589,608,629,649,669,688,708,729,749,768,789,809,830],"xSR":741.5,"ySR":469.95,"xT1":424.9,"yT1":0,"xT2":1058.1,"yT2":0,"toosoon":0,"cond_shown":"equaldotsize","ratio_trial":500,"smaller_num":"2","larger_num":"4","correct_side":2,"subjID":"miguelacevedo11","gender":"0","age":"0","school":"6"},{"start_time":1551900761668,"click_time":1551900762597,"finger_time":1551900762076,"fix_duration":369.5798263714036,"trial":29,"RT":408,"MT":521,"sideResp":1,"stimulus":"img/750/equaldotsize/L/14_Ratio_750_L_8_R_6.png","xmouse":[776,776,776,776,776,776,776,776,776,776,776,776,775,774,772,770,769,767,765,759,749,704,669,628,598,563,554,542,531,517,486,470,459,451,449,449,449,449,449,449,449,456,460,463,464,466,466],"ymouse":[532,532,532,532,532,532,532,532,532,532,532,532,530,526,521,511,503,494,483,470,450,398,371,350,336,321,314,298,285,269,236,217,201,191,186,184,184,183,179,174,164,141,132,122,113,101,96],"timestamp_mouse":[8,29,57,69,89,109,130,150,169,189,210,229,249,268,290,310,330,349,370,389,408,429,449,469,489,510,528,549,570,589,610,629,648,669,689,710,729,749,770,789,810,829,849,868,889,910,929],"xSR":741.5,"ySR":469.95,"xT1":424.9,"yT1":0,"xT2":1058.1,"yT2":0,"toosoon":0,"cond_shown":"equaldotsize","ratio_trial":750,"smaller_num":"6","larger_num":"8","correct_side":1,"subjID":"miguelacevedo11","gender":"0","age":"0","school":"6"},{"start_time":1551900765690,"click_time":1551900766397,"finger_time":1551900766197,"fix_duration":691.8991669246217,"trial":30,"RT":507,"MT":200,"sideResp":1,"stimulus":"img/500/randomdotsizeEA/R/14_Ratio_500_L_5_R_10.png","xmouse":[778,778,778,778,778,778,778,778,778,778,778,778,778,778,778,778,778,778,779,781,784,787,787,787,787,768,750,721,692,658,598,567,561,544,534,515],"ymouse":[560,560,560,560,560,560,560,560,560,560,560,560,560,560,560,560,560,560,560,556,548,540,532,513,492,438,406,360,323,283,213,171,160,127,106,70],"timestamp_mouse":[12,26,51,67,87,108,128,146,166,186,206,227,247,267,287,307,327,346,367,388,407,427,447,467,487,507,527,547,567,586,607,626,648,667,688,707],"xSR":741.5,"ySR":469.95,"xT1":424.9,"yT1":0,"xT2":1058.1,"yT2":0,"toosoon":0,"cond_shown":"randomdotsizeEA","ratio_trial":500,"smaller_num":"5","larger_num":"10","correct_side":2,"subjID":"miguelacevedo11","gender":"0","age":"0","school":"6"},{"start_time":1551900769310,"click_time":1551900770498,"finger_time":1551900769997,"fix_duration":631.9846719141977,"trial":31,"RT":687,"MT":501,"sideResp":1,"stimulus":"img/900/equaldotanddens/R/7_Ratio_900_L_9_R_10.png","xmouse":[791,791,791,791,791,791,791,791,791,791,791,791,791,791,791,791,791,791,791,791,791,791,791,791,791,791,791,791,791,791,790,788,781,772,754,742,729,717,705,688,674,664,647,621,566,547,531,522,516,513,513,513,513,513,513,513,512,510,509,504],"ymouse":[554,554,554,554,554,554,554,554,554,554,554,554,554,554,554,554,554,554,554,554,554,554,554,554,554,554,554,554,554,550,537,525,506,487,449,428,410,391,376,351,331,313,290,256,190,164,145,131,122,116,115,115,115,115,115,115,113,111,107,96],"timestamp_mouse":[10,31,48,66,86,108,127,146,168,188,207,228,247,267,288,306,327,348,367,386,408,427,446,468,486,507,526,548,567,587,607,627,647,667,687,707,727,747,768,788,806,826,847,867,887,907,927,948,966,988,1006,1026,1048,1067,1087,1107,1128,1147,1166,1188],"xSR":741.5,"ySR":469.95,"xT1":424.9,"yT1":0,"xT2":1058.1,"yT2":0,"toosoon":0,"cond_shown":"equaldotanddens","ratio_trial":900,"smaller_num":"9","larger_num":"10","correct_side":2,"subjID":"miguelacevedo11","gender":"0","age":"0","school":"6"},{"start_time":1551900771582,"click_time":1551900772638,"finger_time":1551900772197,"fix_duration":364.9710832223391,"trial":32,"RT":615,"MT":441,"sideResp":2,"stimulus":"img/900/randomdotsizeEA/L/8_Ratio_900_L_20_R_18.png","xmouse":[816,816,816,816,816,816,816,816,816,816,816,816,816,816,816,816,816,816,816,816,816,816,816,816,816,816,816,816,816,822,836,889,926,959,990,1006,1020,1024,1028,1032,1043,1047,1048,1049,1050,1051,1051,1053,1054,1055,1057,1058,1059],"ymouse":[545,545,545,545,545,545,545,545,545,545,545,545,545,545,545,545,545,545,545,545,545,545,545,545,544,542,526,513,497,475,448,357,303,254,212,190,150,137,127,118,98,91,86,82,79,78,78,75,74,73,71,71,69],"timestamp_mouse":[15,39,56,75,96,114,134,154,174,195,215,234,254,274,296,316,335,354,375,394,416,435,454,476,495,515,535,555,575,595,615,635,655,674,695,714,734,755,774,794,816,835,855,875,896,917,934,955,975,995,1016,1034,1055],"xSR":741.5,"ySR":469.95,"xT1":424.9,"yT1":0,"xT2":1058.1,"yT2":0,"toosoon":0,"cond_shown":"randomdotsizeEA","ratio_trial":900,"smaller_num":"18","larger_num":"20","correct_side":1,"subjID":"miguelacevedo11","gender":"0","age":"0","school":"6"},{"start_time":1551900773609,"click_time":1551900774637,"finger_time":1551900774217,"fix_duration":250,"trial":33,"RT":608,"MT":420,"sideResp":1,"stimulus":"img/750/equaldotsize/L/6_Ratio_750_L_24_R_18.png","xmouse":[760,760,760,760,760,760,760,760,760,760,760,760,760,760,760,760,760,760,760,760,760,760,760,760,760,761,761,761,760,756,744,734,704,692,649,599,582,568,558,554,553,551,550,549,547,543,540,537,534,530,518,511],"ymouse":[523,523,523,523,523,523,523,523,523,523,523,523,523,523,523,523,523,523,523,523,523,523,523,523,523,522,519,514,508,498,468,447,391,370,295,215,190,170,158,151,150,149,146,144,142,137,133,129,126,120,105,98],"timestamp_mouse":[7,28,47,68,89,108,129,149,167,187,208,228,247,269,287,307,327,348,368,388,407,429,447,467,488,508,528,548,569,588,608,628,648,667,688,707,728,748,769,789,808,828,847,868,887,908,928,948,969,988,1008,1028],"xSR":741.5,"ySR":469.95,"xT1":424.9,"yT1":0,"xT2":1058.1,"yT2":0,"toosoon":0,"cond_shown":"equaldotsize","ratio_trial":750,"smaller_num":"18","larger_num":"24","correct_side":1,"subjID":"miguelacevedo11","gender":"0","age":"0","school":"6"},{"start_time":1551900776642,"click_time":1551900777637,"finger_time":1551900777197,"fix_duration":1184.3349039966347,"trial":34,"RT":555,"MT":440,"sideResp":1,"stimulus":"img/500/randomdotsizeEA/L/10_Ratio_500_L_4_R_2.png","xmouse":[788,788,788,788,788,788,788,788,788,788,788,788,788,788,788,788,788,788,788,788,788,788,788,788,788,788,785,782,771,762,749,721,699,642,606,581,567,559,554,554,552,550,548,546,544,543,540,537,519,487],"ymouse":[503,503,503,503,503,503,503,503,503,503,503,503,503,503,503,503,503,503,503,503,502,501,498,493,488,483,474,464,432,413,389,346,315,248,214,189,173,162,152,150,146,144,140,136,133,130,126,123,106,81],"timestamp_mouse":[16,35,59,75,94,114,135,155,174,195,215,236,254,276,296,314,336,356,376,395,415,436,455,474,495,516,535,555,576,595,615,636,655,675,695,715,735,755,775,794,815,835,854,875,895,915,935,954,975,995],"xSR":741.5,"ySR":469.95,"xT1":424.9,"yT1":0,"xT2":1058.1,"yT2":0,"toosoon":0,"cond_shown":"randomdotsizeEA","ratio_trial":500,"smaller_num":"2","larger_num":"4","correct_side":1,"subjID":"miguelacevedo11","gender":"0","age":"0","school":"6"},{"start_time":1551900780562,"click_time":1551900781457,"finger_time":1551900781237,"fix_duration":501.1196122557272,"trial":35,"RT":675,"MT":220,"sideResp":2,"stimulus":"img/900/randomdotsizeEA/R/15_Ratio_900_L_9_R_10.png","xmouse":[786,786,786,786,786,785,785,785,785,785,785,784,784,784,784,784,784,783,783,782,782,782,782,782,782,782,782,782,782,782,782,780,779,781,807,854,904,941,975,986,999,1010,1018,1049,1062],"ymouse":[549,549,549,549,549,549,549,549,548,548,548,547,547,547,547,547,547,546,545,543,542,541,541,541,541,541,541,540,540,539,538,530,519,469,387,297,222,169,110,96,84,75,67,37,22],"timestamp_mouse":[16,37,56,75,96,116,135,156,175,196,215,235,255,275,296,315,335,355,375,395,414,435,454,475,494,514,535,555,575,595,616,635,655,675,694,714,734,755,774,794,815,836,855,875,895],"xSR":741.5,"ySR":469.95,"xT1":424.9,"yT1":0,"xT2":1058.1,"yT2":0,"toosoon":0,"cond_shown":"randomdotsizeEA","ratio_trial":900,"smaller_num":"9","larger_num":"10","correct_side":2,"subjID":"miguelacevedo11","gender":"0","age":"0","school":"6"},{"start_time":1551900783243,"click_time":1551900785176,"finger_time":1551900783598,"fix_duration":903.3901119013345,"trial":36,"RT":355,"MT":1578,"sideResp":2,"stimulus":"img/500/equaldotanddens/R/12_Ratio_500_L_1_R_2.png","xmouse":[807,807,807,807,807,806,806,805,804,804,804,804,804,803,799,794,787,771,758,718,697,676,653,635,606,600,596,591,587,574,567,557,551,544,536,534,532,529,528,527,526,526,526,526,526,526,526,526,529,560,595,631,678,721,778,801,818,839,845,856,862,867,872,876,886,890,907,1047,1208,1434,1450,1452,1452,1452,1448,1448,1447,1444,1440,1432,1430,1429,1423,1407,1366,1345,1315,1296,1277,1247,1237,1235,1233,1229,1201,1171,1156],"ymouse":[505,505,505,505,505,504,502,501,499,498,498,498,498,496,489,482,473,448,429,371,340,314,292,275,251,244,239,230,224,203,187,170,153,139,116,109,101,90,84,77,75,75,75,75,75,75,75,76,79,106,131,157,182,200,215,216,216,214,212,206,202,197,189,182,172,169,167,167,154,115,107,103,97,91,75,64,45,33,24,16,16,16,16,18,38,50,67,75,80,82,82,82,82,80,67,58,51],"timestamp_mouse":[14,43,54,75,94,114,134,155,173,195,215,235,254,274,294,314,333,355,375,393,414,434,454,474,494,514,535,554,574,593,614,634,653,674,693,714,733,754,774,795,815,834,854,874,895,914,935,955,974,993,1013,1034,1054,1075,1093,1114,1134,1155,1174,1194,1214,1234,1254,1275,1293,1313,1334,1355,1374,1394,1414,1440,1454,1475,1493,1513,1533,1555,1574,1593,1614,1634,1654,1675,1693,1713,1733,1754,1774,1794,1814,1834,1854,1875,1894,1915,1933],"xSR":741.5,"ySR":469.95,"xT1":424.9,"yT1":0,"xT2":1058.1,"yT2":0,"toosoon":0,"cond_shown":"equaldotanddens","ratio_trial":500,"smaller_num":"1","larger_num":"2","correct_side":2,"subjID":"miguelacevedo11","gender":"0","age":"0","school":"6"},{"start_time":1551900787698,"click_time":1551900788817,"finger_time":1551900788116,"fix_duration":1378.7631054137296,"trial":37,"RT":418,"MT":701,"sideResp":2,"stimulus":"img/900/equaldotanddens/R/5_Ratio_900_L_9_R_10.png","xmouse":[796,796,796,796,796,796,796,796,796,796,796,796,796,796,796,796,794,787,779,766,751,740,723,717,715,714,714,712,710,708,704,698,677,666,655,646,637,636,636,636,648,670,697,806,851,881,900,913,939,963,995,1031,1082,1106,1112,1116,1117],"ymouse":[527,527,527,527,527,527,527,527,527,527,527,527,527,527,527,527,527,520,510,495,476,461,436,426,422,419,417,414,408,403,394,381,338,320,300,283,269,262,260,258,257,254,246,223,214,206,200,194,180,173,164,153,134,118,110,103,96],"timestamp_mouse":[1,19,41,58,78,100,120,140,159,180,200,220,239,259,279,300,319,339,359,379,399,418,440,459,479,500,519,540,559,579,598,618,640,658,679,700,719,739,758,780,798,819,839,859,878,899,920,938,959,979,999,1019,1040,1058,1079,1099,1119],"xSR":741.5,"ySR":469.95,"xT1":424.9,"yT1":0,"xT2":1058.1,"yT2":0,"toosoon":0,"cond_shown":"equaldotanddens","ratio_trial":900,"smaller_num":"9","larger_num":"10","correct_side":2,"subjID":"miguelacevedo11","gender":"0","age":"0","school":"6"},{"start_time":1551900798349,"click_time":1551900799517,"finger_time":1551900798817,"fix_duration":251.22529048424445,"trial":38,"RT":468,"MT":700,"sideResp":1,"stimulus":"img/250/equaldotsize/L/2_Ratio_250_L_16_R_4.png","xmouse":[789,789,789,787,786,780,769,766,765,765,765,765,765,765,765,765,765,765,765,765,766,774,785,797,804,805,805,803,797,790,781,757,742,733,725,704,683,675,669,665,655,649,638,623,603,562,509,490,483,482,481,481,479,477,477,477,477,477,477],"ymouse":[541,541,541,541,541,540,540,541,541,541,541,541,541,541,541,541,541,539,536,532,522,506,482,452,413,373,360,352,345,338,332,320,309,299,287,257,221,210,201,197,188,184,180,173,168,155,139,134,131,131,130,130,126,124,122,119,107,102,97],"timestamp_mouse":[7,27,47,67,88,108,127,147,168,187,208,227,248,268,287,309,328,347,368,389,409,428,448,468,488,510,527,547,567,587,608,627,648,668,688,707,727,748,768,789,809,828,849,868,888,908,927,947,968,988,1009,1027,1049,1068,1088,1108,1128,1148,1168],"xSR":741.5,"ySR":469.95,"xT1":424.9,"yT1":0,"xT2":1058.1,"yT2":0,"toosoon":0,"cond_shown":"equaldotsize","ratio_trial":250,"smaller_num":"4","larger_num":"16","correct_side":1,"subjID":"miguelacevedo11","gender":"0","age":"0","school":"6"},{"start_time":1551900802665,"click_time":1551900804518,"finger_time":1551900803417,"fix_duration":785.1252409981761,"trial":39,"RT":752,"MT":1101,"sideResp":1,"stimulus":"img/900/equaldotanddens/L/10_Ratio_900_L_20_R_18.png","xmouse":[807,807,807,807,807,807,807,807,807,807,807,807,807,807,807,807,807,807,807,807,807,807,807,807,807,807,807,807,807,808,811,813,814,815,816,818,821,832,850,869,888,910,916,921,927,933,933,934,934,934,934,933,925,915,901,867,835,783,737,693,633,611,598,593,590,586,582,578,575,574,574,574,573,573,572,570,564,558,554,550,547,543,540,538,536,531,529,528,528,528,527,525,524],"ymouse":[543,543,543,543,543,543,543,543,543,543,543,543,543,543,543,543,543,543,543,543,543,543,543,543,543,543,540,537,535,532,524,519,513,507,501,490,480,441,374,306,241,127,89,65,48,36,34,33,30,29,26,24,24,24,25,38,48,62,74,80,84,84,84,84,81,68,60,55,52,51,51,51,51,51,51,51,53,56,57,57,57,57,57,56,55,54,54,54,54,54,54,54,53],"timestamp_mouse":[13,31,52,73,92,111,132,151,172,192,211,232,252,271,292,312,332,351,371,392,413,433,452,472,492,511,532,552,573,592,611,632,651,673,693,712,733,752,773,792,811,832,853,871,893,911,931,951,972,992,1012,1032,1052,1072,1092,1113,1133,1152,1172,1192,1212,1231,1252,1272,1292,1312,1331,1352,1373,1392,1411,1432,1451,1472,1491,1513,1531,1552,1572,1592,1612,1631,1652,1673,1692,1713,1732,1751,1772,1792,1812,1831,1853],"xSR":741.5,"ySR":469.95,"xT1":424.9,"yT1":0,"xT2":1058.1,"yT2":0,"toosoon":0,"cond_shown":"equaldotanddens","ratio_trial":900,"smaller_num":"18","larger_num":"20","correct_side":1,"subjID":"miguelacevedo11","gender":"0","age":"0","school":"6"},{"start_time":1551900806419,"click_time":1551900807316,"finger_time":1551900806957,"fix_duration":360.9369117948316,"trial":40,"RT":538,"MT":359,"sideResp":1,"stimulus":"img/250/equaldotanddens/L/7_Ratio_250_L_8_R_2.png","xmouse":[787,787,787,787,787,787,787,787,787,787,787,787,787,787,787,787,787,787,787,787,787,787,787,787,786,785,780,756,735,707,676,644,609,609,609,609,609,609,609,609,609,609,609,609,522],"ymouse":[507,507,507,507,507,507,507,507,507,507,507,507,507,507,507,507,507,507,504,499,493,490,487,485,481,473,455,364,309,244,171,96,18,18,18,18,18,18,18,18,18,18,18,18,7],"timestamp_mouse":[17,43,59,79,98,117,137,157,179,199,218,238,257,279,299,318,337,358,379,398,419,438,458,478,499,518,538,559,577,598,618,639,659,679,697,717,737,759,778,797,818,838,858,877,897],"xSR":741.5,"ySR":469.95,"xT1":424.9,"yT1":0,"xT2":1058.1,"yT2":0,"toosoon":0,"cond_shown":"equaldotanddens","ratio_trial":250,"smaller_num":"2","larger_num":"8","correct_side":1,"subjID":"miguelacevedo11","gender":"0","age":"0","school":"6"},{"start_time":1551900809081,"click_time":1551900820317,"finger_time":1551900818398,"fix_duration":283.1192371998093,"trial":41,"RT":9317,"MT":1919,"sideResp":2,"stimulus":"img/500/equaldotsize/L/8_Ratio_500_L_8_R_4.png","xmouse":[779,779,779,779,779,779,779,779,779,779,779,779,779,779,779,779,779,779,779,779,779,779,779,779,779,779,779,779,779,779,779,779,779,779,779,779,779,779,779,779,779,779,779,779,779,779,779,779,779,779,779,779,779,779,779,779,779,779,779,779,779,779,779,779,779,779,779,779,779,779,779,779,779,779,779,779,779,779,779,779,779,779,779,779,779,779,779,779,779,779,779,779,779,779,779,779,779,779,779,779,779,779,779,779,779,779,779,779,779,779,779,779,779,779,779,779,779,779,779,779,779,779,779,779,779,779,779,779,779,779,779,779,779,779,779,779,779,779,779,779,779,779,779,779,779,779,779,779,779,779,779,779,779,779,779,779,779,779,779,779,779,779,779,779,779,779,779,779,779,779,779,779,779,779,779,779,779,779,779,779,779,779,779,779,779,779,779,779,779,779,779,779,779,779,779,779,779,779,779,779,779,779,779,779,779,779,779,779,779,779,779,779,779,779,779,779,779,779,779,779,779,779,779,779,779,779,779,779,779,779,779,779,779,779,779,779,779,779,779,779,779,779,779,779,779,779,779,779,779,779,779,779,779,779,779,779,779,779,779,779,779,779,779,779,779,779,779,779,779,779,779,779,779,779,779,779,779,779,779,779,779,779,779,779,779,779,779,779,779,779,779,779,779,779,779,779,779,779,779,779,779,779,779,779,779,779,779,779,779,779,779,779,779,779,779,779,779,779,779,779,779,779,779,779,779,779,779,779,779,779,779,779,779,779,779,779,779,779,779,779,779,779,779,779,779,779,779,779,779,779,779,779,779,779,779,779,779,779,779,779,779,779,779,779,779,779,779,779,779,779,779,779,779,779,779,779,779,779,779,779,779,779,779,779,779,779,779,779,779,779,779,779,779,779,779,779,779,779,779,779,779,779,779,779,779,779,779,779,779,779,779,779,779,779,779,779,779,779,779,779,779,779,779,779,779,779,779,779,779,779,779,779,779,779,779,779,779,779,779,779,779,779,779,779,779,779,779,779,779,779,779,779,779,779,779,779,779,779,779,779,779,779,779,779,779,779,779,778,778,778,778,780,783,784,784,784,784,781,779,778,778,776,775,772,770,769,769,769,769,769,769,769,769,774,789,806,847,869,887,891,880,854,849,849,870,901,953,953,953,953,953,953,953,953,953,953,953,953,953,953,915,799,765,748,739,736,736,740,749,758,770,799,815,834,853,874,925,969,989,999,1005,1009,1009,1009,1009,1009,1009,1009,1009,1009,1009,1009,1009,1009,1009,1009,1009,1009,1009,1009,1009,1073],"ymouse":[479,479,479,479,479,479,479,479,479,479,479,479,479,479,479,479,479,479,479,479,479,479,479,479,479,479,479,479,479,479,479,479,479,479,479,479,479,479,479,479,479,479,479,479,479,479,479,479,479,479,479,479,479,479,479,479,479,479,479,479,479,479,479,479,479,479,479,479,479,479,479,479,479,479,479,479,479,479,479,479,479,479,479,479,479,479,479,479,479,479,479,479,479,479,479,479,479,479,479,479,479,479,479,479,479,479,479,479,479,479,479,479,479,479,479,479,479,479,479,479,479,479,479,479,479,479,479,479,479,479,479,479,479,479,479,479,479,479,479,479,479,479,479,479,479,479,479,479,479,479,479,479,479,479,479,479,479,479,479,479,479,479,479,479,479,479,479,479,479,479,479,479,479,479,479,479,479,479,479,479,479,479,479,479,479,479,479,479,479,479,479,479,479,479,479,479,479,479,479,479,479,479,479,479,479,479,479,479,479,479,479,479,479,479,479,479,479,479,479,479,479,479,479,479,479,479,479,479,479,479,479,479,479,479,479,479,479,479,479,479,479,479,479,479,479,479,479,479,479,479,479,479,479,479,479,479,479,479,479,479,479,479,479,479,479,479,479,479,479,479,479,479,479,479,479,479,479,479,479,479,479,479,479,479,479,479,479,479,479,479,479,479,479,479,479,479,479,479,479,479,479,479,479,479,479,479,479,479,479,479,479,479,479,479,479,479,479,479,479,479,479,479,479,479,479,479,479,479,479,479,479,479,479,479,479,479,479,479,479,479,479,479,479,479,479,479,479,479,479,479,479,479,479,479,479,479,479,479,479,479,479,479,479,479,479,479,479,479,479,479,479,479,479,479,479,479,479,479,479,479,479,479,479,479,479,479,479,479,479,479,479,479,479,479,479,479,479,479,479,479,479,479,479,479,479,479,479,479,479,479,479,479,479,479,479,479,479,479,479,479,479,479,479,479,479,479,479,479,479,479,479,479,479,479,479,479,479,479,479,479,479,479,479,479,479,479,479,479,479,479,479,479,479,479,479,479,479,479,479,479,479,479,479,479,478,463,456,454,454,454,454,474,493,511,528,537,538,539,538,537,537,537,537,536,536,536,536,536,536,536,536,536,536,535,531,524,496,478,459,435,419,374,338,278,200,129,13,13,13,13,13,13,13,13,13,13,13,13,13,13,92,277,360,425,467,491,506,509,510,510,510,489,466,431,388,340,219,118,65,31,8,0,0,0,0,0,0,0,0,0,0,0,0,0,0,0,0,0,0,0,0,7],"timestamp_mouse":[16,35,57,76,95,117,136,157,175,196,217,235,256,276,297,316,335,355,377,395,416,436,456,475,496,517,537,555,575,595,617,635,656,676,696,717,735,756,777,796,817,836,855,877,896,916,936,957,976,995,1016,1036,1056,1077,1096,1115,1136,1156,1177,1197,1217,1236,1257,1276,1295,1316,1336,1356,1375,1395,1417,1435,1457,1476,1496,1515,1535,1557,1576,1597,1616,1636,1656,1677,1695,1722,1736,1757,1776,1796,1817,1836,1855,1877,1896,1915,1935,1957,1977,1995,2015,2037,2055,2075,2095,2115,2135,2155,2177,2197,2215,2236,2255,2277,2295,2315,2335,2355,2377,2396,2415,2437,2456,2475,2495,2515,2537,2556,2575,2596,2615,2637,2656,2677,2695,2716,2737,2756,2777,2797,2817,2836,2855,2877,2896,2916,2937,2957,2977,2996,3015,3036,3057,3076,3097,3116,3136,3156,3176,3196,3217,3236,3256,3277,3297,3316,3336,3356,3375,3395,3415,3435,3456,3477,3497,3517,3536,3556,3577,3596,3616,3637,3655,3676,3695,3717,3736,3757,3776,3797,3817,3836,3857,3877,3896,3916,3937,3955,3975,3997,4016,4035,4057,4077,4096,4115,4136,4156,4175,4196,4216,4235,4256,4275,4297,4316,4336,4357,4376,4396,4415,4437,4457,4476,4495,4516,4535,4555,4576,4595,4616,4637,4656,4676,4696,4716,4735,4756,4777,4795,4816,4835,4857,4875,4896,4915,4936,4955,4975,4997,5015,5036,5057,5076,5096,5116,5136,5156,5177,5196,5216,5237,5257,5275,5296,5315,5337,5355,5376,5396,5416,5436,5457,5477,5497,5516,5536,5557,5577,5597,5615,5636,5657,5675,5695,5715,5737,5755,5775,5796,5817,5837,5856,5876,5896,5915,5936,5956,5976,5997,6016,6035,6057,6076,6095,6116,6137,6156,6176,6197,6217,6236,6256,6276,6297,6317,6336,6356,6376,6395,6417,6436,6456,6477,6496,6515,6535,6557,6577,6596,6615,6637,6655,6676,6695,6715,6737,6757,6775,6795,6815,6837,6857,6876,6897,6917,6936,6956,6975,6997,7016,7035,7057,7077,7096,7117,7136,7156,7177,7197,7216,7236,7257,7277,7296,7315,7336,7356,7376,7395,7417,7436,7455,7477,7497,7516,7537,7557,7575,7595,7617,7636,7657,7676,7695,7716,7737,7757,7776,7796,7817,7837,7856,7875,7896,7915,7936,7957,7976,7995,8015,8036,8057,8075,8095,8117,8137,8156,8176,8196,8216,8236,8257,8275,8296,8316,8337,8357,8376,8395,8417,8437,8455,8476,8497,8517,8535,8557,8575,8595,8617,8637,8655,8677,8696,8716,8737,8756,8776,8797,8816,8836,8855,8877,8896,8917,8936,8957,8976,8996,9016,9037,9056,9076,9097,9116,9135,9155,9177,9196,9215,9236,9256,9275,9295,9317,9337,9356,9376,9396,9416,9436,9456,9476,9496,9515,9535,9556,9576,9597,9616,9635,9656,9677,9695,9716,9735,9756,9777,9795,9816,9836,9856,9875,9896,9916,9935,9956,9976,9997,10016,10035,10055,10075,10096,10116,10135,10156,10177,10196,10216,10236,10256,10276,10295,10315,10336,10355,10376,10397,10416,10436,10455,10475,10496,10516,10535,10555,10575,10596,10615,10636,10656,10676,10696,10716,10736,10757,10775,10797,10815,10836,10856,10876,10895,10915,10935,10955,10975,10997,11016,11035,11056,11076,11095,11116,11136,11156,11176,11195,11216,11235],"xSR":741.5,"ySR":469.95,"xT1":424.9,"yT1":0,"xT2":1058.1,"yT2":0,"toosoon":0,"cond_shown":"equaldotsize","ratio_trial":500,"smaller_num":"4","larger_num":"8","correct_side":1,"subjID":"miguelacevedo11","gender":"0","age":"0","school":"6"},{"start_time":1551900828663,"click_time":1551900830916,"finger_time":1551900829336,"fix_duration":1043.025765331594,"trial":42,"RT":673,"MT":1580,"sideResp":1,"stimulus":"img/900/equaldotsize/R/3_Ratio_900_L_9_R_10.png","xmouse":[798,798,798,798,798,798,798,798,798,798,798,798,797,797,797,797,797,797,797,797,797,797,797,797,797,797,797,797,797,793,787,782,778,766,763,762,762,762,761,761,761,761,761,760,760,760,760,760,760,760,760,760,760,760,760,760,760,760,760,759,758,758,758,758,758,758,758,758,758,758,758,758,758,758,758,758,758,758,758,758,758,758,758,758,758,762,767,774,785,801,803,804,804,804,808,810,810,810,810,810,810,807,802,785,750,723,706,693,632,581,519,475,425],"ymouse":[513,513,513,513,513,513,513,513,513,513,513,513,513,513,513,513,513,513,513,513,513,513,513,513,513,513,513,513,513,509,497,486,475,452,445,445,444,444,444,444,444,444,444,444,445,445,445,445,445,445,445,445,445,445,445,445,445,445,446,450,454,457,458,459,459,459,459,459,459,459,459,459,459,459,459,459,459,459,459,459,459,459,459,460,463,464,468,473,480,491,492,492,492,492,498,500,501,501,501,501,502,498,483,428,362,315,277,248,183,150,122,103,86],"timestamp_mouse":[14,42,53,75,95,113,134,153,174,195,214,234,253,273,295,315,334,355,374,393,414,435,453,474,494,515,533,554,574,594,614,634,654,673,694,713,733,753,774,794,813,834,854,874,895,913,934,955,974,994,1013,1033,1054,1073,1093,1113,1134,1155,1173,1193,1214,1235,1254,1273,1294,1314,1333,1353,1374,1395,1414,1433,1453,1474,1493,1514,1534,1555,1574,1595,1615,1635,1654,1673,1694,1714,1734,1754,1774,1793,1814,1835,1855,1873,1893,1914,1933,1954,1974,1995,2014,2033,2055,2074,2093,2113,2133,2154,2174,2194,2214,2234,2253],"xSR":741.5,"ySR":469.95,"xT1":424.9,"yT1":0,"xT2":1058.1,"yT2":0,"toosoon":0,"cond_shown":"equaldotsize","ratio_trial":900,"smaller_num":"9","larger_num":"10","correct_side":2,"subjID":"miguelacevedo11","gender":"0","age":"0","school":"6"},{"start_time":1551900832219,"click_time":1551900832958,"finger_time":1551900832577,"fix_duration":302.28296218535354,"trial":43,"RT":358,"MT":381,"sideResp":1,"stimulus":"img/750/equaldotsize/L/14_Ratio_750_L_8_R_6.png","xmouse":[814,814,814,814,814,814,814,814,814,814,814,814,814,814,814,814,815,820,828,828,828,834,843,851,856,860,865,865,865,859,842,783,738,679,621,575,500],"ymouse":[516,516,516,516,516,516,516,516,516,516,516,516,516,516,516,511,492,460,408,372,342,295,278,265,258,250,238,233,226,216,203,178,161,146,130,117,95],"timestamp_mouse":[19,38,58,78,97,118,138,157,177,197,217,239,258,278,297,319,339,358,377,397,417,437,458,478,498,517,537,557,577,598,619,637,657,677,699,718,739],"xSR":741.5,"ySR":469.95,"xT1":424.9,"yT1":0,"xT2":1058.1,"yT2":0,"toosoon":0,"cond_shown":"equaldotsize","ratio_trial":750,"smaller_num":"6","larger_num":"8","correct_side":1,"subjID":"miguelacevedo11","gender":"0","age":"0","school":"6"},{"start_time":1551900834728,"click_time":1551900835656,"finger_time":1551900835117,"fix_duration":250,"trial":44,"RT":389,"MT":539,"sideResp":2,"stimulus":"img/500/randomdotsizeEA/L/11_Ratio_500_L_12_R_6.png","xmouse":[791,791,791,791,791,791,791,791,791,791,791,791,791,791,791,791,791,801,826,897,951,1036,1054,1062,1065,1065,1065,1065,1065,1065,1065,1065,1065,1065,1064,1064,1064,1064,1064,1063,1062,1062,1062,1062,1062,1062,1067],"ymouse":[544,544,544,544,544,544,544,544,544,544,544,544,544,544,544,544,544,531,507,432,363,209,163,140,126,124,124,124,124,124,122,117,115,113,113,113,113,113,113,111,110,110,110,110,110,106,99],"timestamp_mouse":[9,48,49,69,89,109,129,150,168,189,210,229,249,269,290,309,328,349,369,389,409,428,449,469,489,509,529,548,568,588,608,628,650,669,690,710,728,748,768,789,809,830,849,869,888,908,928],"xSR":741.5,"ySR":469.95,"xT1":424.9,"yT1":0,"xT2":1058.1,"yT2":0,"toosoon":0,"cond_shown":"randomdotsizeEA","ratio_trial":500,"smaller_num":"6","larger_num":"12","correct_side":1,"subjID":"miguelacevedo11","gender":"0","age":"0","school":"6"},{"start_time":1551900837455,"click_time":1551900838657,"finger_time":1551900837958,"fix_duration":877.2441114311601,"trial":45,"RT":503,"MT":699,"sideResp":1,"stimulus":"img/500/equaldotanddens/L/10_Ratio_500_L_4_R_2.png","xmouse":[808,808,808,808,808,808,808,808,808,808,808,808,808,808,808,808,808,808,808,808,808,806,804,802,800,791,782,774,763,750,712,685,644,625,610,583,574,571,571,571,571,570,568,563,559,547,542,539,535,533,533,533,533,532,532,532,532,532,531,529,516],"ymouse":[532,532,532,532,532,532,530,528,526,522,520,518,517,517,517,517,517,517,517,517,517,516,512,506,494,459,440,424,408,393,366,347,316,296,277,250,243,241,241,241,239,232,219,200,184,129,96,69,51,45,45,45,45,45,46,46,46,46,47,47,50],"timestamp_mouse":[9,22,42,63,82,107,122,142,162,181,201,223,242,262,281,302,321,343,361,381,401,421,441,462,481,503,522,542,562,582,602,621,642,663,681,702,722,742,763,782,802,822,842,861,882,902,921,942,962,981,1002,1021,1043,1063,1082,1102,1121,1141,1162,1182,1202],"xSR":741.5,"ySR":469.95,"xT1":424.9,"yT1":0,"xT2":1058.1,"yT2":0,"toosoon":0,"cond_shown":"equaldotanddens","ratio_trial":500,"smaller_num":"2","larger_num":"4","correct_side":1,"subjID":"miguelacevedo11","gender":"0","age":"0","school":"6"},{"start_time":1551900840487,"click_time":1551900841337,"finger_time":1551900840877,"fix_duration":1188.9471463604452,"trial":46,"RT":390,"MT":460,"sideResp":2,"stimulus":"img/250/equaldotsize/R/6_Ratio_250_L_6_R_24.png","xmouse":[778,778,778,778,778,778,778,778,778,778,778,778,778,778,778,778,778,778,778,781,788,796,810,850,866,878,889,898,909,918,925,934,950,969,1003,1014,1020,1022,1023,1026,1035,1047,1061],"ymouse":[554,554,554,554,554,554,554,554,554,553,552,550,550,550,549,546,540,532,509,468,443,416,382,309,280,258,239,225,210,198,189,180,166,150,121,112,107,105,105,103,98,91,83],"timestamp_mouse":[9,31,50,78,90,110,130,151,169,191,210,230,250,269,290,311,329,349,369,390,409,430,449,469,490,511,529,551,570,590,609,629,649,670,690,709,730,749,770,790,809,830,850],"xSR":741.5,"ySR":469.95,"xT1":424.9,"yT1":0,"xT2":1058.1,"yT2":0,"toosoon":0,"cond_shown":"equaldotsize","ratio_trial":250,"smaller_num":"6","larger_num":"24","correct_side":2,"subjID":"miguelacevedo11","gender":"0","age":"0","school":"6"},{"start_time":1551900843622,"click_time":1551900844637,"finger_time":1551900844217,"fix_duration":1304.1582418149042,"trial":47,"RT":595,"MT":420,"sideResp":2,"stimulus":"img/500/randomdotsizeEA/R/3_Ratio_500_L_10_R_20.png","xmouse":[798,798,798,798,798,798,798,798,798,798,798,798,798,798,798,798,798,797,797,797,797,797,797,796,796,796,796,799,804,810,820,842,883,900,923,948,972,1032,1063,1066,1068,1069,1069,1069,1069,1069,1069,1069,1069,1070,1072],"ymouse":[541,541,541,541,541,541,541,541,541,541,541,541,541,541,541,541,541,539,537,534,530,529,526,525,523,519,513,495,481,462,440,398,326,293,255,219,188,138,118,116,112,110,108,108,108,108,108,107,107,103,99],"timestamp_mouse":[15,39,55,76,95,114,134,156,175,194,215,234,255,275,294,315,336,355,375,394,415,435,455,475,494,515,535,554,575,595,615,635,654,675,694,715,736,755,774,794,816,835,855,874,894,915,935,955,975,995,1015],"xSR":741.5,"ySR":469.95,"xT1":424.9,"yT1":0,"xT2":1058.1,"yT2":0,"toosoon":0,"cond_shown":"randomdotsizeEA","ratio_trial":500,"smaller_num":"10","larger_num":"20","correct_side":2,"subjID":"miguelacevedo11","gender":"0","age":"0","school":"6"},{"start_time":1551900845850,"click_time":1551900846777,"finger_time":1551900846277,"fix_duration":330.8185050695006,"trial":48,"RT":427,"MT":500,"sideResp":1,"stimulus":"img/250/randomdotsizeEA/L/2_Ratio_250_L_16_R_4.png","xmouse":[805,805,805,805,805,804,802,799,798,796,794,793,793,793,793,793,793,793,793,790,785,765,751,737,722,701,623,590,564,553,544,537,534,532,531,530,528,526,522,520,512,489,480,474,470,467,464],"ymouse":[525,525,525,525,525,524,523,521,520,520,518,518,518,518,518,518,518,516,511,497,482,447,428,407,387,360,301,278,258,248,240,234,231,230,229,228,226,222,216,207,195,162,145,130,116,107,96],"timestamp_mouse":[13,27,49,67,88,107,126,148,167,187,206,226,247,267,288,307,327,348,367,386,406,427,447,467,486,507,526,546,567,588,608,627,647,667,687,707,727,747,766,786,808,827,846,867,888,907,927],"xSR":741.5,"ySR":469.95,"xT1":424.9,"yT1":0,"xT2":1058.1,"yT2":0,"toosoon":0,"cond_shown":"randomdotsizeEA","ratio_trial":250,"smaller_num":"4","larger_num":"16","correct_side":1,"subjID":"miguelacevedo11","gender":"0","age":"0","school":"6"},{"start_time":1551900848774,"click_time":1551900850096,"finger_time":1551900849297,"fix_duration":775.0054094726858,"trial":49,"RT":523,"MT":799,"sideResp":1,"stimulus":"img/500/equaldotanddens/L/7_Ratio_500_L_10_R_5.png","xmouse":[768,768,768,768,768,768,768,768,768,768,768,768,768,768,768,769,769,770,771,771,772,774,775,777,778,781,792,798,805,815,849,863,874,883,890,892,892,889,881,867,847,798,794,791,789,779,744,714,681,654,634,607,597,581,565,553,540,540,539,539,539,538,537,534,530,521,498],"ymouse":[532,532,532,532,532,532,532,532,532,532,532,532,532,532,532,531,530,528,525,523,521,513,508,503,497,487,455,433,410,383,314,287,262,241,223,208,205,202,199,195,192,183,183,183,182,180,174,172,172,172,172,169,164,156,145,135,125,123,122,122,122,120,119,117,114,109,92],"timestamp_mouse":[10,22,42,62,83,104,123,143,163,183,202,224,242,262,282,302,323,343,363,383,402,423,443,463,482,502,523,544,563,584,604,622,643,663,683,704,723,743,762,783,803,823,843,864,882,904,922,942,962,982,1003,1024,1042,1063,1082,1103,1122,1143,1163,1183,1203,1224,1242,1262,1282,1304,1322],"xSR":741.5,"ySR":469.95,"xT1":424.9,"yT1":0,"xT2":1058.1,"yT2":0,"toosoon":0,"cond_shown":"equaldotanddens","ratio_trial":500,"smaller_num":"5","larger_num":"10","correct_side":1,"subjID":"miguelacevedo11","gender":"0","age":"0","school":"6"},{"start_time":1551900852862,"click_time":1551900853896,"finger_time":1551900853296,"fix_duration":1463.4722959892076,"trial":50,"RT":434,"MT":600,"sideResp":2,"stimulus":"img/750/equaldotanddens/R/4_Ratio_750_L_15_R_20.png","xmouse":[779,779,779,779,779,779,779,779,779,779,779,779,779,779,779,779,779,785,792,800,804,822,834,851,888,913,961,980,997,1015,1030,1062,1072,1091,1100,1108,1117,1117,1117,1117,1117,1117,1117,1117,1117,1117,1117,1117,1117,1117,1118,1120],"ymouse":[542,542,542,542,542,542,542,542,542,542,542,542,542,542,542,542,541,531,517,503,492,464,451,437,415,402,372,357,335,308,281,222,191,153,136,127,118,118,118,118,118,118,118,118,118,118,117,116,110,108,104,97],"timestamp_mouse":[16,34,67,74,95,114,135,154,175,195,215,235,256,276,294,315,335,355,376,394,415,434,454,475,495,515,534,555,575,594,615,634,656,674,694,714,734,755,775,795,814,834,856,874,895,915,934,954,975,994,1014,1034],"xSR":741.5,"ySR":469.95,"xT1":424.9,"yT1":0,"xT2":1058.1,"yT2":0,"toosoon":0,"cond_shown":"equaldotanddens","ratio_trial":750,"smaller_num":"15","larger_num":"20","correct_side":2,"subjID":"miguelacevedo11","gender":"0","age":"0","school":"6"},{"start_time":1551900855548,"click_time":1551900856137,"finger_time":1551900856057,"fix_duration":250,"trial":51,"RT":509,"MT":80,"sideResp":1,"stimulus":"img/250/equaldotanddens/L/7_Ratio_250_L_8_R_2.png","xmouse":[797,797,797,797,797,797,797,797,797,797,797,797,798,798,798,798,798,798,798,798,799,800,810,813,809,787,741,622,532,480],"ymouse":[519,519,519,519,519,519,519,519,519,519,519,519,525,529,531,531,531,531,531,531,531,531,524,503,479,437,378,257,149,89],"timestamp_mouse":[12,35,50,69,90,108,128,149,168,189,208,228,249,269,288,308,330,349,369,388,409,429,448,468,490,509,529,550,568,589],"xSR":741.5,"ySR":469.95,"xT1":424.9,"yT1":0,"xT2":1058.1,"yT2":0,"toosoon":0,"cond_shown":"equaldotanddens","ratio_trial":250,"smaller_num":"2","larger_num":"8","correct_side":1,"subjID":"miguelacevedo11","gender":"0","age":"0","school":"6"},{"start_time":1551900858391,"click_time":1551900859696,"finger_time":1551900858997,"fix_duration":1172.862083313345,"trial":52,"RT":606,"MT":699,"sideResp":2,"stimulus":"img/500/equaldotsize/R/15_Ratio_500_L_1_R_2.png","xmouse":[801,801,801,801,801,801,801,801,801,801,797,796,795,795,795,788,783,781,781,781,781,781,780,780,780,780,783,796,812,830,952,1041,1115,1153,1157,1155,1146,1139,1131,1122,1113,1099,1092,1088,1086,1086,1086,1086,1086,1086,1089,1089,1089,1089,1089,1089,1089,1089,1090,1091,1091,1091,1091,1091,1092,1092],"ymouse":[539,539,539,539,539,539,539,539,538,538,538,538,538,538,538,538,538,537,537,537,544,549,551,551,551,551,553,557,553,541,432,357,298,265,252,240,217,199,183,167,153,131,123,119,115,114,113,113,112,112,103,102,102,102,102,102,102,102,101,101,101,100,100,100,100,97],"timestamp_mouse":[9,41,47,66,85,105,126,147,166,186,206,225,246,266,287,307,325,347,365,385,407,426,446,467,486,505,526,546,565,585,606,625,647,666,686,705,725,745,765,785,805,825,847,866,885,907,925,946,966,986,1008,1026,1045,1065,1087,1106,1127,1145,1166,1187,1205,1225,1245,1265,1285,1305],"xSR":741.5,"ySR":469.95,"xT1":424.9,"yT1":0,"xT2":1058.1,"yT2":0,"toosoon":0,"cond_shown":"equaldotsize","ratio_trial":500,"smaller_num":"1","larger_num":"2","correct_side":2,"subjID":"miguelacevedo11","gender":"0","age":"0","school":"6"},{"start_time":1551900862316,"click_time":1551900863576,"finger_time":1551900862776,"fix_duration":877.140155026364,"trial":53,"RT":460,"MT":800,"sideResp":1,"stimulus":"img/750/equaldotanddens/L/13_Ratio_750_L_8_R_6.png","xmouse":[788,788,788,788,788,788,788,788,788,788,788,788,788,788,788,788,788,788,788,788,788,788,788,788,788,786,768,723,680,603,603,603,603,603,603,603,603,603,603,603,603,326,325,325,328,345,348,351,360,375,411,421,425,425,426,428,428,428,429,430,433,436,438,440],"ymouse":[497,497,497,497,497,497,497,497,497,497,497,497,497,497,497,497,497,497,497,497,497,497,492,459,401,303,255,173,111,14,14,14,14,14,14,14,14,14,14,14,14,43,104,163,214,250,251,251,237,219,190,181,178,176,174,167,164,158,152,144,131,113,100,88],"timestamp_mouse":[9,20,41,61,80,102,121,140,161,181,201,221,240,262,282,305,321,340,362,381,401,420,440,460,481,501,520,540,560,581,601,620,641,661,681,702,721,741,761,780,801,820,840,860,880,901,921,940,960,981,1000,1020,1041,1060,1080,1101,1120,1140,1162,1180,1200,1220,1240,1260],"xSR":741.5,"ySR":469.95,"xT1":424.9,"yT1":0,"xT2":1058.1,"yT2":0,"toosoon":0,"cond_shown":"equaldotanddens","ratio_trial":750,"smaller_num":"6","larger_num":"8","correct_side":1,"subjID":"miguelacevedo11","gender":"0","age":"0","school":"6"},{"start_time":1551900867005,"click_time":1551900868036,"finger_time":1551900867476,"fix_duration":1186.065358240118,"trial":54,"RT":471,"MT":560,"sideResp":1,"stimulus":"img/500/randomdotsizeEA/L/5_Ratio_500_L_4_R_2.png","xmouse":[822,822,822,822,822,822,822,822,822,822,822,822,822,822,822,822,822,822,822,822,821,818,810,800,781,762,726,699,663,623,549,549,549,549,549,549,549,549,549,549,549,549,549,549,549,420,421,421,421,422,424,427],"ymouse":[524,524,524,524,524,524,524,524,524,524,524,524,524,524,524,524,524,524,524,524,518,506,481,451,408,367,290,240,177,110,6,6,6,6,6,6,6,6,6,6,6,6,6,6,6,0,3,6,9,12,16,22],"timestamp_mouse":[11,32,62,72,93,112,131,152,172,193,213,232,251,272,292,312,331,351,371,393,412,432,451,471,492,513,531,551,571,592,612,633,652,672,692,712,732,751,772,792,811,832,852,872,892,913,931,952,972,992,1011,1031],"xSR":741.5,"ySR":469.95,"xT1":424.9,"yT1":0,"xT2":1058.1,"yT2":0,"toosoon":0,"cond_shown":"randomdotsizeEA","ratio_trial":500,"smaller_num":"2","larger_num":"4","correct_side":1,"subjID":"miguelacevedo11","gender":"0","age":"0","school":"6"},{"start_time":1551900870643,"click_time":1551900871576,"finger_time":1551900871036,"fix_duration":1482.1290374476098,"trial":55,"RT":393,"MT":540,"sideResp":1,"stimulus":"img/750/equaldotanddens/L/14_Ratio_750_L_8_R_6.png","xmouse":[784,784,784,784,784,784,784,784,784,784,784,784,784,784,784,783,782,776,763,719,715,715,714,712,684,670,659,649,642,626,614,599,587,577,564,564,564,566,567,568,568,566,563,557,529,498,480],"ymouse":[524,524,524,524,524,524,524,524,524,524,524,524,524,524,524,519,516,498,483,443,436,432,428,420,381,363,343,321,313,299,286,264,243,220,183,175,169,165,157,138,127,121,117,115,111,104,94],"timestamp_mouse":[13,37,55,73,93,114,135,153,173,195,215,234,254,274,294,314,334,353,373,393,414,433,453,474,494,513,534,555,574,593,614,634,653,675,694,713,733,754,774,793,814,833,853,873,893,913,933],"xSR":741.5,"ySR":469.95,"xT1":424.9,"yT1":0,"xT2":1058.1,"yT2":0,"toosoon":0,"cond_shown":"equaldotanddens","ratio_trial":750,"smaller_num":"6","larger_num":"8","correct_side":1,"subjID":"miguelacevedo11","gender":"0","age":"0","school":"6"},{"start_time":1551900873047,"click_time":1551900874217,"finger_time":1551900873436,"fix_duration":608.65550963425,"trial":56,"RT":389,"MT":781,"sideResp":2,"stimulus":"img/500/equaldotanddens/R/12_Ratio_500_L_1_R_2.png","xmouse":[786,786,786,786,786,786,786,786,786,786,786,786,786,786,786,786,784,778,760,702,679,664,654,650,648,646,644,643,642,641,641,641,642,651,692,736,766,799,826,872,914,981,1057,1131,1208,1222,1226,1228,1231,1243,1247,1248,1248,1240,1223,1209,1185,1166,1157],"ymouse":[534,534,534,534,534,534,534,534,534,534,534,534,534,534,534,534,534,529,519,484,466,447,427,411,381,366,358,351,344,328,323,318,314,304,280,266,258,247,237,217,194,164,131,108,87,85,84,83,80,74,71,67,63,56,52,52,52,52,53],"timestamp_mouse":[12,34,51,69,91,111,130,149,171,191,210,230,249,271,289,309,329,350,369,389,409,429,449,469,490,509,530,549,569,590,609,629,649,670,690,709,729,750,769,790,810,829,849,869,891,910,930,951,969,990,1010,1030,1049,1070,1091,1110,1129,1150,1169],"xSR":741.5,"ySR":469.95,"xT1":424.9,"yT1":0,"xT2":1058.1,"yT2":0,"toosoon":0,"cond_shown":"equaldotanddens","ratio_trial":500,"smaller_num":"1","larger_num":"2","correct_side":2,"subjID":"miguelacevedo11","gender":"0","age":"0","school":"6"},{"start_time":1551900877093,"click_time":1551900878238,"finger_time":1551900877557,"fix_duration":1415.6991391625902,"trial":57,"RT":464,"MT":681,"sideResp":1,"stimulus":"img/500/randomdotsizeEA/R/15_Ratio_500_L_1_R_2.png","xmouse":[805,805,805,805,805,805,805,805,805,805,805,805,805,805,805,805,805,805,805,805,805,805,803,796,789,786,786,785,774,771,764,749,706,706,706,706,706,706,706,706,706,706,706,706,706,706,568,562,555,555,555,555,555,555,554,550,540,524],"ymouse":[496,496,496,496,496,496,496,496,496,496,496,496,496,496,496,496,496,496,496,496,496,496,493,434,372,319,281,239,162,133,102,62,9,9,9,9,9,9,9,9,9,9,9,9,9,9,4,11,24,24,24,24,24,24,24,24,26,30],"timestamp_mouse":[10,24,44,63,84,103,124,144,163,183,203,225,243,265,285,304,324,344,365,384,403,425,443,464,483,503,523,543,563,583,604,624,645,664,685,703,723,743,763,784,804,823,845,863,883,903,923,945,963,984,1003,1023,1044,1065,1084,1103,1124,1145],"xSR":741.5,"ySR":469.95,"xT1":424.9,"yT1":0,"xT2":1058.1,"yT2":0,"toosoon":0,"cond_shown":"randomdotsizeEA","ratio_trial":500,"smaller_num":"1","larger_num":"2","correct_side":2,"subjID":"miguelacevedo11","gender":"0","age":"0","school":"6"},{"start_time":1551900880338,"click_time":1551900881776,"finger_time":1551900880717,"fix_duration":1259.9650482572565,"trial":58,"RT":379,"MT":1059,"sideResp":1,"stimulus":"img/750/equaldotanddens/L/9_Ratio_750_L_4_R_3.png","xmouse":[776,776,776,776,776,776,776,776,776,776,776,776,777,778,778,779,782,786,798,816,844,883,891,897,901,903,910,912,914,915,915,912,899,876,845,811,759,737,707,684,661,640,639,638,634,631,620,619,615,612,606,600,595,588,578,569,558,551,548,548,547,547,547,547,547,547,547,547,544,538,534,529,521],"ymouse":[526,526,526,525,524,523,522,522,522,521,521,520,519,517,516,515,510,505,490,468,436,379,358,341,324,310,290,282,275,264,255,228,202,166,133,114,100,97,91,85,77,68,68,67,64,61,54,54,53,53,53,51,51,49,47,45,44,43,43,43,43,43,43,43,43,43,43,43,43,43,43,42,42],"timestamp_mouse":[1,20,39,59,80,99,119,140,160,178,198,219,238,259,278,298,319,338,358,379,398,419,438,458,478,498,518,539,559,579,599,619,638,659,679,698,719,738,758,779,798,818,838,859,879,899,919,938,958,978,998,1019,1039,1059,1080,1099,1119,1140,1159,1179,1200,1219,1239,1259,1279,1299,1319,1339,1358,1380,1399,1419,1438],"xSR":741.5,"ySR":469.95,"xT1":424.9,"yT1":0,"xT2":1058.1,"yT2":0,"toosoon":0,"cond_shown":"equaldotanddens","ratio_trial":750,"smaller_num":"3","larger_num":"4","correct_side":1,"subjID":"miguelacevedo11","gender":"0","age":"0","school":"6"},{"start_time":1551900887795,"click_time":1551900888957,"finger_time":1551900888377,"fix_duration":934.645445038014,"trial":59,"RT":582,"MT":580,"sideResp":2,"stimulus":"img/250/randomdotsizeEA/R/4_Ratio_250_L_3_R_12.png","xmouse":[775,775,775,775,775,775,775,775,775,775,775,775,775,775,775,775,775,775,775,775,775,775,775,775,775,775,776,776,784,815,837,857,875,886,914,928,940,947,950,960,973,978,983,986,996,1000,1004,1010,1016,1023,1024,1025,1028,1032,1041,1047,1052,1056,1060],"ymouse":[509,509,509,509,509,509,509,509,509,509,509,509,509,509,509,509,509,509,509,509,509,509,509,509,509,509,506,499,483,432,395,349,286,239,150,118,92,74,63,43,24,14,8,5,2,2,2,7,12,21,25,28,31,32,36,37,38,38,38],"timestamp_mouse":[9,22,41,62,81,101,123,141,162,182,201,222,242,262,283,301,321,342,363,383,402,421,442,461,483,501,521,542,561,582,601,622,642,661,681,701,721,741,761,781,801,822,843,861,881,901,921,941,962,982,1002,1022,1042,1061,1081,1101,1123,1142,1162],"xSR":741.5,"ySR":469.95,"xT1":424.9,"yT1":0,"xT2":1058.1,"yT2":0,"toosoon":0,"cond_shown":"randomdotsizeEA","ratio_trial":250,"smaller_num":"3","larger_num":"12","correct_side":2,"subjID":"miguelacevedo11","gender":"0","age":"0","school":"6"},{"start_time":1551900890667,"click_time":1551900891856,"finger_time":1551900891176,"fix_duration":748.2248821908173,"trial":60,"RT":509,"MT":680,"sideResp":2,"stimulus":"img/250/randomdotsizeEA/R/13_Ratio_250_L_2_R_8.png","xmouse":[802,802,802,802,802,801,801,801,801,801,801,801,801,801,801,801,801,801,801,801,801,801,801,801,797,783,758,740,721,711,709,712,717,724,741,768,855,916,944,962,971,971,971,971,973,981,990,997,1009,1019,1026,1028,1030,1035,1040,1048,1052,1054,1057,1061],"ymouse":[484,484,484,484,484,484,484,484,484,484,484,484,484,484,484,484,484,484,484,484,484,484,484,484,473,435,372,312,259,222,172,158,150,145,141,138,121,102,95,90,86,86,86,86,85,80,73,68,64,62,59,59,59,59,59,59,60,61,62,63],"timestamp_mouse":[11,43,49,71,90,109,130,149,169,190,210,229,249,269,290,310,330,349,369,389,410,429,449,470,491,509,529,549,570,590,611,629,650,669,689,710,730,750,769,791,810,829,849,869,890,910,929,950,971,989,1011,1029,1049,1069,1089,1110,1129,1150,1170,1189],"xSR":741.5,"ySR":469.95,"xT1":424.9,"yT1":0,"xT2":1058.1,"yT2":0,"toosoon":0,"cond_shown":"randomdotsizeEA","ratio_trial":250,"smaller_num":"2","larger_num":"8","correct_side":2,"subjID":"miguelacevedo11","gender":"0","age":"0","school":"6"},{"start_time":1551900893581,"click_time":1551900894436,"finger_time":1551900893997,"fix_duration":763.8513537287379,"trial":61,"RT":416,"MT":439,"sideResp":1,"stimulus":"img/750/equaldotsize/R/15_Ratio_750_L_9_R_12.png","xmouse":[771,771,771,771,771,771,771,771,771,771,771,771,771,771,771,771,771,771,771,771,771,771,770,767,762,746,734,719,698,663,623,608,597,588,583,577,574,570,565,559,538,527,520],"ymouse":[497,497,497,497,497,497,497,497,497,497,497,497,497,497,497,497,497,496,490,482,460,452,441,431,418,387,365,341,306,261,216,204,196,191,188,184,181,175,167,158,124,110,98],"timestamp_mouse":[20,43,57,76,96,115,136,155,177,196,217,236,255,275,295,315,335,356,377,396,416,436,456,476,495,515,536,556,576,596,615,635,655,676,696,715,735,755,777,797,816,836,855],"xSR":741.5,"ySR":469.95,"xT1":424.9,"yT1":0,"xT2":1058.1,"yT2":0,"toosoon":0,"cond_shown":"equaldotsize","ratio_trial":750,"smaller_num":"9","larger_num":"12","correct_side":2,"subjID":"miguelacevedo11","gender":"0","age":"0","school":"6"},{"start_time":1551900895833,"click_time":1551900897016,"finger_time":1551900896177,"fix_duration":633.4987110099408,"trial":62,"RT":344,"MT":839,"sideResp":1,"stimulus":"img/750/randomdotsizeEA/R/4_Ratio_750_L_15_R_20.png","xmouse":[759,759,759,759,759,759,759,759,759,759,760,763,765,778,785,797,809,828,885,909,921,929,934,937,938,939,939,939,939,939,925,895,858,771,716,705,675,660,639,635,633,631,628,617,612,601,593,586,573,560,547,532,519,507,505,504,502,499,492,485],"ymouse":[524,524,524,524,524,524,524,524,524,524,524,524,523,514,508,492,476,450,379,339,312,291,277,257,250,246,243,241,240,240,238,233,230,226,226,224,218,214,207,205,204,202,201,198,196,193,189,184,168,156,143,133,126,120,119,119,117,116,108,99],"timestamp_mouse":[9,25,44,63,83,104,123,143,164,183,204,223,243,263,284,303,323,344,364,383,403,423,443,463,484,504,524,545,564,583,604,623,643,663,683,704,723,743,763,783,804,823,844,864,884,903,923,943,963,983,1003,1023,1044,1063,1084,1103,1123,1143,1163,1183],"xSR":741.5,"ySR":469.95,"xT1":424.9,"yT1":0,"xT2":1058.1,"yT2":0,"toosoon":0,"cond_shown":"randomdotsizeEA","ratio_trial":750,"smaller_num":"15","larger_num":"20","correct_side":2,"subjID":"miguelacevedo11","gender":"0","age":"0","school":"6"},{"start_time":1551900898518,"click_time":1551900899498,"finger_time":1551900898797,"fix_duration":640.0756562305842,"trial":63,"RT":279,"MT":701,"sideResp":2,"stimulus":"img/250/equaldotsize/R/9_Ratio_250_L_3_R_12.png","xmouse":[822,822,822,822,822,822,822,822,822,823,825,826,827,830,831,833,835,836,845,851,857,864,873,892,903,912,921,930,948,958,968,979,990,1005,1011,1017,1020,1022,1023,1027,1033,1037,1041,1047,1049,1051,1054,1057,1061],"ymouse":[480,480,480,480,480,480,480,480,480,480,477,475,473,468,465,464,461,460,452,445,438,428,414,380,358,335,310,288,232,210,188,168,152,127,116,107,101,97,93,87,79,73,67,60,59,59,59,59,60],"timestamp_mouse":[18,42,58,78,100,118,139,160,178,200,218,239,258,279,298,318,338,360,379,398,418,439,458,479,498,519,538,559,580,598,618,639,658,679,698,718,739,758,779,798,819,839,860,879,898,919,939,958,979],"xSR":741.5,"ySR":469.95,"xT1":424.9,"yT1":0,"xT2":1058.1,"yT2":0,"toosoon":0,"cond_shown":"equaldotsize","ratio_trial":250,"smaller_num":"3","larger_num":"12","correct_side":2,"subjID":"miguelacevedo11","gender":"0","age":"0","school":"6"},{"start_time":1551900905037,"click_time":1551900906116,"finger_time":1551900905677,"fix_duration":919.7782093881198,"trial":64,"RT":640,"MT":439,"sideResp":2,"stimulus":"img/500/equaldotanddens/R/1_Ratio_500_L_9_R_18.png","xmouse":[793,793,793,793,793,793,793,793,793,793,793,793,793,793,793,793,793,793,793,793,794,794,794,794,794,794,794,794,794,794,798,804,850,888,913,919,926,943,956,969,971,972,972,972,974,978,983,988,998,1020,1032,1040,1048,1055,1070],"ymouse":[520,520,520,520,520,520,520,520,520,520,520,520,520,520,522,522,522,522,522,522,522,522,522,522,522,522,522,522,522,522,521,515,461,404,297,251,212,174,146,113,109,108,108,107,107,106,106,104,101,95,90,87,83,80,74],"timestamp_mouse":[9,20,40,61,81,101,119,140,160,180,201,219,239,259,280,299,320,339,359,381,401,419,441,459,479,501,521,540,560,580,600,619,640,660,679,699,720,739,760,780,800,819,840,860,879,899,920,939,959,979,1001,1019,1040,1059,1079],"xSR":741.5,"ySR":469.95,"xT1":424.9,"yT1":0,"xT2":1058.1,"yT2":0,"toosoon":0,"cond_shown":"equaldotanddens","ratio_trial":500,"smaller_num":"9","larger_num":"18","correct_side":2,"subjID":"miguelacevedo11","gender":"0","age":"0","school":"6"},{"start_time":1551900907906,"click_time":1551900909136,"finger_time":1551900908336,"fix_duration":748.1268366375581,"trial":65,"RT":430,"MT":800,"sideResp":2,"stimulus":"img/750/equaldotanddens/R/3_Ratio_750_L_15_R_20.png","xmouse":[807,807,807,807,807,807,807,807,807,807,807,807,807,807,807,807,807,807,809,812,826,834,839,844,847,861,873,882,885,885,879,873,870,870,870,870,873,882,900,917,941,953,967,987,1007,1037,1057,1070,1079,1084,1089,1090,1092,1093,1094,1095,1097,1098,1099,1100,1103,1105],"ymouse":[550,550,550,550,550,550,550,550,550,550,550,550,550,550,550,550,550,544,533,516,479,459,441,425,406,362,319,287,261,238,202,190,184,182,180,178,176,173,169,167,162,158,155,150,148,139,133,128,124,122,119,117,116,115,114,113,110,109,106,104,100,96],"timestamp_mouse":[11,31,58,71,90,112,132,150,170,190,210,232,251,271,292,311,332,350,372,391,410,430,451,471,490,512,530,550,572,591,611,630,651,670,690,711,730,750,770,790,811,830,851,871,890,911,930,951,970,992,1012,1030,1051,1070,1091,1110,1131,1151,1171,1190,1211,1230],"xSR":741.5,"ySR":469.95,"xT1":424.9,"yT1":0,"xT2":1058.1,"yT2":0,"toosoon":0,"cond_shown":"equaldotanddens","ratio_trial":750,"smaller_num":"15","larger_num":"20","correct_side":2,"subjID":"miguelacevedo11","gender":"0","age":"0","school":"6"},{"start_time":1551900912143,"click_time":1551900914497,"finger_time":1551900914198,"fix_duration":685.4721253636812,"trial":66,"RT":2055,"MT":299,"sideResp":1,"stimulus":"img/750/randomdotsizeEA/L/10_Ratio_750_L_4_R_3.png","xmouse":[772,772,772,772,772,772,772,772,772,772,772,772,772,772,772,772,772,772,772,772,772,772,772,772,772,772,772,772,772,772,772,772,772,772,774,774,777,780,781,783,784,784,784,784,784,784,784,785,785,785,785,785,785,785,785,785,785,785,785,785,785,785,785,785,785,785,785,785,785,785,785,785,785,785,785,785,785,785,785,785,785,785,785,785,785,785,785,785,785,786,787,789,789,791,793,795,795,795,796,796,796,796,793,785,750,727,696,672,652,622,605,595,583,570,545,538,529,522],"ymouse":[563,563,563,563,563,563,563,563,563,563,563,563,563,563,563,563,563,563,563,563,563,563,563,563,563,563,563,563,563,563,563,563,563,562,557,557,556,556,557,560,560,560,560,560,560,560,562,566,566,566,566,566,566,566,566,566,567,568,569,569,569,569,569,569,569,569,569,569,569,569,569,569,569,569,569,569,569,569,569,569,569,569,569,569,569,569,569,569,569,565,559,548,544,527,511,505,503,501,500,498,493,486,466,437,354,307,261,225,197,164,147,139,131,121,100,91,82,74],"timestamp_mouse":[13,40,54,73,94,115,135,154,174,194,215,234,255,274,293,313,333,354,374,394,414,433,453,474,495,513,534,555,573,593,614,634,655,673,693,713,735,754,773,794,815,83