[{"start_time":1551899559573,"click_time":1551899562850,"finger_time":1551899561667,"fix_duration":664.482696906184,"trial":0,"RT":2094,"MT":1183,"sideResp":2,"stimulus":[],"xmouse":[802,802,801,801,801,800,799,797,797,797,797,797,797,796,793,793,793,793,793,793,793,792,792,792,792,792,792,792,792,792,792,792,792,792,792,792,792,792,792,792,792,792,792,792,792,792,792,791,791,790,790,790,790,790,790,790,790,790,790,790,790,790,790,790,790,790,790,790,790,790,790,790,790,790,790,791,791,791,791,791,791,786,783,783,783,782,782,782,782,782,782,782,782,782,782,782,782,782,782,782,782,783,788,814,872,911,924,954,1009,1027,1030,1033,1048,1073,1089,1094,1094,1073,1056,1042,1039,1039,1039,1039,1039,1039,1039,1039,1039,1039,1039,1040,1041,1043,1043,1045,1046,1046,1053,1158,1256,1270,1264,1258,1258,1258,1258,1258,1258,1258,1258,1258,1258,1258,1258,1258,1258,1258,1258,1258,1258,1258,1258,1142],"ymouse":[526,526,527,528,528,527,517,512,511,511,511,511,511,506,499,499,499,499,499,499,499,498,498,498,498,498,498,498,498,498,498,498,498,498,498,498,498,498,498,498,498,498,498,496,495,495,495,495,495,506,509,509,509,508,502,501,501,501,501,501,501,501,501,501,501,501,501,501,501,501,501,501,501,501,501,504,505,506,506,506,506,503,501,501,501,503,503,503,503,503,503,503,503,503,503,503,503,503,503,503,503,503,498,478,449,429,427,413,394,389,389,389,382,369,355,330,307,266,253,247,245,245,245,245,245,245,245,245,245,245,245,245,244,244,244,244,244,244,244,216,169,139,113,76,28,11,4,4,4,4,4,4,4,4,4,4,4,4,4,4,4,4,4,8],"timestamp_mouse":[22,36,55,75,95,116,135,156,176,196,215,236,254,274,295,314,337,357,375,396,415,434,455,475,496,514,534,554,574,594,614,635,654,674,696,714,734,755,775,795,815,834,855,874,895,916,935,956,976,996,1015,1035,1055,1076,1094,1115,1135,1156,1174,1194,1214,1234,1254,1275,1295,1315,1336,1355,1374,1394,1416,1435,1455,1476,1495,1515,1535,1555,1575,1595,1615,1636,1655,1675,1694,1714,1736,1755,1775,1795,1815,1835,1855,1875,1895,1915,1936,1956,1974,1994,2015,2035,2056,2076,2094,2114,2134,2154,2174,2194,2215,2234,2254,2274,2294,2316,2336,2356,2376,2395,2416,2436,2455,2476,2495,2516,2536,2556,2575,2595,2616,2635,2656,2676,2695,2716,2735,2756,2776,2795,2816,2836,2856,2876,2896,2915,2935,2956,2975,2995,3016,3035,3056,3076,3095,3115,3135,3156,3176,3196,3215,3236,3256,3276],"xSR":741.5,"ySR":500.5,"xT1":424.9,"yT1":0,"xT2":1058.1,"yT2":0,"toosoon":0,"cond_shown":"Congruent","ratio_trial":100,"L_num":15,"L_den":25,"R_num":13,"R_den":26,"correct_side":1,"subjID":"MiguelAcevedo17","gender":"0","age":"11","school":"MiguelAcevedo11","test":{"fix_dur":[250,1500],"timestim":1000,"targets_dim":[100,100],"targets_relative_coord":[0.3,0.7],"size_stim":[880,420],"start_dim":[100,100],"size_start":[300,300],"size_fix":60,"samplingrate":20,"img_types":["Congruent","Incongruent"],"ratios":[100,200,300],"rep_conds":19,"nTrials":120,"trials_to_rest":500,"Trials_order":[6,98,2,27,55,67,77,11,45,66,14,99,63,115,44,69,65,1,79,109,83,74,42,13,101,19,8,52,20,107,119,16,48,103,117,93,53,116,114,68,91,10,40,89,71,36,85,35,56,51,0,80,26,22,5,82,113,30,104,100,70,17,108,28,25,15,59,50,88,41,90,23,64,84,94,18,31,61,38,46,32,81,49,47,39,24,76,73,95,9,21,29,112,86,72,110,105,33,43,118,111,3,92,4,54,58,34,102,12,75,96,78,7,60,97,57,106,87,62,37],"cond_shown":["Congruent","Congruent","Congruent","Incongruent","Incongruent","Incongruent","Incongruent","Incongruent","Incongruent","Congruent","Congruent","Incongruent","Incongruent","Incongruent","Congruent","Incongruent","Incongruent","Incongruent","Incongruent","Incongruent","Incongruent","Congruent","Congruent","Incongruent","Incongruent","Incongruent","Congruent","Congruent","Congruent","Incongruent","Incongruent","Congruent","Congruent","Incongruent","Incongruent","Incongruent","Incongruent","Congruent","Congruent","Congruent","Incongruent","Congruent","Congruent","Incongruent","Incongruent","Congruent","Incongruent","Incongruent","Congruent","Incongruent","Congruent","Congruent","Congruent","Congruent","Incongruent","Congruent","Incongruent","Congruent","Congruent","Congruent","Congruent","Incongruent","Congruent","Congruent","Incongruent","Incongruent","Incongruent","Congruent","Congruent","Incongruent","Congruent","Incongruent","Congruent","Congruent","Congruent","Congruent","Incongruent","Incongruent","Congruent","Congruent","Congruent","Incongruent","Incongruent","Incongruent","Incongruent","Congruent","Congruent","Incongruent","Incongruent","Incongruent","Incongruent","Incongruent","Congruent","Congruent","Congruent","Congruent","Incongruent","Incongruent","Incongruent","Congruent","Incongruent","Incongruent","Congruent","Congruent","Congruent","Congruent","Congruent","Congruent","Congruent","Incongruent","Congruent","Congruent","Incongruent","Congruent","Incongruent","Incongruent","Congruent","Incongruent","Congruent","Incongruent"],"ratio_trial":[100,200,200,200,100,100,300,300,200,100,200,200,200,100,200,200,300,100,100,100,300,200,100,100,300,100,200,300,200,300,300,300,100,100,200,200,300,200,100,200,100,300,300,300,300,100,100,300,200,200,100,200,200,300,300,300,300,100,200,300,300,300,100,300,100,200,300,200,300,300,100,300,300,100,300,100,100,100,200,300,200,200,100,300,200,100,300,100,300,200,200,300,300,200,100,200,200,200,100,300,200,200,200,300,100,300,300,100,100,200,100,100,100,100,100,200,300,200,200,100],"left_num":[15,13,6,1,2,12,4,4,7,15,3,11,7,6,9,3,1,9,12,8,4,3,7,2,7,1,1,3,4,13,4,1,11,6,7,1,13,12,4,3,12,24,9,4,4,11,3,13,1,1,7,7,20,8,7,5,4,10,6,12,2,4,2,1,6,7,4,21,20,8,6,4,1,7,18,9,6,10,3,18,6,14,13,13,6,11,20,3,4,4,4,4,4,9,4,4,3,3,13,5,4,1,16,1,11,20,20,9,4,9,11,1,6,7,9,7,3,1,9,11],"right_num":[13,14,11,3,8,9,2,2,4,13,14,3,14,13,4,1,3,13,2,6,2,14,15,6,8,8,21,4,3,12,2,7,6,3,8,2,12,6,15,7,2,2,3,6,8,6,7,12,21,3,9,2,9,1,8,6,2,3,11,2,12,2,11,3,7,6,2,2,9,9,15,6,3,9,9,8,3,8,14,9,7,12,6,12,3,6,8,8,2,14,14,8,2,13,15,3,11,1,6,7,6,2,9,7,6,8,13,8,15,8,4,18,11,15,13,4,4,3,4,9],"left_den":[25,26,20,2,4,24,20,20,15,25,6,20,10,10,20,10,2,15,30,16,20,6,14,4,10,2,2,6,8,26,20,20,22,12,10,3,26,15,10,10,30,30,10,5,5,22,9,26,2,2,14,21,25,16,10,25,20,25,20,24,10,20,5,5,10,15,20,30,25,10,12,5,5,14,20,15,12,25,6,20,12,30,26,26,20,22,25,5,20,6,6,5,5,30,10,10,4,10,26,25,5,3,30,20,22,25,25,15,10,15,22,2,10,14,15,15,6,2,20,22],"right_den":[26,20,22,10,20,15,4,4,6,26,20,4,28,26,16,2,15,26,4,10,4,20,25,15,20,20,30,5,10,15,4,20,15,5,16,15,15,10,30,14,4,4,5,12,16,15,30,15,30,10,15,15,15,5,20,12,4,10,22,10,24,4,22,6,14,9,4,4,18,18,25,12,6,15,15,16,5,16,20,15,10,18,10,15,6,15,16,16,4,30,30,16,4,26,30,15,20,2,10,14,10,15,27,20,15,16,26,16,30,10,10,30,22,25,26,6,5,10,16,15],"correct_side":[1,2,2,1,1,2,2,2,2,1,2,2,1,1,1,2,1,1,2,2,2,2,2,1,1,1,2,2,1,2,2,2,1,2,1,1,2,1,2,2,2,1,1,1,1,1,1,2,2,1,2,1,1,1,1,2,2,1,2,1,2,2,2,2,1,2,2,1,1,1,2,1,2,2,1,1,2,2,2,1,2,2,2,2,2,1,1,1,2,1,1,1,1,2,2,1,1,2,2,2,1,1,1,2,1,1,1,1,2,2,1,2,1,2,1,2,2,1,1,2],"img_shown":["img2/100/Congruent/L/C_Dist_100_LN_15_LD_25_RN_13_RD_26_0.png","img2/200/Congruent/R/C_Dist_200_LN_13_LD_26_RN_14_RD_20_1.png","img2/200/Congruent/R/C_Dist_200_LN_6_LD_20_RN_11_RD_22_1.png","img2/200/Incongruent/L/I_Dist_200_LN_1_LD_2_RN_3_RD_10_0.png","img2/100/Incongruent/L/I_Dist_100_LN_2_LD_4_RN_8_RD_20_0.png","img2/100/Incongruent/R/I_Dist_100_LN_12_LD_24_RN_9_RD_15_1.png","img2/300/Incongruent/R/I_Dist_300_LN_4_LD_20_RN_2_RD_4_1.png","img2/300/Incongruent/R/I_Dist_300_LN_4_LD_20_RN_2_RD_4_1.png","img2/200/Incongruent/R/I_Dist_200_LN_7_LD_15_RN_4_RD_6_1.png","img2/100/Congruent/L/C_Dist_100_LN_15_LD_25_RN_13_RD_26_0.png","img2/200/Congruent/R/C_Dist_200_LN_3_LD_6_RN_14_RD_20_1.png","img2/200/Incongruent/R/I_Dist_200_LN_11_LD_20_RN_3_RD_4_1.png","img2/200/Incongruent/L/I_Dist_200_LN_7_LD_10_RN_14_RD_28_0.png","img2/100/Incongruent/L/I_Dist_100_LN_6_LD_10_RN_13_RD_26_0.png","img2/200/Congruent/L/C_Dist_200_LN_9_LD_20_RN_4_RD_16_0.png","img2/200/Incongruent/R/I_Dist_200_LN_3_LD_10_RN_1_RD_2_1.png","img2/300/Incongruent/L/I_Dist_300_LN_1_LD_2_RN_3_RD_15_0.png","img2/100/Incongruent/L/I_Dist_100_LN_9_LD_15_RN_13_RD_26_0.png","img2/100/Incongruent/R/I_Dist_100_LN_12_LD_30_RN_2_RD_4_1.png","img2/100/Incongruent/R/I_Dist_100_LN_8_LD_16_RN_6_RD_10_1.png","img2/300/Incongruent/R/I_Dist_300_LN_4_LD_20_RN_2_RD_4_1.png","img2/200/Congruent/R/C_Dist_200_LN_3_LD_6_RN_14_RD_20_1.png","img2/100/Congruent/R/C_Dist_100_LN_7_LD_14_RN_15_RD_25_1.png","img2/100/Incongruent/L/I_Dist_100_LN_2_LD_4_RN_6_RD_15_0.png","img2/300/Incongruent/L/I_Dist_300_LN_7_LD_10_RN_8_RD_20_0.png","img2/100/Incongruent/L/I_Dist_100_LN_1_LD_2_RN_8_RD_20_0.png","img2/200/Congruent/R/C_Dist_200_LN_1_LD_2_RN_21_RD_30_1.png","img2/300/Congruent/R/C_Dist_300_LN_3_LD_6_RN_4_RD_5_1.png","img2/200/Congruent/L/C_Dist_200_LN_4_LD_8_RN_3_RD_10_0.png","img2/300/Incongruent/R/I_Dist_300_LN_13_LD_26_RN_12_RD_15_1.png","img2/300/Incongruent/R/I_Dist_300_LN_4_LD_20_RN_2_RD_4_1.png","img2/300/Congruent/R/C_Dist_300_LN_1_LD_20_RN_7_RD_20_1.png","img2/100/Congruent/L/C_Dist_100_LN_11_LD_22_RN_6_RD_15_0.png","img2/100/Incongruent/R/I_Dist_100_LN_6_LD_12_RN_3_RD_5_1.png","img2/200/Incongruent/L/I_Dist_200_LN_7_LD_10_RN_8_RD_16_0.png","img2/200/Incongruent/L/I_Dist_200_LN_1_LD_3_RN_2_RD_15_0.png","img2/300/Incongruent/R/I_Dist_300_LN_13_LD_26_RN_12_RD_15_1.png","img2/200/Congruent/L/C_Dist_200_LN_12_LD_15_RN_6_RD_10_0.png","img2/100/Congruent/R/C_Dist_100_LN_4_LD_10_RN_15_RD_30_1.png","img2/200/Congruent/R/C_Dist_200_LN_3_LD_10_RN_7_RD_14_1.png","img2/100/Incongruent/R/I_Dist_100_LN_12_LD_30_RN_2_RD_4_1.png","img2/300/Congruent/L/C_Dist_300_LN_24_LD_30_RN_2_RD_4_0.png","img2/300/Congruent/L/C_Dist_300_LN_9_LD_10_RN_3_RD_5_0.png","img2/300/Incongruent/L/I_Dist_300_LN_4_LD_5_RN_6_RD_12_0.png","img2/300/Incongruent/L/I_Dist_300_LN_4_LD_5_RN_8_RD_16_0.png","img2/100/Congruent/L/C_Dist_100_LN_11_LD_22_RN_6_RD_15_0.png","img2/100/Incongruent/L/I_Dist_100_LN_3_LD_9_RN_7_RD_30_0.png","img2/300/Incongruent/R/I_Dist_300_LN_13_LD_26_RN_12_RD_15_1.png","img2/200/Congruent/R/C_Dist_200_LN_1_LD_2_RN_21_RD_30_1.png","img2/200/Incongruent/L/I_Dist_200_LN_1_LD_2_RN_3_RD_10_0.png","img2/100/Congruent/R/C_Dist_100_LN_7_LD_14_RN_9_RD_15_1.png","img2/200/Congruent/L/C_Dist_200_LN_7_LD_21_RN_2_RD_15_0.png","img2/200/Congruent/L/C_Dist_200_LN_20_LD_25_RN_9_RD_15_0.png","img2/300/Congruent/L/C_Dist_300_LN_8_LD_16_RN_1_RD_5_0.png","img2/300/Incongruent/L/I_Dist_300_LN_7_LD_10_RN_8_RD_20_0.png","img2/300/Congruent/R/C_Dist_300_LN_5_LD_25_RN_6_RD_12_1.png","img2/300/Incongruent/R/I_Dist_300_LN_4_LD_20_RN_2_RD_4_1.png","img2/100/Congruent/L/C_Dist_100_LN_10_LD_25_RN_3_RD_10_0.png","img2/200/Congruent/R/C_Dist_200_LN_6_LD_20_RN_11_RD_22_1.png","img2/300/Congruent/L/C_Dist_300_LN_12_LD_24_RN_2_RD_10_0.png","img2/300/Congruent/R/C_Dist_300_LN_2_LD_10_RN_12_RD_24_1.png","img2/300/Incongruent/R/I_Dist_300_LN_4_LD_20_RN_2_RD_4_1.png","img2/100/Congruent/R/C_Dist_100_LN_2_LD_5_RN_11_RD_22_1.png","img2/300/Congruent/R/C_Dist_300_LN_1_LD_5_RN_3_RD_6_1.png","img2/100/Incongruent/L/I_Dist_100_LN_6_LD_10_RN_7_RD_14_0.png","img2/200/Incongruent/R/I_Dist_200_LN_7_LD_15_RN_6_RD_9_1.png","img2/300/Incongruent/R/I_Dist_300_LN_4_LD_20_RN_2_RD_4_1.png","img2/200/Congruent/L/C_Dist_200_LN_21_LD_30_RN_2_RD_4_0.png","img2/300/Congruent/L/C_Dist_300_LN_20_LD_25_RN_9_RD_18_0.png","img2/300/Incongruent/L/I_Dist_300_LN_8_LD_10_RN_9_RD_18_0.png","img2/100/Congruent/R/C_Dist_100_LN_6_LD_12_RN_15_RD_25_1.png","img2/300/Incongruent/L/I_Dist_300_LN_4_LD_5_RN_6_RD_12_0.png","img2/300/Congruent/R/C_Dist_300_LN_1_LD_5_RN_3_RD_6_1.png","img2/100/Congruent/R/C_Dist_100_LN_7_LD_14_RN_9_RD_15_1.png","img2/300/Congruent/L/C_Dist_300_LN_18_LD_20_RN_9_RD_15_0.png","img2/100/Congruent/L/C_Dist_100_LN_9_LD_15_RN_8_RD_16_0.png","img2/100/Incongruent/R/I_Dist_100_LN_6_LD_12_RN_3_RD_5_1.png","img2/100/Incongruent/R/I_Dist_100_LN_10_LD_25_RN_8_RD_16_1.png","img2/200/Congruent/R/C_Dist_200_LN_3_LD_6_RN_14_RD_20_1.png","img2/300/Congruent/L/C_Dist_300_LN_18_LD_20_RN_9_RD_15_0.png","img2/200/Congruent/R/C_Dist_200_LN_6_LD_12_RN_7_RD_10_1.png","img2/200/Incongruent/R/I_Dist_200_LN_14_LD_30_RN_12_RD_18_1.png","img2/100/Incongruent/R/I_Dist_100_LN_13_LD_26_RN_6_RD_10_1.png","img2/300/Incongruent/R/I_Dist_300_LN_13_LD_26_RN_12_RD_15_1.png","img2/200/Incongruent/R/I_Dist_200_LN_6_LD_20_RN_3_RD_6_1.png","img2/100/Congruent/L/C_Dist_100_LN_11_LD_22_RN_6_RD_15_0.png","img2/300/Congruent/L/C_Dist_300_LN_20_LD_25_RN_8_RD_16_0.png","img2/100/Incongruent/L/I_Dist_100_LN_3_LD_5_RN_8_RD_16_0.png","img2/300/Incongruent/R/I_Dist_300_LN_4_LD_20_RN_2_RD_4_1.png","img2/200/Incongruent/L/I_Dist_200_LN_4_LD_6_RN_14_RD_30_0.png","img2/200/Incongruent/L/I_Dist_200_LN_4_LD_6_RN_14_RD_30_0.png","img2/300/Incongruent/L/I_Dist_300_LN_4_LD_5_RN_8_RD_16_0.png","img2/300/Congruent/L/C_Dist_300_LN_4_LD_5_RN_2_RD_4_0.png","img2/200/Congruent/R/C_Dist_200_LN_9_LD_30_RN_13_RD_26_1.png","img2/100/Congruent/R/C_Dist_100_LN_4_LD_10_RN_15_RD_30_1.png","img2/200/Congruent/L/C_Dist_200_LN_4_LD_10_RN_3_RD_15_0.png","img2/200/Incongruent/L/I_Dist_200_LN_3_LD_4_RN_11_RD_20_0.png","img2/200/Incongruent/R/I_Dist_200_LN_3_LD_10_RN_1_RD_2_1.png","img2/100/Incongruent/R/I_Dist_100_LN_13_LD_26_RN_6_RD_10_1.png","img2/300/Congruent/R/C_Dist_300_LN_5_LD_25_RN_7_RD_14_1.png","img2/200/Incongruent/L/I_Dist_200_LN_4_LD_5_RN_6_RD_10_0.png","img2/200/Incongruent/L/I_Dist_200_LN_1_LD_3_RN_2_RD_15_0.png","img2/200/Congruent/L/C_Dist_200_LN_16_LD_30_RN_9_RD_27_0.png","img2/300/Congruent/R/C_Dist_300_LN_1_LD_20_RN_7_RD_20_1.png","img2/100/Congruent/L/C_Dist_100_LN_11_LD_22_RN_6_RD_15_0.png","img2/300/Congruent/L/C_Dist_300_LN_20_LD_25_RN_8_RD_16_0.png","img2/300/Congruent/L/C_Dist_300_LN_20_LD_25_RN_13_RD_26_0.png","img2/100/Congruent/L/C_Dist_100_LN_9_LD_15_RN_8_RD_16_0.png","img2/100/Congruent/R/C_Dist_100_LN_4_LD_10_RN_15_RD_30_1.png","img2/200/Incongruent/R/I_Dist_200_LN_9_LD_15_RN_8_RD_10_1.png","img2/100/Congruent/L/C_Dist_100_LN_11_LD_22_RN_4_RD_10_0.png","img2/100/Congruent/R/C_Dist_100_LN_1_LD_2_RN_18_RD_30_1.png","img2/100/Incongruent/L/I_Dist_100_LN_6_LD_10_RN_11_RD_22_0.png","img2/100/Congruent/R/C_Dist_100_LN_7_LD_14_RN_15_RD_25_1.png","img2/100/Incongruent/L/I_Dist_100_LN_9_LD_15_RN_13_RD_26_0.png","img2/200/Incongruent/R/I_Dist_200_LN_7_LD_15_RN_4_RD_6_1.png","img2/300/Congruent/R/C_Dist_300_LN_3_LD_6_RN_4_RD_5_1.png","img2/200/Incongruent/L/I_Dist_200_LN_1_LD_2_RN_3_RD_10_0.png","img2/200/Congruent/L/C_Dist_200_LN_9_LD_20_RN_4_RD_16_0.png","img2/100/Incongruent/R/I_Dist_100_LN_11_LD_22_RN_9_RD_15_1.png"],"dist100_C":[["C_Dist_100_LN_10_LD_25_RN_3_RD_10_0.png","C_Dist_100_LN_11_LD_22_RN_4_RD_10_0.png","C_Dist_100_LN_11_LD_22_RN_6_RD_15_0.png","C_Dist_100_LN_15_LD_25_RN_13_RD_26_0.png","C_Dist_100_LN_3_LD_6_RN_2_RD_5_0.png","C_Dist_100_LN_6_LD_20_RN_5_RD_25_0.png","C_Dist_100_LN_8_LD_16_RN_2_RD_5_0.png","C_Dist_100_LN_9_LD_15_RN_8_RD_16_0.png"],["C_Dist_100_LN_1_LD_2_RN_18_RD_30_1.png","C_Dist_100_LN_1_LD_2_RN_3_RD_5_1.png","C_Dist_100_LN_12_LD_30_RN_13_RD_26_1.png","C_Dist_100_LN_2_LD_5_RN_11_RD_22_1.png","C_Dist_100_LN_2_LD_5_RN_6_RD_12_1.png","C_Dist_100_LN_3_LD_20_RN_4_RD_16_1.png","C_Dist_100_LN_4_LD_10_RN_15_RD_30_1.png","C_Dist_100_LN_4_LD_8_RN_6_RD_10_1.png","C_Dist_100_LN_6_LD_12_RN_15_RD_25_1.png","C_Dist_100_LN_7_LD_14_RN_15_RD_25_1.png","C_Dist_100_LN_7_LD_14_RN_9_RD_15_1.png"]],"dist100_I":[["I_Dist_100_LN_1_LD_2_RN_8_RD_20_0.png","I_Dist_100_LN_2_LD_4_RN_6_RD_15_0.png","I_Dist_100_LN_2_LD_4_RN_8_RD_20_0.png","I_Dist_100_LN_3_LD_5_RN_11_RD_22_0.png","I_Dist_100_LN_3_LD_5_RN_8_RD_16_0.png","I_Dist_100_LN_3_LD_6_RN_4_RD_10_0.png","I_Dist_100_LN_3_LD_9_RN_7_RD_30_0.png","I_Dist_100_LN_4_LD_8_RN_8_RD_20_0.png","I_Dist_100_LN_6_LD_10_RN_11_RD_22_0.png","I_Dist_100_LN_6_LD_10_RN_13_RD_26_0.png","I_Dist_100_LN_6_LD_10_RN_7_RD_14_0.png","I_Dist_100_LN_9_LD_10_RN_20_RD_25_0.png","I_Dist_100_LN_9_LD_15_RN_13_RD_26_0.png","I_Dist_100_LN_9_LD_15_RN_14_RD_28_0.png"],["I_Dist_100_LN_10_LD_25_RN_8_RD_16_1.png","I_Dist_100_LN_10_LD_25_RN_9_RD_18_1.png","I_Dist_100_LN_11_LD_22_RN_9_RD_15_1.png","I_Dist_100_LN_12_LD_24_RN_9_RD_15_1.png","I_Dist_100_LN_12_LD_30_RN_2_RD_4_1.png","I_Dist_100_LN_13_LD_26_RN_12_RD_20_1.png","I_Dist_100_LN_13_LD_26_RN_6_RD_10_1.png","I_Dist_100_LN_17_LD_30_RN_10_RD_15_1.png","I_Dist_100_LN_6_LD_12_RN_3_RD_5_1.png","I_Dist_100_LN_8_LD_16_RN_6_RD_10_1.png","I_Dist_100_LN_8_LD_20_RN_1_RD_2_1.png","I_Dist_100_LN_9_LD_18_RN_6_RD_10_1.png"]],"dist100_S":[["E_Dist_100_LN_2_LD_12_RN_2_RD_30_0.png","E_Dist_100_LN_6_LD_10_RN_6_RD_12_0.png"],["E_Dist_100_LN_6_LD_12_RN_6_RD_10_1.png"]],"dist200_C":[["C_Dist_200_LN_11_LD_22_RN_3_RD_10_0.png","C_Dist_200_LN_12_LD_15_RN_6_RD_10_0.png","C_Dist_200_LN_12_LD_20_RN_6_RD_15_0.png","C_Dist_200_LN_14_LD_28_RN_6_RD_20_0.png","C_Dist_200_LN_15_LD_25_RN_4_RD_10_0.png","C_Dist_200_LN_16_LD_20_RN_12_RD_20_0.png","C_Dist_200_LN_16_LD_30_RN_9_RD_27_0.png","C_Dist_200_LN_20_LD_25_RN_9_RD_15_0.png","C_Dist_200_LN_21_LD_30_RN_2_RD_4_0.png","C_Dist_200_LN_4_LD_10_RN_3_RD_15_0.png","C_Dist_200_LN_4_LD_8_RN_3_RD_10_0.png","C_Dist_200_LN_6_LD_15_RN_3_RD_15_0.png","C_Dist_200_LN_7_LD_21_RN_2_RD_15_0.png","C_Dist_200_LN_8_LD_15_RN_2_RD_6_0.png","C_Dist_200_LN_8_LD_15_RN_3_RD_9_0.png","C_Dist_200_LN_8_LD_15_RN_7_RD_21_0.png","C_Dist_200_LN_9_LD_20_RN_4_RD_16_0.png"],["C_Dist_200_LN_1_LD_2_RN_21_RD_30_1.png","C_Dist_200_LN_13_LD_26_RN_14_RD_20_1.png","C_Dist_200_LN_3_LD_10_RN_11_RD_22_1.png","C_Dist_200_LN_3_LD_10_RN_14_RD_28_1.png","C_Dist_200_LN_3_LD_10_RN_7_RD_14_1.png","C_Dist_200_LN_3_LD_12_RN_9_RD_20_1.png","C_Dist_200_LN_3_LD_6_RN_14_RD_20_1.png","C_Dist_200_LN_5_LD_10_RN_14_RD_20_1.png","C_Dist_200_LN_6_LD_12_RN_7_RD_10_1.png","C_Dist_200_LN_6_LD_20_RN_11_RD_22_1.png","C_Dist_200_LN_7_LD_15_RN_18_RD_27_1.png","C_Dist_200_LN_9_LD_30_RN_13_RD_26_1.png"]],"dist200_I":[["I_Dist_200_LN_1_LD_2_RN_3_RD_10_0.png","I_Dist_200_LN_1_LD_3_RN_2_RD_15_0.png","I_Dist_200_LN_3_LD_4_RN_11_RD_20_0.png","I_Dist_200_LN_4_LD_5_RN_6_RD_10_0.png","I_Dist_200_LN_4_LD_6_RN_14_RD_30_0.png","I_Dist_200_LN_7_LD_10_RN_12_RD_24_0.png","I_Dist_200_LN_7_LD_10_RN_14_RD_28_0.png","I_Dist_200_LN_7_LD_10_RN_8_RD_16_0.png"],["I_Dist_200_LN_11_LD_20_RN_3_RD_4_1.png","I_Dist_200_LN_14_LD_30_RN_12_RD_18_1.png","I_Dist_200_LN_14_LD_30_RN_6_RD_9_1.png","I_Dist_200_LN_3_LD_10_RN_1_RD_2_1.png","I_Dist_200_LN_4_LD_30_RN_1_RD_3_1.png","I_Dist_200_LN_6_LD_20_RN_3_RD_6_1.png","I_Dist_200_LN_7_LD_15_RN_4_RD_6_1.png","I_Dist_200_LN_7_LD_15_RN_6_RD_9_1.png","I_Dist_200_LN_9_LD_15_RN_8_RD_10_1.png"]],"dist200_S":[["E_Dist_200_LN_3_LD_6_RN_3_RD_10_0.png"],["E_Dist_200_LN_3_LD_10_RN_3_RD_6_1.png"]],"dist300_C":[["C_Dist_300_LN_11_LD_22_RN_1_RD_5_0.png","C_Dist_300_LN_11_LD_22_RN_2_RD_10_0.png","C_Dist_300_LN_11_LD_22_RN_4_RD_20_0.png","C_Dist_300_LN_12_LD_24_RN_2_RD_10_0.png","C_Dist_300_LN_18_LD_20_RN_9_RD_15_0.png","C_Dist_300_LN_20_LD_25_RN_13_RD_26_0.png","C_Dist_300_LN_20_LD_25_RN_14_RD_28_0.png","C_Dist_300_LN_20_LD_25_RN_5_RD_10_0.png","C_Dist_300_LN_20_LD_25_RN_8_RD_16_0.png","C_Dist_300_LN_20_LD_25_RN_9_RD_18_0.png","C_Dist_300_LN_24_LD_30_RN_2_RD_4_0.png","C_Dist_300_LN_24_LD_30_RN_8_RD_16_0.png","C_Dist_300_LN_3_LD_6_RN_2_RD_10_0.png","C_Dist_300_LN_4_LD_10_RN_1_RD_10_0.png","C_Dist_300_LN_4_LD_5_RN_2_RD_4_0.png","C_Dist_300_LN_8_LD_16_RN_1_RD_5_0.png","C_Dist_300_LN_9_LD_10_RN_3_RD_5_0.png"],["C_Dist_300_LN_1_LD_20_RN_7_RD_20_1.png","C_Dist_300_LN_1_LD_3_RN_19_RD_30_1.png","C_Dist_300_LN_1_LD_30_RN_8_RD_24_1.png","C_Dist_300_LN_1_LD_5_RN_11_RD_22_1.png","C_Dist_300_LN_1_LD_5_RN_3_RD_6_1.png","C_Dist_300_LN_1_LD_5_RN_6_RD_12_1.png","C_Dist_300_LN_2_LD_10_RN_12_RD_24_1.png","C_Dist_300_LN_2_LD_20_RN_10_RD_25_1.png","C_Dist_300_LN_3_LD_12_RN_11_RD_20_1.png","C_Dist_300_LN_3_LD_6_RN_4_RD_5_1.png","C_Dist_300_LN_4_LD_20_RN_13_RD_26_1.png","C_Dist_300_LN_5_LD_25_RN_6_RD_12_1.png","C_Dist_300_LN_5_LD_25_RN_7_RD_14_1.png","C_Dist_300_LN_7_LD_14_RN_20_RD_25_1.png","C_Dist_300_LN_8_LD_15_RN_10_RD_12_1.png"]],"dist300_I":[["I_Dist_300_LN_1_LD_2_RN_2_RD_10_0.png","I_Dist_300_LN_1_LD_2_RN_3_RD_15_0.png","I_Dist_300_LN_2_LD_4_RN_6_RD_30_0.png","I_Dist_300_LN_3_LD_6_RN_4_RD_20_0.png","I_Dist_300_LN_4_LD_5_RN_6_RD_12_0.png","I_Dist_300_LN_4_LD_5_RN_8_RD_16_0.png","I_Dist_300_LN_7_LD_10_RN_8_RD_20_0.png","I_Dist_300_LN_8_LD_10_RN_14_RD_28_0.png","I_Dist_300_LN_8_LD_10_RN_9_RD_18_0.png"],["I_Dist_300_LN_13_LD_26_RN_12_RD_15_1.png","I_Dist_300_LN_4_LD_20_RN_2_RD_4_1.png"]],"dist300_S":[["E_Dist_300_LN_9_LD_12_RN_9_RD_20_0.png"],["E_Dist_300_LN_18_LD_30_RN_18_RD_20_1.png","E_Dist_300_LN_3_LD_10_RN_3_RD_5_1.png","E_Dist_300_LN_9_LD_20_RN_9_RD_12_1.png"]],"dist500_C":[["C_Dist_500_LN_10_LD_13_RN_7_RD_26_0.png","C_Dist_500_LN_10_LD_15_RN_4_RD_24_0.png","C_Dist_500_LN_12_LD_16_RN_3_RD_12_0.png","C_Dist_500_LN_12_LD_18_RN_4_RD_24_0.png","C_Dist_500_LN_15_LD_18_RN_5_RD_15_0.png","C_Dist_500_LN_15_LD_20_RN_1_RD_4_0.png","C_Dist_500_LN_18_LD_27_RN_1_RD_6_0.png","C_Dist_500_LN_20_LD_24_RN_1_RD_3_0.png","C_Dist_500_LN_20_LD_24_RN_3_RD_9_0.png","C_Dist_500_LN_20_LD_24_RN_7_RD_21_0.png","C_Dist_500_LN_20_LD_28_RN_3_RD_14_0.png","C_Dist_500_LN_21_LD_28_RN_6_RD_24_0.png","C_Dist_500_LN_22_LD_28_RN_2_RD_7_0.png","C_Dist_500_LN_25_LD_30_RN_9_RD_27_0.png","C_Dist_500_LN_4_LD_6_RN_1_RD_6_0.png","C_Dist_500_LN_5_LD_6_RN_2_RD_6_0.png","C_Dist_500_LN_6_LD_9_RN_1_RD_6_0.png","C_Dist_500_LN_7_LD_10_RN_1_RD_5_0.png","C_Dist_500_LN_8_LD_12_RN_1_RD_6_0.png","C_Dist_500_LN_8_LD_12_RN_4_RD_24_0.png"],["C_Dist_500_LN_1_LD_4_RN_12_RD_16_1.png","C_Dist_500_LN_1_LD_4_RN_9_RD_12_1.png","C_Dist_500_LN_1_LD_9_RN_11_RD_18_1.png","C_Dist_500_LN_10_LD_24_RN_22_RD_24_1.png","C_Dist_500_LN_2_LD_12_RN_10_RD_15_1.png","C_Dist_500_LN_2_LD_12_RN_12_RD_18_1.png","C_Dist_500_LN_2_LD_12_RN_4_RD_6_1.png","C_Dist_500_LN_2_LD_24_RN_7_RD_12_1.png","C_Dist_500_LN_2_LD_5_RN_18_RD_20_1.png","C_Dist_500_LN_2_LD_5_RN_9_RD_10_1.png","C_Dist_500_LN_2_LD_8_RN_12_RD_16_1.png","C_Dist_500_LN_2_LD_8_RN_21_RD_28_1.png","C_Dist_500_LN_3_LD_10_RN_4_RD_5_1.png","C_Dist_500_LN_3_LD_12_RN_15_RD_20_1.png","C_Dist_500_LN_3_LD_30_RN_6_RD_10_1.png","C_Dist_500_LN_3_LD_8_RN_14_RD_16_1.png","C_Dist_500_LN_4_LD_16_RN_15_RD_20_1.png","C_Dist_500_LN_4_LD_24_RN_12_RD_18_1.png","C_Dist_500_LN_5_LD_14_RN_6_RD_7_1.png","C_Dist_500_LN_7_LD_21_RN_20_RD_24_1.png","C_Dist_500_LN_7_LD_28_RN_12_RD_16_1.png","C_Dist_500_LN_7_LD_28_RN_9_RD_12_1.png","C_Dist_500_LN_9_LD_27_RN_20_RD_24_1.png"]],"dist500_I":[["I_Dist_500_LN_2_LD_3_RN_4_RD_24_0.png","I_Dist_500_LN_5_LD_6_RN_6_RD_18_0.png","I_Dist_500_LN_7_LD_8_RN_9_RD_24_0.png"],["I_Dist_500_LN_7_LD_21_RN_5_RD_6_1.png"]],"dist500_S":[["E_Dist_500_LN_6_LD_8_RN_6_RD_24_0.png"],["E_Dist_500_LN_2_LD_12_RN_2_RD_3_1.png","E_Dist_500_LN_6_LD_24_RN_6_RD_8_1.png"]]}},{"start_time":1551899569277,"click_time":1551899571789,"finger_time":1551899570667,"fix_duration":1287.8522763392232,"trial":1,"RT":1390,"MT":1122,"sideResp":2,"stimulus":[],"xmouse":[806,806,806,806,806,806,806,806,806,806,806,806,806,806,806,806,806,806,806,806,806,806,806,806,806,806,806,806,806,806,806,806,806,806,806,806,806,806,806,806,806,806,806,806,806,806,806,806,806,806,806,806,806,806,806,806,806,806,806,806,806,806,806,806,806,806,806,805,804,799,790,787,786,785,784,783,780,775,770,767,765,761,761,761,761,763,773,789,792,792,792,792,793,793,796,827,881,903,917,922,924,924,924,924,924,925,928,935,946,957,969,984,988,991,991,992,993,994,996,999,1006,1031,1047,1064,1080,1092],"ymouse":[487,487,487,487,487,487,487,487,487,487,487,487,487,487,487,487,487,487,487,487,487,487,487,487,487,487,487,487,487,487,487,487,487,487,487,487,487,487,487,487,487,487,487,487,487,487,487,487,487,487,487,487,487,487,487,487,487,487,487,487,487,487,487,487,487,487,485,482,477,464,444,435,428,421,416,410,404,398,393,387,385,378,378,378,378,376,375,374,374,374,374,374,373,371,363,325,280,263,248,235,223,217,212,207,205,203,196,188,180,174,169,163,161,159,158,156,149,142,139,134,129,117,111,105,100,96],"timestamp_mouse":[11,31,52,73,91,110,131,152,172,192,212,231,252,272,292,312,332,352,371,391,411,431,451,471,492,512,532,551,571,591,611,631,651,672,692,712,732,751,771,791,811,831,851,871,891,911,933,951,972,991,1011,1031,1051,1071,1091,1111,1132,1152,1172,1191,1212,1232,1251,1270,1292,1311,1332,1351,1370,1390,1412,1432,1451,1471,1491,1512,1531,1550,1571,1590,1611,1630,1650,1671,1692,1712,1731,1751,1771,1792,1811,1832,1852,1872,1891,1911,1932,1951,1971,1992,2012,2032,2051,2071,2091,2112,2132,2151,2171,2192,2211,2231,2251,2270,2291,2312,2332,2351,2372,2391,2411,2432,2451,2471,2491,2512],"xSR":741.5,"ySR":469.95,"xT1":424.9,"yT1":0,"xT2":1058.1,"yT2":0,"toosoon":0,"cond_shown":"Congruent","ratio_trial":200,"L_num":13,"L_den":26,"R_num":14,"R_den":20,"correct_side":2,"subjID":"MiguelAcevedo17","gender":"0","school":"MiguelAcevedo11","age":"11"},{"start_time":1551899575836,"click_time":1551899578008,"finger_time":1551899577408,"fix_duration":826.510218647498,"trial":2,"RT":1572,"MT":600,"sideResp":2,"stimulus":[],"xmouse":[787,788,788,788,788,788,788,788,788,788,788,788,788,788,788,788,788,788,788,788,788,788,788,788,788,788,788,788,788,788,788,788,788,788,788,788,788,788,788,788,788,788,788,788,788,788,788,788,788,788,788,788,788,788,788,788,788,788,788,788,788,788,788,788,788,788,788,788,788,788,788,789,791,802,808,816,819,825,863,899,932,972,1031,1167,1229,1254,1263,1264,1264,1264,1264,1264,1262,1259,1257,1254,1249,1241,1232,1229,1225,1220,1212,1186,1174,1167,1164,1160,1157],"ymouse":[532,532,532,532,532,532,532,532,532,532,532,532,532,532,532,532,532,532,532,532,532,532,532,532,532,532,532,532,532,532,532,532,532,532,532,532,532,532,532,532,532,532,532,532,532,532,532,532,532,532,532,532,532,532,532,532,532,532,532,532,532,532,532,532,532,532,532,532,532,532,532,532,531,522,517,510,506,497,458,423,386,344,292,216,189,181,177,176,174,172,170,168,166,163,161,159,156,151,147,146,143,139,132,113,105,99,94,88,82],"timestamp_mouse":[12,32,53,72,93,112,133,152,172,193,212,232,252,273,293,312,332,352,372,393,412,433,452,472,493,513,532,553,573,592,612,632,652,672,692,712,733,752,772,793,812,833,853,873,892,913,932,952,973,992,1012,1032,1052,1072,1092,1112,1132,1152,1173,1191,1212,1233,1252,1273,1293,1312,1332,1352,1372,1392,1412,1432,1453,1473,1493,1513,1532,1551,1572,1592,1613,1632,1652,1672,1691,1712,1732,1752,1773,1793,1812,1832,1853,1872,1892,1912,1931,1952,1972,1993,2012,2032,2051,2072,2092,2113,2132,2153,2172],"xSR":741.5,"ySR":469.95,"xT1":424.9,"yT1":0,"xT2":1058.1,"yT2":0,"toosoon":0,"cond_shown":"Congruent","ratio_trial":200,"L_num":6,"L_den":20,"R_num":11,"R_den":22,"correct_side":2,"subjID":"MiguelAcevedo17","gender":"0","school":"MiguelAcevedo11","age":"11"},{"start_time":1551899605953,"click_time":1551899610288,"finger_time":1551899607888,"fix_duration":1163.5146553215611,"trial":3,"RT":1935,"MT":2400,"sideResp":1,"stimulus":[],"xmouse":[803,803,803,803,803,803,803,803,803,803,803,803,803,803,803,803,803,803,803,803,803,803,803,803,803,803,803,803,803,803,803,803,803,803,803,803,803,803,803,803,803,803,803,803,803,803,803,803,803,803,803,803,803,803,803,803,803,803,803,803,803,803,803,803,803,803,803,803,803,803,803,803,803,803,803,803,803,803,803,803,803,803,803,803,803,803,803,803,803,803,803,803,803,803,803,803,799,796,795,794,793,790,787,784,782,780,769,768,765,763,762,757,755,750,746,741,727,724,721,718,716,713,710,706,701,682,677,670,663,660,659,659,659,659,659,659,659,659,659,661,662,665,666,667,668,672,682,688,694,699,700,700,700,700,700,700,700,700,700,700,700,700,700,700,698,698,698,698,697,696,695,695,692,685,672,659,623,615,612,609,608,596,588,583,580,577,562,547,529,509,493,467,454,445,436,416,394,389,388,388,392,396,396,396,396,396,396,396,396,396,396,398,401,416,433,444,469],"ymouse":[480,480,480,480,480,480,480,480,480,480,480,480,480,480,480,480,480,480,480,480,480,480,480,480,480,480,480,480,480,480,480,480,480,480,480,480,480,480,480,480,480,480,480,480,480,480,480,480,480,480,480,480,480,480,480,480,480,480,480,480,480,480,480,480,480,480,480,480,480,480,480,480,480,480,480,480,480,480,480,480,480,480,480,480,480,480,480,480,480,480,480,480,480,480,480,479,465,455,445,439,432,420,411,400,390,378,354,347,341,336,335,324,321,314,309,305,293,288,286,281,278,265,260,256,253,242,240,237,235,234,234,234,234,234,234,234,234,234,235,238,241,244,247,248,250,256,271,277,284,290,290,291,291,291,291,291,291,291,291,291,291,291,292,293,295,295,295,295,295,295,294,293,289,284,275,266,250,246,245,243,241,234,228,225,223,222,215,208,201,196,193,189,187,186,186,184,175,171,164,160,155,151,151,151,151,151,151,151,151,151,151,151,146,130,117,104,78],"timestamp_mouse":[15,35,56,76,96,115,135,155,175,195,215,235,255,275,295,315,335,355,375,395,415,435,455,475,495,515,535,555,575,595,615,635,655,675,695,715,735,755,775,795,815,835,855,875,895,915,936,955,975,995,1016,1035,1055,1075,1095,1115,1135,1155,1175,1195,1215,1235,1255,1275,1295,1315,1335,1355,1375,1395,1415,1435,1455,1475,1495,1515,1535,1555,1575,1595,1615,1635,1655,1675,1695,1715,1735,1754,1774,1794,1814,1834,1854,1874,1894,1914,1935,1956,1975,1994,2014,2034,2054,2076,2095,2116,2135,2155,2176,2196,2216,2235,2255,2275,2296,2316,2335,2355,2376,2396,2415,2435,2455,2476,2496,2517,2535,2556,2576,2595,2616,2635,2655,2676,2695,2715,2736,2755,2775,2796,2816,2835,2855,2875,2896,2916,2935,2955,2976,2995,3016,3035,3055,3075,3095,3115,3135,3155,3175,3195,3215,3235,3256,3276,3295,3315,3336,3355,3375,3395,3415,3435,3456,3475,3495,3515,3535,3556,3574,3594,3614,3635,3654,3674,3694,3714,3735,3755,3774,3794,3814,3835,3855,3876,3895,3915,3935,3955,3976,3996,4015,4035,4055,4076,4096,4117,4135,4156,4176,4196,4217,4235,4256,4276,4295,4316,4334],"xSR":741.5,"ySR":469.95,"xT1":424.9,"yT1":0,"xT2":1058.1,"yT2":0,"toosoon":0,"cond_shown":"Incongruent","ratio_trial":200,"L_num":1,"L_den":2,"R_num":3,"R_den":10,"correct_side":1,"subjID":"MiguelAcevedo17","gender":"0","school":"MiguelAcevedo11","age":"11"},{"start_time":1551899614170,"click_time":1551899616649,"finger_time":1551899615788,"fix_duration":1020.780246937953,"trial":4,"RT":1618,"MT":861,"sideResp":1,"stimulus":[],"xmouse":[749,749,749,749,749,749,749,749,749,749,749,749,749,749,749,749,749,749,749,749,749,749,749,749,749,749,749,749,749,749,749,749,749,749,749,749,749,749,749,749,749,749,749,749,749,749,749,749,749,749,749,749,749,749,749,749,749,749,749,749,749,749,749,749,749,749,749,749,749,749,749,749,749,749,749,749,749,747,744,742,740,739,739,739,739,739,739,739,739,739,739,739,739,739,739,739,739,739,739,739,733,713,707,696,685,673,644,631,623,611,597,560,544,532,528,526,526,525,524,521,521,513,505,496],"ymouse":[538,538,538,538,538,538,538,538,538,538,538,538,538,538,538,538,538,538,538,538,538,538,538,538,538,538,538,538,538,538,538,538,538,538,538,538,538,538,538,538,538,538,538,538,538,538,538,538,538,538,538,538,538,538,538,538,538,538,538,538,538,538,538,538,538,538,538,538,538,538,538,538,538,538,538,538,537,534,531,528,526,525,525,525,525,525,525,525,525,525,525,525,525,525,525,525,525,523,518,501,480,418,394,367,341,314,240,212,192,176,163,146,137,130,128,127,127,127,126,125,125,112,100,90],"timestamp_mouse":[18,38,58,78,98,117,139,157,179,198,218,237,259,279,298,318,338,358,378,398,419,437,458,479,497,519,538,557,577,597,617,638,659,678,698,717,739,759,779,798,818,838,858,877,899,918,938,957,979,998,1017,1037,1058,1078,1098,1118,1138,1158,1178,1198,1217,1239,1259,1278,1297,1319,1337,1359,1379,1398,1418,1438,1458,1478,1499,1518,1538,1558,1579,1597,1618,1638,1659,1678,1699,1718,1738,1758,1778,1799,1819,1838,1858,1878,1898,1918,1938,1958,1979,1998,2018,2038,2058,2079,2098,2118,2138,2158,2179,2198,2218,2238,2259,2279,2297,2317,2338,2358,2379,2399,2419,2439,2458,2479],"xSR":741.5,"ySR":469.95,"xT1":424.9,"yT1":0,"xT2":1058.1,"yT2":0,"toosoon":0,"cond_shown":"Incongruent","ratio_trial":100,"L_num":2,"L_den":4,"R_num":8,"R_den":20,"correct_side":1,"subjID":"MiguelAcevedo17","gender":"0","school":"MiguelAcevedo11","age":"11"},{"start_time":1551899618741,"click_time":1551899620589,"finger_time":1551899620069,"fix_duration":333.6732948695362,"trial":5,"RT":1328,"MT":520,"sideResp":2,"stimulus":[],"xmouse":[779,780,781,781,781,781,781,781,781,781,781,781,781,781,781,781,781,781,781,781,781,781,781,781,781,781,781,781,781,781,781,781,781,781,781,781,781,781,781,781,781,781,781,781,781,781,781,781,781,781,781,781,781,781,781,781,781,781,781,781,781,781,782,796,809,824,845,870,940,967,992,1026,1037,1043,1045,1047,1047,1047,1047,1047,1047,1047,1047,1047,1049,1050,1052,1052,1052,1053,1055,1055,1066],"ymouse":[533,531,530,529,529,529,529,529,529,529,529,529,529,529,529,529,529,529,529,529,529,529,529,529,529,529,529,529,529,529,529,529,529,529,529,529,529,529,529,529,529,529,529,529,529,529,529,529,529,529,529,529,529,529,529,529,529,529,529,529,529,529,527,518,513,506,500,489,454,436,417,381,360,330,308,283,247,196,151,144,136,131,120,99,93,89,87,86,86,85,85,85,80],"timestamp_mouse":[7,27,48,69,87,107,127,147,167,188,207,227,248,268,288,307,327,347,367,387,407,426,447,466,487,508,527,547,568,587,607,627,647,668,688,707,727,747,766,787,808,827,848,868,887,906,928,948,967,988,1008,1026,1046,1067,1087,1107,1127,1147,1168,1187,1207,1228,1246,1268,1287,1307,1328,1348,1367,1387,1408,1428,1447,1466,1488,1507,1526,1546,1567,1588,1606,1627,1647,1666,1688,1708,1728,1747,1768,1787,1807,1827,1848],"xSR":741.5,"ySR":469.95,"xT1":424.9,"yT1":0,"xT2":1058.1,"yT2":0,"toosoon":0,"cond_shown":"Incongruent","ratio_trial":100,"L_num":12,"L_den":24,"R_num":9,"R_den":15,"correct_side":2,"subjID":"MiguelAcevedo17","gender":"0","school":"MiguelAcevedo11","age":"11"},{"start_time":1551899622407,"click_time":1551899623609,"finger_time":1551899623109,"fix_duration":518.1326521521639,"trial":6,"RT":702,"MT":500,"sideResp":2,"stimulus":[],"xmouse":[803,803,803,803,803,803,803,803,803,803,803,803,803,803,803,803,803,803,803,803,803,803,803,803,803,803,803,803,803,803,804,811,820,830,836,843,852,854,854,854,854,855,857,864,874,900,928,947,966,988,1017,1054,1065,1076,1082,1094,1124,1128,1131,1133,1134],"ymouse":[495,495,495,495,495,495,495,495,495,495,495,495,495,495,495,495,495,495,495,495,495,495,495,495,495,495,495,495,495,495,495,494,491,487,483,477,470,469,469,469,469,468,467,467,465,458,450,442,429,406,367,322,303,279,255,219,124,113,107,101,96],"timestamp_mouse":[4,22,41,61,81,101,122,141,161,181,201,221,241,261,281,301,321,341,361,381,401,421,441,461,481,502,521,541,561,581,602,621,642,662,682,702,721,742,762,781,801,822,842,862,882,902,921,941,961,981,1001,1020,1040,1061,1081,1102,1121,1141,1161,1181,1202],"xSR":741.5,"ySR":469.95,"xT1":424.9,"yT1":0,"xT2":1058.1,"yT2":0,"toosoon":0,"cond_shown":"Incongruent","ratio_trial":300,"L_num":4,"L_den":20,"R_num":2,"R_den":4,"correct_side":2,"subjID":"MiguelAcevedo17","gender":"0","school":"MiguelAcevedo11","age":"11"},{"start_time":1551899626111,"click_time":1551899627148,"finger_time":1551899626828,"fix_duration":741.4158792866275,"trial":7,"RT":717,"MT":320,"sideResp":2,"stimulus":[],"xmouse":[788,788,788,788,788,788,788,788,788,788,788,788,788,788,788,788,788,788,788,788,788,788,788,788,788,788,788,788,788,792,794,797,802,810,823,846,862,880,905,943,999,1032,1055,1071,1085,1106,1114,1121,1127,1135,1146,1148],"ymouse":[502,502,502,502,502,502,502,502,502,502,502,502,502,502,502,502,503,503,503,503,503,503,503,503,503,503,503,503,503,503,501,499,496,491,482,455,435,411,382,338,273,241,217,199,182,155,147,140,134,124,106,94],"timestamp_mouse":[17,37,57,77,97,118,137,157,177,197,217,236,258,277,297,317,338,357,377,397,417,437,457,478,497,517,538,557,578,598,617,638,658,677,697,717,739,758,777,799,818,838,857,877,897,917,937,956,977,998,1016,1037],"xSR":741.5,"ySR":469.95,"xT1":424.9,"yT1":0,"xT2":1058.1,"yT2":0,"toosoon":0,"cond_shown":"Incongruent","ratio_trial":300,"L_num":4,"L_den":20,"R_num":2,"R_den":4,"correct_side":2,"subjID":"MiguelAcevedo17","gender":"0","school":"MiguelAcevedo11","age":"11"},{"start_time":1551899629430,"click_time":1551899630928,"finger_time":1551899630248,"fix_duration":1401.3315060632083,"trial":8,"RT":818,"MT":680,"sideResp":2,"stimulus":[],"xmouse":[800,800,800,800,800,800,800,800,800,800,800,800,800,800,800,800,800,800,800,800,800,800,800,800,800,800,800,800,800,800,800,800,800,800,800,800,800,803,807,825,865,928,982,1046,1176,1237,1274,1291,1298,1314,1314,1314,1314,1314,1314,1314,1314,1314,1314,1314,1217,1199,1170,1164,1161,1161,1161,1161,1161,1161,1161,1161,1160,1159,1157],"ymouse":[525,525,525,525,525,525,525,525,525,525,525,525,525,525,525,525,525,525,525,525,525,525,525,525,525,525,525,525,525,525,525,525,525,525,525,525,525,523,521,509,490,460,425,374,230,145,81,52,34,2,2,2,2,2,2,2,2,2,2,2,5,25,73,88,94,94,94,94,95,95,95,95,95,95,90],"timestamp_mouse":[19,38,58,78,98,118,138,158,178,198,218,238,258,278,298,318,338,358,377,397,417,437,457,477,497,517,537,557,579,599,619,639,659,679,699,718,738,758,779,798,818,838,858,878,898,918,939,958,979,998,1019,1038,1059,1078,1099,1118,1138,1159,1178,1199,1218,1238,1259,1278,1298,1318,1338,1359,1379,1398,1419,1438,1457,1478,1498],"xSR":741.5,"ySR":469.95,"xT1":424.9,"yT1":0,"xT2":1058.1,"yT2":0,"toosoon":0,"cond_shown":"Incongruent","ratio_trial":200,"L_num":7,"L_den":15,"R_num":4,"R_den":6,"correct_side":2,"subjID":"MiguelAcevedo17","gender":"0","school":"MiguelAcevedo11","age":"11"},{"start_time":1551899633999,"click_time":1551899635848,"finger_time":1551899635449,"fix_duration":250,"trial":9,"RT":1450,"MT":399,"sideResp":1,"stimulus":[],"xmouse":[797,797,797,797,797,797,797,797,797,797,797,797,797,797,797,797,797,797,797,797,797,797,797,797,797,797,797,797,797,797,797,797,797,797,797,797,797,797,797,797,797,797,797,797,797,797,797,797,797,797,797,797,797,797,797,797,797,797,797,797,797,797,797,797,797,797,797,797,797,797,798,802,810,788,761,735,695,695,695,695,695,695,695,695,695,695,695,695,695,695,695,695,489],"ymouse":[517,517,517,517,517,517,517,517,517,517,517,517,517,517,517,517,517,517,517,517,517,517,517,517,517,517,517,517,517,517,517,517,517,517,517,517,517,517,517,517,517,517,517,517,517,517,517,517,517,517,517,517,517,517,517,517,517,518,519,519,519,519,519,519,519,519,519,519,519,519,512,500,413,339,239,135,28,28,28,28,28,28,28,28,28,28,28,28,28,28,28,28,2],"timestamp_mouse":[10,30,49,70,90,109,130,149,169,188,209,229,249,270,290,309,330,349,369,389,409,429,449,469,490,509,530,550,569,589,609,629,649,669,688,709,730,749,770,790,809,829,849,869,888,909,929,950,970,988,1009,1029,1050,1070,1089,1110,1130,1150,1170,1189,1209,1230,1249,1269,1290,1308,1329,1350,1369,1390,1409,1429,1449,1469,1489,1510,1530,1549,1569,1589,1609,1629,1649,1670,1689,1710,1729,1749,1770,1790,1809,1829,1849],"xSR":741.5,"ySR":469.95,"xT1":424.9,"yT1":0,"xT2":1058.1,"yT2":0,"toosoon":0,"cond_shown":"Congruent","ratio_trial":100,"L_num":15,"L_den":25,"R_num":13,"R_den":26,"correct_side":1,"subjID":"MiguelAcevedo17","gender":"0","school":"MiguelAcevedo11","age":"11"},{"start_time":1551899640330,"click_time":1551899641789,"finger_time":1551899641268,"fix_duration":1220.5358008625274,"trial":10,"RT":938,"MT":521,"sideResp":1,"stimulus":[],"xmouse":[758,758,758,758,758,758,757,757,757,757,757,757,757,757,757,757,757,757,757,757,757,757,757,757,757,757,757,757,757,757,757,757,757,757,757,757,757,757,757,757,757,757,757,757,757,757,757,757,755,752,742,730,703,666,643,609,601,598,596,594,589,569,563,558,553,549,549,549,548,546,536,528,519],"ymouse":[470,470,470,470,470,470,470,472,473,473,474,474,474,474,474,474,474,474,474,474,474,474,474,474,474,474,474,474,474,474,474,474,474,474,474,474,474,474,473,473,473,473,473,473,473,471,464,451,433,417,385,354,310,258,223,175,160,154,149,144,137,118,113,108,103,98,98,98,98,96,87,77,67],"timestamp_mouse":[19,38,59,78,99,119,139,159,179,199,219,238,258,278,298,318,338,359,378,399,418,438,458,478,497,517,539,558,578,597,618,638,658,678,699,718,738,758,779,799,818,838,858,879,898,918,938,958,979,998,1019,1038,1058,1078,1099,1118,1138,1159,1178,1198,1218,1238,1259,1278,1299,1319,1338,1358,1379,1399,1418,1438,1459],"xSR":741.5,"ySR":469.95,"xT1":424.9,"yT1":0,"xT2":1058.1,"yT2":0,"toosoon":0,"cond_shown":"Congruent","ratio_trial":200,"L_num":3,"L_den":6,"R_num":14,"R_den":20,"correct_side":2,"subjID":"MiguelAcevedo17","gender":"0","school":"MiguelAcevedo11","age":"11"},{"start_time":1551899647535,"click_time":1551899648789,"finger_time":1551899648109,"fix_duration":1266.6450173164026,"trial":11,"RT":574,"MT":680,"sideResp":2,"stimulus":[],"xmouse":[814,814,814,814,814,814,814,814,814,814,814,814,814,814,814,814,814,814,814,814,814,814,814,814,814,815,816,826,842,854,868,901,916,927,935,944,954,959,965,974,977,985,992,1000,1009,1019,1031,1052,1067,1075,1079,1079,1081,1083,1086,1089,1091,1096,1099,1103,1107,1110,1111],"ymouse":[503,503,503,503,503,503,503,503,503,503,503,503,503,503,503,503,503,503,503,503,503,503,503,503,503,503,502,495,478,467,456,427,411,395,379,365,351,345,340,331,326,310,302,291,277,265,252,222,199,189,186,185,181,178,173,170,165,154,144,131,118,103,97],"timestamp_mouse":[13,33,53,73,94,114,133,153,173,193,214,233,253,274,293,314,333,353,373,393,414,434,454,473,492,513,533,554,574,593,613,633,653,674,694,713,733,753,773,793,813,833,854,872,892,912,933,952,972,992,1012,1033,1053,1073,1094,1113,1133,1154,1174,1193,1214,1234,1254],"xSR":741.5,"ySR":469.95,"xT1":424.9,"yT1":0,"xT2":1058.1,"yT2":0,"toosoon":0,"cond_shown":"Incongruent","ratio_trial":200,"L_num":11,"L_den":20,"R_num":3,"R_den":4,"correct_side":2,"subjID":"MiguelAcevedo17","gender":"0","school":"MiguelAcevedo11","age":"11"},{"start_time":1551899651024,"click_time":1551899652428,"finger_time":1551899651768,"fix_duration":594.0728051534901,"trial":12,"RT":744,"MT":660,"sideResp":1,"stimulus":[],"xmouse":[819,819,819,819,819,819,819,819,819,819,819,819,819,819,819,819,819,819,819,819,819,819,819,819,819,819,819,819,819,819,819,819,819,819,819,819,819,816,787,775,769,765,756,751,749,749,748,748,744,741,734,724,695,673,660,646,629,612,589,588,588,588,587,586,585,581,576,569,546,529,519],"ymouse":[487,487,487,487,487,487,487,487,487,487,487,487,487,487,487,487,487,487,487,487,487,487,487,487,487,487,487,487,487,487,487,487,487,487,487,480,473,448,343,299,269,248,228,209,206,205,204,203,201,200,198,194,186,178,171,161,145,128,96,91,86,85,83,82,82,82,81,80,77,74,73],"timestamp_mouse":[4,24,44,64,84,105,124,144,163,184,205,224,244,264,284,304,325,344,364,385,405,424,444,463,483,504,524,544,564,584,604,624,645,664,685,705,725,744,764,784,805,825,843,865,885,905,924,944,963,985,1004,1025,1046,1065,1083,1104,1124,1145,1164,1184,1204,1224,1246,1264,1285,1303,1325,1344,1364,1384,1404],"xSR":741.5,"ySR":469.95,"xT1":424.9,"yT1":0,"xT2":1058.1,"yT2":0,"toosoon":0,"cond_shown":"Incongruent","ratio_trial":200,"L_num":7,"L_den":10,"R_num":14,"R_den":28,"correct_side":1,"subjID":"MiguelAcevedo17","gender":"0","school":"MiguelAcevedo11","age":"11"},{"start_time":1551899673330,"click_time":1551899676089,"finger_time":1551899675008,"fix_duration":339.3937679756097,"trial":13,"RT":1678,"MT":1081,"sideResp":1,"stimulus":[],"xmouse":[757,757,757,757,757,757,757,757,757,757,757,757,757,757,757,757,757,757,757,757,757,757,757,757,757,757,757,757,757,757,757,757,757,757,757,757,757,757,757,757,757,757,757,757,757,757,757,757,757,757,757,757,757,757,757,757,757,757,757,757,757,757,757,757,757,757,757,757,757,757,757,757,757,757,757,757,757,757,757,757,757,757,752,740,711,700,693,693,693,693,693,693,693,693,693,707,717,722,725,725,725,725,725,725,725,725,725,725,721,673,607,532,472,410,359,359,359,359,359,359,359,359,359,359,359,359,359,398,408,411,412,412,412,412,413,417,424,430],"ymouse":[514,514,514,514,514,514,514,514,514,514,514,514,514,514,514,514,514,514,514,514,514,514,514,514,514,514,514,514,514,514,514,514,514,514,514,514,514,514,514,514,514,514,514,514,514,514,514,514,514,514,514,514,514,514,514,514,514,514,514,514,514,514,514,514,514,514,514,514,514,514,514,514,514,514,514,514,514,514,514,514,514,515,515,515,515,513,512,512,512,512,512,512,512,512,512,512,512,513,513,513,513,513,513,513,513,513,513,513,503,401,293,187,108,51,5,5,5,5,5,5,5,5,5,5,5,5,5,16,32,38,39,39,39,39,41,47,49,51],"timestamp_mouse":[19,38,59,79,99,119,138,159,178,198,218,238,258,278,299,318,338,358,378,399,419,437,458,478,498,518,539,558,578,599,618,638,658,678,698,718,738,758,778,799,817,838,859,878,899,918,939,957,979,999,1018,1039,1058,1079,1099,1118,1138,1158,1179,1198,1218,1239,1258,1278,1298,1318,1338,1358,1379,1398,1419,1439,1459,1478,1499,1519,1539,1558,1578,1599,1618,1639,1659,1678,1699,1719,1739,1758,1779,1798,1818,1838,1859,1879,1898,1918,1938,1959,1978,1999,2019,2038,2057,2078,2099,2119,2138,2158,2179,2198,2217,2238,2258,2278,2299,2318,2338,2358,2378,2399,2418,2438,2458,2478,2498,2518,2538,2558,2578,2598,2619,2638,2658,2679,2698,2719,2738,2759],"xSR":741.5,"ySR":469.95,"xT1":424.9,"yT1":0,"xT2":1058.1,"yT2":0,"toosoon":0,"cond_shown":"Incongruent","ratio_trial":100,"L_num":6,"L_den":10,"R_num":13,"R_den":26,"correct_side":1,"subjID":"MiguelAcevedo17","gender":"0","school":"MiguelAcevedo11","age":"11"},{"start_time":1551899678051,"click_time":1551899679369,"finger_time":1551899678689,"fix_duration":463.43083558317545,"trial":14,"RT":638,"MT":680,"sideResp":1,"stimulus":[],"xmouse":[784,784,784,784,784,784,784,784,784,784,784,784,784,784,784,784,784,784,784,784,784,784,784,784,784,784,785,786,791,804,812,819,827,836,839,841,853,875,900,917,925,932,938,939,937,933,932,928,923,887,854,807,760,715,645,607,579,552,520,488,478,471,468,467,471,477],"ymouse":[506,506,506,506,506,506,506,506,506,506,506,506,506,506,506,506,506,506,506,506,506,506,506,506,506,506,506,506,503,488,474,455,434,404,394,388,376,367,354,327,308,282,255,230,201,195,195,195,195,219,230,238,238,236,217,206,198,190,179,163,155,145,134,123,104,97],"timestamp_mouse":[17,38,58,77,97,117,137,158,178,198,217,237,257,277,297,317,338,357,377,396,417,437,457,476,498,517,537,556,577,597,617,638,657,679,696,718,738,756,777,797,817,836,857,878,896,917,938,957,979,998,1017,1037,1058,1077,1097,1117,1136,1157,1178,1198,1217,1237,1257,1278,1297,1318],"xSR":741.5,"ySR":469.95,"xT1":424.9,"yT1":0,"xT2":1058.1,"yT2":0,"toosoon":0,"cond_shown":"Congruent","ratio_trial":200,"L_num":9,"L_den":20,"R_num":4,"R_den":16,"correct_side":1,"subjID":"MiguelAcevedo17","gender":"0","school":"MiguelAcevedo11","age":"11"},{"start_time":1551899682305,"click_time":1551899704229,"finger_time":1551899682847,"fix_duration":1196.1807721766447,"trial":15,"RT":542,"MT":21382,"sideResp":2,"stimulus":[],"xmouse":[809,809,809,809,809,809,809,809,809,809,809,809,809,808,807,807,807,807,807,807,807,807,805,801,795,794,793,793,793,800,814,838,855,877,882,882,882,882,882,882,882,882,882,877,874,874,874,874,875,887,905,925,946,1008,1035,1039,1040,1042,1044,1046,1047,1051,1055,1055,1055,1055,1055,1055,1055,1055,1055,1055,1055,1055,1055,1054,1054,1054,1054,1053,1052,1051,1052,1058,1060,1061,1061,1061,1061,1061,1061,1061,1061,1061,1061,1061,1061,1061,1061,1061,1061,1061,1061,1061,1061,1061,1061,1061,1061,1061,1061,1061,1061,1061,1061,1061,1061,1061,1061,1061,1061,1061,1061,1061,1061,1061,1061,1061,1061,1061,1061,1061,1061,1061,1061,1061,1061,1061,1061,1061,1061,1061,1061,1061,1061,1061,1061,1061,1061,1061,1061,1061,1061,1061,1061,1061,1061,1061,1061,1061,1061,1061,1061,1061,1061,1061,1061,1061,1061,1061,1061,1061,1061,1061,1061,1061,1061,1061,1061,1061,1061,1061,1061,1061,1061,1061,1061,1061,1061,1061,1061,1061,1061,1061,1061,1061,1061,1061,1061,1061,1061,1061,1061,1061,1061,1061,1061,1061,1061,1061,1061,1061,1061,1061,1061,1061,1061,1061,1061,1061,1061,1061,1061,1061,1061,1061,1061,1061,1061,1061,1061,1061,1061,1061,1061,1061,1061,1061,1061,1061,1061,1061,1061,1061,1061,1060,1057,1054,1048,1044,1039,1034,1025,1009,1006,1004,1001,996,983,975,965,957,944,910,896,884,875,869,854,838,820,803,776,745,730,715,698,683,660,652,644,638,615,608,600,591,586,580,558,546,535,522,506,492,490,485,471,451,422,419,419,419,419,419,417,415,411,409,408,408,406,403,396,375,364,356,354,353,351,351,351,350,350,350,350,350,349,349,348,348,348,348,348,348,348,348,348,348,348,348,348,348,348,348,348,344,342,341,336,335,335,334,333,333,333,333,333,333,333,333,335,336,338,338,338,338,339,340,350,352,352,353,360,377,383,395,407,420,435,444,457,486,503,538,551,561,572,585,610,621,634,642,650,679,697,715,728,742,770,790,816,858,879,906,910,912,914,917,925,927,929,932,936,956,965,971,976,983,1005,1010,1015,1019,1023,1027,1028,1030,1031,1032,1032,1034,1035,1036,1037,1037,1037,1037,1037,1039,1040,1040,1041,1043,1045,1046,1046,1046,1046,1047,1048,1048,1048,1048,1048,1048,1048,1048,1048,1048,1048,1048,1048,1048,1048,1048,1048,1048,1048,1048,1048,1048,1048,1048,1048,1048,1048,1048,1048,1048,1048,1048,1048,1048,1048,1049,1049,1049,1050,1050,1050,1051,1051,1051,1051,1051,1051,1051,1051,1051,1052,1052,1052,1052,1052,1052,1052,1052,1052,1052,1052,1052,1052,1052,1052,1052,1052,1052,1052,1052,1052,1052,1052,1052,1052,1052,1052,1052,1052,1052,1052,1052,1053,1053,1053,1053,1053,1054,1054,1054,1054,1054,1054,1054,1054,1054,1054,1054,1054,1054,1054,1054,1054,1054,1054,1054,1054,1054,1054,1054,1054,1054,1054,1055,1055,1055,1055,1055,1056,1056,1056,1058,1058,1058,1058,1058,1058,1058,1058,1058,1058,1058,1058,1058,1058,1058,1058,1058,1058,1058,1058,1058,1058,1058,1058,1058,1058,1058,1058,1058,1058,1058,1058,1058,1058,1058,1058,1058,1058,1058,1058,1058,1058,1058,1058,1058,1058,1058,1058,1058,1058,1058,1058,1058,1058,1058,1058,1058,1058,1058,1058,1058,1058,1058,1058,1058,1058,1058,1058,1058,1058,1058,1058,1058,1058,1058,1058,1058,1058,1058,1058,1058,1058,1058,1058,1058,1058,1058,1058,1058,1058,1058,1058,1058,1058,1058,1058,1058,1058,1058,1058,1058,1058,1058,1058,1058,1058,1058,1058,1058,1058,1058,1058,1058,1058,1058,1058,1058,1058,1058,1058,1058,1058,1058,1058,1058,1058,1058,1058,1058,1058,1058,1058,1058,1058,1058,1058,1058,1058,1058,1058,1058,1058,1058,1058,1058,1058,1058,1058,1058,1058,1058,1058,1058,1058,1058,1058,1058,1058,1058,1058,1058,1058,1058,1058,1058,1058,1058,1058,1058,1058,1058,1058,1058,1058,1058,1058,1058,1058,1058,1058,1058,1058,1058,1058,1058,1058,1058,1058,1058,1058,1058,1058,1058,1058,1058,1058,1058,1058,1058,1058,1058,1058,1058,1058,1058,1058,1058,1058,1058,1058,1058,1058,1058,1058,1058,1058,1058,1058,1058,1058,1058,1058,1058,1058,1058,1058,1058,1058,1058,1058,1058,1058,1058,1058,1058,1058,1058,1058,1058,1058,1058,1058,1058,1058,1058,1058,1058,1058,1058,1058,1058,1058,1058,1058,1058,1058,1058,1058,1058,1058,1058,1058,1058,1058,1058,1058,1058,1058,1058,1058,1058,1058,1058,1058,1058,1058,1058,1058,1058,1058,1058,1058,1058,1057,1040,855,729,637,580,574,574,574,574,574,574,574,574,574,574,574,574,574,574,574,574,574,574,574,574,574,574,574,574,574,574,574,574,574,574,574,574,574,574,574,574,574,574,574,574,574,574,574,574,574,574,574,574,574,574,574,574,574,574,574,574,574,574,574,574,574,574,574,574,573,564,544,524,524,524,523,522,522,522,522,522,522,522,522,522,522,522,522,522,522,522,522,522,522,522,522,522,522,522,522,522,522,522,522,522,522,521,521,522,528,534,535,535,535,535,535,535,535,535,535,535,535,535,535,535,535,535,535,535,535,536,536,537,537,539,540,540,542,543,543,544,547,548,550,551,551,551,551,551,551,551,551,551,552,556,559,561,562,562,562,564,566,580,585,595,611,631,678,711,741,761,768,770,769,769,769,769,778,782,785,788,790,802,809,816,821,825,842,857,872,887,895,907,907,907,907,907,907,910,911,913,915,923,929,939,948,956,967,970,972,973,974,981,984,987,991,993,997,1001,1004,1008,1009,1013,1014,1016,1016,1018,1020,1022,1023,1026,1029,1034,1036,1039,1041,1044,1047,1048,1049,1051,1052,1056,1059],"ymouse":[510,510,510,510,510,510,510,510,510,510,510,510,510,511,511,511,511,511,511,511,511,511,511,502,489,484,478,456,445,430,415,390,368,345,337,335,335,335,335,335,335,335,335,337,339,339,339,339,337,323,304,286,266,221,206,203,202,195,193,191,190,186,181,180,177,177,177,177,177,177,177,177,177,177,177,180,182,184,184,184,184,178,177,192,202,208,210,210,210,210,210,210,210,210,210,210,210,210,210,210,210,210,210,210,210,210,210,210,210,210,210,210,210,210,210,210,210,210,210,210,210,210,210,210,210,210,210,210,210,210,210,210,210,210,210,210,210,210,210,210,210,210,210,210,210,210,210,210,210,210,210,210,210,210,210,210,210,210,210,210,210,210,210,210,210,210,210,210,210,210,210,210,210,210,210,210,210,210,210,210,210,210,210,210,210,210,210,210,210,210,210,210,210,210,210,210,210,210,210,210,210,210,210,210,210,210,210,210,210,210,210,210,210,210,210,210,210,210,210,210,210,210,210,210,210,210,210,210,210,210,210,210,210,210,210,210,210,210,210,210,210,210,210,210,211,211,211,211,211,210,210,208,205,198,198,198,198,198,197,196,194,194,192,187,185,185,185,185,187,192,197,200,204,207,207,207,207,207,206,204,204,202,201,200,200,200,200,200,200,200,200,200,200,200,200,200,200,200,200,200,200,200,200,200,200,200,200,200,200,200,200,200,196,191,189,187,186,185,184,183,183,182,182,182,182,181,179,179,178,178,178,176,176,175,175,174,173,172,170,168,167,166,165,164,162,157,155,153,146,144,144,140,137,134,134,134,134,134,134,135,137,137,137,137,137,137,137,138,140,140,140,140,141,149,153,162,169,175,181,184,186,188,188,188,188,188,188,188,185,184,182,181,181,181,181,181,181,181,181,181,181,180,173,156,153,152,151,148,141,139,135,128,119,90,81,75,71,67,52,48,45,42,39,37,37,37,37,37,37,37,37,37,37,37,37,37,37,37,37,37,37,37,37,37,37,37,37,37,37,37,37,37,37,37,37,37,37,37,37,37,37,37,37,37,37,37,37,37,37,37,37,37,37,37,37,37,37,37,37,37,37,37,37,37,37,37,38,39,39,39,39,39,39,39,39,39,39,39,40,40,40,40,40,41,41,41,42,42,42,42,42,42,42,42,42,42,42,42,42,43,43,43,43,43,43,44,44,44,44,45,46,46,47,48,48,49,49,49,50,50,50,50,51,51,52,52,52,52,53,53,55,55,55,55,55,55,55,56,56,56,56,57,57,57,57,58,59,59,59,60,60,60,60,60,60,60,60,60,60,60,60,60,60,60,60,60,60,60,60,60,60,60,60,60,60,60,60,60,60,60,60,60,60,60,60,60,60,60,60,60,60,60,60,60,60,60,60,60,60,60,60,60,60,60,60,60,60,60,60,60,60,60,60,60,60,60,60,60,60,60,60,60,60,60,60,60,60,60,60,60,60,60,60,60,60,60,60,60,60,60,60,60,60,60,60,60,60,60,60,60,60,60,60,60,60,60,60,60,60,60,60,60,60,60,60,60,60,60,60,60,60,60,60,60,60,60,60,60,60,60,60,60,60,60,60,60,60,60,60,60,60,60,60,60,60,60,60,60,60,60,60,60,60,60,60,60,60,60,60,60,60,60,60,60,60,60,60,60,60,60,60,60,60,60,60,60,60,60,60,60,60,60,60,60,60,60,60,60,60,60,60,60,60,60,60,60,60,60,60,60,60,60,60,60,60,60,60,60,60,60,60,60,60,60,60,60,60,60,60,60,60,60,60,60,60,60,60,60,60,60,60,60,60,60,60,60,60,60,60,60,60,60,60,60,60,60,60,60,60,60,60,60,60,60,60,60,60,60,60,60,60,60,60,60,60,60,60,60,60,60,60,60,60,60,60,60,60,60,60,60,60,60,62,71,172,225,251,258,258,258,258,258,258,258,258,258,258,258,258,258,258,258,258,258,258,258,258,258,258,258,258,258,258,258,258,258,258,258,258,258,258,258,258,258,258,258,258,258,258,258,258,258,258,258,258,258,258,258,258,258,258,258,258,258,258,258,258,258,258,258,258,258,258,254,245,242,242,244,255,261,261,261,261,261,261,261,261,261,261,261,261,261,261,261,261,261,261,261,261,261,261,261,261,261,261,261,261,261,261,261,260,259,258,258,258,258,258,258,258,258,258,258,258,258,258,258,258,258,258,258,258,258,258,258,258,260,261,262,262,262,262,262,263,263,263,263,263,263,263,263,263,263,263,263,263,263,263,262,261,261,261,261,261,261,261,259,257,254,247,238,210,188,167,153,146,140,134,124,116,109,97,93,91,89,87,80,77,76,76,76,82,85,87,89,90,91,91,91,91,91,91,92,92,93,93,94,94,91,89,86,82,81,80,80,80,78,78,78,77,77,76,76,75,74,74,71,70,70,69,68,67,66,65,63,63,62,61,61,61,60,60,60,60,60,60,60,60],"timestamp_mouse":[5,26,43,64,83,103,123,144,163,183,204,223,243,263,283,303,324,342,364,383,404,423,443,464,483,503,523,542,564,582,603,623,643,663,683,702,723,743,763,783,803,823,843,864,884,903,924,943,962,982,1003,1023,1044,1063,1083,1102,1123,1144,1164,1184,1204,1224,1244,1263,1283,1304,1323,1343,1364,1383,1404,1423,1443,1463,1483,1504,1524,1543,1563,1584,1604,1623,1643,1663,1683,1704,1723,1744,1763,1783,1804,1823,1843,1863,1884,1903,1923,1943,1963,1983,2003,2022,2044,2062,2082,2103,2123,2143,2162,2182,2202,2223,2243,2262,2284,2303,2323,2344,2364,2384,2403,2424,2444,2463,2484,2503,2523,2542,2563,2584,2604,2623,2643,2663,2683,2703,2724,2743,2763,2783,2803,2823,2844,2863,2882,2903,2923,2944,2963,2983,3002,3023,3044,3062,3084,3103,3124,3144,3163,3183,3203,3224,3244,3264,3283,3303,3323,3344,3363,3384,3402,3422,3444,3463,3483,3502,3523,3543,3563,3583,3604,3624,3644,3663,3683,3703,3724,3743,3762,3782,3802,3822,3842,3863,3882,3902,3923,3942,3963,3982,4002,4023,4042,4064,4083,4104,4123,4144,4164,4183,4204,4223,4244,4264,4283,4303,4324,4343,4364,4384,4403,4423,4444,4462,4483,4504,4523,4543,4564,4584,4603,4624,4643,4663,4683,4703,4724,4743,4763,4784,4803,4823,4845,4863,4883,4904,4923,4943,4963,4983,5003,5023,5044,5063,5083,5104,5123,5144,5163,5183,5203,5223,5243,5264,5283,5303,5324,5343,5363,5383,5403,5423,5444,5462,5483,5504,5523,5544,5563,5584,5603,5623,5644,5662,5683,5704,5723,5745,5763,5783,5804,5823,5842,5863,5883,5902,5923,5944,5963,5984,6004,6023,6044,6064,6083,6103,6124,6143,6163,6183,6204,6223,6243,6263,6284,6304,6324,6344,6362,6383,6403,6423,6443,6464,6483,6502,6523,6543,6563,6583,6603,6623,6644,6663,6684,6703,6723,6743,6763,6784,6803,6823,6843,6864,6883,6903,6923,6943,6962,6983,7003,7023,7043,7064,7084,7103,7123,7145,7163,7182,7202,7223,7243,7264,7283,7303,7323,7344,7363,7383,7403,7424,7443,7462,7483,7503,7524,7544,7563,7584,7603,7623,7642,7663,7683,7702,7723,7743,7763,7784,7803,7823,7844,7863,7883,7904,7924,7944,7963,7983,8003,8023,8044,8063,8083,8103,8124,8144,8163,8182,8203,8223,8243,8263,8283,8303,8324,8342,8363,8383,8403,8423,8443,8463,8483,8503,8523,8543,8563,8584,8603,8623,8643,8669,8684,8704,8722,8742,8763,8783,8803,8822,8842,8863,8882,8902,8922,8944,8963,8982,9003,9023,9044,9063,9083,9103,9122,9142,9163,9184,9203,9222,9243,9264,9284,9302,9322,9344,9364,9383,9403,9422,9442,9464,9483,9504,9523,9544,9564,9583,9604,9623,9643,9663,9683,9703,9723,9743,9763,9784,9803,9824,9844,9864,9884,9904,9924,9943,9963,9982,10004,10023,10043,10064,10083,10104,10124,10143,10163,10183,10204,10223,10244,10263,10283,10303,10323,10343,10363,10384,10403,10423,10444,10463,10483,10504,10524,10543,10563,10582,10604,10623,10643,10664,10684,10703,10723,10744,10763,10784,10803,10824,10843,10863,10884,10903,10923,10943,10964,10983,11003,11023,11044,11063,11084,11102,11122,11142,11163,11182,11202,11223,11243,11263,11283,11303,11323,11344,11363,11384,11403,11424,11443,11464,11484,11503,11523,11543,11563,11582,11603,11622,11643,11664,11683,11703,11724,11743,11763,11784,11802,11824,11843,11864,11883,11903,11923,11943,11962,11984,12003,12023,12044,12064,12083,12103,12122,12144,12163,12184,12203,12222,12243,12264,12283,12303,12323,12343,12364,12384,12404,12423,12443,12464,12484,12502,12522,12542,12563,12584,12603,12623,12644,12662,12684,12703,12724,12742,12762,12783,12802,12823,12843,12864,12883,12903,12923,12944,12963,12983,13003,13024,13044,13064,13082,13104,13123,13143,13163,13183,13203,13224,13243,13263,13283,13303,13324,13344,13363,13384,13404,13423,13444,13464,13483,13503,13523,13543,13563,13584,13604,13623,13643,13662,13682,13702,13723,13743,13762,13782,13802,13823,13843,13864,13884,13903,13923,13944,13964,13983,14004,14023,14044,14065,14083,14104,14123,14143,14163,14183,14204,14223,14243,14263,14284,14304,14324,14344,14363,14383,14403,14422,14442,14462,14482,14502,14522,14542,14562,14582,14603,14623,14642,14663,14682,14702,14723,14744,14765,14783,14804,14823,14843,14864,14883,14903,14923,14944,14963,14982,15003,15022,15042,15062,15083,15102,15122,15142,15164,15183,15203,15223,15243,15263,15284,15303,15324,15343,15362,15384,15402,15424,15444,15464,15484,15503,15524,15544,15564,15583,15603,15623,15643,15663,15683,15703,15723,15744,15762,15783,15803,15824,15842,15863,15882,15902,15923,15944,15963,15983,16003,16023,16043,16064,16083,16103,16123,16143,16163,16183,16203,16224,16244,16263,16283,16302,16322,16342,16362,16382,16404,16423,16444,16464,16483,16503,16523,16543,16564,16584,16602,16623,16643,16662,16682,16703,16724,16744,16764,16784,16803,16823,16843,16863,16884,16904,16924,16944,16964,16984,17003,17024,17044,17063,17083,17103,17124,17143,17163,17184,17204,17223,17244,17263,17283,17303,17323,17342,17363,17383,17404,17423,17442,17462,17483,17503,17522,17543,17564,17583,17603,17624,17643,17663,17683,17703,17723,17744,17763,17783,17803,17824,17843,17863,17883,17904,17923,17942,17963,17983,18003,18023,18042,18062,18083,18104,18124,18144,18164,18183,18203,18224,18244,18262,18283,18303,18323,18343,18363,18383,18403,18422,18442,18462,18483,18504,18523,18543,18563,18584,18603,18624,18644,18664,18683,18704,18722,18743,18762,18783,18802,18822,18842,18863,18883,18902,18923,18944,18964,18983,19004,19023,19044,19063,19083,19104,19123,19144,19163,19183,19203,19223,19243,19263,19283,19303,19323,19344,19364,19383,19403,19423,19443,19463,19483,19502,19522,19544,19563,19584,19604,19624,19644,19664,19684,19704,19723,19743,19764,19783,19804,19823,19843,19863,19884,19903,19924,19943,19963,19982,20003,20023,20043,20063,20082,20102,20123,20142,20162,20184,20203,20224,20243,20263,20283,20302,20323,20342,20363,20382,20403,20422,20442,20462,20482,20502,20522,20543,20563,20582,20602,20623,20643,20664,20682,20704,20723,20744,20764,20783,20803,20824,20843,20863,20883,20904,20924,20943,20964,20984,21003,21024,21043,21064,21084,21103,21123,21144,21163,21184,21203,21223,21244,21263,21284,21304,21323,21343,21364,21383,21403,21423,21444,21463,21483,21504,21523,21543,21563,21583,21603,21624,21643,21663,21684,21703,21723,21744,21763,21783,21804,21824,21844,21863,21884,21903,21924],"xSR":741.5,"ySR":469.95,"xT1":424.9,"yT1":0,"xT2":1058.1,"yT2":0,"toosoon":0,"cond_shown":"Incongruent","ratio_trial":200,"L_num":3,"L_den":10,"R_num":1,"R_den":2,"correct_side":2,"subjID":"MiguelAcevedo17","gender":"0","school":"MiguelAcevedo11","age":"11"},{"start_time":1551899709452,"click_time":1551899711269,"finger_time":1551899710248,"fix_duration":1302.9015120807896,"trial":16,"RT":796,"MT":1021,"sideResp":1,"stimulus":[],"xmouse":[816,816,816,816,816,816,816,816,816,811,807,795,781,767,766,766,766,766,766,766,766,766,766,766,766,766,766,766,766,766,764,762,761,757,756,756,755,754,753,753,753,758,763,777,761,739,717,705,694,689,686,681,677,664,659,652,647,640,637,633,628,620,611,594,586,581,576,572,545,525,515,514,514,514,514,514,514,514,514,514,514,514,514,514,514,514,514,511,510,510,509],"ymouse":[516,516,516,516,516,516,516,516,516,516,513,508,504,503,503,503,503,503,503,503,503,503,503,503,503,503,503,503,503,503,502,500,498,490,490,490,490,490,483,467,447,418,369,263,237,226,216,211,207,204,201,198,196,191,188,182,179,174,173,172,171,169,169,165,161,157,154,151,145,144,144,143,142,140,140,140,140,140,140,139,138,134,131,131,131,130,128,112,109,105,95],"timestamp_mouse":[16,37,57,77,95,115,137,157,177,197,215,236,256,277,296,316,335,355,376,397,416,436,455,476,497,516,537,556,576,596,616,636,656,676,697,717,736,756,776,796,816,836,856,876,896,917,936,956,976,996,1016,1036,1056,1077,1096,1116,1136,1156,1176,1196,1216,1236,1256,1276,1296,1316,1335,1357,1375,1395,1417,1437,1457,1477,1496,1516,1536,1556,1576,1595,1615,1636,1656,1677,1695,1716,1736,1757,1775,1796,1817],"xSR":741.5,"ySR":469.95,"xT1":424.9,"yT1":0,"xT2":1058.1,"yT2":0,"toosoon":0,"cond_shown":"Incongruent","ratio_trial":300,"L_num":1,"L_den":2,"R_num":3,"R_den":15,"correct_side":1,"subjID":"MiguelAcevedo17","gender":"0","school":"MiguelAcevedo11","age":"11"},{"start_time":1551899718554,"click_time":1551899719948,"finger_time":1551899719408,"fix_duration":625.1148233466159,"trial":17,"RT":854,"MT":540,"sideResp":1,"stimulus":[],"xmouse":[797,797,797,797,797,797,797,797,797,797,797,797,797,797,797,797,797,797,797,797,797,797,797,797,797,797,797,797,797,797,797,797,797,797,797,797,797,797,795,793,789,782,761,667,597,590,590,588,587,587,587,584,580,574,561,557,556,556,556,556,555,554,554,554,554,554,553,547,533,503],"ymouse":[520,520,520,520,520,520,520,520,520,520,520,520,520,520,520,520,520,520,520,520,520,520,520,520,520,520,520,520,520,520,520,520,520,520,520,520,519,518,514,510,501,483,433,270,143,84,55,45,43,43,43,42,41,38,31,29,28,28,28,28,26,26,26,26,26,26,26,27,34,46],"timestamp_mouse":[15,38,55,74,95,115,134,154,174,194,214,234,254,275,294,314,334,355,374,394,414,434,454,474,495,513,535,555,574,594,614,635,654,674,693,715,735,754,774,793,815,833,854,875,893,914,933,953,975,995,1014,1034,1054,1074,1094,1114,1134,1154,1175,1193,1214,1234,1255,1274,1295,1314,1334,1354,1374,1393],"xSR":741.5,"ySR":469.95,"xT1":424.9,"yT1":0,"xT2":1058.1,"yT2":0,"toosoon":0,"cond_shown":"Incongruent","ratio_trial":100,"L_num":9,"L_den":15,"R_num":13,"R_den":26,"correct_side":1,"subjID":"MiguelAcevedo17","gender":"0","school":"MiguelAcevedo11","age":"11"},{"start_time":1551899722525,"click_time":1551899723788,"finger_time":1551899723287,"fix_duration":715.120340928291,"trial":18,"RT":762,"MT":501,"sideResp":2,"stimulus":[],"xmouse":[801,801,801,801,801,801,801,801,801,801,801,801,801,801,801,801,801,801,801,801,801,801,801,801,801,801,801,801,801,801,801,801,801,801,801,803,816,831,853,871,884,905,915,928,972,1003,1028,1033,1033,1033,1033,1032,1031,1031,1031,1031,1030,1030,1030,1030,1034,1049,1058,1070],"ymouse":[506,506,506,506,506,506,506,506,506,506,506,506,506,506,507,507,507,507,507,507,507,507,507,507,507,507,507,507,507,507,507,507,507,507,507,507,494,483,467,453,439,402,381,356,295,249,195,183,178,175,174,170,166,159,150,128,101,90,82,75,67,53,48,42],"timestamp_mouse":[4,23,44,63,84,103,124,143,163,183,203,222,242,264,284,303,323,343,364,383,403,422,443,464,483,503,523,543,563,582,604,622,644,663,682,703,723,743,762,784,803,823,844,863,884,905,924,943,963,982,1002,1023,1043,1062,1083,1105,1122,1143,1164,1183,1204,1223,1244,1262],"xSR":741.5,"ySR":469.95,"xT1":424.9,"yT1":0,"xT2":1058.1,"yT2":0,"toosoon":0,"cond_shown":"Incongruent","ratio_trial":100,"L_num":12,"L_den":30,"R_num":2,"R_den":4,"correct_side":2,"subjID":"MiguelAcevedo17","gender":"0","school":"MiguelAcevedo11","age":"11"},{"start_time":1551899726349,"click_time":1551899727908,"finger_time":1551899726788,"fix_duration":880.4664607127352,"trial":19,"RT":439,"MT":1120,"sideResp":2,"stimulus":[],"xmouse":[752,752,752,752,752,752,752,752,752,752,752,752,752,752,752,752,752,752,752,752,746,736,731,727,726,726,726,726,726,726,724,724,724,724,724,724,724,724,724,724,724,724,724,724,724,724,724,724,724,724,724,724,724,724,724,724,724,724,724,724,723,720,720,720,720,720,720,720,720,720,725,739,762,796,905,966,1027,1075],"ymouse":[488,488,488,488,488,488,487,487,487,487,487,487,487,487,487,487,487,487,487,487,487,487,487,487,487,487,487,487,487,487,486,486,486,486,486,486,486,486,486,486,486,486,486,486,486,486,486,486,486,486,486,486,486,486,486,486,486,486,486,486,486,486,486,486,486,486,486,486,486,486,474,456,423,376,276,213,141,82],"timestamp_mouse":[19,39,59,79,100,119,140,160,179,200,219,239,259,279,299,318,340,360,379,399,419,439,460,479,500,519,539,559,580,599,619,639,660,679,699,719,739,759,780,799,820,839,858,879,899,918,939,959,978,999,1019,1039,1060,1079,1099,1118,1139,1159,1179,1199,1220,1240,1259,1279,1299,1319,1339,1360,1379,1399,1419,1439,1460,1480,1499,1520,1539,1559],"xSR":741.5,"ySR":469.95,"xT1":424.9,"yT1":0,"xT2":1058.1,"yT2":0,"toosoon":0,"cond_shown":"Incongruent","ratio_trial":100,"L_num":8,"L_den":16,"R_num":6,"R_den":10,"correct_side":2,"subjID":"MiguelAcevedo17","gender":"0","school":"MiguelAcevedo11","age":"11"},{"start_time":1551899734118,"click_time":1551899735888,"finger_time":1551899735487,"fix_duration":409.3281332609161,"trial":20,"RT":1369,"MT":401,"sideResp":2,"stimulus":[],"xmouse":[774,774,774,774,774,774,774,774,774,774,774,774,774,774,774,774,774,774,774,774,774,774,774,774,774,774,774,774,774,774,774,774,774,774,774,774,774,774,774,774,774,774,774,774,774,774,774,774,774,774,774,774,774,774,774,774,774,774,776,778,781,784,786,796,804,813,825,838,904,919,922,927,940,945,952,958,962,967,975,977,980,986,1046,1086,1110,1120,1127,1129,1125],"ymouse":[508,508,508,508,508,508,508,508,508,508,508,508,508,508,508,508,508,508,508,508,508,508,508,508,508,508,508,508,508,508,508,508,508,508,508,508,508,508,508,508,508,508,508,508,508,508,508,508,508,508,508,508,508,508,508,508,508,508,508,506,505,505,504,499,495,490,482,473,435,426,423,418,392,374,356,342,325,310,283,278,273,258,211,180,153,131,113,104,89],"timestamp_mouse":[12,30,50,70,90,110,131,151,170,190,210,230,250,270,290,310,330,350,370,390,410,430,450,470,490,510,530,550,570,590,610,630,650,670,690,710,730,750,770,790,810,830,850,870,890,910,930,950,970,990,1010,1030,1050,1070,1090,1111,1130,1150,1169,1190,1209,1230,1249,1270,1289,1309,1329,1349,1369,1389,1409,1431,1450,1471,1490,1511,1529,1550,1570,1590,1609,1629,1650,1670,1689,1710,1729,1750,1770],"xSR":741.5,"ySR":469.95,"xT1":424.9,"yT1":0,"xT2":1058.1,"yT2":0,"toosoon":0,"cond_shown":"Incongruent","ratio_trial":300,"L_num":4,"L_den":20,"R_num":2,"R_den":4,"correct_side":2,"subjID":"MiguelAcevedo17","gender":"0","school":"MiguelAcevedo11","age":"11"},{"start_time":1551899741560,"click_time":1551899743189,"finger_time":1551899742387,"fix_duration":1071.7615322458878,"trial":21,"RT":827,"MT":802,"sideResp":1,"stimulus":[],"xmouse":[774,774,774,774,774,774,774,774,774,774,774,774,774,774,774,774,774,774,774,774,777,787,796,805,806,806,806,806,806,806,806,806,805,804,803,802,801,799,796,790,775,729,697,694,692,692,692,690,688,686,688,726,750,759,764,764,764,764,760,749,735,702,685,667,645,641,637,635,634,632,630,629,624,619,611,600,569,554,545,537,528,520],"ymouse":[523,523,523,523,523,523,523,523,523,523,523,523,523,523,523,523,523,523,523,523,523,522,519,518,518,518,518,518,518,518,518,518,518,518,518,518,517,517,516,513,505,478,462,461,461,461,461,460,444,416,388,282,218,187,171,170,170,169,161,147,133,110,100,92,86,85,83,82,80,78,76,76,76,76,75,73,69,66,66,64,63,61],"timestamp_mouse":[8,28,48,68,88,108,128,148,168,188,208,228,249,268,288,308,328,348,368,388,409,428,447,468,488,509,528,548,568,588,608,628,649,668,689,709,727,748,769,789,809,827,849,868,888,908,929,948,967,988,1008,1028,1047,1067,1087,1107,1129,1148,1168,1188,1207,1228,1248,1268,1289,1308,1328,1348,1368,1388,1408,1428,1449,1468,1488,1509,1529,1547,1569,1587,1607,1629],"xSR":741.5,"ySR":469.95,"xT1":424.9,"yT1":0,"xT2":1058.1,"yT2":0,"toosoon":0,"cond_shown":"Congruent","ratio_trial":200,"L_num":3,"L_den":6,"R_num":14,"R_den":20,"correct_side":2,"subjID":"MiguelAcevedo17","gender":"0","school":"MiguelAcevedo11","age":"11"},{"start_time":1551899745564,"click_time":1551899747608,"finger_time":1551899746869,"fix_duration":753.862234125867,"trial":22,"RT":1305,"MT":739,"sideResp":2,"stimulus":[],"xmouse":[788,788,788,788,788,788,788,788,788,788,788,788,788,788,788,788,788,788,788,788,788,788,788,788,788,788,788,788,788,788,788,788,788,788,788,788,788,788,788,788,788,788,788,788,788,788,788,788,788,788,788,788,788,788,788,788,788,788,788,788,788,788,788,802,834,864,891,952,983,997,1007,1036,1096,1144,1167,1181,1188,1191,1191,1191,1191,1191,1200,1209,1215,1217,1218,1219,1219,1216,1210,1202,1202,1202,1202,1202,1202,1202,1202,1202,1200,1193,1155],"ymouse":[532,532,532,532,532,532,532,532,532,532,532,532,532,532,532,532,532,532,532,532,532,532,532,532,532,532,532,532,532,532,532,532,532,532,532,532,532,532,532,532,532,532,532,532,532,532,532,532,532,532,532,532,532,532,532,532,532,532,532,532,532,532,532,532,532,532,532,510,486,460,427,346,285,264,260,259,258,258,258,258,256,250,204,177,163,157,152,125,107,96,90,84,84,84,84,84,84,84,84,84,84,81,57],"timestamp_mouse":[11,24,44,71,84,104,125,145,164,185,205,223,244,264,284,305,325,344,364,384,404,425,444,465,483,504,524,544,565,583,604,623,644,665,684,704,725,744,763,785,804,825,845,864,884,905,925,945,964,985,1004,1025,1044,1064,1084,1104,1125,1145,1164,1185,1205,1224,1244,1264,1284,1305,1324,1344,1365,1384,1404,1426,1444,1464,1485,1504,1525,1545,1564,1584,1604,1624,1645,1664,1684,1704,1725,1744,1764,1785,1803,1825,1844,1864,1884,1905,1925,1944,1964,1983,2004,2024,2044],"xSR":741.5,"ySR":469.95,"xT1":424.9,"yT1":0,"xT2":1058.1,"yT2":0,"toosoon":0,"cond_shown":"Congruent","ratio_trial":100,"L_num":7,"L_den":14,"R_num":15,"R_den":25,"correct_side":2,"subjID":"MiguelAcevedo17","gender":"0","school":"MiguelAcevedo11","age":"11"},{"start_time":1551899752821,"click_time":1551899755028,"finger_time":1551899754008,"fix_duration":1393.079743921802,"trial":23,"RT":1187,"MT":1020,"sideResp":1,"stimulus":[],"xmouse":[803,803,803,803,803,803,803,803,803,803,803,803,803,803,803,803,803,803,803,803,803,803,803,803,803,803,803,803,803,803,803,803,803,803,803,803,803,803,803,803,803,803,803,803,803,803,803,803,805,807,807,807,807,809,810,811,811,811,811,805,793,773,757,745,736,731,728,723,719,716,710,705,700,695,684,679,679,677,674,665,665,665,665,665,665,659,655,654,653,649,643,638,634,632,631,620,612,607,604,602,593,590,589,588,586,582,581,579,570,556,503],"ymouse":[530,530,530,530,530,530,530,530,530,530,530,530,530,530,530,530,530,530,530,530,530,530,530,530,530,530,530,530,530,530,530,530,530,530,530,530,530,530,530,530,530,530,530,530,530,530,530,529,525,522,522,522,521,518,513,511,510,506,493,442,401,360,320,292,273,253,246,239,232,229,220,215,210,206,190,180,176,173,167,144,140,138,138,138,138,134,131,130,129,126,122,118,115,113,111,101,96,93,91,89,83,81,80,79,78,75,74,74,69,65,55],"timestamp_mouse":[10,27,47,68,87,108,127,147,167,188,207,227,247,267,287,307,327,348,367,387,407,427,446,468,486,508,527,547,567,587,607,628,648,667,688,708,726,747,767,787,807,827,847,867,887,907,926,948,967,987,1007,1028,1046,1067,1087,1107,1126,1147,1166,1187,1207,1228,1248,1267,1288,1308,1327,1346,1367,1387,1407,1428,1447,1466,1488,1506,1527,1547,1567,1587,1608,1627,1647,1667,1688,1708,1727,1747,1767,1788,1808,1828,1847,1867,1887,1908,1927,1947,1967,1987,2007,2027,2047,2068,2088,2107,2127,2147,2167,2187,2207],"xSR":741.5,"ySR":469.95,"xT1":424.9,"yT1":0,"xT2":1058.1,"yT2":0,"toosoon":0,"cond_shown":"Incongruent","ratio_trial":100,"L_num":2,"L_den":4,"R_num":6,"R_den":15,"correct_side":1,"subjID":"MiguelAcevedo17","gender":"0","school":"MiguelAcevedo11","age":"11"},{"start_time":1551899759028,"click_time":1551899761568,"finger_time":1551899760308,"fix_duration":1237.3882719185206,"trial":24,"RT":1280,"MT":1260,"sideResp":2,"stimulus":[],"xmouse":[783,783,783,783,783,783,783,783,783,783,783,783,783,783,783,783,783,783,783,783,783,783,783,783,783,783,783,783,783,783,783,783,783,783,783,783,783,783,783,783,783,783,783,783,783,783,783,783,783,783,783,780,777,777,777,777,777,776,776,776,780,784,795,805,821,852,866,879,895,910,920,922,925,928,933,948,956,959,963,968,973,975,985,997,1031,1088,1109,1130,1143,1148,1151,1153,1153,1153,1153,1153,1153,1153,1153,1153,1153,1153,1153,1153,1153,1153,1153,1153,1153,1153,1153,1153,1153,1152,1152,1152,1152,1152,1152,1152,1151,1151,1151,1151,1151,1151,1151,1151],"ymouse":[512,512,512,512,512,512,512,512,512,512,512,512,512,512,512,512,512,512,512,512,512,512,512,512,512,512,512,512,512,512,512,512,512,512,512,512,512,512,512,512,512,512,512,512,512,512,512,512,512,512,512,510,509,508,508,508,508,507,506,505,500,496,487,478,465,431,416,400,380,363,351,346,342,338,333,315,307,303,295,281,244,230,215,204,185,153,143,134,129,128,127,126,126,126,126,126,126,124,124,123,121,120,120,120,120,120,120,118,117,116,114,111,110,107,107,106,106,106,106,105,103,103,103,102,102,102,100,99],"timestamp_mouse":[1,20,40,60,80,100,120,140,160,180,200,220,240,260,280,300,320,340,360,380,400,420,440,460,480,500,520,540,559,579,599,619,639,659,679,699,719,741,761,781,801,821,841,861,880,900,920,940,960,980,999,1019,1039,1059,1081,1100,1120,1140,1161,1181,1200,1221,1240,1261,1280,1301,1320,1340,1361,1380,1400,1421,1440,1460,1481,1500,1521,1540,1560,1581,1600,1621,1640,1660,1681,1700,1721,1740,1761,1780,1800,1820,1841,1860,1880,1901,1920,1940,1960,1980,2000,2020,2040,2060,2081,2101,2120,2141,2160,2180,2201,2221,2240,2261,2281,2300,2321,2340,2360,2380,2400,2421,2440,2461,2481,2500,2521,2540],"xSR":741.5,"ySR":469.95,"xT1":424.9,"yT1":0,"xT2":1058.1,"yT2":0,"toosoon":0,"cond_shown":"Incongruent","ratio_trial":300,"L_num":7,"L_den":10,"R_num":8,"R_den":20,"correct_side":1,"subjID":"MiguelAcevedo17","gender":"0","school":"MiguelAcevedo11","age":"11"},{"start_time":1551899772121,"click_time":1551899779768,"finger_time":1551899772768,"fix_duration":1412.5086329868261,"trial":25,"RT":647,"MT":7000,"sideResp":1,"stimulus":[],"xmouse":[786,786,786,786,786,786,786,786,786,786,786,786,786,786,786,786,786,786,786,786,786,786,786,786,786,786,786,786,786,786,786,783,777,777,776,776,776,776,776,775,775,775,774,770,769,764,758,745,741,736,732,725,688,667,651,642,640,640,640,640,640,640,640,640,640,640,640,638,637,633,632,632,630,629,628,625,621,611,605,603,603,603,603,603,603,603,603,603,603,603,603,603,603,603,603,603,603,603,603,603,603,603,603,603,603,603,603,603,603,603,603,603,603,603,603,603,603,603,603,603,603,603,603,603,603,603,603,603,603,603,603,603,603,603,603,603,603,603,603,603,603,607,607,607,607,607,607,608,609,610,611,612,613,614,614,614,614,614,613,612,612,612,611,611,609,608,607,598,595,595,595,595,595,595,595,595,595,594,590,587,583,581,581,581,581,581,581,581,581,581,581,581,581,581,581,581,581,581,581,581,581,581,581,581,581,581,581,581,581,581,581,581,581,581,581,581,581,581,581,581,581,581,581,581,581,581,581,581,581,581,581,581,581,581,581,581,581,581,581,581,581,581,581,581,581,581,581,581,581,581,581,581,581,581,581,581,581,581,579,578,578,577,575,574,574,573,572,571,571,570,569,568,567,566,566,565,565,563,563,563,562,562,560,559,557,555,552,549,549,549,549,549,549,549,548,548,546,542,541,538,537,537,537,537,537,537,537,537,536,536,536,534,534,534,534,534,533,533,533,531,531,531,531,531,530,529,529,529,529,529,529,529,529,529,529,529,529,529,529,529,529,529,529,529,529,529,529,529,529,529,529,529,529,529,529,529,529,529,529,529,529,529,529,529,529,529,529,529,529,529,529,529,529,529,529,529,529,529,529,529,527,525,524],"ymouse":[528,528,531,533,534,534,534,534,534,534,534,534,534,534,531,530,530,529,529,529,529,529,529,529,529,529,529,529,527,524,512,495,464,459,456,455,449,446,445,444,444,444,432,424,417,406,395,372,364,355,346,333,277,255,241,234,233,233,233,233,233,233,233,233,233,233,233,230,227,222,219,218,213,210,206,198,185,156,142,135,130,128,125,125,124,123,123,121,121,121,121,120,120,120,120,120,120,120,120,120,120,120,120,120,120,120,120,120,120,120,120,120,120,120,120,120,120,120,120,120,120,120,120,120,120,120,120,120,120,120,120,120,120,120,120,120,120,120,120,119,116,112,111,111,111,111,110,107,104,99,96,91,82,76,72,67,63,55,51,48,47,47,47,45,43,42,41,38,36,36,36,36,36,36,36,36,36,36,35,33,32,31,31,31,31,31,31,31,31,31,31,31,31,31,31,31,31,31,31,31,31,31,31,31,31,31,31,31,31,31,31,31,31,31,31,31,31,31,31,31,31,31,31,31,31,31,31,31,31,31,31,31,31,31,31,31,31,31,31,31,31,31,31,31,31,31,31,31,31,31,31,31,31,31,31,31,31,31,32,32,32,32,32,33,33,33,33,34,34,34,34,34,34,34,34,34,34,34,34,34,34,34,34,34,34,34,34,34,34,34,34,34,34,34,34,34,34,34,34,34,34,34,34,34,34,34,34,34,35,35,35,35,35,35,35,35,35,35,35,35,35,35,35,35,35,34,34,34,34,34,34,34,34,34,34,34,34,34,34,34,34,34,34,34,34,34,34,34,34,34,34,34,34,34,34,34,34,34,34,34,34,34,34,34,34,34,34,34,34,34,34,34,34,34,34,34,34,34,34,34,33,31,30],"timestamp_mouse":[8,28,50,68,88,107,127,147,167,187,207,227,247,267,288,308,328,347,368,388,407,429,447,467,487,507,527,547,567,588,607,627,647,667,687,707,728,747,766,787,807,828,847,868,887,907,928,947,967,987,1007,1027,1047,1067,1088,1108,1128,1148,1167,1187,1207,1227,1248,1268,1287,1307,1328,1347,1368,1388,1408,1427,1447,1467,1487,1507,1527,1547,1568,1588,1607,1627,1648,1667,1687,1707,1728,1747,1768,1788,1808,1827,1848,1868,1887,1908,1928,1947,1968,1988,2008,2028,2047,2068,2088,2107,2127,2147,2168,2188,2208,2228,2248,2267,2288,2307,2328,2347,2367,2386,2406,2426,2446,2468,2487,2508,2529,2548,2568,2588,2608,2628,2648,2667,2688,2708,2727,2748,2767,2788,2808,2827,2848,2868,2887,2907,2927,2947,2967,2987,3008,3029,3048,3067,3088,3107,3129,3147,3167,3187,3208,3227,3248,3267,3288,3307,3327,3347,3368,3387,3407,3428,3447,3468,3488,3508,3528,3547,3568,3587,3608,3627,3648,3668,3687,3708,3728,3748,3768,3788,3807,3827,3848,3868,3887,3908,3927,3948,3968,3988,4007,4027,4047,4066,4087,4107,4127,4147,4167,4186,4206,4228,4246,4267,4287,4307,4327,4348,4368,4388,4407,4428,4448,4468,4488,4508,4528,4547,4567,4588,4607,4628,4647,4668,4687,4707,4728,4748,4767,4788,4807,4827,4847,4868,4888,4908,4928,4948,4968,4987,5007,5027,5046,5067,5087,5107,5127,5147,5168,5187,5208,5228,5247,5267,5287,5307,5328,5347,5367,5387,5407,5427,5447,5467,5487,5507,5527,5548,5567,5587,5607,5627,5647,5667,5688,5707,5728,5747,5766,5787,5807,5827,5848,5868,5887,5908,5926,5947,5966,5988,6008,6027,6047,6068,6087,6107,6127,6147,6167,6187,6207,6228,6247,6267,6287,6307,6327,6348,6367,6387,6407,6427,6447,6467,6487,6507,6528,6547,6567,6587,6608,6627,6647,6667,6687,6708,6727,6747,6768,6788,6807,6827,6847,6867,6888,6908,6928,6947,6967,6987,7007,7027,7047,7067,7088,7108,7145,7147,7167,7187,7207,7227,7247,7268,7287,7307,7327,7347,7367,7386,7407,7426,7447,7466,7486,7506,7526,7547,7567,7588,7607,7628,7647],"xSR":741.5,"ySR":469.95,"xT1":424.9,"yT1":0,"xT2":1058.1,"yT2":0,"toosoon":0,"cond_shown":"Incongruent","ratio_trial":100,"L_num":1,"L_den":2,"R_num":8,"R_den":20,"correct_side":1,"subjID":"MiguelAcevedo17","gender":"0","school":"MiguelAcevedo11","age":"11"},{"start_time":1551899792882,"click_time":1551899794508,"finger_time":1551899793668,"fix_duration":250,"trial":26,"RT":786,"MT":840,"sideResp":1,"stimulus":[],"xmouse":[787,787,787,787,787,787,787,787,787,787,787,787,787,787,787,787,787,787,787,787,787,787,787,787,787,788,789,790,790,790,790,791,791,791,792,794,796,796,796,796,793,782,779,775,770,765,753,748,742,737,735,732,729,716,706,694,686,673,666,657,650,635,630,623,616,612,600,595,591,588,585,581,580,578,570,566,558,555,551,546,534,512],"ymouse":[491,491,491,491,491,491,491,491,491,491,491,491,491,491,491,491,491,491,491,491,491,491,491,491,491,492,492,492,492,492,492,490,490,490,489,487,482,479,472,459,441,391,373,362,349,340,322,318,312,308,306,303,301,293,287,279,272,262,256,248,241,225,216,208,195,189,172,167,162,158,154,150,148,145,137,134,128,126,122,118,111,98],"timestamp_mouse":[10,26,48,66,87,106,126,146,167,186,207,226,247,266,287,306,327,347,366,387,406,427,448,466,487,507,527,546,566,587,606,626,646,667,686,706,726,746,767,786,806,826,846,867,886,906,926,947,966,987,1006,1026,1047,1066,1087,1107,1125,1146,1166,1187,1207,1225,1246,1267,1287,1305,1326,1347,1366,1387,1407,1426,1446,1467,1487,1507,1526,1546,1566,1586,1606,1626],"xSR":741.5,"ySR":469.95,"xT1":424.9,"yT1":0,"xT2":1058.1,"yT2":0,"toosoon":0,"cond_shown":"Congruent","ratio_trial":200,"L_num":1,"L_den":2,"R_num":21,"R_den":30,"correct_side":2,"subjID":"MiguelAcevedo17","gender":"0","school":"MiguelAcevedo11","age":"11"},{"start_time":1551899798400,"click_time":1551899801848,"finger_time":1551899799609,"fix_duration":669.3205838769518,"trial":27,"RT":1209,"MT":2239,"sideResp":2,"stimulus":[],"xmouse":[831,831,831,831,831,831,831,831,831,831,831,831,831,831,831,831,831,831,831,831,831,831,831,831,831,831,831,831,831,831,831,831,831,831,831,831,831,831,831,831,831,831,831,831,831,831,831,831,831,831,831,831,831,831,831,831,833,835,836,839,843,846,849,854,858,862,883,894,910,927,944,971,973,974,977,980,980,980,980,980,980,980,980,980,980,980,980,980,980,980,980,980,980,980,980,980,980,980,980,980,980,980,980,982,988,988,987,987,988,992,996,1001,1003,1004,1004,1004,1004,1007,1011,1013,1016,1022,1023,1024,1026,1027,1028,1028,1028,1028,1032,1039,1044,1051,1062,1066,1075,1077,1078,1080,1080,1080,1080,1079,1074,1074,1072,1072,1071,1071,1071,1071,1071,1071,1071,1071,1070,1070,1070,1070,1070,1070,1070,1070,1070,1070,1070,1070,1070,1070,1070,1070,1070],"ymouse":[551,551,551,551,551,551,551,551,551,551,551,551,551,551,551,551,551,551,551,551,551,551,551,551,551,551,551,551,551,551,551,551,551,551,551,551,551,551,551,551,551,551,551,551,551,551,551,551,551,551,551,551,551,551,551,551,537,530,526,519,513,508,505,502,499,497,484,475,466,456,446,433,432,431,428,424,424,424,423,423,423,423,423,423,423,423,423,423,423,423,423,423,423,423,423,423,423,423,423,423,423,423,422,417,403,380,349,341,334,327,320,311,308,307,307,307,306,301,294,288,282,273,271,267,262,256,252,245,234,220,204,181,168,154,137,131,115,112,110,107,106,106,106,105,105,105,106,106,106,106,106,106,106,106,106,106,107,107,107,107,107,107,107,107,107,107,107,107,106,106,106,103,98],"timestamp_mouse":[9,28,58,68,87,108,129,148,169,189,207,229,248,269,289,308,329,349,369,389,408,428,449,469,489,509,529,549,569,588,609,629,649,669,688,709,728,748,769,789,809,828,849,868,888,909,929,948,969,988,1007,1028,1048,1069,1089,1108,1128,1148,1169,1188,1209,1228,1248,1268,1288,1308,1328,1348,1368,1389,1408,1428,1448,1469,1489,1508,1528,1548,1569,1589,1608,1629,1648,1668,1688,1708,1728,1749,1769,1789,1808,1828,1848,1868,1888,1907,1928,1948,1968,1989,2009,2028,2048,2069,2089,2108,2128,2147,2167,2188,2208,2228,2248,2268,2288,2308,2328,2348,2369,2388,2409,2429,2448,2469,2489,2509,2527,2548,2568,2589,2608,2628,2648,2669,2689,2708,2728,2748,2769,2788,2809,2828,2848,2868,2888,2908,2928,2948,2969,2988,3007,3028,3048,3069,3088,3107,3128,3149,3169,3189,3208,3228,3248,3269,3287,3309,3328,3349,3368,3388,3408,3428,3448],"xSR":741.5,"ySR":469.95,"xT1":424.9,"yT1":0,"xT2":1058.1,"yT2":0,"toosoon":0,"cond_shown":"Congruent","ratio_trial":300,"L_num":3,"L_den":6,"R_num":4,"R_den":5,"correct_side":2,"subjID":"MiguelAcevedo17","gender":"0","school":"MiguelAcevedo11","age":"11"},{"start_time":1551899804659,"click_time":1551899807129,"finger_time":1551899805308,"fix_duration":689.6851913643369,"trial":28,"RT":649,"MT":1821,"sideResp":1,"stimulus":[],"xmouse":[746,746,746,746,746,746,746,746,746,747,747,747,747,747,747,748,748,749,749,750,750,751,751,752,753,754,755,756,757,757,757,759,759,760,760,760,760,760,760,760,761,761,762,762,762,762,763,763,764,766,767,768,770,778,782,784,786,789,792,798,799,800,800,800,800,800,800,800,800,795,793,791,787,771,764,761,759,758,758,756,754,752,749,749,744,739,731,723,714,686,672,660,647,632,626,618,608,593,561,543,534,523,510,478,469,466,465,465,465,463,461,460,459,458,458,458,458,458,458,458,458,458,458,457],"ymouse":[484,484,484,484,484,484,484,484,484,484,484,484,484,484,484,484,484,484,484,484,483,483,482,482,481,480,479,477,474,474,473,471,467,466,465,464,464,463,463,462,461,460,460,459,458,457,456,455,453,451,450,449,446,436,430,428,426,423,418,409,406,403,401,397,394,392,391,390,382,375,371,366,361,342,333,329,325,324,323,319,314,308,304,301,292,282,272,263,254,230,220,213,206,197,193,187,179,172,157,148,142,137,129,110,105,104,103,103,103,102,102,102,101,101,101,101,101,101,101,101,101,101,101,99],"timestamp_mouse":[10,43,49,69,88,108,130,149,169,190,209,228,250,269,288,309,329,350,369,390,410,428,449,469,488,508,530,549,569,589,610,629,649,670,690,710,730,748,770,789,809,830,849,869,889,909,928,948,970,989,1010,1029,1050,1070,1088,1109,1129,1149,1170,1190,1210,1229,1249,1269,1289,1309,1329,1348,1370,1390,1409,1429,1449,1469,1489,1510,1529,1548,1569,1589,1609,1628,1648,1670,1689,1710,1729,1749,1769,1788,1809,1830,1849,1870,1890,1909,1928,1950,1970,1988,2009,2030,2049,2069,2089,2110,2129,2150,2170,2189,2210,2229,2249,2270,2290,2310,2330,2349,2370,2389,2409,2429,2449,2469],"xSR":741.5,"ySR":469.95,"xT1":424.9,"yT1":0,"xT2":1058.1,"yT2":0,"toosoon":0,"cond_shown":"Congruent","ratio_trial":200,"L_num":4,"L_den":8,"R_num":3,"R_den":10,"correct_side":1,"subjID":"MiguelAcevedo17","gender":"0","school":"MiguelAcevedo11","age":"11"},{"start_time":1551899809518,"click_time":1551899811028,"finger_time":1551899810188,"fix_duration":1148.4596307104703,"trial":29,"RT":670,"MT":840,"sideResp":1,"stimulus":[],"xmouse":[816,816,816,816,816,816,816,816,816,816,816,816,816,816,816,816,816,816,816,816,816,816,816,816,816,817,818,819,820,820,821,823,823,824,824,824,824,823,822,821,819,815,813,810,804,794,768,757,751,746,740,720,714,713,712,707,667,640,617,601,587,564,554,542,536,531,531,531,531,531,528,519,513,504,501,496],"ymouse":[493,493,493,493,493,493,493,493,493,493,493,493,493,493,493,492,492,492,492,492,492,492,492,491,490,489,484,483,482,481,479,475,473,467,462,458,453,452,452,450,447,444,441,439,435,429,412,406,402,398,395,379,375,374,372,364,329,311,299,289,280,268,261,253,248,243,232,224,214,203,189,161,147,124,117,92],"timestamp_mouse":[11,36,51,69,89,111,130,149,171,191,209,230,251,271,291,311,331,350,371,390,411,430,449,470,491,510,531,549,570,589,611,630,651,670,690,710,731,749,770,790,809,830,850,871,891,910,930,950,970,990,1010,1030,1052,1071,1090,1110,1131,1150,1170,1189,1211,1230,1251,1270,1290,1310,1330,1350,1370,1390,1410,1430,1450,1470,1491,1510],"xSR":741.5,"ySR":469.95,"xT1":424.9,"yT1":0,"xT2":1058.1,"yT2":0,"toosoon":0,"cond_shown":"Incongruent","ratio_trial":300,"L_num":13,"L_den":26,"R_num":12,"R_den":15,"correct_side":2,"subjID":"MiguelAcevedo17","gender":"0","school":"MiguelAcevedo11","age":"11"},{"start_time":1551899820582,"click_time":1551899828508,"finger_time":1551899825908,"fix_duration":250,"trial":30,"RT":5326,"MT":2600,"sideResp":2,"stimulus":[],"xmouse":[770,770,770,770,770,770,770,770,770,770,770,770,770,770,770,770,770,770,770,770,770,770,770,770,770,770,770,770,770,770,770,770,770,770,770,770,770,770,770,770,770,770,770,770,770,770,770,770,770,770,770,770,770,770,770,770,770,770,770,770,770,770,770,770,770,770,770,770,770,770,770,770,770,770,770,770,770,770,770,770,770,770,770,770,770,770,770,770,770,770,770,770,770,770,770,770,770,770,770,770,770,770,770,770,770,770,770,770,770,770,770,770,770,770,770,770,770,770,770,770,770,770,770,770,770,770,770,770,770,770,770,770,770,770,770,770,770,770,770,770,770,770,770,770,770,770,770,770,770,770,770,770,770,770,770,770,770,770,770,770,770,770,770,770,770,770,770,770,770,770,770,770,770,770,770,770,770,770,770,770,770,770,770,770,770,770,770,770,770,770,770,770,770,770,770,770,770,770,770,770,770,770,770,770,770,770,770,770,770,770,770,770,770,770,770,770,770,770,770,770,770,770,770,770,770,770,770,770,770,770,770,770,770,770,770,770,770,770,770,770,770,770,770,770,770,770,770,770,770,770,770,770,770,770,770,770,770,770,770,770,770,770,770,770,770,771,782,785,785,785,785,785,785,785,785,785,785,785,785,785,783,775,761,741,703,659,641,622,605,592,582,581,580,578,575,575,575,575,575,571,565,555,538,514,499,492,492,492,494,504,538,553,562,565,567,574,574,570,568,568,579,601,629,652,659,638,638,645,659,665,650,615,570,528,498,497,513,544,571,579,579,579,579,580,580,580,580,581,586,596,623,634,647,657,678,711,724,731,737,744,761,766,768,769,774,781,781,781,781,786,817,832,848,860,867,868,870,875,885,901,917,922,931,935,942,956,961,964,965,968,974,987,1002,1016,1030,1048,1059],"ymouse":[489,489,489,489,489,489,489,489,489,489,489,489,489,489,489,489,489,489,489,489,489,489,489,489,489,489,489,489,489,489,489,489,489,489,489,489,489,489,489,489,489,489,489,489,489,489,489,489,489,489,489,489,489,489,489,489,489,489,489,489,489,489,489,489,489,489,489,489,489,489,489,489,489,489,489,489,489,489,489,489,489,489,489,489,489,489,489,489,489,489,489,489,489,489,489,489,489,489,489,489,489,489,489,489,489,489,489,489,489,489,489,489,489,489,489,489,489,489,489,489,489,489,489,489,489,489,489,489,489,489,489,489,489,489,489,489,489,489,489,489,489,489,489,489,489,489,489,489,489,489,489,489,489,489,489,489,489,489,489,489,489,489,489,489,489,489,489,489,489,489,489,489,489,489,489,489,489,489,489,489,489,489,489,489,489,489,489,489,489,489,489,489,489,489,489,489,489,489,489,489,489,489,489,489,489,489,489,489,489,489,489,489,489,489,489,489,489,489,489,489,489,489,489,489,489,489,489,489,489,489,489,489,489,489,489,489,489,489,489,489,489,489,489,489,489,489,489,489,489,489,489,489,489,489,489,489,489,489,489,489,489,489,489,489,489,484,467,456,454,454,453,453,453,453,453,453,453,453,453,453,449,441,433,424,411,398,393,388,382,379,375,374,373,371,370,370,370,370,370,367,364,357,349,341,339,338,338,338,339,346,363,371,377,379,382,386,387,387,388,389,389,386,383,378,370,343,342,341,341,337,328,311,293,270,254,245,245,242,242,242,242,242,242,243,243,243,243,246,250,253,260,264,268,272,277,277,277,277,276,276,276,276,276,276,268,253,252,253,256,262,272,275,274,267,265,265,269,275,281,285,288,288,288,286,283,274,268,263,257,248,191,157,137,124,116,104,99],"timestamp_mouse":[13,34,47,67,86,106,127,147,166,185,206,227,247,266,287,305,326,347,366,387,405,426,447,466,486,506,525,547,567,586,606,626,646,667,686,707,725,747,766,786,806,826,846,866,886,906,927,946,966,986,1006,1025,1045,1066,1085,1106,1126,1146,1167,1185,1206,1226,1247,1266,1285,1306,1327,1346,1367,1386,1405,1427,1446,1466,1487,1506,1526,1547,1567,1587,1606,1627,1647,1665,1686,1707,1727,1747,1767,1785,1807,1825,1846,1867,1886,1906,1925,1946,1967,1986,2005,2026,2046,2066,2086,2107,2125,2147,2167,2186,2206,2225,2245,2266,2286,2307,2326,2347,2367,2386,2406,2427,2447,2466,2486,2507,2526,2545,2567,2586,2607,2626,2647,2667,2687,2707,2727,2747,2765,2786,2807,2826,2847,2866,2886,2906,2927,2945,2967,2986,3006,3026,3047,3067,3086,3107,3126,3147,3167,3186,3207,3227,3246,3267,3287,3307,3326,3346,3365,3386,3407,3426,3445,3467,3487,3507,3527,3547,3567,3587,3606,3626,3647,3665,3687,3707,3726,3747,3766,3786,3806,3825,3846,3866,3886,3907,3927,3947,3966,3986,4006,4027,4047,4066,4086,4105,4126,4147,4167,4187,4206,4225,4246,4267,4286,4307,4326,4347,4367,4387,4407,4426,4446,4466,4487,4507,4527,4547,4567,4586,4606,4627,4647,4666,4686,4707,4726,4745,4767,4786,4807,4825,4846,4867,4886,4907,4927,4946,4967,4987,5007,5026,5047,5067,5086,5105,5127,5147,5167,5186,5207,5225,5247,5267,5286,5306,5326,5346,5367,5386,5406,5425,5446,5466,5487,5506,5525,5545,5566,5587,5606,5626,5647,5667,5687,5706,5727,5745,5766,5786,5806,5825,5846,5867,5887,5906,5927,5946,5966,5988,6006,6027,6046,6066,6085,6106,6126,6147,6166,6187,6206,6226,6246,6265,6287,6306,6326,6346,6366,6386,6405,6426,6447,6465,6486,6505,6526,6546,6566,6588,6605,6627,6647,6667,6687,6706,6726,6747,6767,6787,6806,6827,6846,6866,6885,6906,6926,6946,6966,6987,7006,7026,7046,7066,7085,7106,7126,7147,7167,7186,7206,7226,7246,7265,7285,7306,7327,7347,7366,7386,7406,7425,7447,7466,7486,7507,7526,7545,7567,7587,7606,7626,7645,7666,7686,7706,7725,7747,7767,7786,7806,7826,7845,7866,7887,7906,7926],"xSR":741.5,"ySR":469.95,"xT1":424.9,"yT1":0,"xT2":1058.1,"yT2":0,"toosoon":0,"cond_shown":"Incongruent","ratio_trial":300,"L_num":4,"L_den":20,"R_num":2,"R_den":4,"correct_side":2,"subjID":"MiguelAcevedo17","gender":"0","school":"MiguelAcevedo11","age":"11"},{"start_time":1551899832129,"click_time":1551899868348,"finger_time":1551899832169,"fix_duration":439.9233380282784,"trial":31,"RT":40,"MT":36179,"sideResp":2,"stimulus":[],"xmouse":[804,803,803,803,803,803,803,803,803,803,803,803,803,803,803,803,803,803,803,803,803,803,803,803,803,803,803,803,803,802,802,802,802,802,802,802,802,802,802,802,802,802,802,802,802,802,802,802,798,795,793,793,793,793,793,793,793,793,793,793,793,793,793,793,793,793,793,793,793,793,793,793,793,793,793,793,793,793,793,792,792,792,792,792,792,792,792,791,791,791,790,790,789,789,788,788,788,788,788,788,788,788,787,787,787,787,787,787,787,787,787,787,787,787,787,786,786,786,786,786,786,786,786,786,786,786,785,784,781,773,769,766,763,761,758,756,756,755,755,754,754,754,754,754,754,754,754,754,754,754,754,754,759,763,766,767,768,768,768,768,769,771,774,776,781,781,781,776,680,593,520,493,488,514,687,803,882,904,905,903,898,893,880,876,865,864,864,864,863,928,993,1003,1003,1003,1003,1003,1003,1003,1003,1003,1004,1004,1004,1004,1004,1004,1003,1001,1000,997,996,995,995,995,995,995,995,995,995,995,995,995,994,991,958,932,895,867,847,831,828,827,827,827,827,827,826,822,819,800,789,777,767,756,748,747,747,747,747,750,750,750,751,753,763,769,776,784,793,805,806,806,806,807,811,812,812,813,813,809,806,805,805,805,805,805,806,807,808,811,813,814,819,822,829,833,837,838,841,848,859,870,876,878,881,881,881,881,884,905,942,1015,1139,1205,1254,1261,1261,1261,1261,1263,1265,1265,1265,1265,1265,1265,1265,1265,1263,1245,1232,1220,1206,1201,1194,1192,1190,1187,1183,1164,1149,1138,1103,1088,1077,1070,1064,1060,1057,1054,1054,1054,1054,1054,1054,1054,1054,1054,1052,1018,1017,1015,1015,1015,1015,1015,1015,1015,1015,1015,1015,1015,1015,1015,1015,1015,1015,1015,1015,1015,1015,1015,1015,1015,1015,1015,1015,1015,1015,1015,1015,1015,1016,1016,1016,1016,1017,1017,1018,1018,1019,1019,1019,1019,1019,1019,1020,1020,1020,1021,1022,1023,1023,1024,1025,1025,1026,1026,1027,1028,1029,1033,1034,1035,1035,1035,1035,1035,1035,1035,1035,1035,1035,1035,1035,1035,1036,1036,1037,1039,1040,1040,1040,1040,1041,1041,1041,1041,1041,1041,1043,1043,1043,1044,1045,1046,1046,1046,1046,1046,1047,1047,1047,1047,1047,1047,1047,1047,1048,1048,1048,1048,1048,1048,1048,1048,1048,1048,1048,1048,1048,1048,1048,1048,1048,1048,1048,1048,1048,1048,1048,1048,1048,1048,1048,1048,1048,1048,1048,1048,1048,1048,1048,1048,1048,1048,1048,1048,1048,1048,1048,1048,1048,1048,1048,1048,1048,1048,1048,1048,1048,1048,1048,1048,1048,1048,1048,1048,1048,1048,1048,1048,1048,1048,1048,1048,1048,1048,1048,1048,1048,1048,1048,1048,1048,1048,1048,1048,1048,1048,1048,1048,1048,1048,1048,1048,1048,1048,1048,1048,1048,1048,1048,1048,1048,1048,1048,1048,1048,1048,1048,1048,1048,1048,1048,1048,1048,1048,1048,1048,1048,1048,1048,1048,1050,1051,1051,1051,1052,1053,1053,1053,1053,1053,1053,1053,1053,1053,1053,1053,1053,1053,1053,1053,1053,1053,1053,1053,1054,1056,1056,1056,1056,1056,1056,1056,1057,1057,1057,1057,1057,1057,1057,1057,1057,1057,1057,1057,1057,1057,1057,1057,1057,1057,1057,1057,1057,1057,1057,1057,1057,1057,1057,1057,1057,1057,1057,1057,1057,1057,1057,1057,1057,1057,1057,1057,1057,1057,1057,1057,1057,1057,1057,1057,1057,1057,1057,1057,1057,1057,1057,1057,1057,1057,1057,1057,1057,1057,1057,1057,1057,1057,1057,1057,1057,1057,1057,1057,1057,1057,1057,1057,1057,1057,1057,1057,1057,1057,1057,1057,1057,1057,1057,1057,1057,1057,1057,1057,1057,1057,1057,1057,1057,1057,1057,1057,1057,1057,1057,1057,1057,1057,1057,1057,1057,1057,1057,1057,1057,1057,1057,1057,1057,1057,1057,1057,1057,1057,1057,1057,1057,1057,1057,1057,1057,1057,1057,1057,1057,1057,1057,1057,1057,1057,1057,1057,1057,1057,1057,1057,1057,1057,1057,1057,1057,1057,1057,1057,1057,1057,1057,1057,1057,1057,1057,1057,1057,1057,1057,1057,1057,1057,1057,1057,1057,1057,1057,1057,1057,1057,1057,1057,1057,1057,1057,1057,1057,1057,1057,1057,1057,1057,1057,1057,1057,1057,1057,1057,1057,1057,1057,1057,1057,1057,1057,1057,1057,1057,1057,1057,1057,1057,1057,1057,1057,1057,1057,1057,1057,1057,1057,1057,1057,1057,1057,1057,1057,1057,1057,1057,1057,1057,1057,1057,1057,1057,1057,1057,1057,1057,1057,1057,1057,1057,1057,1057,1057,1057,1057,1057,1057,1057,1057,1057,1057,1057,1057,1057,1057,1057,1057,1057,1057,1057,1057,1057,1057,1057,1057,1057,1057,1057,1057,1057,1057,1057,1057,1057,1057,1057,1057,1057,1057,1057,1057,1057,1057,1057,1057,1057,1057,1057,1057,1057,1057,1057,1057,1057,1057,1057,1057,1057,1057,1057,1057,1057,1057,1057,1057,1057,1057,1057,1057,1057,1057,1057,1057,1057,1057,1057,1057,1057,1057,1057,1057,1057,1057,1057,1057,1057,1057,1057,1057,1057,1057,1057,1057,1057,1057,1057,1057,1057,1057,1057,1057,1057,1057,1057,1057,1043,996,978,978,978,978,978,978,978,978,978,978,978,978,978,978,978,978,978,978,978,978,978,978,978,978,978,978,978,980,1006,1012,1012,1013,1015,1015,1016,1017,1019,1019,1019,1019,1020,1021,1021,1021,1021,1022,1023,1023,1023,1023,1023,1024,1024,1025,1026,1035,1036,1036,1036,1036,1036,1036,1037,1037,1037,1039,1039,1040,1040,1041,1042,1043,1044,1045,1045,1045,1045,1046,1046,1047,1047,1047,1047,1047,1047,1047,1047,1047,1047,1048,1049,1049,1049,1049,1049,1049,1049,1049,1049,1049,1049,1049,1049,1049,1049,1049,1049,1049,1049,1049,1049,1049,1049,1049,1050,1050,1050,1050,1050,1050,1050,1050,1050,1050,1050,1050,1050,1050,1050,1050,1050,1050,1050,1050,1050,1051,1051,1051,1051,1051,1051,1051,1051,1051,1051,1051,1051,1051,1051,1051,1051,1051,1051,1051,1051,1051,1051,1051,1051,1051,1051,1051,1051,1051,1051,1051,1051,1051,1051,1051,1051,1051,1052,1052,1052,1052,1052,1052,1052,1052,1052,1052,1052,1052,1052,1052,1052,1052,1052,1052,1052,1052,1052,1052,1052,1052,1052,1052,1052,1052,1052,1052,1052,1