[{"start_time":1551899764859,"click_time":1551899771483,"finger_time":1551899764862,"fix_duration":775.726856034171,"trial":0,"RT":3,"MT":6621,"sideResp":1,"stimulus":[],"xmouse":[766,766,766,766,766,766,766,766,766,766,766,766,766,766,766,766,766,766,766,766,766,766,766,766,766,766,766,766,766,766,766,766,766,766,766,766,766,766,766,766,766,766,766,766,766,766,766,766,766,766,766,766,766,766,766,766,766,767,767,767,767,767,767,767,767,767,767,767,767,767,767,767,767,767,767,767,767,767,767,767,767,767,767,767,767,767,767,767,767,767,767,767,767,767,767,767,767,767,767,767,767,767,767,767,767,767,767,767,767,767,767,767,767,767,767,767,767,767,767,767,767,767,767,767,767,767,767,767,767,767,767,767,767,767,767,767,767,767,767,767,767,767,767,767,767,767,767,767,767,767,781,793,809,823,833,843,844,844,844,844,853,862,875,887,897,907,907,907,907,907,907,907,907,907,907,907,907,907,907,907,907,907,906,905,902,899,898,896,895,893,885,878,872,867,860,844,838,834,832,832,830,829,829,828,827,825,825,824,824,824,824,824,824,824,824,824,824,824,823,822,819,813,810,808,808,808,808,808,808,808,808,808,808,808,808,808,808,808,808,808,808,808,808,811,816,836,842,846,849,850,851,851,851,851,851,851,851,851,851,851,851,851,851,851,851,851,851,851,849,849,849,849,849,849,849,849,849,849,848,835,792,755,716,664,612,544,365,241,182,149,136,136,136,136,136,136,138,142,144,144,145,145,145,145,150,170,176,183,186,186,186,186,186,186,187,192,225,244,312,350,380,403,404,404,404,404,404,404,406,411,419,430],"ymouse":[492,492,492,492,492,492,492,492,492,492,492,492,492,492,492,492,492,492,492,492,492,492,492,492,492,492,492,492,492,492,492,492,492,492,492,492,492,492,492,492,492,492,492,492,492,492,492,492,492,492,492,492,492,492,492,492,492,493,493,493,493,493,493,493,493,493,493,493,493,493,493,493,493,493,493,493,493,493,493,493,493,493,493,493,493,493,493,493,493,493,493,493,493,493,493,493,493,493,493,493,493,493,493,493,493,493,493,493,493,493,493,493,493,493,493,493,493,493,493,493,493,493,493,493,493,493,493,493,493,493,493,493,493,493,493,493,493,493,493,493,493,493,493,493,493,493,493,493,493,493,484,475,465,457,449,441,440,440,440,440,430,422,409,395,382,370,370,370,370,370,370,370,370,370,370,370,370,370,370,370,370,370,372,374,378,384,385,388,390,395,409,421,432,444,456,480,490,493,495,496,498,500,500,501,503,507,509,510,511,511,511,511,511,511,511,511,511,511,512,514,518,530,537,541,541,541,541,541,541,541,541,541,541,541,541,541,541,541,541,541,541,541,541,539,535,517,511,503,498,495,495,495,495,495,495,495,495,495,495,495,495,495,495,495,495,495,495,495,495,495,495,495,495,495,495,495,495,495,495,488,433,372,298,204,106,0,0,0,0,0,0,0,0,0,0,4,12,22,26,28,29,29,29,30,32,42,45,46,47,47,47,47,47,47,47,47,49,52,62,67,72,75,75,75,75,75,75,75,75,74,72,65],"timestamp_mouse":[3,23,43,64,83,103,123,143,163,183,203,223,243,264,283,303,323,343,363,384,403,423,444,463,483,504,524,543,563,583,604,623,643,663,684,703,723,743,763,783,803,824,844,862,883,904,923,943,963,984,1003,1024,1042,1062,1083,1104,1124,1142,1163,1184,1204,1222,1244,1263,1284,1304,1323,1344,1363,1384,1404,1424,1444,1462,1483,1504,1523,1543,1564,1583,1604,1624,1642,1662,1683,1704,1723,1743,1763,1783,1804,1823,1843,1863,1883,1904,1923,1944,1964,1983,2002,2023,2043,2063,2083,2103,2124,2143,2163,2183,2204,2223,2243,2263,2283,2303,2324,2344,2363,2383,2404,2423,2443,2463,2483,2503,2524,2543,2563,2583,2604,2623,2643,2664,2684,2702,2724,2743,2764,2784,2803,2824,2842,2863,2883,2903,2923,2943,2964,2983,3003,3024,3043,3063,3084,3103,3123,3144,3163,3184,3203,3224,3243,3263,3283,3303,3323,3343,3364,3383,3403,3424,3443,3463,3483,3504,3523,3543,3563,3583,3603,3623,3643,3663,3683,3703,3723,3742,3763,3784,3803,3824,3843,3864,3884,3902,3924,3943,3963,3983,4003,4024,4044,4063,4083,4103,4123,4144,4163,4184,4203,4223,4244,4263,4283,4303,4323,4343,4363,4383,4403,4423,4444,4463,4483,4503,4523,4543,4562,4584,4604,4623,4643,4663,4683,4704,4723,4743,4762,4783,4804,4823,4843,4864,4882,4904,4923,4943,4964,4984,5003,5024,5044,5063,5083,5103,5123,5143,5164,5183,5203,5223,5244,5263,5283,5304,5324,5344,5364,5383,5403,5423,5443,5464,5484,5502,5523,5543,5563,5583,5603,5624,5643,5663,5683,5703,5723,5744,5763,5782,5804,5824,5843,5863,5883,5904,5923,5943,5964,5983,6003,6023,6043,6063,6083,6104,6124,6142,6164,6184,6203,6223,6244,6263,6283,6304,6323,6343,6364,6383,6403,6423,6443,6464,6484,6504,6523,6543,6563,6584,6603,6624],"xSR":741.5,"ySR":449.15000000000003,"xT1":424.9,"yT1":0,"xT2":1058.1,"yT2":0,"toosoon":0,"cond_shown":"Incongruent","ratio_trial":300,"L_num":4,"L_den":5,"R_num":6,"R_den":12,"correct_side":1,"subjID":"MIGUELANGELMENDOZACORDOBA29","gender":"0","age":"10","school":"6","test":{"fix_dur":[250,1500],"timestim":1000,"targets_dim":[100,100],"targets_relative_coord":[0.3,0.7],"size_stim":[880,420],"start_dim":[100,100],"size_start":[300,300],"size_fix":60,"samplingrate":20,"img_types":["Congruent","Incongruent"],"ratios":[100,200,300],"rep_conds":19,"nTrials":120,"trials_to_rest":500,"Trials_order":[77,69,92,79,67,4,43,34,57,41,108,75,64,83,117,59,60,98,21,24,95,14,102,61,80,8,33,66,51,3,29,36,76,119,70,48,65,9,55,18,6,84,38,25,96,37,31,88,72,73,94,104,13,32,97,68,16,11,47,7,19,22,26,23,86,78,56,10,46,90,45,17,111,1,58,100,39,15,44,49,81,30,107,103,82,110,118,105,85,91,87,20,28,2,63,101,99,115,0,12,71,54,62,109,50,27,113,116,112,74,42,93,5,40,114,89,106,53,52,35],"cond_shown":["Incongruent","Incongruent","Congruent","Incongruent","Incongruent","Congruent","Incongruent","Congruent","Incongruent","Incongruent","Congruent","Incongruent","Congruent","Incongruent","Incongruent","Incongruent","Congruent","Congruent","Incongruent","Congruent","Incongruent","Congruent","Congruent","Incongruent","Congruent","Congruent","Incongruent","Congruent","Incongruent","Incongruent","Incongruent","Congruent","Congruent","Incongruent","Congruent","Congruent","Incongruent","Incongruent","Incongruent","Congruent","Congruent","Congruent","Congruent","Incongruent","Congruent","Incongruent","Incongruent","Congruent","Congruent","Incongruent","Congruent","Congruent","Incongruent","Congruent","Incongruent","Congruent","Congruent","Incongruent","Incongruent","Incongruent","Incongruent","Congruent","Congruent","Incongruent","Congruent","Congruent","Congruent","Congruent","Congruent","Congruent","Incongruent","Incongruent","Incongruent","Incongruent","Congruent","Congruent","Incongruent","Incongruent","Congruent","Incongruent","Incongruent","Congruent","Incongruent","Incongruent","Congruent","Congruent","Congruent","Incongruent","Incongruent","Incongruent","Incongruent","Congruent","Congruent","Congruent","Incongruent","Incongruent","Incongruent","Incongruent","Congruent","Congruent","Incongruent","Congruent","Congruent","Incongruent","Congruent","Incongruent","Incongruent","Congruent","Congruent","Congruent","Congruent","Incongruent","Incongruent","Congruent","Congruent","Incongruent","Congruent","Incongruent","Congruent","Incongruent"],"ratio_trial":[300,200,200,100,100,300,100,300,200,300,100,200,300,300,200,300,100,200,200,100,300,200,100,100,200,200,200,100,200,200,300,100,300,300,300,100,300,200,100,100,100,100,200,100,100,100,100,300,100,100,300,200,100,200,100,200,300,300,300,100,100,300,200,300,200,100,200,300,300,100,200,300,200,100,300,300,200,200,200,100,200,100,300,100,300,200,300,200,100,100,200,200,300,200,200,300,200,100,100,100,300,100,200,100,200,200,300,200,300,200,100,200,300,300,100,300,300,300,300,300],"left_num":[4,1,16,13,3,20,10,20,1,4,3,7,1,4,1,13,6,20,14,4,13,4,11,3,3,3,4,3,3,7,4,3,1,8,4,4,13,1,3,3,15,8,14,6,2,12,6,1,8,3,20,20,11,13,13,20,9,13,4,10,2,7,4,13,3,7,3,3,2,15,7,13,11,6,3,1,7,6,20,10,3,12,4,13,1,16,24,1,3,13,6,6,2,15,3,4,4,3,11,11,1,15,6,6,6,1,4,3,1,21,2,3,2,11,15,4,12,4,8,8],"right_num":[6,2,12,12,8,13,9,14,3,2,2,14,6,2,3,12,5,9,6,15,12,3,4,8,14,7,1,4,11,8,2,4,3,14,2,15,12,2,8,2,13,2,6,3,6,9,13,11,2,8,14,9,9,14,12,9,3,12,8,8,8,20,3,12,11,15,9,11,12,13,4,12,3,11,4,3,8,3,9,9,11,13,2,12,6,12,2,2,4,6,3,3,12,4,11,2,1,11,6,4,3,13,3,11,7,3,8,11,8,2,6,11,6,2,13,2,2,2,1,9],"left_den":[5,3,20,26,5,25,25,25,2,20,6,10,5,20,2,26,20,25,30,10,26,10,22,5,6,10,30,20,4,10,20,20,5,10,5,10,26,3,5,6,25,16,28,12,5,24,10,5,16,5,25,25,22,26,26,25,10,26,5,25,4,14,8,26,10,14,12,12,10,25,15,26,20,10,6,5,10,20,25,25,4,30,20,26,5,20,30,3,6,26,20,15,10,25,4,20,30,5,22,22,2,25,15,10,12,2,5,10,30,30,5,4,4,22,25,20,24,20,16,10],"right_den":[12,15,20,20,16,26,18,28,10,4,5,28,12,4,10,15,25,15,9,30,15,15,10,16,20,14,3,16,20,16,4,16,6,28,4,30,15,15,16,5,26,5,20,5,12,15,26,22,5,16,28,15,15,20,20,15,5,15,16,16,20,25,10,15,22,25,20,20,24,26,6,15,4,22,5,6,16,6,15,18,20,26,4,20,12,20,4,15,10,10,6,15,24,10,20,4,3,22,15,10,15,26,15,22,10,10,16,22,24,4,12,20,30,10,26,4,10,4,5,18],"correct_side":[1,1,1,2,1,1,2,1,1,2,1,1,2,2,1,2,1,1,2,2,2,1,1,1,2,2,2,2,1,1,2,2,2,1,1,2,2,1,1,1,1,1,1,2,2,2,1,2,1,1,1,1,2,2,2,1,1,2,1,2,1,2,1,2,2,2,2,2,2,1,2,2,2,1,2,2,1,2,1,2,1,2,2,2,2,1,1,1,1,2,2,1,2,1,1,2,2,1,1,1,1,1,1,1,2,1,1,2,2,1,2,1,1,1,1,2,1,2,1,1],"img_shown":["img2/300/Incongruent/L/I_Dist_300_LN_4_LD_5_RN_6_RD_12_0.png","img2/200/Incongruent/L/I_Dist_200_LN_1_LD_3_RN_2_RD_15_0.png","img2/200/Congruent/L/C_Dist_200_LN_16_LD_20_RN_12_RD_20_0.png","img2/100/Incongruent/R/I_Dist_100_LN_13_LD_26_RN_12_RD_20_1.png","img2/100/Incongruent/L/I_Dist_100_LN_3_LD_5_RN_8_RD_16_0.png","img2/300/Congruent/L/C_Dist_300_LN_20_LD_25_RN_13_RD_26_0.png","img2/100/Incongruent/R/I_Dist_100_LN_10_LD_25_RN_9_RD_18_1.png","img2/300/Congruent/L/C_Dist_300_LN_20_LD_25_RN_14_RD_28_0.png","img2/200/Incongruent/L/I_Dist_200_LN_1_LD_2_RN_3_RD_10_0.png","img2/300/Incongruent/R/I_Dist_300_LN_4_LD_20_RN_2_RD_4_1.png","img2/100/Congruent/L/C_Dist_100_LN_3_LD_6_RN_2_RD_5_0.png","img2/200/Incongruent/L/I_Dist_200_LN_7_LD_10_RN_14_RD_28_0.png","img2/300/Congruent/R/C_Dist_300_LN_1_LD_5_RN_6_RD_12_1.png","img2/300/Incongruent/R/I_Dist_300_LN_4_LD_20_RN_2_RD_4_1.png","img2/200/Incongruent/L/I_Dist_200_LN_1_LD_2_RN_3_RD_10_0.png","img2/300/Incongruent/R/I_Dist_300_LN_13_LD_26_RN_12_RD_15_1.png","img2/100/Congruent/L/C_Dist_100_LN_6_LD_20_RN_5_RD_25_0.png","img2/200/Congruent/L/C_Dist_200_LN_20_LD_25_RN_9_RD_15_0.png","img2/200/Incongruent/R/I_Dist_200_LN_14_LD_30_RN_6_RD_9_1.png","img2/100/Congruent/R/C_Dist_100_LN_4_LD_10_RN_15_RD_30_1.png","img2/300/Incongruent/R/I_Dist_300_LN_13_LD_26_RN_12_RD_15_1.png","img2/200/Congruent/L/C_Dist_200_LN_4_LD_10_RN_3_RD_15_0.png","img2/100/Congruent/L/C_Dist_100_LN_11_LD_22_RN_4_RD_10_0.png","img2/100/Incongruent/L/I_Dist_100_LN_3_LD_5_RN_8_RD_16_0.png","img2/200/Congruent/R/C_Dist_200_LN_3_LD_6_RN_14_RD_20_1.png","img2/200/Congruent/R/C_Dist_200_LN_3_LD_10_RN_7_RD_14_1.png","img2/200/Incongruent/R/I_Dist_200_LN_4_LD_30_RN_1_RD_3_1.png","img2/100/Congruent/R/C_Dist_100_LN_3_LD_20_RN_4_RD_16_1.png","img2/200/Incongruent/L/I_Dist_200_LN_3_LD_4_RN_11_RD_20_0.png","img2/200/Incongruent/L/I_Dist_200_LN_7_LD_10_RN_8_RD_16_0.png","img2/300/Incongruent/R/I_Dist_300_LN_4_LD_20_RN_2_RD_4_1.png","img2/100/Congruent/R/C_Dist_100_LN_3_LD_20_RN_4_RD_16_1.png","img2/300/Congruent/R/C_Dist_300_LN_1_LD_5_RN_3_RD_6_1.png","img2/300/Incongruent/L/I_Dist_300_LN_8_LD_10_RN_14_RD_28_0.png","img2/300/Congruent/L/C_Dist_300_LN_4_LD_5_RN_2_RD_4_0.png","img2/100/Congruent/R/C_Dist_100_LN_4_LD_10_RN_15_RD_30_1.png","img2/300/Incongruent/R/I_Dist_300_LN_13_LD_26_RN_12_RD_15_1.png","img2/200/Incongruent/L/I_Dist_200_LN_1_LD_3_RN_2_RD_15_0.png","img2/100/Incongruent/L/I_Dist_100_LN_3_LD_5_RN_8_RD_16_0.png","img2/100/Congruent/L/C_Dist_100_LN_3_LD_6_RN_2_RD_5_0.png","img2/100/Congruent/L/C_Dist_100_LN_15_LD_25_RN_13_RD_26_0.png","img2/100/Congruent/L/C_Dist_100_LN_8_LD_16_RN_2_RD_5_0.png","img2/200/Congruent/L/C_Dist_200_LN_14_LD_28_RN_6_RD_20_0.png","img2/100/Incongruent/R/I_Dist_100_LN_6_LD_12_RN_3_RD_5_1.png","img2/100/Congruent/R/C_Dist_100_LN_2_LD_5_RN_6_RD_12_1.png","img2/100/Incongruent/R/I_Dist_100_LN_12_LD_24_RN_9_RD_15_1.png","img2/100/Incongruent/L/I_Dist_100_LN_6_LD_10_RN_13_RD_26_0.png","img2/300/Congruent/R/C_Dist_300_LN_1_LD_5_RN_11_RD_22_1.png","img2/100/Congruent/L/C_Dist_100_LN_8_LD_16_RN_2_RD_5_0.png","img2/100/Incongruent/L/I_Dist_100_LN_3_LD_5_RN_8_RD_16_0.png","img2/300/Congruent/L/C_Dist_300_LN_20_LD_25_RN_14_RD_28_0.png","img2/200/Congruent/L/C_Dist_200_LN_20_LD_25_RN_9_RD_15_0.png","img2/100/Incongruent/R/I_Dist_100_LN_11_LD_22_RN_9_RD_15_1.png","img2/200/Congruent/R/C_Dist_200_LN_13_LD_26_RN_14_RD_20_1.png","img2/100/Incongruent/R/I_Dist_100_LN_13_LD_26_RN_12_RD_20_1.png","img2/200/Congruent/L/C_Dist_200_LN_20_LD_25_RN_9_RD_15_0.png","img2/300/Congruent/L/C_Dist_300_LN_9_LD_10_RN_3_RD_5_0.png","img2/300/Incongruent/R/I_Dist_300_LN_13_LD_26_RN_12_RD_15_1.png","img2/300/Incongruent/L/I_Dist_300_LN_4_LD_5_RN_8_RD_16_0.png","img2/100/Incongruent/R/I_Dist_100_LN_10_LD_25_RN_8_RD_16_1.png","img2/100/Incongruent/L/I_Dist_100_LN_2_LD_4_RN_8_RD_20_0.png","img2/300/Congruent/R/C_Dist_300_LN_7_LD_14_RN_20_RD_25_1.png","img2/200/Congruent/L/C_Dist_200_LN_4_LD_8_RN_3_RD_10_0.png","img2/300/Incongruent/R/I_Dist_300_LN_13_LD_26_RN_12_RD_15_1.png","img2/200/Congruent/R/C_Dist_200_LN_3_LD_10_RN_11_RD_22_1.png","img2/100/Congruent/R/C_Dist_100_LN_7_LD_14_RN_15_RD_25_1.png","img2/200/Congruent/R/C_Dist_200_LN_3_LD_12_RN_9_RD_20_1.png","img2/300/Congruent/R/C_Dist_300_LN_3_LD_12_RN_11_RD_20_1.png","img2/300/Congruent/R/C_Dist_300_LN_2_LD_10_RN_12_RD_24_1.png","img2/100/Congruent/L/C_Dist_100_LN_15_LD_25_RN_13_RD_26_0.png","img2/200/Incongruent/R/I_Dist_200_LN_7_LD_15_RN_4_RD_6_1.png","img2/300/Incongruent/R/I_Dist_300_LN_13_LD_26_RN_12_RD_15_1.png","img2/200/Incongruent/R/I_Dist_200_LN_11_LD_20_RN_3_RD_4_1.png","img2/100/Incongruent/L/I_Dist_100_LN_6_LD_10_RN_11_RD_22_0.png","img2/300/Congruent/R/C_Dist_300_LN_3_LD_6_RN_4_RD_5_1.png","img2/300/Congruent/R/C_Dist_300_LN_1_LD_5_RN_3_RD_6_1.png","img2/200/Incongruent/L/I_Dist_200_LN_7_LD_10_RN_8_RD_16_0.png","img2/200/Incongruent/R/I_Dist_200_LN_6_LD_20_RN_3_RD_6_1.png","img2/200/Congruent/L/C_Dist_200_LN_20_LD_25_RN_9_RD_15_0.png","img2/100/Incongruent/R/I_Dist_100_LN_10_LD_25_RN_9_RD_18_1.png","img2/200/Incongruent/L/I_Dist_200_LN_3_LD_4_RN_11_RD_20_0.png","img2/100/Congruent/R/C_Dist_100_LN_12_LD_30_RN_13_RD_26_1.png","img2/300/Incongruent/R/I_Dist_300_LN_4_LD_20_RN_2_RD_4_1.png","img2/100/Incongruent/R/I_Dist_100_LN_13_LD_26_RN_12_RD_20_1.png","img2/300/Congruent/R/C_Dist_300_LN_1_LD_5_RN_6_RD_12_1.png","img2/200/Congruent/L/C_Dist_200_LN_16_LD_20_RN_12_RD_20_0.png","img2/300/Congruent/L/C_Dist_300_LN_24_LD_30_RN_2_RD_4_0.png","img2/200/Incongruent/L/I_Dist_200_LN_1_LD_3_RN_2_RD_15_0.png","img2/100/Incongruent/L/I_Dist_100_LN_3_LD_6_RN_4_RD_10_0.png","img2/100/Incongruent/R/I_Dist_100_LN_13_LD_26_RN_6_RD_10_1.png","img2/200/Incongruent/R/I_Dist_200_LN_6_LD_20_RN_3_RD_6_1.png","img2/200/Congruent/L/C_Dist_200_LN_6_LD_15_RN_3_RD_15_0.png","img2/300/Congruent/R/C_Dist_300_LN_2_LD_10_RN_12_RD_24_1.png","img2/200/Congruent/L/C_Dist_200_LN_15_LD_25_RN_4_RD_10_0.png","img2/200/Incongruent/L/I_Dist_200_LN_3_LD_4_RN_11_RD_20_0.png","img2/300/Incongruent/R/I_Dist_300_LN_4_LD_20_RN_2_RD_4_1.png","img2/200/Incongruent/R/I_Dist_200_LN_4_LD_30_RN_1_RD_3_1.png","img2/100/Incongruent/L/I_Dist_100_LN_3_LD_5_RN_11_RD_22_0.png","img2/100/Congruent/L/C_Dist_100_LN_11_LD_22_RN_6_RD_15_0.png","img2/100/Congruent/L/C_Dist_100_LN_11_LD_22_RN_4_RD_10_0.png","img2/300/Incongruent/L/I_Dist_300_LN_1_LD_2_RN_3_RD_15_0.png","img2/100/Congruent/L/C_Dist_100_LN_15_LD_25_RN_13_RD_26_0.png","img2/200/Congruent/L/C_Dist_200_LN_6_LD_15_RN_3_RD_15_0.png","img2/100/Incongruent/L/I_Dist_100_LN_6_LD_10_RN_11_RD_22_0.png","img2/200/Congruent/R/C_Dist_200_LN_6_LD_12_RN_7_RD_10_1.png","img2/200/Incongruent/L/I_Dist_200_LN_1_LD_2_RN_3_RD_10_0.png","img2/300/Incongruent/L/I_Dist_300_LN_4_LD_5_RN_8_RD_16_0.png","img2/200/Congruent/R/C_Dist_200_LN_3_LD_10_RN_11_RD_22_1.png","img2/300/Congruent/R/C_Dist_300_LN_1_LD_30_RN_8_RD_24_1.png","img2/200/Congruent/L/C_Dist_200_LN_21_LD_30_RN_2_RD_4_0.png","img2/100/Congruent/R/C_Dist_100_LN_2_LD_5_RN_6_RD_12_1.png","img2/200/Incongruent/L/I_Dist_200_LN_3_LD_4_RN_11_RD_20_0.png","img2/300/Incongruent/L/I_Dist_300_LN_2_LD_4_RN_6_RD_30_0.png","img2/300/Congruent/L/C_Dist_300_LN_11_LD_22_RN_2_RD_10_0.png","img2/100/Congruent/L/C_Dist_100_LN_15_LD_25_RN_13_RD_26_0.png","img2/300/Incongruent/R/I_Dist_300_LN_4_LD_20_RN_2_RD_4_1.png","img2/300/Congruent/L/C_Dist_300_LN_12_LD_24_RN_2_RD_10_0.png","img2/300/Incongruent/R/I_Dist_300_LN_4_LD_20_RN_2_RD_4_1.png","img2/300/Congruent/L/C_Dist_300_LN_8_LD_16_RN_1_RD_5_0.png","img2/300/Incongruent/L/I_Dist_300_LN_8_LD_10_RN_9_RD_18_0.png"],"dist100_C":[["C_Dist_100_LN_10_LD_25_RN_3_RD_10_0.png","C_Dist_100_LN_11_LD_22_RN_4_RD_10_0.png","C_Dist_100_LN_11_LD_22_RN_6_RD_15_0.png","C_Dist_100_LN_15_LD_25_RN_13_RD_26_0.png","C_Dist_100_LN_3_LD_6_RN_2_RD_5_0.png","C_Dist_100_LN_6_LD_20_RN_5_RD_25_0.png","C_Dist_100_LN_8_LD_16_RN_2_RD_5_0.png","C_Dist_100_LN_9_LD_15_RN_8_RD_16_0.png"],["C_Dist_100_LN_1_LD_2_RN_18_RD_30_1.png","C_Dist_100_LN_1_LD_2_RN_3_RD_5_1.png","C_Dist_100_LN_12_LD_30_RN_13_RD_26_1.png","C_Dist_100_LN_2_LD_5_RN_11_RD_22_1.png","C_Dist_100_LN_2_LD_5_RN_6_RD_12_1.png","C_Dist_100_LN_3_LD_20_RN_4_RD_16_1.png","C_Dist_100_LN_4_LD_10_RN_15_RD_30_1.png","C_Dist_100_LN_4_LD_8_RN_6_RD_10_1.png","C_Dist_100_LN_6_LD_12_RN_15_RD_25_1.png","C_Dist_100_LN_7_LD_14_RN_15_RD_25_1.png","C_Dist_100_LN_7_LD_14_RN_9_RD_15_1.png"]],"dist100_I":[["I_Dist_100_LN_1_LD_2_RN_8_RD_20_0.png","I_Dist_100_LN_2_LD_4_RN_6_RD_15_0.png","I_Dist_100_LN_2_LD_4_RN_8_RD_20_0.png","I_Dist_100_LN_3_LD_5_RN_11_RD_22_0.png","I_Dist_100_LN_3_LD_5_RN_8_RD_16_0.png","I_Dist_100_LN_3_LD_6_RN_4_RD_10_0.png","I_Dist_100_LN_3_LD_9_RN_7_RD_30_0.png","I_Dist_100_LN_4_LD_8_RN_8_RD_20_0.png","I_Dist_100_LN_6_LD_10_RN_11_RD_22_0.png","I_Dist_100_LN_6_LD_10_RN_13_RD_26_0.png","I_Dist_100_LN_6_LD_10_RN_7_RD_14_0.png","I_Dist_100_LN_9_LD_10_RN_20_RD_25_0.png","I_Dist_100_LN_9_LD_15_RN_13_RD_26_0.png","I_Dist_100_LN_9_LD_15_RN_14_RD_28_0.png"],["I_Dist_100_LN_10_LD_25_RN_8_RD_16_1.png","I_Dist_100_LN_10_LD_25_RN_9_RD_18_1.png","I_Dist_100_LN_11_LD_22_RN_9_RD_15_1.png","I_Dist_100_LN_12_LD_24_RN_9_RD_15_1.png","I_Dist_100_LN_12_LD_30_RN_2_RD_4_1.png","I_Dist_100_LN_13_LD_26_RN_12_RD_20_1.png","I_Dist_100_LN_13_LD_26_RN_6_RD_10_1.png","I_Dist_100_LN_17_LD_30_RN_10_RD_15_1.png","I_Dist_100_LN_6_LD_12_RN_3_RD_5_1.png","I_Dist_100_LN_8_LD_16_RN_6_RD_10_1.png","I_Dist_100_LN_8_LD_20_RN_1_RD_2_1.png","I_Dist_100_LN_9_LD_18_RN_6_RD_10_1.png"]],"dist100_S":[["E_Dist_100_LN_2_LD_12_RN_2_RD_30_0.png","E_Dist_100_LN_6_LD_10_RN_6_RD_12_0.png"],["E_Dist_100_LN_6_LD_12_RN_6_RD_10_1.png"]],"dist200_C":[["C_Dist_200_LN_11_LD_22_RN_3_RD_10_0.png","C_Dist_200_LN_12_LD_15_RN_6_RD_10_0.png","C_Dist_200_LN_12_LD_20_RN_6_RD_15_0.png","C_Dist_200_LN_14_LD_28_RN_6_RD_20_0.png","C_Dist_200_LN_15_LD_25_RN_4_RD_10_0.png","C_Dist_200_LN_16_LD_20_RN_12_RD_20_0.png","C_Dist_200_LN_16_LD_30_RN_9_RD_27_0.png","C_Dist_200_LN_20_LD_25_RN_9_RD_15_0.png","C_Dist_200_LN_21_LD_30_RN_2_RD_4_0.png","C_Dist_200_LN_4_LD_10_RN_3_RD_15_0.png","C_Dist_200_LN_4_LD_8_RN_3_RD_10_0.png","C_Dist_200_LN_6_LD_15_RN_3_RD_15_0.png","C_Dist_200_LN_7_LD_21_RN_2_RD_15_0.png","C_Dist_200_LN_8_LD_15_RN_2_RD_6_0.png","C_Dist_200_LN_8_LD_15_RN_3_RD_9_0.png","C_Dist_200_LN_8_LD_15_RN_7_RD_21_0.png","C_Dist_200_LN_9_LD_20_RN_4_RD_16_0.png"],["C_Dist_200_LN_1_LD_2_RN_21_RD_30_1.png","C_Dist_200_LN_13_LD_26_RN_14_RD_20_1.png","C_Dist_200_LN_3_LD_10_RN_11_RD_22_1.png","C_Dist_200_LN_3_LD_10_RN_14_RD_28_1.png","C_Dist_200_LN_3_LD_10_RN_7_RD_14_1.png","C_Dist_200_LN_3_LD_12_RN_9_RD_20_1.png","C_Dist_200_LN_3_LD_6_RN_14_RD_20_1.png","C_Dist_200_LN_5_LD_10_RN_14_RD_20_1.png","C_Dist_200_LN_6_LD_12_RN_7_RD_10_1.png","C_Dist_200_LN_6_LD_20_RN_11_RD_22_1.png","C_Dist_200_LN_7_LD_15_RN_18_RD_27_1.png","C_Dist_200_LN_9_LD_30_RN_13_RD_26_1.png"]],"dist200_I":[["I_Dist_200_LN_1_LD_2_RN_3_RD_10_0.png","I_Dist_200_LN_1_LD_3_RN_2_RD_15_0.png","I_Dist_200_LN_3_LD_4_RN_11_RD_20_0.png","I_Dist_200_LN_4_LD_5_RN_6_RD_10_0.png","I_Dist_200_LN_4_LD_6_RN_14_RD_30_0.png","I_Dist_200_LN_7_LD_10_RN_12_RD_24_0.png","I_Dist_200_LN_7_LD_10_RN_14_RD_28_0.png","I_Dist_200_LN_7_LD_10_RN_8_RD_16_0.png"],["I_Dist_200_LN_11_LD_20_RN_3_RD_4_1.png","I_Dist_200_LN_14_LD_30_RN_12_RD_18_1.png","I_Dist_200_LN_14_LD_30_RN_6_RD_9_1.png","I_Dist_200_LN_3_LD_10_RN_1_RD_2_1.png","I_Dist_200_LN_4_LD_30_RN_1_RD_3_1.png","I_Dist_200_LN_6_LD_20_RN_3_RD_6_1.png","I_Dist_200_LN_7_LD_15_RN_4_RD_6_1.png","I_Dist_200_LN_7_LD_15_RN_6_RD_9_1.png","I_Dist_200_LN_9_LD_15_RN_8_RD_10_1.png"]],"dist200_S":[["E_Dist_200_LN_3_LD_6_RN_3_RD_10_0.png"],["E_Dist_200_LN_3_LD_10_RN_3_RD_6_1.png"]],"dist300_C":[["C_Dist_300_LN_11_LD_22_RN_1_RD_5_0.png","C_Dist_300_LN_11_LD_22_RN_2_RD_10_0.png","C_Dist_300_LN_11_LD_22_RN_4_RD_20_0.png","C_Dist_300_LN_12_LD_24_RN_2_RD_10_0.png","C_Dist_300_LN_18_LD_20_RN_9_RD_15_0.png","C_Dist_300_LN_20_LD_25_RN_13_RD_26_0.png","C_Dist_300_LN_20_LD_25_RN_14_RD_28_0.png","C_Dist_300_LN_20_LD_25_RN_5_RD_10_0.png","C_Dist_300_LN_20_LD_25_RN_8_RD_16_0.png","C_Dist_300_LN_20_LD_25_RN_9_RD_18_0.png","C_Dist_300_LN_24_LD_30_RN_2_RD_4_0.png","C_Dist_300_LN_24_LD_30_RN_8_RD_16_0.png","C_Dist_300_LN_3_LD_6_RN_2_RD_10_0.png","C_Dist_300_LN_4_LD_10_RN_1_RD_10_0.png","C_Dist_300_LN_4_LD_5_RN_2_RD_4_0.png","C_Dist_300_LN_8_LD_16_RN_1_RD_5_0.png","C_Dist_300_LN_9_LD_10_RN_3_RD_5_0.png"],["C_Dist_300_LN_1_LD_20_RN_7_RD_20_1.png","C_Dist_300_LN_1_LD_3_RN_19_RD_30_1.png","C_Dist_300_LN_1_LD_30_RN_8_RD_24_1.png","C_Dist_300_LN_1_LD_5_RN_11_RD_22_1.png","C_Dist_300_LN_1_LD_5_RN_3_RD_6_1.png","C_Dist_300_LN_1_LD_5_RN_6_RD_12_1.png","C_Dist_300_LN_2_LD_10_RN_12_RD_24_1.png","C_Dist_300_LN_2_LD_20_RN_10_RD_25_1.png","C_Dist_300_LN_3_LD_12_RN_11_RD_20_1.png","C_Dist_300_LN_3_LD_6_RN_4_RD_5_1.png","C_Dist_300_LN_4_LD_20_RN_13_RD_26_1.png","C_Dist_300_LN_5_LD_25_RN_6_RD_12_1.png","C_Dist_300_LN_5_LD_25_RN_7_RD_14_1.png","C_Dist_300_LN_7_LD_14_RN_20_RD_25_1.png","C_Dist_300_LN_8_LD_15_RN_10_RD_12_1.png"]],"dist300_I":[["I_Dist_300_LN_1_LD_2_RN_2_RD_10_0.png","I_Dist_300_LN_1_LD_2_RN_3_RD_15_0.png","I_Dist_300_LN_2_LD_4_RN_6_RD_30_0.png","I_Dist_300_LN_3_LD_6_RN_4_RD_20_0.png","I_Dist_300_LN_4_LD_5_RN_6_RD_12_0.png","I_Dist_300_LN_4_LD_5_RN_8_RD_16_0.png","I_Dist_300_LN_7_LD_10_RN_8_RD_20_0.png","I_Dist_300_LN_8_LD_10_RN_14_RD_28_0.png","I_Dist_300_LN_8_LD_10_RN_9_RD_18_0.png"],["I_Dist_300_LN_13_LD_26_RN_12_RD_15_1.png","I_Dist_300_LN_4_LD_20_RN_2_RD_4_1.png"]],"dist300_S":[["E_Dist_300_LN_9_LD_12_RN_9_RD_20_0.png"],["E_Dist_300_LN_18_LD_30_RN_18_RD_20_1.png","E_Dist_300_LN_3_LD_10_RN_3_RD_5_1.png","E_Dist_300_LN_9_LD_20_RN_9_RD_12_1.png"]],"dist500_C":[["C_Dist_500_LN_10_LD_13_RN_7_RD_26_0.png","C_Dist_500_LN_10_LD_15_RN_4_RD_24_0.png","C_Dist_500_LN_12_LD_16_RN_3_RD_12_0.png","C_Dist_500_LN_12_LD_18_RN_4_RD_24_0.png","C_Dist_500_LN_15_LD_18_RN_5_RD_15_0.png","C_Dist_500_LN_15_LD_20_RN_1_RD_4_0.png","C_Dist_500_LN_18_LD_27_RN_1_RD_6_0.png","C_Dist_500_LN_20_LD_24_RN_1_RD_3_0.png","C_Dist_500_LN_20_LD_24_RN_3_RD_9_0.png","C_Dist_500_LN_20_LD_24_RN_7_RD_21_0.png","C_Dist_500_LN_20_LD_28_RN_3_RD_14_0.png","C_Dist_500_LN_21_LD_28_RN_6_RD_24_0.png","C_Dist_500_LN_22_LD_28_RN_2_RD_7_0.png","C_Dist_500_LN_25_LD_30_RN_9_RD_27_0.png","C_Dist_500_LN_4_LD_6_RN_1_RD_6_0.png","C_Dist_500_LN_5_LD_6_RN_2_RD_6_0.png","C_Dist_500_LN_6_LD_9_RN_1_RD_6_0.png","C_Dist_500_LN_7_LD_10_RN_1_RD_5_0.png","C_Dist_500_LN_8_LD_12_RN_1_RD_6_0.png","C_Dist_500_LN_8_LD_12_RN_4_RD_24_0.png"],["C_Dist_500_LN_1_LD_4_RN_12_RD_16_1.png","C_Dist_500_LN_1_LD_4_RN_9_RD_12_1.png","C_Dist_500_LN_1_LD_9_RN_11_RD_18_1.png","C_Dist_500_LN_10_LD_24_RN_22_RD_24_1.png","C_Dist_500_LN_2_LD_12_RN_10_RD_15_1.png","C_Dist_500_LN_2_LD_12_RN_12_RD_18_1.png","C_Dist_500_LN_2_LD_12_RN_4_RD_6_1.png","C_Dist_500_LN_2_LD_24_RN_7_RD_12_1.png","C_Dist_500_LN_2_LD_5_RN_18_RD_20_1.png","C_Dist_500_LN_2_LD_5_RN_9_RD_10_1.png","C_Dist_500_LN_2_LD_8_RN_12_RD_16_1.png","C_Dist_500_LN_2_LD_8_RN_21_RD_28_1.png","C_Dist_500_LN_3_LD_10_RN_4_RD_5_1.png","C_Dist_500_LN_3_LD_12_RN_15_RD_20_1.png","C_Dist_500_LN_3_LD_30_RN_6_RD_10_1.png","C_Dist_500_LN_3_LD_8_RN_14_RD_16_1.png","C_Dist_500_LN_4_LD_16_RN_15_RD_20_1.png","C_Dist_500_LN_4_LD_24_RN_12_RD_18_1.png","C_Dist_500_LN_5_LD_14_RN_6_RD_7_1.png","C_Dist_500_LN_7_LD_21_RN_20_RD_24_1.png","C_Dist_500_LN_7_LD_28_RN_12_RD_16_1.png","C_Dist_500_LN_7_LD_28_RN_9_RD_12_1.png","C_Dist_500_LN_9_LD_27_RN_20_RD_24_1.png"]],"dist500_I":[["I_Dist_500_LN_2_LD_3_RN_4_RD_24_0.png","I_Dist_500_LN_5_LD_6_RN_6_RD_18_0.png","I_Dist_500_LN_7_LD_8_RN_9_RD_24_0.png"],["I_Dist_500_LN_7_LD_21_RN_5_RD_6_1.png"]],"dist500_S":[["E_Dist_500_LN_6_LD_8_RN_6_RD_24_0.png"],["E_Dist_500_LN_2_LD_12_RN_2_RD_3_1.png","E_Dist_500_LN_6_LD_24_RN_6_RD_8_1.png"]]}},{"start_time":1551899773354,"click_time":1551899776202,"finger_time":1551899775921,"fix_duration":250,"trial":1,"RT":2567,"MT":281,"sideResp":2,"stimulus":[],"xmouse":[776,776,776,776,776,776,776,776,776,776,776,776,776,776,776,776,776,776,776,776,776,776,775,775,775,775,775,775,775,775,775,775,775,775,775,775,775,775,775,775,775,775,775,775,775,775,775,775,775,775,775,775,775,775,775,775,775,775,775,775,775,775,775,775,775,775,775,775,775,775,775,775,775,775,775,775,775,775,775,775,775,775,775,775,775,775,775,775,775,775,775,775,775,775,775,775,775,775,775,775,775,775,775,775,775,775,775,775,775,775,775,775,775,775,775,775,775,775,775,775,775,777,778,780,782,792,799,813,830,856,891,959,1001,1011,1030,1041,1051,1062,1074,1089,1115,1126,1136],"ymouse":[634,634,634,634,634,634,634,634,634,634,634,634,634,634,634,634,634,634,634,634,634,634,633,633,633,633,633,633,633,633,633,633,633,633,633,633,633,633,633,633,633,633,633,633,633,633,633,633,633,633,633,633,633,633,633,633,633,633,633,633,633,633,633,633,633,633,633,633,633,633,633,633,633,633,633,633,633,633,633,633,633,633,633,633,633,633,633,633,633,633,633,633,633,633,633,633,633,633,633,633,633,633,633,633,633,633,633,633,633,633,633,633,633,633,633,633,633,633,633,633,633,631,630,627,625,615,606,590,570,542,504,419,361,347,308,269,252,233,214,190,135,109,85],"timestamp_mouse":[8,28,49,68,88,108,128,148,168,189,208,229,249,269,288,308,328,349,369,388,408,428,449,468,488,508,529,548,568,589,608,629,648,669,688,708,729,748,768,789,808,828,848,868,889,908,928,948,968,988,1009,1028,1048,1068,1088,1108,1129,1148,1168,1188,1208,1228,1248,1268,1288,1308,1328,1348,1368,1388,1409,1428,1449,1468,1488,1509,1528,1548,1568,1588,1608,1628,1648,1668,1688,1708,1728,1749,1768,1788,1808,1828,1849,1869,1888,1909,1928,1948,1968,1987,2009,2029,2047,2068,2088,2108,2129,2148,2168,2188,2207,2229,2249,2268,2289,2309,2327,2348,2368,2388,2407,2429,2449,2469,2489,2509,2528,2548,2567,2587,2608,2628,2648,2668,2689,2708,2728,2748,2769,2788,2808,2829,2847],"xSR":741.5,"ySR":573.95,"xT1":424.9,"yT1":0,"xT2":1058.1,"yT2":0,"toosoon":0,"cond_shown":"Incongruent","ratio_trial":200,"L_num":1,"L_den":3,"R_num":2,"R_den":15,"correct_side":1,"subjID":"MIGUELANGELMENDOZACORDOBA29","gender":"0","school":"6","age":"10"},{"start_time":1551899778201,"click_time":1551899779203,"finger_time":1551899779021,"fix_duration":878.9563303160375,"trial":2,"RT":820,"MT":182,"sideResp":1,"stimulus":[],"xmouse":[777,777,777,777,777,777,777,777,777,777,777,777,777,777,777,777,777,777,777,777,777,777,777,777,777,777,777,777,777,777,777,777,777,777,777,777,777,777,764,756,748,740,722,689,665,641,615,590,552,534,523],"ymouse":[638,638,638,638,638,638,638,638,638,638,638,638,638,638,638,638,638,638,638,638,638,638,638,638,638,638,638,638,638,638,638,638,638,638,638,638,638,635,617,606,594,581,552,474,418,363,302,242,151,111,86],"timestamp_mouse":[4,21,41,61,81,102,121,141,161,181,202,222,242,261,280,301,322,341,361,382,401,421,441,461,481,501,521,542,560,581,602,622,641,662,681,701,721,741,761,781,801,820,842,862,881,901,922,940,961,981,1002],"xSR":741.5,"ySR":573.95,"xT1":424.9,"yT1":0,"xT2":1058.1,"yT2":0,"toosoon":0,"cond_shown":"Congruent","ratio_trial":200,"L_num":16,"L_den":20,"R_num":12,"R_den":20,"correct_side":1,"subjID":"MIGUELANGELMENDOZACORDOBA29","gender":"0","school":"6","age":"10"},{"start_time":1551899781013,"click_time":1551899782683,"finger_time":1551899782582,"fix_duration":250,"trial":3,"RT":1569,"MT":101,"sideResp":2,"stimulus":[],"xmouse":[765,765,765,765,765,765,765,765,765,765,765,765,765,765,765,765,765,765,765,765,765,765,765,765,765,765,765,765,765,765,765,765,765,765,765,765,765,765,765,765,765,765,765,765,765,765,765,765,765,765,765,765,765,765,765,765,765,765,765,765,765,765,765,765,765,765,765,765,765,765,765,765,765,765,765,765,769,776,804,853,899,961,1093,1147],"ymouse":[593,593,593,593,593,593,593,593,593,593,593,593,593,593,593,593,593,593,593,593,593,593,593,593,593,593,593,593,593,593,593,593,593,593,593,593,593,593,593,593,593,593,593,593,593,593,593,593,593,593,593,593,593,593,593,593,593,593,593,593,593,593,593,593,593,593,593,593,593,593,593,593,593,593,593,593,591,581,537,457,386,309,146,65],"timestamp_mouse":[9,29,48,69,90,109,129,149,170,189,209,229,249,269,289,309,329,350,369,390,409,430,450,469,490,509,530,550,569,589,610,628,648,670,689,710,729,749,769,790,808,830,849,869,890,909,929,948,970,989,1009,1029,1049,1070,1090,1109,1130,1150,1170,1190,1209,1229,1250,1270,1290,1310,1330,1349,1370,1389,1410,1430,1450,1469,1490,1509,1529,1549,1569,1590,1610,1630,1649,1670],"xSR":741.5,"ySR":573.95,"xT1":424.9,"yT1":0,"xT2":1058.1,"yT2":0,"toosoon":0,"cond_shown":"Incongruent","ratio_trial":100,"L_num":13,"L_den":26,"R_num":12,"R_den":20,"correct_side":2,"subjID":"MIGUELANGELMENDOZACORDOBA29","gender":"0","school":"6","age":"10"},{"start_time":1551899784916,"click_time":1551899785723,"finger_time":1551899785663,"fix_duration":393.41119467459527,"trial":4,"RT":747,"MT":60,"sideResp":2,"stimulus":[],"xmouse":[765,765,765,765,765,765,765,765,765,765,765,765,765,765,765,765,765,765,765,765,765,765,765,765,765,765,765,765,765,765,765,765,765,765,765,771,787,866,934,1002,1074],"ymouse":[632,632,632,632,632,632,632,632,632,632,632,632,632,632,632,632,632,632,632,632,632,632,632,632,632,632,632,632,632,632,632,632,632,632,630,617,591,453,345,220,99],"timestamp_mouse":[7,27,47,67,87,106,127,146,167,187,205,227,246,267,286,307,327,346,366,386,406,426,447,466,487,507,526,545,566,587,607,626,646,666,687,706,726,747,767,787,807],"xSR":741.5,"ySR":573.95,"xT1":424.9,"yT1":0,"xT2":1058.1,"yT2":0,"toosoon":0,"cond_shown":"Incongruent","ratio_trial":100,"L_num":3,"L_den":5,"R_num":8,"R_den":16,"correct_side":1,"subjID":"MIGUELANGELMENDOZACORDOBA29","gender":"0","school":"6","age":"10"},{"start_time":1551899788820,"click_time":1551899790263,"finger_time":1551899789482,"fix_duration":1455.598300858438,"trial":5,"RT":662,"MT":781,"sideResp":1,"stimulus":[],"xmouse":[770,770,770,770,770,770,770,770,770,770,770,770,770,770,770,770,770,770,770,770,770,770,770,770,770,770,770,770,770,770,770,768,743,723,701,675,656,646,641,633,606,589,576,557,555,555,555,555,555,556,558,560,560,557,556,556,556,556,556,556,553,548,535,529,525,522,520,519,519,519,519,518,513],"ymouse":[640,640,640,640,640,640,640,640,640,640,640,640,640,640,640,640,640,640,640,640,640,640,640,640,640,640,640,640,640,640,638,636,611,595,583,571,562,554,539,512,447,397,353,270,246,226,209,173,151,124,97,55,11,2,0,0,0,0,0,0,0,0,0,0,0,0,0,0,0,0,0,0,7],"timestamp_mouse":[4,23,43,62,82,103,123,142,162,183,203,223,242,262,283,303,322,342,362,382,402,422,442,463,482,503,522,542,562,583,603,622,642,661,682,703,722,743,762,781,802,822,842,862,883,903,921,942,962,982,1003,1022,1042,1062,1083,1102,1121,1143,1163,1182,1203,1223,1242,1262,1283,1303,1322,1343,1363,1383,1402,1422,1442],"xSR":741.5,"ySR":573.95,"xT1":424.9,"yT1":0,"xT2":1058.1,"yT2":0,"toosoon":0,"cond_shown":"Congruent","ratio_trial":300,"L_num":20,"L_den":25,"R_num":13,"R_den":26,"correct_side":1,"subjID":"MIGUELANGELMENDOZACORDOBA29","gender":"0","school":"6","age":"10"},{"start_time":1551899792627,"click_time":1551899794062,"finger_time":1551899793562,"fix_duration":1263.0202933960986,"trial":6,"RT":935,"MT":500,"sideResp":1,"stimulus":[],"xmouse":[777,777,777,777,777,777,777,777,777,777,777,777,777,777,777,777,777,777,777,777,777,777,777,777,777,777,777,777,777,777,777,777,777,777,777,777,760,757,757,757,757,757,757,757,757,755,746,736,725,709,697,675,668,668,665,664,664,661,652,639,619,592,581,569,555,545,521,512,502,488,481,464],"ymouse":[653,653,653,653,653,653,653,653,653,653,653,653,653,653,653,653,653,653,653,653,653,653,653,653,653,653,653,653,653,653,653,653,653,653,651,646,618,607,595,588,586,585,585,585,585,582,572,561,550,533,523,513,512,512,511,511,511,507,496,481,452,404,378,350,318,294,240,216,192,157,135,95],"timestamp_mouse":[15,35,55,74,95,116,135,155,175,196,215,236,255,275,295,315,335,355,375,396,415,435,455,475,495,515,535,555,574,595,615,635,655,674,696,715,735,756,775,796,816,835,855,876,895,915,935,955,976,996,1016,1036,1055,1075,1096,1115,1136,1156,1176,1195,1215,1236,1255,1276,1295,1316,1335,1355,1375,1395,1415,1435],"xSR":741.5,"ySR":573.95,"xT1":424.9,"yT1":0,"xT2":1058.1,"yT2":0,"toosoon":0,"cond_shown":"Incongruent","ratio_trial":100,"L_num":10,"L_den":25,"R_num":9,"R_den":18,"correct_side":2,"subjID":"MIGUELANGELMENDOZACORDOBA29","gender":"0","school":"6","age":"10"},{"start_time":1551899796733,"click_time":1551899798443,"finger_time":1551899797922,"fix_duration":250,"trial":7,"RT":1189,"MT":521,"sideResp":1,"stimulus":[],"xmouse":[801,801,801,801,801,801,801,801,801,801,801,801,801,801,801,801,801,801,801,801,801,801,801,801,801,801,801,801,801,801,801,801,801,801,801,801,801,801,801,801,801,801,801,801,801,801,801,801,801,801,801,801,801,801,801,801,801,799,782,751,710,601,564,527,498,453,387,361,341,331,330,330,330,330,330,330,333,337,343,346,350,350,353,379,419,466],"ymouse":[616,616,616,616,616,616,616,616,616,616,616,616,616,616,616,616,616,616,616,616,616,616,616,616,616,616,616,616,616,616,616,616,616,616,616,616,616,616,616,616,616,616,616,616,616,616,616,616,616,616,616,616,616,616,616,616,616,616,599,566,522,418,375,323,273,193,99,68,48,39,36,36,36,36,35,35,31,29,28,28,28,28,28,31,37,45],"timestamp_mouse":[10,29,49,68,90,109,128,149,170,189,209,229,250,269,290,309,330,350,370,389,410,429,450,470,490,510,530,549,569,589,609,628,650,669,690,709,728,749,770,789,809,829,849,868,890,910,930,949,970,989,1009,1029,1049,1070,1089,1110,1130,1150,1170,1189,1209,1229,1249,1269,1288,1310,1329,1349,1369,1389,1409,1430,1449,1470,1489,1509,1530,1549,1569,1589,1609,1630,1649,1669,1689,1710],"xSR":741.5,"ySR":573.95,"xT1":424.9,"yT1":0,"xT2":1058.1,"yT2":0,"toosoon":0,"cond_shown":"Congruent","ratio_trial":300,"L_num":20,"L_den":25,"R_num":14,"R_den":28,"correct_side":1,"subjID":"MIGUELANGELMENDOZACORDOBA29","gender":"0","school":"6","age":"10"},{"start_time":1551899801184,"click_time":1551899803062,"finger_time":1551899802482,"fix_duration":1339.63096334998,"trial":8,"RT":1298,"MT":580,"sideResp":2,"stimulus":[],"xmouse":[775,775,775,775,775,775,775,775,775,775,775,775,775,775,775,775,775,775,775,775,775,775,775,775,775,775,775,775,775,775,775,775,775,775,775,775,775,775,775,775,775,775,775,775,775,775,775,775,775,775,775,775,775,775,775,775,775,775,775,775,775,778,783,800,813,825,839,854,889,907,928,947,971,997,1010,1024,1037,1055,1085,1095,1105,1109,1110,1110,1110,1110,1110,1110,1110,1110,1110,1110,1110,1110],"ymouse":[625,625,625,625,625,625,625,625,625,625,625,625,625,625,625,625,625,625,625,625,625,625,625,625,625,625,625,625,625,625,625,625,625,625,625,625,625,625,625,625,625,625,625,625,625,625,625,625,625,625,625,625,625,625,625,625,625,625,625,624,622,617,608,577,554,526,491,451,380,341,306,272,228,167,130,99,72,43,0,0,0,0,0,0,0,0,0,0,0,0,0,0,0,2],"timestamp_mouse":[20,38,59,78,99,119,139,157,179,198,219,238,259,278,299,317,338,359,379,397,418,438,458,478,498,519,539,559,579,598,618,638,659,678,698,718,738,759,778,798,818,838,858,879,899,919,938,958,978,998,1019,1038,1058,1078,1098,1118,1137,1158,1179,1199,1217,1238,1259,1278,1298,1318,1338,1358,1378,1398,1419,1438,1459,1478,1499,1518,1538,1558,1579,1598,1618,1639,1658,1679,1698,1718,1738,1758,1779,1799,1819,1838,1858,1878],"xSR":741.5,"ySR":573.95,"xT1":424.9,"yT1":0,"xT2":1058.1,"yT2":0,"toosoon":0,"cond_shown":"Incongruent","ratio_trial":200,"L_num":1,"L_den":2,"R_num":3,"R_den":10,"correct_side":1,"subjID":"MIGUELANGELMENDOZACORDOBA29","gender":"0","school":"6","age":"10"},{"start_time":1551899804500,"click_time":1551899806083,"finger_time":1551899805943,"fix_duration":317.06300135604084,"trial":9,"RT":1443,"MT":140,"sideResp":1,"stimulus":[],"xmouse":[813,813,813,813,813,813,813,813,813,813,813,813,813,813,813,813,813,813,813,813,813,813,813,813,813,813,813,813,813,813,813,813,813,813,813,813,813,813,813,813,813,813,813,813,813,813,813,813,813,813,813,813,813,813,813,813,813,813,813,813,813,813,813,813,813,813,813,813,813,808,801,790,772,746,667,627,567,532,477,461],"ymouse":[612,612,612,612,612,612,612,612,612,612,612,612,612,612,612,612,612,612,612,612,612,612,612,612,612,612,612,612,612,612,612,612,612,612,612,612,612,612,612,612,612,612,612,612,612,612,612,612,612,612,612,612,612,612,612,612,612,612,612,612,612,612,612,612,612,612,612,612,612,610,602,588,568,537,443,383,292,230,123,81],"timestamp_mouse":[7,22,43,62,82,102,122,142,162,182,202,223,242,263,282,302,322,342,362,382,402,422,443,462,482,502,522,543,562,582,602,622,643,662,682,702,722,742,763,782,802,821,842,863,882,903,922,942,962,983,1001,1021,1042,1062,1082,1102,1121,1142,1162,1183,1203,1222,1243,1262,1283,1302,1322,1342,1362,1382,1403,1422,1443,1462,1482,1502,1522,1543,1562,1583],"xSR":741.5,"ySR":573.95,"xT1":424.9,"yT1":0,"xT2":1058.1,"yT2":0,"toosoon":0,"cond_shown":"Incongruent","ratio_trial":300,"L_num":4,"L_den":20,"R_num":2,"R_den":4,"correct_side":2,"subjID":"MIGUELANGELMENDOZACORDOBA29","gender":"0","school":"6","age":"10"},{"start_time":1551899807913,"click_time":1551899809482,"finger_time":1551899809062,"fix_duration":668.0911709942059,"trial":10,"RT":1149,"MT":420,"sideResp":2,"stimulus":[],"xmouse":[769,769,769,769,769,769,769,769,769,769,769,769,769,769,769,769,769,769,769,769,769,769,769,769,769,769,769,769,769,769,769,769,769,769,769,769,769,769,769,769,769,769,769,769,769,769,769,769,769,769,769,769,769,769,769,770,773,776,783,787,792,798,824,844,884,916,950,1020,1051,1077,1099,1119,1142,1146,1147,1147,1147,1147,1147],"ymouse":[604,604,604,604,604,604,604,604,604,604,604,604,604,604,604,604,604,604,604,604,604,604,604,604,604,604,604,604,604,604,604,604,604,604,604,604,604,604,604,604,604,604,604,604,604,604,604,604,604,604,604,604,604,603,601,591,582,572,549,532,514,495,431,385,292,222,146,0,0,0,0,0,0,0,0,0,0,0,4],"timestamp_mouse":[9,29,50,70,89,109,129,149,170,189,210,230,249,270,289,309,329,350,370,389,409,429,450,468,489,509,529,550,569,589,609,629,649,670,689,708,730,749,769,790,810,829,850,870,889,909,930,949,969,990,1009,1029,1049,1069,1089,1110,1129,1149,1169,1189,1209,1230,1250,1269,1289,1310,1329,1350,1369,1389,1409,1430,1449,1469,1490,1509,1529,1549,1569],"xSR":741.5,"ySR":573.95,"xT1":424.9,"yT1":0,"xT2":1058.1,"yT2":0,"toosoon":0,"cond_shown":"Congruent","ratio_trial":100,"L_num":3,"L_den":6,"R_num":2,"R_den":5,"correct_side":1,"subjID":"MIGUELANGELMENDOZACORDOBA29","gender":"0","school":"6","age":"10"},{"start_time":1551899812930,"click_time":1551899814362,"finger_time":1551899813882,"fix_duration":1187.654219657346,"trial":11,"RT":952,"MT":480,"sideResp":2,"stimulus":[],"xmouse":[798,798,798,798,798,798,798,798,798,797,797,797,797,797,797,797,796,796,794,793,793,793,793,793,793,793,793,793,793,793,793,793,793,793,793,793,793,793,793,793,793,793,793,793,793,793,793,795,797,804,816,845,859,877,911,931,967,987,1001,1010,1017,1028,1033,1040,1045,1047,1047,1047,1049,1052,1055,1062],"ymouse":[621,621,621,621,621,621,621,621,621,622,622,622,622,622,622,622,622,622,622,622,622,622,622,622,622,622,622,622,622,622,622,622,622,622,622,622,622,622,622,621,620,605,596,586,583,577,574,570,565,553,535,477,435,383,301,245,140,94,57,34,13,0,0,0,0,0,0,0,0,6,10,15],"timestamp_mouse":[13,33,52,73,93,113,133,153,172,192,212,233,253,272,293,312,332,352,373,393,413,431,452,472,493,511,533,553,572,593,613,632,652,673,692,711,732,752,772,793,813,832,852,872,892,912,932,952,972,992,1012,1032,1052,1073,1093,1112,1133,1151,1172,1192,1212,1232,1252,1272,1293,1312,1332,1352,1372,1393,1412,1431],"xSR":741.5,"ySR":573.95,"xT1":424.9,"yT1":0,"xT2":1058.1,"yT2":0,"toosoon":0,"cond_shown":"Incongruent","ratio_trial":200,"L_num":7,"L_den":10,"R_num":14,"R_den":28,"correct_side":1,"subjID":"MIGUELANGELMENDOZACORDOBA29","gender":"0","school":"6","age":"10"},{"start_time":1551899816232,"click_time":1551899817962,"finger_time":1551899817443,"fix_duration":828.0837910368577,"trial":12,"RT":1211,"MT":519,"sideResp":2,"stimulus":[],"xmouse":[785,785,785,785,785,785,785,785,785,785,785,785,785,785,785,785,785,785,785,785,785,785,785,785,785,785,785,785,785,785,785,785,785,785,785,785,785,785,785,785,785,785,785,785,785,785,785,785,785,785,785,785,785,785,785,785,785,788,795,805,821,835,839,845,851,860,879,891,894,908,921,957,976,995,1009,1021,1038,1044,1047,1051,1052,1053,1054,1055,1056,1058,1059],"ymouse":[635,635,635,635,635,635,635,635,635,635,635,635,635,635,635,635,635,635,635,635,635,635,635,635,635,635,635,635,635,635,635,635,635,635,635,635,635,635,635,635,635,635,635,635,635,635,635,635,635,635,635,635,635,635,635,635,635,628,611,591,553,514,500,486,473,457,422,396,388,359,330,264,233,198,166,132,94,84,77,71,69,68,65,63,63,61,60],"timestamp_mouse":[10,29,50,70,91,110,130,150,170,191,210,230,250,270,290,310,330,351,369,391,411,430,451,471,490,510,530,551,569,591,611,631,650,671,690,710,730,750,770,791,810,830,850,870,890,911,930,950,970,990,1011,1031,1050,1070,1090,1111,1130,1150,1170,1190,1211,1230,1251,1270,1290,1310,1330,1350,1370,1390,1411,1430,1450,1471,1490,1510,1529,1550,1570,1590,1611,1630,1650,1670,1691,1711,1730],"xSR":741.5,"ySR":573.95,"xT1":424.9,"yT1":0,"xT2":1058.1,"yT2":0,"toosoon":0,"cond_shown":"Congruent","ratio_trial":300,"L_num":1,"L_den":5,"R_num":6,"R_den":12,"correct_side":2,"subjID":"MIGUELANGELMENDOZACORDOBA29","gender":"0","school":"6","age":"10"},{"start_time":1551899820484,"click_time":1551899822563,"finger_time":1551899821721,"fix_duration":1381.513179383455,"trial":13,"RT":1237,"MT":842,"sideResp":1,"stimulus":[],"xmouse":[781,781,781,781,781,781,781,781,781,781,781,781,781,781,781,781,781,781,781,781,781,781,781,781,781,781,781,781,781,781,781,781,781,781,781,781,781,781,781,781,781,781,781,781,781,781,781,781,781,781,781,781,781,781,778,775,770,768,764,759,749,734,711,663,645,603,574,539,466,428,390,365,352,336,334,333,333,333,333,333,333,333,338,343,352,353,353,355,374,385,387,388,388,388,394,401,406,409,410,410,411,412,416,427],"ymouse":[653,653,653,653,653,653,653,653,653,653,653,653,653,653,653,653,653,653,653,653,653,653,653,653,653,653,653,653,653,653,653,653,653,653,653,653,653,653,653,653,653,653,653,653,653,653,653,653,653,653,653,653,653,652,649,645,640,637,629,617,596,565,523,439,407,342,301,251,159,118,81,53,35,6,0,0,0,0,0,0,0,0,0,0,0,0,0,0,0,0,0,0,0,0,0,4,5,7,7,7,7,7,8,15],"timestamp_mouse":[17,38,58,78,98,118,138,159,179,199,218,238,259,278,298,318,339,358,379,397,418,438,458,479,498,518,538,558,578,598,619,638,658,678,699,718,739,759,778,799,818,838,858,879,898,918,938,958,979,999,1018,1038,1058,1078,1098,1119,1139,1158,1178,1199,1218,1237,1259,1278,1298,1318,1338,1358,1378,1398,1419,1439,1458,1478,1498,1518,1539,1559,1578,1598,1618,1639,1658,1678,1698,1717,1738,1759,1779,1799,1818,1838,1857,1878,1898,1919,1938,1959,1979,1998,2019,2039,2057,2079],"xSR":741.5,"ySR":573.95,"xT1":424.9,"yT1":0,"xT2":1058.1,"yT2":0,"toosoon":0,"cond_shown":"Incongruent","ratio_trial":300,"L_num":4,"L_den":20,"R_num":2,"R_den":4,"correct_side":2,"subjID":"MIGUELANGELMENDOZACORDOBA29","gender":"0","school":"6","age":"10"},{"start_time":1551899824943,"click_time":1551899826001,"finger_time":1551899825523,"fix_duration":1238.5013777232866,"trial":14,"RT":580,"MT":478,"sideResp":2,"stimulus":[],"xmouse":[797,797,797,797,797,797,797,797,797,797,797,797,797,797,797,797,797,798,798,799,800,807,812,816,817,818,822,828,834,839,846,858,866,873,878,883,883,883,883,883,883,883,883,883,883,883,883,887,891,901,914,967,1011,1073],"ymouse":[637,637,637,637,637,637,637,637,637,637,637,637,637,637,637,637,637,637,637,637,637,632,625,619,617,615,608,598,587,571,554,510,487,465,446,426,419,418,417,417,417,417,417,417,417,417,417,413,404,389,369,273,191,96],"timestamp_mouse":[0,22,38,58,79,98,118,139,158,178,199,218,240,258,278,298,318,338,358,378,398,419,439,458,478,498,518,539,558,580,598,618,639,660,678,698,718,738,758,778,798,818,838,858,878,898,919,939,959,978,998,1018,1038,1058],"xSR":741.5,"ySR":573.95,"xT1":424.9,"yT1":0,"xT2":1058.1,"yT2":0,"toosoon":0,"cond_shown":"Incongruent","ratio_trial":200,"L_num":1,"L_den":2,"R_num":3,"R_den":10,"correct_side":1,"subjID":"MIGUELANGELMENDOZACORDOBA29","gender":"0","school":"6","age":"10"},{"start_time":1551899828377,"click_time":1551899829743,"finger_time":1551899829061,"fix_duration":713.4558418907571,"trial":15,"RT":684,"MT":682,"sideResp":1,"stimulus":[],"xmouse":[781,781,781,781,781,781,781,781,781,781,781,781,781,781,781,781,781,781,781,780,773,766,764,763,763,763,763,763,763,763,760,758,758,753,733,712,690,672,661,652,647,643,633,625,613,610,607,603,601,592,589,585,580,574,571,563,554,545,535,520,517,514,509,509,509,509,507,506,504],"ymouse":[625,625,625,625,625,625,625,625,625,625,625,625,625,625,625,625,625,625,625,625,616,605,601,601,601,601,601,601,601,599,595,593,593,586,561,540,524,510,499,469,441,401,338,304,250,230,213,201,193,171,165,157,150,144,142,140,138,135,130,121,118,115,111,110,110,110,107,103,99],"timestamp_mouse":[4,24,44,65,85,104,124,145,164,184,204,225,244,265,286,304,325,344,365,384,404,425,444,465,485,504,524,545,564,585,606,624,644,665,684,705,724,744,766,785,804,824,844,864,885,904,925,944,964,984,1005,1025,1044,1065,1084,1105,1124,1145,1165,1185,1204,1224,1244,1264,1284,1305,1324,1345,1365],"xSR":741.5,"ySR":573.95,"xT1":424.9,"yT1":0,"xT2":1058.1,"yT2":0,"toosoon":0,"cond_shown":"Incongruent","ratio_trial":300,"L_num":13,"L_den":26,"R_num":12,"R_den":15,"correct_side":2,"subjID":"MIGUELANGELMENDOZACORDOBA29","gender":"0","school":"6","age":"10"},{"start_time":1551899832097,"click_time":1551899834082,"finger_time":1551899833241,"fix_duration":1473.2269621119738,"trial":16,"RT":1144,"MT":841,"sideResp":2,"stimulus":[],"xmouse":[786,786,786,786,786,786,786,786,786,786,786,787,787,787,787,788,788,788,789,789,789,789,789,789,789,789,789,789,789,789,789,789,789,789,789,789,789,789,789,789,789,789,789,789,789,789,789,789,789,791,792,794,795,797,797,800,802,806,811,813,814,814,815,817,819,826,833,840,856,864,871,879,884,897,906,909,921,933,974,994,1016,1028,1035,1039,1040,1040,1042,1044,1048,1048,1048,1048,1048,1048,1048,1049,1049,1049,1057,1061],"ymouse":[643,643,643,643,643,643,643,643,643,643,643,642,640,639,636,633,631,630,630,630,629,629,628,627,626,623,621,620,617,617,617,617,617,617,617,617,617,617,617,617,617,617,617,617,617,617,617,617,617,613,609,602,597,592,591,584,575,566,549,544,539,536,532,525,516,487,466,442,393,367,344,320,299,262,239,233,207,187,120,88,51,28,12,2,0,0,0,0,0,0,0,0,0,0,0,0,0,0,0,2],"timestamp_mouse":[4,28,44,64,84,104,124,144,164,184,205,224,244,264,286,304,324,344,365,384,405,424,445,464,484,505,524,545,565,584,604,625,644,664,684,705,725,745,764,786,804,824,846,865,884,904,926,945,965,985,1004,1024,1044,1064,1085,1104,1125,1144,1165,1185,1204,1225,1245,1265,1286,1304,1324,1345,1364,1385,1405,1424,1444,1465,1484,1504,1524,1544,1565,1585,1605,1624,1645,1664,1685,1706,1724,1745,1765,1784,1804,1824,1844,1865,1884,1905,1924,1944,1964,1985],"xSR":741.5,"ySR":573.95,"xT1":424.9,"yT1":0,"xT2":1058.1,"yT2":0,"toosoon":0,"cond_shown":"Congruent","ratio_trial":100,"L_num":6,"L_den":20,"R_num":5,"R_den":25,"correct_side":1,"subjID":"MIGUELANGELMENDOZACORDOBA29","gender":"0","school":"6","age":"10"},{"start_time":1551899835553,"click_time":1551899836442,"finger_time":1551899836361,"fix_duration":250,"trial":17,"RT":808,"MT":81,"sideResp":1,"stimulus":[],"xmouse":[796,796,796,796,796,796,796,796,796,796,796,796,796,796,796,796,796,796,796,796,796,796,796,796,796,796,796,796,796,796,796,796,796,796,796,796,795,791,782,769,740,652,599,528,488],"ymouse":[624,624,624,624,624,624,624,624,624,624,624,624,624,624,624,624,624,624,624,624,624,624,624,624,624,624,624,624,624,624,624,624,624,624,624,624,624,620,610,591,549,402,309,171,89],"timestamp_mouse":[8,28,48,68,88,109,129,148,169,188,209,228,248,268,289,309,329,348,368,388,408,429,449,468,488,508,529,549,569,589,609,628,649,668,688,708,729,748,768,788,808,829,848,868,888],"xSR":741.5,"ySR":573.95,"xT1":424.9,"yT1":0,"xT2":1058.1,"yT2":0,"toosoon":0,"cond_shown":"Congruent","ratio_trial":200,"L_num":20,"L_den":25,"R_num":9,"R_den":15,"correct_side":1,"subjID":"MIGUELANGELMENDOZACORDOBA29","gender":"0","school":"6","age":"10"},{"start_time":1551899838941,"click_time":1551899839962,"finger_time":1551899839481,"fix_duration":1280.350864484022,"trial":18,"RT":540,"MT":481,"sideResp":1,"stimulus":[],"xmouse":[775,775,775,775,775,775,775,775,775,775,775,775,775,775,775,775,775,775,775,775,775,775,775,775,774,751,730,684,618,542,392,352,346,353,362,363,365,370,379,391,416,418,418,418,418,418,418,418,418,419,425],"ymouse":[628,628,628,628,628,628,628,628,628,628,628,628,628,628,628,628,628,628,628,628,628,628,628,628,628,608,585,535,469,383,146,16,0,0,0,0,9,29,49,70,98,100,100,100,100,100,100,100,100,101,98],"timestamp_mouse":[20,40,60,82,101,120,140,160,180,200,221,240,261,281,301,320,341,360,381,401,421,440,460,481,500,521,540,560,580,600,621,640,660,680,700,721,741,761,781,801,821,841,860,880,901,921,940,960,980,1001,1021],"xSR":741.5,"ySR":573.95,"xT1":424.9,"yT1":0,"xT2":1058.1,"yT2":0,"toosoon":0,"cond_shown":"Incongruent","ratio_trial":200,"L_num":14,"L_den":30,"R_num":6,"R_den":9,"correct_side":2,"subjID":"MIGUELANGELMENDOZACORDOBA29","gender":"0","school":"6","age":"10"},{"start_time":1551899841434,"click_time":1551899842762,"finger_time":1551899842001,"fix_duration":411.7930182458498,"trial":19,"RT":567,"MT":761,"sideResp":2,"stimulus":[],"xmouse":[782,782,782,782,782,782,782,782,782,782,782,782,782,782,782,782,782,782,782,782,782,782,782,782,782,782,782,805,920,1039,1192,1560,1560,1560,1560,1560,1560,1560,1551,1494,1415,1321,1147,1084,1084,1084,1084,1084,1084,1023,1023,1023,1023,1023,1023,1023,1023,1028,1030,1037,1039,1042,1045,1050,1054,1059,1069],"ymouse":[640,640,640,640,640,640,640,640,640,640,640,640,640,640,640,640,640,640,640,640,640,640,640,640,640,640,639,614,467,273,10,0,0,0,0,0,0,0,71,159,281,419,708,836,836,836,836,836,836,869,831,774,619,527,435,349,215,179,157,141,138,133,128,119,112,103,78],"timestamp_mouse":[7,27,47,67,87,107,128,148,167,187,208,227,247,267,287,307,327,348,368,387,408,427,448,467,487,507,528,548,567,587,607,628,648,667,688,708,728,747,768,787,808,827,848,867,887,907,928,947,967,988,1008,1028,1048,1067,1087,1108,1127,1147,1168,1187,1208,1227,1247,1267,1288,1307,1328],"xSR":741.5,"ySR":573.95,"xT1":424.9,"yT1":0,"xT2":1058.1,"yT2":0,"toosoon":0,"cond_shown":"Congruent","ratio_trial":100,"L_num":4,"L_den":10,"R_num":15,"R_den":30,"correct_side":2,"subjID":"MIGUELANGELMENDOZACORDOBA29","gender":"0","school":"6","age":"10"},{"start_time":1551899845944,"click_time":1551899846702,"finger_time":1551899846581,"fix_duration":1022.6314265421342,"trial":20,"RT":637,"MT":121,"sideResp":1,"stimulus":[],"xmouse":[785,785,785,785,785,785,785,785,785,785,785,785,785,785,785,785,785,785,785,785,785,785,785,785,785,785,785,785,778,768,747,734,704,638,585,511,485,468],"ymouse":[644,644,644,644,644,644,644,644,644,644,644,644,644,644,644,644,644,644,644,644,644,644,644,644,644,644,643,637,626,613,577,549,493,403,329,179,112,65],"timestamp_mouse":[21,37,57,78,97,117,137,157,177,198,217,238,257,277,297,318,337,357,379,397,417,438,457,477,497,518,538,557,577,598,618,637,657,678,698,717,737,757],"xSR":741.5,"ySR":573.95,"xT1":424.9,"yT1":0,"xT2":1058.1,"yT2":0,"toosoon":0,"cond_shown":"Incongruent","ratio_trial":300,"L_num":13,"L_den":26,"R_num":12,"R_den":15,"correct_side":2,"subjID":"MIGUELANGELMENDOZACORDOBA29","gender":"0","school":"6","age":"10"},{"start_time":1551899851056,"click_time":1551899853941,"finger_time":1551899852562,"fix_duration":1353.2396424176197,"trial":21,"RT":1506,"MT":1379,"sideResp":1,"stimulus":[],"xmouse":[786,786,786,786,786,786,786,786,786,786,786,786,786,786,786,786,786,786,786,786,786,786,786,786,786,786,786,786,786,786,786,786,786,786,786,786,786,786,786,786,786,786,786,786,786,786,786,786,786,786,786,786,786,786,786,786,786,786,786,786,786,786,786,786,786,786,786,786,786,786,782,772,761,753,751,750,749,748,748,746,741,735,726,718,711,707,705,701,697,694,682,672,660,646,629,593,580,560,554,539,534,534,534,534,534,534,534,533,533,533,533,533,533,531,530,527,526,524,519,514,509,507,507,507,507,507,507,505,505,503,503,503,503,503,503,503,503,503,503,503,503,503,503,503,501],"ymouse":[631,631,631,631,631,631,631,631,631,631,631,631,631,631,631,631,631,631,631,631,631,631,631,631,631,631,631,631,631,631,631,631,631,631,631,631,631,631,631,631,631,631,631,631,631,631,631,631,631,631,631,631,631,631,631,631,631,631,631,631,631,631,631,631,631,631,631,631,631,631,621,604,590,581,579,573,569,566,560,553,544,539,536,531,528,524,520,506,493,478,440,415,390,363,336,285,265,238,231,215,210,210,210,210,210,210,210,210,210,210,209,208,205,201,197,187,180,174,161,153,146,145,145,145,145,143,140,135,131,128,125,125,125,125,123,120,119,118,118,117,114,112,109,101,93],"timestamp_mouse":[6,27,48,66,86,105,126,145,167,186,206,225,245,265,286,305,325,346,365,386,405,426,446,466,486,506,526,546,565,585,605,625,645,665,686,705,725,745,766,786,805,825,845,866,885,905,925,945,965,985,1006,1026,1045,1066,1085,1105,1125,1146,1165,1186,1205,1225,1245,1265,1285,1306,1326,1346,1365,1386,1405,1426,1445,1466,1485,1506,1525,1546,1565,1586,1605,1625,1645,1666,1686,1705,1725,1745,1765,1785,1805,1825,1845,1865,1886,1906,1925,1945,1965,1986,2005,2026,2045,2065,2085,2107,2126,2146,2165,2186,2205,2226,2246,2265,2286,2305,2326,2345,2365,2385,2405,2426,2445,2465,2485,2505,2526,2546,2565,2585,2606,2626,2645,2665,2686,2705,2726,2746,2767,2785,2805,2825,2846,2865,2885],"xSR":741.5,"ySR":573.95,"xT1":424.9,"yT1":0,"xT2":1058.1,"yT2":0,"toosoon":0,"cond_shown":"Congruent","ratio_trial":200,"L_num":4,"L_den":10,"R_num":3,"R_den":15,"correct_side":1,"subjID":"MIGUELANGELMENDOZACORDOBA29","gender":"0","school":"6","age":"10"},{"start_time":1551899855434,"click_time":1551899857321,"finger_time":1551899856761,"fix_duration":250,"trial":22,"RT":1327,"MT":560,"sideResp":1,"stimulus":[],"xmouse":[774,774,774,774,774,774,774,774,774,774,774,774,774,774,774,774,774,774,774,774,774,774,774,774,774,774,774,774,774,774,774,774,774,774,774,774,774,774,774,774,774,774,774,774,774,774,774,774,774,774,774,774,774,774,774,774,774,774,774,774,774,774,772,768,765,761,757,749,742,739,734,727,724,720,712,707,701,698,692,681,669,648,640,630,623,616,598,588,572,567,551,525,508,486,464],"ymouse":[592,592,592,592,592,592,592,592,592,592,592,592,592,592,592,592,592,592,592,592,592,592,592,592,592,592,592,592,592,592,592,592,592,592,592,592,592,592,592,592,592,592,592,592,592,592,592,592,592,592,592,592,592,592,592,592,592,592,592,592,592,592,589,585,581,577,572,560,549,543,536,519,506,493,476,465,445,435,423,408,397,381,376,369,362,354,329,316,293,285,257,199,161,115,69],"timestamp_mouse":[8,27,47,67,87,107,127,148,167,188,208,228,248,268,287,308,327,347,368,387,407,427,448,468,487,507,528,547,567,587,608,628,647,667,687,707,728,748,767,789,807,827,847,867,888,907,927,947,968,988,1007,1027,1047,1067,1087,1108,1127,1147,1168,1187,1207,1228,1248,1267,1288,1307,1327,1348,1368,1387,1407,1427,1447,1467,1487,1508,1527,1548,1568,1587,1607,1627,1647,1668,1688,1707,1727,1747,1767,1787,1807,1828,1847,1867,1887],"xSR":741.5,"ySR":573.95,"xT1":424.9,"yT1":0,"xT2":1058.1,"yT2":0,"toosoon":0,"cond_shown":"Congruent","ratio_trial":100,"L_num":11,"L_den":22,"R_num":4,"R_den":10,"correct_side":1,"subjID":"MIGUELANGELMENDOZACORDOBA29","gender":"0","school":"6","age":"10"},{"start_time":1551899860673,"click_time":1551899862182,"finger_time":1551899861462,"fix_duration":990.0605432764238,"trial":23,"RT":789,"MT":720,"sideResp":2,"stimulus":[],"xmouse":[769,769,769,769,769,769,769,769,769,769,769,769,769,769,769,769,769,769,769,769,769,769,769,769,769,769,769,769,769,769,769,769,769,769,769,770,778,789,806,848,868,892,917,939,968,977,986,994,997,1005,1009,1012,1014,1016,1019,1021,1023,1023,1025,1030,1032,1033,1036,1037,1040,1041,1041,1041,1041,1043,1043,1044,1044,1045,1056,1068],"ymouse":[635,635,635,635,635,635,635,635,635,635,635,635,635,635,635,635,635,635,635,635,635,635,635,635,635,635,635,635,635,635,635,635,635,635,635,633,614,597,577,536,510,477,450,424,383,367,350,337,328,305,293,279,264,246,213,196,171,157,142,111,98,84,73,64,55,55,55,55,54,54,54,54,54,54,56,60],"timestamp_mouse":[10,29,48,68,88,108,128,148,169,188,208,228,249,268,289,308,328,348,368,388,408,428,449,469,489,508,529,548,569,588,608,628,648,669,689,710,728,749,770,789,809,828,849,868,889,908,928,948,969,988,1008,1028,1048,1068,1088,1109,1128,1148,1168,1188,1208,1228,1248,1268,1288,1308,1328,1348,1368,1389,1408,1428,1449,1468,1488,1509],"xSR":741.5,"ySR":573.95,"xT1":424.9,"yT1":0,"xT2":1058.1,"yT2":0,"toosoon":0,"cond_shown":"Incongruent","ratio_trial":100,"L_num":3,"L_den":5,"R_num":8,"R_den":16,"correct_side":1,"subjID":"MIGUELANGELMENDOZACORDOBA29","gender":"0","school":"6","age":"10"},{"start_time":1551899865333,"click_time":1551899868441,"finger_time":1551899867862,"fix_duration":250,"trial":24,"RT":2529,"MT":579,"sideResp":2,"stimulus":[],"xmouse":[780,780,780,780,780,780,781,781,781,781,781,781,781,781,781,781,781,781,781,781,781,781,781,781,781,781,781,781,781,781,781,781,782,782,782,782,782,782,782,782,782,782,782,782,782,782,782,782,782,782,782,782,782,782,782,782,782,782,782,782,782,782,782,782,782,782,782,782,782,782,782,782,782,782,782,782,782,782,782,782,782,782,782,782,782,782,782,782,782,782,782,782,782,782,782,782,782,782,782,782,782,782,782,782,782,782,782,782,782,782,782,782,782,782,782,782,782,782,782,782,782,783,785,790,799,818,854,872,881,885,888,892,894,894,896,898,904,907,908,909,910,912,915,920,926,937,949,959,974,990,1004,1037,1052,1067,1097,1116],"ymouse":[653,653,653,653,653,653,652,652,652,652,652,652,652,652,652,652,652,652,652,652,652,652,652,652,651,651,651,651,651,651,650,650,650,650,650,650,650,650,650,649,648,647,647,646,646,646,646,646,646,646,646,646,646,646,646,646,646,646,646,646,646,646,646,646,646,646,646,646,646,646,646,646,646,647,649,649,649,649,649,649,649,649,649,649,649,649,649,649,649,649,649,649,649,649,649,649,649,649,649,649,649,649,649,649,649,649,649,649,649,649,649,649,649,649,649,649,649,649,649,649,649,647,641,629,613,574,502,473,451,434,415,377,357,342,326,317,303,298,295,293,292,288,285,280,275,266,254,246,236,224,213,186,171,152,119,91],"timestamp_mouse":[9,28,48,68,88,109,128,148,168,189,208,229,248,268,288,308,328,348,369,389,408,428,448,469,488,509,528,548,568,588,609,629,648,668,688,708,728,748,768,788,808,829,848,868,888,909,928,948,968,988,1008,1028,1049,1068,1088,1108,1128,1148,1168,1188,1208,1228,1248,1268,1288,1310,1328,1348,1368,1389,1409,1428,1448,1468,1488,1508,1528,1548,1568,1589,1608,1629,1649,1668,1688,1708,1729,1748,1769,1788,1808,1828,1848,1869,1888,1908,1928,1948,1968,1988,2008,2029,2050,2068,2088,2108,2128,2148,2168,2188,2209,2230,2249,2268,2288,2308,2329,2348,2368,2388,2408,2429,2448,2469,2489,2508,2529,2548,2569,2588,2608,2628,2648,2669,2689,2709,2728,2748,2768,2788,2809,2828,2848,2870,2888,2909,2929,2949,2968,2988,3008,3029,3049,3069,3088,3108],"xSR":741.5,"ySR":573.95,"xT1":424.9,"yT1":0,"xT2":1058.1,"yT2":0,"toosoon":0,"cond_shown":"Congruent","ratio_trial":200,"L_num":3,"L_den":6,"R_num":14,"R_den":20,"correct_side":2,"subjID":"MIGUELANGELMENDOZACORDOBA29","gender":"0","school":"6","age":"10"},{"start_time":1551899876693,"click_time":1551899878001,"finger_time":1551899877601,"fix_duration":349.7004583214019,"trial":25,"RT":908,"MT":400,"sideResp":2,"stimulus":[],"xmouse":[784,784,784,784,781,780,779,779,779,779,779,779,779,779,779,779,779,779,779,779,779,779,779,779,779,779,779,779,779,779,779,779,778,778,778,778,778,784,787,789,790,790,792,801,809,817,823,823,828,841,864,892,920,964,974,979,995,1007,1030,1042,1052,1062,1069,1080,1085,1089],"ymouse":[624,624,624,624,625,626,626,626,626,626,626,626,626,626,626,626,626,626,626,626,626,626,626,626,626,626,626,626,626,626,626,626,626,626,626,626,626,626,626,626,626,626,625,611,594,571,524,494,438,394,318,251,174,37,0,0,0,0,0,0,0,0,0,0,0,2],"timestamp_mouse":[8,30,48,68,90,108,128,148,168,188,209,229,248,269,289,308,329,348,368,389,408,429,449,468,488,508,528,548,568,588,609,628,648,669,689,708,728,749,768,788,808,828,849,869,888,908,928,948,968,988,1008,1028,1049,1068,1089,1109,1128,1148,1168,1188,1208,1229,1249,1268,1288,1308],"xSR":741.5,"ySR":573.95,"xT1":424.9,"yT1":0,"xT2":1058.1,"yT2":0,"toosoon":0,"cond_shown":"Congruent","ratio_trial":200,"L_num":3,"L_den":10,"R_num":7,"R_den":14,"correct_side":2,"subjID":"MIGUELANGELMENDOZACORDOBA29","gender":"0","school":"6","age":"10"},{"start_time":1551899879724,"click_time":1551899880781,"finger_time":1551899880182,"fix_duration":501.096097575764,"trial":26,"RT":458,"MT":599,"sideResp":1,"stimulus":[],"xmouse":[818,818,818,818,818,818,818,818,818,818,818,818,816,814,813,813,811,809,806,805,803,802,793,778,739,709,652,629,602,578,559,533,522,513,509,509,509,509,509,509,509,507,502,494,476,466,464,464,464,464,464,464,465],"ymouse":[609,609,609,609,609,609,609,609,609,609,609,609,610,610,609,608,607,605,603,602,599,593,560,518,426,351,211,155,105,65,31,0,0,0,0,0,0,0,0,0,0,0,0,0,0,0,0,0,0,0,0,0,6],"timestamp_mouse":[17,38,58,77,97,117,137,158,177,197,218,238,258,278,297,318,337,357,377,398,417,438,458,478,498,518,538,558,577,598,617,637,658,677,698,718,737,757,777,797,817,838,857,877,897,917,937,957,979,997,1018,1037,1057],"xSR":741.5,"ySR":573.95,"xT1":424.9,"yT1":0,"xT2":1058.1,"yT2":0,"toosoon":0,"cond_shown":"Incongruent","ratio_trial":200,"L_num":4,"L_den":30,"R_num":1,"R_den":3,"correct_side":2,"subjID":"MIGUELANGELMENDOZACORDOBA29","gender":"0","school":"6","age":"10"},{"start_time":1551899884708,"click_time":1551899887042,"finger_time":1551899886082,"fix_duration":745.9668807731578,"trial":27,"RT":1374,"MT":960,"sideResp":2,"stimulus":[],"xmouse":[792,792,792,792,792,792,792,792,792,792,792,792,792,792,792,792,792,792,792,792,792,792,792,792,792,792,792,792,792,792,792,792,792,792,792,792,792,792,790,783,776,767,759,759,759,759,759,759,757,757,756,755,754,753,753,753,752,751,751,751,750,750,750,750,750,750,748,746,733,724,718,712,709,700,694,686,681,673,669,668,667,666,666,666,668,672,678,692,699,703,709,717,747,767,790,821,842,885,902,919,935,949,984,996,1012,1026,1041,1046,1047,1048,1050,1054,1056,1057,1057,1058,1061],"ymouse":[630,630,630,630,630,630,630,630,630,630,630,630,630,630,630,630,630,630,630,630,630,630,630,630,630,630,630,630,630,630,630,630,630,630,630,630,630,630,626,619,612,606,602,602,602,602,602,602,601,600,597,596,591,590,589,588,587,584,584,584,584,584,584,584,584,583,582,579,565,557,552,542,531,502,488,469,459,437,428,424,419,417,412,410,406,397,388,366,353,344,331,320,297,284,268,248,236,214,206,195,183,173,137,120,103,85,71,66,66,65,65,65,65,65,65,65,65],"timestamp_mouse":[13,33,54,73,93,113,134,153,174,193,213,234,253,272,293,313,333,353,374,393,413,433,453,473,493,514,533,553,573,593,613,634,654,673,693,713,734,754,773,794,812,833,854,873,893,913,933,953,973,993,1013,1034,1054,1074,1093,1113,1133,1153,1173,1193,1213,1232,1253,1273,1293,1313,1333,1353,1374,1393,1413,1434,1453,1474,1493,1514,1533,1553,1573,1594,1614,1633,1653,1674,1693,1713,1734,1754,1773,1794,1814,1833,1853,1874,1893,1914,1934,1953,1974,1994,2013,2033,2053,2074,2093,2114,2133,2152,2174,2193,2213,2233,2254,2273,2293,2314,2334],"xSR":741.5,"ySR":573.95,"xT1":424.9,"yT1":0,"xT2":1058.1,"yT2":0,"toosoon":0,"cond_shown":"Congruent","ratio_trial":100,"L_num":3,"L_den":20,"R_num":4,"R_den":16,"correct_side":2,"subjID":"MIGUELANGELMENDOZACORDOBA29","gender":"0","school":"6","age":"10"},{"start_time":1551899888172,"click_time":1551899889741,"finger_time":1551899889341,"fix_duration":250,"trial":28,"RT":1169,"MT":400,"sideResp":2,"stimulus":[],"xmouse":[817,817,816,815,804,800,799,799,799,799,799,799,799,799,799,799,799,799,799,799,799,799,799,799,799,799,799,799,799,799,799,799,799,799,799,799,799,799,799,799,799,799,799,799,799,799,799,799,799,799,799,799,799,800,804,808,813,820,827,842,849,858,872,893,920,931,941,949,960,987,1002,1020,1041,1054,1075,1085,1095,1106,1115],"ymouse":[619,619,619,619,619,619,619,619,619,619,619,619,619,619,619,619,619,619,619,619,619,619,619,619,619,619,619,619,619,619,619,619,619,619,619,619,619,619,619,619,619,619,619,619,619,619,619,619,619,619,619,619,618,617,611,605,596,584,571,540,521,504,486,461,426,408,387,367,348,302,281,254,223,203,170,153,134,115,96],"timestamp_mouse":[9,29,50,70,89,109,129,150,169,189,210,229,249,269,289,309,329,349,370,390,408,429,449,470,489,509,530,550,569,590,609,630,650,669,689,710,730,749,769,789,809,829,848,870,890,909,930,949,969,989,1009,1030,1050,1069,1089,1109,1130,1149,1169,1189,1209,1229,1249,1270,1289,1309,1329,1349,1369,1390,1409,1430,1449,1469,1489,1509,1529,1549,1569],"xSR":741.5,"ySR":573.95,"xT1":424.9,"yT1":0,"xT2":1058.1,"yT2":0,"toosoon":0,"cond_shown":"Incongruent","ratio_trial":200,"L_num":3,"L_den":4,"R_num":11,"R_den":20,"correct_side":1,"subjID":"MIGUELANGELMENDOZACORDOBA29","gender":"0","school":"6","age":"10"},{"start_time":1551899904052,"click_time":1551899905241,"finger_time":1551899904841,"fix_duration":1250.7288507550625,"trial":29,"RT":789,"MT":400,"sideResp":1,"stimulus":[],"xmouse":[783,783,783,783,783,783,783,783,783,783,783,783,783,783,783,783,783,783,783,783,783,783,783,783,783,783,783,783,783,783,783,783,783,783,782,782,781,781,781,786,792,795,798,803,807,815,820,821,823,823,823,823,823,822,818,788,747,685,602,435],"ymouse":[626,626,626,626,626,626,626,626,626,626,626,626,626,626,626,626,626,626,626,626,626,626,626,626,626,626,626,626,626,626,626,626,626,626,626,622,611,600,585,567,551,545,539,532,527,517,510,505,499,499,499,499,499,498,495,465,412,337,248,87],"timestamp_mouse":[10,30,49,69,90,109,129,149,169,190,209,229,250,270,290,309,329,349,369,389,409,428,449,469,490,509,529,549,569,589,609,629,649,669,689,709,729,749,769,789,809,830,849,869,888,909,929,950,969,989,1008,1029,1049,1070,1089,1109,1129,1150,1168,1189],"xSR":741.5,"ySR":573.95,"xT1":424.9,"yT1":0,"xT2":1058.1,"yT2":0,"toosoon":0,"cond_shown":"Incongruent","ratio_trial":200,"L_num":7,"L_den":10,"R_num":8,"R_den":16,"correct_side":1,"subjID":"MIGUELANGELMENDOZACORDOBA29","gender":"0","school":"6","age":"10"},{"start_time":1551899907971,"click_time":1551899909222,"finger_time":1551899908581,"fix_duration":250,"trial":30,"RT":610,"MT":641,"sideResp":1,"stimulus":[],"xmouse":[798,798,798,798,798,798,798,798,798,798,798,798,798,798,799,799,799,799,800,800,801,801,802,803,803,803,803,801,798,768,743,708,648,614,594,599,614,630,641,649,653,653,653,653,653,653,650,644,635,584,559,545,534,532,531,530,530,530,529,526,524,522,512],"ymouse":[633,633,633,633,633,633,633,633,633,633,631,627,624,621,617,615,611,609,609,607,604,600,594,591,589,588,588,587,587,579,568,554,521,498,451,411,369,331,304,283,261,259,258,258,258,256,252,245,236,212,201,192,182,175,172,169,169,169,169,160,151,131,62],"timestamp_mouse":[11,30,50,71,90,110,130,150,170,191,210,230,251,271,291,311,330,350,370,390,410,431,450,470,490,511,530,551,570,591,610,630,650,670,690,710,731,751,770,790,810,829,849,871,890,910,930,951,971,990,1010,1031,1050,1070,1091,1110,1130,1150,1170,1190,1210,1231,1250],"xSR":741.5,"ySR":573.95,"xT1":424.9,"yT1":0,"xT2":1058.1,"yT2":0,"toosoon":0,"cond_shown":"Incongruent","ratio_trial":300,"L_num":4,"L_den":20,"R_num":2,"R_den":4,"correct_side":2,"subjID":"MIGUELANGELMENDOZACORDOBA29","gender":"0","school":"6","age":"10"},{"start_time":1551899912044,"click_time":1551899913221,"finger_time":1551899912961,"fix_duration":622.4010228158927,"trial":31,"RT":917,"MT":260,"sideResp":2,"stimulus":[],"xmouse":[803,803,803,803,803,803,803,803,803,803,803,803,803,803,803,803,803,803,803,803,803,803,803,803,803,803,803,803,803,803,803,803,803,803,803,803,803,803,803,803,803,803,803,803,806,820,828,834,840,844,860,881,913,946,984,1052,1087,1095,1107],"ymouse":[616,616,616,616,616,616,616,616,616,616,616,616,616,616,616,616,616,616,616,616,616,616,616,616,616,616,616,616,616,616,616,616,616,616,616,616,616,616,616,616,616,616,616,608,602,570,553,537,524,516,497,480,452,416,366,251,169,139,66],"timestamp_mouse":[22,38,57,77,97,118,137,157,177,198,217,237,258,277,298,317,338,358,377,397,417,437,458,478,497,516,538,558,577,598,617,638,658,676,697,718,737,757,778,797,818,837,857,877,897,917,938,958,977,998,1017,1037,1057,1077,1098,1118,1137,1158,1176],"xSR":741.5,"ySR":573.95,"xT1":424.9,"yT1":0,"xT2":1058.1,"yT2":0,"toosoon":0,"cond_shown":"Congruent","ratio_trial":100,"L_num":3,"L_den":20,"R_num":4,"R_den":16,"correct_side":2,"subjID":"MIGUELANGELMENDOZACORDOBA29","gender":"0","school":"6","age":"10"},{"start_time":1551899914879,"click_time":1551899916241,"finger_time":1551899915661,"fix_duration":957.1974139743828,"trial":32,"RT":782,"MT":580,"sideResp":2,"stimulus":[],"xmouse":[778,778,778,778,778,778,778,778,778,778,778,778,778,778,778,778,778,778,778,778,778,778,778,778,778,778,778,778,778,778,778,778,778,778,778,780,784,800,815,848,860,867,872,875,878,882,884,886,887,887,889,892,899,905,917,924,932,947,959,978,985,992,1001,1011,1022,1039,1053,1056,1063],"ymouse":[632,632,632,632,632,632,632,632,632,632,632,632,632,632,632,632,632,632,632,632,632,632,632,632,632,632,632,632,632,632,632,632,632,632,632,629,624,612,599,561,543,526,515,511,502,494,487,474,465,446,436,424,414,403,381,368,354,329,310,278,264,246,228,212,191,151,120,111,89],"timestamp_mouse":[5,23,43,63,82,102,123,142,162,182,203,222,242,263,282,303,322,342,363,383,402,422,442,462,482,502,523,542,563,583,602,623,642,663,683,703,723,742,763,782,803,822,842,862,882,903,923,942,963,982,1002,1022,1043,1063,1082,1102,1122,1141,1162,1182,1203,1222,1243,1262,1282,1302,1321,1341,1362],"xSR":741.5,"ySR":573.95,"xT1":424.9,"yT1":0,"xT2":1058.1,"yT2":0,"toosoon":0,"cond_shown":"Congruent","ratio_trial":300,"L_num":1,"L_den":5,"R_num":3,"R_den":6,"correct_side":2,"subjID":"MIGUELANGELMENDOZACORDOBA29","gender":"0","school":"6","age":"10"},{"start_time":1551899917714,"click_time":1551899919542,"finger_time":1551899918981,"fix_duration":651.4135568542041,"trial":33,"RT":1267,"MT":561,"sideResp":2,"stimulus":[],"xmouse":[822,822,822,822,822,822,822,822,822,822,822,822,822,822,822,822,822,822,822,822,822,822,822,822,822,822,822,822,822,822,822,822,822,822,822,822,822,822,822,822,822,822,822,822,822,824,826,827,828,829,829,829,829,830,830,830,830,830,830,830,830,831,834,835,840,849,859,886,900,920,936,951,969,974,977,980,982,988,995,1005,1013,1021,1028,1032,1035,1040,1045,1059,1067,1075,1084,1092],"ymouse":[601,601,601,601,601,601,601,601,601,601,601,601,601,601,601,601,601,601,601,601,601,601,601,601,601,601,601,601,601,601,601,601,601,601,601,601,601,601,601,601,601,601,601,601,601,598,595,593,591,590,589,589,587,586,586,586,586,586,586,584,583,580,574,570,563,548,533,497,478,450,428,406,378,372,367,362,358,344,329,311,288,262,222,212,203,193,185,161,143,125,108,89],"timestamp_mouse":[9,27,52,68,88,107,127,148,167,188,207,228,247,267,287,307,328,347,367,387,407,427,447,468,487,507,527,547,567,587,608,627,647,668,687,707,727,748,768,788,808,827,847,867,888,907,927,947,968,987,1007,1028,1047,1067,1087,1107,1128,1147,1167,1187,1208,1227,1248,1267,1287,1307,1328,1348,1368,1387,1407,1428,1447,1467,1487,1507,1527,1547,1567,1588,1607,1627,1647,1668,1687,1708,1728,1748,1767,1788,1807,1828],"xSR":741.5,"ySR":573.95,"xT1":424.9,"yT1":0,"xT2":1058.1,"yT2":0,"toosoon":0,"cond_shown":"Incongruent","ratio_trial":300,"L_num":8,"L_den":10,"R_num":14,"R_den":28,"correct_side":1,"subjID":"MIGUELANGELMENDOZACORDOBA29","gender":"0","school":"6","age":"10"},{"start_time":1551899921235,"click_time":1551899922561,"finger_time":1551899922022,"fix_duration":273.32977403523387,"trial":34,"RT":787,"MT":539,"sideResp":1,"stimulus":[],"xmouse":[817,817,817,817,817,817,817,817,817,816,816,816,816,816,816,816,816,816,816,816,816,816,816,816,816,816,814,814,814,813,813,812,811,808,807,804,795,787,771,739,709,628,593,567,553,547,545,544,540,540,540,540,540,540,540,540,538,531,517,497,489,488,488,488,488,488,490],"ymouse":[657,654,653,653,653,653,653,653,653,652,652,652,652,652,652,652,652,652,652,652,652,652,652,652,652,652,652,652,651,651,650,649,648,646,644,640,620,606,587,555,528,456,418,377,347,321,281,267,256,251,250,250,250,250,249,249,243,234,227,214,204,183,166,146,126,108,90],"timestamp_mouse":[7,30,46,66,86,106,126,146,166,186,207,226,246,266,286,306,326,346,366,386,406,427,446,466,487,507,526,546,566,586,606,627,647,667,687,706,726,747,766,787,806,827,846,866,887,907,926,946,967,986,1006,1027,1045,1067,1087,1107,1126,1147,1166,1186,1207,1226,1246,1267,1287,1306,1326],"xSR":741.5,"ySR":573.95,"xT1":424.9,"yT1":0,"xT2":1058.1,"yT2":0,"toosoon":0,"cond_shown":"Congruent","ratio_trial":300,"L_num":4,"L_den":5,"R_num":2,"R_den":4,"correct_side":1,"subjID":"MIGUELANGELMENDOZACORDOBA29","gender":"0","school":"6","age":"10"},{"start_time":1551899924921,"click_time":1551899926282,"finger_time":1551899925642,"fix_duration":797.1068836139403,"trial":35,"RT":721,"MT":640,"sideResp":2,"stimulus":[],"xmouse":[789,789,789,789,789,789,789,789,789,789,789,789,789,789,789,789,789,789,789,789,789,789,789,789,789,789,789,789,789,789,789,791,796,804,809,819,836,854,862,867,877,884,896,899,903,910,918,931,935,939,942,947,963,975,976,983,992,999,1006,1011,1015,1019,1029,1031,1035,1041,1049,1067,1080],"ymouse":[656,656,656,656,656,656,656,656,656,656,656,656,656,656,656,656,656,656,656,656,656,656,656,656,656,656,656,656,654,652,651,645,633,611,598,577,540,496,474,453,431,413,383,373,365,353,343,328,323,316,311,305,289,278,275,266,252,244,232,224,217,209,194,188,177,164,144,102,72],"timestamp_mouse":[3,21,41,60,80,101,121,140,160,180,200,221,240,259,281,300,320,340,360,381,400,421,441,461,480,500,520,540,560,581,600,621,639,660,680,700,721,741,760,780,800,821,841,860,881,901,920,940,961,980,1000,1020,1040,1059,1081,1100,1120,1140,1161,1180,1200,1220,1240,1260,1280,1300,1321,1340,1360],"xSR":741.5,"ySR":573.95,"xT1":424.9,"yT1":0,"xT2":1058.1,"yT2":0,"toosoon":0,"cond_shown":"Congruent","ratio_trial":100,"L_num":4,"L_den":10,"R_num":15,"R_den":30,"correct_side":2,"subjID":"MIGUELANGELMENDOZACORDOBA29","gender":"0","school":"6","age":"10"},{"start_time":1551899927412,"click_time":1551899928961,"finger_time":1551899928181,"fix_duration":250,"trial":36,"RT":769,"MT":780,"sideResp":1,"stimulus":[],"xmouse":[796,796,796,796,796,796,796,796,796,796,796,796,796,796,796,796,796,796,796,796,796,796,796,796,796,796,796,796,796,796,796,796,796,792,788,785,784,784,782,780,777,776,774,771,766,762,755,735,726,717,699,688,675,651,640,628,616,600,595,590,587,584,581,580,579,575,572,562,557,552,550,549,545,537,533,532,528,522],"ymouse":[631,631,631,631,631,631,631,631,631,631,631,631,631,631,631,631,631,631,631,631,631,631,631,631,631,631,631,631,631,631,631,631,625,615,608,602,597,589,560,549,539,537,527,517,502,484,461,411,388,367,334,313,292,252,232,211,192,158,145,132,123,119,113,111,109,104,98,85,80,75,72,71,67,64,63,63,63,62],"timestamp_mouse":[10,30,49,70,89,110,129,150,169,190,210,229,249,269,289,310,328,349,369,389,410,429,450,470,490,509,529,549,569,589,609,629,649,670,690,709,730,749,769,789,810,829,849,869,890,909,929,950,969,990,1009,1029,1049,1069,1089,1109,1129,1149,1169,1190,1209,1229,1250,1270,1289,1310,1329,1350,1369,1389,1410,1429,1449,1469,1489,1510,1529,1549],"xSR":741.5,"ySR":573.95,"xT1":424.9,"yT1":0,"xT2":1058.1,"yT2":0,"toosoon":0,"cond_shown":"Incongruent","ratio_trial":300,"L_num":13,"L_den":26,"R_num":12,"R_den":15,"correct_side":2,"subjID":"MIGUELANGELMENDOZACORDOBA29","gender":"0","school":"6","age":"10"},{"start_time":1551899931165,"click_time":1551899932201,"finger_time":1551899931921,"fix_duration":1282.551394930072,"trial":37,"RT":756,"MT":280,"sideResp":2,"stimulus":[],"xmouse":[803,803,803,803,803,803,803,803,803,803,803,803,803,803,803,803,803,803,803,803,803,803,803,803,802,800,799,798,798,798,798,798,798,799,799,800,802,805,810,832,848,874,896,924,999,1032,1063,1097,1120,1142,1147,1150],"ymouse":[611,611,611,611,611,611,611,611,611,611,611,611,611,611,611,611,611,611,611,611,611,611,611,611,607,603,599,595,592,587,585,584,582,582,581,579,577,572,567,541,524,498,477,451,385,349,305,249,204,128,102,79],"timestamp_mouse":[17,37,56,76,97,116,136,157,176,196,216,236,256,277,296,316,337,356,377,396,416,437,457,476,496,516,536,557,577,597,616,636,656,676,696,715,736,756,776,796,816,835,857,877,896,916,936,957,976,996,1016,1036],"xSR":741.5,"ySR":573.95,"xT1":424.9,"yT1":0,"xT2":1058.1,"yT2":0,"toosoon":0,"cond_shown":"Incongruent","ratio_trial":200,"L_num":1,"L_den":3,"R_num":2,"R_den":15,"correct_side":1,"subjID":"MIGUELANGELMENDOZACORDOBA29","gender":"0","school":"6","age":"10"},{"start_time":1551899934605,"click_time":1551899935762,"finger_time":1551899935502,"fix_duration":1102.0702358786236,"trial":38,"RT":897,"MT":260,"sideResp":2,"stimulus":[],"xmouse":[781,781,781,781,781,781,781,781,781,781,781,781,781,781,781,781,781,781,781,781,781,781,781,781,781,781,781,781,781,781,781,781,781,781,781,781,781,784,790,795,807,813,826,830,834,837,841,857,871,882,901,913,945,976,1007,1040,1073,1125],"ymouse":[652,652,652,652,652,652,652,652,652,652,652,652,652,652,652,652,652,652,652,652,652,652,652,652,652,652,652,652,652,652,652,652,652,652,652,652,650,644,636,625,607,597,580,575,569,564,556,537,527,513,492,472,420,367,306,233,158,12],"timestamp_mouse":[16,36,56,75,96,116,136,156,176,197,216,236,256,276,297,316,337,357,376,396,416,436,457,476,495,516,536,556,576,596,617,636,656,677,696,715,736,756,776,795,816,836,856,876,897,916,936,955,976,997,1015,1036,1055,1076,1096,1116,1136,1157],"xSR":741.5,"ySR":573.95,"xT1":424.9,"yT1":0,"xT2":1058.1,"yT2":0,"toosoon":0,"cond_shown":"Incongruent","ratio_trial":100,"L_num":3,"L_den":5,"R_num":8,"R_den":16,"correct_side":1,"subjID":"MIGUELANGELMENDOZACORDOBA29","gender":"0","school":"6","age":"10"},{"start_time":1551899939292,"click_time":1551899940161,"finger_time":1551899939761,"fix_duration":1229.626330551375,"trial":39,"RT":469,"MT":400,"sideResp":1,"stimulus":[],"xmouse":[801,801,801,801,801,801,801,801,801,801,801,801,801,801,801,801,801,801,801,801,800,796,789,773,766,764,763,763,761,757,750,739,719,665,634,612,589,576,540,519,493,471,451,434],"ymouse":[610,610,610,610,610,610,610,610,610,610,610,610,610,610,610,610,610,610,610,610,602,596,587,572,567,566,565,564,562,558,552,542,528,490,467,447,415,387,315,273,228,182,136,71],"timestamp_mouse":[9,29,49,69,89,110,128,149,170,189,209,230,250,270,289,310,329,349,370,390,409,429,449,469,489,509,530,550,569,589,610,630,649,670,689,710,729,749,769,789,810,830,850,868],"xSR":741.5,"ySR":573.95,"xT1":424.9,"yT1":0,"xT2":1058.1,"yT2":0,"toosoon":0,"cond_shown":"Congruent","ratio_trial":100,"L_num":3,"L_den":6,"R_num":2,"R_den":5,"correct_side":1,"subjID":"MIGUELANGELMENDOZACORDOBA29","gender":"0","school":"6","age":"10"},{"start_time":1551899941903,"click_time":1551899942901,"finger_time":1551899942582,"fix_duration":681.5402030916426,"trial":40,"RT":679,"MT":319,"sideResp":1,"stimulus":[],"xmouse":[798,798,798,798,798,798,798,798,798,798,798,798,798,798,798,798,798,798,798,798,798,798,798,798,798,798,798,798,798,798,798,799,801,801,801,801,799,792,790,784,775,762,721,697,644,614,598,566,546,523],"ymouse":[597,597,597,597,597,597,597,597,597,597,597,597,597,597,597,597,597,597,597,597,597,597,597,597,597,595,594,592,591,590,588,586,576,566,555,540,531,519,515,508,497,482,435,406,338,280,226,117,71,29],"timestamp_mouse":[18,38,59,78,98,118,139,158,178,199,219,238,258,277,299,319,338,358,378,398,419,439,458,478,498,518,538,558,578,598,618,639,658,679,698,719,738,758,778,798,819,838,858,879,898,918,939,959,978,998],"xSR":741.5,"ySR":573.95,"xT1":424.9,"yT1":0,"xT2":1058.1,"yT2":0,"toosoon":0,"cond_shown":"Congruent","ratio_trial":100,"L_num":15,"L_den":25,"R_num":13,"R_den":26,"correct_side":1,"subjID":"MIGUELANGELMENDOZACORDOBA29","gender":"0","school":"6","age":"10"},{"start_time":1551899944292,"click_time":1551899945141,"finger_time":1551899944741,"fix_duration":290.90230086371747,"trial":41,"RT":449,"MT":400,"sideResp":2,"stimulus":[],"xmouse":[764,764,764,764,764,764,764,764,764,764,764,764,764,764,764,764,765,766,772,779,783,788,794,811,819,826,838,846,861,870,878,888,894,917,931,947,971,985,1019,1030,1045,1053,1060],"ymouse":[593,593,593,593,593,593,593,593,593,593,593,593,593,593,593,593,593,593,592,587,581,575,564,539,528,516,493,478,443,425,406,385,368,324,298,269,227,197,133,106,74,53,31],"timestamp_mouse":[10,29,49,70,89,109,129,149,169,189,209,229,249,269,290,309,329,349,369,390,409,429,449,469,489,510,530,549,569,589,609,629,649,669,689,709,729,748,768,788,808,828,849],"xSR":741.5,"ySR":573.95,"xT1":424.9,"yT1":0,"xT2":1058.1,"yT2":0,"toosoon":0,"cond_shown":"Congruent","ratio_trial":100,"L_num":8,"L_den":16,"R_num":2,"R_den":5,"correct_side":1,"subjID":"MIGUELANGELMENDOZACORDOBA29","gender":"0","school":"6","age":"10"},{"start_time":1551899946505,"click_time":1551899947281,"finger_time":1551899946881,"fix_duration":362.224007125388,"trial":42,"RT":376,"MT":400,"sideResp":1,"stimulus":[],"xmouse":[798,798,798,798,798,798,798,798,797,797,797,796,794,791,788,778,766,756,731,724,717,710,691,679,666,656,649,632,621,610,598,584,544,528,500,484,469,460,441],"ymouse":[634,634,634,634,634,634,634,634,634,634,634,634,634,634,633,628,621,613,588,572,556,537,496,476,450,436,423,387,369,349,330,304,245,221,181,157,137,119,93],"timestamp_mouse":[16,36,57,77,95,115,135,156,177,195,215,236,255,276,297,316,337,356,376,395,417,436,456,476,496,517,537,555,575,595,616,636,656,677,696,717,737,755,775],"xSR":741.5,"ySR":573.95,"xT1":424.9,"yT1":0,"xT2":1058.1,"yT2":0,"toosoon":0,"cond_shown":"Congruent","ratio_trial":200,"L_num":14,"L_den":28,"R_num":6,"R_den":20,"correct_side":1,"subjID":"MIGUELANGELMENDOZACORDOBA29","gender":"0","school":"6","age":"10"},{"start_time":1551899948612,"click_time":1551899950381,"finger_time":1551899949860,"fix_duration":250,"trial":43,"RT":1248,"MT":521,"sideResp":1,"stimulus":[],"xmouse":[816,816,816,816,816,816,816,816,816,816,816,816,816,816,816,816,816,816,816,816,816,816,816,816,816,816,816,816,816,816,816,816,816,816,816,816,816,816,816,816,816,816,816,816,816,816,816,816,816,816,816,816,816,816,816,816,816,816,816,816,808,785,723,688,666,651,637,617,609,607,599,593,590,590,590,588,580,559,543,525,521,507,502,499,498,498,498,496,496],"ymouse":[632,632,632,632,632,632,632,632,632,632,632,632,632,632,632,632,632,632,632,632,632,632,632,632,632,632,632,632,632,632,632,632,632,632,632,632,632,632,632,632,632,632,632,632,632,632,632,632,632,632,632,632,632,632,632,632,632,632,632,632,622,600,544,514,492,472,448,388,337,322,288,273,269,269,269,267,260,238,220,192,185,163,152,145,140,133,125,106,99],"timestamp_mouse":[8,29,48,70,89,108,128,149,169,189,208,230,250,269,288,309,328,350,369,388,410,429,450,468,489,510,529,549,570,589,609,629,648,669,689,708,730,749,769,788,809,829,848,868,889,909,928,950,969,989,1008,1029,1049,1069,1089,1110,1129,1148,1170,1188,1209,1228,1248,1269,1288,1309,1329,1348,1369,1389,1409,1430,1448,1469,1489,1509,1530,1548,1569,1589,1608,1630,1649,1668,1689,1708,1728,1748,1769],"xSR":741.5,"ySR":573.95,"xT1":424.9,"yT1":0,"xT2":1058.1,"yT2":0,"toosoon":0,"cond_shown":"Incongruent","ratio_trial":100,"L_num":6,"L_den":12,"R_num":3,"R_den":5,"correct_side":2,"subjID":"MIGUELANGELMENDOZACORDOBA29","gender":"0","school":"6","age":"10"},{"start_time":1551899952740,"click_time":1551899953860,"finger_time":1551899953521,"fix_duration":1459.3791603620512,"trial":44,"RT":781,"MT":339,"sideResp":2,"stimulus":[],"xmouse":[789,789,789,789,789,789,789,789,789,789,789,789,789,789,789,789,789,789,789,789,789,789,789,789,789,789,789,789,789,789,789,789,789,789,789,789,791,806,825,859,903,978,1002,1022,1031,1039,1051,1058,1062,1065,1065,1065,1065,1065,1065,1068,1075],"ymouse":[639,639,639,639,639,639,639,639,639,639,639,639,639,639,639,639,639,639,639,639,639,639,639,639,639,639,639,639,639,639,639,639,639,639,639,639,638,626,610,590,566,515,494,468,451,437,398,375,352,328,304,251,226,200,160,137,88],"timestamp_mouse":[4,21,41,60,81,101,120,140,160,181,200,222,240,260,282,302,321,340,360,382,402,421,440,462,481,502,522,542,560,580,601,622,641,660,680,700,722,741,761,781,801,820,841,860,880,902,920,941,961,982,1000,1021,1041,1062,1080,1101,1120],"xSR":741.5,"ySR":573.95,"xT1":424.9,"yT1":0,"xT2":1058.1,"yT2":0,"toosoon":0,"cond_shown":"Congruent","ratio_trial":100,"L_num":2,"L_den":5,"R_num":6,"R_den":12,"correct_side":2,"subjID":"MIGUELANGELMENDOZACORDOBA29","gender":"0","school":"6","age":"10"},{"start_time":1551899955611,"click_time":1551899957320,"finger_time":1551899957102,"fix_duration":788.389289669005,"trial":45,"RT":1491,"MT":218,"sideResp":2,"stimulus":[],"xmouse":[772,772,772,772,772,772,772,772,772,772,772,772,772,772,772,772,772,772,772,772,772,772,772,772,772,772,772,772,772,772,772,772,772,772,772,772,772,772,772,772,772,772,772,772,772,772,772,772,772,772,772,772,772,772,772,772,772,772,772,772,772,772,772,772,772,772,772,772,774,777,777,779,781,800,819,836,851,878,890,901,912,934,976,1011,1046,1081],"ymouse":[623,623,623,623,623,623,623,623,623,623,623,623,623,623,623,623,623,623,623,623,623,623,623,623,623,623,623,623,623,623,623,623,623,623,623,623,623,623,623,623,623,623,623,623,623,623,623,623,623,623,623,623,623,623,623,623,623,623,623,623,623,623,623,623,623,623,623,623,622,619,618,616,611,576,544,506,476,429,409,393,373,332,235,167,100,39],"timestamp_mouse":[10,31,50,69,89,111,130,150,170,190,210,230,250,269,290,309,330,351,369,389,409,431,451,471,490,509,530,550,570,590,611,629,649,670,690,709,730,750,770,790,810,830,849,869,889,909,930,950,970,990,1010,1031,1049,1069,1091,1109,1129,1149,1170,1189,1211,1231,1249,1270,1290,1310,1329,1350,1371,1390,1409,1430,1450,1470,1491,1510,1531,1550,1569,1589,1610,1630,1650,1671,1690,1709],"xSR":741.5,"ySR":573.95,"xT1":424.9,"yT1":0,"xT2":1058.1,"yT2":0,"toosoon":0,"cond_shown":"Incongruent","ratio_trial":100,"L_num":12,"L_den":24,"R_num":9,"R_den":15,"correct_side":2,"subjID":"MIGUELANGELMENDOZACORDOBA29","gender":"0","school":"6","age":"10"},{"start_time":1551899964651,"click_time":1551899966081,"finger_time":1551899965381,"fix_duration":348.1266384195798,"trial":46,"RT":730,"MT":700,"sideResp":2,"stimulus":[],"xmouse":[781,781,781,781,781,781,781,781,781,781,781,781,781,781,781,781,781,781,781,781,781,781,781,781,781,781,780,779,777,776,775,775,774,774,774,774,779,791,801,816,841,848,851,855,861,871,878,886,898,909,927,935,939,944,949,967,983,1001,1011,1020,1031,1033,1034,1034,1036,1038,1040,1041,1046,1049,1054,1062],"ymouse":[631,631,631,631,631,631,631,631,631,631,631,631,631,631,631,631,631,631,631,631,631,631,631,631,631,630,623,614,600,593,586,584,582,581,579,574,559,535,514,488,434,407,380,357,340,318,302,285,257,237,206,194,186,180,175,165,159,150,143,137,126,123,121,120,118,112,108,105,94,88,79,65],"timestamp_mouse":[9,30,49,70,90,109,131,151,170,191,210,230,249,270,290,309,329,351,370,389,410,430,449,469,491,510,530,550,569,590,610,630,649,670,690,710,730,750,770,791,810,830,850,870,891,909,930,950,971,991,1010,1030,1049,1070,1090,1110,1130,1150,1171,1190,1209,1230,1250,1269,1290,1310,1329,1350,1370,1391,1410,1430],"xSR":741.5,"ySR":573.95,"xT1":424.9,"yT1":0,"xT2":1058.1,"yT2":0,"toosoon":0,"cond_shown":"Incongruent","ratio_trial":100,"L_num":6,"L_den":10,"R_num":13,"R_den":26,"correct_side":1,"subjID":"MIGUELANGELMENDOZACORDOBA29","gender":"0","school":"6","age":"10"},{"start_time":1551899969252,"click_time":1551899970602,"finger_time":1551899970281,"fix_duration":529.702861496977,"trial":47,"RT":1029,"MT":321,"sideResp":2,"stimulus":[],"xmouse":[785,785,785,785,785,785,785,785,785,785,785,785,785,785,785,785,785,785,785,785,785,785,785,785,785,785,785,785,785,785,785,785,785,785,785,785,785,785,785,785,785,785,785,785,785,785,784,779,777,771,764,749,742,737,737,755,772,807,818,850,898,924,945,966,992,1043,1055,1066],"ymouse":[638,638,638,638,638,638,638,638,638,638,638,638,638,638,638,638,638,638,638,638,638,638,638,638,638,638,638,638,638,638,638,638,638,638,638,638,638,638,638,638,638,638,638,638,636,632,629,619,614,601,585,550,529,508,484,421,387,335,321,274,211,185,162,139,117,78,64,50],"timestamp_mouse":[10,30,49,69,88,110,130,149,168,189,210,230,249,268,289,309,329,349,368,390,409,429,449,469,489,510,529,549,570,589,609,628,650,670,690,709,730,748,768,790,810,829,848,870,890,909,928,948,969,989,1009,1029,1049,1070,1088,1108,1129,1149,1168,1188,1208,1229,1249,1269,1290,1309,1330,1350],"xSR":741.5,"ySR":573.95,"xT1":424.9,"yT1":0,"xT2":1058.1,"yT2":0,"toosoon":0,"cond_shown":"Congruent","ratio_trial":300,"L_num":1,"L_den":5,"R_num":11,"R_den":22,"correct_side":2,"subjID":"MIGUELANGELMENDOZACORDOBA29","gender":"0","school":"6","age":"10"},{"start_time":1551899973056,"click_time":1551899974441,"finger_time":1551899974102,"fix_duration":1174.1589740381003,"trial":48,"RT":1046,"MT":339,"sideResp":1,"stimulus":[],"xmouse":[825,825,825,825,825,825,825,825,825,825,825,825,825,825,825,825,825,825,825,825,825,825,825,825,825,825,825,825,825,825,825,825,825,825,825,825,825,825,825,825,825,825,825,825,825,825,825,825,825,823,803,783,758,733,712,685,674,658,654,644,638,636,632,629,625,608,593,568,531,474],"ymouse":[627,627,627,627,627,627,627,627,627,627,627,627,627,627,627,627,627,627,627,627,627,627,627,627,627,627,627,627,627,627,627,627,627,627,627,627,627,627,627,627,627,627,627,627,627,627,627,627,627,627,610,594,571,539,509,460,439,402,390,357,330,321,309,295,281,241,215,180,134,73],"timestamp_mouse":[5,25,46,64,85,104,125,145,166,184,206,225,245,266,284,304,324,344,366,386,405,424,445,466,485,504,524,544,564,586,606,625,645,665,686,704,725,746,764,785,804,825,846,864,885,905,925,944,964,985,1006,1025,1046,1065,1085,1105,1125,1144,1164,1184,1205,1224,1245,1264,1285,1304,1325,1346,1365,1385],"xSR":741.5,"ySR":573.95,"xT1":424.9,"yT1":0,"xT2":1058.1,"yT2":0,"toosoon":0,"cond_shown":"Congruent","ratio_trial":100,"L_num":8,"L_den":16,"R_num":2,"R_den":5,"correct_side":1,"subjID":"MIGUELANGELMENDOZACORDOBA29","gender":"0","school":"6","age":"10"},{"start_time":1551899976260,"click_time":1551899977881,"finger_time":1551899977381,"fix_duration":417.5496399027679,"trial":49,"RT":1121,"MT":500,"sideResp":2,"stimulus":[],"xmouse":[795,796,797,797,798,798,798,798,799,800,801,801,801,801,801,803,803,804,804,805,807,807,809,809,809,809,809,809,809,809,809,809,809,809,809,809,809,809,809,809,809,809,809,809,809,809,809,809,809,809,809,809,811,821,827,840,845,847,851,855,864,869,877,884,892,910,923,935,954,971,1006,1022,1034,1044,1052,1065,1070,1075,1080,1086,1095,1098],"ymouse":[643,643,642,642,642,642,642,642,642,642,641,641,641,641,641,639,639,638,638,637,633,633,630,630,630,630,630,630,630,630,630,630,630,630,630,630,630,630,630,630,630,630,630,630,630,630,630,630,630,630,630,630,628,621,613,582,561,541,517,504,473,456,438,420,402,365,347,331,307,294,269,258,246,235,226,204,193,179,164,145,111,96],"timestamp_mouse":[4,21,42,61,81,100,122,141,161,181,202,221,241,260,282,302,321,341,361,380,401,420,441,462,480,500,522,541,560,580,600,620,641,661,680,700,720,741,762,780,801,821,841,860,881,902,920,941,962,981,1000,1021,1042,1061,1082,1101,1121,1141,1161,1180,1200,1221,1241,1260,1282,1301,1321,1342,1362,1382,1401,1420,1441,1461,1481,1501,1522,1541,1562,1581,1601,1621],"xSR":741.5,"ySR":573.95,"xT1":424.9,"yT1":0,"xT2":1058.1,"yT2":0,"toosoon":0,"cond_shown":"Incongruent","ratio_trial":100,"L_num":3,"L_den":5,"R_num":8,"R_den":16,"correct_side":1,"subjID":"MIGUELANGELMENDOZACORDOBA29","gender":"0","school":"6","age":"10"},{"start_time":1551899980772,"click_time":1551899982881,"finger_time":1551899982321,"fix_duration":250,"trial":50,"RT":1549,"MT":560,"sideResp":1,"stimulus":[],"xmouse":[807,807,807,807,807,807,807,807,807,807,807,807,807,807,807,807,807,807,807,807,807,807,807,807,807,807,807,807,807,807,807,807,807,807,807,807,807,807,807,807,807,807,807,807,807,807,807,807,807,807,807,807,807,807,807,807,807,807,807,807,807,807,807,807,807,807,807,807,807,807,807,807,807,807,807,799,780,747,703,649,637,625,614,597,583,581,580,578,577,574,569,564,543,528,487,475,468,466,465,465,465,465,463,462,461,461],"ymouse":[610,610,610,610,610,610,610,610,610,610,610,610,610,610,610,610,610,610,610,610,610,610,610,610,610,610,610,610,610,610,610,610,610,610,610,610,610,610,610,610,610,610,610,610,610,610,610,610,610,610,610,610,610,610,610,610,610,610,610,610,610,610,610,610,610,610,610,610,610,610,610,610,610,610,610,603,581,543,495,425,396,367,342,308,289,286,285,283,280,270,259,250,226,208,168,152,140,135,134,134,134,133,131,122,103,91],"timestamp_mouse":[9,29,49,69,90,108,128,149,169,190,209,229,248,269,290,308,329,349,368,390,409,429,449,470,489,508,528,549,568,588,608,629,649,669,688,708,728,749,768,788,808,829,850,869,888,908,929,948,970,989,1009,1029,1049,1069,1088,1110,1129,1149,1169,1190,1210,1228,1249,1269,1289,1308,1329,1349,1368,1389,1409,1430,1448,1468,1489,1509,1529,1549,1568,1589,1610,1629,1649,1670,1689,1709,1730,1750,1770,1789,1809,1828,1849,1869,1889,1909,1930,1949,1969,1988,2008,2029,2048,2070,2089,2109],"xSR":741.5,"ySR":573.95,"xT1":424.9,"yT1":0,"xT2":1058.1,"yT2":0,"toosoon":0,"cond_shown":"Congruent","ratio_trial":300,"L_num":20,"L_den":25,"R_num":14,"R_den":28,"correct_side":1,"subjID":"MIGUELANGELMENDOZACORDOBA29","gender":"0","school":"6","age":"10"},{"start_time":1551899984375,"click_time":1551899986221,"finger_time":1551899985881,"fix_duration":532.1078195230284,"trial":51,"RT":1506,"MT":340,"sideResp":2,"stimulus":[],"xmouse":[764,764,764,764,764,764,765,765,765,765,765,765,765,765,765,765,765,765,765,765,765,765,765,765,765,765,765,765,765,765,765,765,765,765,765,765,765,765,765,765,765,765,765,765,765,765,765,765,765,765,765,765,765,765,765,765,765,765,765,765,765,765,765,765,765,765,765,765,765,765,765,769,773,792,841,878,907,929,940,951,955,961,969,979,997,1006,1012,1015,1021,1030,1039,1060,1079],"ymouse":[627,627,627,627,627,627,627,627,627,627,627,627,627,627,627,627,627,627,627,627,627,627,627,627,627,627,627,627,627,627,627,627,627,627,627,627,627,627,627,627,627,627,627,627,627,627,627,627,627,627,627,627,627,627,627,627,627,627,627,627,627,627,627,627,627,627,627,627,627,627,627,626,623,610,574,542,520,502,491,474,465,455,438,407,348,315,288,260,234,184,155,105,66],"timestamp_mouse":[7,26,45,66,85,107,127,145,167,187,205,226,245,267,285,305,327,345,365,386,406,426,447,465,487,506,526,545,567,587,605,625,646,665,687,707,725,746,767,785,807,825,846,866,885,907,926,946,966,987,1006,1025,1046,1066,1086,1106,1126,1147,1166,1185,1205,1227,1246,1266,1285,1307,1326,1346,1366,1387,1405,1426,1446,1465,1486,1506,1525,1546,1565,1585,1606,1627,1646,1665,1686,1706,1726,1746,1766,1786,1806,1826,1845],"xSR":741.5,"ySR":573.95,"xT1":424.9,"yT1":0,"xT2":1058.1,"yT2":0,"toosoon":0,"cond_shown":"Congruent","ratio_trial":200,"L_num":20,"L_den":25,"R_num":9,"R_den":15,"correct_side":1,"subjID":"MIGUELANGELMENDOZACORDOBA29","gender":"0","school":"6","age":"10"},{"start_time":1551899988231,"click_time":1551899989602,"finger_time":1551899989140,"fix_duration":668.1427778034176,"trial":52,"RT":909,"MT":462,"sideResp":1,"stimulus":[],"xmouse":[774,774,774,774,774,774,774,774,774,774,774,774,774,774,774,774,774,774,774,774,774,774,774,774,774,774,774,774,774,774,774,774,774,774,774,774,774,774,774,774,774,774,772,770,769,761,750,746,740,733,726,707,698,691,680,660,607,577,548,515,500,491,491,491,491,491,491,490,488],"ymouse":[613,613,613,613,613,613,613,613,613,613,613,613,613,613,613,613,613,613,613,613,613,613,613,613,613,613,613,613,613,613,613,613,613,613,613,613,613,613,613,613,613,613,612,601,585,564,527,509,489,455,433,387,363,337,299,250,129,78,30,0,0,0,0,0,0,0,0,0,1],"timestamp_mouse":[10,29,51,70,90,110,130,150,170,190,209,231,251,269,290,310,329,350,371,390,410,430,451,469,490,510,530,551,569,590,610,630,650,671,689,710,730,750,771,790,810,829,850,870,890,909,930,950,969,991,1009,1029,1050,1070,1091,1110,1129,1150,1170,1190,1210,1230,1251,1269,1289,1310,1329,1350,1371],"xSR":741.5,"ySR":573.95,"xT1":424.9,"yT1":0,"xT2":1058.1,"yT2":0,"toosoon":0,"cond_shown":"Incongruent","ratio_trial":100,"L_num":11,"L_den":22,"R_num":9,"R_den":15,"correct_side":2,"subjID":"MIGUELANGELMENDOZACORDOBA29","gender":"0","school":"6","age":"10"},{"start_time":1551899991645,"click_time":1551899992822,"finger_time":1551899992461,"fix_duration":964.2837431318031,"trial":53,"RT":816,"MT":361,"sideResp":2,"stimulus":[],"xmouse":[805,805,805,805,805,805,805,805,805,805,805,805,805,805,805,805,805,805,805,805,805,805,805,805,805,805,805,805,805,805,805,805,805,805,805,805,806,810,815,820,833,839,847,854,859,865,885,901,925,948,1016,1036,1052,1069,1084,1113,1124,1131,1139],"ymouse":[641,641,641,641,641,641,641,641,641,641,641,641,641,641,641,641,641,641,641,641,641,641,641,641,641,641,641,641,641,641,641,641,641,641,641,637,633,625,607,589,535,504,476,455,443,430,399,379,353,335,293,274,255,234,208,156,135,117,94],"timestamp_mouse":[16,35,56,77,96,115,136,156,176,196,215,236,256,277,295,315,336,357,375,397,417,437,457,475,496,516,535,557,577,597,616,635,657,677,695,715,736,756,777,796,816,837,857,876,895,915,936,957,977,996,1016,1036,1055,1076,1097,1116,1135,1156,1177],"xSR":741.5,"ySR":573.95,"xT1":424.9,"yT1":0,"xT2":1058.1,"yT2":0,"toosoon":0,"cond_shown":"Congruent","ratio_trial":200,"L_num":13,"L_den":26,"R_num":14,"R_den":20,"correct_side":2,"subjID":"MIGUELANGELMENDOZACORDOBA29","gender":"0","school":"6","age":"10"},{"start_time":1551899994085,"click_time":1551899995501,"finger_time":1551899994960,"fix_duration":303.87280505687374,"trial":54,"RT":875,"MT":541,"sideResp":1,"stimulus":[],"xmouse":[812,812,810,810,810,810,810,810,810,810,810,810,810,810,810,810,810,810,810,810,810,810,810,810,810,810,810,810,810,810,810,810,808,805,802,798,797,796,796,794,792,788,777,718,681,645,624,620,620,620,619,617,615,592,573,543,494,471,439,434,433,433,433,433,433,433,433,435,450,459,477],"ymouse":[644,641,638,636,633,633,633,633,633,633,633,633,633,633,633,633,633,633,633,633,633,633,633,633,633,633,633,633,633,633,633,633,632,628,624,620,619,619,619,618,615,609,593,516,464,424,390,383,383,383,382,378,370,335,312,280,233,206,161,145,137,129,123,119,119,119,117,116,109,103,93],"timestamp_mouse":[17,36,57,76,95,115,135,156,175,196,217,237,255,276,297,315,337,355,375,396,416,436,456,475,496,516,536,555,575,596,615,637,656,676,695,716,736,756,776,796,815,836,856,875,896,917,937,956,975,996,1016,1037,1055,1075,1096,1116,1137,1155,1176,1196,1217,1236,1257,1275,1296,1316,1336,1356,1376,1396,1416],"xSR":741.5,"ySR":573.95,"xT1":424.9,"yT1":0,"xT2":1058.1,"yT2":0,"toosoon":0,"cond_shown":"Incongruent","ratio_trial":100,"L_num":13,"L_den":26,"R_num":12,"R_den":20,"correct_side":2,"subjID":"MIGUELANGELMENDOZACORDOBA29","gender":"0","school":"6","age":"10"},{"start_time":1551899998453,"click_time":1551900000282,"finger_time":1551899999920,"fix_duration":250,"trial":55,"RT":1467,"MT":362,"sideResp":2,"stimulus":[],"xmouse":[781,781,781,781,781,781,779,779,779,779,779,779,779,779,779,779,779,779,778,778,778,778,778,778,778,778,778,778,778,777,775,773,773,773,773,773,773,773,773,773,773,773,773,773,773,773,773,773,773,773,773,773,773,773,773,773,773,773,773,773,773,773,773,773,773,773,773,773,773,774,779,789,796,80