[{"start_time":1551900587172,"click_time":1551900588823,"finger_time":1551900587184,"fix_duration":1027.8865682130884,"trial":0,"RT":12,"MT":1639,"sideResp":2,"stimulus":"img/500/equaldotsize/L/11_Ratio_500_L_12_R_6.png","xmouse":[785,785,785,785,785,785,785,785,785,785,785,785,785,785,785,785,785,785,785,785,785,785,785,785,785,785,785,785,784,783,781,781,781,780,780,780,780,780,778,777,777,777,777,777,777,777,777,777,777,777,777,777,777,777,777,777,777,777,777,777,777,777,777,788,811,848,887,932,1002,1037,1049,1074,1081,1090,1091,1092,1092,1092,1092,1092,1093,1094,1097],"ymouse":[481,481,481,481,481,481,481,481,481,481,481,481,481,481,481,481,481,481,481,481,481,481,481,481,481,481,481,482,490,495,503,505,510,513,513,513,513,515,526,537,552,567,570,571,571,571,571,571,571,571,571,571,571,571,571,571,571,571,571,571,571,571,571,557,523,464,397,322,209,170,161,141,134,121,119,117,117,117,117,117,116,105,94],"timestamp_mouse":[12,32,51,70,90,111,131,150,171,191,210,230,251,271,291,310,330,352,372,390,411,431,451,471,491,511,530,551,570,590,610,632,651,671,692,710,731,752,770,791,811,830,850,871,890,912,931,950,970,992,1011,1030,1051,1071,1090,1110,1131,1151,1172,1190,1210,1230,1250,1272,1290,1310,1331,1351,1371,1392,1410,1431,1451,1471,1491,1511,1531,1552,1571,1591,1610,1631,1651],"xSR":741.5,"ySR":449.15000000000003,"xT1":424.9,"yT1":0,"xT2":1058.1,"yT2":0,"toosoon":0,"cond_shown":"equaldotsize","ratio_trial":500,"smaller_num":"6","larger_num":"12","correct_side":1,"subjID":"MiguelAngelMendoza29","gender":"0","age":"10","school":"6","test":{"fix_dur":[250,1500],"timestim":300,"targets_dim":[100,100],"targets_relative_coord":[0.3,0.7],"size_stim":[880,420],"start_dim":[100,100],"size_start":[300,300],"size_fix":60,"samplingrate":20,"img_types":["equaldotsize","equaldotanddens","randomdotsizeEA"],"ratios":[250,500,750,900],"rep_conds":9,"nTrials":120,"trials_to_rest":500,"Trials_order":[51,38,41,31,12,60,115,106,39,35,59,19,82,26,28,109,85,76,49,34,64,17,107,108,101,118,66,0,2,62,46,30,57,103,37,74,98,72,21,48,61,55,53,105,42,44,88,111,29,4,78,13,117,58,67,102,79,99,90,7,16,33,69,10,63,40,104,89,114,100,112,113,97,70,6,54,32,81,1,22,56,119,95,52,83,75,8,96,71,9,36,5,43,93,45,23,91,24,77,87,3,47,94,80,15,20,86,73,50,25,68,84,92,27,18,116,14,110,65,11],"cond_shown":["equaldotsize","randomdotsizeEA","randomdotsizeEA","equaldotanddens","equaldotsize","equaldotsize","equaldotanddens","equaldotanddens","equaldotsize","randomdotsizeEA","randomdotsizeEA","equaldotanddens","equaldotanddens","randomdotsizeEA","equaldotanddens","equaldotanddens","equaldotanddens","equaldotanddens","equaldotanddens","equaldotanddens","equaldotanddens","randomdotsizeEA","randomdotsizeEA","equaldotsize","randomdotsizeEA","equaldotanddens","equaldotsize","equaldotsize","randomdotsizeEA","randomdotsizeEA","equaldotanddens","equaldotsize","equaldotsize","equaldotanddens","equaldotanddens","randomdotsizeEA","randomdotsizeEA","equaldotsize","equaldotsize","equaldotsize","equaldotanddens","equaldotanddens","randomdotsizeEA","equaldotsize","equaldotsize","randomdotsizeEA","equaldotanddens","equaldotsize","randomdotsizeEA","equaldotanddens","equaldotsize","equaldotanddens","equaldotsize","equaldotanddens","equaldotanddens","equaldotsize","equaldotanddens","equaldotsize","equaldotsize","equaldotanddens","equaldotanddens","equaldotsize","equaldotsize","equaldotanddens","equaldotsize","equaldotanddens","randomdotsizeEA","randomdotsizeEA","equaldotsize","equaldotanddens","equaldotanddens","randomdotsizeEA","equaldotanddens","equaldotanddens","equaldotsize","equaldotsize","randomdotsizeEA","equaldotsize","equaldotanddens","equaldotanddens","randomdotsizeEA","randomdotsizeEA","randomdotsizeEA","equaldotanddens","randomdotsizeEA","equaldotsize","randomdotsizeEA","equaldotsize","randomdotsizeEA","equaldotsize","equaldotsize","randomdotsizeEA","equaldotanddens","equaldotsize","equaldotsize","randomdotsizeEA","equaldotanddens","equaldotsize","randomdotsizeEA","equaldotsize","equaldotsize","randomdotsizeEA","equaldotanddens","randomdotsizeEA","equaldotsize","randomdotsizeEA","randomdotsizeEA","equaldotanddens","randomdotsizeEA","equaldotanddens","randomdotsizeEA","equaldotsize","randomdotsizeEA","equaldotsize","equaldotsize","randomdotsizeEA","randomdotsizeEA","randomdotsizeEA","randomdotsizeEA","randomdotsizeEA"],"ratio_trial":[500,250,500,750,250,250,750,900,500,900,900,750,900,250,500,250,250,500,250,900,500,500,900,250,500,900,750,250,250,250,900,750,900,750,250,250,250,250,900,250,250,750,500,900,750,750,500,500,500,500,750,250,900,900,750,750,750,500,750,750,500,900,900,900,500,500,750,500,750,500,500,500,250,900,750,750,750,900,250,900,750,900,900,500,900,500,750,250,900,900,250,500,750,900,900,900,750,250,500,500,500,900,900,750,500,750,250,250,250,250,750,250,750,500,750,750,250,250,500,900],"smaller_num":["6","2","5","3","6","3","3","18","2","18","18","12","18","1","3","2","1","2","2","18","4","2","18","2","2","9","3","5","2","2","9","3","18","15","2","6","3","3","18","2","6","12","10","18","15","15","2","4","4","4","9","2","18","18","12","18","3","5","6","3","3","18","9","9","4","9","15","2","15","6","9","9","3","9","3","15","3","9","4","18","3","18","9","1","18","6","3","2","18","18","6","9","15","9","9","18","15","2","9","1","10","9","18","3","9","3","3","6","2","2","3","4","15","9","3","3","2","3","9","18"],"larger_num":["12","8","10","4","24","12","4","20","4","20","20","16","20","4","6","8","4","4","8","20","8","4","20","8","4","10","4","20","8","8","10","4","20","20","8","24","12","12","20","8","24","16","20","20","20","20","4","8","8","8","12","8","20","20","16","24","4","10","8","4","6","20","10","10","8","18","20","4","20","12","18","18","12","10","4","20","4","10","16","20","4","20","10","2","20","12","4","8","20","20","24","18","20","10","10","20","20","8","18","2","20","10","20","4","18","4","12","24","8","8","4","16","20","18","4","4","8","12","18","20"],"correct_side":[1,1,2,2,1,2,1,1,1,1,1,2,1,2,2,2,2,1,2,1,1,2,1,1,1,1,1,2,1,1,2,1,1,2,1,1,2,1,2,1,1,2,2,2,2,1,2,1,1,1,2,1,1,2,2,1,1,1,2,1,2,1,2,2,1,2,2,1,2,1,2,2,2,2,2,1,1,1,2,2,1,1,2,2,1,1,2,1,1,1,1,1,2,1,2,1,2,1,2,2,2,2,2,1,2,2,2,1,1,2,1,2,2,2,1,1,1,2,2,2],"img_shown":["img/500/equaldotsize/L/11_Ratio_500_L_12_R_6.png","img/250/randomdotsizeEA/L/1_Ratio_250_L_8_R_2.png","img/500/randomdotsizeEA/R/14_Ratio_500_L_5_R_10.png","img/750/equaldotanddens/R/12_Ratio_750_L_3_R_4.png","img/250/equaldotsize/L/5_Ratio_250_L_24_R_6.png","img/250/equaldotsize/R/11_Ratio_250_L_3_R_12.png","img/750/equaldotanddens/L/8_Ratio_750_L_4_R_3.png","img/900/equaldotanddens/L/8_Ratio_900_L_20_R_18.png","img/500/equaldotsize/L/5_Ratio_500_L_4_R_2.png","img/900/randomdotsizeEA/L/10_Ratio_900_L_20_R_18.png","img/900/randomdotsizeEA/L/8_Ratio_900_L_20_R_18.png","img/750/equaldotanddens/R/11_Ratio_750_L_12_R_16.png","img/900/equaldotanddens/L/4_Ratio_900_L_20_R_18.png","img/250/randomdotsizeEA/R/8_Ratio_250_L_1_R_4.png","img/500/equaldotanddens/R/2_Ratio_500_L_3_R_6.png","img/250/equaldotanddens/R/13_Ratio_250_L_2_R_8.png","img/250/equaldotanddens/R/8_Ratio_250_L_1_R_4.png","img/500/equaldotanddens/L/10_Ratio_500_L_4_R_2.png","img/250/equaldotanddens/R/13_Ratio_250_L_2_R_8.png","img/900/equaldotanddens/L/8_Ratio_900_L_20_R_18.png","img/500/equaldotanddens/L/8_Ratio_500_L_8_R_4.png","img/500/randomdotsizeEA/R/9_Ratio_500_L_2_R_4.png","img/900/randomdotsizeEA/L/8_Ratio_900_L_20_R_18.png","img/250/equaldotsize/L/3_Ratio_250_L_8_R_2.png","img/500/randomdotsizeEA/L/10_Ratio_500_L_4_R_2.png","img/900/equaldotanddens/L/1_Ratio_900_L_10_R_9.png","img/750/equaldotsize/L/8_Ratio_750_L_4_R_3.png","img/250/equaldotsize/R/12_Ratio_250_L_5_R_20.png","img/250/randomdotsizeEA/L/7_Ratio_250_L_8_R_2.png","img/250/randomdotsizeEA/L/1_Ratio_250_L_8_R_2.png","img/900/equaldotanddens/R/5_Ratio_900_L_9_R_10.png","img/750/equaldotsize/L/10_Ratio_750_L_4_R_3.png","img/900/equaldotsize/L/10_Ratio_900_L_20_R_18.png","img/750/equaldotanddens/R/4_Ratio_750_L_15_R_20.png","img/250/equaldotanddens/L/1_Ratio_250_L_8_R_2.png","img/250/randomdotsizeEA/L/5_Ratio_250_L_24_R_6.png","img/250/randomdotsizeEA/R/4_Ratio_250_L_3_R_12.png","img/250/equaldotsize/L/14_Ratio_250_L_12_R_3.png","img/900/equaldotsize/R/14_Ratio_900_L_18_R_20.png","img/250/equaldotsize/L/3_Ratio_250_L_8_R_2.png","img/250/equaldotanddens/L/5_Ratio_250_L_24_R_6.png","img/750/equaldotanddens/R/11_Ratio_750_L_12_R_16.png","img/500/randomdotsizeEA/R/3_Ratio_500_L_10_R_20.png","img/900/equaldotsize/R/13_Ratio_900_L_18_R_20.png","img/750/equaldotsize/R/4_Ratio_750_L_15_R_20.png","img/750/randomdotsizeEA/L/1_Ratio_750_L_20_R_15.png","img/500/equaldotanddens/R/9_Ratio_500_L_2_R_4.png","img/500/equaldotsize/L/8_Ratio_500_L_8_R_4.png","img/500/randomdotsizeEA/L/8_Ratio_500_L_8_R_4.png","img/500/equaldotanddens/L/8_Ratio_500_L_8_R_4.png","img/750/equaldotsize/R/15_Ratio_750_L_9_R_12.png","img/250/equaldotanddens/L/1_Ratio_250_L_8_R_2.png","img/900/equaldotsize/L/10_Ratio_900_L_20_R_18.png","img/900/equaldotanddens/R/9_Ratio_900_L_18_R_20.png","img/750/equaldotanddens/R/11_Ratio_750_L_12_R_16.png","img/750/equaldotsize/L/6_Ratio_750_L_24_R_18.png","img/750/equaldotanddens/L/10_Ratio_750_L_4_R_3.png","img/500/equaldotsize/L/7_Ratio_500_L_10_R_5.png","img/750/equaldotsize/R/2_Ratio_750_L_6_R_8.png","img/750/equaldotanddens/L/10_Ratio_750_L_4_R_3.png","img/500/equaldotanddens/R/2_Ratio_500_L_3_R_6.png","img/900/equaldotsize/L/8_Ratio_900_L_20_R_18.png","img/900/equaldotsize/R/5_Ratio_900_L_9_R_10.png","img/900/equaldotanddens/R/5_Ratio_900_L_9_R_10.png","img/500/equaldotsize/L/8_Ratio_500_L_8_R_4.png","img/500/equaldotanddens/R/6_Ratio_500_L_9_R_18.png","img/750/randomdotsizeEA/R/4_Ratio_750_L_15_R_20.png","img/500/randomdotsizeEA/L/5_Ratio_500_L_4_R_2.png","img/750/equaldotsize/R/3_Ratio_750_L_15_R_20.png","img/500/equaldotanddens/L/13_Ratio_500_L_12_R_6.png","img/500/equaldotanddens/R/6_Ratio_500_L_9_R_18.png","img/500/randomdotsizeEA/R/1_Ratio_500_L_9_R_18.png","img/250/equaldotanddens/R/11_Ratio_250_L_3_R_12.png","img/900/equaldotanddens/R/15_Ratio_900_L_9_R_10.png","img/750/equaldotsize/R/12_Ratio_750_L_3_R_4.png","img/750/equaldotsize/L/1_Ratio_750_L_20_R_15.png","img/750/randomdotsizeEA/L/9_Ratio_750_L_4_R_3.png","img/900/equaldotsize/L/1_Ratio_900_L_10_R_9.png","img/250/equaldotanddens/R/10_Ratio_250_L_4_R_16.png","img/900/equaldotanddens/R/12_Ratio_900_L_18_R_20.png","img/750/randomdotsizeEA/L/10_Ratio_750_L_4_R_3.png","img/900/randomdotsizeEA/L/10_Ratio_900_L_20_R_18.png","img/900/randomdotsizeEA/R/6_Ratio_900_L_9_R_10.png","img/500/equaldotanddens/R/15_Ratio_500_L_1_R_2.png","img/900/randomdotsizeEA/L/10_Ratio_900_L_20_R_18.png","img/500/equaldotsize/L/11_Ratio_500_L_12_R_6.png","img/750/randomdotsizeEA/R/12_Ratio_750_L_3_R_4.png","img/250/equaldotsize/L/1_Ratio_250_L_8_R_2.png","img/900/randomdotsizeEA/L/2_Ratio_900_L_20_R_18.png","img/900/equaldotsize/L/2_Ratio_900_L_20_R_18.png","img/250/equaldotsize/L/5_Ratio_250_L_24_R_6.png","img/500/randomdotsizeEA/L/4_Ratio_500_L_18_R_9.png","img/750/equaldotanddens/R/4_Ratio_750_L_15_R_20.png","img/900/equaldotsize/L/1_Ratio_900_L_10_R_9.png","img/900/equaldotsize/R/3_Ratio_900_L_9_R_10.png","img/900/randomdotsizeEA/L/10_Ratio_900_L_20_R_18.png","img/750/equaldotanddens/R/4_Ratio_750_L_15_R_20.png","img/250/equaldotsize/L/3_Ratio_250_L_8_R_2.png","img/500/randomdotsizeEA/R/1_Ratio_500_L_9_R_18.png","img/500/equaldotsize/R/12_Ratio_500_L_1_R_2.png","img/500/equaldotsize/R/3_Ratio_500_L_10_R_20.png","img/900/randomdotsizeEA/R/3_Ratio_900_L_9_R_10.png","img/900/equaldotanddens/R/12_Ratio_900_L_18_R_20.png","img/750/randomdotsizeEA/L/9_Ratio_750_L_4_R_3.png","img/500/equaldotsize/R/6_Ratio_500_L_9_R_18.png","img/750/randomdotsizeEA/R/7_Ratio_750_L_3_R_4.png","img/250/randomdotsizeEA/R/4_Ratio_250_L_3_R_12.png","img/250/equaldotanddens/L/5_Ratio_250_L_24_R_6.png","img/250/randomdotsizeEA/L/1_Ratio_250_L_8_R_2.png","img/250/equaldotanddens/R/13_Ratio_250_L_2_R_8.png","img/750/randomdotsizeEA/L/8_Ratio_750_L_4_R_3.png","img/250/equaldotsize/R/10_Ratio_250_L_4_R_16.png","img/750/randomdotsizeEA/R/3_Ratio_750_L_15_R_20.png","img/500/equaldotsize/R/6_Ratio_500_L_9_R_18.png","img/750/equaldotsize/L/9_Ratio_750_L_4_R_3.png","img/750/randomdotsizeEA/L/10_Ratio_750_L_4_R_3.png","img/250/randomdotsizeEA/L/3_Ratio_250_L_8_R_2.png","img/250/randomdotsizeEA/R/11_Ratio_250_L_3_R_12.png","img/500/randomdotsizeEA/R/1_Ratio_500_L_9_R_18.png","img/900/randomdotsizeEA/R/13_Ratio_900_L_18_R_20.png"],"Rat0":[["12_Ratio_0_L_9_R_0.png","13_Ratio_0_L_6_R_0.png","5_Ratio_0_L_2_R_0.png","6_Ratio_0_L_4_R_0.png","8_Ratio_0_L_6_R_0.png"],["1_Ratio_0_L_0_R_17.png","10_Ratio_0_L_0_R_22.png","11_Ratio_0_L_0_R_1.png","14_Ratio_0_L_0_R_24.png","15_Ratio_0_L_0_R_4.png","2_Ratio_0_L_0_R_5.png","3_Ratio_0_L_0_R_17.png","4_Ratio_0_L_0_R_7.png","7_Ratio_0_L_0_R_19.png","9_Ratio_0_L_0_R_15.png"]],"Rat250":[["1_Ratio_250_L_8_R_2.png","14_Ratio_250_L_12_R_3.png","15_Ratio_250_L_12_R_3.png","2_Ratio_250_L_16_R_4.png","3_Ratio_250_L_8_R_2.png","5_Ratio_250_L_24_R_6.png","7_Ratio_250_L_8_R_2.png"],["10_Ratio_250_L_4_R_16.png","11_Ratio_250_L_3_R_12.png","12_Ratio_250_L_5_R_20.png","13_Ratio_250_L_2_R_8.png","4_Ratio_250_L_3_R_12.png","6_Ratio_250_L_6_R_24.png","8_Ratio_250_L_1_R_4.png","9_Ratio_250_L_3_R_12.png"]],"Rat500":[["10_Ratio_500_L_4_R_2.png","11_Ratio_500_L_12_R_6.png","13_Ratio_500_L_12_R_6.png","4_Ratio_500_L_18_R_9.png","5_Ratio_500_L_4_R_2.png","7_Ratio_500_L_10_R_5.png","8_Ratio_500_L_8_R_4.png"],["1_Ratio_500_L_9_R_18.png","12_Ratio_500_L_1_R_2.png","14_Ratio_500_L_5_R_10.png","15_Ratio_500_L_1_R_2.png","2_Ratio_500_L_3_R_6.png","3_Ratio_500_L_10_R_20.png","6_Ratio_500_L_9_R_18.png","9_Ratio_500_L_2_R_4.png"]],"Rat750":[["1_Ratio_750_L_20_R_15.png","10_Ratio_750_L_4_R_3.png","13_Ratio_750_L_8_R_6.png","14_Ratio_750_L_8_R_6.png","6_Ratio_750_L_24_R_18.png","8_Ratio_750_L_4_R_3.png","9_Ratio_750_L_4_R_3.png"],["11_Ratio_750_L_12_R_16.png","12_Ratio_750_L_3_R_4.png","15_Ratio_750_L_9_R_12.png","2_Ratio_750_L_6_R_8.png","3_Ratio_750_L_15_R_20.png","4_Ratio_750_L_15_R_20.png","5_Ratio_750_L_15_R_20.png","7_Ratio_750_L_3_R_4.png"]],"Rat900":[["1_Ratio_900_L_10_R_9.png","10_Ratio_900_L_20_R_18.png","2_Ratio_900_L_20_R_18.png","4_Ratio_900_L_20_R_18.png","8_Ratio_900_L_20_R_18.png"],["11_Ratio_900_L_18_R_20.png","12_Ratio_900_L_18_R_20.png","13_Ratio_900_L_18_R_20.png","14_Ratio_900_L_18_R_20.png","15_Ratio_900_L_9_R_10.png","3_Ratio_900_L_9_R_10.png","5_Ratio_900_L_9_R_10.png","6_Ratio_900_L_9_R_10.png","7_Ratio_900_L_9_R_10.png","9_Ratio_900_L_18_R_20.png"]],"Rat1000":[["10_Ratio_1000_L_16_R_16.png","11_Ratio_1000_L_6_R_6.png","12_Ratio_1000_L_14_R_14.png","13_Ratio_1000_L_20_R_20.png","15_Ratio_1000_L_15_R_15.png","2_Ratio_1000_L_17_R_17.png","4_Ratio_1000_L_9_R_9.png","5_Ratio_1000_L_6_R_6.png","6_Ratio_1000_L_19_R_19.png","8_Ratio_1000_L_14_R_14.png","9_Ratio_1000_L_25_R_25.png"],["1_Ratio_1000_L_1_R_1.png","14_Ratio_1000_L_17_R_17.png","3_Ratio_1000_L_17_R_17.png","7_Ratio_1000_L_6_R_6.png"]]}},{"start_time":1551900591353,"click_time":1551900592662,"finger_time":1551900592182,"fix_duration":1229.1133943704547,"trial":1,"RT":829,"MT":480,"sideResp":2,"stimulus":"img/250/randomdotsizeEA/L/1_Ratio_250_L_8_R_2.png","xmouse":[778,778,778,778,778,778,778,778,778,778,778,778,778,778,778,778,778,778,778,778,778,778,778,778,778,778,778,778,778,778,778,778,778,778,778,778,778,778,778,786,804,900,940,1080,1172,1171,1157,1147,1146,1146,1146,1146,1146,1146,1146,1146,1146,1146,1146,1146,1146,1146,1146,1146,1141,1134],"ymouse":[621,621,621,621,621,621,621,621,621,621,621,621,621,621,621,621,621,621,621,621,621,621,621,621,621,621,621,621,621,621,621,621,621,621,621,621,621,621,621,614,593,508,464,281,0,0,0,0,0,0,0,0,0,0,0,0,0,0,0,0,0,0,0,0,0,2],"timestamp_mouse":[9,29,50,70,89,109,129,150,170,189,210,230,250,269,290,309,329,350,370,391,410,430,450,469,490,510,529,550,569,590,611,631,650,669,691,710,729,751,771,789,809,829,851,870,889,909,929,951,969,991,1011,1030,1051,1070,1089,1110,1130,1151,1169,1190,1210,1230,1249,1269,1290,1309],"xSR":741.5,"ySR":573.95,"xT1":424.9,"yT1":0,"xT2":1058.1,"yT2":0,"toosoon":0,"cond_shown":"randomdotsizeEA","ratio_trial":250,"smaller_num":"2","larger_num":"8","correct_side":1,"subjID":"MiguelAngelMendoza29","gender":"0","age":"10","school":"6"},{"start_time":1551900594584,"click_time":1551900596643,"finger_time":1551900595222,"fix_duration":1140.154254797062,"trial":2,"RT":638,"MT":1421,"sideResp":2,"stimulus":"img/500/randomdotsizeEA/R/14_Ratio_500_L_5_R_10.png","xmouse":[804,804,804,804,804,804,804,804,804,804,804,804,804,804,804,804,804,804,804,804,804,804,804,804,804,804,804,804,804,804,804,804,789,768,734,678,608,451,406,403,403,403,403,403,403,403,401,395,392,391,398,406,414,414,414,414,416,440,486,685,893,1095,1363,1457,1507,1523,1526,1526,1526,1526,1526,1526,1513,1496,1485,1482,1482,1461,1451,1449,1446,1435,1382,1319,1258,1201,1175,1162,1162,1162,1163,1166,1169,1170,1170,1170,1170,1170,1170,1170,1170,1169,1158],"ymouse":[584,584,584,584,584,584,584,584,584,584,584,584,584,584,584,584,584,584,584,584,584,584,584,584,584,584,584,584,584,584,584,569,518,440,334,202,43,0,0,0,0,0,0,0,0,0,3,25,47,87,111,131,145,145,145,145,146,209,279,372,397,376,268,228,201,188,185,185,185,185,185,182,143,100,74,64,62,69,78,83,85,85,90,100,111,119,121,121,120,99,85,73,61,59,59,59,59,59,59,59,59,56,52],"timestamp_mouse":[19,39,58,78,98,119,138,160,178,198,218,238,260,279,299,318,338,358,379,398,418,439,459,479,498,519,539,559,578,600,619,638,659,679,700,719,740,759,779,799,819,839,859,879,898,919,940,959,979,998,1019,1039,1059,1079,1098,1118,1140,1158,1179,1199,1219,1239,1259,1278,1300,1318,1339,1360,1380,1400,1419,1438,1458,1479,1499,1519,1540,1558,1579,1599,1619,1638,1659,1679,1699,1719,1740,1760,1779,1798,1820,1839,1859,1879,1898,1918,1940,1959,1980,1998,2018,2039,2059],"xSR":741.5,"ySR":573.95,"xT1":424.9,"yT1":0,"xT2":1058.1,"yT2":0,"toosoon":0,"cond_shown":"randomdotsizeEA","ratio_trial":500,"smaller_num":"5","larger_num":"10","correct_side":2,"subjID":"MiguelAngelMendoza29","gender":"0","age":"10","school":"6"},{"start_time":1551900606374,"click_time":1551900607724,"finger_time":1551900607124,"fix_duration":250,"trial":3,"RT":750,"MT":600,"sideResp":2,"stimulus":"img/750/equaldotanddens/R/12_Ratio_750_L_3_R_4.png","xmouse":[765,765,765,765,765,765,765,765,765,765,765,765,765,765,765,765,765,765,765,765,765,765,765,765,765,765,765,765,765,765,765,765,765,766,768,769,778,817,852,871,875,877,877,875,871,870,870,871,872,872,872,875,881,927,944,950,953,956,963,969,974,974,974,974,977,998,1047,1118],"ymouse":[643,643,643,643,643,643,643,643,643,643,643,643,643,643,643,643,643,643,643,643,643,643,643,643,643,643,643,643,643,643,643,643,643,641,631,622,603,509,423,322,195,5,0,0,0,0,0,0,0,0,0,4,7,16,17,17,16,15,13,13,13,13,13,13,13,21,35,49],"timestamp_mouse":[9,30,48,70,89,109,130,148,169,190,208,230,250,268,290,309,328,348,368,390,410,429,448,468,489,509,530,548,568,590,608,629,648,670,688,709,729,750,770,789,808,830,849,870,888,909,928,950,969,989,1008,1028,1049,1069,1089,1108,1129,1149,1168,1189,1210,1228,1249,1270,1289,1309,1329,1350],"xSR":741.5,"ySR":573.95,"xT1":424.9,"yT1":0,"xT2":1058.1,"yT2":0,"toosoon":0,"cond_shown":"equaldotanddens","ratio_trial":750,"smaller_num":"3","larger_num":"4","correct_side":2,"subjID":"MiguelAngelMendoza29","gender":"0","age":"10","school":"6"},{"start_time":1551900608894,"click_time":1551900609463,"finger_time":1551900609383,"fix_duration":250,"trial":4,"RT":489,"MT":80,"sideResp":1,"stimulus":"img/250/equaldotsize/L/5_Ratio_250_L_24_R_6.png","xmouse":[793,793,793,793,793,793,793,793,793,793,793,793,793,793,793,793,793,793,793,793,793,793,785,768,734,669,620,526,481],"ymouse":[623,623,623,623,623,623,623,623,623,623,623,623,623,623,623,623,623,623,623,623,623,623,609,583,537,427,339,141,44],"timestamp_mouse":[9,30,50,68,88,109,128,148,168,189,208,229,249,269,288,310,329,348,368,390,409,429,448,469,489,509,529,549,569],"xSR":741.5,"ySR":573.95,"xT1":424.9,"yT1":0,"xT2":1058.1,"yT2":0,"toosoon":0,"cond_shown":"equaldotsize","ratio_trial":250,"smaller_num":"6","larger_num":"24","correct_side":1,"subjID":"MiguelAngelMendoza29","gender":"0","age":"10","school":"6"},{"start_time":1551900611433,"click_time":1551900612362,"finger_time":1551900611942,"fix_duration":888.1556863969464,"trial":5,"RT":509,"MT":420,"sideResp":2,"stimulus":"img/250/equaldotsize/R/11_Ratio_250_L_3_R_12.png","xmouse":[816,816,816,816,816,816,816,816,816,816,816,816,816,816,816,816,816,816,816,816,816,816,819,823,826,829,834,842,857,867,885,902,927,954,980,1023,1030,1035,1041,1048,1064,1069,1076,1082,1087,1096,1100],"ymouse":[630,630,630,630,630,630,630,630,630,630,630,630,630,630,630,630,630,630,630,630,630,630,615,601,579,521,470,415,310,245,124,74,23,0,0,0,0,0,0,0,0,0,0,0,0,0,1],"timestamp_mouse":[11,31,50,69,91,111,129,149,170,189,210,231,250,270,290,310,329,351,371,390,410,429,451,470,490,509,530,550,570,590,610,630,650,670,689,710,729,750,769,790,809,830,851,870,891,910,929],"xSR":741.5,"ySR":573.95,"xT1":424.9,"yT1":0,"xT2":1058.1,"yT2":0,"toosoon":0,"cond_shown":"equaldotsize","ratio_trial":250,"smaller_num":"3","larger_num":"12","correct_side":2,"subjID":"MiguelAngelMendoza29","gender":"0","age":"10","school":"6"},{"start_time":1551900613515,"click_time":1551900614703,"finger_time":1551900614044,"fix_duration":250,"trial":6,"RT":529,"MT":659,"sideResp":1,"stimulus":"img/750/equaldotanddens/L/8_Ratio_750_L_4_R_3.png","xmouse":[815,815,815,815,815,815,815,815,815,815,815,815,815,815,815,815,815,815,815,815,815,815,815,803,784,767,733,709,677,645,613,531,484,443,396,383,366,360,356,354,354,353,353,353,353,353,353,353,372,395,411,418,418,418,418,418,421,422,424,425],"ymouse":[662,662,662,662,662,662,662,662,662,662,662,662,662,662,662,662,662,662,662,662,662,662,662,654,636,617,567,532,488,441,395,279,223,170,100,68,16,0,0,0,0,0,0,0,0,0,0,0,0,0,0,0,0,0,0,0,4,16,29,44],"timestamp_mouse":[8,27,47,68,87,108,128,148,167,187,208,228,249,268,289,309,328,347,369,388,407,428,449,467,489,508,529,547,568,588,608,627,648,668,689,708,728,747,768,788,807,829,849,867,888,908,928,947,968,988,1009,1029,1049,1067,1088,1109,1127,1147,1168,1188],"xSR":741.5,"ySR":573.95,"xT1":424.9,"yT1":0,"xT2":1058.1,"yT2":0,"toosoon":0,"cond_shown":"equaldotanddens","ratio_trial":750,"smaller_num":"3","larger_num":"4","correct_side":1,"subjID":"MiguelAngelMendoza29","gender":"0","age":"10","school":"6"},{"start_time":1551900616775,"click_time":1551900617842,"finger_time":1551900617243,"fix_duration":1431.5683179082564,"trial":7,"RT":468,"MT":599,"sideResp":2,"stimulus":"img/900/equaldotanddens/L/8_Ratio_900_L_20_R_18.png","xmouse":[814,814,814,814,814,814,814,814,814,814,814,814,814,814,814,814,814,814,814,814,814,815,823,855,864,873,880,887,912,923,936,948,954,966,970,971,972,973,986,993,1001,1006,1009,1011,1011,1011,1011,1011,1017,1024,1030,1043,1053,1072],"ymouse":[624,624,624,624,624,624,624,624,624,624,624,624,624,624,624,624,624,624,624,624,624,616,598,528,495,463,435,403,318,275,236,192,172,147,141,140,140,140,134,129,120,113,109,107,107,107,107,107,103,99,94,85,80,75],"timestamp_mouse":[7,27,49,68,88,109,128,148,168,188,209,228,248,267,288,308,329,348,369,388,407,428,448,468,487,508,528,548,567,589,608,628,648,669,687,708,727,748,767,788,808,828,848,868,889,907,928,948,968,988,1008,1029,1048,1067],"xSR":741.5,"ySR":573.95,"xT1":424.9,"yT1":0,"xT2":1058.1,"yT2":0,"toosoon":0,"cond_shown":"equaldotanddens","ratio_trial":900,"smaller_num":"18","larger_num":"20","correct_side":1,"subjID":"MiguelAngelMendoza29","gender":"0","age":"10","school":"6"},{"start_time":1551900619341,"click_time":1551900620643,"finger_time":1551900619884,"fix_duration":398.37484781715494,"trial":8,"RT":543,"MT":759,"sideResp":1,"stimulus":"img/500/equaldotsize/L/5_Ratio_500_L_4_R_2.png","xmouse":[779,779,779,779,779,779,779,779,779,779,779,779,779,779,779,779,779,779,779,779,779,779,779,779,779,779,782,782,782,777,766,760,756,748,739,700,670,622,570,521,427,385,338,315,304,302,302,301,301,301,301,301,305,313,318,322,324,329,340,355,380,388,390,392,398,425],"ymouse":[631,631,631,631,631,631,631,631,631,631,631,631,631,631,631,631,631,631,631,631,631,631,631,631,631,613,593,572,554,539,520,512,506,492,476,424,378,310,227,136,0,0,0,0,0,0,0,0,0,0,0,3,10,21,27,30,30,31,33,35,41,43,43,43,43,46],"timestamp_mouse":[3,21,42,61,82,102,123,141,161,181,203,221,243,263,282,301,323,341,363,383,401,421,443,463,481,502,521,543,562,582,601,621,642,663,682,701,721,742,762,781,802,822,841,862,882,902,922,942,962,981,1001,1022,1042,1062,1081,1102,1121,1142,1162,1183,1202,1223,1242,1261,1282,1302],"xSR":741.5,"ySR":573.95,"xT1":424.9,"yT1":0,"xT2":1058.1,"yT2":0,"toosoon":0,"cond_shown":"equaldotsize","ratio_trial":500,"smaller_num":"2","larger_num":"4","correct_side":1,"subjID":"MiguelAngelMendoza29","gender":"0","age":"10","school":"6"},{"start_time":1551900622990,"click_time":1551900624242,"finger_time":1551900623542,"fix_duration":985.3341799649404,"trial":9,"RT":552,"MT":700,"sideResp":1,"stimulus":"img/900/randomdotsizeEA/L/10_Ratio_900_L_20_R_18.png","xmouse":[798,798,798,798,798,798,798,798,798,798,798,798,799,799,799,800,801,802,803,806,809,813,821,824,828,830,832,841,845,854,859,864,871,875,878,882,886,896,900,900,900,900,900,900,900,900,900,900,900,900,900,879,792,763,758,758,758,734,691,625,539,510,489],"ymouse":[648,648,648,648,648,648,648,648,648,648,648,648,647,647,645,645,644,642,639,632,628,622,609,603,593,586,577,553,537,510,489,469,433,419,407,393,380,354,346,343,343,343,343,343,343,343,343,343,343,343,336,321,280,267,263,261,258,238,214,179,125,102,65],"timestamp_mouse":[12,32,53,73,93,112,133,153,172,192,213,232,253,273,294,314,332,352,374,392,413,433,454,472,493,513,533,552,573,592,613,633,653,673,693,713,734,753,772,793,812,833,853,874,893,914,933,953,972,992,1014,1033,1053,1073,1093,1113,1132,1152,1172,1192,1213,1233,1252],"xSR":741.5,"ySR":573.95,"xT1":424.9,"yT1":0,"xT2":1058.1,"yT2":0,"toosoon":0,"cond_shown":"randomdotsizeEA","ratio_trial":900,"smaller_num":"18","larger_num":"20","correct_side":1,"subjID":"MiguelAngelMendoza29","gender":"0","age":"10","school":"6"},{"start_time":1551900625957,"click_time":1551900627243,"finger_time":1551900626742,"fix_duration":552.5988416804032,"trial":10,"RT":785,"MT":501,"sideResp":1,"stimulus":"img/900/randomdotsizeEA/L/8_Ratio_900_L_20_R_18.png","xmouse":[769,769,769,769,769,769,769,769,769,769,769,769,769,769,769,769,769,769,769,769,769,769,769,769,769,769,769,769,769,769,769,769,769,769,769,769,769,769,769,769,769,766,753,747,732,723,713,701,683,624,584,532,474,417,395,392,390,390,390,390,390,390,390,391,433],"ymouse":[623,623,623,623,623,623,623,623,623,623,623,623,623,623,623,623,623,623,623,623,623,623,623,623,623,623,623,623,623,623,623,623,623,623,623,623,614,602,579,521,490,460,416,394,359,345,331,318,300,254,224,185,143,95,59,49,42,39,37,35,34,34,33,33,33],"timestamp_mouse":[6,26,46,67,86,106,127,147,165,185,207,227,245,267,285,305,326,347,366,385,406,427,445,467,486,505,525,546,566,586,607,625,645,666,687,705,726,746,766,785,806,826,846,865,885,906,926,946,967,986,1006,1026,1046,1065,1086,1105,1127,1146,1166,1187,1207,1227,1247,1266,1286],"xSR":741.5,"ySR":573.95,"xT1":424.9,"yT1":0,"xT2":1058.1,"yT2":0,"toosoon":0,"cond_shown":"randomdotsizeEA","ratio_trial":900,"smaller_num":"18","larger_num":"20","correct_side":1,"subjID":"MiguelAngelMendoza29","gender":"0","age":"10","school":"6"},{"start_time":1551900629068,"click_time":1551900629942,"finger_time":1551900629503,"fix_duration":1124.6309794035506,"trial":11,"RT":435,"MT":439,"sideResp":2,"stimulus":"img/750/equaldotanddens/R/11_Ratio_750_L_12_R_16.png","xmouse":[785,785,785,785,785,785,785,785,785,785,785,785,785,785,785,785,785,785,785,785,800,838,898,1016,1057,1084,1100,1113,1122,1127,1128,1130,1130,1130,1130,1128,1126,1125,1121,1117,1114,1112,1112,1111],"ymouse":[595,595,595,595,595,595,595,595,595,595,595,595,595,595,595,595,595,595,595,596,576,536,477,356,310,276,254,230,210,201,190,177,167,145,140,133,128,128,127,125,122,117,110,95],"timestamp_mouse":[16,35,55,74,94,115,134,155,174,195,215,234,255,276,296,314,336,356,375,394,416,435,455,474,494,515,536,555,575,595,614,635,655,674,695,714,735,755,775,794,815,835,856,874],"xSR":741.5,"ySR":573.95,"xT1":424.9,"yT1":0,"xT2":1058.1,"yT2":0,"toosoon":0,"cond_shown":"equaldotanddens","ratio_trial":750,"smaller_num":"12","larger_num":"16","correct_side":2,"subjID":"MiguelAngelMendoza29","gender":"0","age":"10","school":"6"},{"start_time":1551900631313,"click_time":1551900632303,"finger_time":1551900632083,"fix_duration":348.17877793688746,"trial":12,"RT":770,"MT":220,"sideResp":1,"stimulus":"img/900/equaldotanddens/L/4_Ratio_900_L_20_R_18.png","xmouse":[806,806,806,806,806,806,806,806,806,806,806,806,806,806,806,806,806,806,806,806,806,806,806,806,806,806,806,806,806,806,806,806,806,806,806,806,805,803,799,793,782,745,719,681,646,590,532,508,485,473],"ymouse":[595,595,595,595,595,595,595,595,595,595,595,595,595,595,595,595,595,595,595,595,595,595,595,595,595,595,595,595,595,595,595,595,595,595,595,595,591,581,572,559,539,493,461,420,382,318,217,158,102,54],"timestamp_mouse":[10,30,50,71,90,110,130,150,171,189,209,230,250,271,290,310,330,351,369,390,409,429,450,469,489,510,531,550,570,590,611,629,650,669,691,710,730,749,770,790,811,829,849,869,891,910,929,949,971,990],"xSR":741.5,"ySR":573.95,"xT1":424.9,"yT1":0,"xT2":1058.1,"yT2":0,"toosoon":0,"cond_shown":"equaldotanddens","ratio_trial":900,"smaller_num":"18","larger_num":"20","correct_side":1,"subjID":"MiguelAngelMendoza29","gender":"0","age":"10","school":"6"},{"start_time":1551900634303,"click_time":1551900635742,"finger_time":1551900635203,"fix_duration":1038.8287085459033,"trial":13,"RT":900,"MT":539,"sideResp":2,"stimulus":"img/250/randomdotsizeEA/R/8_Ratio_250_L_1_R_4.png","xmouse":[763,763,763,763,763,763,763,763,763,763,763,763,763,763,763,763,763,763,763,763,763,763,763,763,763,763,763,763,763,763,763,763,763,763,763,763,763,763,763,763,763,763,764,768,774,782,786,794,797,802,809,820,845,857,876,886,898,918,933,949,971,992,1021,1032,1040,1042,1042,1043,1044,1048,1052,1055,1060],"ymouse":[600,600,600,600,600,600,600,600,600,600,600,600,600,600,600,600,600,600,600,600,600,600,600,600,600,600,600,600,600,600,600,600,600,600,600,600,600,600,600,600,600,600,599,590,580,566,558,548,543,538,529,517,486,469,442,427,408,358,316,264,215,171,119,99,80,74,70,69,68,68,68,68,68],"timestamp_mouse":[0,20,39,60,81,99,119,139,161,180,200,219,239,261,279,300,321,339,361,380,399,420,441,460,480,500,519,541,560,579,600,621,639,660,681,699,720,739,760,779,800,820,840,860,880,900,920,940,959,980,1000,1020,1040,1061,1079,1099,1120,1139,1160,1180,1199,1219,1239,1260,1279,1300,1320,1341,1359,1380,1400,1420,1439],"xSR":741.5,"ySR":573.95,"xT1":424.9,"yT1":0,"xT2":1058.1,"yT2":0,"toosoon":0,"cond_shown":"randomdotsizeEA","ratio_trial":250,"smaller_num":"1","larger_num":"4","correct_side":2,"subjID":"MiguelAngelMendoza29","gender":"0","age":"10","school":"6"},{"start_time":1551900638277,"click_time":1551900639222,"finger_time":1551900638802,"fix_duration":1453.6668859824217,"trial":14,"RT":525,"MT":420,"sideResp":2,"stimulus":"img/500/equaldotanddens/R/2_Ratio_500_L_3_R_6.png","xmouse":[792,792,792,792,792,792,792,792,792,792,792,792,792,792,792,792,792,792,792,792,792,792,791,786,784,775,770,767,762,760,759,758,757,755,754,754,754,755,761,765,774,787,801,862,914,973,1055,1093],"ymouse":[630,630,630,630,630,630,630,630,630,630,630,630,630,630,630,630,630,630,630,630,630,630,630,616,606,582,570,561,550,544,542,538,536,530,525,518,510,502,480,467,449,426,401,313,254,193,107,60],"timestamp_mouse":[7,26,45,66,86,106,127,146,167,186,206,226,245,265,285,306,326,346,365,386,405,426,445,466,486,505,525,546,567,585,606,626,646,666,686,705,726,746,767,786,806,826,845,865,885,906,926,945],"xSR":741.5,"ySR":573.95,"xT1":424.9,"yT1":0,"xT2":1058.1,"yT2":0,"toosoon":0,"cond_shown":"equaldotanddens","ratio_trial":500,"smaller_num":"3","larger_num":"6","correct_side":2,"subjID":"MiguelAngelMendoza29","gender":"0","age":"10","school":"6"},{"start_time":1551900641824,"click_time":1551900642804,"finger_time":1551900642403,"fix_duration":1481.1558203625036,"trial":15,"RT":579,"MT":401,"sideResp":2,"stimulus":"img/250/equaldotanddens/R/13_Ratio_250_L_2_R_8.png","xmouse":[772,772,772,772,772,772,772,772,772,772,772,772,772,772,772,772,772,772,772,772,772,772,772,772,772,773,779,785,801,813,851,875,900,932,969,1048,1075,1102,1111,1113,1113,1113,1113,1113,1113,1113,1113,1113,1114],"ymouse":[616,616,616,616,616,616,616,616,616,616,616,616,616,616,616,616,616,616,616,616,616,616,616,616,616,615,603,587,554,524,442,383,324,256,182,24,0,0,0,0,0,0,0,0,0,0,0,0,4],"timestamp_mouse":[22,38,58,80,98,118,139,159,179,199,219,239,258,278,298,318,340,360,378,398,419,438,458,479,499,518,540,559,579,599,619,639,658,679,700,719,739,758,779,799,819,838,860,880,898,920,938,959,980],"xSR":741.5,"ySR":573.95,"xT1":424.9,"yT1":0,"xT2":1058.1,"yT2":0,"toosoon":0,"cond_shown":"equaldotanddens","ratio_trial":250,"smaller_num":"2","larger_num":"8","correct_side":2,"subjID":"MiguelAngelMendoza29","gender":"0","age":"10","school":"6"},{"start_time":1551900644655,"click_time":1551900645823,"finger_time":1551900645322,"fix_duration":530.1594203156701,"trial":16,"RT":667,"MT":501,"sideResp":2,"stimulus":"img/250/equaldotanddens/R/8_Ratio_250_L_1_R_4.png","xmouse":[800,800,800,800,800,800,800,800,800,800,800,800,800,800,800,800,800,800,800,800,800,800,800,800,800,800,800,800,802,811,821,831,839,847,868,880,895,918,935,957,961,961,961,961,964,965,967,973,977,990,1001,1011,1023,1040,1070,1088,1093,1106,1109],"ymouse":[650,650,650,650,650,650,650,650,650,650,650,650,650,650,650,650,650,650,650,650,650,650,650,650,650,650,650,650,645,633,619,599,578,556,509,484,460,426,402,367,353,345,338,332,323,320,315,306,300,282,268,252,234,211,167,135,125,103,97],"timestamp_mouse":[7,28,49,68,88,108,127,148,169,188,209,229,248,268,289,307,329,349,368,389,408,429,449,468,488,509,529,548,567,587,607,628,648,667,687,708,728,748,768,788,807,829,848,868,887,908,928,949,968,988,1008,1028,1048,1068,1087,1108,1129,1149,1168],"xSR":741.5,"ySR":573.95,"xT1":424.9,"yT1":0,"xT2":1058.1,"yT2":0,"toosoon":0,"cond_shown":"equaldotanddens","ratio_trial":250,"smaller_num":"1","larger_num":"4","correct_side":2,"subjID":"MiguelAngelMendoza29","gender":"0","age":"10","school":"6"},{"start_time":1551900647597,"click_time":1551900648262,"finger_time":1551900648103,"fix_duration":812.4849508294014,"trial":17,"RT":506,"MT":159,"sideResp":1,"stimulus":"img/500/equaldotanddens/L/10_Ratio_500_L_4_R_2.png","xmouse":[763,763,763,763,763,763,763,763,763,763,763,763,763,763,763,763,763,763,763,763,763,763,763,761,758,754,751,735,711,682,630,592,525,501],"ymouse":[611,611,611,611,611,611,611,611,611,611,611,611,611,611,611,611,611,611,611,611,611,611,608,597,576,554,527,460,411,353,263,203,98,58],"timestamp_mouse":[7,27,46,66,86,105,127,146,166,187,207,226,245,267,287,306,326,346,367,386,406,427,446,466,487,506,526,545,566,585,606,627,646,665],"xSR":741.5,"ySR":573.95,"xT1":424.9,"yT1":0,"xT2":1058.1,"yT2":0,"toosoon":0,"cond_shown":"equaldotanddens","ratio_trial":500,"smaller_num":"2","larger_num":"4","correct_side":1,"subjID":"MiguelAngelMendoza29","gender":"0","age":"10","school":"6"},{"start_time":1551900650679,"click_time":1551900651523,"finger_time":1551900651226,"fix_duration":936.8929820159216,"trial":18,"RT":547,"MT":297,"sideResp":2,"stimulus":"img/250/equaldotanddens/R/13_Ratio_250_L_2_R_8.png","xmouse":[792,792,792,792,792,792,792,792,792,792,792,792,792,792,792,792,792,792,792,792,792,792,792,792,796,798,808,813,826,836,851,864,883,925,940,956,970,990,1019,1033,1044,1054,1064],"ymouse":[599,599,599,599,599,599,599,599,599,599,599,599,599,599,599,599,599,599,599,599,599,599,599,600,596,592,577,565,519,489,454,417,385,311,276,245,213,175,126,102,84,68,57],"timestamp_mouse":[4,25,44,64,84,104,124,143,165,183,205,224,245,264,283,304,324,344,364,384,403,424,444,464,483,504,523,547,564,584,604,624,644,664,684,704,724,744,764,783,804,824,844],"xSR":741.5,"ySR":573.95,"xT1":424.9,"yT1":0,"xT2":1058.1,"yT2":0,"toosoon":0,"cond_shown":"equaldotanddens","ratio_trial":250,"smaller_num":"2","larger_num":"8","correct_side":2,"subjID":"MiguelAngelMendoza29","gender":"0","age":"10","school":"6"},{"start_time":1551900652615,"click_time":1551900654043,"finger_time":1551900653542,"fix_duration":250,"trial":19,"RT":927,"MT":501,"sideResp":1,"stimulus":"img/900/equaldotanddens/L/8_Ratio_900_L_20_R_18.png","xmouse":[826,826,826,826,826,826,826,826,826,826,826,826,826,826,826,826,826,826,826,826,826,826,826,826,826,826,826,826,826,826,826,826,826,826,826,826,826,826,826,826,826,826,826,826,817,811,776,741,700,622,560,440,397,357,330,314,295,295,295,296,297,309,322,333,344,351,361,368,388,405,421,452],"ymouse":[611,611,611,611,611,611,611,611,611,611,611,611,611,611,611,611,611,611,611,611,611,611,611,611,611,611,611,611,611,611,611,611,611,611,611,611,611,611,611,611,611,611,611,611,600,590,524,474,419,336,281,171,113,58,8,0,0,0,0,0,0,0,1,5,6,9,12,17,31,44,56,85],"timestamp_mouse":[9,28,49,67,88,108,127,148,168,189,207,228,249,267,289,309,329,349,367,388,409,428,448,469,487,508,528,548,569,589,608,628,649,668,688,708,729,748,767,788,808,828,847,868,887,909,927,949,968,988,1008,1029,1048,1068,1088,1108,1128,1147,1167,1188,1208,1227,1248,1267,1288,1308,1328,1349,1367,1388,1408,1428],"xSR":741.5,"ySR":573.95,"xT1":424.9,"yT1":0,"xT2":1058.1,"yT2":0,"toosoon":0,"cond_shown":"equaldotanddens","ratio_trial":900,"smaller_num":"18","larger_num":"20","correct_side":1,"subjID":"MiguelAngelMendoza29","gender":"0","age":"10","school":"6"},{"start_time":1551900655193,"click_time":1551900656144,"finger_time":1551900655742,"fix_duration":250,"trial":20,"RT":549,"MT":402,"sideResp":1,"stimulus":"img/500/equaldotanddens/L/8_Ratio_500_L_8_R_4.png","xmouse":[781,781,781,781,781,781,781,781,781,781,781,781,781,781,781,781,781,781,781,781,781,781,779,775,768,761,751,718,696,659,637,618,598,593,589,586,582,576,573,572,570,567,562,557,551,541,525,508],"ymouse":[631,631,631,631,631,631,631,631,631,631,631,631,631,631,631,631,631,631,631,631,631,631,625,617,607,596,580,540,516,470,434,398,316,285,258,232,215,189,179,171,165,155,134,123,111,99,86,74],"timestamp_mouse":[9,31,50,70,90,110,130,150,170,190,209,230,251,270,291,311,330,350,371,389,410,431,451,469,491,510,531,549,570,589,610,631,650,670,690,710,730,749,770,789,809,830,850,869,890,909,929,950],"xSR":741.5,"ySR":573.95,"xT1":424.9,"yT1":0,"xT2":1058.1,"yT2":0,"toosoon":0,"cond_shown":"equaldotanddens","ratio_trial":500,"smaller_num":"4","larger_num":"8","correct_side":1,"subjID":"MiguelAngelMendoza29","gender":"0","age":"10","school":"6"},{"start_time":1551900657388,"click_time":1551900658404,"finger_time":1551900657884,"fix_duration":445.694879874067,"trial":21,"RT":496,"MT":520,"sideResp":2,"stimulus":"img/500/randomdotsizeEA/R/9_Ratio_500_L_2_R_4.png","xmouse":[794,794,794,794,794,794,794,794,794,794,794,794,794,794,794,794,794,794,794,794,794,794,799,807,819,832,846,873,885,903,914,926,952,966,978,988,997,1010,1014,1016,1017,1017,1017,1017,1017,1017,1018,1025,1040,1054,1064],"ymouse":[594,594,594,594,594,594,594,594,594,594,594,594,594,594,594,594,594,594,594,594,594,594,589,577,561,542,520,473,444,404,379,355,294,260,221,178,143,85,63,48,38,33,33,33,33,33,33,33,33,33,33],"timestamp_mouse":[14,36,55,75,96,114,136,156,175,195,216,235,255,275,296,316,335,356,376,395,415,434,454,474,496,515,536,554,575,594,614,635,654,674,695,715,736,754,775,795,815,835,855,876,896,915,935,954,975,995,1016],"xSR":741.5,"ySR":573.95,"xT1":424.9,"yT1":0,"xT2":1058.1,"yT2":0,"toosoon":0,"cond_shown":"randomdotsizeEA","ratio_trial":500,"smaller_num":"2","larger_num":"4","correct_side":2,"subjID":"MiguelAngelMendoza29","gender":"0","age":"10","school":"6"},{"start_time":1551900660941,"click_time":1551900662443,"finger_time":1551900661384,"fix_duration":1496.277043451754,"trial":22,"RT":443,"MT":1059,"sideResp":2,"stimulus":"img/900/randomdotsizeEA/L/8_Ratio_900_L_20_R_18.png","xmouse":[802,802,802,802,802,802,802,802,802,802,802,802,802,802,802,802,802,802,802,800,787,779,772,763,758,750,749,748,747,744,732,724,714,701,695,685,684,684,684,684,684,684,684,681,676,668,666,664,663,663,663,663,663,663,663,663,669,681,698,724,790,841,904,970,1054,1113,1128,1135,1139,1139,1139,1139,1139,1139,1139,1140],"ymouse":[609,609,609,609,609,609,609,609,609,609,609,609,609,609,609,609,609,609,609,609,595,579,565,541,529,511,506,503,499,493,468,451,434,410,400,385,383,383,383,383,383,383,380,373,362,346,342,340,338,338,338,338,338,338,338,338,330,315,294,257,157,93,46,12,0,0,0,0,0,0,0,0,0,0,0,3],"timestamp_mouse":[4,22,41,63,82,101,121,141,162,182,203,222,241,262,282,302,321,342,363,383,401,421,443,463,482,502,522,542,562,582,601,622,642,662,682,702,722,742,762,783,802,821,841,863,881,902,922,942,962,983,1002,1023,1042,1061,1081,1102,1122,1143,1162,1181,1202,1223,1242,1262,1282,1302,1322,1343,1363,1382,1402,1422,1442,1462,1481,1502],"xSR":741.5,"ySR":573.95,"xT1":424.9,"yT1":0,"xT2":1058.1,"yT2":0,"toosoon":0,"cond_shown":"randomdotsizeEA","ratio_trial":900,"smaller_num":"18","larger_num":"20","correct_side":1,"subjID":"MiguelAngelMendoza29","gender":"0","age":"10","school":"6"},{"start_time":1551900664522,"click_time":1551900665062,"finger_time":1551900664983,"fix_duration":1278.0272500908807,"trial":23,"RT":461,"MT":79,"sideResp":1,"stimulus":"img/250/equaldotsize/L/3_Ratio_250_L_8_R_2.png","xmouse":[790,790,790,790,790,790,790,790,790,790,790,790,790,790,790,790,790,790,790,790,790,790,787,770,687,627,520,468],"ymouse":[606,606,606,606,606,606,606,606,606,606,606,606,606,606,606,606,606,606,606,606,606,606,597,572,453,358,177,96],"timestamp_mouse":[4,25,41,60,81,100,121,141,161,180,201,221,241,261,281,301,321,340,361,382,401,421,441,461,482,501,521,540],"xSR":741.5,"ySR":573.95,"xT1":424.9,"yT1":0,"xT2":1058.1,"yT2":0,"toosoon":0,"cond_shown":"equaldotsize","ratio_trial":250,"smaller_num":"2","larger_num":"8","correct_side":1,"subjID":"MiguelAngelMendoza29","gender":"0","age":"10","school":"6"},{"start_time":1551900668645,"click_time":1551900669463,"finger_time":1551900669103,"fix_duration":1301.7838167544498,"trial":24,"RT":458,"MT":360,"sideResp":1,"stimulus":"img/500/randomdotsizeEA/L/10_Ratio_500_L_4_R_2.png","xmouse":[806,806,806,806,806,806,806,806,806,806,806,806,806,806,806,806,806,806,806,806,799,786,769,751,710,690,668,632,611,574,558,550,545,542,542,542,542,542,542,535,522],"ymouse":[648,648,648,648,648,648,648,648,648,648,648,648,648,648,648,648,648,648,648,646,630,599,558,518,425,377,328,251,200,92,37,0,0,0,0,0,0,0,0,0,1],"timestamp_mouse":[19,39,58,78,97,119,139,158,178,198,218,239,258,278,297,317,339,358,378,398,417,438,458,478,497,518,537,559,578,599,617,638,658,679,698,717,738,758,779,798,818],"xSR":741.5,"ySR":573.95,"xT1":424.9,"yT1":0,"xT2":1058.1,"yT2":0,"toosoon":0,"cond_shown":"randomdotsizeEA","ratio_trial":500,"smaller_num":"2","larger_num":"4","correct_side":1,"subjID":"MiguelAngelMendoza29","gender":"0","age":"10","school":"6"},{"start_time":1551900671442,"click_time":1551900672183,"finger_time":1551900671924,"fix_duration":1037.91004322084,"trial":25,"RT":482,"MT":259,"sideResp":2,"stimulus":"img/900/equaldotanddens/L/1_Ratio_900_L_10_R_9.png","xmouse":[777,777,777,777,777,777,777,777,777,777,777,777,777,777,777,777,777,777,777,777,784,792,801,808,815,844,862,891,906,915,941,953,963,973,983,1015,1037,1068],"ymouse":[631,631,631,631,631,631,631,631,631,631,631,631,631,631,631,631,631,631,631,631,620,607,593,577,563,523,498,452,421,395,336,309,284,258,235,173,127,66],"timestamp_mouse":[3,21,41,60,81,101,121,141,160,182,201,221,241,261,282,300,321,341,360,381,401,420,441,461,482,500,521,541,561,581,601,620,641,661,682,700,721,741],"xSR":741.5,"ySR":573.95,"xT1":424.9,"yT1":0,"xT2":1058.1,"yT2":0,"toosoon":0,"cond_shown":"equaldotanddens","ratio_trial":900,"smaller_num":"9","larger_num":"10","correct_side":1,"subjID":"MiguelAngelMendoza29","gender":"0","age":"10","school":"6"},{"start_time":1551900673694,"click_time":1551900674724,"finger_time":1551900674303,"fix_duration":730.3422826848306,"trial":26,"RT":609,"MT":421,"sideResp":1,"stimulus":"img/750/equaldotsize/L/8_Ratio_750_L_4_R_3.png","xmouse":[782,782,782,782,782,782,782,782,782,782,782,782,782,782,782,782,782,782,782,782,782,782,782,782,782,782,782,782,782,773,755,729,674,641,614,577,548,474,435,399,379,375,374,374,374,374,374,374,378,388,403,425],"ymouse":[652,652,652,653,653,653,653,653,653,653,653,654,654,656,656,656,656,656,656,656,656,656,656,656,656,656,656,656,643,612,564,502,378,320,262,178,115,0,0,0,0,0,0,0,0,0,0,0,5,20,41,69],"timestamp_mouse":[10,29,48,69,88,109,130,148,169,189,209,230,250,269,288,310,329,350,369,389,409,429,449,469,489,510,529,549,568,589,609,630,648,669,689,709,729,748,769,790,809,829,849,869,889,909,930,950,970,989,1009,1030],"xSR":741.5,"ySR":573.95,"xT1":424.9,"yT1":0,"xT2":1058.1,"yT2":0,"toosoon":0,"cond_shown":"equaldotsize","ratio_trial":750,"smaller_num":"3","larger_num":"4","correct_side":1,"subjID":"MiguelAngelMendoza29","gender":"0","age":"10","school":"6"},{"start_time":1551900676509,"click_time":1551900677583,"finger_time":1551900677023,"fix_duration":765.1196674501562,"trial":27,"RT":514,"MT":560,"sideResp":2,"stimulus":"img/250/equaldotsize/R/12_Ratio_250_L_5_R_20.png","xmouse":[772,772,772,772,772,772,772,772,772,772,772,772,772,772,772,772,772,772,772,772,772,772,774,792,810,829,878,919,967,1026,1091,1233,1310,1325,1343,1343,1343,1343,1343,1343,1341,1313,1278,1270,1250,1243,1229,1224,1218,1214,1206,1187,1164,1157],"ymouse":[624,624,624,624,624,624,624,624,624,624,624,624,624,624,624,624,624,624,624,624,624,624,624,606,586,560,482,420,349,262,165,0,0,0,0,0,0,0,0,0,0,0,0,3,11,14,16,17,17,17,18,29,42,49],"timestamp_mouse":[13,33,54,74,94,114,134,153,174,194,214,233,254,274,295,314,334,354,374,394,414,433,453,473,494,514,534,553,574,594,613,633,653,675,694,714,734,755,774,794,813,834,854,874,895,914,934,954,974,994,1014,1034,1054,1074],"xSR":741.5,"ySR":573.95,"xT1":424.9,"yT1":0,"xT2":1058.1,"yT2":0,"toosoon":0,"cond_shown":"equaldotsize","ratio_trial":250,"smaller_num":"5","larger_num":"20","correct_side":2,"subjID":"MiguelAngelMendoza29","gender":"0","age":"10","school":"6"},{"start_time":1551900681118,"click_time":1551900681902,"finger_time":1551900681782,"fix_duration":653.0961988461157,"trial":28,"RT":664,"MT":120,"sideResp":1,"stimulus":"img/250/randomdotsizeEA/L/7_Ratio_250_L_8_R_2.png","xmouse":[791,791,791,791,791,791,791,791,791,791,791,791,791,791,791,791,791,791,791,791,791,791,791,791,791,791,791,791,791,791,791,791,792,753,716,675,584,539,491,459],"ymouse":[640,640,640,640,640,640,640,640,640,640,640,640,640,640,640,640,640,640,640,640,640,640,640,640,640,640,640,640,640,640,640,640,633,565,498,426,266,194,126,79],"timestamp_mouse":[6,26,45,64,86,105,126,144,165,186,204,226,245,266,286,306,324,346,365,384,405,426,445,466,485,504,525,545,566,586,606,624,645,664,686,704,725,745,765,784],"xSR":741.5,"ySR":573.95,"xT1":424.9,"yT1":0,"xT2":1058.1,"yT2":0,"toosoon":0,"cond_shown":"randomdotsizeEA","ratio_trial":250,"smaller_num":"2","larger_num":"8","correct_side":1,"subjID":"MiguelAngelMendoza29","gender":"0","age":"10","school":"6"},{"start_time":1551900684065,"click_time":1551900685023,"finger_time":1551900684623,"fix_duration":961.5568310842449,"trial":29,"RT":558,"MT":400,"sideResp":1,"stimulus":"img/250/randomdotsizeEA/L/1_Ratio_250_L_8_R_2.png","xmouse":[790,790,790,790,790,790,790,790,790,790,790,790,790,790,790,790,790,790,790,790,790,790,790,789,779,768,753,732,702,682,656,633,609,575,564,549,543,535,522,520,520,520,520,520,518,510,502,490],"ymouse":[639,639,639,639,639,639,639,639,639,639,639,639,639,639,639,639,639,639,639,639,639,639,639,639,630,622,609,583,522,480,430,377,327,246,217,186,172,160,141,137,134,133,133,133,128,114,101,81],"timestamp_mouse":[18,37,58,79,98,119,139,158,178,198,219,238,258,279,299,318,338,358,378,399,418,438,459,478,498,518,538,558,579,597,618,638,658,677,698,717,737,758,778,797,817,837,858,877,898,918,938,958],"xSR":741.5,"ySR":573.95,"xT1":424.9,"yT1":0,"xT2":1058.1,"yT2":0,"toosoon":0,"cond_shown":"randomdotsizeEA","ratio_trial":250,"smaller_num":"2","larger_num":"8","correct_side":1,"subjID":"MiguelAngelMendoza29","gender":"0","age":"10","school":"6"},{"start_time":1551900686310,"click_time":1551900687163,"finger_time":1551900686942,"fix_duration":346.604872697464,"trial":30,"RT":632,"MT":221,"sideResp":2,"stimulus":"img/900/equaldotanddens/R/5_Ratio_900_L_9_R_10.png","xmouse":[778,778,778,778,778,778,778,778,778,778,778,778,778,778,778,778,778,778,778,778,778,778,778,778,778,778,778,778,779,781,786,810,830,858,904,938,1002,1025,1043,1054,1059,1066,1071],"ymouse":[592,592,592,592,592,592,592,592,592,592,592,592,592,592,592,592,592,592,592,592,592,592,592,592,592,592,592,592,592,592,584,553,528,491,430,383,297,266,232,202,176,131,98],"timestamp_mouse":[13,33,52,72,93,112,134,152,172,193,213,233,253,272,293,314,333,354,374,393,414,433,452,473,493,513,532,553,573,593,614,632,654,674,693,713,734,753,773,793,813,832,853],"xSR":741.5,"ySR":573.95,"xT1":424.9,"yT1":0,"xT2":1058.1,"yT2":0,"toosoon":0,"cond_shown":"equaldotanddens","ratio_trial":900,"smaller_num":"9","larger_num":"10","correct_side":2,"subjID":"MiguelAngelMendoza29","gender":"0","age":"10","school":"6"},{"start_time":1551900720457,"click_time":1551900722183,"finger_time":1551900721262,"fix_duration":1412.812011876465,"trial":31,"RT":805,"MT":921,"sideResp":1,"stimulus":"img/750/equaldotsize/L/10_Ratio_750_L_4_R_3.png","xmouse":[805,805,805,805,805,805,805,805,805,805,805,805,805,805,805,805,805,805,805,805,806,806,806,806,807,807,807,807,807,807,807,807,807,807,807,807,807,807,801,759,703,632,555,466,279,203,148,114,103,90,90,90,90,92,99,105,116,134,158,206,230,252,272,281,285,287,297,304,311,333,347,361,377,389,396,397,398,399,399,407,411,412,412,413,416,423,437],"ymouse":[617,617,617,617,617,617,617,617,617,617,617,617,617,617,617,617,617,617,617,617,618,618,618,618,619,619,619,619,619,619,619,619,619,619,619,619,619,619,612,594,573,552,526,485,395,346,306,259,225,173,153,140,131,127,116,111,104,90,75,45,33,24,16,13,13,13,13,13,13,19,24,29,34,38,41,42,43,44,44,44,44,44,44,44,44,44,42],"timestamp_mouse":[5,26,46,66,85,107,126,147,165,186,207,225,245,266,286,306,325,346,365,387,407,426,446,467,486,505,525,546,566,586,606,627,645,665,685,707,725,746,765,785,805,826,845,866,886,906,925,946,966,985,1006,1025,1045,1067,1085,1106,1126,1145,1165,1185,1206,1226,1245,1266,1286,1307,1325,1346,1365,1385,1405,1427,1446,1466,1486,1505,1525,1546,1565,1587,1606,1625,1647,1665,1686,1706,1725],"xSR":741.5,"ySR":573.95,"xT1":424.9,"yT1":0,"xT2":1058.1,"yT2":0,"toosoon":0,"cond_shown":"equaldotsize","ratio_trial":750,"smaller_num":"3","larger_num":"4","correct_side":1,"subjID":"MiguelAngelMendoza29","gender":"0","age":"10","school":"6"},{"start_time":1551900724004,"click_time":1551900725302,"finger_time":1551900724703,"fix_duration":960.1034069553064,"trial":32,"RT":699,"MT":599,"sideResp":2,"stimulus":"img/900/equaldotsize/L/10_Ratio_900_L_20_R_18.png","xmouse":[816,816,816,816,816,816,816,816,816,816,816,816,816,816,816,816,816,816,816,816,816,816,816,816,816,816,816,816,816,816,816,815,816,820,825,831,844,849,850,850,850,853,853,856,860,864,872,879,893,905,917,943,962,974,986,1000,1021,1024,1024,1024,1024,1027,1034,1047,1062],"ymouse":[619,619,619,619,619,619,619,619,619,619,619,619,619,619,619,619,619,619,619,619,619,619,619,619,619,619,619,619,619,619,619,612,604,591,573,554,505,472,440,402,381,344,326,312,298,284,258,243,223,212,199,151,116,90,71,42,13,11,11,11,11,11,11,17,24],"timestamp_mouse":[18,38,58,79,98,120,139,159,180,198,218,238,259,279,298,318,339,358,379,398,419,438,460,479,498,519,540,558,579,599,618,639,658,678,699,720,738,758,778,798,818,839,858,879,899,920,938,958,978,1000,1018,1039,1058,1078,1099,1120,1138,1158,1179,1199,1220,1238,1258,1280,1298],"xSR":741.5,"ySR":573.95,"xT1":424.9,"yT1":0,"xT2":1058.1,"yT2":0,"toosoon":0,"cond_shown":"equaldotsize","ratio_trial":900,"smaller_num":"18","larger_num":"20","correct_side":1,"subjID":"MiguelAngelMendoza29","gender":"0","age":"10","school":"6"},{"start_time":1551900726874,"click_time":1551900728102,"finger_time":1551900727542,"fix_duration":250,"trial":33,"RT":668,"MT":560,"sideResp":2,"stimulus":"img/750/equaldotanddens/R/4_Ratio_750_L_15_R_20.png","xmouse":[810,810,810,810,810,810,810,810,810,810,810,810,810,810,810,810,810,810,810,810,810,810,810,810,810,810,810,810,810,810,809,809,809,808,808,808,823,833,850,855,858,863,869,880,888,889,893,900,929,942,964,986,1001,1014,1015,1015,1015,1015,1019,1033,1054,1078],"ymouse":[610,610,610,610,610,610,610,610,610,610,610,610,610,610,610,610,610,610,610,610,610,610,610,610,610,610,610,610,610,610,604,593,577,537,467,440,335,264,162,129,104,81,61,38,26,25,21,21,21,21,27,34,39,42,42,42,42,42,42,42,42,42],"timestamp_mouse":[10,30,48,69,89,110,130,149,169,190,209,228,250,270,289,309,329,348,368,390,408,429,450,468,488,509,529,549,568,588,608,628,649,668,690,708,728,749,769,788,808,828,849,868,889,909,928,948,969,988,1009,1028,1048,1068,1089,1108,1129,1149,1169,1189,1209,1228],"xSR":741.5,"ySR":573.95,"xT1":424.9,"yT1":0,"xT2":1058.1,"yT2":0,"toosoon":0,"cond_shown":"equaldotanddens","ratio_trial":750,"smaller_num":"15","larger_num":"20","correct_side":2,"subjID":"MiguelAngelMendoza29","gender":"0","age":"10","school":"6"},{"start_time":1551900729692,"click_time":1551900730582,"finger_time":1551900730143,"fix_duration":688.2422779191651,"trial":34,"RT":451,"MT":439,"sideResp":1,"stimulus":"img/250/equaldotanddens/L/1_Ratio_250_L_8_R_2.png","xmouse":[809,809,809,809,809,809,809,809,809,809,809,809,809,809,809,809,809,809,809,804,799,790,718,635,617,571,547,499,484,466,451,441,427,424,423,423,425,429,431,433,436,436,436,436,432],"ymouse":[631,631,631,631,631,631,631,631,631,631,631,631,631,631,631,631,631,631,631,629,627,619,577,539,529,494,474,433,414,392,371,351,315,297,281,275,261,245,232,219,201,178,127,105,87],"timestamp_mouse":[11,30,50,70,91,111,131,151,170,191,210,230,250,271,290,310,331,350,371,390,411,431,451,471,491,510,531,551,570,590,610,632,650,670,690,711,730,750,771,791,810,831,850,870,890],"xSR":741.5,"ySR":573.95,"xT1":424.9,"yT1":0,"xT2":1058.1,"yT2":0,"toosoon":0,"cond_shown":"equaldotanddens","ratio_trial":250,"smaller_num":"2","larger_num":"8","correct_side":1,"subjID":"MiguelAngelMendoza29","gender":"0","age":"10","school":"6"},{"start_time":1551900732101,"click_time":1551900733263,"finger_time":1551900732742,"fix_duration":637.0135589751737,"trial":35,"RT":641,"MT":521,"sideResp":1,"stimulus":"img/250/randomdotsizeEA/L/5_Ratio_250_L_24_R_6.png","xmouse":[761,761,761,761,761,761,761,761,761,761,761,761,761,761,761,761,761,761,761,761,762,762,771,775,778,781,781,781,781,781,781,781,781,771,756,722,680,592,538,479,429,393,339,323,312,305,298,295,295,295,295,297,315,339,361,381,398,424,434],"ymouse":[624,624,624,624,624,624,624,624,624,624,624,624,624,624,624,624,624,624,624,624,624,622,601,591,583,575,574,574,574,574,574,574,570,560,547,519,488,415,368,315,268,225,146,108,74,47,7,0,0,0,0,0,0,1,4,7,10,16,17],"timestamp_mouse":[4,21,42,61,82,101,121,142,161,182,202,222,242,261,283,303,323,341,361,381,401,422,441,461,482,502,523,541,561,582,602,621,641,663,682,701,722,741,761,781,802,821,841,862,881,902,922,943,962,982,1001,1023,1041,1061,1081,1103,1122,1142,1162],"xSR":741.5,"ySR":573.95,"xT1":424.9,"yT1":0,"xT2":1058.1,"yT2":0,"toosoon":0,"cond_shown":"randomdotsizeEA","ratio_trial":250,"smaller_num":"6","larger_num":"24","correct_side":1,"subjID":"MiguelAngelMendoza29","gender":"0","age":"10","school":"6"},{"start_time":1551900734755,"click_time":1551900735783,"finger_time":1551900735223,"fix_duration":331.2437170807363,"trial":36,"RT":468,"MT":560,"sideResp":2,"stimulus":"img/250/randomdotsizeEA/R/4_Ratio_250_L_3_R_12.png","xmouse":[778,778,778,778,778,778,778,778,778,778,778,778,778,778,778,778,778,779,781,788,792,798,804,810,813,813,813,816,816,818,824,836,859,867,883,888,893,900,908,935,952,978,991,1004,1017,1022,1029,1034,1041,1052,1057,1063],"ymouse":[637,637,637,637,637,637,637,637,637,637,637,637,637,637,637,637,637,636,635,623,614,595,577,556,515,495,476,452,426,358,315,276,216,186,148,139,135,133,131,124,119,110,105,102,96,92,87,82,74,54,42,30],"timestamp_mouse":[7,27,47,68,87,107,127,148,169,188,207,228,247,267,288,308,327,347,367,387,408,427,448,468,487,507,528,548,568,587,608,628,648,667,687,708,728,748,767,787,808,827,848,867,887,908,927,947,968,987,1007,1028],"xSR":741.5,"ySR":573.95,"xT1":424.9,"yT1":0,"xT2":1058.1,"yT2":0,"toosoon":0,"cond_shown":"randomdotsizeEA","ratio_trial":250,"smaller_num":"3","larger_num":"12","correct_side":2,"subjID":"MiguelAngelMendoza29","gender":"0","age":"10","school":"6"},{"start_time":1551900736993,"click_time":1551900737883,"finger_time":1551900737443,"fix_duration":250,"trial":37,"RT":450,"MT":440,"sideResp":1,"stimulus":"img/250/equaldotsize/L/14_Ratio_250_L_12_R_3.png","xmouse":[792,792,792,792,792,792,792,792,792,792,792,792,792,792,792,792,792,792,792,792,790,778,726,689,655,624,591,522,489,443,426,416,410,409,409,409,409,409,409,409,409,410,415,420,431],"ymouse":[598,598,598,598,598,598,598,598,598,598,598,598,598,598,598,598,598,598,598,598,595,581,537,503,459,408,349,248,206,151,132,116,102,100,100,100,100,100,100,99,96,93,87,83,79],"timestamp_mouse":[10,29,50,70,90,111,130,149,169,190,209,230,250,269,290,309,329,350,371,389,410,429,450,469,489,510,529,549,570,590,609,630,649,670,690,710,730,749,770,789,809,830,849,869,890],"xSR":741.5,"ySR":573.95,"xT1":424.9,"yT1":0,"xT2":1058.1,"yT2":0,"toosoon":0,"cond_shown":"equaldotsize","ratio_trial":250,"smaller_num":"3","larger_num":"12","correct_side":1,"subjID":"MiguelAngelMendoza29","gender":"0","age":"10","school":"6"},{"start_time":1551900740535,"click_time":1551900741242,"finger_time":1551900741042,"fix_duration":1150.5444603141632,"trial":38,"RT":507,"MT":200,"sideResp":2,"stimulus":"img/900/equaldotsize/R/14_Ratio_900_L_18_R_20.png","xmouse":[803,803,803,803,803,803,803,803,803,803,803,803,803,803,803,803,803,803,803,802,802,802,802,806,810,817,823,827,831,836,849,857,881,930,1016,1107],"ymouse":[644,644,644,644,644,644,644,644,644,644,644,644,644,644,644,644,644,644,644,643,639,635,624,602,583,537,513,491,469,450,410,390,342,266,153,13],"timestamp_mouse":[12,29,49,67,87,108,128,149,167,188,207,227,247,269,287,307,328,349,367,387,407,427,448,468,487,507,527,548,568,589,607,628,648,669,687,707],"xSR":741.5,"ySR":573.95,"xT1":424.9,"yT1":0,"xT2":1058.1,"yT2":0,"toosoon":0,"cond_shown":"equaldotsize","ratio_trial":900,"smaller_num":"18","larger_num":"20","correct_side":2,"subjID":"MiguelAngelMendoza29","gender":"0","age":"10","school":"6"},{"start_time":1551900743809,"click_time":1551900744964,"finger_time":1551900744283,"fix_duration":1405.791017116615,"trial":39,"RT":474,"MT":681,"sideResp":1,"stimulus":"img/250/equaldotsize/L/3_Ratio_250_L_8_R_2.png","xmouse":[795,795,795,795,795,795,795,795,795,795,795,795,795,795,795,795,795,795,795,794,793,781,767,751,732,711,668,652,631,597,576,539,528,523,522,522,522,522,522,522,522,517,511,504,503,503,498,492,485,482,482,482,482,482,482,482,482,482],"ymouse":[631,631,631,631,631,631,631,631,631,631,631,631,631,631,631,631,631,631,631,629,624,599,581,564,546,520,457,428,391,332,295,236,215,202,195,191,190,190,190,189,186,172,161,152,146,145,137,130,119,113,112,111,111,111,110,109,100,93],"timestamp_mouse":[14,34,54,74,93,115,133,153,173,195,215,234,254,274,293,315,334,353,374,393,413,433,453,474,494,514,533,554,574,593,614,634,653,674,693,713,734,754,774,795,815,833,853,873,893,915,934,953,973,993,1015,1033,1054,1073,1093,1113,1133,1154],"xSR":741.5,"ySR":573.95,"xT1":424.9,"yT1":0,"xT2":1058.1,"yT2":0,"toosoon":0,"cond_shown":"equaldotsize","ratio_trial":250,"smaller_num":"2","larger_num":"8","correct_side":1,"subjID":"MiguelAngelMendoza29","gender":"0","age":"10","school":"6"},{"start_time":1551900747319,"click_time":1551900747983,"finger_time":1551900747823,"fix_duration":1235.64809095198,"trial":40,"RT":504,"MT":160,"sideResp":1,"stimulus":"img/250/equaldotanddens/L/5_Ratio_250_L_24_R_6.png","xmouse":[794,794,794,794,794,794,794,794,794,794,794,794,794,794,794,794,794,794,794,794,794,794,794,794,791,782,752,727,696,666,633,569,542,516],"ymouse":[599,599,599,599,599,599,599,599,599,599,599,599,599,599,599,599,599,599,599,599,599,599,599,595,581,563,515,480,435,382,319,198,143,93],"timestamp_mouse":[4,24,44,63,84,105,124,144,165,185,203,223,243,263,283,304,325,344,363,384,405,423,443,463,485,504,523,543,563,583,603,623,644,664],"xSR":741.5,"ySR":573.95,"xT1":424.9,"yT1":0,"xT2":1058.1,"yT2":0,"toosoon":0,"cond_shown":"equaldotanddens","ratio_trial":250,"smaller_num":"6","larger_num":"24","correct_side":1,"subjID":"MiguelAngelMendoza29","gender":"0","age":"10","school":"6"},{"start_time":1551900750061,"click_time":1551900750923,"finger_time":1551900750582,"fix_duration":1217.4176481542208,"trial":41,"RT":521,"MT":341,"sideResp":2,"stimulus":"img/750/equaldotanddens/R/11_Ratio_750_L_12_R_16.png","xmouse":[776,776,776,776,776,776,776,776,776,776,776,776,776,776,776,776,776,776,776,776,776,776,776,776,783,787,806,825,845,881,896,911,930,945,968,981,991,1006,1017,1036,1043,1050,1055,1062],"ymouse":[598,598,598,598,598,598,598,598,598,598,598,598,598,598,598,598,598,598,598,598,598,598,598,598,588,580,545,513,477,405,365,330,295,271,229,211,196,174,159,126,106,84,63,41],"timestamp_mouse":[4,22,41,62,82,101,122,142,161,181,201,221,242,261,283,301,321,342,361,381,402,422,443,461,481,501,521,541,561,583,601,622,643,663,681,701,721,742,762,781,801,821,841,862],"xSR":741.5,"ySR":573.95,"xT1":424.9,"yT1":0,"xT2":1058.1,"yT2":0,"toosoon":0,"cond_shown":"equaldotanddens","ratio_trial":750,"smaller_num":"12","larger_num":"16","correct_side":2,"subjID":"MiguelAngelMendoza29","gender":"0","age":"10","school":"6"},{"start_time":1551900756154,"click_time":1551900757523,"finger_time":1551900756782,"fix_duration":910.1505026554377,"trial":42,"RT":628,"MT":741,"sideResp":2,"stimulus":"img/500/randomdotsizeEA/R/3_Ratio_500_L_10_R_20.png","xmouse":[808,808,808,808,808,808,808,808,808,808,808,808,808,808,808,808,808,808,808,807,807,807,807,807,807,807,807,806,805,805,805,810,816,820,831,838,843,848,854,863,867,872,875,875,875,877,882,889,899,913,918,931,937,943,950,952,955,959,967,988,1000,1012,1020,1025,1030,1035,1042,1050,1059],"ymouse":[595,595,595,595,595,595,595,595,595,595,595,595,595,595,595,595,595,595,595,595,594,594,594,594,594,594,594,594,592,584,578,568,560,552,529,516,501,480,459,407,383,361,335,318,289,272,257,242,227,198,186,171,162,153,138,133,126,121,112,90,80,73,69,66,66,66,64,61,60],"timestamp_mouse":[9,28,49,68,88,110,128,148,168,188,208,229,248,268,289,310,330,348,369,388,409,429,449,468,488,509,529,548,568,588,610,628,649,668,688,708,730,749,769,789,808,828,850,869,888,909,930,949,968,988,1009,1029,1048,1069,1089,1108,1128,1148,1168,1188,1209,1229,1249,1268,1288,1309,1328,1349,1369],"xSR":741.5,"ySR":573.95,"xT1":424.9,"yT1":0,"xT2":1058.1,"yT2":0,"toosoon":0,"cond_shown":"randomdotsizeEA","ratio_trial":500,"smaller_num":"10","larger_num":"20","correct_side":2,"subjID":"MiguelAngelMendoza29","gender":"0","age":"10","school":"6"},{"start_time":1551900762674,"click_time":1551900764244,"finger_time":1551900763323,"fix_duration":250,"trial":43,"RT":649,"MT":921,"sideResp":2,"stimulus":"img/900/equaldotsize/R/13_Ratio_900_L_18_R_20.png","xmouse":[809,809,809,809,809,809,809,809,809,809,809,809,809,809,809,809,809,809,809,809,809,809,809,809,809,809,809,809,809,809,809,810,810,814,819,823,826,835,854,865,876,886,897,897,897,897,897,897,904,907,912,918,929,952,960,960,960,960,971,984,997,1010,1020,1033,1036,1036,1036,1036,1038,1041,1043,1046,1048,1049,1051,1054,1056,1058,1066],"ymouse":[585,585,585,585,585,585,585,585,585,585,585,585,585,585,585,585,585,585,585,585,585,585,585,585,585,585,585,585,585,583,579,574,567,555,547,539,531,510,467,443,419,394,346,322,301,273,263,237,210,202,195,188,182,170,165,165,165,165,155,141,127,114,100,84,79,79,79,79,77,74,74,73,73,73,73,72,71,69,61],"timestamp_mouse":[9,29,48,68,89,108,128,149,170,188,210,230,250,269,288,308,330,349,368,389,408,429,448,469,488,510,528,549,569,588,608,629,649,669,688,709,729,748,769,788,809,829,849,868,889,909,929,949,969,988,1008,1029,1048,1068,1089,1108,1129,1148,1169,1188,1208,1228,1248,1268,1289,1308,1328,1350,1370,1388,1409,1428,1449,1468,1489,1509,1529,1548,1570],"xSR":741.5,"ySR":573.95,"xT1":424.9,"yT1":0,"xT2":1058.1,"yT2":0,"toosoon":0,"cond_shown":"equaldotsize","ratio_trial":900,"smaller_num":"18","larger_num":"20","correct_side":2,"subjID":"MiguelAngelMendoza29","gender":"0","age":"10","school":"6"},{"start_time":1551900765325,"click_time":1551900767842,"finger_time":1551900766002,"fix_duration":261.32631314336305,"trial":44,"RT":677,"MT":1840,"sideResp":2,"stimulus":"img/750/equaldotsize/R/4_Ratio_750_L_15_R_20.png","xmouse":[774,774,774,774,774,774,774,774,774,774,774,774,774,774,774,774,774,774,774,774,774,774,774,774,774,774,774,774,774,773,771,770,764,656,618,604,604,604,604,604,608,617,631,636,647,651,652,652,653,655,666,679,683,693,700,713,719,730,748,789,876,895,900,902,907,916,921,927,932,935,942,947,952,956,957,957,957,958,959,960,960,961,963,964,966,969,970,971,973,975,980,987,993,998,998,997,992,983,972,962,949,951,951,951,951,951,951,951,951,951,951,951,951,946,944,954,967,990,1006,1017,1027,1030,1032,1039,1045,1060],"ymouse":[650,650,650,650,650,650,650,650,650,650,650,650,650,650,650,650,650,650,650,650,650,650,650,648,647,644,642,641,637,631,620,612,609,603,603,602,602,602,602,602,595,586,575,572,563,557,553,550,545,541,521,493,483,447,425,396,386,375,360,337,296,287,283,283,281,274,270,261,248,234,205,191,181,174,173,168,164,160,155,146,142,138,134,133,130,124,122,121,117,115,108,103,100,97,97,97,101,114,124,135,143,139,139,139,139,139,139,139,139,139,139,139,139,143,145,139,127,115,104,95,84,81,80,76,73,62],"timestamp_mouse":[20,39,58,77,99,117,137,157,178,198,217,238,259,277,299,317,338,357,378,398,417,439,459,477,497,519,538,558,578,598,617,638,657,677,697,717,737,757,778,798,817,837,857,878,897,918,937,958,977,997,1017,1039,1058,1077,1098,1117,1137,1159,1177,1199,1217,1237,1257,1278,1298,1318,1337,1359,1377,1397,1417,1438,1457,1477,1498,1519,1538,1557,1578,1598,1617,1637,1657,1677,1698,1719,1737,1757,1777,1798,1817,1838,1858,1877,1899,1917,1937,1958,1978,1998,2017,2038,2058,2077,2098,2119,2138,2158,2177,2198,2218,2238,2258,2278,2297,2317,2338,2357,2377,2397,2417,2439,2458,2477,2498,2517],"xSR":741.5,"ySR":573.95,"xT1":424.9,"yT1":0,"xT2":1058.1,"yT2":0,"toosoon":0,"cond_shown":"equaldotsize","ratio_trial":750,"smaller_num":"15","larger_num":"20","correct_side":2,"subjID":"MiguelAngelMendoza29","gender":"0","age":"10","school":"6"},{"start_time":1551900769974,"click_time":1551900771203,"finger_time":1551900770883,"fix_duration":749.9893259589736,"trial":45,"RT":909,"MT":320,"sideResp":1,"stimulus":"img/750/randomdotsizeEA/L/1_Ratio_750_L_20_R_15.png","xmouse":[813,813,813,813,813,813,813,813,813,813,813,813,813,813,813,813,813,813,813,813,813,813,813,813,813,813,813,813,813,813,813,813,813,813,813,813,813,813,813,813,813,813,812,805,794,781,767,744,737,729,721,702,687,677,675,669,664,652,606,576,545,516],"ymouse":[628,628,628,628,628,628,628,628,628,628,628,628,628,628,628,628,628,628,628,628,628,628,628,628,628,628,628,628,628,628,628,628,628,628,628,628,628,628,628,628,628,628,626,609,591,572,551,516,500,484,463,429,400,352,333,317,306,286,218,172,114,56],"timestamp_mouse":[8,28,48,69,89,109,128,150,168,188,208,229,248,269,288,309,330,348,369,389,409,428,448,469,489,509,529,550,568,590,609,629,649,668,688,709,728,749,770,789,809,828,848,868,888,909,928,949,968,989,1009,1029,1048,1069,1088,1108,1129,1149,1168,1189,1209,1229],"xSR":741.5,"ySR":573.95,"xT1":424.9,"yT1":0,"xT2":1058.1,"yT2":0,"toosoon":0,"cond_shown":"randomdotsizeEA","ratio_trial":750,"smaller_num":"15","larger_num":"20","correct_side":1,"subjID":"MiguelAngelMendoza29","gender":"0","age":"10","school":"6"},{"start_time":1551900772721,"click_time":1551900773402,"finger_time":1551900773283,"fix_duration":577.0692572259932,"trial":46,"RT":562,"MT":119,"sideResp":2,"stimulus":"img/500/equaldotanddens/R/9_Ratio_500_L_2_R_4.png","xmouse":[812,812,812,812,812,812,812,812,812,812,812,812,812,812,812,812,812,812,812,812,812,812,812,812,812,811,825,840,859,886,936,1051,1097,1135,1150],"ymouse":[629,629,629,629,629,629,629,629,629,629,629,629,629,629,629,629,629,629,629,629,629,629,629,629,629,624,604,581,555,514,445,277,192,102,67],"timestamp_mouse":[5,25,42,61,81,103,121,143,162,183,202,221,243,261,282,303,322,341,361,381,402,421,443,461,483,501,521,541,562,582,601,622,641,661,681],"xSR":741.5,"ySR":573.95,"xT1":424.9,"yT1":0,"xT2":1058.1,"yT2":0,"toosoon":0,"cond_shown":"equaldotanddens","ratio_trial":500,"smaller_num":"2","larger_num":"4","correct_side":2,"subjID":"MiguelAngelMendoza29","gender":"0","age":"10","school":"6"},{"start_time":1551900775642,"click_time":1551900776382,"finger_time":1551900776063,"fix_duration":898.3251784176341,"trial":47,"RT":421,"MT":319,"sideResp":1,"stimulus":"img/500/equaldotsize/L/8_Ratio_500_L_8_R_4.png","xmouse":[804,804,804,804,804,804,804,804,804,804,804,804,804,804,804,804,804,804,803,801,778,762,741,723,708,687,681,676,672,669,661,653,647,640,622,573,537,477],"ymouse":[605,605,605,605,605,605,605,605,605,605,605,605,605,605,605,605,605,605,605,605,576,558,532,506,484,438,422,405,389,378,358,344,330,311,283,213,166,99],"timestamp_mouse":[1,22,41,60,81,101,120,141,160,180,202,222,240,260,281,300,321,340,360,381,400,421,440,460,482,500,520,540,561,580,600,620,641,660,681,701,720,740],"xSR":741.5,"ySR":573.95,"xT1":424.9,"yT1":0,"xT2":1058.1,"yT2":0,"toosoon":0,"cond_shown":"equaldotsize","ratio_trial":500,"smaller_num":"4","larger_num":"8","correct_side":1,"subjID":"MiguelAngelMendoza29","gender":"0","age":"10","school":"6"},{"start_time":1551900778523,"click_time":1551900780163,"finger_time":1551900779062,"fix_duration":960.2035309311433,"trial":48,"RT":539,"MT":1101,"sideResp":1,"stimulus":"img/500/randomdotsizeEA/L/8_Ratio_500_L_8_R_4.png","xmouse":[771,771,771,771,771,771,771,771,771,771,771,771,771,771,771,771,771,771,771,771,771,779,786,809,816,820,821,823,828,834,853,862,869,878,885,906,920,934,950,969,999,1011,1013,1013,1013,1013,1013,1013,1014,1017,1035,1037,1037,1037,1037,1037,1037,1037,1037,1037,1037,1037,1037,1037,1037,1037,1037,1037,1037,1037,1037,1037,1037,1037,1037,1016,989,941,879,795,613,516],"ymouse":[625,625,625,625,625,625,625,625,625,625,625,625,625,625,625,625,625,625,625,625,625,620,614,594,583,576,573,571,566,559,539,526,516,493,470,381,312,238,166,95,1,0,0,0,0,0,0,0,0,0,0,0,0,0,0,0,0,0,0,0,0,0,0,0,0,0,0,0,0,0,0,0,0,0,0,2,6,13,21,32,58,65],"timestamp_mouse":[23,40,61,79,99,121,139,159,180,201,219,239,261,280,299,319,340,360,381,399,419,440,460,479,500,519,539,560,579,601,619,641,660,681,699,719,739,760,779,799,820,839,860,880,900,920,940,961,979,999,1019,1040,1059,1081,1100,1121,1140,1160,1179,1199,1220,1239,1260,1281,1299,1320,1339,1360,1379,1399,1420,1440,1459,1479,1499,1520,1539,1559,1580,1600,1619,1639],"xSR":741.5,"ySR":573.95,"xT1":424.9,"yT1":0,"xT2":1058.1,"yT2":0,"toosoon":0,"cond_shown":"randomdotsizeEA","ratio_trial":500,"smaller_num":"4","larger_num":"8","correct_side":1,"subjID":"MiguelAngelMendoza29","gender":"0","age":"10","school":"6"},{"start_time":1551900784466,"click_time":1551900785422,"finger_time":1551900785043,"fix_duration":1363.2623676450644,"trial":49,"RT":577,"MT":379,"sideResp":1,"stimulus":"img/500/equaldotanddens/L/8_Ratio_500_L_8_R_4.png","xmouse":[781,781,781,781,781,781,781,781,781,781,781,781,781,781,781,781,781,781,781,781,781,781,781,781,781,781,780,773,722,689,659,637,621,607,605,605,605,605,598,591,584,579,573,557,548,543,527,518],"ymouse":[618,618,618,618,618,618,618,618,618,618,618,618,618,618,618,618,618,618,618,618,618,618,618,618,618,618,615,608,559,520,478,447,426,408,405,405,405,405,386,370,352,335,317,255,177,149,74,44],"timestamp_mouse":[17,38,57,77,97,116,136,156,176,196,217,236,258,278,296,316,337,357,376,398,416,438,458,477,498,516,537,557,577,597,617,637,657,677,697,716,737,757,777,796,816,837,857,876,898,917,937,956],"xSR":741.5,"ySR":573.95,"xT1":424.9,"yT1":0,"xT2":1058.1,"yT2":0,"toosoon":0,"cond_shown":"equaldotanddens","ratio_trial":500,"smaller_num":"4","larger_num":"8","correct_side":1,"subjID":"MiguelAngelMendoza29","gender":"0","age":"10","school":"6"},{"start_time":1551900786894,"click_time":1551900788142,"finger_time":1551900787462,"fix_duration":550.9965878037331,"trial":50,"RT":568,"MT":680,"sideResp":2,"stimulus":"img/750/equaldotsize/R/15_Ratio_750_L_9_R_12.png","xmouse":[807,807,807,807,807,807,807,807,807,807,807,807,807,807,807,807,807,807,807,807,807,807,807,807,807,809,816,836,852,871,896,921,952,960,964,967,968,970,975,978,980,981,982,984,990,1004,1015,1037,1043,1048,1052,1056,1064,1066,1068,1069,1070,1070,1070,1070,1070,1070,1070],"ymouse":[641,641,641,641,641,641,641,641,641,641,641,641,641,641,641,641,641,641,641,641,641,641,641,641,641,636,626,596,574,547,518,480,418,394,357,332,306,273,261,253,251,249,247,244,241,233,226,209,203,195,185,174,151,135,118,113,107,105,105,105,104,100,97],"timestamp_mouse":[10,29,49,68,88,110,129,149,168,190,210,228,248,269,290,309,328,348,370,390,409,428,449,468,488,510,529,550,568,590,609,629,648,669,688,709,729,749,768,789,809,829,848,869,889,909,929,949,969,989,1009,1030,1048,1070,1088,1109,1130,1148,1169,1189,1209,1230,1248],"xSR":741.5,"ySR":573.95,"xT1":424.9,"yT1":0,"xT2":1058.1,"yT2":0,"toosoon":0,"cond_shown":"equaldotsize","ratio_trial":750,"smaller_num":"9","larger_num":"12","correct_side":2,"subjID":"MiguelAngelMendoza29","gender":"0","age":"10","school":"6"},{"start_time":1551900789402,"click_time":1551900790524,"finger_time":1551900789843,"fix_duration":258.01323726081404,"trial":51,"RT":441,"MT":681,"sideResp":1,"stimulus":"img/250/equaldotanddens/L/1_Ratio_250_L_8_R_2.png","xmouse":[823,820,820,819,819,819,819,819,819,819,819,819,819,819,819,819,819,819,819,813,795,772,714,677,644,608,576,539,529,522,521,520,517,516,513,513,513,511,510,510,510,510,510,510,510,510,510,510,510,510,510,510,506,503,497,489,479],"ymouse":[633,634,634,634,634,634,634,634,634,634,634,634,634,634,634,634,634,634,634,631,618,602,547,504,459,410,363,308,292,284,280,278,252,230,204,180,161,145,144,144,144,144,144,144,144,144,144,144,144,144,144,143,135,129,118,103,83],"timestamp_mouse":[1,20,41,61,81,100,121,141,161,180,201,221,242,260,282,301,321,341,361,380,401,421,441,461,481,500,521,540,561,581,601,621,641,661,681,701,721,741,761,782,801,821,841,862,880,901,921,941,962,982,1002,1020,1041,1061,1080,1100,1122],"xSR":741.5,"ySR":573.95,"xT1":424.9,"yT1":0,"xT2":1058.1,"yT2":0,"toosoon":0,"cond_shown":"equaldotanddens","ratio_trial":250,"smaller_num":"2","larger_num":"8","correct_side":1,"subjID":"MiguelAngelMendoza29","gender":"0","age":"10","school":"6"},{"start_time":1551900793631,"click_time":1551900794622,"finger_time":1551900794142,"fix_duration":1167.0500113450025,"trial":52,"RT":511,"MT":480,"sideResp":2,"stimulus":"img/900/equaldotsize/L/10_Ratio_900_L_20_R_18.png","xmouse":[787,802,814,819,821,821,821,821,821,821,821,821,821,821,821,821,821,821,818,816,812,811,810,808,806,806,806,817,822,854,945,1017,1105,1177,1238,1272,1272,1271,1271,1271,1271,1271,1269,1263,1249,1209,1193,1171,1163,1148],"ymouse":[596,596,596,596,595,595,595,595,595,595,595,595,595,595,595,595,595,594,594,594,592,591,590,587,582,567,554,524,514,468,372,315,247,186,123,70,61,57,57,57,56,52,47,41,36,33,33,33,36,40],"timestamp_mouse":[14,31,53,72,93,112,132,153,171,192,212,231,252,273,292,312,332,351,373,392,412,431,453,472,492,511,532,551,572,592,611,631,652,672,692,711,731,752,772,792,812,831,852,871,892,911,932,951,972,991],"xSR":741.5,"ySR":573.95,"xT1":424.9,"yT1":0,"xT2":1058.1,"yT2":0,"toosoon":0,"cond_shown":"equaldotsize","ratio_trial":900,"smaller_num":"18","larger_num":"20","correct_side":1,"subjID":"MiguelAngelMendoza29","gender":"0","age":"10","school":"6"},{"start_time":1551900797994,"click_time":1551900799643,"finger_time":1551900798482,"fix_duration":491.4737141687958,"trial":53,"RT":488,"MT":1161,"sideResp":2,"stimulus":"img/900/equaldotanddens/R/9_Ratio_900_L_18_R_20.png","xmouse":[812,812,812,812,812,812,812,812,812,812,812,812,812,812,812,812,812,812,812,812,812,812,809,806,804,802,802,802,802,802,802,801,798,797,797,797,797,797,797,797,797,797,797,797,797,797,797,797,798,805,816,847,917,968,1016,1064,1115,1204,1222,1242,1264,1292,1307,1307,1307,1307,1304,1274,1248,1238,1208,1191,1179,1178,1178,1178,1178,1178,1178,1175,1170,1165,1151],"ymouse":[619,619,619,619,619,619,619,619,619,619,619,619,619,619,619,619,619,619,619,619,619,619,596,580,564,555,552,552,552,552,549,541,520,512,509,505,505,505,505,505,505,505,505,505,505,505,505,505,502,491,476,442,376,333,294,242,178,23,0,0,0,0,0,0,0,0,0,29,61,73,104,117,124,125,125,125,125,125,125,120,107,89,53],"timestamp_mouse":[11,29,49,69,89,109,129,149,169,188,209,229,249,269,290,309,329,348,369,390,408,428,449,468,488,509,530,549,570,588,609,629,650,669,688,709,728,750,769,789,809,830,848,870,890,909,928,948,969,989,1009,1029,1049,1069,1089,1109,1129,1149,1169,1189,1209,1229,1250,1269,1289,1309,1330,1349,1369,1389,1410,1429,1450,1469,1490,1508,1529,1549,1569,1588,1610,1629,1648],"xSR":741.5,"ySR":573.95,"xT1":424.9,"yT1":0,"xT2":1058.1,"yT2":0,"toosoon":0,"cond_shown":"equaldotanddens","ratio_trial":900,"smaller_num":"18","larger_num":"20","correct_side":2,"subjID":"MiguelAngelMendoza29","gender":"0","age":"10","school":"6"},{"start_time":1551900800814,"click_time":1551900802084,"finger_time":1551900801442,"fix_duration":250,"trial":54,"RT":628,"MT":642,"sideResp":2,"stimulus":"img/750/equaldotanddens/R/11_Ratio_750_L_12_R_16.png","xmouse":[802,802,802,802,802,802,801,801,801,801,801,801,801,801,801,801,801,801,801,801,801,801,801,801,801,801,801,801,801,801,807,819,825,830,833,836,848,861,896,930,960,1013,1034,1048,1059,1066,1083,1091,1093,1094,1094,1094,1094,1097,1098,1100,1101,1101,1101,1101,1101,1101,1101,1102],"ymouse":[606,606,606,606,606,606,603,603,603,603,603,603,603,603,603,603,603,603,603,603,603,603,603,603,603,603,603,603,601,595,585,563,556,549,546,540,514,494,450,409,370,293,261,235,215,197,171,160,156,155,155,155,154,150,146,141,135,133,133,131,127,115,105,83],"timestamp_mouse":[9,30,48,68,89,109,129,149,168,189,208,230,249,270,290,309,330,349,368,389,408,429,450,468,488,508,530,549,568,588,609,628,649,669,689,710,728,749,769,789,809,829,849,869,889,909,929,949,969,989,1008,1030,1048,1069,1088,1109,1129,1149,1168,1190,1210,1229,1249,1270],"xSR":741.5,"ySR":573.95,"xT1":424.9,"yT1":0,"xT2":1058.1,"yT2":0,"toosoon":0,"cond_shown":"equaldotanddens","ratio_trial":750,"smaller_num":"12","larger_num":"16","correct_side":2,"subjID":"MiguelAngelMendoza29","gender":"0","age":"10","school":"6"},{"start_time":1551900803185,"click_time":1551900804022,"finger_time":1551900803842,"fix_duration":421.51452948765325,"trial":55,"RT":657,"MT":180,"sideResp":1,"stimulus":"img/750/equaldotsize/L/6_Ratio_750_L_24_R_18.png","xmouse":[807,807,807,807,807,807,807,807,807,807,807,807,807,807,807,807,807,807,807,807,807,807,807,805,801,796,791,779,776,770,761,754,729,713,701,689,680,641,591,575,530,502],"ymouse":[636,636,636,636,636,636,636,636,636,636,636,636,636,636,636,636,636,636,636,636,636,636,636,636,632,626,623,610,607,598,585,575,541,517,493,469,439,321,206,167,66,11],"timestamp_mouse":[17,38,58,79,98,118,138,158,178,198,218,238,257,278,298,318,338,359,379,399,418,437,458,477,497,518,538,557,578,597,617,639,657,677,698,718,738,757,778,798,818,837],"xSR":741.5,"ySR":573.95,"xT1":424.9,"yT1":0,"xT2":1058.1,"yT2":0,"toosoon":0,"cond_shown":"equaldotsize","ratio_trial":750,"smaller_num":"18","larger_num":"24","correct_side":1,"subjID":"MiguelAngelMendoza29","gender":"0","age":"10","school":"6"},{"start_time":1551900807079,"click_time":1551900808462,"finger_time":1551900807643,"fix_duration":1195.668075522712,"trial":56,"RT":564,"MT":819,"sideResp":1,"stimulus":"img/750/equaldotanddens/L/10_Ratio_750_L_4_R_3.png","xmouse":[778,778,778,778,778,778,778,778,778,778,778,778,778,778,778,778,778,778,778,778,778,778,779,779,780,781,781,781,780,777,770,762,750,731,724,717,715,711,702,682,657,624,591,560,552,552,552,552,547,547,546,546,546,542,538,538,538,537,536,536,535,533,532,532,532,532,531,530,525,522],"ymouse":[623,623,623,623,623,623,623,623,623,623,623,623,623,623,623,623,623,623,623,623,623,623,619,611,604,593,585,577,562,554,542,527,515,489,478,455,436,415,350,278,203,128,57,0,0,0,0,3,10,13,14,17,24,52,75,85,89,93,95,96,97,97,98,98,98,98,96,91,64,53],"timestamp_mouse":[4,23,44,65,84,103,124,143,164,184,204,223,243,264,284,304,323,344,364,383,403,423,444,463,484,503,524,544,564,584,604,624,644,663,684,703,724,744,764,784,804,824,844,863,885,904,925,944,963,984,1003,1024,1045,1064,1085,1105,1124,1143,1163,1183,1203,1224,1245,1265,1284,1303,1324,1344,1363,1383],"xSR":741.5,"ySR":573.95,"xT1":424.9,"yT1":0,"xT2":1058.1,"yT2":0,"toosoon":0,"cond_shown":"equaldotanddens","ratio_trial":750,"smaller_num":"3","larger_num":"4","correct_side":1,"subjID":"MiguelAngelMendoza29","gender":"0","age":"10","school":"6"},{"start_time":1551900810743,"click_time":1551900811582,"finger_time":1551900811223,"fix_duration":1039.5772270249904,"trial":57,"RT":480,"MT":359,"sideResp":1,"stimulus":"img/500/equaldotsize/L/7_Ratio_500_L_10_R_5.png","xmouse":[788,788,788,788,788,788,788,788,788,788,788,788,788,788,788,788,788,788,788,788,788,788,786,781,775,758,750,739,726,712,682,665,643,606,576,506,471,451,440,439,439,439,439],"ymouse":[593,593,593,593,593,593,593,593,593,593,593,593,593,593,593,593,593,593,593,593,593,593,587,575,559,517,487,449,405,351,248,200,151,64,11,0,0,0,0,0,0,0,1],"timestamp_mouse":[0,20,41,60,80,101,119,140,160,181,199,220,240,260,280,300,321,340,359,381,400,421,439,460,480,500,520,541,560,579,600,621,640,660,680,700,720,740,761,781,801,821,839],"xSR":741.5,"ySR":573.95,"xT1":424.9,"yT1":0,"xT2":1058.1,"yT2":0,"toosoon":0,"cond_shown":"equaldotsize","ratio_trial":500,"smaller_num":"5","larger_num":"10","correct_side":1,"subjID":"MiguelAngelMendoza29","gender":"0","age":"10","school":"6"},{"start_time":1551900813624,"click_time":1551900815303,"finger_time":1551900814103,"fix_duration":1341.0583020191652,"trial":58,"RT":479,"MT":1200,"sideResp":2,"stimulus":"img/750/equaldotsize/R/2_Ratio_750_L_6_R_8.png","xmouse":[788,788,788,788,788,788,788,788,788,788,788,788,788,788,788,788,788,788,788,788,788,791,802,821,845,931,949,974,1020,1049,1118,1140,1157,1169,1179,1182,1182,1183,1185,1186,1187,1187,1186,1179,1170,1135,1113,1089,1083,1080,1079,1079,1079,1079,1079,1079,1079,1079,1083,1086,1089,1089,1089,1090,1093,1096,1097,1097,1097,1097,1096,1093,1090,1084,1078,1065,1060,1057,1057,1057,1057,1057,1066,1074],"ymouse":[590,590,590,590,590,590,590,590,590,590,590,590,590,590,590,590,590,590,590,590,590,589,578,564,544,473,457,430,373,322,214,168,120,84,57,14,0,0,0,0,0,0,2,18,41,122,181,263,296,321,340,340,340,340,340,340,340,337,311,286,225,194,168,147,129,109,107,107,107,107,117,133,155,182,217,290,310,318,318,316,258,206,146,86],"timestamp_mouse":[19,38,58,80,100,118,140,159,179,199,218,238,259,279,298,319,340,359,379,400,420,438,460,479,500,518,538,559,579,599,619,639,659,679,699,718,739,758,779,798,819,839,858,879,900,918,938,958,978,999,1019,1039,1059,1080,1099,1119,1138,1159,1179,1199,1219,1239,1260,1279,1300,1319,1338,1359,1380,1398,1419,1439,1459,1479,1500,1519,1539,1558,1579,1598,1619,1639,1658,1679],"xSR":741.5,"ySR":573.95,"xT1":424.9,"yT1":0,"xT2":1058.1,"yT2":0,"toosoon":0,"cond_shown":"equaldotsize","ratio_trial":750,"smaller_num":"6","larger_num":"8","correct_side":2,"subjID":"MiguelAngelMendoza29","gender":"0","age":"10","school":"6"},{"start_time":1551900817260,"click_time":1551900817784,"finger_time":1551900817662,"fix_duration":1076.594152979038,"trial":59,"RT":402,"MT":122,"sideResp":1,"stimulus":"img/750/equaldotanddens/L/10_Ratio_750_L_4_R_3.png","xmouse":[803,803,803,803,803,803,803,803,803,803,803,803,803,803,803,803,803,803,798,772,744,707,668,625,539,494,455],"ymouse":[652,652,652,652,652,652,652,652,652,652,652,652,652,652,652,652,652,652,648,612,573,521,459,384,218,138,69],"timestamp_mouse":[5,23,43,63,82,103,123,143,163,183,202,222,243,264,283,302,322,344,363,383,402,424,443,463,482,503,524],"xSR":741.5,"ySR":573.95,"xT1":424.9,"yT1":0,"xT2":1058.1,"yT2":0,"toosoon":0,"cond_shown":"equaldotanddens","ratio_trial":750,"smaller_num":"3","larger_num":"4","correct_side":1,"subjID":"MiguelAngelMendoza29","gender":"0","age":"10","school":"6"},{"start_time":1551900819114,"click_time":1551900819824,"finger_time":1551900819662,"fix_duration":250,"trial":60,"RT":548,"MT":162,"sideResp":2,"stimulus":"img/500/equaldotanddens/R/2_Ratio_500_L_3_R_6.png","xmouse":[804,804,804,804,804,804,804,804,804,804,804,804,804,804,804,804,804,804,810,817,820,823,824,825,825,825,825,827,830,834,842,875,897,927,996,1060],"ymouse":[635,635,635,635,635,635,635,635,635,635,635,635,635,635,635,635,635,635,631,626,622,614,609,606,603,598,583,571,554,536,511,447,405,340,208,93],"timestamp_mouse":[9,28,48,69,89,109,129,149,169,189,208,229,249,269,289,310,328,348,369,389,409,428,450,468,489,509,528,548,569,589,609,629,649,669,689,710],"xSR":741.5,"ySR":573.95,"xT1":424.9,"yT1":0,"xT2":1058.1,"yT2":0,"toosoon":0,"cond_shown":"equaldotanddens","ratio_trial":500,"smaller_num":"3","larger_num":"6","correct_side":2,"subjID":"MiguelAngelMendoza29","gender":"0","age":"10","school":"6"},{"start_time":1551900822808,"click_time":1551900823563,"finger_time":1551900823223,"fix_duration":765.2212972045612,"trial":61,"RT":415,"MT":340,"sideResp":1,"stimulus":"img/900/equaldotsize/L/8_Ratio_900_L_20_R_18.png","xmouse":[785,785,785,785,785,785,785,785,785,785,785,785,785,785,785,785,785,780,767,755,741,720,712,709,706,704,700,695,680,660,630,566,546,535,531,528,520,516],"ymouse":[649,649,649,649,649,649,649,649,649,649,649,649,649,649,649,649,649,642,616,587,557,509,490,478,469,464,452,439,406,372,330,240,201,174,153,140,109,91],"timestamp_mouse":[15,36,54,74,95,115,136,155,174,196,215,236,254,274,295,316,334,356,374,394,415,434,454,475,495,515,534,555,574,595,615,635,654,675,695,715,734,755],"xSR":741.5,"ySR":573.95,"xT1":424.9,"yT1":0,"xT2":1058.1,"yT2":0,"toosoon":0,"cond_shown":"equaldotsize","ratio_trial":900,"smaller_num":"18","larger_num":"20","correct_side":1,"subjID":"MiguelAngelMendoza29","gender":"0","age":"10","school":"6"},{"start_time":1551900825701,"click_time":1551900826903,"finger_time":1551900826342,"fix_duration":1496.9149769240576,"trial":62,"RT":641,"MT":561,"sideResp":1,"stimulus":"img/900/equaldotsize/R/5_Ratio_900_L_9_R_10.png","xmouse":[769,769,769,769,769,769,769,769,769,769,769,769,769,769,769,769,769,769,769,769,769,769,773,778,784,790,791,791,791,791,791,793,799,804,810,816,818,819,819,819,819,819,796,785,770,761,750,728,714,698,686,670,633,611,585,577,575,569,554,533,513],"ymouse":[609,609,609,609,609,609,609,609,609,609,609,609,609,609,609,609,609,609,609,609,609,610,608,603,595,587,586,586,586,586,585,581,568,558,544,527,520,515,515,515,515,514,512,506,485,459,414,317,268,214,168,123,53,20,0,0,0,0,13,28,40],"timestamp_mouse":[4,21,42,62,81,103,121,141,163,181,202,222,241,261,283,301,322,342,362,383,401,422,442,461,482,502,523,542,563,582,601,623,641,663,682,702,722,742,761,781,801,823,841,862,881,901,922,942,962,982,1002,1022,1041,1062,1081,1103,1123,1142,1162,1181,1202],"xSR":741.5,"ySR":573.95,"xT1":424.9,"yT1":0,"xT2":1058.1,"yT2":0,"toosoon":0,"cond_shown":"equaldotsize","ratio_trial":900,"smaller_num":"9","larger_num":"10","correct_side":2,"subjID":"MiguelAngelMendoza29","gender":"0","age":"10","school":"6"},{"start_time":1551900828016,"click_time":1551900829303,"finger_time":1551900828462,"fix_duration":250,"trial":63,"RT":446,"MT":841,"sideResp":2,"stimulus":"img/900/equaldotanddens/R/5_Ratio_900_L_9_R_10.png","xmouse":[763,763,763,763,763,763,763,763,763,763,763,763,763,763,763,763,763,763,763,763,764,778,790,798,802,807,821,830,847,860,869,890,896,898,899,899,899,899,899,899,899,878,849,808,743,675,581,554,546,546,546,546,546,546,555,593,778,923,1002,1057,1078,1087,1087,1087,1089],"ymouse":[597,597,597,597,597,597,597,597,597,597,597,597,597,597,597,597,597,597,597,597,597,580,566,552,542,530,499,476,433,397,362,298,277,268,266,266,266,266,266,266,265,268,271,273,273,273,267,266,265,265,265,265,265,264,262,253,213,176,154,136,126,115,110,104,95],"timestamp_mouse":[8,27,46,68,87,106,126,148,168,186,208,227,246,268,288,307,328,347,366,387,406,427,446,467,487,507,527,548,566,587,607,626,647,667,688,708,728,746,766,787,806,827,846,866,887,907,926,947,966,987,1008,1028,1048,1066,1086,1106,1126,1147,1166,1186,1207,1226,1247,1267,1287],"xSR":741.5,"ySR":573.95,"xT1":424.9,"yT1":0,"xT2":1058.1,"yT2":0,"toosoon":0,"cond_shown":"equaldotanddens","ratio_trial":900,"smaller_num":"9","larger_num":"10","correct_side":2,"subjID":"MiguelAngelMendoza29","gender":"0","age":"10","school":"6"},{"start_time":1551900831282,"click_time":1551900833003,"finger_time":1551900832043,"fix_duration":1139.709991302297,"trial":64,"RT":761,"MT":960,"sideResp":1,"stimulus":"img/500/equaldotsize/L/8_Ratio_500_L_8_R_4.png","xmouse":[803,803,803,803,803,803,803,803,803,803,803,803,803,803,803,803,803,803,803,803,803,803,803,803,803,803,803,803,803,803,803,803,803,803,803,802,791,772,698,650,606,542,474,336,281,249,234,234,240,242,242,242,242,242,242,243,247,274,407,509,607,697,746,761,761,761,747,739,724,715,708,698,688,660,649,640,633,626,603,591,578,564,552,543,539,533,519],"ymouse":[649,649,649,649,649,649,649,649,649,649,649,649,649,649,649,649,649,649,649,649,649,649,649,649,649,649,649,649,649,649,649,649,649,649,649,637,621,594,506,450,396,333,267,131,67,13,0,0,0,0,0,0,0,0,0,0,0,0,0,0,0,0,0,0,0,2,15,26,46,54,58,59,60,60,60,60,60,60,52,43,34,25,17,15,14,14,14],"timestamp_mouse":[4,22,41,61,81,101,121,141,161,181,201,221,241,261,281,300,322,341,361,381,400,420,441,461,481,501,520,541,561,581,601,621,641,662,681,700,721,741,761,781,801,821,841,861,881,901,921,940,961,980,1001,1021,1041,1062,1081,1100,1120,1140,1161,1181,1202,1221,1240,1261,1281,1301,1321,1341,1361,1381,1401,1421,1441,1461,1481,1500,1521,1541,1561,1581,1601,1621,1642,1661,1680,1700,1721],"xSR":741.5,"ySR":573.95,"xT1":424.9,"yT1":0,"xT2":1058.1,"yT2":0,"toosoon":0,"cond_shown":"equaldotsize","ratio_trial":500,"smaller_num":"4","larger_num":"8","correct_side":1,"subjID":"MiguelAngelMendoza29","gender":"0","age":"10","school":"6"},{"start_time":1551900834255,"click_time":1551900835163,"finger_time":1551900834862,"fix_duration":250,"trial":65,"RT":607,"MT":301,"sideResp":2,"stimulus":"img/500/equaldotanddens/R/6_Ratio_500_L_9_R_18.png","xmouse":[788,788,788,788,788,788,788,788,788,788,788,788,788,788,788,788,788,788,788,788,788,788,788,788,788,788,788,788,788,798,816,837,855,878,921,935,955,966,979,998,1003,1008,1015,1027,1060,1075],"ymouse":[602,602,602,602,602,602,602,602,602,602,602,602,602,602,602,602,602,602,602,602,602,602,602,602,602,602,602,602,602,590,570,546,521,488,424,399,362,338,313,269,253,233,212,183,103,63],"timestamp_mouse":[7,28,48,68,88,108,127,147,168,187,207,228,248,268,289,307,327,348,368,388,408,428,448,468,487,507,527,548,567,587,607,629,648,668,688,708,727,749,768,788,808,829,848,868,888,908],"xSR":741.5,"ySR":573.95,"xT1":424.9,"yT1":0,"xT2":1058.1,"yT2":0,"toosoon":0,"cond_shown":"equaldotanddens","ratio_trial":500,"smaller_num":"9","larger_num":"18","correct_side":2,"subjID":"MiguelAngelMendoza29","gender":"0","age":"10","school":"6"},{"start_time":1551900836254,"click_time":1551900837462,"finger_time":1551900837123,"fix_duration":250,"trial":66,"RT":869,"MT":339,"sideResp":1,"stimulus":"img/750/randomdotsizeEA/R/4_Ratio_750_L_15_R_20.png","xmouse":[804,804,804,804,804,804,804,804,804,804,804,804,804,804,804,804,804,804,804,804,804,804,804,804,804,804,804,804,804,804,804,804,804,804,804,804,804,804,804,804,803,796,784,765,713,684,666,648,643,630,624,615,603,585,537,519,506,501,501,501,496],"ymouse":[640,640,640,640,640,640,640,640,640,640,640,640,640,640,640,640,640,640,640,640,640,640,640,640,640,640,640,640,640,640,640,640,640,640,640,640,640,640,640,640,642,629,603,562,436,369,309,248,220,176,154,132,106,74,1,0,0,0,0,0,3],"timestamp_mouse":[8,28,48,70,90,109,129,149,169,189,209,228,249,269,289,310,329,349,369,390,409,430,449,469,489,510,529,549,569,589,610,629,649,669,689,709,729,749,769,789,808,830,849,869,889,909,929,949,969,989,1009,1029,1049,1069,1089,1109,1129,1148,1168,1190,1208],"xSR":741.5,"ySR":573.95,"xT1":424.9,"yT1":0,"xT2":1058.1,"yT2":0,"toosoon":0,"cond_shown":"randomdotsizeEA","ratio_trial":750,"smaller_num":"15","larger_num":"20","correct_side":2,"subjID":"MiguelAngelMendoza29","gender":"0","age":"10","school":"6"},{"start_time":1551900839580,"click_time":1551900840263,"finger_time":1551900840163,"fix_duration":1157.6844922490527,"trial":67,"RT":583,"MT":100,"sideResp":1,"stimulus":"img/500/randomdotsizeEA/L/5_Ratio_500_L_4_R_2.png","xmouse":[763,763,763,763,763,763,763,763,763,763,763,763,763,763,763,763,763,763,763,763,763,763,763,763,763,763,763,763,760,749,726,676,636,539,497],"ymouse":[616,616,616,616,616,616,616,616,616,616,616,616,616,616,616,616,616,616,616,616,616,616,616,616,616,616,616,616,599,562,498,381,297,129,56],"timestamp_mouse":[4,23,44,63,82,102,123,143,163,183,203,222,242,263,282,302,323,342,362,384,404,424,443,463,482,504,522,542,563,583,603,622,643,663,683],"xSR":741.5,"ySR":573.95,"xT1":424.9,"yT1":0,"xT2":1058.1,"yT2":0,"toosoon":0,"cond_shown":"randomdotsizeEA","ratio_trial":500,"smaller_num":"2","larger_num":"4","correct_side":1,"subjID":"MiguelAngelMendoza29","gender":"0","age":"10","school":"6"},{"start_time":1551900841758,"click_time":1551900842702,"finger_time":1551900842422,"fix_duration":695.4615227297083,"trial":68,"RT":664,"MT":280,"sideResp":2,"stimulus":"img/750/equaldotsize/R/3_Ratio_750_L_15_R_20.png","xmouse":[814,814,814,814,814,814,814,814,814,814,814,814,814,814,814,814,814,814,814,814,814,814,814,814,814,814,814,814,814,814,814,816,829,850,891,907,917,923,930,940,947,955,976,992,1028,1043,1054,1059],"ymouse":[613,613,613,613,613,613,613,613,613,613,613,613,613,613,613,613,613,613,613,613,613,613,613,613,613,613,613,613,613,613,613,611,596,574,522,496,474,455,435,395,372,345,285,230,120,68,32,7],"timestamp_mouse":[4,24,45,64,84,104,124,145,165,185,204,224,244,264,285,304,324,344,364,384,404,424,444,464,484,504,524,545,564,584,604,624,645,664,685,704,725,744,764,784,804,824,845,865,884,904,925,944],"xSR":741.5,"ySR":573.95,"xT1":424.9,"yT1":0,"xT2":1058.1,"yT2":0,"toosoon":0,"cond_shown":"equaldotsize","ratio_trial":750,"smaller_num":"15","larger_num":"20","correct_side":2,"subjID":"MiguelAngelMendoza29","gender":"0","age":"10","school":"6"},{"start_time":1551900845114,"click_time":1551900846043,"finger_time":1551900845742,"fix_duration":250,"trial":69,"RT":628,"MT":301,"sideResp":1,"stimulus":"img/500/equaldotanddens/L/13_Ratio_500_L_12_R_6.png","xmouse":[779,779,779,779,779,779,779,779,779,779,779,779,779,779,779,779,779,779,779,779,779,779,779,779,779,779,779,779,778,771,755,656,584,516,447,421,382,360,340,324,320,320,320,320,328,354,435],"ymouse":[664,664,664,664,664,664,664,654,647,638,635,634,634,634,634,634,634,634,634,634,634,634,634,634,634,634,634,634,630,624,606,485,401,308,154,64,0,0,0,0,0,0,0,0,7,14,37],"timestamp_mouse":[9,29,48,69,89,108,129,148,168,189,208,229,248,269,288,309,328,348,369,388,408,429,448,468,488,509,528,548,569,588,610,628,649,669,688,708,729,748,768,788,809,829,848,868,888,908,929],"xSR":741.5,"ySR":573.95,"xT1":424.9,"yT1":0,"xT2":1058.1,"yT2":0,"toosoon":0,"cond_shown":"equaldotanddens","ratio_trial":500,"smaller_num":"6","larger_num":"12","correct_side":1,"subjID":"MiguelAngelMendoza29","gender":"0","age":"10","school":"6"},{"start_time":1551900847415,"click_time":1551900848062,"finger_time":1551900847982,"fix_duration":292.1464848115135,"trial":70,"RT":567,"MT":80,"sideResp":2,"stimulus":"img/500/equaldotanddens/R/6_Ratio_500_L_9_R_18.png","xmouse":[805,805,805,805,805,805,805,805,805,805,805,805,805,805,805,805,805,805,805,805,805,805,805,805,805,805,806,818,858,903,957,1063,1093],"ymouse":[610,610,610,610,610,610,610,610,610,610,610,610,610,610,610,610,610,610,610,610,610,610,610,610,610,610,604,583,511,433,342,161,95],"timestamp_mouse":[7,28,47,68,88,107,128,147,167,188,208,228,247,267,288,308,327,348,368,387,407,427,449,467,487,507,527,548,567,588,607,627,647],"xSR":741.5,"ySR":573.95,"xT1":424.9,"yT1":0,"xT2":1058.1,"yT2":0,"toosoon":0,"cond_shown":"equaldotanddens","ratio_trial":500,"smaller_num":"9","larger_num":"18","correct_side":2,"subjID":"MiguelAngelMendoza29","gender":"0","age":"10","school":"6"},{"start_time":1551900850561,"click_time":1551900851422,"finger_time":1551900850982,"fix_duration":1497.3721348317808,"trial":71,"RT":421,"MT":440,"sideResp":1,"stimulus":"img/500/randomdotsizeEA/R/1_Ratio_500_L_9_R_18.png","xmouse":[807,807,807,807,807,807,807,807,807,807,807,807,807,807,807,807,807,807,807,807,800,785,769,753,728,718,708,700,694,681,677,674,671,670,665,661,653,637,618,565,541,511,496,483],"ymouse":[595,595,595,595,595,595,595,595,595,595,595,595,595,595,595,595,595,595,595,595,590,568,549,530,486,464,439,416,392,346,321,300,276,264,244,236,226,215,206,173,157,127,106,88],"timestamp_mouse":[3,22,42,62,81,102,122,142,161,182,202,222,241,261,283,303,321,341,362,381,403,421,442,461,481,501,522,541,561,581,601,621,641,661,681,701,722,742,762,781,801,821,841,861],"xSR":741.5,"ySR":573.95,"xT1":424.9,"yT1":0,"xT2":1058.1,"yT2":0,"toosoon":0,"cond_shown":"randomdotsizeEA","ratio_trial":500,"smaller_num":"9","larger_num":"18","correct_side":2,"subjID":"MiguelAngelMendoza29","gender":"0","age":"10","school":"6"},{"start_time":1551900852761,"click_time":1551900853763,"finger_time":1551900853402,"fix_duration":577.7457967358525,"trial":72,"RT":641,"MT":361,"sideResp":2,"stimulus":"img/250/equaldotanddens/R/11_Ratio_250_L_3_R_12.png","xmouse":[802,802,802,802,802,802,802,802,802,802,802,802,802,802,802,802,802,802,802,802,802,802,802,802,802,802,802,802,802,802,814,822,853,877,909,917,921,921,921,933,939,943,944,944,946,951,959,969,987,1043,1072],"ymouse":[640,640,640,640,640,640,640,640,640,640,640,640,640,640,640,640,640,640,640,640,640,640,640,640,640,640,640,640,640,640,625,617,580,544,474,434,391,350,314,255,237,225,223,223,215,205,191,174,149,85,54],"timestamp_mouse":[5,21,41,61,82,101,122,141,161,181,201,221,241,261,282,301,321,341,361,381,401,422,441,462,482,501,522,542,561,581,601,621,641,662,681,701,721,741,761,781,801,821,841,861,883,901,921,941,961,981,1002],"xSR":741.5,"ySR":573.95,"xT1":424.9,"yT1":0,"xT2":1058.1,"yT2":0,"toosoon":0,"cond_shown":"equaldotanddens","ratio_trial":250,"smaller_num":"3","larger_num":"12","correct_side":2,"subjID":"MiguelAngelMendoza29","gender":"0","age":"10","school":"6"},{"start_time":1551900855204,"click_time":1551900856602,"finger_time":1551900856483,"fix_duration":561.6659690630527,"trial":73,"RT":1279,"MT":119,"sideResp":2,"stimulus":"img/900/equaldotanddens/R/15_Ratio_900_L_9_R_10.png","xmouse":[821,821,821,821,821,821,821,821,821,821,821,821,821,821,821,821,821,821,821,821,821,821,821,821,821,821,821,821,821,821,821,821,821,821,821,821,821,821,821,821,821,821,821,821,821,821,821,821,821,821,821,821,821,821,821,821,821,821,821,821,821,822,835,855,882,913,981,1033,1047,1075],"ymouse":[611,611,611,611,611,611,611,611,611,611,611,611,611,611,611,611,611,611,611,611,611,611,611,611,611,611,611,611,611,611,611,611,611,608,607,606,606,606,606,606,606,606,606,606,606,606,606,606,606,606,606,606,606,606,606,606,606,606,606,606,606,605,588,558,501,426,259,162