[{"start_time":1551899631266,"click_time":1551899633513,"finger_time":1551899632894,"fix_duration":1289.201875316225,"trial":0,"RT":1628,"MT":619,"sideResp":2,"stimulus":[],"xmouse":[758,758,758,758,758,758,758,758,758,759,759,759,761,761,761,761,761,761,761,761,761,761,761,761,761,761,761,761,761,761,761,761,761,761,761,761,761,761,761,761,761,761,761,761,761,761,761,761,761,761,761,761,761,761,761,761,761,761,761,761,761,761,761,761,761,761,761,761,761,761,767,772,776,780,783,790,795,804,809,819,825,847,859,876,891,917,930,944,956,964,974,988,991,993,995,1000,1002,1006,1010,1016,1038,1044,1050,1053,1055,1059,1062,1063,1065,1068,1072,1076,1078],"ymouse":[563,563,563,563,563,563,563,562,562,561,561,561,560,560,560,560,560,560,560,560,560,560,560,560,560,560,560,560,560,560,560,560,560,560,560,560,560,560,560,560,560,560,560,560,560,560,560,560,560,560,560,560,560,560,560,560,560,560,560,560,560,560,560,560,560,560,560,560,560,559,555,554,551,550,548,544,541,536,532,526,520,499,481,457,436,399,378,355,333,312,293,257,251,246,242,235,233,229,225,219,197,189,181,176,172,163,156,152,145,136,109,103,95],"timestamp_mouse":[10,38,46,67,87,107,127,146,168,187,207,226,247,266,286,307,327,347,366,388,407,427,448,466,486,508,528,547,567,587,607,626,646,667,686,707,726,747,766,786,807,827,848,867,887,906,928,948,967,987,1006,1027,1046,1067,1087,1106,1128,1148,1166,1186,1206,1227,1247,1268,1287,1306,1326,1346,1367,1388,1407,1427,1446,1467,1488,1507,1526,1547,1567,1588,1606,1628,1647,1668,1686,1707,1727,1747,1767,1786,1806,1827,1846,1866,1888,1907,1928,1947,1968,1987,2007,2028,2048,2067,2088,2107,2126,2147,2168,2187,2207,2226,2246],"xSR":741.5,"ySR":481,"xT1":424.9,"yT1":0,"xT2":1058.1,"yT2":0,"toosoon":0,"cond_shown":"Congruent","ratio_trial":300,"L_num":1,"L_den":20,"R_num":7,"R_den":20,"correct_side":2,"subjID":"miguelangelpachonpinzon13","gender":"0","age":"11","school":"6","test":{"fix_dur":[250,1500],"timestim":1000,"targets_dim":[100,100],"targets_relative_coord":[0.3,0.7],"size_stim":[880,420],"start_dim":[100,100],"size_start":[300,300],"size_fix":60,"samplingrate":20,"img_types":["Congruent","Incongruent"],"ratios":[100,200,300],"rep_conds":19,"nTrials":120,"trials_to_rest":500,"Trials_order":[28,11,65,95,80,24,86,68,77,33,45,99,15,38,10,96,57,92,56,42,66,44,104,39,61,35,102,119,59,16,97,63,32,25,58,90,113,53,106,8,117,71,50,88,31,4,62,55,100,12,30,22,81,82,51,116,118,103,107,98,48,1,79,5,6,60,17,54,69,70,89,9,40,105,93,73,83,115,52,18,34,43,110,13,84,46,114,49,36,27,112,21,19,108,78,87,41,74,75,37,14,23,111,29,2,26,94,64,0,85,91,109,72,47,7,76,67,3,101,20],"cond_shown":["Congruent","Incongruent","Incongruent","Incongruent","Congruent","Congruent","Congruent","Congruent","Incongruent","Incongruent","Incongruent","Incongruent","Incongruent","Congruent","Congruent","Congruent","Incongruent","Congruent","Congruent","Congruent","Congruent","Congruent","Congruent","Incongruent","Incongruent","Incongruent","Congruent","Incongruent","Incongruent","Congruent","Incongruent","Incongruent","Congruent","Incongruent","Congruent","Congruent","Incongruent","Incongruent","Congruent","Congruent","Incongruent","Incongruent","Congruent","Congruent","Incongruent","Congruent","Congruent","Incongruent","Congruent","Congruent","Congruent","Congruent","Incongruent","Congruent","Incongruent","Congruent","Congruent","Incongruent","Incongruent","Congruent","Congruent","Incongruent","Incongruent","Incongruent","Congruent","Congruent","Incongruent","Congruent","Incongruent","Congruent","Incongruent","Incongruent","Congruent","Incongruent","Incongruent","Incongruent","Incongruent","Incongruent","Congruent","Congruent","Congruent","Incongruent","Congruent","Incongruent","Congruent","Congruent","Congruent","Incongruent","Congruent","Incongruent","Congruent","Incongruent","Incongruent","Congruent","Congruent","Incongruent","Incongruent","Congruent","Incongruent","Incongruent","Congruent","Incongruent","Incongruent","Incongruent","Congruent","Congruent","Congruent","Congruent","Congruent","Incongruent","Incongruent","Incongruent","Congruent","Incongruent","Incongruent","Congruent","Incongruent","Incongruent","Incongruent","Congruent"],"ratio_trial":[300,300,300,300,200,100,200,200,300,200,200,200,200,200,300,100,200,200,200,100,100,200,200,200,100,300,100,300,300,300,100,200,200,100,300,100,300,300,300,200,200,300,200,300,100,300,200,100,300,100,100,300,200,300,200,200,300,100,300,200,100,100,100,300,100,100,300,100,200,300,300,200,300,200,200,100,300,100,300,100,300,100,200,100,100,300,100,100,100,200,300,200,100,100,100,200,300,200,200,100,200,300,200,300,200,200,300,300,100,100,100,100,100,300,100,300,100,200,300,200],"left_num":[1,4,1,1,6,15,12,12,1,14,4,1,6,3,20,8,7,3,21,15,10,12,3,3,2,1,2,13,13,11,8,7,5,10,1,10,4,8,9,5,4,7,6,11,9,2,20,11,1,4,11,11,7,1,14,6,8,13,3,16,15,9,6,3,3,11,4,2,6,11,4,1,8,7,1,13,8,6,5,2,24,13,6,10,2,1,10,12,11,9,4,1,9,15,1,3,8,4,7,6,6,13,3,4,6,5,5,20,8,3,8,2,7,13,10,11,2,14,1,13],"right_num":[7,2,3,2,7,13,6,6,3,12,14,3,3,11,14,2,4,14,2,13,3,6,7,1,8,3,11,12,12,1,6,12,14,9,19,3,8,14,3,14,6,8,11,1,6,12,9,9,11,6,4,1,8,6,12,3,10,12,4,12,13,14,3,4,2,6,8,11,3,2,2,3,10,6,2,12,14,13,6,11,2,6,7,9,6,11,3,9,4,8,13,2,6,13,18,1,9,3,4,3,11,12,11,6,3,14,7,5,2,4,1,6,9,12,9,1,6,12,3,14],"left_den":[20,20,2,2,12,25,20,15,2,30,6,2,20,10,25,16,15,10,30,25,25,20,10,10,4,2,5,26,26,22,16,10,10,25,3,25,5,10,10,10,5,10,20,22,18,10,25,22,5,8,22,22,10,5,30,15,15,26,6,20,25,15,12,6,6,22,5,5,20,22,20,2,15,15,3,26,10,10,25,5,30,26,12,25,5,5,25,24,22,15,20,3,18,25,2,10,10,10,15,12,20,26,4,5,15,10,25,25,16,6,20,4,14,26,25,22,4,30,2,26],"right_den":[20,4,15,10,10,26,15,10,15,18,30,10,6,22,28,5,6,28,4,26,10,15,14,2,20,15,22,15,15,5,10,24,20,18,30,10,16,28,5,20,10,20,22,5,10,24,15,15,22,10,10,5,16,12,18,15,12,20,20,20,26,28,5,20,5,15,16,22,6,10,4,10,12,9,15,20,28,26,12,22,4,10,10,18,12,22,10,15,10,10,26,15,10,26,30,2,18,15,6,5,22,15,20,12,15,20,14,10,5,10,2,15,15,15,18,5,15,18,15,20],"correct_side":[2,2,1,1,2,1,1,1,1,2,1,1,2,2,1,1,2,2,1,1,1,1,2,2,1,1,2,2,2,1,2,1,2,2,2,1,1,1,1,2,1,1,2,1,2,2,1,2,2,2,1,1,1,2,2,1,2,2,1,1,1,1,2,1,1,1,1,2,2,1,2,1,2,2,1,2,1,1,2,2,1,2,2,2,2,2,1,2,1,2,2,1,2,1,2,2,1,1,2,2,2,2,1,1,1,2,2,1,1,1,2,1,2,2,2,1,1,2,1,2],"img_shown":["img2/300/Congruent/R/C_Dist_300_LN_1_LD_20_RN_7_RD_20_1.png","img2/300/Incongruent/R/I_Dist_300_LN_4_LD_20_RN_2_RD_4_1.png","img2/300/Incongruent/L/I_Dist_300_LN_1_LD_2_RN_3_RD_15_0.png","img2/300/Incongruent/L/I_Dist_300_LN_1_LD_2_RN_2_RD_10_0.png","img2/200/Congruent/R/C_Dist_200_LN_6_LD_12_RN_7_RD_10_1.png","img2/100/Congruent/L/C_Dist_100_LN_15_LD_25_RN_13_RD_26_0.png","img2/200/Congruent/L/C_Dist_200_LN_12_LD_20_RN_6_RD_15_0.png","img2/200/Congruent/L/C_Dist_200_LN_12_LD_15_RN_6_RD_10_0.png","img2/300/Incongruent/L/I_Dist_300_LN_1_LD_2_RN_3_RD_15_0.png","img2/200/Incongruent/R/I_Dist_200_LN_14_LD_30_RN_12_RD_18_1.png","img2/200/Incongruent/L/I_Dist_200_LN_4_LD_6_RN_14_RD_30_0.png","img2/200/Incongruent/L/I_Dist_200_LN_1_LD_2_RN_3_RD_10_0.png","img2/200/Incongruent/R/I_Dist_200_LN_6_LD_20_RN_3_RD_6_1.png","img2/200/Congruent/R/C_Dist_200_LN_3_LD_10_RN_11_RD_22_1.png","img2/300/Congruent/L/C_Dist_300_LN_20_LD_25_RN_14_RD_28_0.png","img2/100/Congruent/L/C_Dist_100_LN_8_LD_16_RN_2_RD_5_0.png","img2/200/Incongruent/R/I_Dist_200_LN_7_LD_15_RN_4_RD_6_1.png","img2/200/Congruent/R/C_Dist_200_LN_3_LD_10_RN_14_RD_28_1.png","img2/200/Congruent/L/C_Dist_200_LN_21_LD_30_RN_2_RD_4_0.png","img2/100/Congruent/L/C_Dist_100_LN_15_LD_25_RN_13_RD_26_0.png","img2/100/Congruent/L/C_Dist_100_LN_10_LD_25_RN_3_RD_10_0.png","img2/200/Congruent/L/C_Dist_200_LN_12_LD_20_RN_6_RD_15_0.png","img2/200/Congruent/R/C_Dist_200_LN_3_LD_10_RN_7_RD_14_1.png","img2/200/Incongruent/R/I_Dist_200_LN_3_LD_10_RN_1_RD_2_1.png","img2/100/Incongruent/L/I_Dist_100_LN_2_LD_4_RN_8_RD_20_0.png","img2/300/Incongruent/L/I_Dist_300_LN_1_LD_2_RN_3_RD_15_0.png","img2/100/Congruent/R/C_Dist_100_LN_2_LD_5_RN_11_RD_22_1.png","img2/300/Incongruent/R/I_Dist_300_LN_13_LD_26_RN_12_RD_15_1.png","img2/300/Incongruent/R/I_Dist_300_LN_13_LD_26_RN_12_RD_15_1.png","img2/300/Congruent/L/C_Dist_300_LN_11_LD_22_RN_1_RD_5_0.png","img2/100/Incongruent/R/I_Dist_100_LN_8_LD_16_RN_6_RD_10_1.png","img2/200/Incongruent/L/I_Dist_200_LN_7_LD_10_RN_12_RD_24_0.png","img2/200/Congruent/R/C_Dist_200_LN_5_LD_10_RN_14_RD_20_1.png","img2/100/Incongruent/R/I_Dist_100_LN_10_LD_25_RN_9_RD_18_1.png","img2/300/Congruent/R/C_Dist_300_LN_1_LD_3_RN_19_RD_30_1.png","img2/100/Congruent/L/C_Dist_100_LN_10_LD_25_RN_3_RD_10_0.png","img2/300/Incongruent/L/I_Dist_300_LN_4_LD_5_RN_8_RD_16_0.png","img2/300/Incongruent/L/I_Dist_300_LN_8_LD_10_RN_14_RD_28_0.png","img2/300/Congruent/L/C_Dist_300_LN_9_LD_10_RN_3_RD_5_0.png","img2/200/Congruent/R/C_Dist_200_LN_5_LD_10_RN_14_RD_20_1.png","img2/200/Incongruent/L/I_Dist_200_LN_4_LD_5_RN_6_RD_10_0.png","img2/300/Incongruent/L/I_Dist_300_LN_7_LD_10_RN_8_RD_20_0.png","img2/200/Congruent/R/C_Dist_200_LN_6_LD_20_RN_11_RD_22_1.png","img2/300/Congruent/L/C_Dist_300_LN_11_LD_22_RN_1_RD_5_0.png","img2/100/Incongruent/R/I_Dist_100_LN_9_LD_18_RN_6_RD_10_1.png","img2/300/Congruent/R/C_Dist_300_LN_2_LD_10_RN_12_RD_24_1.png","img2/200/Congruent/L/C_Dist_200_LN_20_LD_25_RN_9_RD_15_0.png","img2/100/Incongruent/R/I_Dist_100_LN_11_LD_22_RN_9_RD_15_1.png","img2/300/Congruent/R/C_Dist_300_LN_1_LD_5_RN_11_RD_22_1.png","img2/100/Congruent/R/C_Dist_100_LN_4_LD_8_RN_6_RD_10_1.png","img2/100/Congruent/L/C_Dist_100_LN_11_LD_22_RN_4_RD_10_0.png","img2/300/Congruent/L/C_Dist_300_LN_11_LD_22_RN_1_RD_5_0.png","img2/200/Incongruent/L/I_Dist_200_LN_7_LD_10_RN_8_RD_16_0.png","img2/300/Congruent/R/C_Dist_300_LN_1_LD_5_RN_6_RD_12_1.png","img2/200/Incongruent/R/I_Dist_200_LN_14_LD_30_RN_12_RD_18_1.png","img2/200/Congruent/L/C_Dist_200_LN_6_LD_15_RN_3_RD_15_0.png","img2/300/Congruent/R/C_Dist_300_LN_8_LD_15_RN_10_RD_12_1.png","img2/100/Incongruent/R/I_Dist_100_LN_13_LD_26_RN_12_RD_20_1.png","img2/300/Incongruent/L/I_Dist_300_LN_3_LD_6_RN_4_RD_20_0.png","img2/200/Congruent/L/C_Dist_200_LN_16_LD_20_RN_12_RD_20_0.png","img2/100/Congruent/L/C_Dist_100_LN_15_LD_25_RN_13_RD_26_0.png","img2/100/Incongruent/L/I_Dist_100_LN_9_LD_15_RN_14_RD_28_0.png","img2/100/Incongruent/R/I_Dist_100_LN_6_LD_12_RN_3_RD_5_1.png","img2/300/Incongruent/L/I_Dist_300_LN_3_LD_6_RN_4_RD_20_0.png","img2/100/Congruent/L/C_Dist_100_LN_3_LD_6_RN_2_RD_5_0.png","img2/100/Congruent/L/C_Dist_100_LN_11_LD_22_RN_6_RD_15_0.png","img2/300/Incongruent/L/I_Dist_300_LN_4_LD_5_RN_8_RD_16_0.png","img2/100/Congruent/R/C_Dist_100_LN_2_LD_5_RN_11_RD_22_1.png","img2/200/Incongruent/R/I_Dist_200_LN_6_LD_20_RN_3_RD_6_1.png","img2/300/Congruent/L/C_Dist_300_LN_11_LD_22_RN_2_RD_10_0.png","img2/300/Incongruent/R/I_Dist_300_LN_4_LD_20_RN_2_RD_4_1.png","img2/200/Incongruent/L/I_Dist_200_LN_1_LD_2_RN_3_RD_10_0.png","img2/300/Congruent/R/C_Dist_300_LN_8_LD_15_RN_10_RD_12_1.png","img2/200/Incongruent/R/I_Dist_200_LN_7_LD_15_RN_6_RD_9_1.png","img2/200/Incongruent/L/I_Dist_200_LN_1_LD_3_RN_2_RD_15_0.png","img2/100/Incongruent/R/I_Dist_100_LN_13_LD_26_RN_12_RD_20_1.png","img2/300/Incongruent/L/I_Dist_300_LN_8_LD_10_RN_14_RD_28_0.png","img2/100/Incongruent/L/I_Dist_100_LN_6_LD_10_RN_13_RD_26_0.png","img2/300/Congruent/R/C_Dist_300_LN_5_LD_25_RN_6_RD_12_1.png","img2/100/Congruent/R/C_Dist_100_LN_2_LD_5_RN_11_RD_22_1.png","img2/300/Congruent/L/C_Dist_300_LN_24_LD_30_RN_2_RD_4_0.png","img2/100/Incongruent/R/I_Dist_100_LN_13_LD_26_RN_6_RD_10_1.png","img2/200/Congruent/R/C_Dist_200_LN_6_LD_12_RN_7_RD_10_1.png","img2/100/Incongruent/R/I_Dist_100_LN_10_LD_25_RN_9_RD_18_1.png","img2/100/Congruent/R/C_Dist_100_LN_2_LD_5_RN_6_RD_12_1.png","img2/300/Congruent/R/C_Dist_300_LN_1_LD_5_RN_11_RD_22_1.png","img2/100/Congruent/L/C_Dist_100_LN_10_LD_25_RN_3_RD_10_0.png","img2/100/Incongruent/R/I_Dist_100_LN_12_LD_24_RN_9_RD_15_1.png","img2/100/Congruent/L/C_Dist_100_LN_11_LD_22_RN_4_RD_10_0.png","img2/200/Incongruent/R/I_Dist_200_LN_9_LD_15_RN_8_RD_10_1.png","img2/300/Congruent/R/C_Dist_300_LN_4_LD_20_RN_13_RD_26_1.png","img2/200/Incongruent/L/I_Dist_200_LN_1_LD_3_RN_2_RD_15_0.png","img2/100/Incongruent/R/I_Dist_100_LN_9_LD_18_RN_6_RD_10_1.png","img2/100/Congruent/L/C_Dist_100_LN_15_LD_25_RN_13_RD_26_0.png","img2/100/Congruent/R/C_Dist_100_LN_1_LD_2_RN_18_RD_30_1.png","img2/200/Incongruent/R/I_Dist_200_LN_3_LD_10_RN_1_RD_2_1.png","img2/300/Incongruent/L/I_Dist_300_LN_8_LD_10_RN_9_RD_18_0.png","img2/200/Congruent/L/C_Dist_200_LN_4_LD_10_RN_3_RD_15_0.png","img2/200/Incongruent/R/I_Dist_200_LN_7_LD_15_RN_4_RD_6_1.png","img2/100/Incongruent/R/I_Dist_100_LN_6_LD_12_RN_3_RD_5_1.png","img2/200/Congruent/R/C_Dist_200_LN_6_LD_20_RN_11_RD_22_1.png","img2/300/Incongruent/R/I_Dist_300_LN_13_LD_26_RN_12_RD_15_1.png","img2/200/Incongruent/L/I_Dist_200_LN_3_LD_4_RN_11_RD_20_0.png","img2/300/Incongruent/L/I_Dist_300_LN_4_LD_5_RN_6_RD_12_0.png","img2/200/Congruent/L/C_Dist_200_LN_6_LD_15_RN_3_RD_15_0.png","img2/200/Congruent/R/C_Dist_200_LN_5_LD_10_RN_14_RD_20_1.png","img2/300/Congruent/R/C_Dist_300_LN_5_LD_25_RN_7_RD_14_1.png","img2/300/Congruent/L/C_Dist_300_LN_20_LD_25_RN_5_RD_10_0.png","img2/100/Congruent/L/C_Dist_100_LN_8_LD_16_RN_2_RD_5_0.png","img2/100/Incongruent/L/I_Dist_100_LN_3_LD_6_RN_4_RD_10_0.png","img2/100/Incongruent/R/I_Dist_100_LN_8_LD_20_RN_1_RD_2_1.png","img2/100/Incongruent/L/I_Dist_100_LN_2_LD_4_RN_6_RD_15_0.png","img2/100/Congruent/R/C_Dist_100_LN_7_LD_14_RN_9_RD_15_1.png","img2/300/Incongruent/R/I_Dist_300_LN_13_LD_26_RN_12_RD_15_1.png","img2/100/Incongruent/R/I_Dist_100_LN_10_LD_25_RN_9_RD_18_1.png","img2/300/Congruent/L/C_Dist_300_LN_11_LD_22_RN_1_RD_5_0.png","img2/100/Incongruent/L/I_Dist_100_LN_2_LD_4_RN_6_RD_15_0.png","img2/200/Incongruent/R/I_Dist_200_LN_14_LD_30_RN_12_RD_18_1.png","img2/300/Incongruent/L/I_Dist_300_LN_1_LD_2_RN_3_RD_15_0.png","img2/200/Congruent/R/C_Dist_200_LN_13_LD_26_RN_14_RD_20_1.png"],"dist100_C":[["C_Dist_100_LN_10_LD_25_RN_3_RD_10_0.png","C_Dist_100_LN_11_LD_22_RN_4_RD_10_0.png","C_Dist_100_LN_11_LD_22_RN_6_RD_15_0.png","C_Dist_100_LN_15_LD_25_RN_13_RD_26_0.png","C_Dist_100_LN_3_LD_6_RN_2_RD_5_0.png","C_Dist_100_LN_6_LD_20_RN_5_RD_25_0.png","C_Dist_100_LN_8_LD_16_RN_2_RD_5_0.png","C_Dist_100_LN_9_LD_15_RN_8_RD_16_0.png"],["C_Dist_100_LN_1_LD_2_RN_18_RD_30_1.png","C_Dist_100_LN_1_LD_2_RN_3_RD_5_1.png","C_Dist_100_LN_12_LD_30_RN_13_RD_26_1.png","C_Dist_100_LN_2_LD_5_RN_11_RD_22_1.png","C_Dist_100_LN_2_LD_5_RN_6_RD_12_1.png","C_Dist_100_LN_3_LD_20_RN_4_RD_16_1.png","C_Dist_100_LN_4_LD_10_RN_15_RD_30_1.png","C_Dist_100_LN_4_LD_8_RN_6_RD_10_1.png","C_Dist_100_LN_6_LD_12_RN_15_RD_25_1.png","C_Dist_100_LN_7_LD_14_RN_15_RD_25_1.png","C_Dist_100_LN_7_LD_14_RN_9_RD_15_1.png"]],"dist100_I":[["I_Dist_100_LN_1_LD_2_RN_8_RD_20_0.png","I_Dist_100_LN_2_LD_4_RN_6_RD_15_0.png","I_Dist_100_LN_2_LD_4_RN_8_RD_20_0.png","I_Dist_100_LN_3_LD_5_RN_11_RD_22_0.png","I_Dist_100_LN_3_LD_5_RN_8_RD_16_0.png","I_Dist_100_LN_3_LD_6_RN_4_RD_10_0.png","I_Dist_100_LN_3_LD_9_RN_7_RD_30_0.png","I_Dist_100_LN_4_LD_8_RN_8_RD_20_0.png","I_Dist_100_LN_6_LD_10_RN_11_RD_22_0.png","I_Dist_100_LN_6_LD_10_RN_13_RD_26_0.png","I_Dist_100_LN_6_LD_10_RN_7_RD_14_0.png","I_Dist_100_LN_9_LD_10_RN_20_RD_25_0.png","I_Dist_100_LN_9_LD_15_RN_13_RD_26_0.png","I_Dist_100_LN_9_LD_15_RN_14_RD_28_0.png"],["I_Dist_100_LN_10_LD_25_RN_8_RD_16_1.png","I_Dist_100_LN_10_LD_25_RN_9_RD_18_1.png","I_Dist_100_LN_11_LD_22_RN_9_RD_15_1.png","I_Dist_100_LN_12_LD_24_RN_9_RD_15_1.png","I_Dist_100_LN_12_LD_30_RN_2_RD_4_1.png","I_Dist_100_LN_13_LD_26_RN_12_RD_20_1.png","I_Dist_100_LN_13_LD_26_RN_6_RD_10_1.png","I_Dist_100_LN_17_LD_30_RN_10_RD_15_1.png","I_Dist_100_LN_6_LD_12_RN_3_RD_5_1.png","I_Dist_100_LN_8_LD_16_RN_6_RD_10_1.png","I_Dist_100_LN_8_LD_20_RN_1_RD_2_1.png","I_Dist_100_LN_9_LD_18_RN_6_RD_10_1.png"]],"dist100_S":[["E_Dist_100_LN_2_LD_12_RN_2_RD_30_0.png","E_Dist_100_LN_6_LD_10_RN_6_RD_12_0.png"],["E_Dist_100_LN_6_LD_12_RN_6_RD_10_1.png"]],"dist200_C":[["C_Dist_200_LN_11_LD_22_RN_3_RD_10_0.png","C_Dist_200_LN_12_LD_15_RN_6_RD_10_0.png","C_Dist_200_LN_12_LD_20_RN_6_RD_15_0.png","C_Dist_200_LN_14_LD_28_RN_6_RD_20_0.png","C_Dist_200_LN_15_LD_25_RN_4_RD_10_0.png","C_Dist_200_LN_16_LD_20_RN_12_RD_20_0.png","C_Dist_200_LN_16_LD_30_RN_9_RD_27_0.png","C_Dist_200_LN_20_LD_25_RN_9_RD_15_0.png","C_Dist_200_LN_21_LD_30_RN_2_RD_4_0.png","C_Dist_200_LN_4_LD_10_RN_3_RD_15_0.png","C_Dist_200_LN_4_LD_8_RN_3_RD_10_0.png","C_Dist_200_LN_6_LD_15_RN_3_RD_15_0.png","C_Dist_200_LN_7_LD_21_RN_2_RD_15_0.png","C_Dist_200_LN_8_LD_15_RN_2_RD_6_0.png","C_Dist_200_LN_8_LD_15_RN_3_RD_9_0.png","C_Dist_200_LN_8_LD_15_RN_7_RD_21_0.png","C_Dist_200_LN_9_LD_20_RN_4_RD_16_0.png"],["C_Dist_200_LN_1_LD_2_RN_21_RD_30_1.png","C_Dist_200_LN_13_LD_26_RN_14_RD_20_1.png","C_Dist_200_LN_3_LD_10_RN_11_RD_22_1.png","C_Dist_200_LN_3_LD_10_RN_14_RD_28_1.png","C_Dist_200_LN_3_LD_10_RN_7_RD_14_1.png","C_Dist_200_LN_3_LD_12_RN_9_RD_20_1.png","C_Dist_200_LN_3_LD_6_RN_14_RD_20_1.png","C_Dist_200_LN_5_LD_10_RN_14_RD_20_1.png","C_Dist_200_LN_6_LD_12_RN_7_RD_10_1.png","C_Dist_200_LN_6_LD_20_RN_11_RD_22_1.png","C_Dist_200_LN_7_LD_15_RN_18_RD_27_1.png","C_Dist_200_LN_9_LD_30_RN_13_RD_26_1.png"]],"dist200_I":[["I_Dist_200_LN_1_LD_2_RN_3_RD_10_0.png","I_Dist_200_LN_1_LD_3_RN_2_RD_15_0.png","I_Dist_200_LN_3_LD_4_RN_11_RD_20_0.png","I_Dist_200_LN_4_LD_5_RN_6_RD_10_0.png","I_Dist_200_LN_4_LD_6_RN_14_RD_30_0.png","I_Dist_200_LN_7_LD_10_RN_12_RD_24_0.png","I_Dist_200_LN_7_LD_10_RN_14_RD_28_0.png","I_Dist_200_LN_7_LD_10_RN_8_RD_16_0.png"],["I_Dist_200_LN_11_LD_20_RN_3_RD_4_1.png","I_Dist_200_LN_14_LD_30_RN_12_RD_18_1.png","I_Dist_200_LN_14_LD_30_RN_6_RD_9_1.png","I_Dist_200_LN_3_LD_10_RN_1_RD_2_1.png","I_Dist_200_LN_4_LD_30_RN_1_RD_3_1.png","I_Dist_200_LN_6_LD_20_RN_3_RD_6_1.png","I_Dist_200_LN_7_LD_15_RN_4_RD_6_1.png","I_Dist_200_LN_7_LD_15_RN_6_RD_9_1.png","I_Dist_200_LN_9_LD_15_RN_8_RD_10_1.png"]],"dist200_S":[["E_Dist_200_LN_3_LD_6_RN_3_RD_10_0.png"],["E_Dist_200_LN_3_LD_10_RN_3_RD_6_1.png"]],"dist300_C":[["C_Dist_300_LN_11_LD_22_RN_1_RD_5_0.png","C_Dist_300_LN_11_LD_22_RN_2_RD_10_0.png","C_Dist_300_LN_11_LD_22_RN_4_RD_20_0.png","C_Dist_300_LN_12_LD_24_RN_2_RD_10_0.png","C_Dist_300_LN_18_LD_20_RN_9_RD_15_0.png","C_Dist_300_LN_20_LD_25_RN_13_RD_26_0.png","C_Dist_300_LN_20_LD_25_RN_14_RD_28_0.png","C_Dist_300_LN_20_LD_25_RN_5_RD_10_0.png","C_Dist_300_LN_20_LD_25_RN_8_RD_16_0.png","C_Dist_300_LN_20_LD_25_RN_9_RD_18_0.png","C_Dist_300_LN_24_LD_30_RN_2_RD_4_0.png","C_Dist_300_LN_24_LD_30_RN_8_RD_16_0.png","C_Dist_300_LN_3_LD_6_RN_2_RD_10_0.png","C_Dist_300_LN_4_LD_10_RN_1_RD_10_0.png","C_Dist_300_LN_4_LD_5_RN_2_RD_4_0.png","C_Dist_300_LN_8_LD_16_RN_1_RD_5_0.png","C_Dist_300_LN_9_LD_10_RN_3_RD_5_0.png"],["C_Dist_300_LN_1_LD_20_RN_7_RD_20_1.png","C_Dist_300_LN_1_LD_3_RN_19_RD_30_1.png","C_Dist_300_LN_1_LD_30_RN_8_RD_24_1.png","C_Dist_300_LN_1_LD_5_RN_11_RD_22_1.png","C_Dist_300_LN_1_LD_5_RN_3_RD_6_1.png","C_Dist_300_LN_1_LD_5_RN_6_RD_12_1.png","C_Dist_300_LN_2_LD_10_RN_12_RD_24_1.png","C_Dist_300_LN_2_LD_20_RN_10_RD_25_1.png","C_Dist_300_LN_3_LD_12_RN_11_RD_20_1.png","C_Dist_300_LN_3_LD_6_RN_4_RD_5_1.png","C_Dist_300_LN_4_LD_20_RN_13_RD_26_1.png","C_Dist_300_LN_5_LD_25_RN_6_RD_12_1.png","C_Dist_300_LN_5_LD_25_RN_7_RD_14_1.png","C_Dist_300_LN_7_LD_14_RN_20_RD_25_1.png","C_Dist_300_LN_8_LD_15_RN_10_RD_12_1.png"]],"dist300_I":[["I_Dist_300_LN_1_LD_2_RN_2_RD_10_0.png","I_Dist_300_LN_1_LD_2_RN_3_RD_15_0.png","I_Dist_300_LN_2_LD_4_RN_6_RD_30_0.png","I_Dist_300_LN_3_LD_6_RN_4_RD_20_0.png","I_Dist_300_LN_4_LD_5_RN_6_RD_12_0.png","I_Dist_300_LN_4_LD_5_RN_8_RD_16_0.png","I_Dist_300_LN_7_LD_10_RN_8_RD_20_0.png","I_Dist_300_LN_8_LD_10_RN_14_RD_28_0.png","I_Dist_300_LN_8_LD_10_RN_9_RD_18_0.png"],["I_Dist_300_LN_13_LD_26_RN_12_RD_15_1.png","I_Dist_300_LN_4_LD_20_RN_2_RD_4_1.png"]],"dist300_S":[["E_Dist_300_LN_9_LD_12_RN_9_RD_20_0.png"],["E_Dist_300_LN_18_LD_30_RN_18_RD_20_1.png","E_Dist_300_LN_3_LD_10_RN_3_RD_5_1.png","E_Dist_300_LN_9_LD_20_RN_9_RD_12_1.png"]],"dist500_C":[["C_Dist_500_LN_10_LD_13_RN_7_RD_26_0.png","C_Dist_500_LN_10_LD_15_RN_4_RD_24_0.png","C_Dist_500_LN_12_LD_16_RN_3_RD_12_0.png","C_Dist_500_LN_12_LD_18_RN_4_RD_24_0.png","C_Dist_500_LN_15_LD_18_RN_5_RD_15_0.png","C_Dist_500_LN_15_LD_20_RN_1_RD_4_0.png","C_Dist_500_LN_18_LD_27_RN_1_RD_6_0.png","C_Dist_500_LN_20_LD_24_RN_1_RD_3_0.png","C_Dist_500_LN_20_LD_24_RN_3_RD_9_0.png","C_Dist_500_LN_20_LD_24_RN_7_RD_21_0.png","C_Dist_500_LN_20_LD_28_RN_3_RD_14_0.png","C_Dist_500_LN_21_LD_28_RN_6_RD_24_0.png","C_Dist_500_LN_22_LD_28_RN_2_RD_7_0.png","C_Dist_500_LN_25_LD_30_RN_9_RD_27_0.png","C_Dist_500_LN_4_LD_6_RN_1_RD_6_0.png","C_Dist_500_LN_5_LD_6_RN_2_RD_6_0.png","C_Dist_500_LN_6_LD_9_RN_1_RD_6_0.png","C_Dist_500_LN_7_LD_10_RN_1_RD_5_0.png","C_Dist_500_LN_8_LD_12_RN_1_RD_6_0.png","C_Dist_500_LN_8_LD_12_RN_4_RD_24_0.png"],["C_Dist_500_LN_1_LD_4_RN_12_RD_16_1.png","C_Dist_500_LN_1_LD_4_RN_9_RD_12_1.png","C_Dist_500_LN_1_LD_9_RN_11_RD_18_1.png","C_Dist_500_LN_10_LD_24_RN_22_RD_24_1.png","C_Dist_500_LN_2_LD_12_RN_10_RD_15_1.png","C_Dist_500_LN_2_LD_12_RN_12_RD_18_1.png","C_Dist_500_LN_2_LD_12_RN_4_RD_6_1.png","C_Dist_500_LN_2_LD_24_RN_7_RD_12_1.png","C_Dist_500_LN_2_LD_5_RN_18_RD_20_1.png","C_Dist_500_LN_2_LD_5_RN_9_RD_10_1.png","C_Dist_500_LN_2_LD_8_RN_12_RD_16_1.png","C_Dist_500_LN_2_LD_8_RN_21_RD_28_1.png","C_Dist_500_LN_3_LD_10_RN_4_RD_5_1.png","C_Dist_500_LN_3_LD_12_RN_15_RD_20_1.png","C_Dist_500_LN_3_LD_30_RN_6_RD_10_1.png","C_Dist_500_LN_3_LD_8_RN_14_RD_16_1.png","C_Dist_500_LN_4_LD_16_RN_15_RD_20_1.png","C_Dist_500_LN_4_LD_24_RN_12_RD_18_1.png","C_Dist_500_LN_5_LD_14_RN_6_RD_7_1.png","C_Dist_500_LN_7_LD_21_RN_20_RD_24_1.png","C_Dist_500_LN_7_LD_28_RN_12_RD_16_1.png","C_Dist_500_LN_7_LD_28_RN_9_RD_12_1.png","C_Dist_500_LN_9_LD_27_RN_20_RD_24_1.png"]],"dist500_I":[["I_Dist_500_LN_2_LD_3_RN_4_RD_24_0.png","I_Dist_500_LN_5_LD_6_RN_6_RD_18_0.png","I_Dist_500_LN_7_LD_8_RN_9_RD_24_0.png"],["I_Dist_500_LN_7_LD_21_RN_5_RD_6_1.png"]],"dist500_S":[["E_Dist_500_LN_6_LD_8_RN_6_RD_24_0.png"],["E_Dist_500_LN_2_LD_12_RN_2_RD_3_1.png","E_Dist_500_LN_6_LD_24_RN_6_RD_8_1.png"]]}},{"start_time":1551899635115,"click_time":1551899636973,"finger_time":1551899636573,"fix_duration":600.3175981453701,"trial":1,"RT":1458,"MT":400,"sideResp":2,"stimulus":[],"xmouse":[829,829,829,829,829,829,829,829,829,829,829,829,829,829,829,829,829,829,829,829,829,829,829,829,829,829,829,829,829,829,829,829,829,829,829,829,829,829,829,829,829,829,829,829,829,829,829,829,829,829,829,829,829,829,829,829,829,829,829,829,829,829,829,829,829,829,829,829,829,829,829,832,870,895,924,943,957,989,996,1002,1007,1013,1020,1024,1031,1036,1043,1056,1060,1063,1070,1075,1085],"ymouse":[536,536,536,536,536,536,536,536,536,536,536,536,536,536,536,536,536,536,536,536,536,536,536,536,536,536,536,536,536,536,536,536,536,536,536,536,536,536,536,536,536,536,536,536,536,536,536,536,536,536,536,536,536,536,536,536,536,536,536,536,536,536,536,536,536,536,536,536,536,536,534,527,477,444,393,359,337,279,263,251,239,230,217,207,198,185,172,145,137,130,120,112,93],"timestamp_mouse":[18,39,58,78,98,117,137,157,178,199,218,238,259,278,298,319,338,358,378,398,418,438,458,479,497,518,538,558,579,599,618,638,658,677,697,718,738,757,777,798,818,839,857,878,898,918,938,958,978,997,1017,1038,1057,1079,1098,1118,1137,1157,1178,1197,1217,1238,1257,1278,1298,1319,1337,1358,1377,1397,1418,1439,1458,1477,1498,1517,1537,1558,1579,1598,1618,1637,1657,1677,1698,1718,1738,1758,1777,1799,1818,1838,1858],"xSR":741.5,"ySR":481,"xT1":424.9,"yT1":0,"xT2":1058.1,"yT2":0,"toosoon":0,"cond_shown":"Incongruent","ratio_trial":300,"L_num":4,"L_den":20,"R_num":2,"R_den":4,"correct_side":2,"subjID":"miguelangelpachonpinzon13","gender":"0","school":"6","age":"11"},{"start_time":1551899638394,"click_time":1551899640453,"finger_time":1551899639872,"fix_duration":519.9497734256367,"trial":2,"RT":1478,"MT":581,"sideResp":1,"stimulus":[],"xmouse":[795,795,795,795,795,795,795,795,795,795,795,795,795,795,795,795,795,795,795,795,795,795,795,795,795,795,795,795,795,795,795,795,795,795,795,795,795,795,795,795,795,795,795,795,795,795,795,795,795,795,795,795,795,795,795,795,795,795,795,795,795,795,795,795,795,795,795,795,795,795,792,785,773,708,671,644,632,629,627,627,627,627,626,622,615,607,599,593,571,560,553,549,547,544,542,539,535,530,522,518,513,509,503],"ymouse":[576,576,576,576,576,576,576,576,576,576,576,576,576,576,576,576,576,576,576,576,576,576,576,576,576,576,576,576,576,576,576,576,576,576,576,576,576,576,576,576,576,576,576,576,576,576,576,576,576,576,576,576,576,576,576,576,576,576,576,576,576,576,576,576,576,576,576,576,576,576,570,561,548,443,396,364,350,347,344,344,344,344,344,339,326,310,295,277,239,220,208,198,193,180,175,168,159,148,130,121,111,101,91],"timestamp_mouse":[23,47,59,80,99,120,139,159,179,200,220,239,259,279,298,318,339,359,380,399,420,439,459,478,498,518,538,559,579,600,619,638,658,678,699,719,738,759,778,798,820,839,859,880,899,919,940,958,979,999,1020,1039,1058,1078,1100,1120,1138,1159,1178,1200,1219,1239,1258,1278,1299,1318,1339,1359,1380,1399,1419,1440,1459,1478,1499,1519,1538,1558,1579,1599,1618,1638,1660,1678,1698,1719,1739,1760,1778,1799,1819,1840,1859,1878,1898,1920,1939,1960,1978,1998,2018,2040,2059],"xSR":741.5,"ySR":481,"xT1":424.9,"yT1":0,"xT2":1058.1,"yT2":0,"toosoon":0,"cond_shown":"Incongruent","ratio_trial":300,"L_num":1,"L_den":2,"R_num":3,"R_den":15,"correct_side":1,"subjID":"miguelangelpachonpinzon13","gender":"0","school":"6","age":"11"},{"start_time":1551899642874,"click_time":1551899644773,"finger_time":1551899644273,"fix_duration":1121.978313918544,"trial":3,"RT":1399,"MT":500,"sideResp":1,"stimulus":[],"xmouse":[811,811,811,811,811,811,811,811,811,811,811,811,811,811,811,811,811,811,811,811,811,811,811,811,811,811,811,811,811,811,811,811,811,811,811,811,811,811,811,811,811,811,811,811,811,811,811,811,811,811,811,811,811,811,811,811,811,811,811,811,811,811,811,811,811,811,811,811,811,763,694,622,554,506,470,463,462,462,462,461,461,461,461,463,472,476,479,479,479,476,474,472,471,469,466],"ymouse":[513,513,513,513,513,513,513,513,513,513,513,513,513,513,513,513,513,513,513,513,513,513,513,513,513,513,513,513,513,513,513,513,513,513,513,513,513,513,513,513,513,513,513,513,513,513,513,513,513,513,513,513,513,513,513,513,513,513,513,513,513,513,513,513,513,513,513,513,513,474,424,377,335,306,276,269,265,264,263,258,253,244,236,225,198,184,169,154,141,121,118,112,109,104,96],"timestamp_mouse":[33,38,59,79,99,119,138,160,179,198,218,239,259,279,299,318,338,358,378,399,418,440,459,479,499,520,540,559,579,599,619,638,659,679,700,720,739,758,779,798,818,839,858,879,898,920,939,958,979,999,1018,1039,1058,1080,1099,1119,1140,1159,1179,1198,1220,1238,1259,1278,1299,1320,1338,1359,1379,1399,1419,1438,1458,1479,1499,1519,1539,1560,1579,1598,1620,1639,1658,1680,1698,1718,1738,1759,1778,1798,1820,1839,1858,1879,1898],"xSR":741.5,"ySR":481,"xT1":424.9,"yT1":0,"xT2":1058.1,"yT2":0,"toosoon":0,"cond_shown":"Incongruent","ratio_trial":300,"L_num":1,"L_den":2,"R_num":2,"R_den":10,"correct_side":1,"subjID":"miguelangelpachonpinzon13","gender":"0","school":"6","age":"11"},{"start_time":1551899646250,"click_time":1551899647873,"finger_time":1551899647573,"fix_duration":515.7088188702493,"trial":4,"RT":1323,"MT":300,"sideResp":2,"stimulus":[],"xmouse":[793,793,793,793,793,793,793,793,793,793,793,793,793,793,793,793,793,793,793,793,793,793,793,793,793,793,793,793,793,793,793,793,793,793,793,793,793,793,793,793,793,793,793,793,793,793,793,793,793,793,793,793,793,793,793,793,793,793,793,793,793,793,793,793,801,806,837,857,876,896,915,944,952,961,970,979,998,1009,1023,1042,1055,1081],"ymouse":[502,502,502,502,502,502,502,502,502,502,502,502,502,502,502,502,502,502,502,502,502,502,502,502,502,502,502,502,502,502,502,502,502,502,502,502,502,502,502,502,502,502,502,502,502,502,502,502,502,502,502,502,502,502,502,502,502,502,502,502,502,502,502,502,492,487,435,396,345,302,265,208,195,183,171,157,130,115,98,78,63,38],"timestamp_mouse":[9,22,43,72,83,102,122,144,164,183,204,223,244,262,282,302,322,343,362,383,403,423,442,463,482,504,523,542,562,583,602,624,643,664,683,704,723,743,762,783,803,822,843,862,884,903,922,944,962,982,1002,1022,1042,1062,1084,1103,1122,1143,1163,1183,1203,1223,1243,1262,1284,1304,1323,1343,1363,1382,1402,1422,1444,1462,1483,1503,1522,1542,1562,1582,1603,1623],"xSR":741.5,"ySR":481,"xT1":424.9,"yT1":0,"xT2":1058.1,"yT2":0,"toosoon":0,"cond_shown":"Congruent","ratio_trial":200,"L_num":6,"L_den":12,"R_num":7,"R_den":10,"correct_side":2,"subjID":"miguelangelpachonpinzon13","gender":"0","school":"6","age":"11"},{"start_time":1551899650756,"click_time":1551899652794,"finger_time":1551899652173,"fix_duration":1422.3148378817282,"trial":5,"RT":1417,"MT":621,"sideResp":2,"stimulus":[],"xmouse":[820,820,820,820,820,820,820,820,820,820,820,820,820,820,820,820,820,820,820,820,820,820,820,820,820,820,820,820,820,820,820,820,820,820,820,820,820,820,820,820,820,820,820,820,820,820,820,820,820,820,820,820,820,820,820,820,820,820,820,820,820,820,820,820,820,820,820,820,820,823,833,843,858,872,890,937,967,982,1000,1011,1029,1036,1044,1047,1049,1049,1049,1049,1049,1049,1049,1049,1049,1049,1049,1049,1049,1049,1049,1049,1052,1062],"ymouse":[506,506,506,506,506,506,506,506,506,506,506,506,506,506,506,506,506,506,506,506,506,506,506,506,506,506,506,506,506,506,506,506,506,506,506,506,506,506,506,506,506,506,506,506,506,506,506,506,506,506,506,506,506,506,506,506,506,506,506,506,506,506,506,506,506,506,506,506,506,493,459,436,403,367,319,241,195,169,139,114,82,72,62,58,56,55,55,55,55,55,55,55,55,55,55,55,55,55,55,55,53,51],"timestamp_mouse":[17,37,64,78,96,116,137,158,178,197,217,237,257,277,297,316,337,358,377,398,417,438,457,477,498,517,537,556,577,598,616,636,656,677,697,716,737,757,776,796,816,836,857,877,898,918,938,956,976,998,1017,1036,1057,1078,1096,1117,1138,1157,1176,1197,1217,1237,1256,1276,1296,1317,1337,1358,1377,1398,1417,1436,1456,1477,1498,1516,1538,1556,1576,1597,1617,1637,1658,1676,1696,1717,1737,1756,1778,1797,1817,1836,1857,1877,1896,1916,1938,1957,1977,1996,2016,2038],"xSR":741.5,"ySR":481,"xT1":424.9,"yT1":0,"xT2":1058.1,"yT2":0,"toosoon":0,"cond_shown":"Congruent","ratio_trial":100,"L_num":15,"L_den":25,"R_num":13,"R_den":26,"correct_side":1,"subjID":"miguelangelpachonpinzon13","gender":"0","school":"6","age":"11"},{"start_time":1551899654594,"click_time":1551899655972,"finger_time":1551899655333,"fix_duration":959.0433303322939,"trial":6,"RT":739,"MT":639,"sideResp":1,"stimulus":[],"xmouse":[795,795,795,795,795,795,795,795,795,795,795,795,795,795,795,795,795,795,795,795,795,795,795,795,795,795,795,795,795,795,795,795,795,785,767,743,723,708,698,698,698,698,698,698,698,696,694,689,672,659,647,630,604,542,507,483,458,437,413,409,407,407,407,407,407,407,411,415,429],"ymouse":[526,526,526,526,526,526,526,526,526,526,526,526,526,526,526,526,526,526,526,526,526,526,526,526,526,526,526,526,526,526,526,526,526,518,508,495,486,479,475,475,475,475,475,475,475,473,470,464,446,435,422,403,367,290,252,221,185,154,119,109,105,103,102,94,88,82,75,66,52],"timestamp_mouse":[18,40,59,79,99,118,138,160,179,200,219,239,259,279,299,319,340,358,378,399,418,439,460,479,499,519,539,560,579,599,620,638,659,679,700,718,739,760,779,798,819,838,860,880,899,919,938,959,978,998,1019,1039,1059,1078,1099,1118,1138,1159,1178,1198,1219,1240,1259,1278,1300,1319,1340,1359,1378],"xSR":741.5,"ySR":481,"xT1":424.9,"yT1":0,"xT2":1058.1,"yT2":0,"toosoon":0,"cond_shown":"Congruent","ratio_trial":200,"L_num":12,"L_den":20,"R_num":6,"R_den":15,"correct_side":1,"subjID":"miguelangelpachonpinzon13","gender":"0","school":"6","age":"11"},{"start_time":1551899657439,"click_time":1551899658232,"finger_time":1551899658054,"fix_duration":324.0071654060122,"trial":7,"RT":615,"MT":178,"sideResp":1,"stimulus":[],"xmouse":[782,782,782,782,782,782,782,782,782,782,782,782,782,782,782,782,782,782,782,782,782,782,782,782,782,782,782,782,773,765,729,658,612,574,552,538,530,528,523,511],"ymouse":[501,501,501,501,501,501,501,501,501,501,501,501,501,501,501,501,501,501,501,501,501,501,501,501,501,501,501,501,492,482,440,341,280,214,170,138,113,109,104,97],"timestamp_mouse":[14,38,54,73,93,113,133,154,174,194,214,233,254,274,293,315,334,354,374,393,414,434,454,473,494,515,534,554,574,595,615,633,653,674,695,714,733,754,774,793],"xSR":741.5,"ySR":481,"xT1":424.9,"yT1":0,"xT2":1058.1,"yT2":0,"toosoon":0,"cond_shown":"Congruent","ratio_trial":200,"L_num":12,"L_den":15,"R_num":6,"R_den":10,"correct_side":1,"subjID":"miguelangelpachonpinzon13","gender":"0","school":"6","age":"11"},{"start_time":1551899660953,"click_time":1551899662654,"finger_time":1551899662232,"fix_duration":1397.061373965446,"trial":8,"RT":1279,"MT":422,"sideResp":1,"stimulus":[],"xmouse":[799,799,799,799,799,799,799,799,799,799,799,799,799,799,799,799,799,799,799,799,799,799,799,799,799,799,799,799,799,799,799,799,799,799,800,802,804,805,805,805,805,805,805,805,805,805,805,805,805,805,805,805,805,805,805,805,805,805,805,805,805,805,786,769,731,681,545,525,512,505,504,502,499,498,494,488,482,481,479,477,474,466,461,459,457,455],"ymouse":[521,521,521,521,521,521,521,521,521,521,521,521,521,521,521,521,521,521,521,521,521,521,521,521,521,521,521,521,521,521,521,521,521,521,521,521,516,515,515,515,515,515,515,515,515,515,515,515,515,515,515,515,515,515,515,515,515,515,515,515,515,515,500,489,462,428,334,318,308,300,293,271,256,244,231,216,192,184,173,158,143,119,110,105,102,98],"timestamp_mouse":[1,37,39,59,80,99,120,140,161,180,201,220,240,260,279,300,320,341,360,379,400,419,441,460,480,499,521,541,559,579,599,619,641,661,679,700,719,741,761,780,799,820,839,861,880,900,920,939,960,980,1000,1020,1041,1061,1080,1100,1119,1139,1161,1179,1200,1219,1240,1261,1279,1299,1320,1341,1359,1380,1400,1419,1441,1459,1479,1499,1519,1540,1560,1579,1599,1620,1639,1660,1680,1701],"xSR":741.5,"ySR":481,"xT1":424.9,"yT1":0,"xT2":1058.1,"yT2":0,"toosoon":0,"cond_shown":"Incongruent","ratio_trial":300,"L_num":1,"L_den":2,"R_num":3,"R_den":15,"correct_side":1,"subjID":"miguelangelpachonpinzon13","gender":"0","school":"6","age":"11"},{"start_time":1551899665881,"click_time":1551899667873,"finger_time":1551899667512,"fix_duration":986.1737012337759,"trial":9,"RT":1631,"MT":361,"sideResp":1,"stimulus":[],"xmouse":[820,820,820,820,820,820,820,820,820,820,820,820,820,820,820,820,820,820,820,820,820,820,820,820,820,820,820,820,820,820,820,820,820,820,820,820,820,820,820,820,820,820,820,820,820,820,820,820,820,820,820,820,820,820,820,820,820,820,820,820,820,820,820,820,820,820,820,820,820,820,820,820,820,817,808,803,801,800,799,776,749,714,662,616,571,567,565,555,542,525,515,507,502,501,500,500,498,495,491,486],"ymouse":[562,562,562,562,562,562,562,562,562,562,562,562,562,562,562,562,562,562,562,562,562,562,562,562,562,562,562,562,562,562,562,562,562,562,562,562,562,562,562,562,562,562,562,562,562,562,562,562,562,562,562,562,562,562,562,562,562,562,562,562,562,562,562,562,562,562,562,562,562,562,562,562,562,562,563,565,565,565,565,562,550,520,483,452,409,368,329,286,240,203,190,184,181,181,181,174,159,143,128,99],"timestamp_mouse":[11,31,57,72,92,111,133,152,172,191,211,231,251,272,292,312,331,352,372,391,413,431,451,473,491,512,533,552,573,592,611,632,653,671,691,713,731,751,773,792,813,831,852,873,892,913,931,951,972,993,1012,1032,1051,1072,1093,1112,1132,1152,1172,1193,1212,1232,1252,1271,1291,1311,1331,1353,1372,1392,1412,1433,1453,1472,1491,1513,1533,1551,1571,1592,1612,1631,1652,1671,1692,1711,1732,1752,1773,1791,1811,1832,1852,1871,1892,1911,1932,1953,1973,1992],"xSR":741.5,"ySR":481,"xT1":424.9,"yT1":0,"xT2":1058.1,"yT2":0,"toosoon":0,"cond_shown":"Incongruent","ratio_trial":200,"L_num":14,"L_den":30,"R_num":12,"R_den":18,"correct_side":2,"subjID":"miguelangelpachonpinzon13","gender":"0","school":"6","age":"11"},{"start_time":1551899669665,"click_time":1551899670894,"finger_time":1551899670652,"fix_duration":250,"trial":10,"RT":987,"MT":242,"sideResp":1,"stimulus":[],"xmouse":[820,820,820,820,820,820,820,820,820,820,820,820,820,820,820,820,820,820,820,820,820,820,820,820,820,820,820,820,820,820,820,827,836,838,840,840,840,840,840,840,840,840,840,840,840,836,819,795,771,739,682,648,623,595,574,544,534,527,517,506,472,463],"ymouse":[541,541,541,541,541,541,541,541,541,541,541,541,541,541,541,541,541,541,541,541,541,541,541,541,541,541,541,541,541,541,538,529,520,517,515,514,514,514,514,514,514,514,514,514,514,513,507,495,483,462,416,384,354,318,280,218,200,183,165,150,105,93],"timestamp_mouse":[10,27,47,69,87,107,127,148,169,187,207,228,249,268,288,308,328,347,367,389,409,428,447,467,488,509,528,548,568,587,607,629,647,668,689,707,728,748,769,787,807,829,848,868,888,907,927,949,969,987,1009,1027,1048,1067,1088,1107,1127,1147,1167,1189,1207,1228],"xSR":741.5,"ySR":481,"xT1":424.9,"yT1":0,"xT2":1058.1,"yT2":0,"toosoon":0,"cond_shown":"Incongruent","ratio_trial":200,"L_num":4,"L_den":6,"R_num":14,"R_den":30,"correct_side":1,"subjID":"miguelangelpachonpinzon13","gender":"0","school":"6","age":"11"},{"start_time":1551899673373,"click_time":1551899674434,"finger_time":1551899674173,"fix_duration":1417.315784779683,"trial":11,"RT":800,"MT":261,"sideResp":1,"stimulus":[],"xmouse":[794,794,794,794,794,794,794,794,794,794,794,794,794,794,794,794,794,794,794,794,794,794,794,794,794,794,794,794,794,794,794,794,794,794,794,794,794,785,776,760,731,720,710,702,693,677,658,634,603,570,514,495,481,470],"ymouse":[511,511,511,511,511,511,511,511,511,511,511,511,511,511,511,511,511,511,511,511,511,511,511,511,511,511,511,511,511,511,511,511,511,511,511,511,511,509,504,494,471,459,441,426,413,382,347,314,270,228,154,128,111,95],"timestamp_mouse":[1,19,40,60,79,100,121,139,160,179,199,220,240,259,281,300,320,340,361,379,400,419,441,460,481,500,520,541,561,580,599,620,640,659,680,700,720,739,760,780,799,820,840,859,881,899,919,940,959,981,1000,1019,1040,1060],"xSR":741.5,"ySR":481,"xT1":424.9,"yT1":0,"xT2":1058.1,"yT2":0,"toosoon":0,"cond_shown":"Incongruent","ratio_trial":200,"L_num":1,"L_den":2,"R_num":3,"R_den":10,"correct_side":1,"subjID":"miguelangelpachonpinzon13","gender":"0","school":"6","age":"11"},{"start_time":1551899675745,"click_time":1551899676613,"finger_time":1551899676113,"fix_duration":531.2668665743553,"trial":12,"RT":368,"MT":500,"sideResp":1,"stimulus":[],"xmouse":[811,811,811,811,811,811,811,811,811,811,811,811,811,811,811,810,781,761,739,729,719,709,702,693,684,669,662,640,632,628,622,602,587,573,561,544,532,527,524,523,521,518,518,516],"ymouse":[572,572,572,572,572,572,572,572,572,572,572,572,572,572,572,570,540,523,504,489,476,451,432,415,399,371,361,313,299,287,275,245,226,210,194,171,150,134,125,118,111,104,101,97],"timestamp_mouse":[9,44,49,67,88,108,129,148,167,188,207,228,247,267,289,308,327,348,368,387,408,428,448,469,488,508,527,547,567,589,608,627,648,668,688,707,727,748,768,788,807,827,847,867],"xSR":741.5,"ySR":481,"xT1":424.9,"yT1":0,"xT2":1058.1,"yT2":0,"toosoon":0,"cond_shown":"Incongruent","ratio_trial":200,"L_num":6,"L_den":20,"R_num":3,"R_den":6,"correct_side":2,"subjID":"miguelangelpachonpinzon13","gender":"0","school":"6","age":"11"},{"start_time":1551899678898,"click_time":1551899681173,"finger_time":1551899680372,"fix_duration":1223.451998680893,"trial":13,"RT":1474,"MT":801,"sideResp":2,"stimulus":[],"xmouse":[783,783,783,783,783,783,783,783,783,783,783,783,783,783,783,783,783,783,783,783,783,783,783,783,783,783,783,783,783,783,783,783,783,783,783,783,783,783,783,783,783,783,783,783,783,783,783,783,783,783,783,783,783,783,783,783,783,783,783,783,783,783,783,783,783,783,783,783,783,785,792,801,813,841,860,882,899,912,937,943,949,955,962,977,986,993,1000,1005,1015,1017,1019,1022,1023,1027,1027,1027,1028,1028,1029,1029,1029,1029,1029,1029,1029,1029,1029,1029,1031,1035,1039,1051,1067,1096],"ymouse":[536,536,536,536,536,536,536,536,536,536,536,536,536,536,536,536,536,536,536,536,536,536,536,536,536,536,536,536,536,536,536,536,536,536,536,536,536,536,536,536,536,536,536,536,536,536,536,536,536,536,536,536,536,536,536,536,536,536,536,536,536,536,536,536,536,536,536,536,536,530,523,513,501,473,454,428,407,389,351,338,328,315,302,272,256,240,226,214,193,187,184,180,179,175,175,174,172,168,158,156,155,154,154,154,154,154,154,154,151,147,139,121,100,39],"timestamp_mouse":[15,36,55,75,96,115,136,155,174,194,216,234,255,274,295,316,335,355,376,395,416,436,456,474,494,514,534,555,575,594,614,636,655,675,695,714,736,755,774,794,814,834,854,874,895,915,936,954,974,994,1014,1035,1056,1076,1095,1114,1135,1156,1176,1196,1215,1234,1254,1274,1295,1314,1334,1354,1375,1395,1416,1435,1454,1474,1496,1514,1534,1556,1576,1596,1615,1635,1655,1675,1695,1715,1735,1754,1774,1795,1816,1836,1856,1874,1896,1915,1936,1956,1974,1994,2015,2034,2054,2074,2095,2116,2136,2155,2175,2194,2215,2234,2256,2275],"xSR":741.5,"ySR":481,"xT1":424.9,"yT1":0,"xT2":1058.1,"yT2":0,"toosoon":0,"cond_shown":"Congruent","ratio_trial":200,"L_num":3,"L_den":10,"R_num":11,"R_den":22,"correct_side":2,"subjID":"miguelangelpachonpinzon13","gender":"0","school":"6","age":"11"},{"start_time":1551899683929,"click_time":1551899685494,"finger_time":1551899684993,"fix_duration":1295.2273502607884,"trial":14,"RT":1064,"MT":501,"sideResp":1,"stimulus":[],"xmouse":[818,818,818,818,818,818,818,818,818,818,818,818,818,818,818,818,818,818,818,818,818,818,818,818,818,818,818,818,818,818,818,818,818,818,818,818,818,818,818,818,818,818,818,818,818,818,818,818,818,816,815,812,800,795,788,778,768,741,732,722,715,704,687,678,666,651,636,597,588,586,586,585,583,578,572,560,546,494,478],"ymouse":[509,509,509,509,509,509,509,509,509,509,509,509,509,509,509,509,509,509,509,509,509,509,509,509,509,509,509,509,509,509,509,509,509,509,509,509,509,509,509,509,509,509,509,509,509,509,509,509,509,506,503,499,483,476,465,453,440,405,394,379,370,355,333,320,303,283,260,209,198,194,193,192,188,183,178,169,155,104,87],"timestamp_mouse":[10,24,44,77,83,104,123,145,163,183,204,223,245,265,285,304,324,344,365,384,404,424,443,464,484,504,525,545,565,583,605,625,643,663,684,705,724,743,763,784,804,825,844,864,883,904,924,945,963,983,1003,1024,1044,1064,1084,1103,1123,1143,1164,1184,1204,1225,1243,1265,1284,1303,1325,1344,1365,1385,1403,1423,1443,1464,1485,1504,1524,1544,1564],"xSR":741.5,"ySR":481,"xT1":424.9,"yT1":0,"xT2":1058.1,"yT2":0,"toosoon":0,"cond_shown":"Congruent","ratio_trial":300,"L_num":20,"L_den":25,"R_num":14,"R_den":28,"correct_side":1,"subjID":"miguelangelpachonpinzon13","gender":"0","school":"6","age":"11"},{"start_time":1551899686895,"click_time":1551899688898,"finger_time":1551899688076,"fix_duration":420.16487554102,"trial":15,"RT":1181,"MT":822,"sideResp":1,"stimulus":[],"xmouse":[834,834,834,834,834,834,834,834,834,834,834,834,834,834,834,834,834,834,834,834,834,834,834,834,834,834,834,834,834,834,834,834,834,834,834,834,834,834,834,834,834,834,834,834,834,834,834,834,834,834,834,834,834,834,834,831,826,816,781,765,747,727,703,661,650,640,632,626,614,610,606,600,596,588,584,582,579,577,565,558,554,552,552,552,552,552,551,548,533,529,523,521,517,512,510,508,506,505,502,501],"ymouse":[498,498,498,498,498,498,498,498,498,498,498,498,498,498,498,498,498,498,498,498,498,498,498,498,498,498,498,498,498,498,498,498,498,498,498,498,498,498,498,498,498,498,498,498,498,498,498,498,498,498,498,498,498,498,498,498,496,492,476,468,457,442,420,374,353,333,317,303,276,268,257,244,237,223,218,215,212,209,199,195,193,191,191,191,191,191,190,187,171,163,154,147,139,128,123,119,115,111,101,95],"timestamp_mouse":[18,49,58,79,99,118,139,158,178,199,217,238,258,279,298,318,338,357,378,399,417,442,462,480,502,522,542,561,582,601,622,642,660,681,701,721,742,761,781,801,821,841,861,881,901,921,940,961,982,1001,1022,1041,1061,1081,1102,1120,1142,1161,1181,1201,1221,1241,1261,1281,1302,1321,1341,1361,1381,1401,1421,1442,1462,1481,1501,1521,1542,1562,1581,1601,1621,1641,1661,1681,1701,1722,1742,1761,1781,1801,1821,1841,1862,1881,1901,1922,1942,1961,1981,2002],"xSR":741.5,"ySR":481,"xT1":424.9,"yT1":0,"xT2":1058.1,"yT2":0,"toosoon":0,"cond_shown":"Congruent","ratio_trial":100,"L_num":8,"L_den":16,"R_num":2,"R_den":5,"correct_side":1,"subjID":"miguelangelpachonpinzon13","gender":"0","school":"6","age":"11"},{"start_time":1551899690327,"click_time":1551899691496,"finger_time":1551899690997,"fix_duration":549.5686732120181,"trial":16,"RT":670,"MT":499,"sideResp":1,"stimulus":[],"xmouse":[789,789,789,789,789,789,789,789,789,789,789,789,789,789,789,789,789,789,788,788,787,787,786,786,786,786,786,786,786,786,784,783,771,760,746,733,715,687,673,657,643,634,625,621,619,616,613,607,605,603,599,592,574,562,553,545,538,525,523],"ymouse":[542,542,542,542,542,542,542,542,542,542,542,542,542,542,542,542,542,542,542,541,539,538,536,534,529,526,520,515,514,512,508,504,481,464,447,430,402,365,346,330,314,302,276,259,248,238,230,215,210,201,188,176,146,131,119,108,97,81,77],"timestamp_mouse":[9,30,64,70,89,110,129,150,168,189,208,230,250,270,290,310,328,350,369,390,409,430,449,469,489,509,530,549,569,589,610,630,649,670,689,710,730,749,769,790,809,830,849,869,889,909,929,949,969,990,1009,1029,1049,1070,1088,1109,1130,1149,1169],"xSR":741.5,"ySR":481,"xT1":424.9,"yT1":0,"xT2":1058.1,"yT2":0,"toosoon":0,"cond_shown":"Incongruent","ratio_trial":200,"L_num":7,"L_den":15,"R_num":4,"R_den":6,"correct_side":2,"subjID":"miguelangelpachonpinzon13","gender":"0","school":"6","age":"11"},{"start_time":1551899695375,"click_time":1551899698476,"finger_time":1551899696937,"fix_duration":1076.7990135517045,"trial":17,"RT":1562,"MT":1539,"sideResp":1,"stimulus":[],"xmouse":[822,822,822,822,822,822,822,822,822,822,822,822,822,822,822,822,822,822,822,822,822,822,822,822,822,822,822,822,822,822,822,822,822,822,822,822,822,822,822,822,822,822,822,822,822,822,822,822,822,822,822,822,822,822,822,822,822,822,822,822,822,822,822,822,822,822,822,822,822,822,822,822,822,822,822,825,830,838,842,844,846,846,847,849,851,861,864,868,871,872,873,873,873,873,873,873,873,875,877,877,877,877,877,877,877,877,877,877,877,877,860,846,837,830,827,826,826,823,808,754,575,480,398,329,274,263,263,263,263,263,263,263,263,263,263,263,263,263,263,371,383,404,410,413,415,415,415,415,415,415,415,417,419,421,423,430],"ymouse":[514,514,514,514,514,514,514,514,514,514,514,514,514,514,514,514,514,514,514,514,514,514,514,514,514,514,514,514,514,514,514,514,514,514,514,514,514,514,514,514,514,514,514,514,514,514,514,514,514,514,514,514,514,514,514,514,514,514,514,514,514,514,514,514,514,514,514,514,514,514,514,514,514,514,514,502,494,486,481,479,475,474,472,471,468,461,458,454,451,450,449,449,449,449,449,449,449,447,445,445,445,445,445,445,445,445,445,445,445,444,432,428,427,424,424,423,423,423,412,374,249,182,124,74,25,5,5,5,5,5,5,5,5,5,5,5,5,5,5,15,36,65,72,75,76,76,76,76,76,76,76,76,76,76,74,71],"timestamp_mouse":[14,26,42,61,81,101,122,142,162,181,201,221,241,262,281,301,321,342,361,381,402,421,441,462,482,502,521,541,562,581,601,622,641,662,681,700,722,742,762,781,801,822,841,861,882,901,921,942,962,981,1001,1022,1041,1062,1081,1101,1122,1141,1162,1181,1202,1221,1240,1262,1282,1301,1321,1341,1362,1382,1401,1421,1442,1461,1482,1501,1522,1542,1562,1582,1601,1621,1641,1661,1682,1701,1722,1741,1761,1782,1802,1821,1841,1861,1882,1901,1922,1941,1961,1981,2002,2021,2041,2062,2081,2102,2122,2142,2161,2182,2201,2221,2242,2262,2282,2301,2321,2341,2361,2381,2401,2422,2442,2462,2481,2501,2521,2541,2562,2582,2601,2622,2642,2661,2681,2701,2721,2741,2762,2781,2801,2822,2841,2862,2882,2902,2922,2941,2962,2981,3001,3022,3041,3062,3082,3101],"xSR":741.5,"ySR":481,"xT1":424.9,"yT1":0,"xT2":1058.1,"yT2":0,"toosoon":0,"cond_shown":"Congruent","ratio_trial":200,"L_num":3,"L_den":10,"R_num":14,"R_den":28,"correct_side":2,"subjID":"miguelangelpachonpinzon13","gender":"0","school":"6","age":"11"},{"start_time":1551899700089,"click_time":1551899701176,"finger_time":1551899700757,"fix_duration":530.532279476054,"trial":18,"RT":668,"MT":419,"sideResp":1,"stimulus":[],"xmouse":[819,819,819,819,819,819,819,819,819,819,819,819,819,819,819,819,819,819,819,819,819,819,819,819,819,819,819,819,819,819,819,819,805,791,709,662,620,592,571,556,552,547,544,542,541,541,541,541,541,541,541,541,539,535,523],"ymouse":[503,503,503,503,503,503,503,503,503,503,503,503,503,503,503,503,503,503,503,503,503,503,503,503,503,503,503,503,503,503,503,503,488,470,358,290,225,179,137,96,79,64,53,48,47,47,47,47,47,47,47,47,51,57,69],"timestamp_mouse":[10,27,46,67,86,108,128,148,167,187,207,228,248,267,288,307,328,348,368,387,407,428,448,468,488,506,528,548,568,588,607,628,648,668,687,707,728,747,767,787,807,827,847,868,887,907,927,947,968,987,1007,1027,1047,1068,1087],"xSR":741.5,"ySR":481,"xT1":424.9,"yT1":0,"xT2":1058.1,"yT2":0,"toosoon":0,"cond_shown":"Congruent","ratio_trial":200,"L_num":21,"L_den":30,"R_num":2,"R_den":4,"correct_side":1,"subjID":"miguelangelpachonpinzon13","gender":"0","school":"6","age":"11"},{"start_time":1551899703689,"click_time":1551899705676,"finger_time":1551899705376,"fix_duration":1450.4175928790473,"trial":19,"RT":1687,"MT":300,"sideResp":1,"stimulus":[],"xmouse":[816,816,816,816,816,816,816,816,816,816,816,816,816,816,816,816,816,813,812,812,812,812,812,812,812,812,812,812,812,812,812,812,812,812,812,812,812,812,812,812,812,812,812,812,812,812,812,812,812,812,812,812,812,812,812,812,812,812,812,812,812,812,812,812,812,812,812,812,812,812,812,812,812,812,812,812,812,812,812,812,812,807,800,785,744,726,708,687,666,636,623,610,597,583,563,550,535,521,501,482],"ymouse":[518,518,518,518,518,518,518,518,518,518,518,518,518,518,518,518,518,518,518,518,518,518,518,518,518,518,518,518,518,518,518,518,518,518,518,518,518,518,518,518,518,518,518,518,518,518,518,518,518,518,518,518,518,518,518,518,518,518,518,518,518,518,518,518,518,518,518,518,518,518,518,518,518,518,518,518,518,518,518,518,518,513,505,493,458,435,406,365,320,259,234,213,198,184,166,155,143,132,115,99],"timestamp_mouse":[14,35,47,67,87,108,128,147,168,187,208,228,247,266,287,307,327,347,367,387,408,428,447,467,487,507,528,546,568,587,607,628,647,667,688,707,728,747,768,788,808,827,846,868,888,907,928,948,967,988,1007,1028,1048,1068,1087,1107,1128,1148,1168,1188,1207,1228,1248,1267,1287,1307,1328,1348,1368,1387,1407,1427,1448,1468,1487,1507,1527,1548,1568,1587,1607,1627,1647,1668,1687,1707,1727,1747,1768,1787,1807,1827,1848,1867,1887,1906,1928,1947,1968,1987],"xSR":741.5,"ySR":481,"xT1":424.9,"yT1":0,"xT2":1058.1,"yT2":0,"toosoon":0,"cond_shown":"Congruent","ratio_trial":100,"L_num":15,"L_den":25,"R_num":13,"R_den":26,"correct_side":1,"subjID":"miguelangelpachonpinzon13","gender":"0","school":"6","age":"11"},{"start_time":1551899707249,"click_time":1551899708836,"finger_time":1551899708376,"fix_duration":250,"trial":20,"RT":1127,"MT":460,"sideResp":1,"stimulus":[],"xmouse":[829,829,829,829,829,829,829,829,829,829,829,829,829,829,829,829,829,829,829,829,829,829,829,829,829,829,829,829,829,829,829,829,829,829,829,829,829,829,829,829,829,829,829,829,829,829,829,829,829,829,829,828,815,797,776,759,733,727,719,713,704,673,655,630,606,591,565,551,543,535,530,528,528,527,524,521,517,515,513,512],"ymouse":[518,518,518,518,518,518,518,518,518,518,518,518,518,518,518,518,518,518,518,518,518,518,518,518,518,518,518,518,518,518,518,518,518,518,518,518,518,518,518,518,518,518,518,518,518,518,518,518,518,518,518,517,513,505,493,482,461,453,442,429,411,345,309,269,235,214,189,180,175,172,170,168,167,166,163,159,142,130,114,97],"timestamp_mouse":[10,27,54,66,88,107,128,148,168,188,208,227,248,268,287,307,328,347,368,387,408,428,447,467,487,507,528,547,568,587,607,627,648,668,688,708,727,747,767,788,807,827,848,866,887,908,927,947,966,988,1007,1026,1047,1068,1088,1108,1127,1148,1167,1188,1207,1227,1249,1268,1287,1308,1327,1348,1367,1387,1408,1427,1447,1467,1487,1507,1527,1547,1568,1587],"xSR":741.5,"ySR":481,"xT1":424.9,"yT1":0,"xT2":1058.1,"yT2":0,"toosoon":0,"cond_shown":"Congruent","ratio_trial":100,"L_num":10,"L_den":25,"R_num":3,"R_den":10,"correct_side":1,"subjID":"miguelangelpachonpinzon13","gender":"0","school":"6","age":"11"},{"start_time":1551899710137,"click_time":1551899711476,"finger_time":1551899711276,"fix_duration":597.6559846222252,"trial":21,"RT":1139,"MT":200,"sideResp":1,"stimulus":[],"xmouse":[802,802,802,802,802,802,802,802,802,802,802,802,802,802,802,802,802,802,802,802,802,802,802,802,802,802,802,802,802,802,802,802,802,802,802,802,802,802,802,802,802,801,798,795,794,794,794,794,794,794,794,794,788,782,777,771,763,733,720,704,686,667,617,588,562,539,523,494],"ymouse":[560,560,560,560,560,560,560,560,560,560,560,560,560,560,560,560,560,560,560,560,560,560,560,560,560,560,560,560,560,560,560,560,560,560,560,560,560,560,560,560,560,559,556,553,552,551,551,551,551,551,551,551,546,539,533,525,514,476,457,434,408,376,275,224,179,148,127,92],"timestamp_mouse":[1,19,38,60,79,100,118,139,159,179,199,219,238,259,280,300,320,339,360,380,400,419,439,460,479,499,520,540,560,579,599,619,639,659,679,699,719,738,759,780,800,819,839,859,879,899,919,939,960,980,999,1020,1039,1059,1079,1099,1119,1139,1161,1180,1199,1219,1240,1259,1279,1300,1319,1339],"xSR":741.5,"ySR":481,"xT1":424.9,"yT1":0,"xT2":1058.1,"yT2":0,"toosoon":0,"cond_shown":"Congruent","ratio_trial":200,"L_num":12,"L_den":20,"R_num":6,"R_den":15,"correct_side":1,"subjID":"miguelangelpachonpinzon13","gender":"0","school":"6","age":"11"},{"start_time":1551899712980,"click_time":1551899714477,"finger_time":1551899713336,"fix_duration":662.4630707644242,"trial":22,"RT":356,"MT":1141,"sideResp":2,"stimulus":[],"xmouse":[772,772,772,772,772,772,772,772,772,772,772,772,772,772,772,765,750,728,706,659,642,628,617,606,581,571,560,552,547,538,537,537,536,536,536,536,536,536,536,536,536,536,537,538,540,542,545,552,564,635,708,795,893,990,1169,1200,1221,1237,1244,1247,1249,1250,1249,1246,1237,1232,1226,1218,1207,1184,1180,1178,1177,1174,1150],"ymouse":[532,532,532,532,532,532,532,532,532,532,532,532,532,532,531,520,503,478,454,404,386,371,359,346,315,302,288,274,265,254,251,250,250,250,250,250,250,250,250,250,250,252,254,258,266,269,271,277,280,286,286,286,285,283,236,219,198,162,140,125,118,109,99,89,73,70,69,69,69,69,69,69,69,69,68],"timestamp_mouse":[17,45,57,77,96,117,137,156,176,195,217,237,256,277,296,317,337,356,376,396,416,436,457,476,496,517,536,557,576,596,617,636,656,677,696,717,737,757,777,796,817,837,856,877,896,916,936,957,977,996,1016,1036,1057,1077,1095,1117,1136,1156,1177,1196,1216,1236,1257,1277,1296,1317,1337,1357,1377,1396,1416,1436,1457,1476,1496],"xSR":741.5,"ySR":481,"xT1":424.9,"yT1":0,"xT2":1058.1,"yT2":0,"toosoon":0,"cond_shown":"Congruent","ratio_trial":200,"L_num":3,"L_den":10,"R_num":7,"R_den":14,"correct_side":2,"subjID":"miguelangelpachonpinzon13","gender":"0","school":"6","age":"11"},{"start_time":1551899715818,"click_time":1551899716776,"finger_time":1551899716437,"fix_duration":400.30258565638854,"trial":23,"RT":619,"MT":339,"sideResp":1,"stimulus":[],"xmouse":[825,825,825,825,825,825,825,825,825,825,825,825,825,825,825,825,825,825,825,825,825,825,825,825,825,825,825,823,809,788,762,724,709,709,708,708,708,707,703,697,683,657,619,601,576,553,537,498],"ymouse":[504,504,504,504,504,504,504,504,504,504,504,504,504,504,504,504,505,505,505,505,505,505,505,505,505,505,505,504,496,482,461,429,417,417,416,416,416,414,401,384,364,334,287,255,213,173,144,97],"timestamp_mouse":[18,39,59,78,98,118,138,159,178,199,219,239,259,279,299,318,339,358,379,398,417,439,458,479,497,519,539,558,579,599,619,637,658,679,698,719,739,758,778,799,819,839,859,879,898,918,939,958],"xSR":741.5,"ySR":481,"xT1":424.9,"yT1":0,"xT2":1058.1,"yT2":0,"toosoon":0,"cond_shown":"Incongruent","ratio_trial":200,"L_num":3,"L_den":10,"R_num":1,"R_den":2,"correct_side":2,"subjID":"miguelangelpachonpinzon13","gender":"0","school":"6","age":"11"},{"start_time":1551899757852,"click_time":1551899759641,"finger_time":1551899758941,"fix_duration":250,"trial":24,"RT":1089,"MT":700,"sideResp":1,"stimulus":[],"xmouse":[777,777,777,777,777,777,777,777,777,777,777,777,777,777,777,777,777,777,777,777,777,777,777,777,777,777,777,777,777,777,777,777,777,777,777,777,777,777,777,777,777,776,776,776,776,775,774,772,772,772,772,772,768,756,732,699,612,585,556,532,506,460,450,446,443,441,436,436,436,436,436,442,444,445,447,447,448,449,449,450,451,455,457,458,460,462,466,468,468,470],"ymouse":[529,529,529,529,529,529,529,529,529,529,529,529,529,529,529,529,529,529,529,529,529,529,529,529,529,529,529,529,529,529,529,529,529,529,529,529,529,529,529,529,529,529,529,529,528,526,525,523,523,523,523,523,519,513,499,481,434,417,399,385,367,325,315,305,292,276,237,218,199,181,158,143,136,131,126,124,120,120,118,117,116,113,111,109,107,107,104,102,101,99],"timestamp_mouse":[9,44,49,68,88,109,128,149,168,189,208,229,249,268,289,308,329,348,369,389,409,429,449,470,488,509,528,548,568,589,608,654,654,668,689,708,728,749,768,788,810,828,848,869,889,909,929,948,968,989,1009,1028,1048,1069,1089,1109,1128,1148,1169,1188,1209,1229,1248,1269,1289,1308,1328,1349,1369,1389,1409,1428,1448,1468,1488,1508,1528,1549,1568,1588,1608,1628,1648,1669,1688,1708,1728,1749,1769,1788],"xSR":741.5,"ySR":481,"xT1":424.9,"yT1":0,"xT2":1058.1,"yT2":0,"toosoon":0,"cond_shown":"Incongruent","ratio_trial":100,"L_num":2,"L_den":4,"R_num":8,"R_den":20,"correct_side":1,"subjID":"miguelangelpachonpinzon13","gender":"0","school":"6","age":"11"},{"start_time":1551899761821,"click_time":1551899763060,"finger_time":1551899762121,"fix_duration":1178.5785742546648,"trial":25,"RT":300,"MT":939,"sideResp":1,"stimulus":[],"xmouse":[797,797,797,797,797,797,797,797,797,797,797,797,797,794,792,791,790,790,790,790,790,790,790,790,790,790,790,790,790,790,790,790,790,790,790,790,790,790,784,767,740,686,610,439,403,380,374,374,374,374,374,374,374,374,374,374,374,374,374,374,374,374,450],"ymouse":[535,535,535,535,535,535,535,535,535,535,535,531,524,499,485,477,473,472,471,471,471,471,471,471,471,471,471,471,471,471,471,471,471,471,471,471,471,471,470,467,460,446,409,234,146,54,12,12,12,12,12,12,12,12,12,12,12,12,12,12,12,12,8],"timestamp_mouse":[1,21,40,60,80,100,120,139,159,180,201,219,240,259,280,300,320,339,359,380,399,420,439,459,480,499,520,539,559,579,600,619,641,659,680,700,719,740,759,779,800,819,841,859,879,900,920,939,959,979,999,1020,1040,1059,1080,1099,1120,1140,1160,1179,1200,1219,1239],"xSR":741.5,"ySR":481,"xT1":424.9,"yT1":0,"xT2":1058.1,"yT2":0,"toosoon":0,"cond_shown":"Incongruent","ratio_trial":300,"L_num":1,"L_den":2,"R_num":3,"R_den":15,"correct_side":1,"subjID":"miguelangelpachonpinzon13","gender":"0","school":"6","age":"11"},{"start_time":1551899764994,"click_time":1551899766420,"finger_time":1551899765980,"fix_duration":911.8622735172706,"trial":26,"RT":986,"MT":440,"sideResp":1,"stimulus":[],"xmouse":[800,800,800,800,800,800,800,800,800,800,800,800,800,800,800,800,800,800,800,800,800,800,800,800,800,800,800,800,800,800,800,800,800,800,800,800,800,800,800,800,800,800,800,800,800,798,794,787,775,739,715,681,643,607,553,546,543,541,541,538,538,536,535,532,522,518,513,509,505,491,485,481],"ymouse":[503,503,503,503,503,503,503,503,503,503,503,503,503,503,503,503,503,503,503,503,503,503,503,503,503,503,503,503,503,503,503,503,503,503,503,503,503,503,503,503,503,503,503,503,503,503,503,500,495,475,458,432,399,359,280,264,255,249,246,242,239,237,233,224,193,179,165,149,135,110,100,90],"timestamp_mouse":[9,41,46,66,87,106,126,147,166,186,207,226,247,267,287,306,326,347,368,387,406,427,446,467,487,507,526,547,566,586,606,628,647,666,686,707,726,746,766,786,806,826,846,867,887,906,927,947,967,986,1006,1026,1046,1067,1086,1106,1126,1147,1167,1186,1206,1227,1247,1267,1286,1306,1326,1346,1367,1386,1407,1426],"xSR":741.5,"ySR":481,"xT1":424.9,"yT1":0,"xT2":1058.1,"yT2":0,"toosoon":0,"cond_shown":"Congruent","ratio_trial":100,"L_num":2,"L_den":5,"R_num":11,"R_den":22,"correct_side":2,"subjID":"miguelangelpachonpinzon13","gender":"0","school":"6","age":"11"},{"start_time":1551899767552,"click_time":1551899768661,"finger_time":1551899768420,"fix_duration":250,"trial":27,"RT":868,"MT":241,"sideResp":2,"stimulus":[],"xmouse":[826,826,826,826,826,826,826,826,826,826,826,826,826,826,826,827,827,827,827,827,827,825,824,824,824,824,824,824,824,824,824,824,824,824,824,824,824,824,824,824,824,824,825,827,831,842,864,878,900,924,949,1017,1042,1057,1064,1068],"ymouse":[498,498,498,498,498,498,498,498,498,498,498,498,498,498,498,498,498,498,497,497,496,495,494,494,494,494,494,494,494,493,493,493,493,493,493,493,493,493,493,493,490,488,484,479,470,449,410,387,360,327,287,186,146,120,106,95],"timestamp_mouse":[10,28,48,68,88,108,128,148,168,188,208,228,248,268,288,309,328,348,368,389,409,428,448,468,488,508,528,550,569,589,609,629,648,669,688,708,729,748,768,788,809,829,849,868,889,909,928,949,969,989,1009,1029,1048,1069,1088,1109],"xSR":741.5,"ySR":481,"xT1":424.9,"yT1":0,"xT2":1058.1,"yT2":0,"toosoon":0,"cond_shown":"Incongruent","ratio_trial":300,"L_num":13,"L_den":26,"R_num":12,"R_den":15,"correct_side":2,"subjID":"miguelangelpachonpinzon13","gender":"0","school":"6","age":"11"},{"start_time":1551899769912,"click_time":1551899771461,"finger_time":1551899771241,"fix_duration":250,"trial":28,"RT":1329,"MT":220,"sideResp":2,"stimulus":[],"xmouse":[786,786,785,785,785,785,785,785,785,785,785,785,785,785,785,785,785,785,785,785,784,784,784,784,784,784,784,784,784,784,784,784,784,784,784,784,784,784,784,784,784,784,783,783,784,786,787,788,788,788,788,788,788,788,788,788,788,788,788,788,788,788,788,793,800,818,846,901,987,1016,1035,1047,1054,1061,1062,1065,1068,1078],"ymouse":[545,545,545,545,545,545,545,545,545,545,545,545,545,545,545,545,545,545,545,545,545,545,545,545,545,545,545,545,545,545,545,545,545,545,545,545,545,545,545,545,545,545,544,542,540,537,535,534,534,534,534,534,534,534,534,534,534,534,534,534,534,534,533,526,513,488,449,372,247,206,180,160,147,132,128,123,115,93],"timestamp_mouse":[8,29,49,69,88,108,129,148,168,188,209,229,249,268,288,310,328,349,370,389,409,428,448,468,489,508,528,549,568,589,610,629,649,668,689,709,729,748,768,789,808,829,848,869,889,908,929,949,969,989,1009,1029,1049,1069,1089,1109,1129,1149,1168,1188,1208,1229,1248,1268,1288,1308,1329,1349,1368,1388,1410,1429,1448,1468,1488,1508,1529,1549],"xSR":741.5,"ySR":481,"xT1":424.9,"yT1":0,"xT2":1058.1,"yT2":0,"toosoon":0,"cond_shown":"Incongruent","ratio_trial":300,"L_num":13,"L_den":26,"R_num":12,"R_den":15,"correct_side":2,"subjID":"miguelangelpachonpinzon13","gender":"0","school":"6","age":"11"},{"start_time":1551899773625,"click_time":1551899774961,"finger_time":1551899774241,"fix_duration":1343.9776560519877,"trial":29,"RT":616,"MT":720,"sideResp":1,"stimulus":[],"xmouse":[790,790,790,790,790,790,790,790,790,790,790,790,790,790,790,790,790,790,790,790,790,790,790,790,790,790,789,784,780,774,766,757,733,726,721,714,707,691,680,664,649,634,596,580,565,550,540,532,532,532,532,532,532,532,532,532,532,532,532,532,532,532,532,531,527,525,523],"ymouse":[513,513,513,513,513,513,513,513,513,513,513,513,513,513,513,513,513,513,513,513,513,513,513,513,512,511,510,504,500,490,476,456,384,349,316,295,279,255,245,240,232,224,199,184,164,136,113,94,93,93,93,93,93,93,93,93,93,93,93,93,93,93,93,92,91,91,91],"timestamp_mouse":[21,39,56,75,95,115,135,156,175,196,216,236,255,276,297,316,336,355,376,396,415,436,455,476,495,516,535,555,575,595,616,635,656,676,695,716,735,755,776,795,816,835,855,875,895,916,935,955,975,995,1016,1035,1055,1076,1095,1116,1136,1155,1176,1195,1216,1237,1255,1275,1295,1316,1336],"xSR":741.5,"ySR":481,"xT1":424.9,"yT1":0,"xT2":1058.1,"yT2":0,"toosoon":0,"cond_shown":"Congruent","ratio_trial":300,"L_num":11,"L_den":22,"R_num":1,"R_den":5,"correct_side":1,"subjID":"miguelangelpachonpinzon13","gender":"0","school":"6","age":"11"},{"start_time":1551899778302,"click_time":1551899780342,"finger_time":1551899779700,"fix_duration":601.0013057204422,"trial":30,"RT":1398,"MT":642,"sideResp":1,"stimulus":[],"xmouse":[783,783,783,783,783,783,783,783,783,783,783,783,783,783,783,781,779,776,774,773,773,773,773,773,772,772,772,772,772,772,772,772,772,772,772,772,772,772,772,772,772,771,770,755,753,751,750,750,748,747,747,747,747,747,747,747,747,747,747,747,747,747,747,747,747,748,751,759,791,806,817,825,829,835,839,844,849,852,856,856,845,823,778,637,550,463,392,349,312,309,309,309,309,312,315,329,353,383,468,488,499,501],"ymouse":[521,521,521,521,521,521,521,521,521,521,521,521,521,521,521,521,520,519,515,513,513,512,512,512,511,510,510,509,509,509,509,509,509,509,509,509,509,509,509,509,509,509,508,507,506,505,504,503,500,500,500,500,500,500,500,500,500,500,500,500,500,500,500,500,499,499,499,497,486,479,472,468,464,458,454,448,442,437,428,423,417,406,386,334,290,249,215,189,150,136,126,120,116,112,109,106,102,101,101,101,100,99],"timestamp_mouse":[19,52,58,79,98,119,138,159,179,199,219,238,259,280,298,318,338,358,378,398,419,438,460,479,499,518,539,560,578,599,619,639,658,679,699,719,738,759,779,799,819,839,859,878,898,919,938,958,978,998,1018,1038,1058,1078,1099,1120,1139,1158,1178,1199,1219,1238,1258,1278,1298,1318,1338,1358,1378,1398,1419,1439,1459,1478,1499,1518,1538,1559,1578,1598,1619,1639,1659,1678,1699,1719,1738,1760,1778,1799,1819,1839,1859,1878,1898,1918,1938,1959,1978,1999,2020,2040],"xSR":741.5,"ySR":481,"xT1":424.9,"yT1":0,"xT2":1058.1,"yT2":0,"toosoon":0,"cond_shown":"Incongruent","ratio_trial":100,"L_num":8,"L_den":16,"R_num":6,"R_den":10,"correct_side":2,"subjID":"miguelangelpachonpinzon13","gender":"0","school":"6","age":"11"},{"start_time":1551899782044,"click_time":1551899783560,"finger_time":1551899782961,"fix_duration":701.756801573136,"trial":31,"RT":917,"MT":599,"sideResp":1,"stimulus":[],"xmouse":[800,800,798,791,780,770,757,756,756,756,756,756,756,756,756,756,756,755,755,755,755,755,755,755,755,755,755,755,755,755,755,755,755,755,754,754,754,754,754,752,752,751,749,747,742,734,716,711,706,704,698,683,673,660,648,640,622,612,602,590,577,563,562,561,561,564,566,566,566,566,562,549,542,534,526,522],"ymouse":[508,501,500,499,500,505,511,512,512,512,512,512,512,512,512,512,512,513,513,513,513,513,513,513,513,513,513,513,513,513,513,513,513,513,513,513,513,513,513,513,513,512,510,506,500,490,471,463,453,446,433,414,403,390,378,368,342,328,317,305,290,271,264,257,247,232,197,173,153,138,126,108,103,96,92,90],"timestamp_mouse":[17,45,56,77,97,116,136,157,177,196,216,237,257,276,297,316,340,356,377,397,417,436,457,476,496,516,536,557,576,596,616,636,656,676,697,717,736,757,777,797,816,836,858,877,897,917,936,957,977,998,1016,1036,1056,1077,1096,1116,1136,1156,1176,1196,1216,1237,1257,1276,1297,1316,1336,1357,1377,1396,1416,1436,1457,1476,1496,1516],"xSR":741.5,"ySR":481,"xT1":424.9,"yT1":0,"xT2":1058.1,"yT2":0,"toosoon":0,"cond_shown":"Incongruent","ratio_trial":200,"L_num":7,"L_den":10,"R_num":12,"R_den":24,"correct_side":1,"subjID":"miguelangelpachonpinzon13","gender":"0","school":"6","age":"11"},{"start_time":1551899785282,"click_time":1551899792241,"finger_time":1551899787640,"fix_duration":619.0403352530614,"trial":32,"RT":2358,"MT":4601,"sideResp":1,"stimulus":[],"xmouse":[794,794,794,794,794,794,794,794,794,794,794,794,794,794,794,794,794,794,794,794,794,794,794,794,794,794,794,794,796,802,803,804,804,804,804,804,804,804,804,804,804,804,804,804,804,804,804,804,804,804,804,804,804,804,805,805,806,807,807,807,807,810,814,817,818,818,818,818,818,818,818,818,818,818,818,819,819,819,819,819,819,819,819,819,819,819,819,819,820,820,820,820,820,820,820,820,820,820,820,820,820,820,820,820,820,820,821,821,822,822,823,823,823,823,824,824,824,824,824,824,824,823,821,814,793,784,779,779,779,779,779,779,778,778,777,777,777,777,777,777,777,777,778,778,779,779,780,780,780,780,780,781,782,783,783,783,783,783,783,783,783,783,783,783,783,783,783,783,783,783,783,783,783,783,783,783,783,783,783,783,783,783,783,783,783,783,783,783,783,783,783,783,783,783,783,783,783,783,783,784,784,784,784,784,784,784,784,784,784,784,784,784,784,786,787,787,787,787,787,787,787,787,787,787,788,788,789,789,790,794,794,795,795,795,795,795,795,795,795,795,795,795,795,795,795,795,795,795,795,795,795,795,795,794,793,792,792,792,792,792,792,792,792,792,792,792,792,792,792,792,792,792,792,790,784,782,779,778,777,775,774,774,772,770,768,767,766,765,764,755,747,738,731,724,711,702,694,684,675,659,654,647,641,635,629,629,628,627,626,626,626,626,626,626,626,626,626,626,626,626,626,626,626,625,620,614,604,595,582,572,567,558,552,548,543,541,539,535,532,524,522,520,520,518,515,514,511,506],"ymouse":[508,508,508,508,508,508,508,508,508,508,508,508,508,508,508,508,508,508,508,508,508,508,508,508,508,508,508,505,501,494,493,493,493,493,493,493,493,493,493,493,493,493,493,493,493,493,493,493,493,493,493,493,493,493,493,493,493,493,493,493,492,489,486,484,483,483,483,483,483,483,483,483,483,483,483,482,482,482,482,482,482,482,482,482,482,482,482,482,482,485,487,488,488,488,488,488,488,488,488,488,488,488,488,488,488,486,486,485,485,485,484,483,483,483,482,482,482,480,479,477,476,474,474,473,473,473,473,473,473,473,473,473,474,474,475,475,475,475,476,476,477,477,477,478,479,479,480,481,481,481,481,481,482,483,483,483,483,483,483,483,483,484,484,484,484,484,484,484,484,484,484,484,484,484,484,484,484,484,484,484,484,484,484,484,484,484,484,484,484,484,484,484,484,484,484,484,484,484,484,484,484,484,484,484,484,484,484,484,484,484,484,484,484,484,484,484,484,484,484,484,484,485,487,488,490,491,492,494,496,501,502,503,504,505,507,509,510,511,512,514,514,514,514,514,514,514,514,514,514,514,514,514,514,516,517,519,519,519,519,519,519,519,519,519,519,519,519,519,519,519,519,519,520,520,518,516,513,510,503,497,495,494,492,491,488,487,486,485,484,479,475,471,465,458,434,418,403,386,371,348,340,329,321,315,310,309,308,308,307,307,307,307,307,307,307,307,307,307,307,307,307,307,307,306,289,277,263,249,230,217,210,200,193,189,180,176,172,165,157,134,125,119,113,109,104,103,100,96],"timestamp_mouse":[19,38,61,78,98,119,138,159,178,198,218,238,258,278,299,319,338,360,379,398,418,439,459,479,499,518,538,559,579,598,619,638,659,678,698,719,738,759,779,798,818,838,859,878,899,918,939,959,978,999,1019,1038,1058,1078,1099,1119,1138,1159,1179,1198,1218,1239,1259,1279,1299,1318,1339,1359,1378,1398,1418,1438,1459,1479,1499,1519,1538,1559,1578,1598,1618,1639,1658,1679,1699,1718,1738,1759,1779,1798,1818,1838,1858,1878,1899,1919,1938,1958,1978,1998,2018,2038,2059,2079,2099,2118,2139,2159,2178,2198,2218,2239,2258,2278,2298,2319,2339,2358,2379,2398,2418,2438,2458,2478,2499,2518,2538,2558,2578,2598,2619,2638,2658,2678,2698,2719,2738,2758,2779,2798,2818,2838,2858,2878,2898,2919,2939,2959,2978,2998,3019,3038,3059,3078,3099,3120,3139,3159,3179,3200,3218,3238,3260,3279,3299,3319,3338,3358,3379,3398,3418,3439,3459,3478,3498,3519,3539,3558,3578,3599,3619,3639,3659,3679,3699,3719,3738,3759,3780,3798,3818,3838,3859,3879,3898,3918,3939,3959,3979,3998,4018,4038,4059,4079,4098,4118,4138,4158,4179,4198,4219,4239,4258,4278,4298,4319,4338,4358,4378,4398,4419,4440,4458,4478,4498,4519,4538,4559,4579,4598,4619,4639,4659,4679,4698,4718,4738,4758,4779,4798,4819,4838,4858,4879,4898,4918,4939,4958,4979,4998,5019,5039,5060,5078,5098,5119,5138,5158,5178,5198,5220,5240,5259,5279,5298,5319,5339,5358,5378,5400,5419,5439,5458,5479,5498,5519,5538,5558,5578,5598,5618,5638,5659,5678,5698,5718,5739,5760,5778,5798,5818,5838,5858,5879,5898,5918,5939,5958,5978,5998,6018,6039,6058,6078,6098,6118,6138,6160,6178,6199,6219,6239,6259,6279,6298,6319,6339,6359,6380,6398,6419,6439,6459,6478,6498,6519,6539,6558,6580,6598,6619,6639,6658,6679,6698,6719,6739,6758,6778,6798,6819,6838,6859,6879,6899,6919,6938,6959],"xSR":741.5,"ySR":481,"xT1":424.9,"yT1":0,"xT2":1058.1,"yT2":0,"toosoon":0,"cond_shown":"Congruent","ratio_trial":200,"L_num":5,"L_den":10,"R_num":14,"R_den":20,"correct_side":2,"subjID":"miguelangelpachonpinzon13","gender":"0","school":"6","age":"11"},{"start_time":1551899793293,"click_time":1551899795260,"finger_time":1551899794400,"fix_duration":251.72177650421813,"trial":33,"RT":1107,"MT":860,"sideResp":1,"stimulus":[],"xmouse":[799,799,799,799,798,798,798,798,798,798,798,798,798,798,798,798,797,797,797,797,797,797,797,797,797,797,797,797,797,797,797,797,797,797,798,798,798,798,799,799,799,799,799,799,799,799,799,799,799,809,819,826,831,834,836,836,836,836,836,836,836,837,838,839,843,846,849,850,850,850,850,847,830,808,732,685,640,605,575,531,525,520,517,513,509,509,509,509,509,508,507,506,503,502,498,493,488,485,481],"ymouse":[549,549,549,549,549,549,549,549,549,549,549,549,549,549,549,549,549,549,549,549,549,549,549,549,549,549,549,549,549,549,549,548,547,546,543,542,541,540,539,538,538,538,537,537,536,536,534,533,532,517,505,495,489,484,481,480,480,480,480,480,479,476,474,471,458,452,446,444,442,442,442,441,436,431,408,391,368,346,318,252,233,215,202,191,177,173,171,169,166,156,151,147,142,137,129,120,111,101,91],"timestamp_mouse":[9,43,48,67,87,107,127,148,167,188,207,228,247,268,287,307,327,347,367,387,408,428,447,467,487,508,529,548,568,587,607,628,648,667,687,708,727,748,767,787,807,828,847,867,887,907,928,947,968,987,1008,1027,1047,1068,1087,1107,1128,1148,1168,1188,1208,1228,1247,1268,1288,1309,1328,1347,1368,1387,1407,1428,1448,1468,1487,1507,1528,1547,1568,1587,1609,1628,1647,1668,1687,1708,1728,1747,1767,1787,1808,1828,1847,1867,1887,1908,1927,1948,1967],"xSR":741.5,"ySR":481,"xT1":424.9,"yT1":0,"xT2":1058.1,"yT2":0,"toosoon":0,"cond_shown":"Incongruent","ratio_trial":100,"L_num":10,"L_den":25,"R_num":9,"R_den":18,"correct_side":2,"subjID":"miguelangelpachonpinzon13","gender":"0","school":"6","age":"11"},{"start_time":1551899797561,"click_time":1551899800421,"finger_time":1551899798480,"fix_duration":1480.0809769354712,"trial":34,"RT":919,"MT":1941,"sideResp":1,"stimulus":[],"xmouse":[767,767,767,767,767,767,767,767,767,767,767,767,767,767,767,767,767,767,767,767,767,767,767,768,773,804,815,824,828,829,829,829,829,829,829,829,829,829,829,829,829,828,823,810,783,731,698,660,624,596,574,572,571,571,567,553,545,540,538,536,531,527,522,516,507,492,485,480,479,477,476,476,476,476,476,476,479,481,485,490,498,501,501,502,502,503,503,503,503,503,503,503,503,503,503,503,503,503,503,503,503,503,503,503,503,502,502,502,502,502,502,502,502,502,502,502,502,502,502,502,503,503,503,503,503,504,505,505,506,506,506,506,506,506,506,506,506,506,507,507,507,507,507],"ymouse":[542,542,542,542,542,542,542,542,542,542,542,542,542,542,542,542,542,542,542,542,542,542,542,542,539,526,519,513,509,509,509,509,509,509,509,509,509,509,509,509,509,509,509,509,508,491,475,450,424,402,382,380,379,378,372,353,342,333,325,316,292,280,265,252,236,216,207,201,198,195,192,192,192,192,189,182,177,174,171,166,156,151,147,142,138,131,127,126,125,124,122,120,120,119,119,119,119,119,119,119,119,119,119,119,119,119,119,119,119,119,118,116,115,115,114,113,113,113,113,111,111,110,109,109,109,106,105,104,103,103,102,102,102,102,102,101,101,100,100,100,100,100,99],"timestamp_mouse":[20,39,59,80,100,120,141,161,180,200,220,239,259,281,300,320,339,360,380,400,419,439,459,479,499,519,539,559,580,600,620,640,659,680,699,719,739,759,780,799,819,839,859,880,899,919,940,960,980,1000,1019,1039,1060,1080,1099,1120,1140,1161,1180,1201,1220,1239,1259,1279,1299,1319,1339,1359,1380,1400,1419,1440,1460,1480,1500,1521,1540,1559,1580,1600,1619,1640,1659,1679,1699,1719,1739,1759,1780,1799,1819,1839,1859,1880,1899,1919,1939,1960,1979,2000,2019,2039,2060,2079,2100,2119,2139,2159,2180,2200,2220,2240,2259,2279,2300,2320,2340,2359,2380,2400,2420,2439,2459,2480,2499,2520,2539,2560,2579,2600,2619,2639,2660,2679,2699,2719,2739,2760,2780,2800,2820,2839,2860],"xSR":741.5,"ySR":481,"xT1":424.9,"yT1":0,"xT2":1058.1,"yT2":0,"toosoon":0,"cond_shown":"Congruent","ratio_trial":300,"L_num":1,"L_den":3,"R_num":19,"R_den":30,"correct_side":2,"subjID":"miguelangelpachonpinzon13","gender":"0","school":"6","age":"11"},{"start_time":1551899802097,"click_time":1551899803741,"finger_time":1551899803240,"fix_duration":372.64053473938696,"trial":35,"RT":1143,"MT":501,"sideResp":1,"stimulus":[],"xmouse":[811,811,811,811,811,811,811,811,811,811,811,811,811,811,811,811,811,811,811,811,811,812,812,812,813,813,814,814,814,814,814,814,814,814,814,814,814,814,814,814,816,817,818,818,818,818,818,818,818,812,810,806,801,795,774,760,743,724,703,646,629,618,610,604,592,578,571,562,554,550,548,546,543,538,530,527,525,524,521,515,511,506,499],"ymouse":[560,560,560,560,560,560,560,560,560,560,560,560,560,560,560,560,560,560,560,560,560,560,560,560,560,560,559,559,559,559,559,559,559,559,559,559,559,556,552,539,535,531,528,527,524,523,522,521,519,514,513,511,510,509,504,500,494,482,465,404,380,358,337,323,292,259,246,225,199,175,166,158,150,137,121,118,115,113,110,106,104,101,96],"timestamp_mouse":[12,34,43,64,84,104,123,145,164,184,205,224,244,264,284,303,323,344,363,383,403,423,444,463,483,503,525,543,563,584,604,623,643,663,683,703,723,743,763,783,803,824,843,863,883,903,923,943,964,983,1003,1024,1043,1064,1083,1104,1123,1143,1164,1183,1204,1225,1243,1264,1284,1303,1323,1344,1363,1383,1403,1423,1445,1463,1483,1503,1523,1545,1564,1583,1603,1624,1644],"xSR":741.5,"ySR":481,"xT1":424.9,"yT1":0,"xT2":1058.1,"yT2":0,"toosoon":0,"cond_shown":"Congruent","ratio_trial":100,"L_num":10,"L_den":25,"R_num":3,"R_den":10,"correct_side":1,"subjID":"miguelangelpachonpinzon13","gender":"0","school":"6","age":"11"},{"start_time":1551899808466,"click_time":1551899809761,"finger_time":1551899809280,"fix_duration":1303.7065635906342,"trial":36,"RT":814,"MT":481,"sideResp":1,"stimulus":[],"xmouse":[818,818,818,818,818,818,818,818,818,818,818,818,818,818,818,818,818,818,818,818,818,818,818,818,818,818,818,818,818,818,818,818,818,818,818,817,805,789,773,754,724,711,698,684,666,624,605,591,576,563,546,541,540,536,531,522,521,521,521,521,520,520,518,516,513],"ymouse":[531,531,531,531,531,531,531,531,531,531,531,531,531,531,531,531,531,531,531,531,531,531,531,531,531,531,531,531,531,531,531,531,531,531,531,531,531,526,521,514,497,486,474,460,433,375,346,327,306,288,255,246,236,216,189,139,128,122,117,112,108,107,103,101,98],"timestamp_mouse":[15,39,54,75,95,115,135,156,175,195,214,235,254,274,295,315,334,355,375,394,414,434,455,474,495,515,535,555,575,595,615,635,654,675,695,714,735,755,774,795,814,834,854,874,894,914,934,954,975,995,1015,1035,1054,1074,1095,1114,1135,1155,1174,1194,1214,1235,1254,1275,1295],"xSR":741.5,"ySR":481,"xT1":424.9,"yT1":0,"xT2":1058.1,"yT2":0,"toosoon":0,"cond_shown":"Incongruent","ratio_trial":300,"L_num":4,"L_den":5,"R_num":8,"R_den":16,"correct_side":1,"subjID":"miguelangelpachonpinzon13","gender":"0","school":"6","age":"11"},{"start_time":1551899810944,"click_time":1551899812020,"finger_time":1551899811480,"fix_duration":263.4704589115575,"trial":37,"RT":536,"MT":540,"sideResp":1,"stimulus":[],"xmouse":[797,797,797,797,797,797,797,797,797,797,797,797,797,797,797,797,797,797,797,797,797,797,797,796,790,766,689,643,606,574,553,531,529,527,527,527,532,535,540,543,545,546,546,546,546,546,540,538,535,534,532,529,525,521],"ymouse":[549,549,549,549,549,549,549,549,549,549,549,549,549,549,549,549,549,549,549,549,549,549,549,550,548,535,489,455,425,395,361,302,284,266,245,206,165,146,129,120,115,113,110,103,96,87,76,72,70,68,68,66,64,62],"timestamp_mouse":[16,45,57,76,97,117,137,157,177,196,216,237,256,277,296,317,336,357,377,397,417,436,458,477,497,516,536,557,576,597,616,636,656,677,697,716,736,756,776,796,816,837,856,877,897,916,937,957,976,996,1016,1037,1056,1076],"xSR":741.5,"ySR":481,"xT1":424.9,"yT1":0,"xT2":1058.1,"yT2":0,"toosoon":0,"cond_shown":"Incongruent","ratio_trial":300,"L_num":8,"L_den":10,"R_num":14,"R_den":28,"correct_side":1,"subjID":"miguelangelpachonpinzon13","gender":"0","school":"6","age":"11"},{"start_time":1551899813397,"click_time":1551899815080,"finger_time":1551899813721,"fix_duration":554.359258209397,"trial":38,"RT":324,"MT":1359,"sideResp":1,"stimulus":[],"xmouse":[756,756,756,756,756,756,756,756,756,756,756,756,756,756,756,750,735,699,652,544,520,506,496,493,487,485,484,483,482,479,479,479,483,484,487,487,488,488,489,489,490,490,491,492,496,498,499,500,502,503,503,504,504,504,504,504,504,504,504,504,504,504,504,504,504,504,504,504,504,504,504,504,504,505,506,506,506,506,506,506,506,506,507,507,507],"ymouse":[526,526,526,526,526,526,526,526,526,526,526,526,526,526,524,515,494,451,397,292,271,255,240,232,216,213,210,208,205,197,194,189,181,175,161,158,156,154,153,149,147,146,144,142,135,133,130,128,127,124,122,121,119,116,115,115,115,114,112,110,109,109,109,109,109,108,108,106,106,105,105,105,104,102,101,101,101,101,100,100,100,100,100,100,99],"timestamp_mouse":[9,38,43,63,83,105,124,144,164,184,204,225,244,264,283,304,324,345,364,384,403,424,443,464,483,504,523,544,564,583,603,624,643,664,683,704,724,744,764,783,804,824,843,863,883,903,923,944,964,983,1004,1024,1044,1063,1083,1104,1124,1143,1165,1184,1204,1223,1244,1264,1283,1303,1324,1344,1363,1383,1404,1424,1444,1464,1483,1504,1523,1543,1565,1583,1603,1624,1643,1664,1683],"xSR":741.5,"ySR":481,"xT1":424.9,"yT1":0,"xT2":1058.1,"yT2":0,"toosoon":0,"cond_shown":"Congruent","ratio_trial":300,"L_num":9,"L_den":10,"R_num":3,"R_den":5,"correct_side":1,"subjID":"miguelangelpachonpinzon13","gender":"0","school":"6","age":"11"},{"start_time":1551899820789,"click_time":1551899822283,"finger_time":1551899821961,"fix_duration":724.6097811759893,"trial":39,"RT":1172,"MT":322,"sideResp":2,"stimulus":[],"xmouse":[802,802,802,802,802,802,802,802,802,802,802,802,802,802,802,802,795,783,772,760,760,760,760,759,758,758,756,756,756,756,756,756,756,756,756,756,756,756,756,756,756,756,756,756,756,756,756,756,756,756,756,756,756,756,756,756,756,762,776,810,824,834,841,850,889,914,943,967,985,1007,1010,1012,1016,1023,1064],"ymouse":[520,520,520,520,520,520,520,520,520,520,520,520,520,520,520,520,516,508,504,499,498,498,498,498,496,496,496,496,496,496,496,496,496,496,496,496,496,496,496,496,496,496,496,496,496,496,496,496,496,496,496,496,496,496,496,496,494,488,467,389,358,335,316,294,201,149,108,76,55,32,29,29,27,23,12],"timestamp_mouse":[13,41,53,72,94,113,132,154,174,192,212,234,252,274,293,313,333,352,373,393,413,432,452,473,493,513,533,553,573,592,614,633,653,674,693,712,732,752,773,793,813,832,853,873,892,913,932,953,973,993,1012,1032,1054,1073,1094,1113,1133,1152,1172,1193,1214,1233,1253,1273,1293,1313,1333,1352,1373,1393,1412,1433,1452,1473,1493],"xSR":741.5,"ySR":481,"xT1":424.9,"yT1":0,"xT2":1058.1,"yT2":0,"toosoon":0,"cond_shown":"Congruent","ratio_trial":200,"L_num":5,"L_den":10,"R_num":14,"R_den":20,"correct_side":2,"subjID":"miguelangelpachonpinzon13","gender":"0","school":"6","age":"11"},{"start_time":1551899823788,"click_time":1551899824482,"finger_time":1551899824282,"fix_duration":523.6245773744026,"trial":40,"RT":494,"MT":200,"sideResp":1,"stimulus":[],"xmouse":[769,769,769,769,769,769,769,769,769,769,769,769,768,768,768,767,766,766,766,763,763,761,758,748,735,731,726,721,711,681,654,617,576,537,452],"ymouse":[520,520,520,520,520,520,519,519,519,519,519,519,519,519,518,517,515,514,513,507,503,500,495,484,474,470,467,461,451,417,390,351,305,243,55],"timestamp_mouse":[15,41,54,73,94,114,135,153,174,193,214,234,254,275,294,314,335,353,374,393,415,434,453,474,494,514,534,555,575,594,613,633,655,674,694],"xSR":741.5,"ySR":481,"xT1":424.9,"yT1":0,"xT2":1058.1,"yT2":0,"toosoon":0,"cond_shown":"Incongruent","ratio_trial":200,"L_num":4,"L_den":5,"R_num":6,"R_den":10,"correct_side":1,"subjID":"miguelangelpachonpinzon13","gender":"0","school":"6","age":"11"},{"start_time":1551899826102,"click_time":1551899826943,"finger_time":1551899826462,"fix_duration":479.03778255823823,"trial":41,"RT":360,"MT":481,"sideResp":1,"stimulus":[],"xmouse":[787,787,787,787,787,787,787,787,787,787,787,787,787,787,787,784,773,757,718,657,640,631,627,624,619,609,594,575,548,513,502,494,491,486,477,474,471,470,470,468,467,466,466],"ymouse":[548,548,548,548,548,548,548,548,548,548,548,548,548,548,548,543,534,520,481,413,392,376,367,358,338,319,296,263,217,174,160,152,148,144,130,125,120,118,118,114,110,104,99],"timestamp_mouse":[6,26,39,60,79,99,119,139,160,180,199,221,239,261,281,301,319,340,360,379,401,420,440,460,480,500,520,540,560,579,600,619,640,660,680,701,720,741,760,779,799,819,841],"xSR":741.5,"ySR":481,"xT1":424.9,"yT1":0,"xT2":1058.1,"yT2":0,"toosoon":0,"cond_shown":"Incongruent","ratio_trial":300,"L_num":7,"L_den":10,"R_num":8,"R_den":20,"correct_side":1,"subjID":"miguelangelpachonpinzon13","gender":"0","school":"6","age":"11"},{"start_time":1551899828759,"click_time":1551899830622,"finger_time":1551899830243,"fix_duration":1075.5716704640363,"trial":42,"RT":1484,"MT":379,"sideResp":2,"stimulus":[],"xmouse":[753,755,759,759,763,764,767,769,770,772,773,773,773,773,773,773,774,774,775,776,776,778,780,781,782,783,784,784,784,784,784,777,768,758,750,748,747,747,747,747,747,747,747,747,747,747,747,747,747,747,747,747,747,747,747,747,748,748,748,748,748,748,748,748,748,748,748,748,748,748,748,748,752,757,787,852,1076,1126,1151,1160,1163,1169,1172,1178,1183,1184,1185,1185,1184,1184,1181,1173,1163,1151],"ymouse":[565,565,563,563,561,561,559,559,559,558,557,557,557,557,557,557,557,557,556,555,555,553,551,549,547,545,542,541,540,539,537,522,511,502,496,494,493,493,493,493,493,493,493,493,493,493,493,493,493,493,493,493,493,493,493,493,494,494,494,494,494,494,494,494,494,494,494,494,494,494,494,494,494,491,470,423,255,216,197,183,169,142,130,118,105,96,85,83,83,82,82,79,79,78],"timestamp_mouse":[11,22,55,62,82,103,122,143,164,183,203,224,242,263,284,303,322,343,364,384,404,422,443,463,483,504,523,543,564,583,604,624,642,664,683,703,723,743,764,783,802,823,842,864,882,903,924,943,963,982,1002,1023,1043,1062,1083,1103,1124,1143,1164,1182,1203,1223,1242,1263,1284,1303,1322,1342,1363,1382,1403,1422,1442,1463,1484,1502,1523,1544,1563,1583,1604,1622,1642,1664,1684,1704,1723,1742,1763,1782,1802,1823,1842,1863],"xSR":741.5,"ySR":481,"xT1":424.9,"yT1":0,"xT2":1058.1,"yT2":0,"toosoon":0,"cond_shown":"Congruent","ratio_trial":200,"L_num":6,"L_den":20,"R_num":11,"R_den":22,"correct_side":2,"subjID":"miguelangelpachonpinzon13","gender":"0","school":"6","age":"11"},{"start_time":1551899832469,"click_time":1551899834081,"finger_time":1551899833202,"fix_duration":964.7793641523999,"trial":43,"RT":733,"MT":879,"sideResp":1,"stimulus":[],"xmouse":[813,813,813,813,813,813,813,813,813,813,813,813,813,813,813,813,813,813,813,813,813,813,813,813,813,813,813,813,813,813,813,813,808,802,788,743,711,680,657,645,623,614,604,594,585,579,578,577,577,577,574,572,571,570,568,568,568,568,568,566,560,558,558,555,553,544,537,528,520,511,507,507,505,502,501,496,494,492,492,492,491],"ymouse":[534,534,534,534,534,534,534,534,534,534,534,534,534,534,534,534,534,534,534,534,534,534,534,534,534,534,534,534,534,534,534,534,533,530,520,488,460,431,400,381,339,323,306,290,273,263,261,259,256,253,241,235,229,220,210,198,194,189,180,172,157,154,152,148,145,136,132,128,125,119,117,117,115,112,110,105,103,101,101,100,95],"timestamp_mouse":[13,45,54,73,92,113,132,153,174,193,213,233,254,272,294,313,334,353,373,393,414,433,452,473,493,513,534,553,572,592,612,634,654,673,692,712,733,753,772,793,812,834,853,874,893,913,933,952,972,994,1014,1033,1052,1073,1093,1112,1133,1154,1174,1192,1213,1232,1253,1272,1293,1312,1334,1354,1373,1392,1412,1433,1453,1474,1493,1512,1533,1552,1572,1593,1612],"xSR":741.5,"ySR":481,"xT1":424.9,"yT1":0,"xT2":1058.1,"yT2":0,"toosoon":0,"cond_shown":"Congruent","ratio_trial":300,"L_num":11,"L_den":22,"R_num":1,"R_den":5,"correct_side":1,"subjID":"miguelangelpachonpinzon13","gender":"0","school":"6","age":"11"},{"start_time":1551899840209,"click_time":1551899841662,"finger_time":1551899841502,"fix_duration":1126.430153592207,"trial":44,"RT":1293,"MT":160,"sideResp":1,"stimulus":[],"xmouse":[759,759,759,759,759,759,759,759,759,759,759,759,759,759,759,757,756,754,750,749,747,747,747,747,747,747,747,747,747,747,747,747,747,747,747,747,747,747,747,747,747,747,747,747,747,747,747,747,747,747,747,747,747,747,747,747,747,747,747,747,747,747,747,743,739,733,726,712,643,595,544,506,489],"ymouse":[498,498,498,498,498,498,498,498,498,498,498,498,498,498,498,495,495,493,490,489,488,488,488,488,488,488,488,488,488,488,488,488,488,488,488,488,488,488,488,488,488,488,488,488,488,488,488,488,488,488,488,488,488,488,488,488,488,488,488,488,488,488,488,484,478,467,448,416,284,215,154,111,87],"timestamp_mouse":[13,42,53,73,93,112,133,152,174,193,212,233,252,272,292,313,334,353,372,392,412,433,453,472,494,513,534,553,573,593,613,633,654,673,693,713,734,752,772,792,812,834,852,873,894,912,933,952,973,992,1013,1034,1053,1073,1093,1114,1132,1152,1172,1192,1213,1233,1253,1272,1293,1313,1333,1354,1372,1394,1412,1433,1453],"xSR":741.5,"ySR":481,"xT1":424.9,"yT1":0,"xT2":1058.1,"yT2":0,"toosoon":0,"cond_shown":"Incongruent","ratio_trial":100,"L_num":9,"L_den":18,"R_num":6,"R_den":10,"correct_side":2,"subjID":"miguelangelpachonpinzon13","gender":"0","school":"6","age":"11"},{"start_time":1551899843029,"click_time":1551899844421,"finger_time":1551899843822,"fix_duration":346.52986473419577,"trial":45,"RT":793,"MT":599,"sideResp":2,"stimulus":[],"xmouse":[792,792,792,792,792,792,792,792,792,792,792,792,792,792,792,792,792,792,792,792,792,792,792,792,792,792,792,792,792,792,792,792,792,792,792,792,792,792,795,802,809,817,824,824,824,824,824,824,824,824,824,826,890,948,1018,1018,1018,1018,1018,1018,1018,1018,1018,1018,1018,1018,1018,1018,1018,1114],"ymouse":[488,488,488,488,488,488,488,488,488,488,488,488,488,488,488,488,488,488,488,488,488,488,488,488,488,488,488,488,488,488,488,488,488,488,488,488,488,488,483,473,461,448,431,429,428,428,428,428,427,422,397,382,196,102,16,16,16,16,16,16,16,16,16,16,16,16,16,16,16,6],"timestamp_mouse":[13,32,62,73,94,113,134,152,173,193,213,233,253,273,293,313,333,352,374,393,412,433,452,472,494,512,533,554,574,594,613,632,653,674,694,714,734,753,773,793,813,834,853,872,893,914,934,953,974,994,1013,1033,1052,1072,1093,1113,1133,1154,1174,1194,1213,1233,1253,1273,1293,1313,1333,1352,1373,1392],"xSR":741.5,"ySR":481,"xT1":424.9,"yT1":0,"xT2":1058.1,"yT2":0,"toosoon":0,"cond_shown":"Congruent","ratio_trial":300,"L_num":2,"L_den":10,"R_num":12,"R_den":24,"correct_side":2,"subjID":"miguelangelpachonpinzon13","gender":"0","school":"6","age":"11"},{"start_time":1551899846199,"click_time":1551899847402,"finger_time":1551899846902,"fix_duration":357.69649273944026,"trial":46,"RT":703,"MT":500,"sideResp":1,"stimulus":[],"xmouse":[827,827,827,827,827,827,827,827,827,827,827,827,827,827,827,827,827,827,827,827,827,827,828,828,828,828,829,829,829,829,829,829,829,829,818,806,794,788,784,783,782,782,782,780,774,770,763,752,738,695,662,628,603,578,559,552,540,518,497,471,464],"ymouse":[497,497,497,497,497,497,497,497,497,497,497,497,497,497,497,497,498,498,498,498,498,498,498,498,497,497,496,496,496,496,496,496,494,493,485,479,474,472,470,469,469,469,468,466,461,457,452,441,426,387,357,321,293,262,230,216,197,169,138,100,84],"timestamp_mouse":[10,23,43,63,83,104,123,143,163,183,203,224,243,262,283,304,323,343,363,383,402,423,442,464,482,502,522,543,564,582,604,623,643,663,683,703,722,744,763,783,802,824,843,862,882,904,923,943,962,982,1002,1022,1042,1062,1082,1103,1123,1142,1163,1182,1203],"xSR":741.5,"ySR":481,"xT1":424.9,"yT1":0,"xT2":1058.1,"yT2":0,"toosoon":0,"cond_shown":"Congruent","ratio_trial":200,"L_num":20,"L_den":25,"R_num":9,"R_den":15,"correct_side":1,"subjID":"miguelangelpachonpinzon13","gender":"0","school":"6","age":"11"},{"start_time":1551899848433,"click_time":1551899850003,"finger_time":1551899849781,"fix_duration":250,"trial":47,"RT":1348,"MT":222,"sideResp":1,"stimulus":[],"xmouse":[812,812,812,812,812,812,812,812,812,812,812,812,812,812,812,812,812,812,812,812,812,812,812,812,812,812,812,812,812,812,812,812,812,812,812,812,812,812,812,812,812,812,812,812,812,812,812,812,812,812,812,812,812,812,812,812,812,812,812,812,811,810,802,793,781,765,746,700,675,656,644,630,603,589,575,552,527,501,498],"ymouse":[533,533,533,533,533,533,533,533,533,533,533,533,533,533,533,533,533,533,533,533,533,533,533,533,533,533,533,533,533,533,533,533,533,533,533,533,533,533,533,533,533,533,533,533,533,533,533,533,533,533,533,533,533,533,533,533,533,533,533,533,533,532,526,522,515,504,489,449,419,396,375,348,299,275,253,211,166,101,88],"timestamp_mouse":[13,28,50,68,88,109,130,149,169,190,208,228,250,268,289,309,328,350,368,388,410,429,449,470,489,510,530,549,570,590,609,629,648,669,690,710,730,749,768,789,810,829,850,870,888,909,930,949,970,988,1008,1029,1050,1068,1088,1110,1129,1149,1169,1189,1209,1229,1248,1268,1288,1309,1329,1348,1369,1388,1409,1428,1448,1469,1489,1508,1529,1548,1569],"xSR":741.5,"ySR":481,"xT1":424.9,"yT1":0,"xT2":1058.1,"yT2":0,"toosoon":0,"cond_shown":"Incongruent","ratio_trial":100,"L_num":11,"L_den":22,"R_num":9,"R_den":15,"correct_side":2,"subjID":"miguelangelpachonpinzon13","gender":"0","school":"6","age":"11"},{"start_time":1551899857365,"click_time":1551899859222,"finger_time":1551899858621,"fix_duration":1481.7878214694138,"trial":48,"RT":1256,"MT":601,"sideResp":2,"stimulus":[],"xmouse":[792,792,792,792,792,792,792,792,792,792,792,792,792,792,792,792,792,792,792,792,792,792,792,792,792,792,792,792,792,792,792,792,792,792,792,792,792,792,792,792,792,792,792,792,792,792,792,792,794,796,799,801,805,812,814,823,825,826,828,829,834,838,845,851,858,865,870,875,882,895,928,946,961,973,980,983,986,989,995,999,1012,1015,1016,1018,1021,1026,1029,1035,1043,1053,1074,1080,1083],"ymouse":[542,542,542,542,542,542,542,542,542,542,542,542,542,542,542,542,542,542,542,542,542,542,542,542,542,542,542,542,542,542,542,542,542,542,542,542,542,542,542,542,542,542,542,542,542,542,542,539,536,535,533,531,529,524,523,518,517,516,515,514,510,506,498,494,489,485,482,477,471,462,433,404,379,362,348,340,336,327,317,310,290,285,283,280,277,272,269,257,239,218,155,116,85],"timestamp_mouse":[18,37,57,77,97,118,136,157,176,197,218,237,257,278,297,316,337,357,378,397,417,437,456,477,497,516,536,556,576,596,618,637,656,677,696,718,738,757,777,798,817,838,857,876,896,916,937,958,977,997,1016,1036,1057,1077,1098,1116,1136,1158,1176,1197,1217,1237,1256,1278,1296,1317,1337,1357,1377,1397,1417,1437,1456,1477,1497,1516,1536,1557,1577,1597,1617,1638,1656,1677,1697,1716,1737,1757,1777,1797,1817,1836,1856],"xSR":741.5,"ySR":481,"xT1":424.9,"yT1":0,"xT2":1058.1,"yT2":0,"toosoon":0,"cond_shown":"Congruent","ratio_trial":300,"L_num":1,"L_den":5,"R_num":11,"R_den":22,"correct_side":2,"subjID":"miguelangelpachonpinzon13","gender":"0","school":"6","age":"11"},{"start_time":1551899860588,"click_time":1551899862363,"finger_time":1551899861962,"fix_duration":505.9983141778127,"trial":49,"RT":1374,"MT":401,"sideResp":2,"stimulus":[],"xmouse":[780,780,780,780,780,780,780,780,780,780,780,780,780,780,780,780,780,780,780,780,780,780,780,780,780,780,780,780,780,780,780,780,780,780,780,780,780,780,780,780,780,780,780,780,780,780,780,780,780,780,780,780,780,780,780,780,780,780,780,780,780,780,780,780,780,780,785,809,850,984,1046,1087,1109,1119,1122,1122,1122,1123,1123,1124,1124,1124,1120,1110,1092,1081,1075,1070,1067],"ymouse":[538,538,538,538,538,538,538,538,538,538,538,538,538,538,538,538,538,538,538,538,538,538,538,538,538,538,538,538,538,538,538,538,538,538,538,538,538,538,538,538,538,538,538,538,538,538,538,538,538,538,538,538,538,538,538,538,538,538,538,538,538,538,538,538,538,538,529,501,455,322,263,225,206,193,185,185,183,181,176,167,163,161,159,155,140,128,119,107,99],"timestamp_mouse":[14,42,53,73,95,114,133,154,175,194,215,234,254,274,294,315,334,353,374,394,414,434,453,474,494,513,534,554,573,595,615,635,653,673,693,715,734,753,773,793,815,835,855,873,893,913,935,954,973,993,1013,1034,1054,1075,1094,1115,1134,1154,1173,1193,1214,1235,1254,1273,1294,1313,1333,1354,1374,1394,1414,1433,1454,1473,1494,1514,1534,1555,1574,1595,1614,1633,1655,1675,1695,1714,1734,1753,1775],"xSR":741.5,"ySR":481,"xT1":424.9,"yT1":0,"xT2":1058.1,"yT2":0,"toosoon":0,"cond_shown":"Congruent","ratio_trial":100,"L_num":4,"L_den":8,"R_num":6,"R_den":10,"correct_side":2,"subjID":"miguelangelpachonpinzon13","gender":"0","school":"6","age":"11"},{"start_time":1551899863808,"click_time":1551899864901,"finger_time":1551899864342,"fix_duration":484.28534909660016,"trial":50,"RT":534,"MT":559,"sideResp":1,"stimulus":[],"xmouse":[805,805,805,805,805,805,805,805,805,804,804,804,804,804,804,804,804,804,804,804,802,797,795,773,760,748,735,721,696,685,675,666,651,629,617,605,593,583,569,564,561,560,559,557,557,557,557,557,557,555,551,546,530,521,514],"ymouse":[521,521,521,521,521,521,521,521,521,522,522,522,522,522,522,522,522,522,522,522,521,517,516,500,491,482,472,462,443,434,424,410,382,330,308,290,272,255,227,217,208,200,193,177,172,167,162,157,146,141,136,130,118,105,88],"timestamp_mouse":[20,38,54,73,94,114,135,153,175,193,214,234,253,273,294,314,334,354,373,393,414,435,454,473,493,513,534,554,574,593,614,634,653,674,695,714,734,755,773,794,813,834,853,873,895,914,935,954,973,995,1015,1034,1056,1073,1093],"xSR":741.5,"ySR":481,"xT1":424.9,"yT1":0,"xT2":1058.1,"yT2":0,"toosoon":0,"cond_shown":"Congruent","ratio_trial":100,"L_num":11,"L_den":22,"R_num":4,"R_den":10,"correct_side":1,"subjID":"miguelangelpachonpinzon13","gender":"0","school":"6","age":"11"},{"start_time":1551899867296,"click_time":1551899870642,"finger_time":1551899868062,"fix_duration":1473.590433259224,"trial":51,"RT":766,"MT":2580,"sideResp":1,"stimulus":[],"xmouse":[805,805,805,805,805,805,805,805,805,805,805,805,805,805,805,805,805,805,805,805,805,805,805,805,805,805,805,805,805,805,805,805,805,805,801,789,771,751,725,699,686,673,656,638,616,613,613,613,615,617,617,617,617,613,600,592,588,583,575,565,561,558,556,554,551,548,544,540,537,528,524,519,514,508,499,499,498,497,496,496,496,496,496,496,496,497,498,498,498,498,498,498,498,498,498,498,498,502,502,533,538,540,546,564,577,577,577,577,577,577,577,577,577,577,577,577,577,577,577,577,577,577,577,577,577,577,577,577,577,577,577,569,564,559,546,533,519,507,494,473,471,471,471,471,471,470,470,471,474,475,476,481,483,484,485,485,485,485,485,485,485,485,485,486,486,486,484,484],"ymouse":[553,553,553,553,553,553,553,553,553,553,553,553,553,553,553,553,553,553,553,553,553,553,553,553,553,553,553,553,553,553,553,553,553,553,552,552,552,552,552,540,530,515,495,474,444,434,419,403,385,370,356,340,324,307,277,267,256,246,233,218,212,207,202,196,186,181,176,172,169,161,158,152,146,138,127,125,123,122,120,117,116,114,113,113,112,110,109,109,109,108,108,108,108,108,108,108,108,105,105,85,82,82,82,85,90,90,90,90,90,90,90,90,90,90,90,90,90,90,90,90,90,90,90,90,90,90,90,90,90,90,90,87,87,88,96,105,115,120,125,133,133,133,133,133,133,133,133,128,124,123,121,120,118,117,116,116,116,116,116,116,116,116,116,115,113,109,105,99],"timestamp_mouse":[12,30,46,65,87,107,126,146,166,187,206,225,245,267,287,306,325,346,366,386,405,425,447,467,486,506,526,546,567,585,606,625,647,665,685,706,727,747,766,785,805,826,847,865,887,906,925,945,965,986,1006,1025,1046,1065,1085,1105,1127,1147,1167,1186,1207,1225,1246,1265,1285,1307,1326,1345,1365,1385,1405,1425,1445,1465,1486,1505,1526,1546,1565,1585,1606,1625,1645,1666,1687,1706,1726,1747,1766,1786,1806,1826,1845,1866,1886,1907,1927,1946,1967,1986,2005,2025,2046,2065,2086,2106,2125,2147,2166,2186,2207,2226,2246,2266,2287,2306,2326,2347,2366,2385,2407,2426,2446,2468,2486,2505,2525,2546,2566,2586,2605,2627,2646,2666,2685,2706,2727,2746,2766,2785,2807,2827,2846,2866,2886,2905,2926,2947,2967,2986,3006,3025,3046,3066,3085,3106,3126,3146,3166,3186,3207,3226,3245,3266,3285,3306,3327,3346],"xSR":741.5,"ySR":481,"xT1":424.9,"yT1":0,"xT2":1058.1,"yT2":0,"toosoon":0,"cond_shown":"Congruent","ratio_trial":300,"L_num":11,"L_den":22,"R_num":1,"R_den":5,"correct_side":1,"subjID":"miguelangelpachonpinzon13","gender":"0","school":"6","age":"11"},{"start_time":1551899872519,"click_time":1551899874003,"finger_time":1551899873681,"fix_duration":535.114636559142,"trial":52,"RT":1162,"MT":322,"sideResp":2,"stimulus":[],"xmouse":[796,796,796,796,796,796,796,796,796,796,796,796,796,796,796,796,796,796,796,796,796,796,796,796,796,796,796,796,796,796,796,796,795,795,794,794,794,794,792,792,791,791,790,788,787,785,784,784,782,781,781,780,780,778,778,778,779,788,819,828,840,852,863,893,91