[{"start_time":1551900425519,"click_time":1551900427024,"finger_time":1551900426704,"fix_duration":770.9756171822036,"trial":0,"RT":1185,"MT":320,"sideResp":2,"stimulus":"img/750/equaldotanddens/R/2_Ratio_750_L_6_R_8.png","xmouse":[774,774,774,785,785,785,785,785,785,785,785,785,785,785,785,785,785,785,785,785,785,785,785,785,785,785,785,785,785,785,785,785,785,785,785,785,785,785,785,785,785,785,785,785,785,785,785,785,785,785,785,785,785,785,785,787,789,802,816,868,910,951,983,1007,1036,1049,1065,1068,1079,1092,1095,1097,1098,1100,1102,1102],"ymouse":[496,496,496,496,496,496,496,496,496,496,496,496,496,496,496,496,496,496,496,496,496,496,496,496,496,496,496,496,496,496,496,496,496,496,496,496,496,496,496,496,496,496,496,496,496,496,496,496,496,496,496,496,496,496,496,496,495,492,487,463,442,419,401,382,336,309,268,255,221,184,171,158,140,121,103,98],"timestamp_mouse":[9,42,47,67,87,106,126,146,166,186,207,225,246,266,287,307,326,347,365,385,406,427,446,465,485,507,526,547,566,585,606,627,646,667,685,706,727,745,766,785,807,826,846,865,885,905,926,947,966,986,1005,1025,1046,1066,1087,1107,1125,1145,1166,1185,1206,1225,1246,1265,1286,1305,1327,1346,1366,1386,1406,1425,1446,1466,1485,1505],"xSR":741.5,"ySR":481,"xT1":424.9,"yT1":0,"xT2":1058.1,"yT2":0,"toosoon":0,"cond_shown":"equaldotanddens","ratio_trial":750,"smaller_num":"6","larger_num":"8","correct_side":2,"subjID":"miguelangelpachonpinzon","gender":"0","age":"11","school":"6","test":{"fix_dur":[250,1500],"timestim":300,"targets_dim":[100,100],"targets_relative_coord":[0.3,0.7],"size_stim":[880,420],"start_dim":[100,100],"size_start":[300,300],"size_fix":60,"samplingrate":20,"img_types":["equaldotsize","equaldotanddens","randomdotsizeEA"],"ratios":[250,500,750,900],"rep_conds":9,"nTrials":120,"trials_to_rest":500,"Trials_order":[79,35,109,63,0,69,40,12,10,110,21,88,60,26,119,11,86,19,48,75,34,32,65,64,6,3,107,67,29,113,103,20,87,14,36,5,25,15,100,101,16,8,13,39,41,43,44,78,51,97,91,95,68,1,4,66,82,93,53,73,57,45,106,92,94,50,96,116,85,117,118,71,9,55,90,37,72,115,52,114,70,61,49,105,104,102,81,18,80,99,84,47,56,77,98,24,112,28,17,7,2,58,42,31,76,83,89,108,30,33,38,111,27,54,62,46,59,23,74,22],"cond_shown":["equaldotanddens","randomdotsizeEA","equaldotanddens","equaldotsize","equaldotsize","equaldotsize","equaldotanddens","equaldotsize","equaldotanddens","randomdotsizeEA","equaldotsize","equaldotanddens","equaldotsize","randomdotsizeEA","randomdotsizeEA","randomdotsizeEA","randomdotsizeEA","equaldotanddens","equaldotsize","equaldotsize","equaldotanddens","randomdotsizeEA","randomdotsizeEA","equaldotanddens","equaldotsize","equaldotsize","randomdotsizeEA","equaldotanddens","randomdotsizeEA","randomdotsizeEA","equaldotanddens","randomdotsizeEA","equaldotsize","randomdotsizeEA","equaldotsize","randomdotsizeEA","equaldotanddens","equaldotsize","equaldotanddens","randomdotsizeEA","equaldotanddens","randomdotsizeEA","equaldotanddens","equaldotsize","randomdotsizeEA","equaldotanddens","randomdotsizeEA","equaldotsize","equaldotsize","equaldotanddens","equaldotanddens","randomdotsizeEA","randomdotsizeEA","equaldotanddens","equaldotanddens","equaldotsize","equaldotanddens","equaldotsize","randomdotsizeEA","equaldotanddens","equaldotsize","equaldotsize","equaldotanddens","randomdotsizeEA","equaldotanddens","randomdotsizeEA","equaldotsize","randomdotsizeEA","equaldotanddens","equaldotsize","equaldotanddens","randomdotsizeEA","equaldotsize","equaldotanddens","equaldotsize","equaldotanddens","equaldotsize","equaldotanddens","equaldotanddens","equaldotsize","equaldotanddens","equaldotanddens","equaldotanddens","equaldotsize","randomdotsizeEA","equaldotsize","equaldotsize","equaldotsize","randomdotsizeEA","equaldotsize","equaldotsize","randomdotsizeEA","randomdotsizeEA","randomdotsizeEA","randomdotsizeEA","equaldotsize","equaldotanddens","equaldotanddens","randomdotsizeEA","equaldotanddens","randomdotsizeEA","equaldotanddens","equaldotsize","equaldotanddens","equaldotanddens","randomdotsizeEA","randomdotsizeEA","equaldotsize","equaldotsize","equaldotsize","randomdotsizeEA","equaldotsize","equaldotsize","equaldotsize","randomdotsizeEA","equaldotanddens","randomdotsizeEA","randomdotsizeEA","randomdotsizeEA","equaldotanddens"],"ratio_trial":[750,900,250,500,250,900,500,250,900,250,900,500,250,250,900,900,250,750,250,500,900,750,500,500,750,500,900,750,500,500,750,750,500,250,250,500,250,500,500,500,500,750,250,500,500,750,750,750,500,250,750,900,750,250,500,750,900,900,500,250,900,900,900,750,900,250,250,750,250,900,900,900,900,750,750,250,250,750,500,750,900,250,250,900,750,750,900,750,750,500,250,900,750,500,250,250,500,500,500,750,250,900,750,750,500,900,500,250,750,900,250,500,500,750,250,900,900,900,250,900],"smaller_num":["6","18","2","9","3","18","9","1","18","3","18","1","3","3","9","9","1","3","2","9","18","3","10","2","3","5","9","6","9","6","15","3","6","4","2","5","3","4","4","6","9","3","2","9","6","6","18","3","6","3","6","9","3","2","6","9","9","9","9","3","18","18","9","3","9","2","1","9","3","18","9","9","18","3","9","6","4","3","9","15","18","6","6","18","15","3","9","15","6","9","4","18","6","5","2","2","9","9","4","15","2","18","3","3","5","9","2","5","18","9","6","1","9","15","4","18","9","9","4","18"],"larger_num":["8","20","8","18","12","20","18","4","20","12","20","2","12","12","10","10","4","4","8","18","20","4","20","4","4","10","10","8","18","12","20","4","12","16","8","10","12","8","8","12","18","4","8","18","12","8","24","4","12","12","8","10","4","8","12","12","10","10","18","12","20","20","10","4","10","8","4","12","12","20","10","10","20","4","12","24","16","4","18","20","20","24","24","20","20","4","10","20","8","18","16","20","8","10","8","8","18","18","8","20","8","20","4","4","10","10","4","20","24","10","24","2","18","20","16","20","10","10","16","20"],"correct_side":[2,2,1,2,2,2,2,2,2,2,1,2,1,1,2,1,2,1,1,2,1,2,2,1,1,1,1,1,2,1,2,1,1,1,1,2,2,1,1,1,2,2,1,1,1,1,1,1,1,2,1,2,1,1,1,2,2,2,1,2,1,2,2,2,2,1,2,2,2,1,2,1,1,2,2,1,2,1,1,1,1,1,2,2,2,1,2,2,1,2,1,2,1,1,1,1,1,1,1,2,1,2,1,1,2,2,2,2,1,1,2,2,2,2,2,1,2,2,2,1],"img_shown":["img/750/equaldotanddens/R/2_Ratio_750_L_6_R_8.png","img/900/randomdotsizeEA/R/14_Ratio_900_L_18_R_20.png","img/250/equaldotanddens/L/3_Ratio_250_L_8_R_2.png","img/500/equaldotsize/R/6_Ratio_500_L_9_R_18.png","img/250/equaldotsize/R/4_Ratio_250_L_3_R_12.png","img/900/equaldotsize/R/11_Ratio_900_L_18_R_20.png","img/500/equaldotanddens/R/6_Ratio_500_L_9_R_18.png","img/250/equaldotsize/R/8_Ratio_250_L_1_R_4.png","img/900/equaldotanddens/R/13_Ratio_900_L_18_R_20.png","img/250/randomdotsizeEA/R/4_Ratio_250_L_3_R_12.png","img/900/equaldotsize/L/8_Ratio_900_L_20_R_18.png","img/500/equaldotanddens/R/12_Ratio_500_L_1_R_2.png","img/250/equaldotsize/L/15_Ratio_250_L_12_R_3.png","img/250/randomdotsizeEA/L/14_Ratio_250_L_12_R_3.png","img/900/randomdotsizeEA/R/7_Ratio_900_L_9_R_10.png","img/900/randomdotsizeEA/L/1_Ratio_900_L_10_R_9.png","img/250/randomdotsizeEA/R/8_Ratio_250_L_1_R_4.png","img/750/equaldotanddens/L/9_Ratio_750_L_4_R_3.png","img/250/equaldotsize/L/1_Ratio_250_L_8_R_2.png","img/500/equaldotsize/R/6_Ratio_500_L_9_R_18.png","img/900/equaldotanddens/L/10_Ratio_900_L_20_R_18.png","img/750/randomdotsizeEA/R/12_Ratio_750_L_3_R_4.png","img/500/randomdotsizeEA/R/3_Ratio_500_L_10_R_20.png","img/500/equaldotanddens/L/5_Ratio_500_L_4_R_2.png","img/750/equaldotsize/L/10_Ratio_750_L_4_R_3.png","img/500/equaldotsize/L/7_Ratio_500_L_10_R_5.png","img/900/randomdotsizeEA/L/1_Ratio_900_L_10_R_9.png","img/750/equaldotanddens/L/14_Ratio_750_L_8_R_6.png","img/500/randomdotsizeEA/R/6_Ratio_500_L_9_R_18.png","img/500/randomdotsizeEA/L/11_Ratio_500_L_12_R_6.png","img/750/equaldotanddens/R/4_Ratio_750_L_15_R_20.png","img/750/randomdotsizeEA/L/10_Ratio_750_L_4_R_3.png","img/500/equaldotsize/L/13_Ratio_500_L_12_R_6.png","img/250/randomdotsizeEA/L/2_Ratio_250_L_16_R_4.png","img/250/equaldotsize/L/1_Ratio_250_L_8_R_2.png","img/500/randomdotsizeEA/R/14_Ratio_500_L_5_R_10.png","img/250/equaldotanddens/R/11_Ratio_250_L_3_R_12.png","img/500/equaldotsize/L/8_Ratio_500_L_8_R_4.png","img/500/equaldotanddens/L/8_Ratio_500_L_8_R_4.png","img/500/randomdotsizeEA/L/11_Ratio_500_L_12_R_6.png","img/500/equaldotanddens/R/6_Ratio_500_L_9_R_18.png","img/750/randomdotsizeEA/R/7_Ratio_750_L_3_R_4.png","img/250/equaldotanddens/L/3_Ratio_250_L_8_R_2.png","img/500/equaldotsize/L/4_Ratio_500_L_18_R_9.png","img/500/randomdotsizeEA/L/11_Ratio_500_L_12_R_6.png","img/750/equaldotanddens/L/13_Ratio_750_L_8_R_6.png","img/750/randomdotsizeEA/L/6_Ratio_750_L_24_R_18.png","img/750/equaldotsize/L/9_Ratio_750_L_4_R_3.png","img/500/equaldotsize/L/11_Ratio_500_L_12_R_6.png","img/250/equaldotanddens/R/4_Ratio_250_L_3_R_12.png","img/750/equaldotanddens/L/13_Ratio_750_L_8_R_6.png","img/900/randomdotsizeEA/R/5_Ratio_900_L_9_R_10.png","img/750/randomdotsizeEA/L/8_Ratio_750_L_4_R_3.png","img/250/equaldotanddens/L/1_Ratio_250_L_8_R_2.png","img/500/equaldotanddens/L/11_Ratio_500_L_12_R_6.png","img/750/equaldotsize/R/15_Ratio_750_L_9_R_12.png","img/900/equaldotanddens/R/15_Ratio_900_L_9_R_10.png","img/900/equaldotsize/R/6_Ratio_900_L_9_R_10.png","img/500/randomdotsizeEA/L/4_Ratio_500_L_18_R_9.png","img/250/equaldotanddens/R/4_Ratio_250_L_3_R_12.png","img/900/equaldotsize/L/4_Ratio_900_L_20_R_18.png","img/900/equaldotsize/R/12_Ratio_900_L_18_R_20.png","img/900/equaldotanddens/R/3_Ratio_900_L_9_R_10.png","img/750/randomdotsizeEA/R/12_Ratio_750_L_3_R_4.png","img/900/equaldotanddens/R/5_Ratio_900_L_9_R_10.png","img/250/randomdotsizeEA/L/7_Ratio_250_L_8_R_2.png","img/250/equaldotsize/R/8_Ratio_250_L_1_R_4.png","img/750/randomdotsizeEA/R/15_Ratio_750_L_9_R_12.png","img/250/equaldotanddens/R/4_Ratio_250_L_3_R_12.png","img/900/equaldotsize/L/8_Ratio_900_L_20_R_18.png","img/900/equaldotanddens/R/7_Ratio_900_L_9_R_10.png","img/900/randomdotsizeEA/L/1_Ratio_900_L_10_R_9.png","img/900/equaldotsize/L/8_Ratio_900_L_20_R_18.png","img/750/equaldotanddens/R/12_Ratio_750_L_3_R_4.png","img/750/equaldotsize/R/15_Ratio_750_L_9_R_12.png","img/250/equaldotanddens/L/5_Ratio_250_L_24_R_6.png","img/250/equaldotsize/R/10_Ratio_250_L_4_R_16.png","img/750/equaldotanddens/L/10_Ratio_750_L_4_R_3.png","img/500/equaldotanddens/L/4_Ratio_500_L_18_R_9.png","img/750/equaldotsize/L/1_Ratio_750_L_20_R_15.png","img/900/equaldotanddens/L/2_Ratio_900_L_20_R_18.png","img/250/equaldotanddens/L/5_Ratio_250_L_24_R_6.png","img/250/equaldotanddens/R/6_Ratio_250_L_6_R_24.png","img/900/equaldotsize/R/11_Ratio_900_L_18_R_20.png","img/750/randomdotsizeEA/R/3_Ratio_750_L_15_R_20.png","img/750/equaldotsize/L/10_Ratio_750_L_4_R_3.png","img/900/equaldotsize/R/6_Ratio_900_L_9_R_10.png","img/750/equaldotsize/R/5_Ratio_750_L_15_R_20.png","img/750/randomdotsizeEA/L/13_Ratio_750_L_8_R_6.png","img/500/equaldotsize/R/6_Ratio_500_L_9_R_18.png","img/250/equaldotsize/L/2_Ratio_250_L_16_R_4.png","img/900/randomdotsizeEA/R/14_Ratio_900_L_18_R_20.png","img/750/randomdotsizeEA/L/13_Ratio_750_L_8_R_6.png","img/500/randomdotsizeEA/L/7_Ratio_500_L_10_R_5.png","img/250/randomdotsizeEA/L/7_Ratio_250_L_8_R_2.png","img/250/equaldotsize/L/7_Ratio_250_L_8_R_2.png","img/500/equaldotanddens/L/4_Ratio_500_L_18_R_9.png","img/500/equaldotanddens/L/4_Ratio_500_L_18_R_9.png","img/500/randomdotsizeEA/L/8_Ratio_500_L_8_R_4.png","img/750/equaldotanddens/R/4_Ratio_750_L_15_R_20.png","img/250/randomdotsizeEA/L/3_Ratio_250_L_8_R_2.png","img/900/equaldotanddens/R/9_Ratio_900_L_18_R_20.png","img/750/equaldotsize/L/8_Ratio_750_L_4_R_3.png","img/750/equaldotanddens/L/8_Ratio_750_L_4_R_3.png","img/500/equaldotanddens/R/14_Ratio_500_L_5_R_10.png","img/900/randomdotsizeEA/R/7_Ratio_900_L_9_R_10.png","img/500/randomdotsizeEA/R/9_Ratio_500_L_2_R_4.png","img/250/equaldotsize/R/12_Ratio_250_L_5_R_20.png","img/750/equaldotsize/L/6_Ratio_750_L_24_R_18.png","img/900/equaldotsize/L/1_Ratio_900_L_10_R_9.png","img/250/randomdotsizeEA/R/6_Ratio_250_L_6_R_24.png","img/500/equaldotsize/R/12_Ratio_500_L_1_R_2.png","img/500/equaldotsize/R/1_Ratio_500_L_9_R_18.png","img/750/equaldotsize/R/5_Ratio_750_L_15_R_20.png","img/250/randomdotsizeEA/R/10_Ratio_250_L_4_R_16.png","img/900/equaldotanddens/L/2_Ratio_900_L_20_R_18.png","img/900/randomdotsizeEA/R/15_Ratio_900_L_9_R_10.png","img/900/randomdotsizeEA/R/15_Ratio_900_L_9_R_10.png","img/250/randomdotsizeEA/R/10_Ratio_250_L_4_R_16.png","img/900/equaldotanddens/L/4_Ratio_900_L_20_R_18.png"],"Rat0":[["12_Ratio_0_L_9_R_0.png","13_Ratio_0_L_6_R_0.png","5_Ratio_0_L_2_R_0.png","6_Ratio_0_L_4_R_0.png","8_Ratio_0_L_6_R_0.png"],["1_Ratio_0_L_0_R_17.png","10_Ratio_0_L_0_R_22.png","11_Ratio_0_L_0_R_1.png","14_Ratio_0_L_0_R_24.png","15_Ratio_0_L_0_R_4.png","2_Ratio_0_L_0_R_5.png","3_Ratio_0_L_0_R_17.png","4_Ratio_0_L_0_R_7.png","7_Ratio_0_L_0_R_19.png","9_Ratio_0_L_0_R_15.png"]],"Rat250":[["1_Ratio_250_L_8_R_2.png","14_Ratio_250_L_12_R_3.png","15_Ratio_250_L_12_R_3.png","2_Ratio_250_L_16_R_4.png","3_Ratio_250_L_8_R_2.png","5_Ratio_250_L_24_R_6.png","7_Ratio_250_L_8_R_2.png"],["10_Ratio_250_L_4_R_16.png","11_Ratio_250_L_3_R_12.png","12_Ratio_250_L_5_R_20.png","13_Ratio_250_L_2_R_8.png","4_Ratio_250_L_3_R_12.png","6_Ratio_250_L_6_R_24.png","8_Ratio_250_L_1_R_4.png","9_Ratio_250_L_3_R_12.png"]],"Rat500":[["10_Ratio_500_L_4_R_2.png","11_Ratio_500_L_12_R_6.png","13_Ratio_500_L_12_R_6.png","4_Ratio_500_L_18_R_9.png","5_Ratio_500_L_4_R_2.png","7_Ratio_500_L_10_R_5.png","8_Ratio_500_L_8_R_4.png"],["1_Ratio_500_L_9_R_18.png","12_Ratio_500_L_1_R_2.png","14_Ratio_500_L_5_R_10.png","15_Ratio_500_L_1_R_2.png","2_Ratio_500_L_3_R_6.png","3_Ratio_500_L_10_R_20.png","6_Ratio_500_L_9_R_18.png","9_Ratio_500_L_2_R_4.png"]],"Rat750":[["1_Ratio_750_L_20_R_15.png","10_Ratio_750_L_4_R_3.png","13_Ratio_750_L_8_R_6.png","14_Ratio_750_L_8_R_6.png","6_Ratio_750_L_24_R_18.png","8_Ratio_750_L_4_R_3.png","9_Ratio_750_L_4_R_3.png"],["11_Ratio_750_L_12_R_16.png","12_Ratio_750_L_3_R_4.png","15_Ratio_750_L_9_R_12.png","2_Ratio_750_L_6_R_8.png","3_Ratio_750_L_15_R_20.png","4_Ratio_750_L_15_R_20.png","5_Ratio_750_L_15_R_20.png","7_Ratio_750_L_3_R_4.png"]],"Rat900":[["1_Ratio_900_L_10_R_9.png","10_Ratio_900_L_20_R_18.png","2_Ratio_900_L_20_R_18.png","4_Ratio_900_L_20_R_18.png","8_Ratio_900_L_20_R_18.png"],["11_Ratio_900_L_18_R_20.png","12_Ratio_900_L_18_R_20.png","13_Ratio_900_L_18_R_20.png","14_Ratio_900_L_18_R_20.png","15_Ratio_900_L_9_R_10.png","3_Ratio_900_L_9_R_10.png","5_Ratio_900_L_9_R_10.png","6_Ratio_900_L_9_R_10.png","7_Ratio_900_L_9_R_10.png","9_Ratio_900_L_18_R_20.png"]],"Rat1000":[["10_Ratio_1000_L_16_R_16.png","11_Ratio_1000_L_6_R_6.png","12_Ratio_1000_L_14_R_14.png","13_Ratio_1000_L_20_R_20.png","15_Ratio_1000_L_15_R_15.png","2_Ratio_1000_L_17_R_17.png","4_Ratio_1000_L_9_R_9.png","5_Ratio_1000_L_6_R_6.png","6_Ratio_1000_L_19_R_19.png","8_Ratio_1000_L_14_R_14.png","9_Ratio_1000_L_25_R_25.png"],["1_Ratio_1000_L_1_R_1.png","14_Ratio_1000_L_17_R_17.png","3_Ratio_1000_L_17_R_17.png","7_Ratio_1000_L_6_R_6.png"]]}},{"start_time":1551900428233,"click_time":1551900429265,"finger_time":1551900428965,"fix_duration":327.15233611211505,"trial":1,"RT":732,"MT":300,"sideResp":2,"stimulus":"img/900/randomdotsizeEA/R/14_Ratio_900_L_18_R_20.png","xmouse":[813,813,813,813,813,813,813,813,813,812,812,812,812,812,812,812,812,812,812,812,812,812,812,812,812,812,812,812,812,812,812,812,812,812,805,797,786,774,770,780,800,826,862,908,926,942,959,979,1016,1033,1047,1059],"ymouse":[541,541,541,541,541,541,541,541,541,540,540,540,540,540,540,540,540,540,540,540,540,540,540,540,540,540,540,540,540,540,540,540,540,540,526,498,457,413,340,302,263,231,191,150,132,117,103,85,55,48,45,44],"timestamp_mouse":[11,40,51,72,92,112,133,152,172,192,212,231,251,273,293,313,331,352,373,393,412,432,452,471,492,513,533,552,572,592,611,631,651,672,692,712,732,751,772,791,813,831,852,873,892,911,932,951,972,991,1011,1031],"xSR":741.5,"ySR":481,"xT1":424.9,"yT1":0,"xT2":1058.1,"yT2":0,"toosoon":0,"cond_shown":"randomdotsizeEA","ratio_trial":900,"smaller_num":"18","larger_num":"20","correct_side":2,"subjID":"miguelangelpachonpinzon","gender":"0","age":"11","school":"6"},{"start_time":1551900432780,"click_time":1551900434045,"finger_time":1551900433324,"fix_duration":974.1872550431867,"trial":2,"RT":544,"MT":721,"sideResp":1,"stimulus":"img/250/equaldotanddens/L/3_Ratio_250_L_8_R_2.png","xmouse":[829,829,829,829,829,829,829,829,829,829,829,829,829,829,829,829,829,829,829,829,829,829,829,829,829,829,832,844,865,887,909,946,959,969,970,970,970,969,969,968,967,966,966,966,966,966,962,950,929,907,878,853,798,775,751,699,642,624,606,585,562,536,527,518],"ymouse":[527,527,527,527,527,527,527,527,527,527,527,527,527,527,527,527,527,527,527,527,527,527,527,527,527,527,523,498,463,426,384,307,280,258,253,246,241,239,238,235,230,228,228,228,228,228,228,228,234,237,237,231,212,201,186,153,124,116,111,102,95,87,87,85],"timestamp_mouse":[10,25,44,65,86,105,125,144,165,185,205,224,244,266,285,305,325,346,365,385,406,424,444,465,486,506,524,544,564,586,604,625,644,665,685,706,725,745,764,785,806,825,844,864,884,904,924,944,964,984,1004,1025,1044,1065,1085,1104,1125,1145,1164,1185,1205,1224,1245,1265],"xSR":741.5,"ySR":481,"xT1":424.9,"yT1":0,"xT2":1058.1,"yT2":0,"toosoon":0,"cond_shown":"equaldotanddens","ratio_trial":250,"smaller_num":"2","larger_num":"8","correct_side":1,"subjID":"miguelangelpachonpinzon","gender":"0","age":"11","school":"6"},{"start_time":1551900437138,"click_time":1551900438105,"finger_time":1551900437844,"fix_duration":273.34243783837263,"trial":3,"RT":706,"MT":261,"sideResp":2,"stimulus":"img/500/equaldotsize/R/6_Ratio_500_L_9_R_18.png","xmouse":[817,817,817,817,817,817,817,817,817,817,817,817,817,817,817,817,817,817,817,817,817,817,817,817,817,817,817,817,817,817,817,817,817,820,832,852,897,923,961,977,989,999,1011,1032,1043,1053,1069,1080,1087],"ymouse":[555,555,555,555,555,555,555,555,555,555,555,555,555,555,555,555,555,555,555,555,555,555,555,555,555,555,555,555,555,555,555,555,554,548,532,504,445,415,369,349,328,306,280,231,209,186,143,109,73],"timestamp_mouse":[15,37,47,67,86,107,126,146,166,186,208,226,248,268,287,307,327,347,367,386,408,428,447,467,488,506,527,548,566,586,607,628,646,667,688,706,726,746,766,786,806,827,846,867,886,906,926,947,966],"xSR":741.5,"ySR":481,"xT1":424.9,"yT1":0,"xT2":1058.1,"yT2":0,"toosoon":0,"cond_shown":"equaldotsize","ratio_trial":500,"smaller_num":"9","larger_num":"18","correct_side":2,"subjID":"miguelangelpachonpinzon","gender":"0","age":"11","school":"6"},{"start_time":1551900440398,"click_time":1551900442085,"finger_time":1551900441105,"fix_duration":1370.3300319065738,"trial":4,"RT":707,"MT":980,"sideResp":2,"stimulus":"img/250/equaldotsize/R/4_Ratio_250_L_3_R_12.png","xmouse":[824,824,824,824,824,824,824,824,824,824,824,824,824,824,824,824,824,824,824,824,824,824,824,824,824,824,824,824,824,824,824,824,824,824,827,856,880,900,920,931,941,948,961,970,978,987,999,1004,1008,1012,1024,1032,1041,1050,1053,1054,1054,1054,1054,1054,1054,1054,1054,1054,1054,1054,1054,1054,1054,1054,1054,1054,1054,1054,1054,1054,1054,1054,1054,1054,1054,1054,1054,1055,1063],"ymouse":[489,489,489,489,489,489,489,489,489,489,489,489,489,489,489,489,489,489,489,489,489,489,489,489,489,489,489,489,489,489,489,489,489,489,482,432,397,369,344,331,317,305,282,266,250,234,205,192,179,169,141,125,110,96,90,89,89,89,89,89,89,89,89,89,89,89,89,89,89,89,89,89,89,89,89,89,89,89,89,89,89,89,89,87,85],"timestamp_mouse":[11,26,47,67,86,106,128,148,166,188,206,228,248,267,287,306,328,347,367,386,407,426,448,466,487,506,527,546,567,587,607,627,647,666,687,707,728,746,767,787,807,826,847,866,886,906,926,947,968,987,1007,1027,1046,1067,1086,1106,1128,1146,1168,1187,1206,1227,1246,1267,1286,1308,1327,1348,1368,1386,1406,1426,1447,1467,1486,1508,1528,1548,1567,1587,1606,1627,1647,1666,1687],"xSR":741.5,"ySR":481,"xT1":424.9,"yT1":0,"xT2":1058.1,"yT2":0,"toosoon":0,"cond_shown":"equaldotsize","ratio_trial":250,"smaller_num":"3","larger_num":"12","correct_side":2,"subjID":"miguelangelpachonpinzon","gender":"0","age":"11","school":"6"},{"start_time":1551900444210,"click_time":1551900445565,"finger_time":1551900445026,"fix_duration":1082.4468432235635,"trial":5,"RT":816,"MT":539,"sideResp":1,"stimulus":"img/900/equaldotsize/R/11_Ratio_900_L_18_R_20.png","xmouse":[811,811,811,811,811,811,811,811,811,811,811,811,811,811,811,811,811,811,811,811,811,811,811,811,811,811,811,811,811,811,811,811,811,811,811,811,811,816,820,841,853,866,884,896,910,912,913,913,913,912,908,897,878,832,747,697,658,629,610,587,575,548,540,516,504,502,500,498],"ymouse":[513,513,513,513,513,513,513,513,513,513,513,513,513,513,513,513,513,513,513,513,513,513,513,513,513,513,513,513,513,513,513,513,513,513,513,513,513,508,503,485,473,458,427,405,370,361,356,354,353,351,350,347,342,332,299,272,250,233,221,197,179,147,138,119,108,104,100,93],"timestamp_mouse":[16,44,56,77,96,115,136,155,176,195,216,235,255,275,297,316,335,355,377,396,417,436,456,475,496,515,536,555,575,595,617,636,655,675,695,715,735,756,776,795,816,837,857,876,896,916,936,956,976,995,1015,1037,1058,1077,1096,1116,1135,1155,1175,1196,1216,1236,1255,1276,1295,1317,1335,1355],"xSR":741.5,"ySR":481,"xT1":424.9,"yT1":0,"xT2":1058.1,"yT2":0,"toosoon":0,"cond_shown":"equaldotsize","ratio_trial":900,"smaller_num":"18","larger_num":"20","correct_side":2,"subjID":"miguelangelpachonpinzon","gender":"0","age":"11","school":"6"},{"start_time":1551900473499,"click_time":1551900474505,"finger_time":1551900474206,"fix_duration":250,"trial":6,"RT":707,"MT":299,"sideResp":2,"stimulus":"img/500/equaldotanddens/R/6_Ratio_500_L_9_R_18.png","xmouse":[804,804,804,804,804,804,804,804,804,804,804,804,804,804,804,804,804,804,804,804,804,804,804,804,804,804,804,804,804,804,804,804,804,805,806,814,820,833,851,886,943,962,977,987,995,1002,1016,1024,1041,1055,1085],"ymouse":[485,485,485,485,485,485,485,485,485,485,485,485,485,485,485,485,485,485,485,485,485,485,485,485,485,485,485,485,485,485,485,485,485,485,481,461,443,414,380,331,268,244,222,200,184,167,150,143,128,116,86],"timestamp_mouse":[9,27,47,66,87,108,127,146,168,187,207,226,248,268,287,306,328,348,367,387,406,426,446,467,486,508,527,546,567,586,607,627,647,667,687,707,727,747,766,787,807,827,846,866,887,906,927,947,967,987,1006],"xSR":741.5,"ySR":481,"xT1":424.9,"yT1":0,"xT2":1058.1,"yT2":0,"toosoon":0,"cond_shown":"equaldotanddens","ratio_trial":500,"smaller_num":"9","larger_num":"18","correct_side":2,"subjID":"miguelangelpachonpinzon","gender":"0","age":"11","school":"6"},{"start_time":1551900476193,"click_time":1551900477506,"finger_time":1551900476826,"fix_duration":847.4380429703382,"trial":7,"RT":633,"MT":680,"sideResp":2,"stimulus":"img/250/equaldotsize/R/8_Ratio_250_L_1_R_4.png","xmouse":[795,795,795,795,795,795,795,795,795,795,795,795,795,795,795,795,795,795,795,795,795,795,795,795,795,795,795,795,794,797,809,817,826,832,833,852,860,868,883,902,927,990,1024,1082,1120,1159,1165,1169,1173,1177,1180,1181,1182,1183,1183,1183,1183,1183,1183,1183,1183,1183,1183,1183,1175,1145],"ymouse":[536,536,536,536,536,536,536,536,536,536,536,536,536,536,536,536,536,536,536,536,536,536,536,536,536,536,536,536,531,523,487,470,442,425,419,386,377,367,353,339,318,271,244,193,162,128,120,113,110,102,91,88,83,78,75,74,74,74,74,74,74,74,73,73,73,71],"timestamp_mouse":[12,37,54,73,92,113,132,153,172,194,212,234,254,273,293,312,334,354,372,393,412,433,453,473,494,513,532,553,573,593,613,633,652,673,693,712,733,752,772,793,812,832,854,873,892,913,933,953,972,993,1013,1034,1052,1073,1092,1113,1133,1152,1173,1194,1212,1233,1254,1273,1293,1312],"xSR":741.5,"ySR":481,"xT1":424.9,"yT1":0,"xT2":1058.1,"yT2":0,"toosoon":0,"cond_shown":"equaldotsize","ratio_trial":250,"smaller_num":"1","larger_num":"4","correct_side":2,"subjID":"miguelangelpachonpinzon","gender":"0","age":"11","school":"6"},{"start_time":1551900479306,"click_time":1551900480686,"finger_time":1551900479986,"fix_duration":839.7708618472594,"trial":8,"RT":680,"MT":700,"sideResp":2,"stimulus":"img/900/equaldotanddens/R/13_Ratio_900_L_18_R_20.png","xmouse":[779,779,779,779,779,779,779,779,779,779,779,779,779,779,779,779,779,779,779,779,779,779,779,779,779,779,779,779,779,779,779,779,787,801,817,844,851,858,864,871,892,906,921,938,953,970,975,975,975,975,975,963,940,907,862,791,773,764,764,764,764,767,775,791,819,919,979,1041,1065,1081],"ymouse":[543,543,543,543,543,543,543,543,543,543,543,543,543,543,543,543,543,543,543,543,543,543,543,543,543,543,543,543,543,543,543,543,527,498,469,427,411,395,379,367,336,316,295,271,248,211,198,196,193,193,190,188,185,184,181,177,176,174,173,173,165,160,151,143,136,124,114,106,101,95],"timestamp_mouse":[1,20,43,59,79,100,121,139,160,179,200,221,240,261,280,300,320,339,361,380,400,420,439,459,479,501,519,540,560,579,601,620,639,659,680,700,719,739,759,780,799,820,839,859,880,900,920,941,961,980,999,1021,1039,1059,1081,1100,1119,1139,1160,1179,1199,1220,1240,1260,1280,1299,1319,1339,1359,1380],"xSR":741.5,"ySR":481,"xT1":424.9,"yT1":0,"xT2":1058.1,"yT2":0,"toosoon":0,"cond_shown":"equaldotanddens","ratio_trial":900,"smaller_num":"18","larger_num":"20","correct_side":2,"subjID":"miguelangelpachonpinzon","gender":"0","age":"11","school":"6"},{"start_time":1551900482491,"click_time":1551900484025,"finger_time":1551900483605,"fix_duration":964.0995977493036,"trial":9,"RT":1114,"MT":420,"sideResp":2,"stimulus":"img/250/randomdotsizeEA/R/4_Ratio_250_L_3_R_12.png","xmouse":[816,816,816,816,816,816,816,816,816,816,816,816,816,816,816,816,816,816,816,816,816,816,816,816,816,816,816,816,816,816,816,816,816,816,816,814,806,800,795,793,793,793,793,793,792,792,794,796,798,799,799,799,799,800,804,823,844,869,932,959,1043,1122,1145,1159,1170,1205,1214,1219,1222,1221,1214,1210,1202,1196,1187,1164,1153],"ymouse":[559,559,559,559,559,559,559,559,559,559,559,559,559,559,559,559,559,559,559,559,559,559,559,559,559,559,559,559,559,559,559,559,559,559,559,554,545,542,539,538,538,538,538,537,536,525,517,509,501,497,495,495,494,490,483,450,426,396,336,313,245,192,179,167,150,119,107,90,69,44,34,31,28,26,25,25,25],"timestamp_mouse":[15,38,54,74,96,116,135,155,176,195,215,235,255,276,295,315,334,355,376,395,414,435,456,475,494,514,536,554,575,596,614,634,655,675,696,714,735,755,775,794,815,835,854,875,894,914,935,955,974,994,1015,1035,1054,1074,1094,1114,1135,1156,1174,1194,1214,1234,1256,1274,1295,1315,1335,1355,1375,1394,1414,1435,1455,1475,1494,1515,1534],"xSR":741.5,"ySR":481,"xT1":424.9,"yT1":0,"xT2":1058.1,"yT2":0,"toosoon":0,"cond_shown":"randomdotsizeEA","ratio_trial":250,"smaller_num":"3","larger_num":"12","correct_side":2,"subjID":"miguelangelpachonpinzon","gender":"0","age":"11","school":"6"},{"start_time":1551900489819,"click_time":1551900490846,"finger_time":1551900490486,"fix_duration":250,"trial":10,"RT":667,"MT":360,"sideResp":2,"stimulus":"img/900/equaldotsize/L/8_Ratio_900_L_20_R_18.png","xmouse":[759,760,760,760,766,767,769,769,769,770,770,770,770,770,770,770,770,770,770,770,770,770,770,770,770,770,770,770,770,770,770,775,781,824,895,928,955,972,981,988,991,996,1004,1017,1039,1042,1042,1042,1042,1045,1053,1072],"ymouse":[551,546,545,545,541,540,539,539,539,538,538,538,538,538,538,538,538,538,538,538,538,538,538,538,538,538,538,538,538,538,538,528,518,440,322,274,233,210,193,181,174,168,159,141,106,100,100,100,100,98,93,80],"timestamp_mouse":[11,27,53,66,86,107,126,146,167,187,206,227,248,266,287,307,326,348,366,386,407,426,446,467,486,507,528,547,567,587,606,627,646,666,686,706,726,747,767,787,806,826,847,867,886,906,928,948,966,986,1006,1027],"xSR":741.5,"ySR":481,"xT1":424.9,"yT1":0,"xT2":1058.1,"yT2":0,"toosoon":0,"cond_shown":"equaldotsize","ratio_trial":900,"smaller_num":"18","larger_num":"20","correct_side":1,"subjID":"miguelangelpachonpinzon","gender":"0","age":"11","school":"6"},{"start_time":1551900492100,"click_time":1551900492927,"finger_time":1551900492806,"fix_duration":250,"trial":11,"RT":706,"MT":121,"sideResp":2,"stimulus":"img/500/equaldotanddens/R/12_Ratio_500_L_1_R_2.png","xmouse":[821,821,821,821,821,821,821,821,821,821,821,821,821,821,821,821,821,821,821,821,821,821,821,821,821,821,821,821,821,822,822,822,823,825,830,866,902,940,978,1028,1057,1065],"ymouse":[549,549,549,549,549,549,549,549,549,549,549,549,549,549,549,549,549,549,549,549,549,549,549,549,549,549,549,549,546,542,535,531,524,515,497,366,280,221,176,118,82,72],"timestamp_mouse":[10,38,46,65,85,105,125,146,165,186,205,226,245,266,285,305,325,345,365,386,405,426,447,467,486,506,527,545,565,585,605,626,646,666,686,706,726,745,765,785,806,827],"xSR":741.5,"ySR":481,"xT1":424.9,"yT1":0,"xT2":1058.1,"yT2":0,"toosoon":0,"cond_shown":"equaldotanddens","ratio_trial":500,"smaller_num":"1","larger_num":"2","correct_side":2,"subjID":"miguelangelpachonpinzon","gender":"0","age":"11","school":"6"},{"start_time":1551900494338,"click_time":1551900496805,"finger_time":1551900496006,"fix_duration":250,"trial":12,"RT":1668,"MT":799,"sideResp":2,"stimulus":"img/250/equaldotsize/L/15_Ratio_250_L_12_R_3.png","xmouse":[835,835,835,835,835,835,834,834,837,838,838,838,838,838,838,838,838,838,838,838,838,838,838,838,838,838,838,838,838,838,838,838,838,838,838,838,838,838,838,838,838,838,838,838,838,838,838,838,838,838,838,838,838,838,838,838,838,838,838,838,838,838,838,838,838,838,838,838,838,838,838,838,838,838,838,838,838,838,838,838,838,838,840,843,849,856,864,874,878,878,878,878,878,878,878,878,878,878,878,878,877,875,875,875,874,877,885,896,915,922,925,927,928,932,939,948,964,977,994,1004,1014,1025,1037,1070],"ymouse":[515,515,515,515,515,515,516,519,525,525,525,525,525,525,525,525,525,525,525,525,525,525,525,525,525,525,525,525,525,525,525,525,525,525,525,525,525,525,525,525,525,525,525,525,525,525,525,525,525,525,525,525,525,525,525,525,525,525,525,525,525,525,525,525,525,525,525,525,525,525,525,525,525,525,525,525,525,525,525,525,525,525,525,518,507,497,483,469,463,463,463,463,463,463,463,463,463,463,463,462,462,462,462,462,462,445,391,312,100,53,42,36,34,31,24,17,9,7,10,16,22,28,35,43],"timestamp_mouse":[11,38,47,69,87,108,129,147,167,188,207,229,248,269,287,307,329,348,368,388,407,427,448,468,488,508,528,547,569,589,609,628,648,669,687,708,728,748,769,788,808,829,847,868,889,908,929,947,968,988,1007,1028,1048,1067,1088,1108,1129,1148,1169,1189,1207,1227,1249,1267,1288,1308,1327,1347,1368,1388,1407,1427,1449,1467,1488,1507,1528,1548,1567,1587,1609,1628,1648,1668,1687,1708,1727,1747,1767,1788,1807,1827,1847,1868,1889,1908,1928,1947,1967,1987,2007,2027,2048,2067,2087,2108,2128,2148,2167,2187,2209,2228,2248,2268,2287,2307,2327,2347,2367,2387,2407,2427,2449,2467],"xSR":741.5,"ySR":481,"xT1":424.9,"yT1":0,"xT2":1058.1,"yT2":0,"toosoon":0,"cond_shown":"equaldotsize","ratio_trial":250,"smaller_num":"3","larger_num":"12","correct_side":1,"subjID":"miguelangelpachonpinzon","gender":"0","age":"11","school":"6"},{"start_time":1551900498057,"click_time":1551900499047,"finger_time":1551900498765,"fix_duration":250,"trial":13,"RT":708,"MT":282,"sideResp":1,"stimulus":"img/250/randomdotsizeEA/L/14_Ratio_250_L_12_R_3.png","xmouse":[806,806,806,806,806,806,806,806,806,806,806,806,806,806,806,806,806,806,806,806,806,806,806,806,806,806,806,806,806,806,806,806,806,806,801,790,775,746,737,728,711,688,619,607,599,589,580,552,532,481],"ymouse":[502,502,502,502,502,502,502,502,502,502,502,502,502,502,502,502,502,502,502,502,502,502,502,502,502,502,502,502,502,502,502,502,502,502,496,480,462,426,411,391,343,301,212,191,177,161,146,114,90,19],"timestamp_mouse":[13,29,49,68,89,108,129,148,169,189,209,228,249,269,289,310,330,350,368,389,410,429,449,469,489,509,528,549,569,588,608,630,648,669,689,708,729,748,770,788,809,829,848,869,888,909,929,949,968,990],"xSR":741.5,"ySR":481,"xT1":424.9,"yT1":0,"xT2":1058.1,"yT2":0,"toosoon":0,"cond_shown":"randomdotsizeEA","ratio_trial":250,"smaller_num":"3","larger_num":"12","correct_side":1,"subjID":"miguelangelpachonpinzon","gender":"0","age":"11","school":"6"},{"start_time":1551900502618,"click_time":1551900503506,"finger_time":1551900503206,"fix_duration":250,"trial":14,"RT":588,"MT":300,"sideResp":2,"stimulus":"img/900/randomdotsizeEA/R/7_Ratio_900_L_9_R_10.png","xmouse":[819,819,819,819,819,819,818,817,817,817,817,817,817,817,817,817,817,817,817,815,814,813,813,813,813,813,813,813,814,825,834,840,844,846,852,857,867,887,915,977,998,1023,1036,1049,1073],"ymouse":[521,521,521,521,521,521,521,520,520,520,520,519,518,517,515,513,511,510,508,504,500,499,499,499,498,498,497,495,492,479,468,458,446,439,399,371,335,287,234,151,124,99,83,69,42],"timestamp_mouse":[9,42,49,67,87,107,128,148,167,189,209,227,247,268,287,309,327,347,369,388,408,427,447,468,488,508,527,548,569,588,608,628,648,668,688,708,729,748,768,788,808,827,847,867,887],"xSR":741.5,"ySR":481,"xT1":424.9,"yT1":0,"xT2":1058.1,"yT2":0,"toosoon":0,"cond_shown":"randomdotsizeEA","ratio_trial":900,"smaller_num":"9","larger_num":"10","correct_side":2,"subjID":"miguelangelpachonpinzon","gender":"0","age":"11","school":"6"},{"start_time":1551900504707,"click_time":1551900506006,"finger_time":1551900505345,"fix_duration":399.12977963440744,"trial":15,"RT":638,"MT":661,"sideResp":1,"stimulus":"img/900/randomdotsizeEA/L/1_Ratio_900_L_10_R_9.png","xmouse":[806,806,806,806,806,806,806,806,806,806,806,806,806,806,806,806,806,806,806,806,806,806,806,807,807,809,809,809,809,809,810,811,813,816,824,848,867,888,910,942,974,983,986,986,987,987,987,982,975,939,851,810,766,736,717,693,684,671,645,626,587,573,561,551,538,503],"ymouse":[511,511,511,511,511,511,511,511,511,511,511,511,511,511,511,511,511,511,511,511,511,511,511,509,509,504,502,499,498,494,487,482,475,465,452,431,423,413,403,386,358,345,338,337,336,336,336,334,333,330,322,317,310,305,300,287,275,257,224,206,177,165,151,135,119,89],"timestamp_mouse":[1,27,42,59,79,99,119,140,158,180,199,218,240,260,279,298,319,339,358,379,399,418,439,459,480,499,519,539,559,580,598,619,638,658,680,699,719,740,760,779,799,819,839,858,879,899,919,939,959,979,999,1019,1040,1059,1078,1099,1120,1140,1159,1180,1199,1219,1240,1260,1280,1299],"xSR":741.5,"ySR":481,"xT1":424.9,"yT1":0,"xT2":1058.1,"yT2":0,"toosoon":0,"cond_shown":"randomdotsizeEA","ratio_trial":900,"smaller_num":"9","larger_num":"10","correct_side":1,"subjID":"miguelangelpachonpinzon","gender":"0","age":"11","school":"6"},{"start_time":1551900509058,"click_time":1551900510026,"finger_time":1551900509645,"fix_duration":250,"trial":16,"RT":587,"MT":381,"sideResp":2,"stimulus":"img/250/randomdotsizeEA/R/8_Ratio_250_L_1_R_4.png","xmouse":[787,787,787,787,787,787,787,787,787,787,787,787,787,786,786,786,786,786,786,785,785,785,785,785,785,785,785,796,806,829,840,874,922,941,952,959,968,978,1008,1020,1030,1036,1036,1036,1037,1039,1045,1056,1082],"ymouse":[534,534,534,534,534,534,534,534,534,534,534,534,534,533,533,533,533,533,533,532,532,531,530,530,529,528,525,508,486,430,407,339,270,247,230,219,206,187,130,108,91,79,79,79,78,75,69,61,49],"timestamp_mouse":[9,29,48,69,89,107,127,149,168,189,209,228,249,268,288,307,329,349,368,388,408,427,449,469,488,509,528,547,567,587,609,629,648,669,688,708,729,747,768,788,807,828,848,868,888,908,929,947,968],"xSR":741.5,"ySR":481,"xT1":424.9,"yT1":0,"xT2":1058.1,"yT2":0,"toosoon":0,"cond_shown":"randomdotsizeEA","ratio_trial":250,"smaller_num":"1","larger_num":"4","correct_side":2,"subjID":"miguelangelpachonpinzon","gender":"0","age":"11","school":"6"},{"start_time":1551900513648,"click_time":1551900514725,"finger_time":1551900514286,"fix_duration":960.8583765452162,"trial":17,"RT":638,"MT":439,"sideResp":2,"stimulus":"img/750/equaldotanddens/L/9_Ratio_750_L_4_R_3.png","xmouse":[828,828,828,828,828,828,828,828,828,828,828,828,828,828,828,828,828,828,828,828,828,828,828,828,828,828,828,828,828,831,836,847,895,920,946,962,973,985,988,990,994,999,1009,1014,1017,1018,1019,1021,1024,1031,1043,1051,1058,1059],"ymouse":[561,561,561,561,561,561,561,561,561,561,561,561,561,561,561,561,561,561,561,561,561,561,561,561,561,561,561,561,561,556,547,529,439,399,359,330,310,281,270,264,248,235,204,188,174,164,157,146,136,123,102,93,85,84],"timestamp_mouse":[17,38,58,79,98,117,139,159,178,199,218,238,258,279,298,318,337,358,377,397,419,439,458,479,497,518,539,558,578,598,618,637,659,678,698,718,737,758,777,797,818,839,858,877,898,917,939,958,978,998,1019,1038,1058,1077],"xSR":741.5,"ySR":481,"xT1":424.9,"yT1":0,"xT2":1058.1,"yT2":0,"toosoon":0,"cond_shown":"equaldotanddens","ratio_trial":750,"smaller_num":"3","larger_num":"4","correct_side":1,"subjID":"miguelangelpachonpinzon","gender":"0","age":"11","school":"6"},{"start_time":1551900516603,"click_time":1551900517565,"finger_time":1551900517166,"fix_duration":1154.6248656093846,"trial":18,"RT":563,"MT":399,"sideResp":1,"stimulus":"img/250/equaldotsize/L/1_Ratio_250_L_8_R_2.png","xmouse":[778,778,778,778,778,778,778,778,778,778,778,778,778,778,778,778,778,778,775,771,766,764,762,762,762,762,761,758,757,754,741,730,711,691,665,655,652,648,640,630,604,593,590,583,576,544,528,526,522],"ymouse":[541,541,541,541,541,541,541,541,541,541,541,541,541,541,541,541,541,541,537,527,509,501,497,497,497,495,492,484,471,454,409,378,337,298,256,225,206,191,178,167,152,145,142,134,125,100,88,85,81],"timestamp_mouse":[9,33,43,63,84,103,123,143,164,183,204,223,244,264,284,303,324,343,363,383,402,424,444,464,482,503,523,542,562,584,603,623,642,663,682,703,723,743,763,783,803,824,843,863,883,903,922,942,962],"xSR":741.5,"ySR":481,"xT1":424.9,"yT1":0,"xT2":1058.1,"yT2":0,"toosoon":0,"cond_shown":"equaldotsize","ratio_trial":250,"smaller_num":"2","larger_num":"8","correct_side":1,"subjID":"miguelangelpachonpinzon","gender":"0","age":"11","school":"6"},{"start_time":1551900519183,"click_time":1551900520066,"finger_time":1551900519946,"fix_duration":814.8232571914675,"trial":19,"RT":763,"MT":120,"sideResp":2,"stimulus":"img/500/equaldotsize/R/6_Ratio_500_L_9_R_18.png","xmouse":[792,792,792,792,792,792,792,792,792,794,795,797,798,799,800,801,802,802,802,802,802,802,802,802,802,802,802,802,802,802,802,802,802,802,802,804,819,841,890,953,1012,1072,1136,1147,1153],"ymouse":[533,533,533,533,533,533,534,535,537,540,541,544,545,545,546,547,548,548,548,548,548,548,548,548,548,548,548,548,548,548,548,548,548,548,548,548,531,511,466,393,309,220,124,106,94],"timestamp_mouse":[4,34,44,63,82,103,123,143,164,183,203,223,242,263,284,302,323,344,364,384,403,423,443,463,482,502,523,544,564,584,603,624,642,663,684,703,722,743,763,783,803,822,842,863,883],"xSR":741.5,"ySR":481,"xT1":424.9,"yT1":0,"xT2":1058.1,"yT2":0,"toosoon":0,"cond_shown":"equaldotsize","ratio_trial":500,"smaller_num":"9","larger_num":"18","correct_side":2,"subjID":"miguelangelpachonpinzon","gender":"0","age":"11","school":"6"},{"start_time":1551900522957,"click_time":1551900524166,"finger_time":1551900523705,"fix_duration":250,"trial":20,"RT":748,"MT":461,"sideResp":1,"stimulus":"img/900/equaldotanddens/L/10_Ratio_900_L_20_R_18.png","xmouse":[836,836,836,836,836,836,836,836,836,836,836,836,836,836,836,836,836,836,836,836,836,836,836,836,836,836,836,836,836,836,836,836,836,836,836,835,833,821,809,794,779,760,715,691,660,621,601,566,550,533,516,502,486,484,482,481,481,483,486,489,493],"ymouse":[497,497,497,497,497,497,497,497,497,497,497,497,497,497,497,497,497,497,497,497,497,497,497,497,497,497,497,497,497,497,497,497,497,497,497,497,492,470,454,437,418,398,352,329,302,273,259,238,229,218,204,191,172,167,160,149,141,121,110,100,94],"timestamp_mouse":[10,44,49,69,89,109,129,149,170,189,209,229,249,268,289,309,329,349,370,389,410,429,449,468,490,509,529,548,570,590,609,628,649,669,690,709,730,748,769,789,809,829,849,869,889,909,929,948,969,989,1009,1028,1049,1069,1090,1109,1129,1149,1169,1189,1209],"xSR":741.5,"ySR":481,"xT1":424.9,"yT1":0,"xT2":1058.1,"yT2":0,"toosoon":0,"cond_shown":"equaldotanddens","ratio_trial":900,"smaller_num":"18","larger_num":"20","correct_side":1,"subjID":"miguelangelpachonpinzon","gender":"0","age":"11","school":"6"},{"start_time":1551900525658,"click_time":1551900527486,"finger_time":1551900526226,"fix_duration":589.9311571827539,"trial":21,"RT":568,"MT":1260,"sideResp":2,"stimulus":"img/750/randomdotsizeEA/R/12_Ratio_750_L_3_R_4.png","xmouse":[771,771,771,771,771,771,771,771,771,771,771,771,771,771,771,771,771,771,771,771,771,771,771,771,771,769,768,766,766,771,794,814,854,871,887,907,923,953,965,975,985,989,997,1000,1002,1004,1006,1007,1007,1007,1007,1007,1007,1007,1007,1007,1006,1006,1006,1006,1006,1006,1010,1032,1046,1061,1075,1104,1116,1129,1134,1136,1136,1136,1136,1136,1136,1136,1136,1136,1136,1136,1136,1136,1136,1136,1136,1136,1136,1136,1136,1136],"ymouse":[520,520,520,520,520,520,520,520,520,520,520,520,520,520,520,520,520,520,520,520,520,520,520,520,519,517,510,490,474,453,419,397,364,352,340,326,312,285,273,262,246,238,221,212,204,197,193,188,187,187,187,187,187,187,187,187,187,187,187,187,185,184,181,169,163,158,151,136,128,117,114,112,112,112,107,104,103,103,103,103,103,103,103,103,103,103,103,103,103,103,103,99],"timestamp_mouse":[14,29,48,68,87,108,127,147,168,188,209,228,249,269,287,307,328,349,367,388,409,428,448,469,489,508,528,547,568,589,609,628,647,669,689,709,728,748,769,789,809,829,848,869,889,908,929,948,968,988,1009,1028,1048,1068,1087,1109,1129,1148,1167,1189,1208,1228,1247,1268,1288,1308,1328,1347,1368,1388,1409,1429,1448,1468,1489,1508,1528,1547,1568,1589,1609,1627,1648,1669,1688,1709,1728,1747,1767,1789,1808,1828],"xSR":741.5,"ySR":481,"xT1":424.9,"yT1":0,"xT2":1058.1,"yT2":0,"toosoon":0,"cond_shown":"randomdotsizeEA","ratio_trial":750,"smaller_num":"3","larger_num":"4","correct_side":2,"subjID":"miguelangelpachonpinzon","gender":"0","age":"11","school":"6"},{"start_time":1551900529766,"click_time":1551900530866,"finger_time":1551900530486,"fix_duration":1297.5966969492372,"trial":22,"RT":720,"MT":380,"sideResp":2,"stimulus":"img/500/randomdotsizeEA/R/3_Ratio_500_L_10_R_20.png","xmouse":[788,788,788,788,788,788,788,788,788,788,788,788,788,788,788,788,788,788,788,788,788,788,788,788,788,788,788,788,788,788,788,788,788,788,794,801,831,879,902,923,939,950,966,975,977,983,986,991,995,1003,1013,1024,1050,1065,1081,1103],"ymouse":[498,498,498,498,498,498,498,498,498,498,498,498,498,498,498,498,498,498,498,498,498,498,498,498,498,498,498,498,498,498,498,498,498,498,492,482,445,395,366,333,298,266,210,182,178,167,163,154,148,139,131,124,112,108,104,97],"timestamp_mouse":[2,20,41,60,81,99,119,141,160,179,201,219,241,261,281,300,319,340,359,381,400,420,440,461,481,501,520,539,559,580,600,620,640,659,680,701,720,740,761,780,800,819,839,860,880,900,920,940,961,980,1000,1020,1040,1061,1081,1100],"xSR":741.5,"ySR":481,"xT1":424.9,"yT1":0,"xT2":1058.1,"yT2":0,"toosoon":0,"cond_shown":"randomdotsizeEA","ratio_trial":500,"smaller_num":"10","larger_num":"20","correct_side":2,"subjID":"miguelangelpachonpinzon","gender":"0","age":"11","school":"6"},{"start_time":1551900532018,"click_time":1551900533026,"finger_time":1551900532746,"fix_duration":250,"trial":23,"RT":728,"MT":280,"sideResp":1,"stimulus":"img/500/equaldotanddens/L/5_Ratio_500_L_4_R_2.png","xmouse":[778,778,778,778,778,778,778,778,778,778,778,778,778,778,778,778,778,778,778,778,778,778,778,778,778,778,778,778,778,778,778,778,778,777,777,774,770,760,740,706,626,586,551,523,497,483,473,470,468,464,462],"ymouse":[492,492,492,492,492,492,492,492,492,492,492,492,492,492,492,492,492,492,492,492,492,492,492,492,492,492,492,492,492,492,492,492,492,491,485,481,475,463,438,393,288,244,206,173,145,133,126,122,117,105,99],"timestamp_mouse":[13,38,49,67,88,109,128,148,169,189,209,229,248,269,287,308,328,348,368,389,408,429,449,468,506,508,527,549,569,589,608,628,648,668,688,708,728,748,768,787,807,828,848,868,888,908,928,948,968,988,1008],"xSR":741.5,"ySR":481,"xT1":424.9,"yT1":0,"xT2":1058.1,"yT2":0,"toosoon":0,"cond_shown":"equaldotanddens","ratio_trial":500,"smaller_num":"2","larger_num":"4","correct_side":1,"subjID":"miguelangelpachonpinzon","gender":"0","age":"11","school":"6"},{"start_time":1551900533937,"click_time":1551900535127,"finger_time":1551900534726,"fix_duration":250,"trial":24,"RT":789,"MT":401,"sideResp":1,"stimulus":"img/750/equaldotsize/L/10_Ratio_750_L_4_R_3.png","xmouse":[783,783,783,783,783,783,783,783,783,783,783,783,783,783,783,783,783,783,783,783,783,783,783,783,783,783,783,783,783,783,783,783,783,783,783,782,781,777,766,753,729,695,661,624,617,613,603,593,565,555,551,549,547,538,531,524,519,517,514,513],"ymouse":[535,535,535,535,535,535,535,535,535,535,535,535,535,535,535,535,535,535,535,535,535,535,535,535,535,535,535,535,535,535,535,535,535,535,535,532,527,518,491,468,433,392,355,297,280,265,241,225,192,179,174,170,164,145,136,124,114,109,101,98],"timestamp_mouse":[10,41,49,70,89,108,130,148,170,190,209,230,250,268,290,310,329,350,368,390,408,428,450,469,489,509,530,550,570,589,608,630,649,669,690,709,730,749,769,789,809,829,849,869,888,910,930,950,968,989,1010,1029,1049,1069,1089,1108,1130,1149,1169,1189],"xSR":741.5,"ySR":481,"xT1":424.9,"yT1":0,"xT2":1058.1,"yT2":0,"toosoon":0,"cond_shown":"equaldotsize","ratio_trial":750,"smaller_num":"3","larger_num":"4","correct_side":1,"subjID":"miguelangelpachonpinzon","gender":"0","age":"11","school":"6"},{"start_time":1551900536883,"click_time":1551900537906,"finger_time":1551900537505,"fix_duration":974.7896213734051,"trial":25,"RT":622,"MT":401,"sideResp":1,"stimulus":"img/500/equaldotsize/L/7_Ratio_500_L_10_R_5.png","xmouse":[811,811,811,811,811,811,811,811,811,811,811,811,811,811,811,811,811,811,811,811,811,811,811,811,811,811,811,811,812,804,787,713,680,655,638,626,611,602,592,571,546,504,495,492,492,490,482,479,477,477,476,474],"ymouse":[515,515,515,515,515,515,515,515,515,515,515,515,515,515,515,515,515,515,515,515,515,515,515,515,515,515,515,515,514,504,484,402,380,370,362,356,349,346,340,320,275,212,201,193,189,184,158,143,121,112,101,86],"timestamp_mouse":[4,23,43,63,83,102,122,142,164,184,203,223,244,264,282,303,324,343,363,382,404,423,444,464,483,502,522,544,563,583,603,622,644,663,684,704,722,743,764,783,802,823,843,863,883,903,923,942,963,983,1003,1023],"xSR":741.5,"ySR":481,"xT1":424.9,"yT1":0,"xT2":1058.1,"yT2":0,"toosoon":0,"cond_shown":"equaldotsize","ratio_trial":500,"smaller_num":"5","larger_num":"10","correct_side":1,"subjID":"miguelangelpachonpinzon","gender":"0","age":"11","school":"6"},{"start_time":1551900539506,"click_time":1551900540406,"finger_time":1551900540106,"fix_duration":939.5733613061203,"trial":26,"RT":600,"MT":300,"sideResp":2,"stimulus":"img/900/randomdotsizeEA/L/1_Ratio_900_L_10_R_9.png","xmouse":[800,800,800,800,800,800,800,800,800,800,800,800,800,800,800,800,800,800,800,800,800,800,800,800,800,800,801,804,811,846,875,900,922,941,974,994,1019,1045,1054,1064,1068,1069,1069,1070,1073],"ymouse":[558,558,558,558,558,558,558,558,558,558,558,558,558,558,558,558,558,558,558,558,558,558,558,558,558,558,558,555,546,494,441,375,314,249,200,181,160,135,126,112,107,104,102,100,96],"timestamp_mouse":[21,48,60,80,100,120,139,159,180,199,220,241,260,281,299,320,341,359,380,399,420,441,460,481,500,520,540,559,579,600,620,640,660,680,700,720,741,760,780,799,820,841,861,881,900],"xSR":741.5,"ySR":481,"xT1":424.9,"yT1":0,"xT2":1058.1,"yT2":0,"toosoon":0,"cond_shown":"randomdotsizeEA","ratio_trial":900,"smaller_num":"9","larger_num":"10","correct_side":1,"subjID":"miguelangelpachonpinzon","gender":"0","age":"11","school":"6"},{"start_time":1551900541659,"click_time":1551900542306,"finger_time":1551900542205,"fix_duration":250,"trial":27,"RT":546,"MT":101,"sideResp":1,"stimulus":"img/750/equaldotanddens/L/14_Ratio_750_L_8_R_6.png","xmouse":[803,803,803,803,803,803,803,803,803,803,803,803,803,803,803,803,803,803,803,803,803,803,802,801,797,789,778,737,703,629,599,510,433],"ymouse":[519,519,519,519,519,519,519,519,519,519,519,519,519,519,519,519,519,519,519,519,519,519,519,519,514,499,481,426,384,299,267,162,82],"timestamp_mouse":[9,39,48,67,86,108,127,148,166,187,207,227,246,268,286,306,327,348,368,388,407,427,447,467,487,507,526,546,567,587,606,628,647],"xSR":741.5,"ySR":481,"xT1":424.9,"yT1":0,"xT2":1058.1,"yT2":0,"toosoon":0,"cond_shown":"equaldotanddens","ratio_trial":750,"smaller_num":"6","larger_num":"8","correct_side":1,"subjID":"miguelangelpachonpinzon","gender":"0","age":"11","school":"6"},{"start_time":1551900544232,"click_time":1551900546127,"finger_time":1551900544926,"fix_duration":1104.3110551801715,"trial":28,"RT":694,"MT":1201,"sideResp":2,"stimulus":"img/500/randomdotsizeEA/R/6_Ratio_500_L_9_R_18.png","xmouse":[759,764,768,775,776,776,776,776,776,776,776,776,776,776,776,776,776,776,776,776,777,777,777,777,777,777,777,777,777,777,777,776,776,781,794,811,830,857,901,918,934,948,960,969,971,973,974,977,986,992,999,1008,1015,1027,1035,1041,1044,1048,1057,1061,1072,1089,1095,1098,1098,1098,1100,1101,1101,1101,1101,1101,1101,1101,1101,1101,1101,1101,1101,1102,1103,1103,1103,1103,1103,1104,1107,1107,1110,1110,1111,1111,1113,1110,1102],"ymouse":[522,522,523,523,523,523,523,523,523,523,523,523,523,523,523,523,523,523,523,523,523,522,522,522,522,522,522,522,522,522,519,512,502,481,465,444,423,395,353,332,314,293,273,250,240,229,219,209,193,186,179,171,166,160,156,153,151,149,143,141,136,128,126,126,126,125,123,121,119,119,119,119,119,119,119,119,119,119,119,118,118,118,118,118,118,118,118,118,118,118,118,118,117,111,96],"timestamp_mouse":[15,34,54,73,94,115,134,155,173,194,214,233,253,273,293,314,335,355,375,395,414,435,454,474,495,515,535,554,573,594,614,634,655,674,694,714,734,755,774,793,815,834,854,874,894,915,933,953,973,994,1015,1035,1055,1074,1094,1114,1135,1155,1174,1194,1214,1234,1255,1273,1294,1315,1335,1355,1374,1394,1414,1434,1455,1474,1495,1513,1534,1555,1574,1595,1615,1634,1655,1674,1694,1715,1734,1755,1774,1794,1813,1833,1855,1873,1895],"xSR":741.5,"ySR":481,"xT1":424.9,"yT1":0,"xT2":1058.1,"yT2":0,"toosoon":0,"cond_shown":"randomdotsizeEA","ratio_trial":500,"smaller_num":"9","larger_num":"18","correct_side":2,"subjID":"miguelangelpachonpinzon","gender":"0","age":"11","school":"6"},{"start_time":1551900548647,"click_time":1551900549766,"finger_time":1551900549287,"fix_duration":1259.0973068043209,"trial":29,"RT":640,"MT":479,"sideResp":2,"stimulus":"img/500/randomdotsizeEA/L/11_Ratio_500_L_12_R_6.png","xmouse":[789,789,789,789,789,789,789,789,789,789,789,789,789,789,789,789,789,789,789,789,789,789,789,789,789,789,789,789,789,789,789,792,798,801,807,818,831,874,902,950,966,1014,1083,1114,1134,1151,1164,1177,1181,1184,1184,1185,1183,1180,1172,1156],"ymouse":[501,501,501,501,501,501,501,501,501,501,501,501,501,501,501,501,501,501,501,501,501,501,501,501,501,501,501,501,501,500,496,475,437,421,405,385,364,319,300,266,255,220,166,149,138,128,120,107,99,89,85,75,72,71,69,69],"timestamp_mouse":[20,43,58,79,99,118,139,159,180,200,220,238,258,280,300,320,339,359,378,400,419,440,458,478,499,520,540,560,580,598,619,640,658,679,699,719,738,759,778,798,819,840,858,880,900,919,938,958,979,999,1018,1039,1059,1079,1100,1119],"xSR":741.5,"ySR":481,"xT1":424.9,"yT1":0,"xT2":1058.1,"yT2":0,"toosoon":0,"cond_shown":"randomdotsizeEA","ratio_trial":500,"smaller_num":"6","larger_num":"12","correct_side":1,"subjID":"miguelangelpachonpinzon","gender":"0","age":"11","school":"6"},{"start_time":1551900551613,"click_time":1551900552546,"finger_time":1551900552206,"fix_duration":984.6674966997575,"trial":30,"RT":593,"MT":340,"sideResp":2,"stimulus":"img/750/equaldotanddens/R/4_Ratio_750_L_15_R_20.png","xmouse":[800,800,800,800,800,800,800,800,800,800,800,800,800,800,800,800,800,800,800,800,800,800,800,800,800,800,800,816,838,944,1002,1012,1018,1021,1022,1027,1033,1040,1052,1067,1068,1073,1076,1081,1097,1103,1109],"ymouse":[511,511,511,511,511,511,511,511,511,511,511,511,511,511,511,511,511,511,511,511,511,511,511,511,511,511,511,506,490,381,273,242,209,179,157,147,141,135,131,125,123,121,119,115,105,102,99],"timestamp_mouse":[13,37,53,72,93,113,133,153,174,193,213,233,253,272,293,313,334,353,373,394,414,432,452,474,494,513,534,553,573,593,613,634,653,674,693,713,734,753,772,793,813,833,854,874,892,913,933],"xSR":741.5,"ySR":481,"xT1":424.9,"yT1":0,"xT2":1058.1,"yT2":0,"toosoon":0,"cond_shown":"equaldotanddens","ratio_trial":750,"smaller_num":"15","larger_num":"20","correct_side":2,"subjID":"miguelangelpachonpinzon","gender":"0","age":"11","school":"6"},{"start_time":1551900554695,"click_time":1551900555706,"finger_time":1551900555586,"fix_duration":1226.6381418192168,"trial":31,"RT":891,"MT":120,"sideResp":2,"stimulus":"img/750/randomdotsizeEA/L/10_Ratio_750_L_4_R_3.png","xmouse":[813,813,813,813,813,813,813,813,813,813,813,813,813,813,813,813,813,813,813,813,813,813,813,813,813,813,813,813,812,810,807,806,806,806,806,806,806,806,806,806,806,806,809,823,843,911,949,985,1012,1046,1076],"ymouse":[521,521,521,521,521,521,521,521,521,521,521,521,521,521,521,521,521,521,521,521,521,521,521,521,521,521,521,521,520,516,509,507,507,507,507,507,507,507,507,507,507,506,502,494,480,417,367,298,229,137,67],"timestamp_mouse":[10,39,51,71,91,111,131,151,172,192,212,231,251,272,292,311,330,350,370,390,410,430,452,470,490,511,531,551,572,591,610,631,652,672,690,712,731,752,771,791,812,831,851,871,891,911,931,952,970,990,1011],"xSR":741.5,"ySR":481,"xT1":424.9,"yT1":0,"xT2":1058.1,"yT2":0,"toosoon":0,"cond_shown":"randomdotsizeEA","ratio_trial":750,"smaller_num":"3","larger_num":"4","correct_side":1,"subjID":"miguelangelpachonpinzon","gender":"0","age":"11","school":"6"},{"start_time":1551900557508,"click_time":1551900558406,"finger_time":1551900558126,"fix_duration":540.9538408466051,"trial":32,"RT":618,"MT":280,"sideResp":1,"stimulus":"img/500/equaldotsize/L/13_Ratio_500_L_12_R_6.png","xmouse":[800,800,800,800,800,800,800,800,800,800,800,800,800,800,800,800,800,800,800,800,800,800,800,800,800,800,800,799,798,790,783,774,760,740,683,659,636,602,578,528,512,502,496,493,490],"ymouse":[501,501,501,501,501,501,501,501,501,501,501,501,501,501,501,501,501,501,501,501,501,501,501,501,501,501,501,501,498,484,471,456,434,398,316,280,253,214,189,145,131,121,110,101,89],"timestamp_mouse":[19,41,57,79,97,117,139,158,177,197,219,237,257,278,297,317,339,359,378,399,419,437,459,477,498,518,538,558,578,598,618,637,658,679,697,718,739,758,778,797,818,838,859,879,898],"xSR":741.5,"ySR":481,"xT1":424.9,"yT1":0,"xT2":1058.1,"yT2":0,"toosoon":0,"cond_shown":"equaldotsize","ratio_trial":500,"smaller_num":"6","larger_num":"12","correct_side":1,"subjID":"miguelangelpachonpinzon","gender":"0","age":"11","school":"6"},{"start_time":1551900559627,"click_time":1551900560466,"finger_time":1551900560286,"fix_duration":340.7334772689791,"trial":33,"RT":659,"MT":180,"sideResp":1,"stimulus":"img/250/randomdotsizeEA/L/2_Ratio_250_L_16_R_4.png","xmouse":[809,809,809,809,809,809,809,809,809,809,809,809,809,809,809,809,809,809,809,809,809,809,809,809,809,809,809,809,809,808,799,793,766,681,640,599,565,539,507,497,489,475],"ymouse":[537,537,537,537,537,537,537,537,537,537,537,537,537,537,537,537,537,537,537,537,537,537,537,537,537,537,537,537,537,531,511,503,471,402,366,325,278,228,159,137,118,90],"timestamp_mouse":[18,53,58,80,98,118,139,160,178,200,219,238,260,278,300,319,339,359,379,400,418,438,459,480,500,518,540,560,579,598,619,640,659,679,700,720,739,759,779,799,819,839],"xSR":741.5,"ySR":481,"xT1":424.9,"yT1":0,"xT2":1058.1,"yT2":0,"toosoon":0,"cond_shown":"randomdotsizeEA","ratio_trial":250,"smaller_num":"4","larger_num":"16","correct_side":1,"subjID":"miguelangelpachonpinzon","gender":"0","age":"11","school":"6"},{"start_time":1551900564278,"click_time":1551900565226,"finger_time":1551900564827,"fix_duration":1170.7940766040401,"trial":34,"RT":549,"MT":399,"sideResp":1,"stimulus":"img/250/equaldotsize/L/1_Ratio_250_L_8_R_2.png","xmouse":[800,800,800,800,800,800,800,800,800,800,800,800,800,800,800,800,800,800,800,800,800,800,800,800,800,797,774,748,698,678,624,576,567,560,558,556,554,552,552,552,552,552,552,552,552,552,552,516],"ymouse":[555,555,555,555,555,555,555,555,555,555,555,555,555,555,555,555,555,555,555,555,555,555,555,555,555,546,491,430,310,265,148,46,26,15,12,9,2,0,0,0,0,0,0,0,0,0,0,2],"timestamp_mouse":[13,44,48,68,88,108,130,149,170,189,209,230,249,268,289,308,328,348,369,389,408,428,448,469,489,508,529,549,568,588,609,628,648,668,688,708,728,749,769,788,809,828,848,868,889,908,929,948],"xSR":741.5,"ySR":481,"xT1":424.9,"yT1":0,"xT2":1058.1,"yT2":0,"toosoon":0,"cond_shown":"equaldotsize","ratio_trial":250,"smaller_num":"2","larger_num":"8","correct_side":1,"subjID":"miguelangelpachonpinzon","gender":"0","age":"11","school":"6"},{"start_time":1551900566411,"click_time":1551900567328,"finger_time":1551900567027,"fix_duration":263.2420279614903,"trial":35,"RT":616,"MT":301,"sideResp":2,"stimulus":"img/500/randomdotsizeEA/R/14_Ratio_500_L_5_R_10.png","xmouse":[808,808,808,808,808,808,808,808,808,808,808,808,808,808,808,808,808,808,808,808,808,808,808,808,808,808,808,808,809,828,846,889,922,944,973,978,981,985,990,1007,1018,1030,1046,1054,1063,1070],"ymouse":[506,506,506,506,506,506,506,506,506,506,506,506,506,506,506,506,506,506,506,506,506,506,506,506,506,506,506,506,506,493,475,405,346,300,231,212,200,191,184,168,152,136,114,107,100,94],"timestamp_mouse":[16,42,55,75,96,115,136,155,176,195,217,236,255,276,296,315,335,355,376,395,416,436,455,477,496,516,536,556,576,595,616,635,657,676,695,715,735,756,775,796,816,836,855,876,895,916],"xSR":741.5,"ySR":481,"xT1":424.9,"yT1":0,"xT2":1058.1,"yT2":0,"toosoon":0,"cond_shown":"randomdotsizeEA","ratio_trial":500,"smaller_num":"5","larger_num":"10","correct_side":2,"subjID":"miguelangelpachonpinzon","gender":"0","age":"11","school":"6"},{"start_time":1551900568769,"click_time":1551900569488,"finger_time":1551900569246,"fix_duration":621.6397591624135,"trial":36,"RT":477,"MT":242,"sideResp":2,"stimulus":"img/250/equaldotanddens/R/11_Ratio_250_L_3_R_12.png","xmouse":[798,798,798,798,798,798,798,798,798,798,798,798,798,798,798,798,798,798,798,799,801,812,824,839,875,908,980,1011,1035,1050,1061,1072,1078,1083,1088,1088],"ymouse":[506,506,506,506,506,506,506,506,506,506,506,506,506,506,506,506,506,506,506,506,504,497,490,480,450,422,339,295,261,237,218,191,177,159,120,92],"timestamp_mouse":[17,42,57,78,97,118,138,158,178,198,217,237,257,277,298,317,338,357,379,398,418,437,458,477,497,518,538,558,577,598,618,638,657,677,698,719],"xSR":741.5,"ySR":481,"xT1":424.9,"yT1":0,"xT2":1058.1,"yT2":0,"toosoon":0,"cond_shown":"equaldotanddens","ratio_trial":250,"smaller_num":"3","larger_num":"12","correct_side":2,"subjID":"miguelangelpachonpinzon","gender":"0","age":"11","school":"6"},{"start_time":1551900571313,"click_time":1551900571966,"finger_time":1551900571767,"fix_duration":884.7865140837638,"trial":37,"RT":454,"MT":199,"sideResp":1,"stimulus":"img/500/equaldotsize/L/8_Ratio_500_L_8_R_4.png","xmouse":[812,812,812,812,812,812,812,812,812,812,812,812,812,812,812,812,812,812,812,812,811,806,793,768,706,657,626,592,564,535,529,526,523],"ymouse":[490,490,490,490,490,490,490,490,490,490,490,490,490,490,490,490,490,490,490,490,490,484,465,436,381,317,266,212,166,112,93,72,50],"timestamp_mouse":[13,40,53,74,94,113,134,153,173,194,213,234,254,273,294,314,334,353,373,394,413,435,454,474,493,513,533,553,573,593,613,634,653],"xSR":741.5,"ySR":481,"xT1":424.9,"yT1":0,"xT2":1058.1,"yT2":0,"toosoon":0,"cond_shown":"equaldotsize","ratio_trial":500,"smaller_num":"4","larger_num":"8","correct_side":1,"subjID":"miguelangelpachonpinzon","gender":"0","age":"11","school":"6"},{"start_time":1551900573263,"click_time":1551900574527,"finger_time":1551900573787,"fix_duration":335.0125133756254,"trial":38,"RT":524,"MT":740,"sideResp":1,"stimulus":"img/500/equaldotanddens/L/8_Ratio_500_L_8_R_4.png","xmouse":[799,799,799,799,799,799,799,799,799,799,799,799,799,799,799,799,799,799,799,799,799,799,798,797,794,790,787,779,771,763,751,725,675,656,641,627,615,600,591,580,564,544,519,507,497,488,484,482,482,480,480,479,479,479,479,479,481,484,487,488,488,488,492,495],"ymouse":[496,496,496,496,496,496,496,496,496,496,496,496,496,496,496,496,496,496,496,496,494,494,491,488,485,481,478,470,464,457,447,425,381,363,344,328,312,291,276,256,233,201,159,140,124,115,109,106,105,103,102,101,101,101,101,101,102,107,109,109,109,109,101,89],"timestamp_mouse":[12,25,43,63,84,104,123,143,164,184,204,225,244,264,284,303,323,343,364,384,403,424,443,464,484,504,524,543,564,584,604,624,643,664,683,703,723,744,764,784,804,824,843,864,884,904,924,943,963,983,1003,1024,1044,1063,1083,1103,1123,1143,1163,1183,1203,1224,1243,1264],"xSR":741.5,"ySR":481,"xT1":424.9,"yT1":0,"xT2":1058.1,"yT2":0,"toosoon":0,"cond_shown":"equaldotanddens","ratio_trial":500,"smaller_num":"4","larger_num":"8","correct_side":1,"subjID":"miguelangelpachonpinzon","gender":"0","age":"11","school":"6"},{"start_time":1551900576368,"click_time":1551900577327,"finger_time":1551900576666,"fix_duration":1200.9325121886143,"trial":39,"RT":298,"MT":661,"sideResp":2,"stimulus":"img/500/randomdotsizeEA/L/11_Ratio_500_L_12_R_6.png","xmouse":[776,776,776,776,776,776,776,776,776,776,776,775,766,750,728,715,700,697,694,689,685,675,669,664,660,656,650,649,648,647,647,647,648,654,669,693,781,839,898,944,987,1045,1068,1087,1109,1121,1143,1150],"ymouse":[546,546,546,546,546,546,546,546,546,546,546,546,542,532,517,506,491,485,480,472,463,441,428,415,408,401,390,389,387,385,385,385,384,383,380,375,361,343,317,291,261,216,198,180,155,140,108,94],"timestamp_mouse":[19,38,59,78,99,118,139,159,178,199,218,239,258,279,298,318,339,358,378,398,419,438,459,478,500,519,538,559,578,598,619,638,659,678,699,719,738,759,779,798,819,838,860,879,898,918,938,959],"xSR":741.5,"ySR":481,"xT1":424.9,"yT1":0,"xT2":1058.1,"yT2":0,"toosoon":0,"cond_shown":"randomdotsizeEA","ratio_trial":500,"smaller_num":"6","larger_num":"12","correct_side":1,"subjID":"miguelangelpachonpinzon","gender":"0","age":"11","school":"6"},{"start_time":1551900579641,"click_time":1551900580347,"finger_time":1551900580167,"fix_duration":1352.1242871197824,"trial":40,"RT":526,"MT":180,"sideResp":2,"stimulus":"img/500/equaldotanddens/R/6_Ratio_500_L_9_R_18.png","xmouse":[799,799,799,799,799,799,799,799,799,799,799,799,799,799,799,799,799,799,799,799,799,799,799,811,823,837,852,869,936,978,1016,1051,1064,1083,1089,1093],"ymouse":[515,515,515,515,515,515,515,515,515,515,515,515,515,515,515,515,515,515,515,515,515,514,513,503,493,482,464,438,342,280,225,173,149,113,100,87],"timestamp_mouse":[12,37,46,65,86,105,126,146,166,186,205,226,246,265,286,305,326,346,365,386,406,426,445,465,486,506,526,546,566,586,606,625,646,666,685,706],"xSR":741.5,"ySR":481,"xT1":424.9,"yT1":0,"xT2":1058.1,"yT2":0,"toosoon":0,"cond_shown":"equaldotanddens","ratio_trial":500,"smaller_num":"9","larger_num":"18","correct_side":2,"subjID":"miguelangelpachonpinzon","gender":"0","age":"11","school":"6"},{"start_time":1551900582178,"click_time":1551900583007,"finger_time":1551900582966,"fix_duration":970.2198316603533,"trial":41,"RT":788,"MT":41,"sideResp":1,"stimulus":"img/750/randomdotsizeEA/R/7_Ratio_750_L_3_R_4.png","xmouse":[808,808,808,808,808,808,808,808,808,808,808,808,808,808,808,808,808,808,808,808,808,808,808,808,808,808,808,808,808,808,808,808,808,808,808,808,803,789,759,709,638,485],"ymouse":[544,544,544,544,544,544,544,544,544,544,544,544,544,544,544,544,544,544,544,544,544,544,544,544,544,544,544,544,544,544,544,544,544,544,544,544,544,532,497,417,306,99],"timestamp_mouse":[10,39,48,69,89,108,129,148,168,189,209,229,248,268,288,308,330,349,369,388,409,429,449,468,489,508,528,549,569,589,608,629,648,669,689,709,728,749,770,788,809,829],"xSR":741.5,"ySR":481,"xT1":424.9,"yT1":0,"xT2":1058.1,"yT2":0,"toosoon":0,"cond_shown":"randomdotsizeEA","ratio_trial":750,"smaller_num":"3","larger_num":"4","correct_side":2,"subjID":"miguelangelpachonpinzon","gender":"0","age":"11","school":"6"},{"start_time":1551900584020,"click_time":1551900584807,"finger_time":1551900584647,"fix_duration":250,"trial":42,"RT":627,"MT":160,"sideResp":1,"stimulus":"img/250/equaldotanddens/L/3_Ratio_250_L_8_R_2.png","xmouse":[752,752,752,752,752,752,752,752,752,752,752,752,752,752,752,752,752,752,752,752,752,752,752,752,752,752,752,752,752,752,744,721,685,611,540,528,527,526,524,522],"ymouse":[563,563,563,563,563,563,563,563,563,563,563,563,563,563,563,563,563,563,563,563,563,563,563,563,563,563,563,563,563,562,520,449,368,235,129,112,108,106,103,98],"timestamp_mouse":[8,35,46,66,87,108,127,147,166,186,207,226,246,266,287,306,326,347,366,386,408,428,447,466,486,507,526,546,566,586,607,627,647,667,686,706,726,746,767,787],"xSR":741.5,"ySR":481,"xT1":424.9,"yT1":0,"xT2":1058.1,"yT2":0,"toosoon":0,"cond_shown":"equaldotanddens","ratio_trial":250,"smaller_num":"2","larger_num":"8","correct_side":1,"subjID":"miguelangelpachonpinzon","gender":"0","age":"11","school":"6"},{"start_time":1551900588257,"click_time":1551900589467,"finger_time":1551900588906,"fix_duration":250,"trial":43,"RT":649,"MT":561,"sideResp":1,"stimulus":"img/500/equaldotsize/L/4_Ratio_500_L_18_R_9.png","xmouse":[765,765,765,765,765,765,765,765,765,765,765,765,765,765,765,765,765,765,765,765,765,765,765,765,765,765,765,765,765,765,765,763,741,730,720,711,700,671,653,646,627,614,580,563,553,549,546,542,540,536,532,532,531,529,525,520,516,515,514,514,512],"ymouse":[534,534,534,534,534,534,534,534,534,534,534,534,534,534,534,534,534,534,534,534,534,534,534,534,534,534,534,534,534,534,533,531,517,509,496,485,472,435,404,394,363,339,291,262,240,226,213,184,172,161,154,153,151,147,139,125,116,110,109,106,98],"timestamp_mouse":[11,40,49,69,90,110,130,149,169,190,210,230,249,270,289,309,329,349,370,389,409,430,449,471,490,510,530,550,570,590,609,630,649,669,689,709,731,749,770,789,809,830,849,869,890,909,930,949,970,990,1009,1029,1049,1070,1089,1110,1130,1149,1169,1190,1210],"xSR":741.5,"ySR":481,"xT1":424.9,"yT1":0,"xT2":1058.1,"yT2":0,"toosoon":0,"cond_shown":"equaldotsize","ratio_trial":500,"smaller_num":"9","larger_num":"18","correct_side":1,"subjID":"miguelangelpachonpinzon","gender":"0","age":"11","school":"6"},{"start_time":1551900591371,"click_time":1551900592746,"finger_time":1551900592067,"fix_duration":983.2360408173225,"trial":44,"RT":696,"MT":679,"sideResp":2,"stimulus":"img/500/randomdotsizeEA/L/11_Ratio_500_L_12_R_6.png","xmouse":[802,802,802,802,802,802,802,802,802,802,802,802,802,802,802,802,802,802,802,802,802,802,802,802,802,802,802,802,802,802,802,802,802,811,828,843,875,897,913,923,928,935,936,941,950,958,979,992,1001,1007,1019,1046,1066,1076,1079,1082,1082,1082,1083,1083,1084,1084,1084,1084,1084,1084,1087,1090,1094],"ymouse":[501,501,501,501,501,501,501,501,501,501,501,501,501,501,501,501,501,501,501,501,501,501,501,501,501,501,501,501,501,501,501,501,501,493,480,468,420,369,333,316,306,289,284,276,260,248,220,205,195,187,175,149,130,121,117,116,115,115,115,114,113,113,113,113,113,113,109,104,96],"timestamp_mouse":[16,38,57,75,95,115,137,156,176,197,215,235,256,276,295,316,335,356,375,395,416,437,455,476,497,516,537,557,575,596,616,636,655,675,696,716,735,755,775,795,815,835,856,875,895,915,935,955,977,997,1015,1035,1055,1075,1095,1116,1136,1155,1176,1195,1216,1237,1255,1275,1296,1316,1336,1356,1375],"xSR":741.5,"ySR":481,"xT1":424.9,"yT1":0,"xT2":1058.1,"yT2":0,"toosoon":0,"cond_shown":"randomdotsizeEA","ratio_trial":500,"smaller_num":"6","larger_num":"12","correct_side":1,"subjID":"miguelangelpachonpinzon","gender":"0","age":"11","school":"6"},{"start_time":1551900594019,"click_time":1551900594687,"finger_time":1551900594406,"fix_duration":250,"trial":45,"RT":387,"MT":281,"sideResp":1,"stimulus":"img/750/equaldotanddens/L/13_Ratio_750_L_8_R_6.png","xmouse":[813,813,813,813,813,813,813,813,813,813,813,813,813,813,813,813,813,808,797,741,696,651,596,567,537,534,533,531,529,519,515,510,506,503],"ymouse":[539,539,539,539,539,539,539,539,539,539,539,539,539,539,539,539,539,530,509,420,366,317,262,231,193,185,178,169,162,136,127,111,101,96],"timestamp_mouse":[9,39,47,68,88,107,128,148,167,187,207,228,247,267,287,308,328,348,368,387,408,428,448,467,487,507,527,549,568,588,607,627,647,668],"xSR":741.5,"ySR":481,"xT1":424.9,"yT1":0,"xT2":1058.1,"yT2":0,"toosoon":0,"cond_shown":"equaldotanddens","ratio_trial":750,"smaller_num":"6","larger_num":"8","correct_side":1,"subjID":"miguelangelpachonpinzon","gender":"0","age":"11","school":"6"},{"start_time":1551900595685,"click_time":1551900596706,"finger_time":1551900596027,"fix_duration":416.8857239587789,"trial":46,"RT":342,"MT":679,"sideResp":1,"stimulus":"img/750/randomdotsizeEA/L/6_Ratio_750_L_24_R_18.png","xmouse":[825,825,825,825,825,825,825,825,825,825,825,825,825,825,825,825,808,772,713,691,636,600,595,589,583,579,575,572,570,566,563,557,554,550,550,550,566,573,577,577,577,575,573,572,571,570,569,566,556,548,538,519],"ymouse":[527,527,527,527,527,527,527,527,527,527,527,527,527,527,527,525,511,477,417,392,331,285,275,266,259,254,246,241,238,233,228,219,211,198,178,142,88,75,61,54,49,42,39,38,37,36,36,36,36,37,38,42],"timestamp_mouse":[5,22,43,61,82,101,121,141,161,181,201,221,242,261,282,302,322,342,361,382,402,422,441,461,482,501,521,541,561,582,601,621,641,661,682,702,721,741,762,781,801,821,841,861,881,902,921,941,961,981,1001,1021],"xSR":741.5,"ySR":481,"xT1":424.9,"yT1":0,"xT2":1058.1,"yT2":0,"toosoon":0,"cond_shown":"randomdotsizeEA","ratio_trial":750,"smaller_num":"18","larger_num":"24","correct_side":1,"subjID":"miguelangelpachonpinzon","gender":"0","age":"11","school":"6"},{"start_time":1551900598873,"click_time":1551900600506,"finger_time":1551900599467,"fix_duration":1165.067656307799,"trial":47,"RT":594,"MT":1039,"sideResp":1,"stimulus":"img/750/equaldotsize/L/9_Ratio_750_L_4_R_3.png","xmouse":[752,752,752,752,752,752,752,752,752,752,752,752,752,752,752,752,752,752,752,752,752,752,752,751,751,751,750,749,746,738,729,706,692,674,646,616,552,519,504,499,494,492,492,492,491,490,488,488,488,488,495,505,514,528,540,549,553,554,554,553,552,544,534,519,498,481,460,456,455,453,453,452,452,451,451,451,452,453,454,456,458,463],"ymouse":[573,573,573,573,573,573,573,573,573,573,573,573,573,573,573,573,573,573,573,573,573,573,573,570,568,564,559,554,545,523,504,462,441,417,385,352,307,293,282,280,277,276,276,275,275,275,274,274,274,267,257,227,211,195,183,174,165,161,156,155,153,146,143,140,137,135,131,130,130,128,128,128,127,126,125,122,119,117,117,113,107,97],"timestamp_mouse":[15,39,54,74,93,114,135,154,174,194,214,234,253,274,294,313,335,353,374,394,415,435,453,474,493,515,533,553,573,594,615,633,653,673,694,713,733,755,774,793,813,833,854,873,893,914,933,954,973,993,1014,1033,1053,1073,1094,1114,1134,1153,1173,1193,1214,1234,1253,1274,1294,1313,1333,1354,1375,1394,1413,1434,1453,1474,1494,1514,1533,1553,1574,1593,1613,1633],"xSR":741.5,"ySR":481,"xT1":424.9,"yT1":0,"xT2":1058.1,"yT2":0,"toosoon":0,"cond_shown":"equaldotsize","ratio_trial":750,"smaller_num":"3","larger_num":"4","correct_side":1,"subjID":"miguelangelpachonpinzon","gender":"0","age":"11","school":"6"},{"start_time":1551900602278,"click_time":1551900603206,"finger_time":1551900602647,"fix_duration":670.9241779366185,"trial":48,"RT":369,"MT":559,"sideResp":1,"stimulus":"img/500/equaldotsize/L/11_Ratio_500_L_12_R_6.png","xmouse":[784,784,783,783,783,783,783,783,783,783,783,783,783,783,783,780,772,766,762,759,759,759,759,759,756,750,728,707,674,626,550,472,456,449,447,446,442,436,434,432,431,430,434,441,450,455,472],"ymouse":[509,509,508,508,508,508,508,508,508,508,508,508,508,508,508,505,494,484,478,475,475,475,475,473,470,462,438,420,398,371,330,282,271,263,256,250,238,227,222,214,206,185,171,154,132,120,99],"timestamp_mouse":[9,41,48,69,89,108,128,148,169,189,210,228,248,268,289,309,329,348,369,388,409,429,448,469,488,509,528,550,569,588,609,630,648,670,689,710,728,749,769,788,808,828,848,869,888,908,928],"xSR":741.5,"ySR":481,"xT1":424.9,"yT1":0,"xT2":1058.1,"yT2":0,"toosoon":0,"cond_shown":"equaldotsize","ratio_trial":500,"smaller_num":"6","larger_num":"12","correct_side":1,"subjID":"miguelangelpachonpinzon","gender":"0","age":"11","school":"6"},{"start_time":1551900604908,"click_time":1551900605947,"finger_time":1551900605126,"fix_duration":760.4951636968159,"trial":49,"RT":218,"MT":821,"sideResp":2,"stimulus":"img/250/equaldotanddens/R/4_Ratio_250_L_3_R_12.png","xmouse":[771,771,771,771,771,771,771,771,770,750,724,698,675,651,613,601,592,583,569,553,549,547,546,545,542,540,540,539,539,549,560,574,595,625,743,814,883,935,1005,1087,1128,1156,1173,1181,1184,1182,1172,1168,1161,1150,1144,1140],"ymouse":[506,506,506,506,506,506,506,506,506,506,507,508,503,491,465,449,436,424,403,385,380,376,374,368,351,341,339,334,330,318,310,303,296,287,266,256,254,253,250,238,232,224,217,209,192,183,161,148,133,110,103,97],"timestamp_mouse":[18,38,58,78,99,119,139,158,178,198,218,239,258,278,298,320,338,359,378,398,419,439,458,478,498,518,539,558,579,598,618,639,659,679,698,718,739,758,780,798,819,839,858,879,899,920,938,959,979,998,1018,1039],"xSR":741.5,"ySR":481,"xT1":424.9,"yT1":0,"xT2":1058.1,"yT2":0,"toosoon":0,"cond_shown":"equaldotanddens","ratio_trial":250,"smaller_num":"3","larger_num":"12","correct_side":2,"subjID":"miguelangelpachonpinzon","gender":"0","age":"11","school":"6"},{"start_time":1551900610113,"click_time":1551900611387,"finger_time":1551900610687,"fix_duration":1104.8117054937422,"trial":50,"RT":574,"MT":700,"sideResp":1,"stimulus":"img/750/equaldotanddens/L/13_Ratio_750_L_8_R_6.png","xmouse":[795,795,795,795,795,795,795,795,795,795,795,795,795,795,795,795,795,795,795,795,795,795,795,793,785,779,773,765,743,705,687,667,652,651,651,651,651,651,651,651,651,651,651,651,651,651,651,651,650,617,602,589,580,572,558,553,549,545,540,533,527,521,509,494],"ymouse":[552,552,552,552,552,552,552,552,552,552,552,552,552,552,552,552,552,552,552,552,552,552,546,536,519,509,497,485,460,442,438,439,445,445,445,445,445,445,445,445,445,445,445,445,445,445,445,445,444,411,391,366,343,319,287,274,257,233,216,189,173,151,122,89],"timestamp_mouse":[13,42,53,73,93,114,133,154,173,193,214,234,253,273,294,314,335,353,373,395,413,434,453,473,493,514,534,553,574,593,614,634,653,673,694,714,734,754,773,794,814,834,854,874,894,913,934,953,973,993,1014,1033,1053,1073,1093,1113,1134,1153,1175,1193,1213,1233,1253,1274],"xSR":741.5,"ySR":481,"xT1":424.9,"yT1":0,"xT2":1058.1,"yT2":0,"toosoon":0,"cond_shown":"equaldotanddens","ratio_trial":750,"smaller_num":"6","larger_num":"8","correct_side":1,"subjID":"miguelangelpachonpinzon","gender":"0","age":"11","school":"6"},{"start_time":1551900615627,"click_time":1551900616646,"finger_time":1551900616227,"fix_duration":1080.7869634043138,"trial":51,"RT":600,"MT":419,"sideResp":1,"stimulus":"img/900/randomdotsizeEA/R/5_Ratio_900_L_9_R_10.png","xmouse":[825,825,825,825,825,825,825,825,825,825,825,825,824,824,823,821,820,819,815,814,812,811,811,810,810,810,810,810,810,811,812,816,822,845,857,871,883,890,903,903,903,898,892,867,848,821,789,736,602,536,450],"ymouse":[510,510,510,510,510,510,510,510,510,510,510,510,509,508,506,503,501,500,495,494,492,490,489,487,486,485,484,484,483,480,479,473,465,439,424,404,387,370,326,319,308,299,295,287,284,283,278,268,211,165,99],"timestamp_mouse":[20,44,60,80,99,119,139,160,179,199,220,239,259,279,299,319,339,359,379,400,419,441,459,479,499,519,539,560,579,600,619,639,660,680,699,720,740,759,779,800,819,839,859,879,899,920,940,959,979,999,1019],"xSR":741.5,"ySR":481,"xT1":424.9,"yT1":0,"xT2":1058.1,"yT2":0,"toosoon":0,"cond_shown":"randomdotsizeEA","ratio_trial":900,"smaller_num":"9","larger_num":"10","correct_side":2,"subjID":"miguelangelpachonpinzon","gender":"0","age":"11","school":"6"},{"start_time":1551900617900,"click_time":1551900619066,"finger_time":1551900618506,"fix_duration":371.5339186423698,"trial":52,"RT":606,"MT":560,"sideResp":2,"stimulus":"img/750/randomdotsizeEA/L/8_Ratio_750_L_4_R_3.png","xmouse":[805,805,805,805,805,805,805,805,805,805,805,805,805,805,805,805,805,805,805,805,805,805,805,805,806,806,806,807,808,809,819,827,834,841,849,862,869,877,895,913,948,964,981,995,1005,1016,1017,1018,1019,1020,1021,1021,1021,1021,1024,1028,1036,1042,1060],"ymouse":[512,511,511,511,511,510,510,508,508,508,507,507,507,507,507,507,506,506,504,503,499,497,496,495,494,492,491,490,488,485,467,449,428,407,387,351,329,303,241,199,122,96,72,54,39,25,22,20,17,16,15,15,15,15,16,19,24,26,34],"timestamp_mouse":[9,40,46,66,87,106,128,148,167,187,206,227,246,267,286,307,326,346,366,386,408,427,447,467,488,506,527,546,566,586,606,626,646,666,687,706,728,747,767,786,806,827,846,867,887,906,926,947,966,987,1006,1026,1048,1066,1086,1106,1127,1147,1166],"xSR":741.5,"ySR":481,"xT1":424.9,"yT1":0,"xT2":1058.1,"yT2":0,"toosoon":0,"cond_shown":"randomdotsizeEA","ratio_trial":750,"smaller_num":"3","larger_num":"4","correct_side":1,"subjID":"miguelangelpachonpinzon","gender":"0","age":"11","school":"6"},{"start_time":1551900620982,"click_time":1551900622027,"finger_time":1551900621627,"fix_duration":1014.5597156797465,"trial":53,"RT":645,"MT":400,"sideResp":1,"stimulus":"img/250/equaldotanddens/L/1_Ratio_250_L_8_R_2.png","xmouse":[818,818,818,818,818,818,817,817,817,817,817,817,817,817,817,817,817,817,817,817,817,817,817,817,817,817,817,817,817,816,812,793,779,758,746,736,705,679,655,628,606,581,575,569,566,562,553,547,543,541,535,525,518],"ymouse":[520,520,520,520,520,520,519,519,519,519,518,518,517,517,517,516,516,516,516,516,516,516,516,516,516,516,516,516,514,511,507,485,468,439,418,397,343,307,278,248,221,180,165,144,135,112,73,55,42,33,25,14,10],"timestamp_mouse":[14,30,45,64,84,104,125,145,165,184,205,224,244,264,284,304,325,344,365,384,404,424,445,465,485,505,524,544,565,585,605,624,645,664,684,704,724,745,764,784,804,824,844,864,885,905,924,944,964,984,1005,1024,1045],"xSR":741.5,"ySR":481,"xT1":424.9,"yT1":0,"xT2":1058.1,"yT2":0,"toosoon":0,"cond_shown":"equaldotanddens","ratio_trial":250,"smaller_num":"2","larger_num":"8","correct_side":1,"subjID":"miguelangelpachonpinzon","gender":"0","age":"11","school":"6"},{"start_time":1551900623410,"click_time":1551900624306,"finger_time":1551900624067,"fix_duration":581.687261140454,"trial":54,"RT":657,"MT":239,"sideResp":1,"stimulus":"img/500/equaldotanddens/L/11_Ratio_500_L_12_R_6.png","xmouse":[812,812,812,812,812,812,812,812,812,812,812,812,812,812,812,812,812,812,812,812,812,812,812,812,812,812,812,812,812,812,812,806,789,741,674,649,633,620,608,577,565,548,540,532,523],"ymouse":[547,547,547,547,547,547,547,547,547,547,547,547,547,547,547,547,547,547,547,547,547,547,547,547,547,547,547,547,547,547,542,524,462,342,225,194,174,156,139,104,89,66,54,47,40],"timestamp_mouse":[16,40,56,76,96,117,137,156,178,197,218,238,257,276,297,317,338,357,377,397,417,437,457,477,496,516,536,556,577,596,616,637,657,676,696,717,736,756,777,797,816,836,857,877,896],"xSR":741.5,"ySR":481,"xT1":424.9,"yT1":0,"xT2":1058.1,"yT2":0,"toosoon":0,"cond_shown":"equaldotanddens","ratio_trial":500,"smaller_num":"6","larger_num":"12","correct_side":1,"subjID":"miguelangelpachonpinzon","gender":"0","age":"11","school":"6"},{"start_time":1551900626557,"click_time":1551900627847,"finger_time":1551900627227,"fix_duration":1448.58209324246,"trial":55,"RT":670,"MT":620,"sideResp":2,"stimulus":"img/750/equaldotsize/R/15_Ratio_750_L_9_R_12.png","xmouse":[797,797,797,798,798,798,798,798,798,798,798,798,798,798,798,798,798,798,798,798,798,798,798,798,798,798,798,798,798,798,798,801,811,819,828,837,841,852,859,867,875,885,906,919,931,952,968,1001,1020,1033,1045,1052,1055,1055,1055,1055,1055,1055,1055,1055,1055,1057,1057,1058,1059],"ymouse":[518,518,518,518,518,518,518,518,518,518,518,518,518,518,518,518,518,518,518,518,518,518,518,518,518,518,518,518,518,518,518,510,485,460,434,390,360,286,254,226,203,185,156,144,134,118,108,85,72,62,57,54,54,54,54,54,54,54,54,54,54,54,55,57,61],"timestamp_mouse":[10,42,50,70,89,111,131,149,169,191,210,229,250,269,289,311,330,350,370,389,410,430,449,470,489,511,530,550,571,589,610,629,649,670,689,710,730,749,769,789,810,829,849,870,890,909,929,950,970,990,1011,1031,1050,1070,1090,1110,1129,1150,1171,1190,1210,1229,1249,1270,1289],"xSR":741.5,"ySR":481,"xT1":424.9,"yT1":0,"xT2":1058.1,"yT2":0,"toosoon":0,"cond_shown":"equaldotsize","ratio_trial":750,"smaller_num":"9","larger_num":"12","correct_side":2,"subjID":"miguelangelpachonpinzon","gender":"0","age":"11","school":"6"},{"start_time":1551900629058,"click_time":1551900630006,"finger_time":1551900629648,"fix_duration":250,"trial":56,"RT":590,"MT":358,"sideResp":2,"stimulus":"img/900/equaldotanddens/R/15_Ratio_900_L_9_R_10.png","xmouse":[772,772,772,772,772,772,772,772,772,772,772,772,772,769,767,767,766,765,764,764,764,764,764,764,764,764,764,764,770,784,818,850,904,927,950,959,965,971,972,975,981,988,1013,1023,1035,1043,1052,1074],"ymouse":[495,495,495,495,495,495,495,495,495,495,495,495,495,495,495,494,494,494,493,493,493,493,493,493,493,493,493,491,485,474,433,386,291,235,181,146,124,102,97,93,84,78,60,53,47,46,43,39],"timestamp_mouse":[10,45,48,68,88,109,130,148,169,190,210,229,248,269,289,309,328,349,370,390,408,429,449,468,488,508,529,549,570,590,609,629,648,668,688,709,728,748,768,788,809,829,848,869,890,908,928,948],"xSR":741.5,"ySR":481,"xT1":424.9,"yT1":0,"xT2":1058.1,"yT2":0,"toosoon":0,"cond_shown":"equaldotanddens","ratio_trial":900,"smaller_num":"9","larger_num":"10","correct_side":2,"subjID":"miguelangelpachonpinzon","gender":"0","age":"11","school":"6"},{"start_time":1551900632129,"click_time":1551900633006,"finger_time":1551900632806,"fix_duration":1300.7440643520151,"trial":57,"RT":677,"MT":200,"sideResp":2,"stimulus":"img/900/equaldotsize/R/6_Ratio_900_L_9_R_10.png","xmouse":[811,811,811,811,811,811,811,811,811,811,811,811,811,811,811,811,811,811,811,811,811,811,811,811,811,811,810,810,816,820,824,830,841,879,928,928,988,1012,1056,1070,1083,1093,1099,1104],"ymouse":[518,518,518,518,518,518,518,518,518,518,518,518,518,518,518,518,518,518,518,518,518,518,518,518,518,518,518,517,512,509,505,500,488,448,388,388,305,269,199,171,146,122,101,59],"timestamp_mouse":[19,37,58,78,98,119,139,158,179,198,217,239,259,278,299,318,338,358,377,399,419,438,459,477,497,518,538,558,577,597,619,638,658,677,697,718,739,759,777,797,818,838,858,877],"xSR":741.5,"ySR":481,"xT1":424.9,"yT1":0,"xT2":1058.1,"yT2":0,"toosoon":0,"cond_shown":"equaldotsize","ratio_trial":900,"smaller_num":"9","larger_num":"10","correct_side":2,"subjID":"miguelangelpachonpinzon","gender":"0","age":"11","school":"6"},{"start_time":1551900635176,"click_time":1551900636406,"finger_time":1551900635887,"fix_duration":1408.4379767898663,"trial":58,"RT":711,"MT":519,"sideResp":1,"stimulus":"img/500/randomdotsizeEA/L/4_Ratio_500_L_18_R_9.png","xmouse":[818,818,818,818,818,818,818,818,818,818,818,818,818,818,818,818,818,818,818,818,818,818,818,818,818,818,818,818,818,818,818,806,794,780,767,761,749,741,731,721,712,693,680,669,649,632,599,584,567,551,533,507,502,500,497,496,495,495,495,494,491,484],"ymouse":[538,538,538,538,538,538,538,538,538,538,538,538,538,538,538,538,538,538,538,538,538,538,538,538,538,538,538,538,538,538,538,530,516,501,484,474,451,435,418,401,383,346,329,315,292,274,237,218,198,179,161,135,128,124,119,117,116,116,116,114,110,99],"timestamp_mouse":[14,30,51,70,91,111,131,150,172,190,212,231,251,270,291,311,330,351,370,391,411,432,451,471,491,511,530,552,571,592,611,630,650,671,691,710,731,751,771,792,811,831,851,872,891,911,932,951,971,991,1011,1030,1050,1070,1091,1111,1131,1150,1172,1191,1212,1230],"xSR":741.5,"ySR":481,"xT1":424.9,"yT1":0,"xT2":1058.1,"yT2":0,"toosoon":0,"cond_shown":"randomdotsizeEA","ratio_trial":500,"smaller_num":"9","larger_num":"18","correct_side":1,"subjID":"miguelangelpachonpinzon","gender":"0","age":"11","school":"6"},{"start_time":1551900640131,"click_time":1551900641167,"finger_time":1551900640807,"fix_duration":982.652008975838,"trial":59,"RT":676,"MT":360,"sideResp":2,"stimulus":"img/250/equaldotanddens/R/4_Ratio_250_L_3_R_12.png","xmouse":[787,787,787,787,787,787,787,787,787,787,787,787,787,787,787,787,787,787,787,787,787,787,787,787,787,787,787,787,787,787,787,788,797,873,923,973,1021,1041,1060,1064,1065,1066,1066,1074,1082,1083,1084,1083,1082,1082,1082,1082],"ymouse":[544,544,544,544,544,544,544,544,544,544,544,544,544,544,544,544,544,544,544,544,544,544,544,544,544,544,544,544,544,544,544,537,527,460,417,381,344,327,293,276,260,245,230,186,149,141,124,120,110,107,103,97],"timestamp_mouse":[17,39,56,77,95,116,136,156,177,196,216,236,257,276,296,316,336,357,376,396,417,436,456,475,497,516,537,555,577,595,616,636,657,676,695,716,735,756,776,796,817,836,857,875,895,915,936,956,976,996,1015,1035],"xSR":741.5,"ySR":481,"xT1":424.9,"yT1":0,"xT2":1058.1,"yT2":0,"toosoon":0,"cond_shown":"equaldotanddens","ratio_trial":250,"smaller_num":"3","larger_num":"12","correct_side":2,"subjID":"miguelangelpachonpinzon","gender":"0","age":"11","school":"6"},{"start_time":1551900643147,"click_time":1551900644188,"finger_time":1551900643847,"fix_duration":1038.3714581545519,"trial":60,"RT":700,"MT":341,"sideResp":1,"stimulus":"img/900/equaldotsize/L/4_Ratio_900_L_20_R_18.png","xmouse":[815,815,815,815,815,815,815,815,815,815,815,815,815,815,815,815,815,815,815,815,815,815,815,815,815,815,815,815,815,815,815,815,815,815,811,801,790,780,765,758,748,735,713,652,622,615,600,592,574,563,549,534,520],"ymouse":[517,517,517,517,517,517,517,517,517,517,517,517,517,517,517,517,517,517,517,517,517,517,517,517,517,517,517,517,517,517,517,517,517,517,501,477,461,449,432,424,409,386,347,243,201,188,157,138,108,97,87,81,76],"timestamp_mouse":[11,27,40,60,79,99,120,139,159,179,199,221,241,260,279,300,320,341,359,380,399,419,440,460,479,500,520,539,561,580,599,621,639,659,681,700,721,739,759,780,800,819,840,859,879,899,920,941,959,980,1000,1019,1040],"xSR":741.5,"ySR":481,"xT1":424.9,"yT1":0,"xT2":1058.1,"yT2":0,"toosoon":0,"cond_shown":"equaldotsize","ratio_trial":900,"smaller_num":"18","larger_num":"20","correct_side":1,"subjID":"miguelangelpachonpinzon","gender":"0","age":"11","school":"6"},{"start_time":1551900646124,"click_time":1551900646967,"finger_time":1551900646707,"fix_duration":1114.1080246221484,"trial":61,"RT":583,"MT":260,"sideResp":2,"stimulus":"img/900/equaldotsize/R/12_Ratio_900_L_18_R_20.png","xmouse":[794,794,794,794,794,794,794,794,794,794,794,794,794,794,794,794,794,794,794,794,794,794,794,794,794,794,792,789,789,796,807,822,843,865,922,957,988,1023,1047,1084,1099,1113,1124],"ymouse":[525,525,525,525,525,525,525,525,525,525,525,525,525,525,525,525,525,525,525,525,525,525,525,526,526,525,520,513,506,476,455,429,398,370,292,249,212,175,154,126,113,102,92],"timestamp_mouse":[9,22,44,62,83,102,123,142,164,184,203,222,243,264,284,302,324,343,362,383,404,423,442,462,482,504,523,543,564,583,603,623,642,663,683,702,722,743,763,782,803,822,842],"xSR":741.5,"ySR":481,"xT1":424.9,"yT1":0,"xT2":1058.1,"yT2":0,"toosoon":0,"cond_shown":"equaldotsize","ratio_trial":900,"smaller_num":"18","larger_num":"20","correct_side":2,"subjID":"miguelangelpachonpinzon","gender":"0","age":"11","school":"6"},{"start_time":1551900648099,"click_time":1551900649367,"finger_time":1551900649006,"fix_duration":250,"trial":62,"RT":907,"MT":361,"sideResp":2,"stimulus":"img/900/equaldotanddens/R/3_Ratio_900_L_9_R_10.png","xmouse":[809,809,809,809,809,809,809,809,809,809,809,809,809,809,809,809,809,809,809,809,809,809,809,811,812,814,814,814,814,814,814,814,814,814,815,815,815,815,815,815,815,813,800,781,759,719,697,683,683,689,721,740,761,789,827,910,941,974,986,994,1010,1025,1049,1069],"ymouse":[528,528,528,528,528,528,528,528,528,528,528,528,528,528,528,528,528,528,528,528,528,528,528,528,528,528,528,528,528,528,528,528,528,528,528,528,528,528,528,528,528,527,520,511,495,448,411,357,344,304,250,234,221,205,182,122,99,82,78,77,74,72,65,57],"timestamp_mouse":[7,39,48,67,88,107,127,148,169,188,208,227,248,268,288,308,329,348,367,388,409,428,448,468,488,507,527,548,567,588,607,629,648,668,687,707,728,747,768,787,807,828,848,868,888,907,928,948,967,988,1007,1028,1047,1069,1088,1108,1128,1147,1169,1189,1207,1228,1247,1268],"xSR":741.5,"ySR":481,"xT1":424.9,"yT1":0,"xT2":1058.1,"yT2":0,"toosoon":0,"cond_shown":"equaldotanddens","ratio_trial":900,"smaller_num":"9","larger_num":"10","correct_side":2,"subjID":"miguelangelpachonpinzon","gender":"0","age":"11","school":"6"},{"start_time":1551900650672,"click_time":1551900651906,"finger_time":1551900651387,"fix_duration":525.9423748814488,"trial":63,"RT":715,"MT":519,"sideResp":2,"stimulus":"img/750/randomdotsizeEA/R/12_Ratio_750_L_3_R_4.png","xmouse":[761,761,761,761,761,761,761,761,761,761,761,761,761,761,761,761,761,761,761,761,761,758,755,755,755,755,755,755,755,755,755,755,754,752,745,735,705,686,643,618,596,571,564,562,561,560,559,559,559,559,561,587,612,644,699,759,890,956,1009,1066,1089,1128],"ymouse":[518,518,518,518,518,518,518,518,518,518,518,518,518,518,518,518,518,518,518,518,518,518,518,518,518,518,518,518,518,518,518,517,513,506,492,477,432,407,361,337,319,293,283,279,275,272,269,269,268,266,262,247,232,217,200,183,163,153,142,126,114,92],"timestamp_mouse":[15,34,55,74,94,115,135,154,174,194,216,235,256,274,295,314,334,356,375,394,415,435,455,474,495,514,535,554,574,595,615,635,655,674,694,715,734,756,775,795,815,835,855,874,896,916,935,955,974,994,1014,1034,1055,1075,1094,1116,1134,1154,1174,1195,1214,1234],"xSR":741.5,"ySR":481,"xT1":424.9,"yT1":0,"xT2":1058.1,"yT2":0,"toosoon":0,"cond_shown":"randomdotsizeEA","ratio_trial":750,"smaller_num":"3","larger_num":"4","correct_side":2,"subjID":"miguelangelpachonpinzon","gender":"0","age":"11","school":"6"},{"start_time":1551900653302,"click_time":1551900654167,"finger_time":1551900653807,"fix_duration":353.5188049712942,"trial":64,"RT":505,"MT":360,"sideResp":2,"stimulus":"img/900/equaldotanddens/R/5_Ratio_900_L_9_R_10.png","xmouse":[814,814,814,814,814,814,814,814,814,814,814,814,814,814,814,814,814,814,814,814,814,814,814,814,814,814,824,845,854,886,919,932,941,950,959,978,989,999,1012,1027,1042,1045,1054,1067],"ymouse":[493,493,493,493,493,493,493,493,493,493,493,493,493,493,493,493,493,493,493,493,493,493,493,493,490,479,460,409,389,319,246,216,194,172,151,114,95,79,64,47,38,38,34,29],"timestamp_mouse":[10,41,45,65,84,105,126,144,165,185,204,225,246,264,285,305,324,344,365,385,405,424,445,464,486,505,526,545,566,585,604,624,645,665,685,704,725,745,764,784,804,824,845,865],"xSR":741.5,"ySR":481,"xT1":424.9,"yT1":0,"xT2":1058.1,"yT2":0,"toosoon":0,"cond_shown":"equaldotanddens","ratio_trial":900,"smaller_num":"9","larger_num":"10","correct_side":2,"subjID":"miguelangelpachonpinzon","gender":"0","age":"11","school":"6"},{"start_time":1551900655038,"click_time":1551900656106,"finger_time":1551900655707,"fix_duration":250,"trial":65,"RT":669,"MT":399,"sideResp":1,"stimulus":"img/250/randomdotsizeEA/L/7_Ratio_250_L_8_R_2.png","xmouse":[802,802,802,802,802,802,802,802,802,802,802,802,802,802,802,802,802,802,802,802,802,802,802,802,802,802,802,802,802,801,799,791,767,682,625,562,507,463,412,405,403,403,405,409,410,412,413,413,414,415,416,418,424,428],"ymouse":[546,546,546,546,546,546,546,546,546,546,546,546,546,546,546,546,546,546,546,546,546,546,546,546,546,546,546,546,546,546,546,538,504,393,328,258,193,145,82,69,60,49,39,26,19,10,5,2,1,0,0,0,1,5],"timestamp_mouse":[11,40,49,68,89,109,128,148,169,189,210,230,248,268,289,308,328,350,368,389,409,429,450,469,489,509,528,549,569,588,610,628,649,669,689,709,729,748,768,789,809,828,850,869,888,908,928,949,968,988,1008,1029,1048,1068],"xSR":741.5,"ySR":481,"xT1":424.9,"yT1":0,"xT2":1058.1,"yT2":0,"toosoon":0,"cond_shown":"randomdotsizeEA","ratio_trial":250,"smaller_num":"2","larger_num":"8","correct_side":1,"subjID":"miguelangelpachonpinzon","gender":"0","age":"11","school":"6"},{"start_time":1551900657747,"click_time":1551900658827,"finger_time":1551900658607,"fix_duration":498.50683966746277,"trial":66,"RT":860,"MT":220,"sideResp":2,"stimulus":"img/250/equaldotsize/R/8_Ratio_250_L_1_R_4.png","xmouse":[785,785,785,785,785,785,785,785,785,785,785,785,785,785,785,785,785,785,785,785,785,785,785,785,787,794,800,803,806,806,806,806,806,806,806,806,806,806,806,806,806,807,807,829,860,904,955,974,991,997,1002,1009,1019,1048,1060],"ymouse":[496,496,496,496,496,496,496,496,496,496,496,496,496,496,496,496,496,496,496,496,496,496,496,496,497,494,493,492,491,491,491,491,491,491,491,491,491,491,491,491,491,490,489,467,425,360,265,221,172,151,130,113,95,44,23],"timestamp_mouse":[1,19,42,59,79,101,121,141,159,179,201,219,239,260,281,300,319,340,361,381,400,421,440,460,479,500,520,541,560,579,599,620,640,660,679,701,721,741,760,780,799,819,840,860,881,900,920,940,960,979,1000,1020,1040,1059,1080],"xSR":741.5,"ySR":481,"xT1":424.9,"yT1":0,"xT2":1058.1,"yT2":0,"toosoon":0,"cond_shown":"equaldotsize","ratio_trial":250,"smaller_num":"1","larger_num":"4","correct_side":2,"subjID":"miguelangelpachonpinzon","gender":"0","age":"11","school":"6"},{"start_time":1551900660591,"click_time":1551900661727,"finger_time":1551900661327,"fix_duration":1003.7083346629681,"trial":67,"RT":736,"MT":400,"sideResp":2,"stimulus":"img/750/randomdotsizeEA/R/15_Ratio_750_L_9_R_12.png","xmouse":[817,817,817,817,817,817,817,817,817,817,817,817,817,817,817,817,817,817,817,817,817,817,817,817,817,817,817,817,817,817,817,817,817,821,827,838,842,844,847,851,861,873,882,892,899,929,945,962,975,986,1006,1015,1022,1034,1042,1055,1061],"ymouse":[537,537,537,537,537,537,537,537,537,537,537,537,537,537,537,537,537,537,537,537,537,537,537,537,537,537,537,537,537,537,537,537,536,528,521,507,501,497,493,487,471,453,439,421,400,337,295,257,226,203,166,148,132,108,91,61,51],"timestamp_mouse":[16,36,62,75,96,115,136,156,175,195,217,236,257,275,295,315,335,355,376,395,417,435,455,477,495,516,535,556,577,595,615,636,656,676,695,715,736,755,775,796,816,837,856,877,896,916,936,955,975,995,1016,1035,1056,1075,1095,1115,1136],"xSR":741.5,"ySR":481,"xT1":424.9,"yT1":0,"xT2":1058.1,"yT2":0,"toosoon":0,"cond_shown":"randomdotsizeEA","ratio_trial":750,"smaller_num":"9","larger_num":"12","correct_side":2,"subjID":"miguelangelpachonpinzon","gender":"0","age":"11","school":"6"},{"start_time":1551900664905,"click_time":1551900665828,"finger_time":1551900665488,"fix_duration":497.5015004438637,"trial":68,"RT":583,"MT":340,"sideResp":2,"stimulus":"img/250/equaldotanddens/R/4_Ratio_250_L_3_R_12.png","xmouse":[818,818,818,818,818,818,818,818,818,818,818,818,818,818,818,818,818,818,818,818,818,818,818,818,818,818,818,822,838,861,933,965,983,996,1005,1018,1026,1037,1050,1071,1098,1105,1107,1108,1108,1108,1108],"ymouse":[518,518,518,518,518,518,518,518,518,518,518,518,518,518,518,518,518,518,518,518,518,518,518,518,518,518,518,505,484,453,370,332,307,288,277,260,250,238,222,195,162,149,140,134,126,101,87],"timestamp_mouse":[11,37,41,61,82,101,121,141,161,182,201,221,243,261,282,302,322,342,361,381,401,421,443,463,483,502,521,541,562,583,602,622,641,661,682,702,722,742,762,782,801,822,841,861,882,901,922],"xSR":741.5,"ySR":481,"xT1":424.9,"yT1":0,"xT2":1058.1,"yT2":0,"toosoon":0,"cond_shown":"equaldotanddens","ratio_trial":250,"smaller_num":"3","larger_num":"12","correct_side":2,"subjID":"miguelangelpachonpinzon","gender":"0","age":"11","school":"6"},{"start_time":1551900667700,"click_time":1551900668547,"finger_time":1551900668048,"fix_duration":1092.5315206884054,"trial":69,"RT":348,"MT":499,"sideResp":2,"stimulus":"img/900/equaldotsize/L/8_Ratio_900_L_20_R_18.png","xmouse":[809,809,809,809,809,809,809,809,809,809,809,809,809,810,812,829,840,849,863,871,885,894,902,910,915,918,918,918,919,922,933,945,958,968,982,1013,1030,1043,1055,1060,1065,1066,1066],"ymouse":[504,504,504,504,504,504,504,504,504,504,504,504,504,504,503,496,491,485,477,471,459,453,448,444,441,439,439,439,438,437,426,415,397,380,354,284,246,214,178,160,126,108,92],"timestamp_mouse":[12,36,47,66,87,106,126,146,168,186,206,228,247,266,286,308,328,348,366,386,406,427,447,466,487,507,528,547,566,587,607,626,646,668,687,706,727,746,767,788,807,827,847],"xSR":741.5,"ySR":481,"xT1":424.9,"yT1":0,"xT2":1058.1,"yT2":0,"toosoon":0,"cond_shown":"equaldotsize","ratio_trial":900,"smaller_num":"18","larger_num":"20","correct_side":1,"subjID":"miguelangelpachonpinzon","gender":"0","age":"11","school":"6"},{"start_time":1551900670885,"click_time":1551900672287,"finger_time":1551900671568,"fix_duration":1295.8479884835347,"trial":70,"RT":683,"MT":719,"sideResp":2,"stimulus":"img/900/equaldotanddens/R/7_Ratio_900_L_9_R_10.png","xmouse":[796,796,796,796,796,796,796,796,796,796,796,796,796,796,796,796,796,796,796,796,796,796,796,796,796,796,796,796,796,796,796,800,803,810,823,851,946,993,1012,1017,1017,1018,1021,1022,1024,1029,1034,1036,1038,1041,1044,1053,1059,1064,1069,1073,1073,1074,1074,1074,1074,1074,1074,1074,1074,1074,1074,1074,1076,1086,1093],"ymouse":[561,561,561,561,561,561,561,561,561,561,561,561,561,561,561,561,561,561,561,561,561,561,561,561,561,557,553,550,547,540,534,516,505,488,463,417,278,222,200,190,188,182,175,170,164,157,147,143,139,136,131,123,119,116,113,112,111,110,110,110,110,110,110,110,110,110,110,110,108,101,95],"timestamp_mouse":[10,22,43,62,81,102,122,141,161,182,203,221,241,263,282,301,321,342,362,381,401,422,443,462,481,501,522,542,562,582,601,622,642,662,683,702,721,742,762,782,802,821,842,862,882,902,922,942,961,982,1002,1021,1042,1062,1083,1103,1122,1142,1161,1181,1201,1222,1242,1262,1282,1302,1321,1342,1362,1381,1401],"xSR":741.5,"ySR":481,"xT1":424.9,"yT1":0,"xT2":1058.1,"yT2":0,"toosoon":0,"cond_shown":"equaldotanddens","ratio_trial":900,"smaller_num":"9","larger_num":"10","correct_side":2,"subjID":"miguelangelpachonpinzon","gender":"0","age":"11","school":"6"},{"start_time":1551900673429,"click_time":1551900674588,"finger_time":1551900674046,"fix_duration":260.2660585273925,"trial":71,"RT":617,"MT":542,"sideResp":2,"stimulus":"img/900/randomdotsizeEA/L/1_Ratio_900_L_10_R_9.png","xmouse":[810,810,810,810,810,810,810,810,810,810,810,810,810,810,810,810,810,810,810,810,810,810,810,810,810,810,810,810,816,825,837,847,852,867,886,916,948,977,1007,1019,1022,1028,1036,1048,1053,1055,1055,1055,1055,1055,1055,1055,1055,1055,1056,1057,1058,1061],"ymouse":[537,537,537,537,537,537,537,537,537,537,537,537,537,537,537,537,537,537,537,537,537,537,537,537,537,537,537,532,505,481,455,432,420,385,346,293,247,212,173,155,146,137,126,109,104,101,101,100,100,100,100,100,100,99,98,97,96,93],"timestamp_mouse":[18,41,58,77,98,119,137,158,178,198,219,238,257,277,298,318,338,357,377,399,417,437,457,478,499,518,538,558,577,597,617,639,658,678,698,717,738,758,778,797,818,838,857,877,897,918,938,958,978,998,1018,1038,1059,1078,1098,1119,1138,1159],"xSR":741.5,"ySR":481,"xT1":424.9,"yT1":0,"xT2":1058.1,"yT2":0,"toosoon":0,"cond_shown":"randomdotsizeEA","ratio_trial":900,"smaller_num":"9","larger_num":"10","correct_side":1,"subjID":"miguelangelpachonpinzon","gender":"0","age":"11","school":"6"},{"start_time":1551900676549,"click_time":1551900677967,"finger_time":1551900677027,"fix_duration":1180.8895667233176,"trial":72,"RT":478,"MT":940,"sideResp":2,"stimulus":"img/900/equaldotsize/L/8_Ratio_900_L_20_R_18.png","xmouse":[787,787,787,787,787,787,787,787,787,787,787,787,787,787,787,787,787,786,784,780,773,767,746,731,720,709,701,678,665,647,624,600,552,539,532,529,529,529,529,529,529,529,529,529,529,529,531,533,535,536,539,545,563,576,591,608,616,631,642,657,676,700,762,803,873,922,957,1030,1057,1081,1099],"ymouse":[550,550,550,550,550,550,550,550,550,550,550,550,550,550,550,550,550,549,545,538,529,518,483,446,421,390,360,313,291,265,230,187,118,99,89,84,84,84,84,84,84,84,84,84,86,90,94,100,104,105,108,114,124,129,135,142,144,148,150,152,155,156,156,156,153,145,137,115,107,100,98],"timestamp_mouse":[20,46,58,78,98,117,138,157,178,197,217,237,257,277,297,318,337,357,378,397,417,437,457,478,498,518,538,558,577,597,618,638,657,677,698,719,738,757,777,798,817,837,858,878,898,918,938,958,977,998,1017,1037,1058,1077,1097,1117,1137,1157,1177,1198,1217,1237,1257,1277,1297,1317,1337,1357,1377,1398,1418],"xSR":741.5,"ySR":481,"xT1":424.9,"yT1":0,"xT2":1058.1,"yT2":0,"toosoon":0,"cond_shown":"equaldotsize","ratio_trial":900,"smaller_num":"18","larger_num":"20","correct_side":1,"subjID":"miguelangelpachonpinzon","gender":"0","age":"11","school":"6"},{"start_time":1551900685373,"click_time":1551900686527,"fing