[{"start_time":1551794777561,"click_time":1551794779358,"finger_time":1551794777561,"fix_duration":1099.9459362634295,"trial":0,"RT":0,"MT":1797,"sideResp":1,"stimulus":"img/750/randomdotsizeEA/R/3_Ratio_750_L_15_R_20.png","xmouse":[793,793,793,793,793,793,793,793,793,793,793,793,793,793,793,793,793,793,793,793,793,793,793,793,793,793,793,793,793,793,793,793,793,793,793,793,793,793,793,793,793,793,793,793,793,793,793,793,793,793,793,793,791,791,791,790,790,790,790,790,790,790,790,790,790,790,790,790,790,790,790,790,790,790,790,789,786,782,781,781,778,775,770,762,752,709,638,578,533,510,498],"ymouse":[579,579,579,579,579,579,579,579,579,579,579,579,579,579,579,579,579,579,579,579,579,579,579,579,579,579,579,579,579,579,579,579,579,579,579,579,579,579,579,579,579,579,579,579,579,579,579,579,579,579,568,563,556,551,547,544,543,542,541,541,541,541,540,540,540,540,539,539,539,538,538,538,538,538,538,536,528,518,514,511,495,483,467,454,441,381,282,200,137,109,88],"timestamp_mouse":[0,16,36,57,76,96,115,135,156,177,197,216,236,256,276,297,316,337,356,376,397,417,436,457,477,497,516,537,556,577,597,617,636,657,677,695,715,736,756,777,796,816,836,855,877,896,916,937,956,975,996,1015,1037,1056,1076,1096,1116,1136,1155,1176,1197,1216,1236,1256,1275,1296,1316,1337,1357,1377,1396,1415,1435,1457,1476,1496,1517,1536,1555,1576,1595,1616,1637,1657,1676,1697,1715,1736,1756,1777,1796],"xSR":741.5,"ySR":501.8,"xT1":424.9,"yT1":0,"xT2":1058.1,"yT2":0,"toosoon":0,"cond_shown":"randomdotsizeEA","ratio_trial":750,"smaller_num":"15","larger_num":"20","correct_side":2,"subjID":"MIGUELBURGOSGIL33","gender":"0","age":"12","school":"6","test":{"fix_dur":[250,1500],"timestim":300,"targets_dim":[100,100],"targets_relative_coord":[0.3,0.7],"size_stim":[880,420],"start_dim":[100,100],"size_start":[300,300],"size_fix":60,"samplingrate":20,"img_types":["equaldotsize","equaldotanddens","randomdotsizeEA"],"ratios":[250,500,750,900],"rep_conds":9,"nTrials":120,"trials_to_rest":500,"Trials_order":[104,102,50,86,18,19,110,60,93,24,41,116,49,115,5,99,45,77,29,0,98,17,12,10,94,91,72,81,63,53,114,75,35,15,80,27,7,56,87,71,90,76,119,105,9,73,89,2,100,25,6,23,113,39,82,22,48,55,8,107,112,20,3,16,96,84,118,78,61,11,69,47,14,83,101,36,92,88,70,106,108,44,4,74,65,30,21,42,32,26,31,40,66,28,95,54,52,79,57,43,46,58,51,37,62,33,109,67,85,59,1,64,97,103,13,117,38,34,111,68],"cond_shown":["randomdotsizeEA","equaldotsize","randomdotsizeEA","randomdotsizeEA","equaldotsize","equaldotanddens","randomdotsizeEA","equaldotsize","equaldotsize","equaldotsize","randomdotsizeEA","randomdotsizeEA","equaldotanddens","equaldotanddens","randomdotsizeEA","equaldotsize","equaldotsize","randomdotsizeEA","randomdotsizeEA","equaldotsize","randomdotsizeEA","randomdotsizeEA","equaldotsize","equaldotanddens","equaldotanddens","equaldotanddens","equaldotsize","equaldotsize","equaldotsize","randomdotsizeEA","equaldotsize","equaldotsize","randomdotsizeEA","equaldotsize","randomdotsizeEA","equaldotsize","equaldotanddens","randomdotsizeEA","equaldotsize","randomdotsizeEA","equaldotsize","equaldotanddens","randomdotsizeEA","equaldotsize","equaldotsize","equaldotanddens","randomdotsizeEA","randomdotsizeEA","equaldotanddens","equaldotanddens","equaldotsize","randomdotsizeEA","randomdotsizeEA","equaldotsize","equaldotanddens","equaldotanddens","equaldotsize","equaldotanddens","randomdotsizeEA","randomdotsizeEA","equaldotanddens","randomdotsizeEA","equaldotsize","equaldotanddens","equaldotsize","equaldotsize","equaldotanddens","equaldotsize","equaldotanddens","randomdotsizeEA","equaldotsize","randomdotsizeEA","randomdotsizeEA","randomdotsizeEA","randomdotsizeEA","equaldotsize","randomdotsizeEA","equaldotanddens","equaldotanddens","equaldotanddens","equaldotsize","randomdotsizeEA","equaldotanddens","randomdotsizeEA","randomdotsizeEA","equaldotsize","equaldotsize","equaldotsize","randomdotsizeEA","randomdotsizeEA","equaldotanddens","equaldotanddens","equaldotsize","equaldotanddens","randomdotsizeEA","equaldotsize","equaldotanddens","equaldotanddens","equaldotsize","equaldotanddens","equaldotanddens","equaldotanddens","equaldotsize","equaldotanddens","randomdotsizeEA","equaldotsize","equaldotanddens","equaldotanddens","equaldotanddens","randomdotsizeEA","equaldotanddens","equaldotanddens","equaldotanddens","equaldotanddens","equaldotanddens","equaldotsize","randomdotsizeEA","equaldotanddens","equaldotsize","randomdotsizeEA"],"ratio_trial":[750,750,250,250,750,750,250,250,900,250,500,750,250,750,500,500,900,500,500,250,250,500,250,900,900,750,250,900,500,500,750,500,900,500,750,500,750,750,500,900,750,500,900,900,900,250,500,250,500,250,750,900,500,500,900,900,250,750,750,900,500,750,500,500,250,250,900,750,250,900,900,900,250,900,500,250,750,500,900,900,250,750,500,250,500,750,900,750,750,250,750,500,750,500,900,750,500,750,900,750,900,900,500,250,250,900,250,750,250,900,250,500,250,750,250,900,250,900,500,750],"smaller_num":["15","15","1","1","3","3","1","5","9","3","1","3","3","15","5","5","9","4","3","3","6","6","3","18","18","15","3","9","9","1","3","9","18","3","3","6","6","3","2","9","3","4","9","18","18","2","9","3","9","2","3","9","3","6","9","9","3","6","3","18","3","3","9","1","3","3","18","9","3","9","18","18","2","18","2","4","9","9","18","9","2","6","9","3","6","15","18","3","18","3","18","10","15","4","18","12","3","18","18","15","18","18","9","4","2","18","4","15","2","9","3","9","2","18","3","18","3","9","6","3"],"larger_num":["20","20","4","4","4","4","4","20","10","12","2","4","12","20","10","10","10","8","6","12","24","12","12","20","20","20","12","10","18","2","4","18","20","6","4","12","8","4","4","10","4","8","10","20","20","8","18","12","18","8","4","10","6","12","10","10","12","8","4","20","6","4","18","2","12","12","20","12","12","10","20","20","8","20","4","16","12","18","20","10","8","8","18","12","12","20","20","4","24","12","24","20","20","8","20","16","6","24","20","20","20","20","18","16","8","20","16","20","8","10","12","18","8","24","12","20","12","10","12","4"],"correct_side":[2,2,2,2,1,2,2,2,2,2,2,2,2,1,1,1,2,1,2,2,1,1,2,2,1,1,1,2,2,2,1,2,2,2,2,1,1,1,1,2,1,1,1,2,2,1,2,2,1,2,2,2,2,1,2,2,2,1,2,2,2,1,1,2,2,2,1,2,1,2,1,2,1,1,2,1,2,1,1,2,1,2,2,1,1,1,2,1,1,1,1,2,1,1,1,2,2,1,1,2,2,1,2,2,1,1,2,2,1,1,2,2,2,1,2,1,2,2,1,2],"img_shown":["img/750/randomdotsizeEA/R/3_Ratio_750_L_15_R_20.png","img/750/equaldotsize/R/5_Ratio_750_L_15_R_20.png","img/250/randomdotsizeEA/R/8_Ratio_250_L_1_R_4.png","img/250/randomdotsizeEA/R/8_Ratio_250_L_1_R_4.png","img/750/equaldotsize/L/10_Ratio_750_L_4_R_3.png","img/750/equaldotanddens/R/7_Ratio_750_L_3_R_4.png","img/250/randomdotsizeEA/R/8_Ratio_250_L_1_R_4.png","img/250/equaldotsize/R/12_Ratio_250_L_5_R_20.png","img/900/equaldotsize/R/6_Ratio_900_L_9_R_10.png","img/250/equaldotsize/R/11_Ratio_250_L_3_R_12.png","img/500/randomdotsizeEA/R/12_Ratio_500_L_1_R_2.png","img/750/randomdotsizeEA/R/12_Ratio_750_L_3_R_4.png","img/250/equaldotanddens/R/11_Ratio_250_L_3_R_12.png","img/750/equaldotanddens/L/1_Ratio_750_L_20_R_15.png","img/500/randomdotsizeEA/L/7_Ratio_500_L_10_R_5.png","img/500/equaldotsize/L/7_Ratio_500_L_10_R_5.png","img/900/equaldotsize/R/15_Ratio_900_L_9_R_10.png","img/500/randomdotsizeEA/L/8_Ratio_500_L_8_R_4.png","img/500/randomdotsizeEA/R/2_Ratio_500_L_3_R_6.png","img/250/equaldotsize/R/9_Ratio_250_L_3_R_12.png","img/250/randomdotsizeEA/L/5_Ratio_250_L_24_R_6.png","img/500/randomdotsizeEA/L/13_Ratio_500_L_12_R_6.png","img/250/equaldotsize/R/11_Ratio_250_L_3_R_12.png","img/900/equaldotanddens/R/14_Ratio_900_L_18_R_20.png","img/900/equaldotanddens/L/8_Ratio_900_L_20_R_18.png","img/750/equaldotanddens/L/1_Ratio_750_L_20_R_15.png","img/250/equaldotsize/L/14_Ratio_250_L_12_R_3.png","img/900/equaldotsize/R/5_Ratio_900_L_9_R_10.png","img/500/equaldotsize/R/6_Ratio_500_L_9_R_18.png","img/500/randomdotsizeEA/R/15_Ratio_500_L_1_R_2.png","img/750/equaldotsize/L/9_Ratio_750_L_4_R_3.png","img/500/equaldotsize/R/1_Ratio_500_L_9_R_18.png","img/900/randomdotsizeEA/R/14_Ratio_900_L_18_R_20.png","img/500/equaldotsize/R/2_Ratio_500_L_3_R_6.png","img/750/randomdotsizeEA/R/7_Ratio_750_L_3_R_4.png","img/500/equaldotsize/L/13_Ratio_500_L_12_R_6.png","img/750/equaldotanddens/L/14_Ratio_750_L_8_R_6.png","img/750/randomdotsizeEA/L/9_Ratio_750_L_4_R_3.png","img/500/equaldotsize/L/10_Ratio_500_L_4_R_2.png","img/900/randomdotsizeEA/R/5_Ratio_900_L_9_R_10.png","img/750/equaldotsize/L/10_Ratio_750_L_4_R_3.png","img/500/equaldotanddens/L/8_Ratio_500_L_8_R_4.png","img/900/randomdotsizeEA/L/1_Ratio_900_L_10_R_9.png","img/900/equaldotsize/R/12_Ratio_900_L_18_R_20.png","img/900/equaldotsize/R/14_Ratio_900_L_18_R_20.png","img/250/equaldotanddens/L/7_Ratio_250_L_8_R_2.png","img/500/randomdotsizeEA/R/6_Ratio_500_L_9_R_18.png","img/250/randomdotsizeEA/R/4_Ratio_250_L_3_R_12.png","img/500/equaldotanddens/L/4_Ratio_500_L_18_R_9.png","img/250/equaldotanddens/R/13_Ratio_250_L_2_R_8.png","img/750/equaldotsize/R/7_Ratio_750_L_3_R_4.png","img/900/randomdotsizeEA/R/3_Ratio_900_L_9_R_10.png","img/500/randomdotsizeEA/R/2_Ratio_500_L_3_R_6.png","img/500/equaldotsize/L/13_Ratio_500_L_12_R_6.png","img/900/equaldotanddens/R/3_Ratio_900_L_9_R_10.png","img/900/equaldotanddens/R/5_Ratio_900_L_9_R_10.png","img/250/equaldotsize/R/11_Ratio_250_L_3_R_12.png","img/750/equaldotanddens/L/14_Ratio_750_L_8_R_6.png","img/750/randomdotsizeEA/R/7_Ratio_750_L_3_R_4.png","img/900/randomdotsizeEA/R/11_Ratio_900_L_18_R_20.png","img/500/equaldotanddens/R/2_Ratio_500_L_3_R_6.png","img/750/randomdotsizeEA/L/8_Ratio_750_L_4_R_3.png","img/500/equaldotsize/L/4_Ratio_500_L_18_R_9.png","img/500/equaldotanddens/R/12_Ratio_500_L_1_R_2.png","img/250/equaldotsize/R/4_Ratio_250_L_3_R_12.png","img/250/equaldotsize/R/11_Ratio_250_L_3_R_12.png","img/900/equaldotanddens/L/4_Ratio_900_L_20_R_18.png","img/750/equaldotsize/R/15_Ratio_750_L_9_R_12.png","img/250/equaldotanddens/L/15_Ratio_250_L_12_R_3.png","img/900/randomdotsizeEA/R/3_Ratio_900_L_9_R_10.png","img/900/equaldotsize/L/2_Ratio_900_L_20_R_18.png","img/900/randomdotsizeEA/R/13_Ratio_900_L_18_R_20.png","img/250/randomdotsizeEA/L/1_Ratio_250_L_8_R_2.png","img/900/randomdotsizeEA/L/4_Ratio_900_L_20_R_18.png","img/500/randomdotsizeEA/R/9_Ratio_500_L_2_R_4.png","img/250/equaldotsize/L/2_Ratio_250_L_16_R_4.png","img/750/randomdotsizeEA/R/15_Ratio_750_L_9_R_12.png","img/500/equaldotanddens/L/4_Ratio_500_L_18_R_9.png","img/900/equaldotanddens/L/8_Ratio_900_L_20_R_18.png","img/900/equaldotanddens/R/5_Ratio_900_L_9_R_10.png","img/250/equaldotsize/L/3_Ratio_250_L_8_R_2.png","img/750/randomdotsizeEA/R/2_Ratio_750_L_6_R_8.png","img/500/equaldotanddens/R/1_Ratio_500_L_9_R_18.png","img/250/randomdotsizeEA/L/15_Ratio_250_L_12_R_3.png","img/500/randomdotsizeEA/L/13_Ratio_500_L_12_R_6.png","img/750/equaldotsize/L/1_Ratio_750_L_20_R_15.png","img/900/equaldotsize/R/14_Ratio_900_L_18_R_20.png","img/750/equaldotsize/L/10_Ratio_750_L_4_R_3.png","img/750/randomdotsizeEA/L/6_Ratio_750_L_24_R_18.png","img/250/randomdotsizeEA/L/15_Ratio_250_L_12_R_3.png","img/750/equaldotanddens/L/6_Ratio_750_L_24_R_18.png","img/500/equaldotanddens/R/3_Ratio_500_L_10_R_20.png","img/750/equaldotsize/L/1_Ratio_750_L_20_R_15.png","img/500/equaldotanddens/L/8_Ratio_500_L_8_R_4.png","img/900/randomdotsizeEA/L/4_Ratio_900_L_20_R_18.png","img/750/equaldotsize/R/11_Ratio_750_L_12_R_16.png","img/500/equaldotanddens/R/2_Ratio_500_L_3_R_6.png","img/750/equaldotanddens/L/6_Ratio_750_L_24_R_18.png","img/900/equaldotsize/L/8_Ratio_900_L_20_R_18.png","img/750/equaldotanddens/R/4_Ratio_750_L_15_R_20.png","img/900/equaldotanddens/R/13_Ratio_900_L_18_R_20.png","img/900/equaldotanddens/L/4_Ratio_900_L_20_R_18.png","img/500/equaldotsize/R/6_Ratio_500_L_9_R_18.png","img/250/equaldotanddens/R/10_Ratio_250_L_4_R_16.png","img/250/randomdotsizeEA/L/7_Ratio_250_L_8_R_2.png","img/900/equaldotsize/L/8_Ratio_900_L_20_R_18.png","img/250/equaldotanddens/R/10_Ratio_250_L_4_R_16.png","img/750/equaldotanddens/R/4_Ratio_750_L_15_R_20.png","img/250/equaldotanddens/L/7_Ratio_250_L_8_R_2.png","img/900/randomdotsizeEA/L/1_Ratio_900_L_10_R_9.png","img/250/equaldotanddens/R/9_Ratio_250_L_3_R_12.png","img/500/equaldotanddens/R/6_Ratio_500_L_9_R_18.png","img/250/equaldotanddens/R/13_Ratio_250_L_2_R_8.png","img/750/equaldotanddens/L/6_Ratio_750_L_24_R_18.png","img/250/equaldotanddens/R/4_Ratio_250_L_3_R_12.png","img/900/equaldotsize/L/4_Ratio_900_L_20_R_18.png","img/250/randomdotsizeEA/R/4_Ratio_250_L_3_R_12.png","img/900/equaldotanddens/R/3_Ratio_900_L_9_R_10.png","img/500/equaldotsize/L/13_Ratio_500_L_12_R_6.png","img/750/randomdotsizeEA/R/7_Ratio_750_L_3_R_4.png"],"Rat0":[["12_Ratio_0_L_9_R_0.png","13_Ratio_0_L_6_R_0.png","5_Ratio_0_L_2_R_0.png","6_Ratio_0_L_4_R_0.png","8_Ratio_0_L_6_R_0.png"],["1_Ratio_0_L_0_R_17.png","10_Ratio_0_L_0_R_22.png","11_Ratio_0_L_0_R_1.png","14_Ratio_0_L_0_R_24.png","15_Ratio_0_L_0_R_4.png","2_Ratio_0_L_0_R_5.png","3_Ratio_0_L_0_R_17.png","4_Ratio_0_L_0_R_7.png","7_Ratio_0_L_0_R_19.png","9_Ratio_0_L_0_R_15.png"]],"Rat250":[["1_Ratio_250_L_8_R_2.png","14_Ratio_250_L_12_R_3.png","15_Ratio_250_L_12_R_3.png","2_Ratio_250_L_16_R_4.png","3_Ratio_250_L_8_R_2.png","5_Ratio_250_L_24_R_6.png","7_Ratio_250_L_8_R_2.png"],["10_Ratio_250_L_4_R_16.png","11_Ratio_250_L_3_R_12.png","12_Ratio_250_L_5_R_20.png","13_Ratio_250_L_2_R_8.png","4_Ratio_250_L_3_R_12.png","6_Ratio_250_L_6_R_24.png","8_Ratio_250_L_1_R_4.png","9_Ratio_250_L_3_R_12.png"]],"Rat500":[["10_Ratio_500_L_4_R_2.png","11_Ratio_500_L_12_R_6.png","13_Ratio_500_L_12_R_6.png","4_Ratio_500_L_18_R_9.png","5_Ratio_500_L_4_R_2.png","7_Ratio_500_L_10_R_5.png","8_Ratio_500_L_8_R_4.png"],["1_Ratio_500_L_9_R_18.png","12_Ratio_500_L_1_R_2.png","14_Ratio_500_L_5_R_10.png","15_Ratio_500_L_1_R_2.png","2_Ratio_500_L_3_R_6.png","3_Ratio_500_L_10_R_20.png","6_Ratio_500_L_9_R_18.png","9_Ratio_500_L_2_R_4.png"]],"Rat750":[["1_Ratio_750_L_20_R_15.png","10_Ratio_750_L_4_R_3.png","13_Ratio_750_L_8_R_6.png","14_Ratio_750_L_8_R_6.png","6_Ratio_750_L_24_R_18.png","8_Ratio_750_L_4_R_3.png","9_Ratio_750_L_4_R_3.png"],["11_Ratio_750_L_12_R_16.png","12_Ratio_750_L_3_R_4.png","15_Ratio_750_L_9_R_12.png","2_Ratio_750_L_6_R_8.png","3_Ratio_750_L_15_R_20.png","4_Ratio_750_L_15_R_20.png","5_Ratio_750_L_15_R_20.png","7_Ratio_750_L_3_R_4.png"]],"Rat900":[["1_Ratio_900_L_10_R_9.png","10_Ratio_900_L_20_R_18.png","2_Ratio_900_L_20_R_18.png","4_Ratio_900_L_20_R_18.png","8_Ratio_900_L_20_R_18.png"],["11_Ratio_900_L_18_R_20.png","12_Ratio_900_L_18_R_20.png","13_Ratio_900_L_18_R_20.png","14_Ratio_900_L_18_R_20.png","15_Ratio_900_L_9_R_10.png","3_Ratio_900_L_9_R_10.png","5_Ratio_900_L_9_R_10.png","6_Ratio_900_L_9_R_10.png","7_Ratio_900_L_9_R_10.png","9_Ratio_900_L_18_R_20.png"]],"Rat1000":[["10_Ratio_1000_L_16_R_16.png","11_Ratio_1000_L_6_R_6.png","12_Ratio_1000_L_14_R_14.png","13_Ratio_1000_L_20_R_20.png","15_Ratio_1000_L_15_R_15.png","2_Ratio_1000_L_17_R_17.png","4_Ratio_1000_L_9_R_9.png","5_Ratio_1000_L_6_R_6.png","6_Ratio_1000_L_19_R_19.png","8_Ratio_1000_L_14_R_14.png","9_Ratio_1000_L_25_R_25.png"],["1_Ratio_1000_L_1_R_1.png","14_Ratio_1000_L_17_R_17.png","3_Ratio_1000_L_17_R_17.png","7_Ratio_1000_L_6_R_6.png"]]}},{"start_time":1551794781088,"click_time":1551794783078,"finger_time":1551794782657,"fix_duration":849.10776200518,"trial":1,"RT":1569,"MT":421,"sideResp":2,"stimulus":"img/750/equaldotsize/R/5_Ratio_750_L_15_R_20.png","xmouse":[822,822,822,822,822,822,822,822,822,822,822,822,822,822,822,822,822,822,822,822,822,822,822,822,822,822,822,822,822,822,822,822,822,822,822,822,822,822,822,822,822,822,822,822,822,822,822,822,822,822,822,822,822,822,822,822,822,822,822,822,822,822,822,822,822,822,822,822,822,822,822,822,822,822,822,822,822,822,842,879,921,969,1014,1087,1114,1132,1146,1158,1187,1197,1203,1204,1204,1200,1199,1199,1197,1188,1160,1140],"ymouse":[533,533,533,533,533,533,533,533,533,533,533,533,533,533,533,533,533,533,533,533,533,533,533,533,533,533,533,533,533,533,533,533,533,533,533,533,533,533,533,533,533,533,533,533,533,533,533,533,533,533,533,533,533,533,533,533,533,533,533,533,533,533,533,533,533,533,533,533,533,533,533,533,533,533,533,533,533,530,493,443,380,322,268,185,156,143,133,124,103,83,57,48,41,30,29,29,29,28,27,27],"timestamp_mouse":[11,45,49,69,89,110,128,150,168,190,209,229,248,269,288,308,330,349,369,389,410,429,450,469,489,509,528,549,570,589,610,630,648,668,690,710,728,750,769,789,810,830,848,868,890,910,928,949,969,989,1010,1028,1050,1068,1089,1109,1129,1148,1170,1188,1210,1229,1250,1268,1288,1310,1330,1348,1369,1389,1410,1430,1448,1469,1490,1510,1529,1548,1569,1588,1609,1628,1649,1669,1689,1709,1730,1749,1769,1790,1809,1830,1849,1869,1889,1909,1929,1950,1968,1989],"xSR":741.5,"ySR":469.95,"xT1":424.9,"yT1":0,"xT2":1058.1,"yT2":0,"toosoon":0,"cond_shown":"equaldotsize","ratio_trial":750,"smaller_num":"15","larger_num":"20","correct_side":2,"subjID":"MIGUELBURGOSGIL33","gender":"0","age":"12","school":"6"},{"start_time":1551794785489,"click_time":1551794787538,"finger_time":1551794787377,"fix_duration":1310.6101078397808,"trial":2,"RT":1888,"MT":161,"sideResp":2,"stimulus":"img/250/randomdotsizeEA/R/8_Ratio_250_L_1_R_4.png","xmouse":[797,797,797,797,797,797,797,797,797,797,797,797,797,797,797,797,797,797,797,797,797,797,797,797,797,797,797,797,797,797,797,797,797,797,797,797,797,797,797,797,797,797,797,797,797,797,797,797,797,797,797,797,797,797,797,797,797,797,797,797,797,797,797,797,797,797,797,797,797,797,797,797,797,797,797,797,797,796,796,796,796,796,796,796,796,796,796,794,794,794,794,794,794,795,799,807,815,826,884,937,995,1047,1060],"ymouse":[511,511,511,511,511,511,511,511,511,511,511,511,511,511,511,511,511,511,511,511,511,511,511,511,511,511,511,511,511,511,511,511,511,511,511,511,511,511,511,511,511,511,511,511,511,511,511,511,511,511,511,511,511,511,511,511,511,511,511,511,511,511,511,511,511,511,511,511,511,511,511,511,511,511,511,511,511,509,509,509,509,509,509,509,509,509,509,508,508,507,504,500,495,475,461,441,420,395,293,216,107,24,5],"timestamp_mouse":[14,32,48,68,87,109,129,147,168,188,207,229,247,267,288,308,328,347,368,387,407,427,448,467,489,508,528,549,567,588,608,629,648,667,689,708,728,747,768,788,809,829,848,867,888,907,928,949,969,988,1009,1027,1049,1067,1089,1109,1129,1149,1167,1188,1208,1229,1248,1268,1289,1307,1328,1348,1368,1388,1407,1427,1447,1467,1488,1509,1528,1549,1568,1588,1608,1627,1647,1669,1688,1707,1728,1749,1768,1788,1808,1828,1848,1868,1888,1908,1928,1948,1968,1988,2008,2027,2049],"xSR":741.5,"ySR":469.95,"xT1":424.9,"yT1":0,"xT2":1058.1,"yT2":0,"toosoon":0,"cond_shown":"randomdotsizeEA","ratio_trial":250,"smaller_num":"1","larger_num":"4","correct_side":2,"subjID":"MIGUELBURGOSGIL33","gender":"0","age":"12","school":"6"},{"start_time":1551794789423,"click_time":1551794790558,"finger_time":1551794790157,"fix_duration":883.3998172859933,"trial":3,"RT":734,"MT":401,"sideResp":2,"stimulus":"img/250/randomdotsizeEA/R/8_Ratio_250_L_1_R_4.png","xmouse":[823,823,823,823,824,824,825,825,826,826,826,826,826,826,826,826,826,826,826,826,826,826,826,826,826,826,826,826,826,826,826,826,826,828,829,833,844,847,858,894,947,1068,1123,1167,1178,1187,1194,1197,1198,1201,1204,1204,1204,1204,1199,1186,1150],"ymouse":[503,503,503,503,502,501,500,500,500,500,500,500,500,500,500,500,500,500,500,500,500,500,500,500,500,500,500,500,500,500,500,500,500,498,496,493,481,473,457,416,362,231,169,113,93,78,60,54,49,42,37,32,29,29,29,29,39],"timestamp_mouse":[15,34,54,73,94,114,133,154,174,195,214,235,254,274,294,314,334,354,375,394,415,434,454,474,493,513,534,554,575,595,615,634,654,674,693,715,734,754,773,795,814,835,853,873,894,915,934,953,974,994,1014,1034,1053,1074,1095,1114,1134],"xSR":741.5,"ySR":469.95,"xT1":424.9,"yT1":0,"xT2":1058.1,"yT2":0,"toosoon":0,"cond_shown":"randomdotsizeEA","ratio_trial":250,"smaller_num":"1","larger_num":"4","correct_side":2,"subjID":"MIGUELBURGOSGIL33","gender":"0","age":"12","school":"6"},{"start_time":1551794791828,"click_time":1551794793876,"finger_time":1551794792756,"fix_duration":369.9843517764036,"trial":4,"RT":928,"MT":1120,"sideResp":1,"stimulus":"img/750/equaldotsize/L/10_Ratio_750_L_4_R_3.png","xmouse":[797,797,797,797,797,797,797,797,797,797,797,797,797,797,797,797,797,797,797,797,797,797,797,797,797,797,797,797,797,797,797,797,797,797,797,797,797,797,797,797,797,797,797,797,793,775,712,685,675,670,665,639,630,622,615,612,605,599,588,575,560,525,494,494,494,494,494,494,494,494,494,494,494,494,494,494,494,494,494,494,494,494,494,494,494,494,494,494,494,494,494,494,494,494,494,494,494,494,494,494,494,494,457],"ymouse":[510,510,510,510,510,510,510,510,510,510,510,510,510,510,510,510,510,510,510,510,510,510,510,510,510,510,510,510,510,510,510,510,510,510,510,510,510,510,510,510,510,510,510,510,507,475,380,339,317,299,282,217,204,192,182,178,169,162,153,145,137,119,106,106,106,106,106,106,106,106,106,106,106,106,106,106,106,106,106,106,106,106,106,106,106,106,106,106,106,106,106,106,106,106,106,106,106,106,106,106,106,106,67],"timestamp_mouse":[9,33,49,69,88,108,128,148,170,190,208,230,249,268,289,309,329,350,370,390,410,429,450,470,489,508,530,548,569,588,610,629,650,669,690,708,729,750,768,789,810,829,848,870,889,910,928,948,969,990,1010,1029,1050,1069,1088,1110,1129,1149,1169,1189,1209,1229,1249,1269,1290,1309,1329,1349,1369,1389,1409,1430,1449,1470,1490,1510,1529,1549,1569,1589,1609,1629,1650,1669,1689,1709,1730,1749,1769,1791,1810,1830,1850,1870,1889,1909,1928,1949,1970,1990,2009,2030,2048],"xSR":741.5,"ySR":469.95,"xT1":424.9,"yT1":0,"xT2":1058.1,"yT2":0,"toosoon":0,"cond_shown":"equaldotsize","ratio_trial":750,"smaller_num":"3","larger_num":"4","correct_side":1,"subjID":"MIGUELBURGOSGIL33","gender":"0","age":"12","school":"6"},{"start_time":1551794795682,"click_time":1551794796557,"finger_time":1551794796438,"fix_duration":762.9806705589808,"trial":5,"RT":756,"MT":119,"sideResp":2,"stimulus":"img/750/equaldotanddens/R/7_Ratio_750_L_3_R_4.png","xmouse":[787,787,787,787,787,787,787,787,787,787,787,787,787,787,787,787,787,787,787,787,787,787,787,787,787,787,787,787,787,787,787,787,787,787,787,792,818,873,1006,1049,1081,1107,1125,1147],"ymouse":[490,490,490,490,490,490,490,490,490,490,490,490,490,490,490,490,490,490,490,490,490,490,490,490,490,490,490,490,490,490,490,490,490,490,490,490,478,457,397,328,243,161,101,47],"timestamp_mouse":[14,38,55,75,94,115,135,154,175,196,215,234,254,276,294,316,335,355,375,394,414,436,454,474,495,515,535,555,575,595,616,634,655,675,694,716,735,756,775,794,815,835,855,874],"xSR":741.5,"ySR":469.95,"xT1":424.9,"yT1":0,"xT2":1058.1,"yT2":0,"toosoon":0,"cond_shown":"equaldotanddens","ratio_trial":750,"smaller_num":"3","larger_num":"4","correct_side":2,"subjID":"MIGUELBURGOSGIL33","gender":"0","age":"12","school":"6"},{"start_time":1551794798663,"click_time":1551794800319,"finger_time":1551794799677,"fix_duration":305.05362789437027,"trial":6,"RT":1014,"MT":642,"sideResp":2,"stimulus":"img/250/randomdotsizeEA/R/8_Ratio_250_L_1_R_4.png","xmouse":[778,778,778,778,778,778,778,778,778,778,778,778,778,778,778,778,778,778,778,778,778,778,778,778,778,778,778,778,778,778,778,778,778,778,778,778,778,778,778,778,778,778,778,778,778,778,778,778,786,809,844,870,887,910,926,938,943,951,956,975,1004,1021,1033,1040,1045,1047,1047,1049,1049,1049,1049,1049,1049,1049,1049,1049,1049,1049,1049,1049,1049,1054,1065],"ymouse":[550,550,550,550,550,550,550,550,550,550,550,550,550,550,550,550,550,550,550,550,550,550,550,550,550,550,550,550,550,550,550,550,550,550,550,550,550,550,550,550,550,550,550,550,550,550,550,550,534,503,453,413,373,316,262,210,195,180,173,160,147,138,114,98,87,83,79,76,75,74,73,73,73,73,73,73,73,73,73,73,72,70,67],"timestamp_mouse":[15,43,55,74,95,114,135,154,176,194,215,234,254,274,295,316,336,355,375,394,415,435,454,474,494,515,534,554,575,594,614,634,655,674,695,714,734,754,775,794,816,835,854,875,895,916,935,955,975,994,1014,1034,1055,1075,1095,1115,1134,1154,1174,1195,1214,1235,1254,1274,1294,1315,1334,1355,1376,1395,1414,1434,1455,1475,1494,1515,1534,1554,1574,1595,1615,1634,1655],"xSR":741.5,"ySR":469.95,"xT1":424.9,"yT1":0,"xT2":1058.1,"yT2":0,"toosoon":0,"cond_shown":"randomdotsizeEA","ratio_trial":250,"smaller_num":"1","larger_num":"4","correct_side":2,"subjID":"MIGUELBURGOSGIL33","gender":"0","age":"12","school":"6"},{"start_time":1551794802081,"click_time":1551794803078,"finger_time":1551794802777,"fix_duration":822.5107004488037,"trial":7,"RT":696,"MT":301,"sideResp":2,"stimulus":"img/250/equaldotsize/R/12_Ratio_250_L_5_R_20.png","xmouse":[806,804,803,801,799,797,797,797,797,797,797,797,797,797,797,797,797,797,797,797,797,797,797,797,797,797,797,797,797,797,797,797,797,797,800,804,808,813,857,911,942,968,999,1021,1024,1026,1031,1037,1049,1060],"ymouse":[482,481,481,481,481,481,481,481,481,481,481,481,481,481,481,481,481,481,481,481,481,481,481,481,481,481,481,481,481,481,481,481,481,480,462,448,434,422,371,305,264,223,181,137,129,121,114,110,104,95],"timestamp_mouse":[20,41,56,76,96,116,137,157,176,196,216,238,256,277,296,316,338,356,376,397,418,436,456,477,496,517,537,558,576,596,616,638,656,676,696,716,737,756,777,796,817,836,856,876,896,916,937,956,977,996],"xSR":741.5,"ySR":469.95,"xT1":424.9,"yT1":0,"xT2":1058.1,"yT2":0,"toosoon":0,"cond_shown":"equaldotsize","ratio_trial":250,"smaller_num":"5","larger_num":"20","correct_side":2,"subjID":"MIGUELBURGOSGIL33","gender":"0","age":"12","school":"6"},{"start_time":1551794806250,"click_time":1551794807478,"finger_time":1551794807157,"fix_duration":890.3668633429502,"trial":8,"RT":907,"MT":321,"sideResp":1,"stimulus":"img/900/equaldotsize/R/6_Ratio_900_L_9_R_10.png","xmouse":[792,792,792,792,792,792,792,792,792,792,792,792,792,792,792,792,792,792,792,792,792,792,792,793,798,807,807,807,807,807,807,807,807,807,807,807,807,807,807,807,807,807,807,802,785,699,639,592,560,546,538,528,523,519,513,505,504,504,504,504,504,504],"ymouse":[551,551,551,551,551,551,551,551,551,551,551,551,551,551,551,551,551,551,551,551,551,551,551,550,550,554,554,554,554,554,554,554,554,554,554,554,554,554,554,554,554,554,554,548,531,446,389,326,280,248,228,200,193,187,181,172,170,169,165,158,109,87],"timestamp_mouse":[10,40,49,67,88,107,127,149,167,187,207,228,249,268,288,308,328,349,367,389,407,427,447,468,488,508,528,548,569,588,607,628,649,668,688,708,727,748,768,787,807,828,847,867,888,907,927,947,967,988,1008,1027,1047,1068,1088,1108,1127,1147,1168,1187,1208,1228],"xSR":741.5,"ySR":469.95,"xT1":424.9,"yT1":0,"xT2":1058.1,"yT2":0,"toosoon":0,"cond_shown":"equaldotsize","ratio_trial":900,"smaller_num":"9","larger_num":"10","correct_side":2,"subjID":"MIGUELBURGOSGIL33","gender":"0","age":"12","school":"6"},{"start_time":1551794811225,"click_time":1551794813117,"finger_time":1551794811757,"fix_duration":1425.8432401238097,"trial":9,"RT":532,"MT":1360,"sideResp":2,"stimulus":"img/250/equaldotsize/R/11_Ratio_250_L_3_R_12.png","xmouse":[787,787,787,787,787,787,787,787,787,787,787,787,787,787,787,787,787,787,787,787,787,787,787,787,787,782,730,700,675,653,639,638,638,638,638,638,638,638,638,638,638,638,638,638,638,638,638,638,638,638,638,638,638,638,638,638,638,638,638,638,638,638,638,638,638,638,638,638,638,638,637,650,651,651,658,681,821,931,1065,1184,1268,1331,1338,1339,1343,1347,1350,1353,1353,1353,1353,1329,1235,1162,1083],"ymouse":[527,527,527,527,527,527,527,527,527,527,527,527,527,527,527,527,527,527,527,527,527,527,527,527,527,527,503,483,459,433,418,417,417,417,417,417,417,417,417,417,417,417,417,417,417,417,417,417,417,417,417,417,417,417,417,417,417,417,417,417,417,417,417,417,417,417,417,417,417,417,415,398,398,398,388,376,315,272,223,184,160,137,130,127,119,112,106,100,99,97,97,93,91,91,91],"timestamp_mouse":[13,33,53,72,93,113,133,153,172,194,213,232,253,274,292,313,333,354,373,393,413,432,453,473,493,512,532,552,573,592,612,634,653,674,693,712,732,752,772,793,814,834,854,873,893,913,933,952,972,993,1013,1033,1053,1073,1093,1112,1133,1154,1172,1192,1213,1233,1253,1272,1292,1313,1334,1352,1372,1392,1413,1432,1452,1474,1492,1514,1534,1552,1573,1593,1614,1632,1653,1672,1692,1712,1732,1752,1772,1793,1813,1832,1853,1873,1892],"xSR":741.5,"ySR":469.95,"xT1":424.9,"yT1":0,"xT2":1058.1,"yT2":0,"toosoon":0,"cond_shown":"equaldotsize","ratio_trial":250,"smaller_num":"3","larger_num":"12","correct_side":2,"subjID":"MIGUELBURGOSGIL33","gender":"0","age":"12","school":"6"},{"start_time":1551794814609,"click_time":1551794816239,"finger_time":1551794815957,"fix_duration":529.1716940085159,"trial":10,"RT":1348,"MT":282,"sideResp":2,"stimulus":"img/500/randomdotsizeEA/R/12_Ratio_500_L_1_R_2.png","xmouse":[758,758,758,758,758,758,758,758,758,758,758,758,758,758,758,758,758,758,758,758,758,758,758,758,758,758,758,758,758,758,758,758,758,758,758,758,758,758,758,758,758,758,758,758,758,758,758,758,758,758,758,758,758,758,758,758,758,758,758,758,758,758,758,761,775,791,807,855,883,907,924,940,967,988,1000,1014,1023,1047,1061,1075,1092,1110],"ymouse":[519,519,519,519,519,519,519,519,519,519,519,519,519,519,519,519,519,519,519,519,519,519,519,519,519,519,519,519,519,519,519,519,519,519,519,519,519,519,519,519,519,519,519,519,519,519,519,519,519,519,519,519,519,519,519,519,519,519,519,519,519,519,519,519,506,493,479,438,411,387,365,348,313,276,252,230,216,185,166,144,118,86],"timestamp_mouse":[11,34,48,68,88,109,128,149,168,188,209,229,248,268,289,309,329,348,368,389,409,428,450,469,489,509,528,548,569,589,610,630,649,668,688,710,728,749,768,790,810,829,849,868,890,909,928,948,968,988,1008,1029,1050,1069,1088,1109,1129,1150,1169,1189,1209,1229,1248,1269,1288,1308,1328,1348,1368,1388,1409,1429,1448,1468,1489,1509,1528,1548,1568,1591,1609,1630],"xSR":741.5,"ySR":469.95,"xT1":424.9,"yT1":0,"xT2":1058.1,"yT2":0,"toosoon":0,"cond_shown":"randomdotsizeEA","ratio_trial":500,"smaller_num":"1","larger_num":"2","correct_side":2,"subjID":"MIGUELBURGOSGIL33","gender":"0","age":"12","school":"6"},{"start_time":1551794818573,"click_time":1551794820758,"finger_time":1551794819737,"fix_duration":1413.8015529854652,"trial":11,"RT":1164,"MT":1021,"sideResp":2,"stimulus":"img/750/randomdotsizeEA/R/12_Ratio_750_L_3_R_4.png","xmouse":[817,817,817,817,817,817,817,817,817,817,817,817,817,817,817,817,817,817,817,817,817,817,817,817,817,817,817,817,817,817,817,817,817,817,817,817,817,817,817,817,817,817,817,817,817,817,817,817,817,817,817,817,817,817,817,815,803,790,776,750,739,731,722,717,708,701,697,692,690,690,690,690,690,690,690,690,690,690,692,702,710,724,741,764,837,877,919,957,971,988,996,1002,1008,1015,1024,1030,1034,1040,1045,1052,1056,1060,1064,1065,1066,1066,1066,1066,1068,1083],"ymouse":[518,518,518,518,518,518,518,518,518,518,518,518,518,518,518,518,518,518,518,518,518,518,518,518,518,518,518,518,518,518,518,518,518,518,518,518,518,518,518,518,518,518,518,518,518,518,518,518,518,518,518,518,518,518,518,518,503,483,465,436,425,416,410,406,398,392,389,385,383,382,382,382,382,382,382,382,382,382,382,386,388,389,389,383,336,300,258,222,210,192,182,172,163,155,143,138,134,129,125,120,116,112,107,106,105,105,105,104,103,83],"timestamp_mouse":[10,31,44,66,84,106,126,144,164,185,205,226,245,264,286,305,325,344,365,384,405,424,444,464,484,505,525,545,564,584,604,624,645,664,685,704,726,744,765,785,804,825,846,865,884,906,924,946,964,984,1004,1024,1045,1064,1084,1104,1124,1145,1164,1186,1204,1225,1245,1264,1284,1305,1324,1344,1365,1385,1405,1426,1445,1465,1484,1505,1524,1545,1564,1586,1604,1624,1644,1664,1685,1705,1725,1744,1764,1785,1804,1825,1846,1865,1885,1905,1924,1946,1965,1984,2005,2025,2046,2064,2084,2104,2125,2144,2164,2185],"xSR":741.5,"ySR":469.95,"xT1":424.9,"yT1":0,"xT2":1058.1,"yT2":0,"toosoon":0,"cond_shown":"randomdotsizeEA","ratio_trial":750,"smaller_num":"3","larger_num":"4","correct_side":2,"subjID":"MIGUELBURGOSGIL33","gender":"0","age":"12","school":"6"},{"start_time":1551794823214,"click_time":1551794824638,"finger_time":1551794823897,"fix_duration":1355.7787475125022,"trial":12,"RT":683,"MT":741,"sideResp":2,"stimulus":"img/250/equaldotanddens/R/11_Ratio_250_L_3_R_12.png","xmouse":[795,795,795,795,795,795,795,795,795,795,795,795,795,795,795,795,795,795,795,795,795,795,795,795,795,795,795,795,795,795,795,795,795,802,814,830,848,903,936,961,980,991,998,1000,1002,1006,1008,1014,1017,1018,1020,1022,1024,1026,1028,1032,1036,1045,1049,1054,1058,1061,1068,1072,1076,1078,1080,1082,1082,1084,1085,1087],"ymouse":[483,483,483,483,483,483,483,483,483,483,483,483,483,483,483,483,483,483,483,483,483,483,483,483,483,483,483,483,483,483,483,483,483,476,462,444,424,362,326,304,288,280,273,271,265,258,253,235,227,219,213,207,200,197,194,187,179,164,160,155,151,146,137,132,124,120,116,113,110,106,103,96],"timestamp_mouse":[10,23,43,64,83,103,124,143,164,184,204,224,244,264,284,303,323,344,365,384,404,423,444,463,484,505,525,544,563,585,604,624,644,663,683,703,724,743,763,783,804,824,844,864,884,904,923,943,963,983,1003,1025,1043,1063,1084,1104,1123,1143,1163,1183,1204,1223,1244,1264,1284,1305,1324,1343,1363,1383,1403,1424],"xSR":741.5,"ySR":469.95,"xT1":424.9,"yT1":0,"xT2":1058.1,"yT2":0,"toosoon":0,"cond_shown":"equaldotanddens","ratio_trial":250,"smaller_num":"3","larger_num":"12","correct_side":2,"subjID":"MIGUELBURGOSGIL33","gender":"0","age":"12","school":"6"},{"start_time":1551794826515,"click_time":1551794828279,"finger_time":1551794827297,"fix_duration":856.1942904763174,"trial":13,"RT":782,"MT":982,"sideResp":1,"stimulus":"img/750/equaldotanddens/L/1_Ratio_750_L_20_R_15.png","xmouse":[804,804,804,804,804,804,804,804,804,804,804,804,804,804,804,804,804,804,804,804,804,804,804,804,804,804,804,804,804,804,804,804,804,804,804,804,804,785,761,723,703,689,676,671,667,662,658,650,648,646,643,639,622,613,606,600,596,589,586,584,584,584,584,583,581,581,578,570,567,566,564,563,558,557,556,555,554,553,552,550,548,547,541,539,537,532,530,521,515],"ymouse":[525,525,525,525,525,525,525,525,525,525,525,525,525,525,525,525,525,525,525,525,525,525,525,525,525,525,525,525,525,525,525,525,525,525,525,525,526,512,488,455,438,425,406,398,393,387,381,373,372,370,367,364,350,342,335,328,321,309,303,301,300,300,299,294,288,282,272,248,236,231,226,220,210,208,205,203,201,197,195,187,181,174,157,149,140,130,121,103,93],"timestamp_mouse":[20,22,43,64,84,102,122,143,162,182,203,222,242,262,282,302,324,343,363,382,402,423,443,463,483,503,522,543,562,584,603,622,642,663,682,703,723,742,763,782,803,822,843,862,882,903,924,943,963,982,1003,1022,1043,1062,1083,1103,1124,1142,1162,1182,1204,1222,1243,1262,1284,1302,1323,1342,1362,1383,1402,1422,1442,1462,1483,1502,1523,1542,1563,1582,1603,1623,1642,1662,1683,1702,1723,1743,1764],"xSR":741.5,"ySR":469.95,"xT1":424.9,"yT1":0,"xT2":1058.1,"yT2":0,"toosoon":0,"cond_shown":"equaldotanddens","ratio_trial":750,"smaller_num":"15","larger_num":"20","correct_side":1,"subjID":"MIGUELBURGOSGIL33","gender":"0","age":"12","school":"6"},{"start_time":1551794830998,"click_time":1551794832818,"finger_time":1551794832078,"fix_duration":1159.7540419834802,"trial":14,"RT":1080,"MT":740,"sideResp":1,"stimulus":"img/500/randomdotsizeEA/L/7_Ratio_500_L_10_R_5.png","xmouse":[783,783,783,783,783,783,783,783,783,783,783,783,783,783,783,783,783,783,783,783,783,783,783,783,783,783,783,783,783,783,783,783,783,783,783,783,783,783,783,783,783,783,783,783,783,783,783,783,783,783,783,783,784,762,757,736,727,722,722,722,721,720,716,703,693,686,680,671,655,645,637,630,625,621,620,616,615,612,607,604,602,601,599,589,571,558,547,541,529,523,519,513],"ymouse":[507,507,507,507,507,507,507,507,507,507,507,507,507,507,507,507,507,507,507,507,507,507,507,507,507,507,507,507,507,507,507,507,507,507,507,507,507,507,507,507,507,507,507,507,507,507,507,507,507,507,507,507,507,474,465,442,431,425,424,424,423,420,414,391,375,362,347,328,289,272,255,240,231,222,219,213,208,204,198,196,194,192,190,184,171,161,151,141,121,110,103,94],"timestamp_mouse":[1,19,41,61,79,99,119,139,160,180,201,219,239,260,279,301,321,340,360,380,399,420,440,460,480,501,519,540,559,580,599,619,640,660,679,699,721,740,759,780,799,820,839,859,880,900,919,939,959,979,999,1021,1039,1060,1080,1099,1121,1139,1159,1180,1200,1219,1239,1259,1279,1299,1319,1340,1359,1379,1399,1420,1439,1460,1481,1500,1519,1539,1559,1579,1600,1620,1640,1659,1679,1700,1719,1741,1760,1779,1799,1820],"xSR":741.5,"ySR":469.95,"xT1":424.9,"yT1":0,"xT2":1058.1,"yT2":0,"toosoon":0,"cond_shown":"randomdotsizeEA","ratio_trial":500,"smaller_num":"5","larger_num":"10","correct_side":1,"subjID":"MIGUELBURGOSGIL33","gender":"0","age":"12","school":"6"},{"start_time":1551794834649,"click_time":1551794835958,"finger_time":1551794835338,"fix_duration":724.9290656436923,"trial":15,"RT":689,"MT":620,"sideResp":1,"stimulus":"img/500/equaldotsize/L/7_Ratio_500_L_10_R_5.png","xmouse":[768,768,768,768,768,768,768,768,768,768,768,768,768,768,768,768,768,768,768,768,768,768,768,768,768,768,768,768,768,768,768,769,769,769,769,764,752,742,735,728,726,721,711,698,682,667,636,618,595,575,555,554,554,553,552,548,547,547,546,545,539,536,532,529,526,523],"ymouse":[530,530,530,530,530,530,530,530,530,530,530,530,530,530,530,530,530,530,530,530,530,530,530,530,530,530,530,530,530,530,530,529,510,474,411,281,235,205,189,181,178,176,174,168,156,143,114,95,67,45,28,27,27,27,27,27,27,27,27,29,46,54,62,67,72,75],"timestamp_mouse":[10,39,48,69,89,108,129,149,168,190,209,228,249,268,288,308,330,348,369,388,408,428,449,468,488,509,529,550,570,589,611,628,648,670,689,708,728,748,768,788,808,829,861,868,889,909,928,949,968,990,1009,1028,1048,1069,1089,1108,1129,1149,1168,1189,1209,1230,1248,1269,1289,1309],"xSR":741.5,"ySR":469.95,"xT1":424.9,"yT1":0,"xT2":1058.1,"yT2":0,"toosoon":0,"cond_shown":"equaldotsize","ratio_trial":500,"smaller_num":"5","larger_num":"10","correct_side":1,"subjID":"MIGUELBURGOSGIL33","gender":"0","age":"12","school":"6"},{"start_time":1551794838254,"click_time":1551794839758,"finger_time":1551794839057,"fix_duration":1256.540251998155,"trial":16,"RT":803,"MT":701,"sideResp":2,"stimulus":"img/900/equaldotsize/R/15_Ratio_900_L_9_R_10.png","xmouse":[756,756,756,756,756,756,756,756,756,756,756,756,756,756,756,756,756,756,756,756,756,756,756,756,756,756,756,756,756,756,756,756,756,756,756,756,756,756,762,770,836,941,1017,1099,1170,1250,1268,1276,1279,1281,1284,1292,1301,1311,1317,1320,1317,1306,1292,1277,1258,1258,1258,1258,1255,1249,1224,1213,1202,1195,1190,1183,1177,1171,1166,1157],"ymouse":[508,508,508,508,508,508,508,508,508,508,508,508,508,508,508,508,508,508,508,508,508,508,508,508,508,508,508,508,508,508,508,508,508,508,508,508,508,508,506,496,437,352,297,239,188,139,128,122,119,117,115,112,105,95,87,61,46,30,19,11,7,7,7,7,7,9,20,25,30,32,34,37,39,41,42,43],"timestamp_mouse":[10,36,43,63,84,103,123,143,163,183,204,224,245,263,283,303,324,343,363,383,404,424,443,463,484,504,523,543,563,584,603,623,644,665,684,704,723,743,763,784,803,823,843,864,883,903,923,943,964,983,1003,1023,1043,1064,1084,1104,1123,1143,1165,1184,1204,1224,1243,1263,1284,1303,1323,1344,1363,1384,1403,1424,1443,1463,1484,1504],"xSR":741.5,"ySR":469.95,"xT1":424.9,"yT1":0,"xT2":1058.1,"yT2":0,"toosoon":0,"cond_shown":"equaldotsize","ratio_trial":900,"smaller_num":"9","larger_num":"10","correct_side":2,"subjID":"MIGUELBURGOSGIL33","gender":"0","age":"12","school":"6"},{"start_time":1551794841422,"click_time":1551794843158,"finger_time":1551794842678,"fix_duration":423.30620854064694,"trial":17,"RT":1256,"MT":480,"sideResp":1,"stimulus":"img/500/randomdotsizeEA/L/8_Ratio_500_L_8_R_4.png","xmouse":[782,782,785,786,786,787,788,789,789,789,789,789,789,789,789,789,789,789,789,789,789,789,789,789,789,789,789,789,789,789,789,789,789,789,789,789,789,789,789,789,789,789,789,789,789,789,789,789,789,789,789,789,789,789,789,789,789,789,789,789,789,789,773,722,683,641,584,572,563,553,543,516,500,495,493,493,493,493,493,493,493,493,493,493,493,493,507],"ymouse":[489,489,489,489,489,489,489,489,489,489,489,489,489,489,489,489,489,489,489,489,489,489,489,489,489,489,489,489,489,489,489,489,489,489,489,489,489,489,489,489,489,489,489,489,489,489,489,489,489,489,489,489,489,489,489,489,489,489,489,489,489,484,456,366,299,241,176,163,153,143,135,120,110,107,106,106,106,106,106,106,106,106,106,106,106,103,92],"timestamp_mouse":[15,35,56,76,95,116,135,155,175,195,216,235,257,276,296,317,335,356,377,396,415,435,456,476,495,516,535,557,577,596,616,635,656,676,695,715,736,756,776,795,817,837,855,875,896,915,935,957,976,996,1016,1035,1056,1076,1095,1115,1135,1155,1175,1196,1215,1236,1256,1275,1296,1316,1335,1355,1376,1395,1415,1436,1456,1475,1495,1515,1535,1556,1576,1597,1615,1636,1655,1676,1696,1715,1736],"xSR":741.5,"ySR":469.95,"xT1":424.9,"yT1":0,"xT2":1058.1,"yT2":0,"toosoon":0,"cond_shown":"randomdotsizeEA","ratio_trial":500,"smaller_num":"4","larger_num":"8","correct_side":1,"subjID":"MIGUELBURGOSGIL33","gender":"0","age":"12","school":"6"},{"start_time":1551794845532,"click_time":1551794846637,"finger_time":1551794846278,"fix_duration":1094.9338930032907,"trial":18,"RT":746,"MT":359,"sideResp":2,"stimulus":"img/500/randomdotsizeEA/R/2_Ratio_500_L_3_R_6.png","xmouse":[762,762,762,762,762,762,762,762,762,762,762,762,762,762,762,762,762,762,762,762,762,762,762,762,762,762,762,762,762,762,762,762,762,762,767,775,794,841,894,932,972,1031,1053,1069,1083,1092,1104,1111,1113,1115,1116,1116,1116,1116,1116,1116],"ymouse":[497,497,497,497,497,497,497,497,497,497,497,497,497,497,497,497,497,497,497,497,497,497,497,497,497,497,497,497,497,497,497,497,497,497,497,495,488,467,438,412,378,313,288,270,257,247,227,212,202,188,176,154,144,134,119,98],"timestamp_mouse":[10,40,46,66,85,105,125,147,166,185,205,227,246,265,285,305,325,347,367,387,405,426,446,466,485,506,525,545,566,587,606,627,646,666,685,706,725,746,765,786,805,826,845,865,885,906,925,946,966,986,1006,1026,1045,1065,1086,1105],"xSR":741.5,"ySR":469.95,"xT1":424.9,"yT1":0,"xT2":1058.1,"yT2":0,"toosoon":0,"cond_shown":"randomdotsizeEA","ratio_trial":500,"smaller_num":"3","larger_num":"6","correct_side":2,"subjID":"MIGUELBURGOSGIL33","gender":"0","age":"12","school":"6"},{"start_time":1551794848539,"click_time":1551794849678,"finger_time":1551794849218,"fix_duration":961.5839731322258,"trial":19,"RT":679,"MT":460,"sideResp":2,"stimulus":"img/250/equaldotsize/R/9_Ratio_250_L_3_R_12.png","xmouse":[769,769,769,769,769,769,769,769,769,769,769,769,769,769,769,769,769,769,769,769,769,769,769,769,769,769,769,769,769,769,769,769,784,801,857,978,1032,1041,1041,1041,1041,1041,1041,1041,1041,1041,1042,1043,1043,1043,1043,1043,1044,1046,1048,1057,1059],"ymouse":[507,507,507,507,507,507,507,507,507,507,507,507,507,507,507,507,507,507,507,507,507,507,507,507,507,507,507,507,507,507,507,507,479,435,316,82,16,9,9,9,9,9,9,9,9,9,8,6,6,6,6,6,10,20,40,74,85],"timestamp_mouse":[31,39,59,79,98,119,140,158,180,200,218,238,260,278,298,319,339,359,380,399,420,440,459,479,499,518,538,558,578,599,618,638,659,679,699,718,738,759,779,799,819,838,859,879,900,919,938,958,980,998,1020,1039,1058,1078,1098,1119,1139],"xSR":741.5,"ySR":469.95,"xT1":424.9,"yT1":0,"xT2":1058.1,"yT2":0,"toosoon":0,"cond_shown":"equaldotsize","ratio_trial":250,"smaller_num":"3","larger_num":"12","correct_side":2,"subjID":"MIGUELBURGOSGIL33","gender":"0","age":"12","school":"6"},{"start_time":1551794851737,"click_time":1551794852877,"finger_time":1551794851917,"fix_duration":1076.949595281643,"trial":20,"RT":180,"MT":960,"sideResp":1,"stimulus":"img/250/randomdotsizeEA/L/5_Ratio_250_L_24_R_6.png","xmouse":[825,828,828,828,828,829,835,839,841,842,842,842,842,842,842,842,842,842,842,842,842,842,842,842,842,842,842,842,842,842,842,842,842,842,842,842,842,823,804,781,759,713,696,682,668,660,646,639,633,624,613,574,558,547,541,538,530,521],"ymouse":[484,483,483,483,483,482,478,476,475,474,474,474,474,474,474,474,474,474,474,474,474,474,474,474,474,474,474,474,474,474,474,474,474,474,474,474,470,455,442,426,407,370,357,345,333,325,303,288,275,256,225,145,121,103,94,90,74,58],"timestamp_mouse":[1,36,41,61,80,100,120,141,160,180,200,220,240,260,282,300,321,340,361,382,400,421,442,461,480,500,521,541,560,581,600,620,642,661,680,701,720,740,761,780,800,821,840,860,881,900,921,942,960,980,1000,1020,1040,1061,1082,1100,1120,1140],"xSR":741.5,"ySR":469.95,"xT1":424.9,"yT1":0,"xT2":1058.1,"yT2":0,"toosoon":0,"cond_shown":"randomdotsizeEA","ratio_trial":250,"smaller_num":"6","larger_num":"24","correct_side":1,"subjID":"MIGUELBURGOSGIL33","gender":"0","age":"12","school":"6"},{"start_time":1551794854243,"click_time":1551794855497,"finger_time":1551794855077,"fix_duration":763.575513954839,"trial":21,"RT":834,"MT":420,"sideResp":1,"stimulus":"img/500/randomdotsizeEA/L/13_Ratio_500_L_12_R_6.png","xmouse":[807,807,807,807,807,807,807,807,807,807,807,807,807,807,807,807,807,807,807,807,807,807,807,807,807,807,807,807,807,807,807,807,807,807,807,807,807,807,801,795,769,750,735,718,698,651,633,619,608,599,584,571,567,564,562,558,554,548,541,536,529,526,519],"ymouse":[547,547,547,547,547,547,547,547,547,547,547,547,547,547,547,547,547,547,547,547,547,547,547,547,547,547,547,547,547,547,547,547,547,547,547,547,547,547,540,533,493,453,415,375,326,235,210,191,176,164,141,128,123,120,118,115,112,108,103,98,91,89,85],"timestamp_mouse":[15,35,54,74,95,115,134,154,175,194,214,236,256,275,294,314,334,354,375,395,415,435,455,474,496,514,536,554,575,595,615,634,655,674,694,714,734,754,774,795,814,834,854,874,895,914,935,954,974,995,1015,1035,1054,1074,1095,1115,1134,1154,1175,1196,1214,1234,1254],"xSR":741.5,"ySR":469.95,"xT1":424.9,"yT1":0,"xT2":1058.1,"yT2":0,"toosoon":0,"cond_shown":"randomdotsizeEA","ratio_trial":500,"smaller_num":"6","larger_num":"12","correct_side":1,"subjID":"MIGUELBURGOSGIL33","gender":"0","age":"12","school":"6"},{"start_time":1551794856409,"click_time":1551794857717,"finger_time":1551794857058,"fix_duration":250,"trial":22,"RT":649,"MT":659,"sideResp":2,"stimulus":"img/250/equaldotsize/R/11_Ratio_250_L_3_R_12.png","xmouse":[783,783,783,783,783,783,783,783,783,783,783,783,783,783,783,783,783,783,783,783,783,783,783,783,783,783,783,783,783,783,790,799,894,922,1011,1054,1075,1083,1083,1083,1083,1083,1083,1083,1083,1083,1083,1083,1083,1084,1085,1086,1086,1086,1086,1086,1086,1087,1087,1087,1087,1087,1087,1087,1087,1088],"ymouse":[515,515,515,515,515,515,515,515,515,515,515,515,515,515,515,515,515,515,515,515,515,515,515,515,515,515,515,515,515,515,516,515,452,424,308,236,192,169,169,169,169,169,169,169,169,169,169,169,169,166,154,143,134,132,130,130,126,117,112,108,107,107,107,107,104,97],"timestamp_mouse":[9,30,48,68,90,109,130,148,168,188,209,228,248,268,288,308,330,350,368,388,408,428,449,468,489,508,528,548,569,589,608,629,649,669,688,708,730,748,768,788,810,828,848,868,888,909,928,948,969,989,1009,1029,1049,1070,1089,1108,1128,1149,1168,1188,1209,1229,1249,1270,1288,1308],"xSR":741.5,"ySR":469.95,"xT1":424.9,"yT1":0,"xT2":1058.1,"yT2":0,"toosoon":0,"cond_shown":"equaldotsize","ratio_trial":250,"smaller_num":"3","larger_num":"12","correct_side":2,"subjID":"MIGUELBURGOSGIL33","gender":"0","age":"12","school":"6"},{"start_time":1551794859288,"click_time":1551794861478,"finger_time":1551794860377,"fix_duration":250,"trial":23,"RT":1089,"MT":1101,"sideResp":2,"stimulus":"img/900/equaldotanddens/R/14_Ratio_900_L_18_R_20.png","xmouse":[813,813,813,813,813,813,813,813,813,813,813,813,813,813,813,813,813,813,813,813,813,813,813,813,813,813,813,813,813,813,813,813,813,813,813,813,813,813,813,813,813,813,813,813,813,813,813,813,813,813,813,813,820,840,860,888,912,932,959,967,979,983,984,985,986,986,989,994,1006,1009,1013,1021,1029,1039,1042,1043,1044,1044,1044,1044,1044,1044,1044,1044,1044,1044,1044,1044,1044,1044,1044,1044,1044,1044,1044,1044,1044,1044,1044,1044,1044,1044,1044,1044,1044,1044,1044,1044,1069,1092],"ymouse":[496,496,496,496,496,496,496,496,496,496,496,496,496,496,496,496,496,496,496,496,496,496,496,496,496,496,496,496,496,496,496,496,496,496,496,496,496,496,496,496,496,496,496,496,496,496,496,496,496,496,496,496,490,472,452,414,376,342,295,279,256,242,234,226,224,218,207,191,163,158,152,144,136,130,129,129,129,129,129,129,129,129,129,129,129,129,129,129,129,129,129,129,129,129,129,129,129,129,129,129,129,129,129,129,129,129,129,129,113,99],"timestamp_mouse":[10,33,49,71,89,110,130,151,169,190,209,229,250,270,291,309,330,349,369,389,409,429,451,469,489,509,530,551,570,590,609,629,649,669,690,709,729,750,769,790,810,829,851,870,890,909,930,951,969,989,1010,1030,1049,1070,1089,1109,1130,1149,1170,1189,1209,1230,1249,1269,1289,1309,1330,1349,1370,1389,1409,1430,1450,1470,1489,1509,1529,1551,1570,1589,1609,1629,1649,1669,1690,1709,1729,1750,1770,1790,1810,1830,1850,1869,1890,1910,1929,1949,1970,1991,2010,2029,2049,2070,2091,2109,2130,2150,2170,2190],"xSR":741.5,"ySR":469.95,"xT1":424.9,"yT1":0,"xT2":1058.1,"yT2":0,"toosoon":0,"cond_shown":"equaldotanddens","ratio_trial":900,"smaller_num":"18","larger_num":"20","correct_side":2,"subjID":"MIGUELBURGOSGIL33","gender":"0","age":"12","school":"6"},{"start_time":1551794862591,"click_time":1551794864317,"finger_time":1551794863257,"fix_duration":250,"trial":24,"RT":666,"MT":1060,"sideResp":1,"stimulus":"img/900/equaldotanddens/L/8_Ratio_900_L_20_R_18.png","xmouse":[764,764,764,764,764,764,765,766,770,770,770,770,770,770,770,771,771,771,771,771,771,771,771,771,771,771,771,771,771,771,769,766,756,730,712,701,693,686,658,613,541,458,386,320,316,315,313,306,293,288,286,286,286,288,291,302,310,318,334,336,336,336,336,336,336,336,336,336,337,340,343,346,349,351,352,352,352,352,352,352,352,352,352,352,355,386,434],"ymouse":[567,567,567,567,567,567,567,567,567,567,567,567,567,567,567,567,565,562,560,560,560,560,560,560,560,560,560,560,560,560,554,548,531,489,458,439,423,411,367,307,235,183,156,142,138,133,121,103,56,37,25,19,18,16,15,12,12,13,20,21,22,22,22,22,22,22,22,22,23,27,30,33,36,40,41,41,41,41,41,41,41,41,41,41,43,49,51],"timestamp_mouse":[10,33,47,67,86,108,126,146,166,187,206,227,248,266,286,306,326,346,367,387,407,426,447,466,486,507,527,547,567,586,607,627,647,666,686,706,727,746,767,786,806,826,847,866,886,906,926,946,966,986,1007,1027,1046,1066,1087,1106,1126,1146,1166,1186,1206,1227,1248,1267,1287,1307,1326,1346,1366,1386,1406,1427,1446,1467,1487,1506,1526,1546,1566,1587,1607,1627,1646,1668,1687,1706,1726],"xSR":741.5,"ySR":469.95,"xT1":424.9,"yT1":0,"xT2":1058.1,"yT2":0,"toosoon":0,"cond_shown":"equaldotanddens","ratio_trial":900,"smaller_num":"18","larger_num":"20","correct_side":1,"subjID":"MIGUELBURGOSGIL33","gender":"0","age":"12","school":"6"},{"start_time":1551794867461,"click_time":1551794868758,"finger_time":1551794868157,"fix_duration":1062.1641938528494,"trial":25,"RT":696,"MT":601,"sideResp":1,"stimulus":"img/750/equaldotanddens/L/1_Ratio_750_L_20_R_15.png","xmouse":[795,795,795,795,795,795,795,795,795,795,795,795,795,795,795,795,795,795,795,795,795,795,795,795,795,795,795,795,795,795,795,789,772,754,734,698,682,672,666,652,633,618,599,573,535,520,512,506,499,480,467,462,460,459,457,455,453,451,450,449,449,450,454,460,478],"ymouse":[485,485,485,485,485,485,485,485,485,485,485,485,485,485,485,485,485,485,485,485,485,485,485,485,485,485,485,485,485,485,486,486,479,471,463,447,441,436,432,420,398,378,354,324,284,270,261,250,237,202,179,169,166,164,160,158,155,151,148,143,139,134,125,108,65],"timestamp_mouse":[31,36,56,76,97,117,137,156,177,196,217,237,256,276,297,318,336,356,376,396,416,437,456,477,497,516,537,556,578,598,616,636,656,677,696,716,736,757,778,797,817,836,857,877,896,916,936,956,977,996,1016,1036,1058,1077,1096,1116,1136,1157,1178,1196,1216,1236,1257,1277,1297],"xSR":741.5,"ySR":469.95,"xT1":424.9,"yT1":0,"xT2":1058.1,"yT2":0,"toosoon":0,"cond_shown":"equaldotanddens","ratio_trial":750,"smaller_num":"15","larger_num":"20","correct_side":1,"subjID":"MIGUELBURGOSGIL33","gender":"0","age":"12","school":"6"},{"start_time":1551794869984,"click_time":1551794871078,"finger_time":1551794870697,"fix_duration":344.29041418454796,"trial":26,"RT":713,"MT":381,"sideResp":1,"stimulus":"img/250/equaldotsize/L/14_Ratio_250_L_12_R_3.png","xmouse":[777,777,777,777,777,777,777,777,777,777,777,777,777,777,777,777,777,777,777,777,777,777,777,777,777,777,777,777,777,777,777,777,777,777,774,754,729,705,648,627,614,605,598,584,579,573,569,562,548,542,535,530,522,516,501],"ymouse":[482,482,482,482,482,482,482,482,482,482,482,482,482,482,482,482,482,482,482,482,482,482,482,482,482,482,482,482,482,482,482,482,482,482,478,457,433,405,355,337,324,313,306,291,286,276,265,249,201,178,156,136,119,102,71],"timestamp_mouse":[14,38,53,73,93,113,133,154,173,195,214,233,254,273,293,314,334,354,373,394,413,433,453,473,493,514,534,553,574,593,614,633,653,674,694,713,734,753,773,793,813,834,853,873,894,914,935,954,973,993,1013,1034,1054,1073,1094],"xSR":741.5,"ySR":469.95,"xT1":424.9,"yT1":0,"xT2":1058.1,"yT2":0,"toosoon":0,"cond_shown":"equaldotsize","ratio_trial":250,"smaller_num":"3","larger_num":"12","correct_side":1,"subjID":"MIGUELBURGOSGIL33","gender":"0","age":"12","school":"6"},{"start_time":1551794873595,"click_time":1551794875258,"finger_time":1551794874958,"fix_duration":477.7920909894122,"trial":27,"RT":1363,"MT":300,"sideResp":2,"stimulus":"img/900/equaldotsize/R/5_Ratio_900_L_9_R_10.png","xmouse":[833,833,833,833,833,833,833,833,833,833,833,833,833,833,833,833,833,833,833,833,833,833,833,833,833,833,833,833,833,833,833,833,833,833,833,833,833,833,833,833,833,833,833,833,833,833,833,833,833,833,833,833,833,833,833,833,833,833,833,833,833,833,833,833,833,833,835,840,863,881,905,942,983,1032,1127,1136,1137,1138,1138,1137,1137,1137,1136,1128],"ymouse":[532,532,532,532,532,532,532,532,532,532,532,532,532,532,532,532,532,532,532,532,532,532,532,532,532,532,532,532,532,532,532,532,532,532,532,532,532,532,532,532,532,532,532,532,532,532,532,532,532,532,532,532,532,532,532,532,532,532,532,532,532,532,532,532,532,532,523,512,460,426,390,341,292,246,166,158,156,155,152,146,141,134,122,86],"timestamp_mouse":[10,31,42,64,82,104,122,144,162,182,204,222,243,264,283,302,323,343,363,383,402,422,443,463,482,502,523,542,563,582,602,623,642,663,682,703,722,742,762,782,802,822,842,863,883,903,923,943,962,983,1002,1023,1043,1063,1082,1102,1123,1143,1162,1182,1202,1222,1243,1262,1282,1303,1324,1342,1363,1382,1402,1423,1442,1463,1483,1502,1522,1542,1562,1582,1604,1623,1642,1662],"xSR":741.5,"ySR":469.95,"xT1":424.9,"yT1":0,"xT2":1058.1,"yT2":0,"toosoon":0,"cond_shown":"equaldotsize","ratio_trial":900,"smaller_num":"9","larger_num":"10","correct_side":2,"subjID":"MIGUELBURGOSGIL33","gender":"0","age":"12","school":"6"},{"start_time":1551794876649,"click_time":1551794877858,"finger_time":1551794877478,"fix_duration":250,"trial":28,"RT":829,"MT":380,"sideResp":2,"stimulus":"img/500/equaldotsize/R/6_Ratio_500_L_9_R_18.png","xmouse":[793,793,793,793,793,793,793,793,793,793,793,793,793,793,793,793,793,793,793,793,793,793,793,793,793,793,793,793,793,793,793,793,793,793,793,793,793,792,793,798,809,823,835,853,873,920,935,945,950,952,956,958,962,968,977,998,1009,1018,1030,1043,1069],"ymouse":[531,531,531,531,531,531,531,531,531,531,531,531,531,531,531,531,531,531,531,531,531,531,531,531,531,531,531,531,531,531,531,531,531,531,531,531,531,528,522,511,473,424,378,321,272,186,164,152,145,142,138,136,133,130,124,111,103,97,89,80,62],"timestamp_mouse":[10,41,49,69,89,108,130,149,168,188,208,230,248,268,289,308,328,348,368,388,409,429,448,469,488,508,528,548,568,589,608,629,649,668,689,709,728,749,768,789,808,829,848,868,889,909,928,949,969,988,1009,1029,1048,1069,1089,1108,1128,1148,1168,1188,1209],"xSR":741.5,"ySR":469.95,"xT1":424.9,"yT1":0,"xT2":1058.1,"yT2":0,"toosoon":0,"cond_shown":"equaldotsize","ratio_trial":500,"smaller_num":"9","larger_num":"18","correct_side":2,"subjID":"MIGUELBURGOSGIL33","gender":"0","age":"12","school":"6"},{"start_time":1551794879928,"click_time":1551794881438,"finger_time":1551794880857,"fix_duration":1327.737398107198,"trial":29,"RT":929,"MT":581,"sideResp":2,"stimulus":"img/500/randomdotsizeEA/R/15_Ratio_500_L_1_R_2.png","xmouse":[809,809,809,809,809,809,809,809,809,809,809,809,809,809,809,809,809,809,809,809,809,809,809,809,809,809,809,809,809,809,809,809,809,809,809,809,809,809,809,809,809,809,809,809,809,813,855,896,950,968,968,968,968,968,968,968,968,968,968,968,968,968,968,968,1030,1033,1035,1036,1037,1037,1037,1038,1042,1050,1058,1066],"ymouse":[528,528,528,528,528,528,528,528,528,528,528,528,528,528,528,528,528,528,528,528,528,528,528,528,528,528,528,528,528,528,528,528,528,528,528,528,528,528,528,528,528,528,528,526,517,482,297,188,52,21,21,21,21,21,21,21,21,21,21,21,21,21,21,21,18,28,36,38,39,40,40,40,42,45,47,49],"timestamp_mouse":[9,29,50,70,89,109,129,150,170,189,210,230,249,269,289,310,330,349,369,389,410,430,450,470,490,511,529,550,570,591,609,629,650,670,689,709,731,749,770,790,810,830,849,870,890,910,929,949,970,990,1009,1029,1050,1070,1090,1109,1129,1149,1170,1189,1209,1230,1249,1269,1290,1309,1330,1349,1369,1389,1410,1429,1449,1469,1489,1510],"xSR":741.5,"ySR":469.95,"xT1":424.9,"yT1":0,"xT2":1058.1,"yT2":0,"toosoon":0,"cond_shown":"randomdotsizeEA","ratio_trial":500,"smaller_num":"1","larger_num":"2","correct_side":2,"subjID":"MIGUELBURGOSGIL33","gender":"0","age":"12","school":"6"},{"start_time":1551794883254,"click_time":1551794884317,"finger_time":1551794884038,"fix_duration":995.3198967600482,"trial":30,"RT":784,"MT":279,"sideResp":1,"stimulus":"img/750/equaldotsize/L/9_Ratio_750_L_4_R_3.png","xmouse":[764,764,764,764,764,764,764,764,764,764,764,764,764,764,764,764,764,764,764,764,764,764,764,764,764,764,764,764,764,764,764,764,764,764,764,764,763,756,746,735,709,688,672,655,637,597,580,565,553,543,521,500,462,442],"ymouse":[559,559,559,559,559,559,559,559,559,559,559,559,559,559,559,559,559,559,559,559,559,559,559,559,559,559,559,559,559,559,559,559,559,559,559,559,557,553,550,545,523,497,477,457,437,390,372,357,348,338,299,251,153,95],"timestamp_mouse":[10,35,44,64,83,105,123,145,164,184,204,224,244,263,283,303,325,343,364,385,403,423,445,463,484,503,525,544,565,584,604,623,645,663,684,705,723,743,764,784,803,823,843,864,884,903,923,943,964,983,1004,1025,1043,1063],"xSR":741.5,"ySR":469.95,"xT1":424.9,"yT1":0,"xT2":1058.1,"yT2":0,"toosoon":0,"cond_shown":"equaldotsize","ratio_trial":750,"smaller_num":"3","larger_num":"4","correct_side":1,"subjID":"MIGUELBURGOSGIL33","gender":"0","age":"12","school":"6"},{"start_time":1551794886356,"click_time":1551794887439,"finger_time":1551794887017,"fix_duration":1137.8990179771272,"trial":31,"RT":661,"MT":422,"sideResp":2,"stimulus":"img/500/equaldotsize/R/1_Ratio_500_L_9_R_18.png","xmouse":[791,791,791,791,791,791,791,791,791,791,791,791,791,791,791,791,791,791,791,791,791,791,791,791,791,791,791,791,791,791,791,801,823,850,890,979,1012,1019,1022,1022,1022,1022,1022,1023,1026,1034,1041,1045,1047,1051,1057,1060,1066,1069,1071],"ymouse":[509,509,509,509,509,509,509,509,509,509,509,509,509,509,509,509,509,509,509,509,509,509,509,509,509,509,509,509,509,509,509,498,474,442,407,340,316,311,309,309,309,309,308,305,299,276,251,234,216,201,168,145,122,103,91],"timestamp_mouse":[9,32,42,61,81,102,121,142,161,182,202,221,241,261,281,302,323,342,362,381,402,421,443,461,482,502,522,542,562,581,602,621,642,661,681,701,722,741,763,782,802,822,841,861,882,901,921,941,961,981,1001,1021,1041,1062,1083],"xSR":741.5,"ySR":469.95,"xT1":424.9,"yT1":0,"xT2":1058.1,"yT2":0,"toosoon":0,"cond_shown":"equaldotsize","ratio_trial":500,"smaller_num":"9","larger_num":"18","correct_side":2,"subjID":"MIGUELBURGOSGIL33","gender":"0","age":"12","school":"6"},{"start_time":1551794889561,"click_time":1551794890738,"finger_time":1551794890278,"fix_duration":1283.549611143959,"trial":32,"RT":717,"MT":460,"sideResp":1,"stimulus":"img/900/randomdotsizeEA/R/14_Ratio_900_L_18_R_20.png","xmouse":[822,822,822,822,822,822,822,822,822,822,822,822,822,822,822,822,822,822,822,822,822,822,822,822,822,822,822,822,822,822,822,822,822,814,785,743,711,681,658,618,605,593,577,559,536,527,522,518,515,509,506,504,501,497,490,484,471,464,459],"ymouse":[509,509,509,509,509,509,509,509,509,509,509,509,509,509,509,509,509,509,509,509,509,509,509,509,509,509,509,509,509,509,509,509,509,505,482,450,425,404,387,361,352,344,330,314,284,270,261,253,244,225,215,205,195,183,154,137,112,100,91],"timestamp_mouse":[34,36,56,76,96,117,137,158,177,197,217,237,257,277,297,317,337,356,376,396,417,437,456,478,496,516,538,556,576,596,616,637,656,676,696,717,736,756,777,796,816,837,856,876,896,917,936,957,977,996,1016,1037,1056,1077,1096,1116,1136,1156,1176],"xSR":741.5,"ySR":469.95,"xT1":424.9,"yT1":0,"xT2":1058.1,"yT2":0,"toosoon":0,"cond_shown":"randomdotsizeEA","ratio_trial":900,"smaller_num":"18","larger_num":"20","correct_side":2,"subjID":"MIGUELBURGOSGIL33","gender":"0","age":"12","school":"6"},{"start_time":1551794891828,"click_time":1551794893258,"finger_time":1551794892677,"fix_duration":250,"trial":33,"RT":849,"MT":581,"sideResp":2,"stimulus":"img/500/equaldotsize/R/2_Ratio_500_L_3_R_6.png","xmouse":[794,794,794,794,794,794,794,794,794,794,794,794,794,794,794,794,794,794,794,794,794,794,794,794,794,794,794,794,794,794,794,794,794,794,794,794,794,794,794,794,799,821,857,887,914,935,960,969,977,984,991,1003,1009,1019,1026,1032,1050,1063,1077,1093,1104,1117,1117,1117,1117,1117,1117,1117,1116,1115,1113,1106],"ymouse":[514,514,514,514,514,514,514,514,514,514,514,514,514,514,514,514,514,514,514,514,514,514,514,514,514,514,514,514,514,514,514,514,514,514,514,514,514,514,514,514,515,500,469,442,415,389,352,340,330,324,318,309,304,295,288,281,260,245,228,205,183,140,133,130,129,128,128,128,126,124,119,98],"timestamp_mouse":[10,30,49,71,90,110,131,149,169,189,211,230,249,270,289,309,329,349,369,389,411,430,450,471,489,509,529,551,569,590,610,630,649,669,690,710,731,750,769,789,811,829,849,869,889,909,929,949,970,990,1010,1030,1050,1070,1090,1110,1130,1149,1169,1189,1210,1230,1249,1269,1290,1310,1330,1349,1371,1390,1409,1430],"xSR":741.5,"ySR":469.95,"xT1":424.9,"yT1":0,"xT2":1058.1,"yT2":0,"toosoon":0,"cond_shown":"equaldotsize","ratio_trial":500,"smaller_num":"3","larger_num":"6","correct_side":2,"subjID":"MIGUELBURGOSGIL33","gender":"0","age":"12","school":"6"},{"start_time":1551794894808,"click_time":1551794896477,"finger_time":1551794896297,"fix_duration":529.423639873112,"trial":34,"RT":1489,"MT":180,"sideResp":2,"stimulus":"img/750/randomdotsizeEA/R/7_Ratio_750_L_3_R_4.png","xmouse":[817,817,817,817,817,817,817,817,817,817,817,817,817,817,817,817,817,817,817,817,817,817,817,817,817,817,817,817,817,817,817,817,817,817,817,817,817,817,817,816,816,816,818,818,818,818,818,818,818,818,818,818,818,818,818,818,818,818,818,818,818,818,818,816,815,815,815,815,815,815,815,815,814,819,829,847,870,918,935,949,960,979,1030,1078],"ymouse":[553,553,553,553,553,553,553,553,553,553,553,553,553,553,553,553,553,553,553,553,553,553,553,553,553,553,553,553,553,553,553,553,553,553,553,553,553,553,553,552,549,541,529,527,527,527,527,527,527,527,527,527,527,527,527,527,527,527,527,527,527,527,525,523,523,523,523,523,523,523,523,523,520,494,465,425,369,258,220,190,163,130,54,3],"timestamp_mouse":[12,37,49,70,91,110,130,149,169,190,210,229,250,270,289,310,329,350,371,390,411,429,450,471,489,510,529,549,569,589,609,630,649,670,689,709,729,750,770,790,810,830,849,869,891,909,929,950,970,991,1009,1030,1049,1071,1090,1109,1131,1149,1169,1189,1209,1230,1249,1270,1289,1310,1329,1349,1369,1390,1409,1430,1449,1470,1489,1510,1530,1549,1569,1589,1610,1630,1649,1669],"xSR":741.5,"ySR":469.95,"xT1":424.9,"yT1":0,"xT2":1058.1,"yT2":0,"toosoon":0,"cond_shown":"randomdotsizeEA","ratio_trial":750,"smaller_num":"3","larger_num":"4","correct_side":2,"subjID":"MIGUELBURGOSGIL33","gender":"0","age":"12","school":"6"},{"start_time":1551794897886,"click_time":1551794898917,"finger_time":1551794898597,"fix_duration":287.6015577597582,"trial":35,"RT":711,"MT":320,"sideResp":1,"stimulus":"img/500/equaldotsize/L/13_Ratio_500_L_12_R_6.png","xmouse":[804,804,804,804,804,804,804,804,804,804,804,804,804,804,804,804,804,804,804,804,804,804,804,804,804,804,804,804,804,804,804,804,804,782,758,734,710,683,645,634,629,621,613,589,580,571,562,554,532,510,501,494],"ymouse":[524,524,524,524,524,524,524,524,524,524,524,524,524,524,524,524,524,524,524,524,524,524,524,524,524,524,524,524,524,524,524,524,524,510,500,490,478,467,441,428,419,408,397,366,354,339,321,298,227,152,122,99],"timestamp_mouse":[12,35,52,72,91,112,131,152,171,191,213,232,253,271,292,311,332,353,372,393,411,431,452,471,493,512,531,552,573,591,612,633,651,671,691,711,732,751,771,791,811,832,851,871,891,911,932,952,972,991,1012,1031],"xSR":741.5,"ySR":469.95,"xT1":424.9,"yT1":0,"xT2":1058.1,"yT2":0,"toosoon":0,"cond_shown":"equaldotsize","ratio_trial":500,"smaller_num":"6","larger_num":"12","correct_side":1,"subjID":"MIGUELBURGOSGIL33","gender":"0","age":"12","school":"6"},{"start_time":1551794901664,"click_time":1551794902857,"finger_time":1551794902438,"fix_duration":545.8530260517471,"trial":36,"RT":774,"MT":419,"sideResp":1,"stimulus":"img/750/equaldotanddens/L/14_Ratio_750_L_8_R_6.png","xmouse":[807,807,807,807,806,803,802,802,802,802,802,802,802,802,802,802,802,802,802,802,802,803,803,803,803,803,803,803,803,803,803,803,803,803,797,789,776,755,722,635,608,592,578,567,559,549,536,522,515,510,510,509,508,507,503,500,498,495,489,446],"ymouse":[534,534,534,534,534,534,534,534,534,534,534,534,534,534,534,534,534,534,534,534,534,534,534,534,534,534,534,534,534,534,534,534,534,534,518,506,493,478,445,313,233,206,190,181,176,175,175,175,177,179,179,179,178,175,166,159,154,147,137,78],"timestamp_mouse":[14,43,54,74,93,113,133,154,173,194,214,234,253,274,294,314,334,355,373,393,415,435,454,473,493,513,533,555,573,594,613,634,654,673,693,713,733,754,774,794,814,833,854,873,893,913,934,953,973,994,1014,1033,1053,1073,1094,1113,1133,1154,1175,1193],"xSR":741.5,"ySR":469.95,"xT1":424.9,"yT1":0,"xT2":1058.1,"yT2":0,"toosoon":0,"cond_shown":"equaldotanddens","ratio_trial":750,"smaller_num":"6","larger_num":"8","correct_side":1,"subjID":"MIGUELBURGOSGIL33","gender":"0","age":"12","school":"6"},{"start_time":1551794904858,"click_time":1551794906079,"finger_time":1551794905637,"fix_duration":999.2912591138993,"trial":37,"RT":779,"MT":442,"sideResp":1,"stimulus":"img/750/randomdotsizeEA/L/9_Ratio_750_L_4_R_3.png","xmouse":[785,785,785,785,785,788,791,792,793,793,794,794,794,794,794,794,794,791,791,790,790,790,790,790,790,790,790,790,790,790,790,789,788,787,787,787,786,783,778,771,759,717,694,672,642,564,513,475,449,439,427,416,414,414,414,414,414,414,414,414,418,433],"ymouse":[511,511,511,511,510,503,499,496,494,491,488,487,487,487,487,487,487,490,491,492,493,493,493,493,493,493,493,493,493,493,493,493,493,494,494,494,494,491,481,469,456,430,421,412,392,312,251,203,165,144,109,69,54,49,48,48,48,48,48,48,50,59],"timestamp_mouse":[1,30,41,60,79,100,119,140,159,180,199,220,240,259,280,299,319,339,360,380,401,421,439,460,479,499,520,540,560,580,601,620,640,660,680,700,719,740,759,779,799,819,839,859,880,900,919,939,959,979,1000,1020,1039,1059,1079,1099,1120,1140,1161,1179,1200,1221],"xSR":741.5,"ySR":469.95,"xT1":424.9,"yT1":0,"xT2":1058.1,"yT2":0,"toosoon":0,"cond_shown":"randomdotsizeEA","ratio_trial":750,"smaller_num":"3","larger_num":"4","correct_side":1,"subjID":"MIGUELBURGOSGIL33","gender":"0","age":"12","school":"6"},{"start_time":1551794908118,"click_time":1551794909477,"finger_time":1551794908877,"fix_duration":878.9154377091112,"trial":38,"RT":759,"MT":600,"sideResp":1,"stimulus":"img/500/equaldotsize/L/10_Ratio_500_L_4_R_2.png","xmouse":[815,815,816,816,816,816,816,816,816,816,816,816,816,816,816,816,816,816,816,816,816,816,816,816,816,816,816,816,816,816,816,816,816,816,816,810,804,790,730,627,568,532,510,507,506,505,505,505,503,502,502,502,506,507,507,505,500,488,485,482,477,472,470,469,469,469,469,469,470],"ymouse":[503,502,501,501,501,501,501,501,501,501,501,501,501,501,501,501,501,501,501,501,501,501,501,501,501,501,501,501,501,501,501,501,501,501,501,496,494,488,455,387,339,305,275,272,270,269,269,262,253,247,243,238,217,198,176,162,153,134,128,123,117,110,103,102,102,102,102,102,99],"timestamp_mouse":[1,30,40,59,80,99,120,141,161,179,200,219,241,259,279,300,319,339,359,379,399,419,440,459,479,500,519,540,560,580,599,620,639,659,681,699,719,739,759,779,801,821,840,859,879,900,920,939,960,979,1001,1019,1039,1059,1079,1099,1119,1140,1161,1179,1199,1219,1239,1259,1279,1299,1319,1339,1359],"xSR":741.5,"ySR":469.95,"xT1":424.9,"yT1":0,"xT2":1058.1,"yT2":0,"toosoon":0,"cond_shown":"equaldotsize","ratio_trial":500,"smaller_num":"2","larger_num":"4","correct_side":1,"subjID":"MIGUELBURGOSGIL33","gender":"0","age":"12","school":"6"},{"start_time":1551794912850,"click_time":1551794914058,"finger_time":1551794913678,"fix_duration":250,"trial":39,"RT":828,"MT":380,"sideResp":1,"stimulus":"img/900/randomdotsizeEA/R/5_Ratio_900_L_9_R_10.png","xmouse":[828,828,828,828,828,828,828,828,828,828,828,828,828,828,828,828,828,828,828,828,828,828,828,824,820,819,819,819,819,819,819,819,819,819,819,819,819,819,817,814,791,766,736,703,663,599,583,572,567,565,564,561,558,556,554,549,549,548,548,544,524],"ymouse":[505,505,505,505,505,505,505,505,505,505,505,505,505,505,505,505,505,505,505,505,505,504,503,502,502,502,502,502,502,502,502,502,502,502,502,502,502,502,502,502,488,457,411,350,281,165,133,113,104,100,95,86,80,76,72,70,70,70,70,70,74],"timestamp_mouse":[10,37,48,67,87,108,128,147,167,188,208,228,247,268,289,307,328,348,367,387,408,428,447,467,487,507,527,548,567,588,607,627,648,667,687,708,727,747,767,787,807,828,847,868,888,907,927,947,968,989,1007,1028,1047,1067,1087,1107,1127,1149,1167,1187,1208],"xSR":741.5,"ySR":469.95,"xT1":424.9,"yT1":0,"xT2":1058.1,"yT2":0,"toosoon":0,"cond_shown":"randomdotsizeEA","ratio_trial":900,"smaller_num":"9","larger_num":"10","correct_side":2,"subjID":"MIGUELBURGOSGIL33","gender":"0","age":"12","school":"6"},{"start_time":1551794916099,"click_time":1551794917217,"finger_time":1551794916937,"fix_duration":881.9345120046842,"trial":40,"RT":838,"MT":280,"sideResp":1,"stimulus":"img/750/equaldotsize/L/10_Ratio_750_L_4_R_3.png","xmouse":[768,768,768,768,768,768,768,768,768,768,768,768,768,768,768,768,768,768,768,768,768,768,768,768,768,768,768,768,768,768,768,768,768,768,768,768,768,768,764,757,745,728,686,658,631,614,601,584,574,564,558,554,546,536,526,513],"ymouse":[534,534,534,534,534,534,534,534,534,534,534,534,534,534,534,534,534,534,534,534,534,534,534,534,534,534,534,534,534,534,534,534,534,534,534,534,534,533,525,507,480,439,347,301,260,229,200,143,122,102,93,86,69,53,39,23],"timestamp_mouse":[18,40,59,80,98,119,138,159,180,198,218,239,258,279,299,319,339,358,379,399,419,439,458,480,499,518,539,559,579,598,618,639,659,679,698,718,740,758,778,798,819,838,858,878,898,918,939,958,978,998,1019,1039,1058,1078,1098,1118],"xSR":741.5,"ySR":469.95,"xT1":424.9,"yT1":0,"xT2":1058.1,"yT2":0,"toosoon":0,"cond_shown":"equaldotsize","ratio_trial":750,"smaller_num":"3","larger_num":"4","correct_side":1,"subjID":"MIGUELBURGOSGIL33","gender":"0","age":"12","school":"6"},{"start_time":1551794919323,"click_time":1551794920416,"finger_time":1551794920096,"fix_duration":1145.674698693981,"trial":41,"RT":773,"MT":320,"sideResp":1,"stimulus":"img/500/equaldotanddens/L/8_Ratio_500_L_8_R_4.png","xmouse":[814,814,814,814,814,814,814,814,814,814,814,814,814,814,814,814,814,814,814,814,814,814,814,814,814,814,814,814,814,814,814,814,814,814,814,814,801,791,746,700,646,523,486,467,458,454,452,451,448,446,444,442,442,442,444],"ymouse":[529,529,529,529,529,529,529,529,529,529,529,529,529,529,529,529,529,529,529,529,529,529,529,529,529,529,529,529,529,529,529,529,529,529,529,529,511,498,439,390,339,251,230,220,215,213,210,205,198,189,178,152,137,118,97],"timestamp_mouse":[13,34,54,74,95,113,134,153,174,194,213,233,255,273,294,314,333,354,375,393,413,434,453,474,495,514,534,554,575,594,614,634,654,674,694,713,734,754,773,794,814,835,853,874,894,913,934,955,973,993,1013,1034,1053,1073,1093],"xSR":741.5,"ySR":469.95,"xT1":424.9,"yT1":0,"xT2":1058.1,"yT2":0,"toosoon":0,"cond_shown":"equaldotanddens","ratio_trial":500,"smaller_num":"4","larger_num":"8","correct_side":1,"subjID":"MIGUELBURGOSGIL33","gender":"0","age":"12","school":"6"},{"start_time":1551794922748,"click_time":1551794924117,"finger_time":1551794923517,"fix_duration":250,"trial":42,"RT":769,"MT":600,"sideResp":2,"stimulus":"img/900/randomdotsizeEA/L/1_Ratio_900_L_10_R_9.png","xmouse":[776,776,776,776,776,776,776,776,776,776,776,776,776,776,776,776,776,776,776,776,776,776,776,776,776,776,776,776,776,776,776,776,776,776,776,776,778,801,847,899,1038,1089,1126,1142,1149,1151,1151,1151,1151,1151,1151,1151,1151,1150,1147,1134,1128,1120,1113,1105,1099,1099,1099,1099,1099,1099,1099,1099,1099],"ymouse":[521,521,521,521,521,521,521,521,521,521,521,521,521,521,521,521,521,521,521,521,521,521,521,521,521,521,521,521,521,521,521,521,521,521,521,521,521,496,438,376,264,231,211,199,193,190,190,190,190,190,190,190,188,183,180,164,155,147,139,129,123,122,122,122,122,122,120,109,95],"timestamp_mouse":[10,41,49,69,90,108,129,149,168,189,209,228,250,269,288,310,328,349,369,388,409,430,448,470,488,509,530,549,568,588,609,628,648,668,688,710,729,748,769,789,810,828,849,869,889,909,928,948,970,989,1010,1028,1050,1069,1089,1109,1129,1149,1170,1190,1209,1230,1249,1268,1288,1309,1329,1348,1369],"xSR":741.5,"ySR":469.95,"xT1":424.9,"yT1":0,"xT2":1058.1,"yT2":0,"toosoon":0,"cond_shown":"randomdotsizeEA","ratio_trial":900,"smaller_num":"9","larger_num":"10","correct_side":1,"subjID":"MIGUELBURGOSGIL33","gender":"0","age":"12","school":"6"},{"start_time":1551794929192,"click_time":1551794930956,"finger_time":1551794930197,"fix_duration":814.9712214504877,"trial":43,"RT":1005,"MT":759,"sideResp":1,"stimulus":"img/900/equaldotsize/R/12_Ratio_900_L_18_R_20.png","xmouse":[782,782,782,782,782,782,782,782,782,782,782,782,782,782,776,765,758,757,757,757,757,757,757,757,756,756,756,756,756,756,757,757,758,758,758,760,770,785,805,808,810,811,811,811,811,811,811,807,769,750,732,717,699,673,658,651,645,637,615,606,603,601,597,580,550,518,462,403,363,362,362,362,362,362,363,367,369,370,382,385,387,389,390,393,395,399,405,414,428],"ymouse":[516,516,516,516,516,516,516,516,516,516,516,516,516,516,520,529,534,535,535,535,535,535,535,535,536,536,536,536,536,536,537,537,537,537,537,537,532,522,515,514,513,512,512,512,512,512,510,505,488,483,474,465,447,419,399,387,373,356,321,312,308,304,297,277,261,251,240,232,226,225,223,222,220,214,207,201,197,193,159,145,135,129,124,117,114,111,108,102,94],"timestamp_mouse":[11,32,45,66,85,106,126,144,164,184,205,224,246,265,284,304,326,345,365,384,406,425,444,465,485,505,526,544,564,584,606,624,645,665,686,704,725,745,765,784,806,824,845,865,884,905,924,944,965,984,1005,1025,1044,1065,1086,1104,1125,1145,1164,1184,1204,1224,1245,1265,1285,1305,1325,1345,1365,1384,1405,1425,1445,1464,1484,1504,1525,1544,1565,1584,1605,1625,1645,1665,1684,1704,1724,1744,1764],"xSR":741.5,"ySR":469.95,"xT1":424.9,"yT1":0,"xT2":1058.1,"yT2":0,"toosoon":0,"cond_shown":"equaldotsize","ratio_trial":900,"smaller_num":"18","larger_num":"20","correct_side":2,"subjID":"MIGUELBURGOSGIL33","gender":"0","age":"12","school":"6"},{"start_time":1551794939935,"click_time":1551794941637,"finger_time":1551794940537,"fix_duration":1438.3700214881787,"trial":44,"RT":602,"MT":1100,"sideResp":2,"stimulus":"img/900/equaldotsize/R/14_Ratio_900_L_18_R_20.png","xmouse":[836,836,836,836,836,836,836,836,836,836,836,836,836,836,836,836,836,836,836,836,836,836,836,836,836,836,836,836,836,834,846,1069,1254,1391,1391,1391,1391,1391,1391,158,0,49,385,978,978,978,978,1264,858,474,314,506,837,1186,1186,1186,1186,1032,0,0,81,1006,1006,1006,1006,1006,857,274,203,365,799,1342,1342,1342,1274,1029,44,9,184,542,1110,1110,1110,1110,1181,1059],"ymouse":[489,489,489,489,489,489,489,489,489,489,489,489,489,489,489,489,489,489,489,489,489,489,489,489,489,489,489,489,489,489,480,335,180,16,16,16,16,16,16,161,243,274,239,138,138,138,138,22,135,211,239,175,88,8,8,8,8,26,220,244,231,32,32,32,32,32,167,319,339,318,237,104,104,104,5,57,297,328,284,184,0,0,0,0,2,44],"timestamp_mouse":[4,27,42,62,83,102,121,141,161,182,203,222,242,262,281,301,322,341,363,382,401,421,443,461,481,502,521,541,561,582,602,622,641,662,681,701,722,743,762,783,802,822,842,861,881,901,921,941,962,982,1002,1023,1041,1062,1083,1103,1122,1141,1162,1181,1202,1223,1243,1262,1282,1302,1321,1341,1361,1382,1402,1423,1442,1463,1482,1503,1521,1541,1561,1581,1602,1622,1642,1661,1681,1702],"xSR":741.5,"ySR":469.95,"xT1":424.9,"yT1":0,"xT2":1058.1,"yT2":0,"toosoon":0,"cond_shown":"equaldotsize","ratio_trial":900,"smaller_num":"18","larger_num":"20","correct_side":2,"subjID":"MIGUELBURGOSGIL33","gender":"0","age":"12","school":"6"},{"start_time":1551794944498,"click_time":1551794945257,"finger_time":1551794945117,"fix_duration":1299.3718032690635,"trial":45,"RT":619,"MT":140,"sideResp":1,"stimulus":"img/250/equaldotanddens/L/7_Ratio_250_L_8_R_2.png","xmouse":[821,821,821,821,821,821,821,821,821,821,821,821,821,821,821,821,821,821,821,821,821,821,821,821,821,821,821,821,821,821,801,644,62,0,0,0,50,435],"ymouse":[481,481,481,481,481,481,481,481,481,481,481,481,481,481,481,481,481,481,481,481,481,481,481,481,481,481,481,481,481,481,467,401,275,231,193,180,148,55],"timestamp_mouse":[21,39,60,79,99,120,138,158,179,198,220,238,260,278,299,319,339,359,379,399,419,440,459,479,498,519,540,559,579,598,619,638,658,678,698,719,739,758],"xSR":741.5,"ySR":469.95,"xT1":424.9,"yT1":0,"xT2":1058.1,"yT2":0,"toosoon":0,"cond_shown":"equaldotanddens","ratio_trial":250,"smaller_num":"2","larger_num":"8","correct_side":1,"subjID":"MIGUELBURGOSGIL33","gender":"0","age":"12","school":"6"},{"start_time":1551794947662,"click_time":1551794948778,"finger_time":1551794948237,"fix_duration":1004.7350254044644,"trial":46,"RT":575,"MT":541,"sideResp":2,"stimulus":"img/500/randomdotsizeEA/R/6_Ratio_500_L_9_R_18.png","xmouse":[794,794,794,794,794,794,794,794,794,794,794,794,794,794,794,794,794,794,794,794,794,794,794,794,794,794,795,795,793,806,857,937,995,1050,1050,1050,1050,1050,716,489,615,957,957,957,957,957,1234,878,553,471,690,995,1231,1320,1250,1069],"ymouse":[477,477,477,477,477,477,477,477,477,477,477,477,477,477,477,477,477,477,477,477,477,477,477,477,477,477,477,474,463,388,305,208,117,26,26,26,26,26,50,103,93,38,38,38,38,38,15,93,158,185,147,89,45,21,21,49],"timestamp_mouse":[15,34,55,75,95,114,136,156,176,195,215,236,256,275,295,314,335,355,375,395,414,435,454,474,496,514,536,555,575,596,614,634,655,675,695,715,735,755,774,794,815,835,855,876,895,914,935,954,974,995,1014,1034,1056,1074,1095,1115],"xSR":741.5,"ySR":469.95,"xT1":424.9,"yT1":0,"xT2":1058.1,"yT2":0,"toosoon":0,"cond_shown":"randomdotsizeEA","ratio_trial":500,"smaller_num":"9","larger_num":"18","correct_side":2,"subjID":"MIGUELBURGOSGIL33","gender":"0","age":"12","school":"6"},{"start_time":1551794950978,"click_time":1551794952157,"finger_time":1551794951876,"fix_duration":1319.6024165160845,"trial":47,"RT":898,"MT":281,"sideResp":2,"stimulus":"img/250/randomdotsizeEA/R/4_Ratio_250_L_3_R_12.png","xmouse":[831,831,831,831,831,831,831,831,831,831,831,831,831,831,831,831,831,831,831,831,831,831,831,831,831,831,831,831,831,831,831,831,831,831,831,831,831,831,831,831,831,831,831,831,838,859,906,986,1102,1223,1223,1223,1223,1223,1025,898,859,859,864,1069],"ymouse":[520,520,520,520,520,520,520,520,520,520,520,520,520,520,520,520,520,520,520,520,520,520,520,520,520,520,520,520,520,520,520,520,520,520,520,520,520,520,520,520,520,520,520,519,470,402,314,218,115,4,4,4,4,4,38,73,85,86,86,64],"timestamp_mouse":[1,30,39,60,78,99,118,140,158,179,198,219,240,259,280,299,319,338,359,378,400,419,438,459,478,500,519,539,560,579,600,618,638,659,680,700,718,740,759,779,799,820,838,859,879,898,919,940,960,979,999,1019,1039,1059,1079,1098,1118,1139,1159,1179],"xSR":741.5,"ySR":469.95,"xT1":424.9,"yT1":0,"xT2":1058.1,"yT2":0,"toosoon":0,"cond_shown":"randomdotsizeEA","ratio_trial":250,"smaller_num":"3","larger_num":"12","correct_side":2,"subjID":"MIGUELBURGOSGIL33","gender":"0","age":"12","school":"6"},{"start_time":1551794955069,"click_time":1551794955956,"finger_time":1551794955656,"fix_duration":250,"trial":48,"RT":587,"MT":300,"sideResp":1,"stimulus":"img/500/equaldotanddens/L/4_Ratio_500_L_18_R_9.png","xmouse":[801,801,801,801,801,801,801,801,801,801,801,801,801,801,801,801,801,801,801,801,801,801,801,801,801,801,801,794,784,638,423,245,79,0,0,3,59,191,382,693,717,717,697,637,496],"ymouse":[508,508,508,508,508,508,508,508,508,508,508,508,508,508,508,508,508,508,508,508,508,508,508,508,508,508,508,500,491,431,374,332,290,256,222,211,189,147,102,54,52,52,54,62,81],"timestamp_mouse":[9,36,47,68,88,109,127,148,168,188,208,229,247,268,288,308,329,347,367,388,408,429,448,469,487,507,527,547,568,587,608,627,648,667,687,707,727,747,769,787,807,827,848,869,887],"xSR":741.5,"ySR":469.95,"xT1":424.9,"yT1":0,"xT2":1058.1,"yT2":0,"toosoon":0,"cond_shown":"equaldotanddens","ratio_trial":500,"smaller_num":"9","larger_num":"18","correct_side":1,"subjID":"MIGUELBURGOSGIL33","gender":"0","age":"12","school":"6"},{"start_time":1551794958360,"click_time":1551794964518,"finger_time":1551794961876,"fix_duration":1222.318053457742,"trial":49,"RT":3516,"MT":2642,"sideResp":2,"stimulus":"img/250/equaldotanddens/R/13_Ratio_250_L_2_R_8.png","xmouse":[804,804,804,804,804,804,804,804,804,804,804,804,804,804,804,804,804,804,804,804,804,804,804,804,804,804,804,804,804,804,804,804,804,804,804,804,804,804,804,804,804,804,804,804,804,804,804,804,804,804,804,804,804,804,804,804,804,804,804,804,804,804,804,804,804,804,804,804,804,804,804,804,804,804,805,808,808,810,811,812,812,812,812,812,812,812,812,812,812,812,812,812,812,812,812,812,812,812,812,812,812,812,812,812,812,812,812,812,812,812,812,812,812,812,812,812,812,812,812,812,812,812,812,812,812,812,812,812,812,812,812,812,812,812,812,812,812,812,812,812,812,812,812,812,812,813,815,816,817,818,820,822,823,826,828,829,830,831,831,831,831,831,831,831,831,831,831,831,831,831,831,833,834,835,837,843,849,852,852,852,852,853,853,853,853,853,856,860,862,866,867,868,869,869,870,872,875,878,880,885,888,891,893,894,896,897,897,899,900,901,902,903,905,906,910,913,920,927,933,941,944,947,950,954,957,958,959,959,959,962,964,964,966,968,972,973,973,974,975,975,975,975,975,975,975,976,976,976,976,976,977,978,978,978,979,979,979,979,979,979,976,976,976,976,976,977,984,995,1003,1014,1016,1018,1019,1023,1031,1039,1045,1051,1057,1061,1074,1078,1083,1085,1090,1092,1093,1093,1093,1094,1094,1094,1094,1094,1092,1089,1085,1083,1082,1081,1081,1080,1080,1080,1080,1080,1080,1081],"ymouse":[503,503,503,503,503,503,503,503,503,503,503,503,503,503,503,503,503,503,503,503,503,503,503,503,503,503,503,503,503,503,503,503,503,503,503,503,503,503,503,503,503,503,503,503,503,503,503,503,503,503,503,503,503,503,503,503,503,503,503,503,503,503,503,503,503,503,503,503,503,503,503,503,503,504,504,505,505,506,506,506,506,506,506,506,506,506,506,506,506,506,506,506,506,506,506,506,506,506,506,506,506,506,506,506,506,506,506,506,506,506,506,506,506,506,506,506,506,506,506,506,506,506,506,506,506,506,506,506,506,506,506,506,506,506,506,506,506,506,506,506,506,506,506,506,506,506,507,507,507,508,509,509,509,509,509,507,505,504,504,504,504,504,504,504,504,504,504,504,504,504,503,501,498,493,486,484,483,482,482,482,482,482,482,482,482,482,479,477,475,470,469,468,468,468,465,462,458,454,450,439,430,418,405,396,386,380,376,372,367,363,361,360,358,357,351,348,343,340,337,333,332,331,329,326,323,322,322,322,321,317,315,313,309,306,299,296,295,294,291,290,290,290,289,289,289,286,285,283,282,281,279,278,277,277,272,269,265,259,255,249,236,233,229,226,219,216,201,183,174,164,163,161,160,158,154,151,149,146,143,142,136,134,132,131,129,128,127,125,124,122,119,117,115,113,109,108,106,105,104,103,103,102,102,101,100,100,100,99],"timestamp_mouse":[30,38,56,77,97,116,136,157,176,198,217,236,258,276,297,317,336,356,378,397,418,436,458,477,496,517,536,556,576,596,616,636,657,676,697,717,738,757,777,797,817,836,856,877,897,917,938,956,977,997,1016,1036,1057,1076,1097,1117,1137,1156,1177,1197,1216,1236,1257,1278,1296,1316,1338,1356,1377,1397,1416,1438,1457,1476,1497,1517,1538,1558,1576,1596,1617,1636,1658,1676,1696,1718,1736,1757,1776,1797,1818,1838,1858,1877,1897,1917,1937,1957,1976,1996,2017,2037,2058,2077,2097,2116,2138,2157,2177,2197,2217,2236,2257,2277,2297,2317,2336,2357,2376,2397,2417,2437,2457,2477,2496,2517,2537,2558,2578,2598,2618,2636,2657,2676,2696,2717,2737,2757,2776,2797,2816,2837,2857,2877,2897,2917,2936,2957,2977,2996,3017,3038,3057,3077,3097,3117,3136,3158,3176,3198,3216,3237,3256,3276,3297,3316,3336,3358,3378,3397,3416,3437,3458,3477,3496,3516,3536,3557,3576,3597,3617,3638,3657,3677,3696,3717,3736,3756,3776,3796,3816,3836,3857,3877,3897,3917,3936,3957,3977,3997,4016,4037,4056,4077,4097,4117,4136,4157,4177,4196,4216,4237,4257,4276,4297,4317,4336,4357,4376,4398,4416,4436,4456,4478,4497,4516,4536,4557,4576,4596,4617,4637,4657,4678,4696,4717,4736,4757,4778,4796,4817,4836,4857,4878,4897,4918,4937,4957,4987,4996,5016,5036,5057,5077,5097,5117,5136,5157,5176,5197,5216,5237,5256,5278,5296,5317,5336,5358,5377,5397,5416,5436,5456,5477,5497,5518,5536,5556,5578,5596,5616,5636,5658,5677,5696,5716,5737,5756,5776,5797,5816,5836,5857,5878,5896,5917,5936,5957,5976,5997,6016,6036,6056,6077,6098,6117,6137,6158],"xSR":741.5,"ySR":469.95,"xT1":424.9,"yT1":0,"xT2":1058.1,"yT2":0,"toosoon":0,"cond_shown":"equaldotanddens","ratio_trial":250,"smaller_num":"2","larger_num":"8","correct_side":2,"subjID":"MIGUELBURGOSGIL33","gender":"0","age":"12","school":"6"},{"start_time":1551794965907,"click_time":1551794966936,"finger_time":1551794966598,"fix_duration":250,"trial":50,"RT":691,"MT":338,"sideResp":2,"stimulus":"img/750/equaldotsize/R/7_Ratio_750_L_3_R_4.png","xmouse":[775,775,775,775,775,775,775,775,775,775,775,775,775,775,775,775,775,775,775,775,775,775,775,775,775,775,775,775,775,775,775,775,783,793,806,825,848,905,932,980,1032,1086,1167,1175,1175,1175,1175,1175,1175,1174,1162,1149],"ymouse":[540,540,540,540,540,540,540,540,540,540,540,540,540,540,540,540,540,540,540,540,540,540,540,540,540,540,540,540,540,540,532,520,504,485,464,442,428,395,379,347,298,202,84,72,70,69,68,68,68,65,65,65],"timestamp_mouse":[11,30,51,71,90,110,129,151,170,191,210,229,250,271,290,310,329,349,370,391,411,429,450,471,490,511,531,549,570,589,611,630,649,669,691,710,729,750,771,789,810,829,850,871,890,909,930,950,969,989,1010,1029],"xSR":741.5,"ySR":469.95,"xT1":424.9,"yT1":0,"xT2":1058.1,"yT2":0,"toosoon":0,"cond_shown":"equaldotsize","ratio_trial":750,"smaller_num":"3","larger_num":"4","correct_side":2,"subjID":"MIGUELBURGOSGIL33","gender":"0","age":"12","school":"6"},{"start_time":1551794968342,"click_time":1551794969456,"finger_time":1551794969118,"fix_duration":703.8672043157791,"trial":51,"RT":776,"MT":338,"sideResp":2,"stimulus":"img/900/randomdotsizeEA/R/3_Ratio_900_L_9_R_10.png","xmouse":[755,755,755,755,755,755,755,755,755,755,755,755,755,755,755,755,755,755,755,755,755,755,755,755,755,755,755,755,755,755,755,755,755,755,755,758,759,759,760,760,760,762,769,782,804,866,920,960,995,1021,1038,1059,1067,1074,1078,1105],"ymouse":[494,494,494,494,494,494,494,494,494,494,494,494,494,494,494,494,494,494,494,494,494,494,494,494,494,494,494,494,494,494,493,493,492,490,486,476,474,470,466,461,438,426,406,378,317,205,152,130,115,108,106,102,102,100,100,97],"timestamp_mouse":[14,35,54,75,96,114,134,154,175,195,215,236,254,275,295,315,334,355,374,396,414,434,454,475,494,516,534,555,574,594,614,636,656,675,695,714,735,754,776,794,815,834,855,875,895,915,936,955,975,994,1014,1035,1055,1075,1095,1114],"xSR":741.5,"ySR":469.95,"xT1":424.9,"yT1":0,"xT2":1058.1,"yT2":0,"toosoon":0,"cond_shown":"randomdotsizeEA","ratio_trial":900,"smaller_num":"9","larger_num":"10","correct_side":2,"subjID":"MIGUELBURGOSGIL33","gender":"0","age":"12","school":"6"},{"start_time":1551794973782,"click_time":1551794979617,"finger_time":1551794974276,"fix_duration":604.6534199752543,"trial":52,"RT":494,"MT":5341,"sideResp":2,"stimulus":"img/500/randomdotsizeEA/R/2_Ratio_500_L_3_R_6.png","xmouse":[788,788,788,788,788,788,788,788,788,788,788,788,788,786,781,775,771,768,761,757,753,752,750,745,739,738,737,737,736,736,735,735,735,732,731,728,726,724,712,706,700,697,690,679,670,656,649,644,637,635,632,629,625,613,609,599,597,596,592,591,589,588,586,585,584,582,581,580,578,577,577,576,575,575,575,575,575,575,574,572,571,570,568,564,561,561,557,553,549,542,540,538,537,536,535,534,533,531,530,529,528,526,525,523,523,523,522,522,522,522,520,518,518,515,514,513,513,513,513,513,513,513,513,513,513,513,513,513,513,513,513,513,513,513,514,514,514,515,515,515,516,516,516,517,517,517,517,517,518,519,520,521,521,523,524,524,525,526,527,527,527,528,529,529,529,529,529,529,529,529,529,529,529,529,529,529,529,529,529,529,529,529,529,529,529,529,528,528,528,528,528,527,527,521,518,516,515,515,515,515,515,515,515,515,515,515,515,515,515,515,515,515,515,515,515,515,515,516,516,517,517,517,517,517,517,517,517,517,517,517,517,518,519,522,528,529,530,530,530,530,530,530,531,531,533,534,534,536,536,537,537,538,540,546,549,550,550,551,552,554,555,556,557,561,567,575,586,601,635,647,656,664,671,681,687,692,697,702,711,722,733,744,756,779,799,816,831,855,958,1013,1051,1090],"ymouse":[511,511,511,511,511,511,511,511,511,511,511,511,511,511,511,511,511,511,511,511,511,511,511,510,508,508,508,508,507,507,507,507,507,506,506,505,504,503,500,498,496,493,489,482,478,471,468,465,459,457,450,442,432,407,399,383,379,377,369,366,362,357,354,347,340,337,331,327,321,317,315,313,308,302,295,290,285,280,275,268,266,263,259,250,243,241,233,226,220,211,208,205,204,201,199,197,195,194,191,189,186,183,181,179,178,178,178,178,178,178,176,174,172,164,162,160,160,160,160,160,158,158,156,154,150,146,143,142,142,142,142,141,141,138,137,135,134,133,130,128,126,124,123,122,122,121,121,121,118,117,116,115,114,113,111,111,109,108,108,106,106,105,105,103,103,103,103,103,103,103,103,103,103,103,102,102,102,102,102,101,101,101,101,101,101,101,101,101,101,101,101,101,101,101,101,101,102,102,102,102,102,102,102,102,102,102,102,102,102,102,102,102,102,102,102,102,102,102,102,101,101,101,101,101,101,101,101,101,101,101,101,100,100,100,99,99,99,99,99,99,99,99,98,98,98,97,97,96,96,95,95,94,94,92,91,90,90,90,90,90,90,90,90,89,87,84,79,76,71,70,68,67,66,65,65,65,64,63,63,63,63,62,60,57,54,52,50,46,36,28,23,16],"timestamp_mouse":[15,41,56,75,94,116,135,155,175,194,215,235,254,274,294,314,335,355,375,394,414,435,455,475,494,514,536,555,575,594,615,635,654,675,695,714,735,755,775,794,815,835,855,874,895,914,936,955,975,994,1015,1035,1054,1075,1095,1115,1135,1156,1176,1195,1214,1234,1254,1275,1295,1314,1336,1355,1374,1394,1415,1435,1455,1475,1494,1514,1536,1555,1575,1594,1615,1635,1655,1674,1695,1714,1734,1755,1775,1794,1816,1834,1855,1875,1895,1914,1936,1954,1974,1995,2015,2035,2054,2074,2095,2114,2136,2155,2176,2196,2215,2235,2255,2275,2294,2315,2336,2356,2375,2394,2414,2435,2455,2474,2495,2514,2535,2554,2575,2595,2614,2635,2655,2674,2694,2715,2735,2756,2775,2795,2815,2835,2854,2874,2896,2915,2935,2954,2974,2995,3015,3035,3055,3075,3095,3114,3136,3155,3174,3195,3215,3234,3255,3274,3295,3315,3334,3355,3375,3395,3414,3434,3456,3475,3494,3514,3536,3556,3575,3595,3614,3634,3656,3676,3694,3715,3735,3754,3775,3795,3814,3835,3855,3875,3894,3914,3934,3955,3975,3995,4015,4034,4056,4075,4096,4116,4136,4155,4176,4195,4215,4236,4255,4276,4295,4316,4335,4356,4375,4395,4415,4434,4456,4475,4495,4515,4535,4555,4575,4595,4614,4634,4654,4675,4694,4714,4736,4754,4776,4796,4816,4834,4855,4875,4896,4914,4935,4956,4975,4995,5016,5036,5054,5075,5095,5114,5134,5154,5175,5195,5215,5235,5255,5276,5296,5315,5336,5355,5375,5394,5415,5435,5454,5475,5496,5514,5536,5555,5575,5596,5615,5636,5655,5675,5695,5715,5736,5757,5776,5796,5816,5835],"xSR":741.5,"ySR":469.95,"xT1":424.9,"yT1":0,"xT2":1058.1,"yT2":0,"toosoon":0,"cond_shown":"randomdotsizeEA","ratio_trial":500,"smaller_num":"3","larger_num":"6","correct_side":2,"subjID":"MIGUELBURGOSGIL33","gender":"0","age":"12","school":"6"},{"start_time":1551794983096,"click_time":1551794985637,"finger_time":1551794983158,"fix_duration":1397.7323669952757,"trial":53,"RT":62,"MT":2479,"sideResp":1,"stimulus":"img/500/equaldotsize/L/13_Ratio_500_L_12_R_6.png","xmouse":[814,804,804,777,768,757,742,729,721,721,723,729,734,746,750,752,753,754,755,755,755,756,757,758,760,760,761,762,762,762,762,762,762,762,762,760,759,753,737,716,699,683,670,647,632,617,600,581,548,535,529,523,514,496,481,464,441,417,395,358,353,350,348,339,328,314,301,288,271,265,260,256,256,256,261,262,264,265,276,288,296,300,303,312,320,329,335,337,337,337,337,337,337,337,337,337,337,339,342,344,345,347,348,350,350,351,351,352,355,362,366,373,378,381,381,381,381,381,384,392,399,403,406,409,411,415,420,425],"ymouse":[552,567,567,590,591,591,586,578,564,557,545,536,529,518,515,514,512,512,511,511,511,511,511,511,513,513,514,515,515,515,515,515,515,515,515,516,516,516,511,503,496,489,482,463,450,437,423,410,388,377,371,364,356,345,337,331,325,316,303,277,274,272,271,266,262,258,253,248,240,235,231,228,224,213,201,197,192,188,170,156,149,146,144,140,138,136,136,135,135,135,135,135,135,135,135,135,135,133,126,119,109,104,101,98,96,95,95,94,92,90,88,87,86,86,86,86,86,86,85,81,80,78,78,78,78,77,77,77],"timestamp_mouse":[1,31,41,62,81,101,121,142,161,182,201,222,242,261,283,302,321,342,362,382,402,422,441,462,482,502,521,541,561,581,603,622,641,661,682,702,722,742,761,781,801,821,841,862,881,901,921,942,961,981,1001,1022,1041,1061,1082,1102,1121,1141,1161,1181,1201,1222,1241,1262,1281,1301,1321,1342,1361,1381,1401,1423,1442,1461,1482,1502,1521,1542,1561,1581,1602,1622,1642,1661,1682,1703,1722,1742,1762,1781,1802,1821,1841,1861,1882,1902,1922,1941,1961,1981,2001,2021,2041,2061,2081,2101,2122,2142,2161,2182,2201,2222,2242,2261,2281,2301,2322,2342,2361,2381,2401,2421,2442,2461,2481,2502,2522,2541],"xSR":741.5,"ySR":469.95,"xT1":424.9,"yT1":0,"xT2":1058.1,"yT2":0,"toosoon":0,"cond_shown":"equaldotsize","ratio_trial":500,"smaller_num":"6","larger_num":"12","correct_side":1,"subjID":"MIGUELBURGOSGIL33","gender":"0","age":"12","school":"6"},{"start_time":1551794989210,"click_time":1551794991937,"finger_time":1551794990278,"fix_duration":250,"trial":54,"RT":1068,"MT":1659,"sideResp":1,"stimulus":"img/900/equaldotanddens/R/3_Ratio_900_L_9_R_10.png","xmouse":[794,793,793,792,792,791,791,791,791,791,791,791,791,791,791,791,790,786,784,782,781,780,778,778,778,777,777,777,777,776,776,775,774,774,773,771,771,771,771,771,771,771,770,769,768,766,766,765,764,763,761,755,743,738,736,733,729,723,722,722,721,720,717,714,709,700,688,661,651,644,635,628,605,584,574,567,564,561,559,555,551,546,539,533,528,523,519,512,510,509,506,504,502,501,501,501,501,500,499,499,499,498,497,490,486,485,483,481,481,481,481,481,481,481,481,482,482,484,485,486,487,487,488,489,490,491,491,492,493,493,494,495,498,501,509,512,513],"ymouse":[538,537,537,536,536,535,535,535,535,535,535,535,535,535,535,535,535,532,531,529,529,527,526,526,526,525,525,525,525,524,524,523,523,522,522,521,520,520,520,520,520,520,520,519,518,517,517,516,516,515,513,507,497,490,487,482,477,469,467,467,466,465,462,458,452,442,431,407,397,388,375,365,334,313,305,300,297,293,291,285,279,273,263,254,247,241,237,229,226,224,221,219,214,213,212,212,211,208,206,204,202,201,198,180,174,170,166,163,161,159,156,153,149,142,139,138,134,131,127,124,123,122,120,118,117,116,114,113,112,112,110,110,108,106,101,100,99],"timestamp_mouse":[10,33,48,67,87,108,129,147,167,187,208,227,247,267,287,308,327,347,367,387,407,427,448,469,487,507,528,547,567,588,608,628,647,668,687,707,727,748,767,788,808,828,847,867,887,907,928,947,967,988,1008,1027,1048,1068,1087,1107,1127,1149,1167,1187,1207,1227,1247,1267,1287,1308,1328,1348,1367,1387,1407,1428,1447,1468,1487,1507,1527,1548,1567,1587,1608,1627,1648,1667,1687,1708,1728,1747,1767,1788,1807,1829,1847,1867,1887,1909,1927,1947,1967,1987,2008,2028,2047,2068,2088,2108,2127,2148,2167,2187,2207,2228,2247,2268,2288,2309,2329,2347,2367,2388,2409,2428,2448,2467,2487,2507,2528,2547,2568,2588,2607,2627,2647,2667,2688,2707,2727],"xSR":741.5,"ySR":469.95,"xT1":424.9,"yT1":0,"xT2":1058.1,"yT2":0,"toosoon":0,"cond_shown":"equaldotanddens","ratio_trial":900,"smaller_num":"9","larger_num":"10","correct_side":2,"subjID":"MIGUELBURGOSGIL33","gender":"0","age":"12","school":"6"},{"start_time":1551794995135,"click_time":1551794996357,"finger_time":1551794995957,"fix_duration":855.9671822801397,"trial":55,"RT":822,"MT":400,"sideResp":1,"stimulus":"img/900/equaldotanddens/R/5_Ratio_900_L_9_R_10.png","xmouse":[759,759,759,759,759,759,759,759,759,759,759,759,759,759,759,759,759,759,759,759,759,759,759,759,759,759,759,759,759,759,759,759,759,759,759,759,759,759,759,759,756,735,715,707,701,684,629,597,585,570,551,469,438,423,415,409,397,392,392,401,410,425],"ymouse":[496,496,496,496,496,496,496,496,496,496,496,496,496,496,496,496,496,496,496,496,496,496,496,496,496,496,496,496,496,496,496,496,496,496,496,496,496,496,496,496,495,477,452,428,404,367,281,244,231,223,217,181,164,154,144,132,100,70,50,29,16,6],"timestamp_mouse":[10,35,42,63,82,102,122,142,164,184,203,223,242,263,282,303,323,342,362,382,402,422,442,463,484,502,522,543,563,582,603,622,642,662,682,703,722,743,763,783,802,822,843,862,882,902,922,942,962,982,1002,1022,1042,1063,1083,1102,1122,1142,1162,1183,1202,1222],"xSR":741.5,"ySR":469.95,"xT1":424.9,"yT1":0,"xT2":1058.1,"yT2":0,"toosoon":0,"cond_shown":"equaldotanddens","ratio_trial":900,"smaller_num":"9","larger_num":"10","correct_side":2,"subjID":"MIGUELBURGOSGIL33","gender":"0","age":"12","school":"6"},{"start_time":1551794998144,"click_time":1551794998737,"finger_time":1551794998357,"fix_duration":744.8464028341148,"trial":56,"RT":213,"MT":380,"sideResp":2,"stimulus":"img/250/equaldotsize/R/11_Ratio_250_L_3_R_12.png","xmouse":[827,827,827,827,827,827,827,827,828,830,833,833,833,833,833,833,842,857,873,891,960,1043,1137,1217,1262,1279,1269,1232,1171,1085],"ymouse":[480,480,480,480,480,480,480,480,478,475,469,469,469,469,469,469,456,442,432,420,391,359,322,288,264,237,212,167,97,5],"timestamp_mouse":[15,33,53,73,93,113,134,153,174,194,213,234,253,274,294,313,333,353,374,393,413,433,453,475,494,513,533,554,573,593],"xSR":741.5,"ySR":469.95,"xT1":424.9,"yT1":0,"xT2":1058.1,"yT2":0,"toosoon":0,"cond_shown":"equaldotsize","ratio_trial":250,"smaller_num":"3","larger_num":"12","correct_side":2,"subjID":"MIGUELBURGOSGIL33","gender":"0","age":"12","school":"6"},{"start_time":1551795001491,"click_time":1551795002398,"finger_time":1551795002037,"fix_duration":511.08980187318963,"trial":57,"RT":546,"MT":361,"sideResp":1,"stimulus":"img/750/equaldotanddens/L/14_Ratio_750_L_8_R_6.png","xmouse":[787,787,787,787,787,787,787,787,787,787,787,787,787,787,787,787,787,787,787,787,787,787,787,787,787,787,785,779,738,688,624,552,496,440,424,411,395,382,365,363,363,363,365,372,424,468],"ymouse":[508,508,508,508,508,508,508,508,508,508,508,508,508,508,508,508,508,508,508,508,508,508,508,508,508,502,487,466,389,331,294,255,223,179,161,145,126,112,98,97,97,97,92,86,61,48],"timestamp_mouse":[10,30,46,66,86,106,126,148,166,188,206,226,247,267,286,306,326,346,366,386,406,426,447,466,486,506,526,546,566,586,606,626,647,668,688,706,727,746,766,788,806,827,846,866,887,907],"xSR":741.5,"ySR":469.95,"xT1":424.9,"yT1":0,"xT2":1058.1,"yT2":0,"toosoon":0,"cond_shown":"equaldotanddens","ratio_trial":750,"smaller_num":"6","larger_num":"8","correct_side":1,"subjID":"MIGUELBURGOSGIL33","gender":"0","age":"12","school":"6"},{"start_time":1551795003779,"click_time":1551795004779,"finger_time":1551795004438,"fix_duration":599.8782450653215,"trial":58,"RT":659,"MT":341,"sideResp":2,"stimulus":"img/750/randomdotsizeEA/R/7_Ratio_750_L_3_R_4.png","xmouse":[807,807,807,807,807,807,807,807,807,807,807,807,807,807,807,807,807,807,806,804,804,803,802,801,800,800,800,800,800,800,799,799,799,797,794,791,791,791,798,804,811,821,834,868,894,913,938,961,1022,1064],"ymouse":[497,497,497,497,497,497,497,497,497,497,497,497,497,497,497,498,498,498,494,492,489,485,483,480,478,478,478,477,476,475,473,472,469,457,436,412,391,377,