[{"start_time":1551793985258,"click_time":1551793987512,"finger_time":1551793986691,"fix_duration":1181.3118243492281,"trial":0,"RT":1433,"MT":821,"sideResp":1,"stimulus":[],"xmouse":[787,787,787,787,787,787,787,787,787,787,787,787,787,787,787,787,787,787,787,787,787,787,787,787,787,787,787,787,787,787,787,787,787,787,787,787,787,787,787,787,787,787,787,787,787,787,787,787,787,787,787,787,787,787,787,787,787,787,787,787,787,787,787,787,787,787,787,787,787,787,784,709,588,455,323,247,224,224,224,224,224,224,244,248,249,250,253,260,275,285,289,312,335,352,379,401,404,404,404,406,407,411,414,416,417,420,435,441,443,444,445,451,456],"ymouse":[539,539,539,539,539,539,539,539,539,539,539,539,539,539,539,539,539,539,539,539,539,539,539,539,539,539,539,539,539,539,539,539,539,539,539,539,539,539,539,539,539,539,539,539,539,539,539,539,539,539,539,539,539,539,539,539,539,539,539,539,539,539,539,539,539,539,539,539,539,539,534,484,453,431,412,401,391,391,391,391,391,389,379,377,376,376,374,370,358,328,293,255,230,221,218,212,209,202,200,198,197,193,189,184,178,171,149,140,134,130,125,108,90],"timestamp_mouse":[15,45,55,73,94,115,133,153,173,193,214,234,253,274,295,315,333,355,373,394,413,433,454,473,494,513,534,554,574,594,613,635,654,673,693,713,734,753,774,794,814,833,853,874,894,914,935,954,974,993,1013,1034,1054,1074,1093,1113,1134,1154,1174,1193,1215,1233,1254,1275,1293,1313,1334,1353,1375,1395,1415,1433,1453,1473,1494,1514,1535,1553,1573,1593,1614,1634,1654,1674,1693,1713,1734,1753,1774,1794,1813,1834,1853,1873,1894,1915,1933,1953,1974,1994,2013,2034,2053,2073,2093,2114,2133,2153,2174,2193,2214,2234,2253],"xSR":741.5,"ySR":469.95,"xT1":424.9,"yT1":0,"xT2":1058.1,"yT2":0,"toosoon":0,"cond_shown":"Incongruent","ratio_trial":200,"L_num":14,"L_den":30,"R_num":6,"R_den":9,"correct_side":2,"subjID":"MIGUELBURGOSGIL33","gender":"0","age":"12","school":"6","test":{"fix_dur":[250,1500],"timestim":1000,"targets_dim":[100,100],"targets_relative_coord":[0.3,0.7],"size_stim":[880,420],"start_dim":[100,100],"size_start":[300,300],"size_fix":60,"samplingrate":20,"img_types":["Congruent","Incongruent"],"ratios":[100,200,300],"rep_conds":19,"nTrials":120,"trials_to_rest":500,"Trials_order":[3,78,110,119,107,52,109,21,56,20,84,83,11,65,89,97,82,27,111,106,39,100,10,87,13,116,72,64,26,104,88,81,98,79,24,92,77,75,34,18,15,86,44,99,105,41,118,70,40,43,85,47,60,74,114,37,102,32,80,71,62,45,91,42,61,69,57,0,14,67,19,117,30,58,36,16,66,95,50,22,51,2,5,1,8,53,31,9,76,12,103,68,7,6,90,29,46,115,23,4,101,73,25,94,33,38,54,35,55,93,49,63,17,108,28,113,48,96,59,112],"cond_shown":["Incongruent","Congruent","Congruent","Incongruent","Incongruent","Congruent","Incongruent","Incongruent","Congruent","Congruent","Congruent","Incongruent","Incongruent","Incongruent","Incongruent","Incongruent","Congruent","Incongruent","Incongruent","Congruent","Incongruent","Congruent","Congruent","Incongruent","Incongruent","Congruent","Congruent","Congruent","Congruent","Congruent","Congruent","Incongruent","Congruent","Incongruent","Congruent","Congruent","Incongruent","Incongruent","Congruent","Congruent","Incongruent","Congruent","Congruent","Incongruent","Incongruent","Incongruent","Congruent","Congruent","Congruent","Incongruent","Incongruent","Incongruent","Congruent","Congruent","Congruent","Incongruent","Congruent","Congruent","Congruent","Incongruent","Congruent","Incongruent","Incongruent","Congruent","Incongruent","Incongruent","Incongruent","Congruent","Congruent","Incongruent","Incongruent","Incongruent","Congruent","Congruent","Congruent","Congruent","Congruent","Incongruent","Congruent","Congruent","Incongruent","Congruent","Incongruent","Incongruent","Congruent","Incongruent","Incongruent","Incongruent","Congruent","Congruent","Incongruent","Congruent","Incongruent","Congruent","Congruent","Incongruent","Congruent","Incongruent","Incongruent","Congruent","Incongruent","Incongruent","Incongruent","Congruent","Incongruent","Congruent","Congruent","Incongruent","Incongruent","Incongruent","Incongruent","Incongruent","Incongruent","Congruent","Congruent","Incongruent","Congruent","Congruent","Incongruent","Congruent"],"ratio_trial":[200,100,200,300,300,300,100,200,200,200,100,300,300,300,300,100,300,200,200,300,200,300,300,200,100,200,100,300,200,200,300,200,200,100,100,200,300,200,300,100,200,200,200,200,200,300,300,300,300,100,100,300,100,200,100,100,100,200,200,300,200,200,100,100,100,200,200,100,200,100,100,200,100,300,100,300,100,300,200,300,200,200,300,100,200,300,100,200,300,100,100,200,100,100,100,300,300,100,300,300,300,100,100,300,200,200,100,300,100,200,100,200,300,100,300,300,100,100,300,300],"left_num":[14,1,3,1,13,4,13,4,14,21,4,3,13,8,4,4,20,3,9,24,7,4,20,7,13,7,3,11,9,7,4,9,12,17,2,8,4,14,11,11,14,21,7,9,4,8,12,3,4,10,2,4,3,3,9,6,4,21,3,1,4,7,9,2,8,14,7,6,6,3,9,4,4,24,11,5,7,4,8,11,9,16,8,12,14,8,8,3,8,2,6,20,3,2,1,2,12,10,4,2,13,10,12,20,4,6,6,2,10,3,11,1,4,6,5,4,12,11,4,3],"right_num":[6,18,14,3,12,13,12,6,6,2,6,4,12,9,2,8,9,11,8,2,12,1,14,14,12,18,4,4,13,18,2,8,6,10,11,7,2,12,1,6,12,2,18,8,6,14,2,2,13,8,6,2,4,9,8,13,6,2,14,3,3,6,14,11,1,6,8,15,3,8,20,6,6,8,4,6,9,2,2,4,8,12,9,9,6,9,1,1,10,11,7,9,4,11,18,6,2,9,2,10,12,9,9,8,1,11,5,6,8,1,9,2,2,5,6,8,13,4,2,4],"left_den":[30,2,6,2,26,20,26,5,28,30,8,6,26,10,20,8,25,4,15,30,10,10,25,10,26,15,20,22,30,15,5,15,20,30,5,15,20,30,22,22,30,30,15,15,5,10,24,6,20,25,4,20,20,12,15,10,8,30,6,2,8,15,15,5,20,30,10,12,15,5,10,5,8,30,22,25,14,20,15,22,15,20,10,24,28,10,20,10,15,5,10,25,6,5,2,4,24,25,20,20,26,25,24,25,30,20,20,4,25,10,22,3,20,20,25,5,30,22,20,6],"right_den":[9,30,20,15,15,26,20,10,20,4,10,20,15,18,4,20,18,20,10,4,24,10,28,28,20,27,16,20,26,27,4,10,15,15,22,21,4,18,5,15,18,4,27,10,10,28,10,10,26,16,15,4,16,20,16,26,10,4,20,15,10,9,28,22,2,9,16,25,15,16,25,10,10,16,10,12,15,4,6,20,10,20,18,15,20,18,2,2,12,22,14,15,10,22,30,30,10,18,4,25,15,18,15,16,3,22,25,30,16,2,15,15,4,25,12,16,26,10,4,5],"correct_side":[2,2,2,1,2,2,2,1,1,1,2,1,2,1,2,1,1,1,2,1,1,1,1,1,2,2,2,1,2,2,1,2,1,2,2,1,2,2,1,1,2,1,2,2,1,1,1,1,2,2,1,2,2,2,1,1,2,1,2,1,1,2,1,2,2,2,1,2,1,1,1,1,2,1,1,2,2,2,1,1,2,1,1,2,1,1,2,2,2,2,1,1,1,2,2,1,1,2,2,2,2,2,2,1,2,2,1,1,2,2,2,1,2,1,2,1,2,1,2,2],"img_shown":["img2/200/Incongruent/R/I_Dist_200_LN_14_LD_30_RN_6_RD_9_1.png","img2/100/Congruent/R/C_Dist_100_LN_1_LD_2_RN_18_RD_30_1.png","img2/200/Congruent/R/C_Dist_200_LN_3_LD_6_RN_14_RD_20_1.png","img2/300/Incongruent/L/I_Dist_300_LN_1_LD_2_RN_3_RD_15_0.png","img2/300/Incongruent/R/I_Dist_300_LN_13_LD_26_RN_12_RD_15_1.png","img2/300/Congruent/R/C_Dist_300_LN_4_LD_20_RN_13_RD_26_1.png","img2/100/Incongruent/R/I_Dist_100_LN_13_LD_26_RN_12_RD_20_1.png","img2/200/Incongruent/L/I_Dist_200_LN_4_LD_5_RN_6_RD_10_0.png","img2/200/Congruent/L/C_Dist_200_LN_14_LD_28_RN_6_RD_20_0.png","img2/200/Congruent/L/C_Dist_200_LN_21_LD_30_RN_2_RD_4_0.png","img2/100/Congruent/R/C_Dist_100_LN_4_LD_8_RN_6_RD_10_1.png","img2/300/Incongruent/L/I_Dist_300_LN_3_LD_6_RN_4_RD_20_0.png","img2/300/Incongruent/R/I_Dist_300_LN_13_LD_26_RN_12_RD_15_1.png","img2/300/Incongruent/L/I_Dist_300_LN_8_LD_10_RN_9_RD_18_0.png","img2/300/Incongruent/R/I_Dist_300_LN_4_LD_20_RN_2_RD_4_1.png","img2/100/Incongruent/L/I_Dist_100_LN_4_LD_8_RN_8_RD_20_0.png","img2/300/Congruent/L/C_Dist_300_LN_20_LD_25_RN_9_RD_18_0.png","img2/200/Incongruent/L/I_Dist_200_LN_3_LD_4_RN_11_RD_20_0.png","img2/200/Incongruent/R/I_Dist_200_LN_9_LD_15_RN_8_RD_10_1.png","img2/300/Congruent/L/C_Dist_300_LN_24_LD_30_RN_2_RD_4_0.png","img2/200/Incongruent/L/I_Dist_200_LN_7_LD_10_RN_12_RD_24_0.png","img2/300/Congruent/L/C_Dist_300_LN_4_LD_10_RN_1_RD_10_0.png","img2/300/Congruent/L/C_Dist_300_LN_20_LD_25_RN_14_RD_28_0.png","img2/200/Incongruent/L/I_Dist_200_LN_7_LD_10_RN_14_RD_28_0.png","img2/100/Incongruent/R/I_Dist_100_LN_13_LD_26_RN_12_RD_20_1.png","img2/200/Congruent/R/C_Dist_200_LN_7_LD_15_RN_18_RD_27_1.png","img2/100/Congruent/R/C_Dist_100_LN_3_LD_20_RN_4_RD_16_1.png","img2/300/Congruent/L/C_Dist_300_LN_11_LD_22_RN_4_RD_20_0.png","img2/200/Congruent/R/C_Dist_200_LN_9_LD_30_RN_13_RD_26_1.png","img2/200/Congruent/R/C_Dist_200_LN_7_LD_15_RN_18_RD_27_1.png","img2/300/Congruent/L/C_Dist_300_LN_4_LD_5_RN_2_RD_4_0.png","img2/200/Incongruent/R/I_Dist_200_LN_9_LD_15_RN_8_RD_10_1.png","img2/200/Congruent/L/C_Dist_200_LN_12_LD_20_RN_6_RD_15_0.png","img2/100/Incongruent/R/I_Dist_100_LN_17_LD_30_RN_10_RD_15_1.png","img2/100/Congruent/R/C_Dist_100_LN_2_LD_5_RN_11_RD_22_1.png","img2/200/Congruent/L/C_Dist_200_LN_8_LD_15_RN_7_RD_21_0.png","img2/300/Incongruent/R/I_Dist_300_LN_4_LD_20_RN_2_RD_4_1.png","img2/200/Incongruent/R/I_Dist_200_LN_14_LD_30_RN_12_RD_18_1.png","img2/300/Congruent/L/C_Dist_300_LN_11_LD_22_RN_1_RD_5_0.png","img2/100/Congruent/L/C_Dist_100_LN_11_LD_22_RN_6_RD_15_0.png","img2/200/Incongruent/R/I_Dist_200_LN_14_LD_30_RN_12_RD_18_1.png","img2/200/Congruent/L/C_Dist_200_LN_21_LD_30_RN_2_RD_4_0.png","img2/200/Congruent/R/C_Dist_200_LN_7_LD_15_RN_18_RD_27_1.png","img2/200/Incongruent/R/I_Dist_200_LN_9_LD_15_RN_8_RD_10_1.png","img2/200/Incongruent/L/I_Dist_200_LN_4_LD_5_RN_6_RD_10_0.png","img2/300/Incongruent/L/I_Dist_300_LN_8_LD_10_RN_14_RD_28_0.png","img2/300/Congruent/L/C_Dist_300_LN_12_LD_24_RN_2_RD_10_0.png","img2/300/Congruent/L/C_Dist_300_LN_3_LD_6_RN_2_RD_10_0.png","img2/300/Congruent/R/C_Dist_300_LN_4_LD_20_RN_13_RD_26_1.png","img2/100/Incongruent/R/I_Dist_100_LN_10_LD_25_RN_8_RD_16_1.png","img2/100/Incongruent/L/I_Dist_100_LN_2_LD_4_RN_6_RD_15_0.png","img2/300/Incongruent/R/I_Dist_300_LN_4_LD_20_RN_2_RD_4_1.png","img2/100/Congruent/R/C_Dist_100_LN_3_LD_20_RN_4_RD_16_1.png","img2/200/Congruent/R/C_Dist_200_LN_3_LD_12_RN_9_RD_20_1.png","img2/100/Congruent/L/C_Dist_100_LN_9_LD_15_RN_8_RD_16_0.png","img2/100/Incongruent/L/I_Dist_100_LN_6_LD_10_RN_13_RD_26_0.png","img2/100/Congruent/R/C_Dist_100_LN_4_LD_8_RN_6_RD_10_1.png","img2/200/Congruent/L/C_Dist_200_LN_21_LD_30_RN_2_RD_4_0.png","img2/200/Congruent/R/C_Dist_200_LN_3_LD_6_RN_14_RD_20_1.png","img2/300/Incongruent/L/I_Dist_300_LN_1_LD_2_RN_3_RD_15_0.png","img2/200/Congruent/L/C_Dist_200_LN_4_LD_8_RN_3_RD_10_0.png","img2/200/Incongruent/R/I_Dist_200_LN_7_LD_15_RN_6_RD_9_1.png","img2/100/Incongruent/L/I_Dist_100_LN_9_LD_15_RN_14_RD_28_0.png","img2/100/Congruent/R/C_Dist_100_LN_2_LD_5_RN_11_RD_22_1.png","img2/100/Incongruent/R/I_Dist_100_LN_8_LD_20_RN_1_RD_2_1.png","img2/200/Incongruent/R/I_Dist_200_LN_14_LD_30_RN_6_RD_9_1.png","img2/200/Incongruent/L/I_Dist_200_LN_7_LD_10_RN_8_RD_16_0.png","img2/100/Congruent/R/C_Dist_100_LN_6_LD_12_RN_15_RD_25_1.png","img2/200/Congruent/L/C_Dist_200_LN_6_LD_15_RN_3_RD_15_0.png","img2/100/Incongruent/L/I_Dist_100_LN_3_LD_5_RN_8_RD_16_0.png","img2/100/Incongruent/L/I_Dist_100_LN_9_LD_10_RN_20_RD_25_0.png","img2/200/Incongruent/L/I_Dist_200_LN_4_LD_5_RN_6_RD_10_0.png","img2/100/Congruent/R/C_Dist_100_LN_4_LD_8_RN_6_RD_10_1.png","img2/300/Congruent/L/C_Dist_300_LN_24_LD_30_RN_8_RD_16_0.png","img2/100/Congruent/L/C_Dist_100_LN_11_LD_22_RN_4_RD_10_0.png","img2/300/Congruent/R/C_Dist_300_LN_5_LD_25_RN_6_RD_12_1.png","img2/100/Congruent/R/C_Dist_100_LN_7_LD_14_RN_9_RD_15_1.png","img2/300/Incongruent/R/I_Dist_300_LN_4_LD_20_RN_2_RD_4_1.png","img2/200/Congruent/L/C_Dist_200_LN_8_LD_15_RN_2_RD_6_0.png","img2/300/Congruent/L/C_Dist_300_LN_11_LD_22_RN_4_RD_20_0.png","img2/200/Incongruent/R/I_Dist_200_LN_9_LD_15_RN_8_RD_10_1.png","img2/200/Congruent/L/C_Dist_200_LN_16_LD_20_RN_12_RD_20_0.png","img2/300/Incongruent/L/I_Dist_300_LN_8_LD_10_RN_9_RD_18_0.png","img2/100/Incongruent/R/I_Dist_100_LN_12_LD_24_RN_9_RD_15_1.png","img2/200/Congruent/L/C_Dist_200_LN_14_LD_28_RN_6_RD_20_0.png","img2/300/Incongruent/L/I_Dist_300_LN_8_LD_10_RN_9_RD_18_0.png","img2/100/Incongruent/R/I_Dist_100_LN_8_LD_20_RN_1_RD_2_1.png","img2/200/Incongruent/R/I_Dist_200_LN_3_LD_10_RN_1_RD_2_1.png","img2/300/Congruent/R/C_Dist_300_LN_8_LD_15_RN_10_RD_12_1.png","img2/100/Congruent/R/C_Dist_100_LN_2_LD_5_RN_11_RD_22_1.png","img2/100/Incongruent/L/I_Dist_100_LN_6_LD_10_RN_7_RD_14_0.png","img2/200/Congruent/L/C_Dist_200_LN_20_LD_25_RN_9_RD_15_0.png","img2/100/Incongruent/L/I_Dist_100_LN_3_LD_6_RN_4_RD_10_0.png","img2/100/Congruent/R/C_Dist_100_LN_2_LD_5_RN_11_RD_22_1.png","img2/100/Congruent/R/C_Dist_100_LN_1_LD_2_RN_18_RD_30_1.png","img2/300/Incongruent/L/I_Dist_300_LN_2_LD_4_RN_6_RD_30_0.png","img2/300/Congruent/L/C_Dist_300_LN_12_LD_24_RN_2_RD_10_0.png","img2/100/Incongruent/R/I_Dist_100_LN_10_LD_25_RN_9_RD_18_1.png","img2/300/Incongruent/R/I_Dist_300_LN_4_LD_20_RN_2_RD_4_1.png","img2/300/Congruent/R/C_Dist_300_LN_2_LD_20_RN_10_RD_25_1.png","img2/300/Incongruent/R/I_Dist_300_LN_13_LD_26_RN_12_RD_15_1.png","img2/100/Incongruent/R/I_Dist_100_LN_10_LD_25_RN_9_RD_18_1.png","img2/100/Incongruent/R/I_Dist_100_LN_12_LD_24_RN_9_RD_15_1.png","img2/300/Congruent/L/C_Dist_300_LN_20_LD_25_RN_8_RD_16_0.png","img2/200/Incongruent/R/I_Dist_200_LN_4_LD_30_RN_1_RD_3_1.png","img2/200/Congruent/R/C_Dist_200_LN_6_LD_20_RN_11_RD_22_1.png","img2/100/Congruent/L/C_Dist_100_LN_6_LD_20_RN_5_RD_25_0.png","img2/300/Incongruent/L/I_Dist_300_LN_2_LD_4_RN_6_RD_30_0.png","img2/100/Incongruent/R/I_Dist_100_LN_10_LD_25_RN_8_RD_16_1.png","img2/200/Incongruent/R/I_Dist_200_LN_3_LD_10_RN_1_RD_2_1.png","img2/100/Incongruent/R/I_Dist_100_LN_11_LD_22_RN_9_RD_15_1.png","img2/200/Incongruent/L/I_Dist_200_LN_1_LD_3_RN_2_RD_15_0.png","img2/300/Incongruent/R/I_Dist_300_LN_4_LD_20_RN_2_RD_4_1.png","img2/100/Congruent/L/C_Dist_100_LN_6_LD_20_RN_5_RD_25_0.png","img2/300/Congruent/R/C_Dist_300_LN_5_LD_25_RN_6_RD_12_1.png","img2/300/Incongruent/L/I_Dist_300_LN_4_LD_5_RN_8_RD_16_0.png","img2/100/Congruent/R/C_Dist_100_LN_12_LD_30_RN_13_RD_26_1.png","img2/100/Congruent/L/C_Dist_100_LN_11_LD_22_RN_4_RD_10_0.png","img2/300/Incongruent/R/I_Dist_300_LN_4_LD_20_RN_2_RD_4_1.png","img2/300/Congruent/R/C_Dist_300_LN_3_LD_6_RN_4_RD_5_1.png"],"dist100_C":[["C_Dist_100_LN_10_LD_25_RN_3_RD_10_0.png","C_Dist_100_LN_11_LD_22_RN_4_RD_10_0.png","C_Dist_100_LN_11_LD_22_RN_6_RD_15_0.png","C_Dist_100_LN_15_LD_25_RN_13_RD_26_0.png","C_Dist_100_LN_3_LD_6_RN_2_RD_5_0.png","C_Dist_100_LN_6_LD_20_RN_5_RD_25_0.png","C_Dist_100_LN_8_LD_16_RN_2_RD_5_0.png","C_Dist_100_LN_9_LD_15_RN_8_RD_16_0.png"],["C_Dist_100_LN_1_LD_2_RN_18_RD_30_1.png","C_Dist_100_LN_1_LD_2_RN_3_RD_5_1.png","C_Dist_100_LN_12_LD_30_RN_13_RD_26_1.png","C_Dist_100_LN_2_LD_5_RN_11_RD_22_1.png","C_Dist_100_LN_2_LD_5_RN_6_RD_12_1.png","C_Dist_100_LN_3_LD_20_RN_4_RD_16_1.png","C_Dist_100_LN_4_LD_10_RN_15_RD_30_1.png","C_Dist_100_LN_4_LD_8_RN_6_RD_10_1.png","C_Dist_100_LN_6_LD_12_RN_15_RD_25_1.png","C_Dist_100_LN_7_LD_14_RN_15_RD_25_1.png","C_Dist_100_LN_7_LD_14_RN_9_RD_15_1.png"]],"dist100_I":[["I_Dist_100_LN_1_LD_2_RN_8_RD_20_0.png","I_Dist_100_LN_2_LD_4_RN_6_RD_15_0.png","I_Dist_100_LN_2_LD_4_RN_8_RD_20_0.png","I_Dist_100_LN_3_LD_5_RN_11_RD_22_0.png","I_Dist_100_LN_3_LD_5_RN_8_RD_16_0.png","I_Dist_100_LN_3_LD_6_RN_4_RD_10_0.png","I_Dist_100_LN_3_LD_9_RN_7_RD_30_0.png","I_Dist_100_LN_4_LD_8_RN_8_RD_20_0.png","I_Dist_100_LN_6_LD_10_RN_11_RD_22_0.png","I_Dist_100_LN_6_LD_10_RN_13_RD_26_0.png","I_Dist_100_LN_6_LD_10_RN_7_RD_14_0.png","I_Dist_100_LN_9_LD_10_RN_20_RD_25_0.png","I_Dist_100_LN_9_LD_15_RN_13_RD_26_0.png","I_Dist_100_LN_9_LD_15_RN_14_RD_28_0.png"],["I_Dist_100_LN_10_LD_25_RN_8_RD_16_1.png","I_Dist_100_LN_10_LD_25_RN_9_RD_18_1.png","I_Dist_100_LN_11_LD_22_RN_9_RD_15_1.png","I_Dist_100_LN_12_LD_24_RN_9_RD_15_1.png","I_Dist_100_LN_12_LD_30_RN_2_RD_4_1.png","I_Dist_100_LN_13_LD_26_RN_12_RD_20_1.png","I_Dist_100_LN_13_LD_26_RN_6_RD_10_1.png","I_Dist_100_LN_17_LD_30_RN_10_RD_15_1.png","I_Dist_100_LN_6_LD_12_RN_3_RD_5_1.png","I_Dist_100_LN_8_LD_16_RN_6_RD_10_1.png","I_Dist_100_LN_8_LD_20_RN_1_RD_2_1.png","I_Dist_100_LN_9_LD_18_RN_6_RD_10_1.png"]],"dist100_S":[["E_Dist_100_LN_2_LD_12_RN_2_RD_30_0.png","E_Dist_100_LN_6_LD_10_RN_6_RD_12_0.png"],["E_Dist_100_LN_6_LD_12_RN_6_RD_10_1.png"]],"dist200_C":[["C_Dist_200_LN_11_LD_22_RN_3_RD_10_0.png","C_Dist_200_LN_12_LD_15_RN_6_RD_10_0.png","C_Dist_200_LN_12_LD_20_RN_6_RD_15_0.png","C_Dist_200_LN_14_LD_28_RN_6_RD_20_0.png","C_Dist_200_LN_15_LD_25_RN_4_RD_10_0.png","C_Dist_200_LN_16_LD_20_RN_12_RD_20_0.png","C_Dist_200_LN_16_LD_30_RN_9_RD_27_0.png","C_Dist_200_LN_20_LD_25_RN_9_RD_15_0.png","C_Dist_200_LN_21_LD_30_RN_2_RD_4_0.png","C_Dist_200_LN_4_LD_10_RN_3_RD_15_0.png","C_Dist_200_LN_4_LD_8_RN_3_RD_10_0.png","C_Dist_200_LN_6_LD_15_RN_3_RD_15_0.png","C_Dist_200_LN_7_LD_21_RN_2_RD_15_0.png","C_Dist_200_LN_8_LD_15_RN_2_RD_6_0.png","C_Dist_200_LN_8_LD_15_RN_3_RD_9_0.png","C_Dist_200_LN_8_LD_15_RN_7_RD_21_0.png","C_Dist_200_LN_9_LD_20_RN_4_RD_16_0.png"],["C_Dist_200_LN_1_LD_2_RN_21_RD_30_1.png","C_Dist_200_LN_13_LD_26_RN_14_RD_20_1.png","C_Dist_200_LN_3_LD_10_RN_11_RD_22_1.png","C_Dist_200_LN_3_LD_10_RN_14_RD_28_1.png","C_Dist_200_LN_3_LD_10_RN_7_RD_14_1.png","C_Dist_200_LN_3_LD_12_RN_9_RD_20_1.png","C_Dist_200_LN_3_LD_6_RN_14_RD_20_1.png","C_Dist_200_LN_5_LD_10_RN_14_RD_20_1.png","C_Dist_200_LN_6_LD_12_RN_7_RD_10_1.png","C_Dist_200_LN_6_LD_20_RN_11_RD_22_1.png","C_Dist_200_LN_7_LD_15_RN_18_RD_27_1.png","C_Dist_200_LN_9_LD_30_RN_13_RD_26_1.png"]],"dist200_I":[["I_Dist_200_LN_1_LD_2_RN_3_RD_10_0.png","I_Dist_200_LN_1_LD_3_RN_2_RD_15_0.png","I_Dist_200_LN_3_LD_4_RN_11_RD_20_0.png","I_Dist_200_LN_4_LD_5_RN_6_RD_10_0.png","I_Dist_200_LN_4_LD_6_RN_14_RD_30_0.png","I_Dist_200_LN_7_LD_10_RN_12_RD_24_0.png","I_Dist_200_LN_7_LD_10_RN_14_RD_28_0.png","I_Dist_200_LN_7_LD_10_RN_8_RD_16_0.png"],["I_Dist_200_LN_11_LD_20_RN_3_RD_4_1.png","I_Dist_200_LN_14_LD_30_RN_12_RD_18_1.png","I_Dist_200_LN_14_LD_30_RN_6_RD_9_1.png","I_Dist_200_LN_3_LD_10_RN_1_RD_2_1.png","I_Dist_200_LN_4_LD_30_RN_1_RD_3_1.png","I_Dist_200_LN_6_LD_20_RN_3_RD_6_1.png","I_Dist_200_LN_7_LD_15_RN_4_RD_6_1.png","I_Dist_200_LN_7_LD_15_RN_6_RD_9_1.png","I_Dist_200_LN_9_LD_15_RN_8_RD_10_1.png"]],"dist200_S":[["E_Dist_200_LN_3_LD_6_RN_3_RD_10_0.png"],["E_Dist_200_LN_3_LD_10_RN_3_RD_6_1.png"]],"dist300_C":[["C_Dist_300_LN_11_LD_22_RN_1_RD_5_0.png","C_Dist_300_LN_11_LD_22_RN_2_RD_10_0.png","C_Dist_300_LN_11_LD_22_RN_4_RD_20_0.png","C_Dist_300_LN_12_LD_24_RN_2_RD_10_0.png","C_Dist_300_LN_18_LD_20_RN_9_RD_15_0.png","C_Dist_300_LN_20_LD_25_RN_13_RD_26_0.png","C_Dist_300_LN_20_LD_25_RN_14_RD_28_0.png","C_Dist_300_LN_20_LD_25_RN_5_RD_10_0.png","C_Dist_300_LN_20_LD_25_RN_8_RD_16_0.png","C_Dist_300_LN_20_LD_25_RN_9_RD_18_0.png","C_Dist_300_LN_24_LD_30_RN_2_RD_4_0.png","C_Dist_300_LN_24_LD_30_RN_8_RD_16_0.png","C_Dist_300_LN_3_LD_6_RN_2_RD_10_0.png","C_Dist_300_LN_4_LD_10_RN_1_RD_10_0.png","C_Dist_300_LN_4_LD_5_RN_2_RD_4_0.png","C_Dist_300_LN_8_LD_16_RN_1_RD_5_0.png","C_Dist_300_LN_9_LD_10_RN_3_RD_5_0.png"],["C_Dist_300_LN_1_LD_20_RN_7_RD_20_1.png","C_Dist_300_LN_1_LD_3_RN_19_RD_30_1.png","C_Dist_300_LN_1_LD_30_RN_8_RD_24_1.png","C_Dist_300_LN_1_LD_5_RN_11_RD_22_1.png","C_Dist_300_LN_1_LD_5_RN_3_RD_6_1.png","C_Dist_300_LN_1_LD_5_RN_6_RD_12_1.png","C_Dist_300_LN_2_LD_10_RN_12_RD_24_1.png","C_Dist_300_LN_2_LD_20_RN_10_RD_25_1.png","C_Dist_300_LN_3_LD_12_RN_11_RD_20_1.png","C_Dist_300_LN_3_LD_6_RN_4_RD_5_1.png","C_Dist_300_LN_4_LD_20_RN_13_RD_26_1.png","C_Dist_300_LN_5_LD_25_RN_6_RD_12_1.png","C_Dist_300_LN_5_LD_25_RN_7_RD_14_1.png","C_Dist_300_LN_7_LD_14_RN_20_RD_25_1.png","C_Dist_300_LN_8_LD_15_RN_10_RD_12_1.png"]],"dist300_I":[["I_Dist_300_LN_1_LD_2_RN_2_RD_10_0.png","I_Dist_300_LN_1_LD_2_RN_3_RD_15_0.png","I_Dist_300_LN_2_LD_4_RN_6_RD_30_0.png","I_Dist_300_LN_3_LD_6_RN_4_RD_20_0.png","I_Dist_300_LN_4_LD_5_RN_6_RD_12_0.png","I_Dist_300_LN_4_LD_5_RN_8_RD_16_0.png","I_Dist_300_LN_7_LD_10_RN_8_RD_20_0.png","I_Dist_300_LN_8_LD_10_RN_14_RD_28_0.png","I_Dist_300_LN_8_LD_10_RN_9_RD_18_0.png"],["I_Dist_300_LN_13_LD_26_RN_12_RD_15_1.png","I_Dist_300_LN_4_LD_20_RN_2_RD_4_1.png"]],"dist300_S":[["E_Dist_300_LN_9_LD_12_RN_9_RD_20_0.png"],["E_Dist_300_LN_18_LD_30_RN_18_RD_20_1.png","E_Dist_300_LN_3_LD_10_RN_3_RD_5_1.png","E_Dist_300_LN_9_LD_20_RN_9_RD_12_1.png"]],"dist500_C":[["C_Dist_500_LN_10_LD_13_RN_7_RD_26_0.png","C_Dist_500_LN_10_LD_15_RN_4_RD_24_0.png","C_Dist_500_LN_12_LD_16_RN_3_RD_12_0.png","C_Dist_500_LN_12_LD_18_RN_4_RD_24_0.png","C_Dist_500_LN_15_LD_18_RN_5_RD_15_0.png","C_Dist_500_LN_15_LD_20_RN_1_RD_4_0.png","C_Dist_500_LN_18_LD_27_RN_1_RD_6_0.png","C_Dist_500_LN_20_LD_24_RN_1_RD_3_0.png","C_Dist_500_LN_20_LD_24_RN_3_RD_9_0.png","C_Dist_500_LN_20_LD_24_RN_7_RD_21_0.png","C_Dist_500_LN_20_LD_28_RN_3_RD_14_0.png","C_Dist_500_LN_21_LD_28_RN_6_RD_24_0.png","C_Dist_500_LN_22_LD_28_RN_2_RD_7_0.png","C_Dist_500_LN_25_LD_30_RN_9_RD_27_0.png","C_Dist_500_LN_4_LD_6_RN_1_RD_6_0.png","C_Dist_500_LN_5_LD_6_RN_2_RD_6_0.png","C_Dist_500_LN_6_LD_9_RN_1_RD_6_0.png","C_Dist_500_LN_7_LD_10_RN_1_RD_5_0.png","C_Dist_500_LN_8_LD_12_RN_1_RD_6_0.png","C_Dist_500_LN_8_LD_12_RN_4_RD_24_0.png"],["C_Dist_500_LN_1_LD_4_RN_12_RD_16_1.png","C_Dist_500_LN_1_LD_4_RN_9_RD_12_1.png","C_Dist_500_LN_1_LD_9_RN_11_RD_18_1.png","C_Dist_500_LN_10_LD_24_RN_22_RD_24_1.png","C_Dist_500_LN_2_LD_12_RN_10_RD_15_1.png","C_Dist_500_LN_2_LD_12_RN_12_RD_18_1.png","C_Dist_500_LN_2_LD_12_RN_4_RD_6_1.png","C_Dist_500_LN_2_LD_24_RN_7_RD_12_1.png","C_Dist_500_LN_2_LD_5_RN_18_RD_20_1.png","C_Dist_500_LN_2_LD_5_RN_9_RD_10_1.png","C_Dist_500_LN_2_LD_8_RN_12_RD_16_1.png","C_Dist_500_LN_2_LD_8_RN_21_RD_28_1.png","C_Dist_500_LN_3_LD_10_RN_4_RD_5_1.png","C_Dist_500_LN_3_LD_12_RN_15_RD_20_1.png","C_Dist_500_LN_3_LD_30_RN_6_RD_10_1.png","C_Dist_500_LN_3_LD_8_RN_14_RD_16_1.png","C_Dist_500_LN_4_LD_16_RN_15_RD_20_1.png","C_Dist_500_LN_4_LD_24_RN_12_RD_18_1.png","C_Dist_500_LN_5_LD_14_RN_6_RD_7_1.png","C_Dist_500_LN_7_LD_21_RN_20_RD_24_1.png","C_Dist_500_LN_7_LD_28_RN_12_RD_16_1.png","C_Dist_500_LN_7_LD_28_RN_9_RD_12_1.png","C_Dist_500_LN_9_LD_27_RN_20_RD_24_1.png"]],"dist500_I":[["I_Dist_500_LN_2_LD_3_RN_4_RD_24_0.png","I_Dist_500_LN_5_LD_6_RN_6_RD_18_0.png","I_Dist_500_LN_7_LD_8_RN_9_RD_24_0.png"],["I_Dist_500_LN_7_LD_21_RN_5_RD_6_1.png"]],"dist500_S":[["E_Dist_500_LN_6_LD_8_RN_6_RD_24_0.png"],["E_Dist_500_LN_2_LD_12_RN_2_RD_3_1.png","E_Dist_500_LN_6_LD_24_RN_6_RD_8_1.png"]]}},{"start_time":1551793989444,"click_time":1551793991111,"finger_time":1551793990592,"fix_duration":450.08250485452174,"trial":1,"RT":1148,"MT":519,"sideResp":2,"stimulus":[],"xmouse":[800,800,800,800,800,800,800,800,800,800,800,800,800,800,800,800,800,800,800,800,800,800,800,800,800,800,800,800,800,800,800,800,800,800,800,800,800,800,800,800,800,800,800,800,800,800,800,800,800,800,800,800,800,800,800,809,822,963,1033,1085,1120,1141,1155,1187,1194,1197,1200,1197,1192,1189,1185,1181,1154,1129,1116,1110,1109,1109,1109,1109,1108,1107,1102,1099],"ymouse":[515,515,515,515,515,515,515,515,515,515,515,515,515,515,515,515,515,515,515,515,515,515,515,515,515,515,515,515,515,515,515,515,515,515,515,515,515,515,515,515,515,515,515,515,515,515,515,515,515,515,515,515,515,515,515,506,494,432,401,379,363,351,339,297,273,246,221,178,166,158,154,149,140,133,131,131,131,131,131,130,129,124,102,88],"timestamp_mouse":[10,31,49,68,87,107,127,148,168,187,207,227,247,268,287,309,329,347,367,387,407,427,448,467,487,509,527,548,568,588,607,628,648,667,689,707,728,749,769,788,809,828,847,868,887,909,928,948,967,987,1007,1028,1047,1069,1087,1107,1127,1148,1167,1188,1207,1227,1247,1267,1287,1308,1328,1348,1368,1387,1408,1428,1448,1467,1488,1507,1528,1548,1568,1587,1607,1627,1649,1667],"xSR":741.5,"ySR":469.95,"xT1":424.9,"yT1":0,"xT2":1058.1,"yT2":0,"toosoon":0,"cond_shown":"Congruent","ratio_trial":100,"L_num":1,"L_den":2,"R_num":18,"R_den":30,"correct_side":2,"subjID":"MIGUELBURGOSGIL33","gender":"0","school":"6","age":"12"},{"start_time":1551793993392,"click_time":1551793994913,"finger_time":1551793994552,"fix_duration":1019.7798315967831,"trial":2,"RT":1160,"MT":361,"sideResp":2,"stimulus":[],"xmouse":[773,773,773,773,773,773,773,773,773,773,773,773,773,773,773,773,773,773,773,773,773,773,773,773,773,773,773,773,773,773,773,773,773,773,773,773,773,773,773,773,773,773,773,773,773,773,773,773,773,773,773,773,773,773,773,773,782,796,826,877,987,1018,1035,1041,1042,1048,1052,1056,1061,1067,1073,1074,1074,1075,1075,1079,1083],"ymouse":[498,498,498,498,498,498,498,498,498,498,498,498,498,498,498,498,498,498,498,498,498,498,498,498,498,498,498,498,498,498,498,498,498,498,498,498,498,498,498,498,498,498,498,498,498,498,498,498,498,498,498,498,498,498,498,498,492,476,445,401,311,288,273,265,259,240,227,209,191,175,149,144,142,137,131,104,91],"timestamp_mouse":[1,33,40,60,79,100,120,139,159,180,200,220,239,259,279,301,321,339,359,381,399,419,439,460,481,500,521,539,560,581,599,620,641,659,680,700,721,740,759,781,800,820,841,860,880,899,920,940,959,979,1001,1021,1040,1060,1081,1099,1120,1140,1159,1179,1200,1219,1240,1259,1281,1299,1319,1340,1359,1379,1401,1419,1439,1460,1480,1500,1520],"xSR":741.5,"ySR":469.95,"xT1":424.9,"yT1":0,"xT2":1058.1,"yT2":0,"toosoon":0,"cond_shown":"Congruent","ratio_trial":200,"L_num":3,"L_den":6,"R_num":14,"R_den":20,"correct_side":2,"subjID":"MIGUELBURGOSGIL33","gender":"0","school":"6","age":"12"},{"start_time":1551794000206,"click_time":1551794001771,"finger_time":1551794001231,"fix_duration":1431.720822119235,"trial":3,"RT":1025,"MT":540,"sideResp":2,"stimulus":[],"xmouse":[797,797,797,797,797,797,797,797,797,797,797,797,797,797,797,797,797,797,797,797,797,797,797,797,797,797,797,797,797,797,797,797,797,797,797,797,797,797,797,797,797,797,797,797,797,797,797,797,797,797,819,850,876,890,906,915,921,926,930,932,934,934,934,934,934,940,945,949,955,961,967,968,970,972,974,981,999,1034,1088],"ymouse":[548,548,548,548,548,548,548,548,548,548,548,548,548,548,548,548,548,548,548,548,548,548,548,548,548,548,548,548,548,548,548,548,548,548,548,548,548,548,548,548,548,548,548,548,548,548,548,548,548,548,502,430,350,281,167,110,82,63,49,40,32,31,31,31,31,34,38,40,42,43,44,44,43,43,42,40,34,32,32],"timestamp_mouse":[10,32,45,64,86,105,124,145,165,185,205,226,244,266,284,304,326,345,365,386,404,424,444,464,486,504,524,546,565,586,606,624,645,666,684,705,724,745,765,786,806,824,846,864,884,906,924,946,964,984,1004,1025,1046,1066,1085,1104,1124,1145,1164,1184,1205,1225,1244,1264,1286,1306,1325,1345,1365,1384,1404,1425,1445,1464,1485,1504,1524,1546,1564],"xSR":741.5,"ySR":469.95,"xT1":424.9,"yT1":0,"xT2":1058.1,"yT2":0,"toosoon":0,"cond_shown":"Incongruent","ratio_trial":300,"L_num":1,"L_den":2,"R_num":3,"R_den":15,"correct_side":1,"subjID":"MIGUELBURGOSGIL33","gender":"0","school":"6","age":"12"},{"start_time":1551794003991,"click_time":1551794006751,"finger_time":1551794006432,"fix_duration":638.7195438080532,"trial":4,"RT":2441,"MT":319,"sideResp":2,"stimulus":[],"xmouse":[805,805,805,805,805,805,805,805,805,805,806,806,806,807,807,807,807,807,807,807,807,807,807,807,807,807,807,807,807,807,807,807,807,807,807,807,807,807,807,807,807,807,807,807,807,807,807,807,807,807,807,807,807,807,807,807,807,807,807,807,807,807,807,807,807,807,807,807,807,808,808,808,808,808,808,808,808,808,808,808,808,808,808,808,808,808,808,808,808,808,808,808,808,808,808,808,809,810,811,811,811,811,811,811,811,811,811,811,811,811,811,811,811,811,811,811,811,812,815,819,822,835,841,860,889,920,920,920,920,920,922,926,930,942,956,1010,1031,1053,1072],"ymouse":[531,531,531,531,531,531,531,531,531,531,530,529,529,529,529,529,529,529,529,529,529,529,529,529,529,529,529,529,529,529,529,529,529,529,529,529,529,529,529,529,529,529,529,529,529,529,529,529,529,529,529,529,529,529,529,529,529,529,529,529,529,529,529,529,529,529,529,529,529,527,526,526,526,526,526,526,526,526,526,526,526,526,526,526,526,526,526,526,526,526,526,526,526,526,525,524,521,520,519,518,518,518,518,518,518,518,518,518,518,518,518,518,518,518,518,518,518,517,512,506,499,477,459,404,332,216,200,196,195,195,190,183,176,165,152,120,110,98,90],"timestamp_mouse":[1,36,40,59,80,100,121,141,159,180,200,221,239,260,280,300,319,339,360,379,400,421,439,460,481,500,520,539,561,580,600,620,641,661,680,700,719,740,761,779,801,820,840,861,881,899,921,940,960,979,999,1021,1040,1060,1080,1099,1121,1139,1160,1179,1200,1219,1240,1259,1280,1299,1321,1340,1360,1380,1400,1419,1439,1461,1480,1500,1520,1541,1559,1580,1601,1621,1640,1659,1679,1699,1720,1740,1761,1781,1800,1820,1839,1860,1881,1899,1921,1939,1960,1980,2001,2019,2041,2060,2079,2101,2120,2141,2159,2180,2201,2220,2239,2261,2279,2299,2320,2340,2361,2381,2399,2420,2441,2460,2479,2501,2519,2540,2559,2579,2601,2619,2640,2660,2681,2699,2720,2740,2760],"xSR":741.5,"ySR":469.95,"xT1":424.9,"yT1":0,"xT2":1058.1,"yT2":0,"toosoon":0,"cond_shown":"Incongruent","ratio_trial":300,"L_num":13,"L_den":26,"R_num":12,"R_den":15,"correct_side":2,"subjID":"MIGUELBURGOSGIL33","gender":"0","school":"6","age":"12"},{"start_time":1551794008162,"click_time":1551794010051,"finger_time":1551794009591,"fix_duration":250,"trial":5,"RT":1429,"MT":460,"sideResp":2,"stimulus":[],"xmouse":[794,794,794,794,794,794,794,794,794,794,794,794,794,794,794,794,794,794,794,794,794,794,794,794,794,794,794,794,794,794,794,794,794,794,794,794,794,794,794,794,794,794,794,794,794,794,794,794,794,794,794,794,794,794,794,794,794,794,794,794,794,794,794,794,794,794,794,794,794,796,799,807,836,854,872,900,968,979,986,988,989,990,994,998,1001,1006,1018,1029,1033,1034,1036,1040,1047,1055,1069],"ymouse":[490,490,490,490,490,490,490,490,490,490,490,490,490,490,490,490,490,490,490,490,490,490,490,490,490,490,490,490,490,490,490,490,490,490,490,490,490,490,490,490,490,490,490,490,490,490,490,490,490,490,490,490,490,490,490,490,490,490,490,490,490,490,490,490,490,490,490,490,490,486,481,465,394,339,284,219,88,76,68,63,61,59,56,53,52,50,47,46,45,44,44,44,43,41,39],"timestamp_mouse":[20,43,49,69,88,109,128,149,169,188,208,229,249,268,290,309,328,349,369,388,409,429,449,469,488,508,529,549,568,590,609,629,649,668,690,708,730,750,769,788,809,829,849,868,888,910,928,949,970,988,1009,1030,1048,1070,1090,1109,1130,1148,1170,1189,1209,1229,1250,1270,1289,1309,1329,1348,1369,1389,1410,1429,1449,1469,1489,1510,1529,1550,1569,1588,1609,1628,1649,1668,1689,1708,1729,1748,1769,1789,1810,1830,1849,1869,1889],"xSR":741.5,"ySR":469.95,"xT1":424.9,"yT1":0,"xT2":1058.1,"yT2":0,"toosoon":0,"cond_shown":"Congruent","ratio_trial":300,"L_num":4,"L_den":20,"R_num":13,"R_den":26,"correct_side":2,"subjID":"MIGUELBURGOSGIL33","gender":"0","school":"6","age":"12"},{"start_time":1551794012312,"click_time":1551794013871,"finger_time":1551794013511,"fix_duration":639.2835997161835,"trial":6,"RT":1199,"MT":360,"sideResp":1,"stimulus":[],"xmouse":[796,796,796,796,796,796,796,796,796,796,796,796,796,796,796,796,796,796,796,796,796,796,796,796,796,796,796,796,796,796,796,796,796,796,796,796,796,796,796,796,796,796,796,796,796,796,796,796,796,796,796,796,796,796,796,796,796,793,783,682,617,576,552,540,525,513,508,505,504,504,504,505,507,510,510,510,510,510],"ymouse":[479,479,479,479,479,479,479,479,479,479,479,479,479,479,479,479,479,479,479,479,479,479,479,479,479,479,479,479,479,479,479,479,479,479,479,479,479,479,479,479,479,479,479,479,479,479,479,479,479,479,479,479,479,479,479,479,479,479,471,409,368,330,301,282,233,187,168,154,135,130,126,122,118,111,107,105,101,99],"timestamp_mouse":[33,39,59,78,100,119,140,160,179,199,220,239,259,279,299,319,340,359,379,400,419,439,458,479,498,519,540,560,580,598,618,640,659,679,698,719,740,758,779,800,818,838,860,880,899,918,939,958,978,1000,1020,1039,1059,1079,1098,1119,1140,1159,1180,1199,1219,1239,1259,1278,1298,1320,1339,1360,1379,1398,1419,1439,1459,1479,1498,1519,1539,1559],"xSR":741.5,"ySR":469.95,"xT1":424.9,"yT1":0,"xT2":1058.1,"yT2":0,"toosoon":0,"cond_shown":"Incongruent","ratio_trial":100,"L_num":13,"L_den":26,"R_num":12,"R_den":20,"correct_side":2,"subjID":"MIGUELBURGOSGIL33","gender":"0","school":"6","age":"12"},{"start_time":1551794015706,"click_time":1551794017792,"finger_time":1551794017410,"fix_duration":393.64549688197746,"trial":7,"RT":1704,"MT":382,"sideResp":2,"stimulus":[],"xmouse":[801,801,801,801,801,801,801,801,801,801,801,801,801,801,801,801,801,801,801,801,801,801,801,801,801,801,801,801,801,801,801,801,801,801,801,801,801,801,801,801,801,801,801,801,801,801,801,801,801,801,801,801,801,801,801,801,801,801,801,801,801,801,801,801,801,801,801,801,801,801,801,801,801,799,799,797,797,797,797,797,797,796,798,812,830,887,910,922,929,933,942,947,955,961,972,977,982,988,996,1005,1031,1041,1049,1058,1067],"ymouse":[525,525,525,525,525,525,525,525,525,525,525,525,525,525,525,525,525,525,525,525,525,525,525,525,525,525,525,525,525,525,525,525,525,525,525,525,525,525,525,525,525,525,525,525,525,525,525,525,525,525,525,525,525,525,525,525,525,525,525,525,525,525,525,525,525,525,525,525,525,525,525,525,525,525,524,523,523,523,523,523,523,523,515,499,477,420,389,368,354,340,289,271,253,240,218,207,193,179,165,152,124,115,107,94,80],"timestamp_mouse":[5,32,46,66,84,104,125,144,165,184,205,225,246,264,285,305,325,346,365,385,404,425,446,464,486,504,525,544,564,584,605,625,644,665,684,706,726,744,765,784,805,825,845,865,884,905,924,945,964,985,1005,1026,1045,1064,1086,1105,1124,1146,1164,1185,1205,1224,1244,1265,1286,1306,1325,1345,1364,1386,1405,1425,1444,1464,1486,1505,1525,1544,1566,1586,1605,1624,1644,1664,1684,1704,1725,1744,1764,1784,1805,1825,1844,1864,1885,1905,1924,1945,1964,1984,2004,2025,2045,2064,2086],"xSR":741.5,"ySR":469.95,"xT1":424.9,"yT1":0,"xT2":1058.1,"yT2":0,"toosoon":0,"cond_shown":"Incongruent","ratio_trial":200,"L_num":4,"L_den":5,"R_num":6,"R_den":10,"correct_side":1,"subjID":"MIGUELBURGOSGIL33","gender":"0","school":"6","age":"12"},{"start_time":1551794022062,"click_time":1551794023271,"finger_time":1551794022830,"fix_duration":250,"trial":8,"RT":768,"MT":441,"sideResp":1,"stimulus":[],"xmouse":[798,798,798,798,798,798,798,798,798,798,798,798,798,798,798,798,798,798,798,798,798,798,798,798,798,798,798,798,798,798,798,798,798,798,798,798,784,762,735,711,701,697,696,690,686,677,595,553,525,508,499,492,478,473,471,467,466,466,468,471,479],"ymouse":[535,535,535,535,535,535,535,535,535,535,535,535,535,535,535,535,535,535,535,535,535,535,535,535,535,535,535,535,535,535,535,535,535,535,535,535,527,524,519,516,514,498,486,478,472,457,325,277,248,232,219,207,179,167,157,145,132,125,119,107,91],"timestamp_mouse":[10,34,50,69,88,109,129,148,169,190,209,229,248,269,289,310,328,350,369,388,410,430,449,470,488,508,529,550,570,589,610,628,648,669,689,709,729,749,768,789,809,829,848,868,888,909,930,948,969,989,1008,1028,1048,1069,1088,1108,1129,1148,1169,1189,1209],"xSR":741.5,"ySR":469.95,"xT1":424.9,"yT1":0,"xT2":1058.1,"yT2":0,"toosoon":0,"cond_shown":"Congruent","ratio_trial":200,"L_num":14,"L_den":28,"R_num":6,"R_den":20,"correct_side":1,"subjID":"MIGUELBURGOSGIL33","gender":"0","school":"6","age":"12"},{"start_time":1551794026221,"click_time":1551794028111,"finger_time":1551794027171,"fix_duration":670.5644869731682,"trial":9,"RT":950,"MT":940,"sideResp":1,"stimulus":[],"xmouse":[768,768,768,768,768,768,768,768,768,768,768,768,768,768,768,768,768,768,768,768,768,768,768,768,768,768,768,768,768,768,768,768,768,768,768,768,768,767,765,758,755,754,754,754,752,751,747,739,715,702,690,679,665,620,578,518,459,408,313,313,313,313,313,313,313,313,313,313,313,313,175,188,195,218,219,220,220,223,245,263,285,328,328,328,328,328,328,328,328,328,328,328,328,328,434],"ymouse":[543,543,543,543,543,543,543,543,543,543,543,543,543,543,543,543,543,543,543,543,543,543,543,543,543,543,543,543,543,543,543,543,543,543,543,543,540,537,531,516,504,497,495,493,486,484,477,469,451,442,435,426,415,372,338,295,247,186,28,28,28,28,28,28,28,28,28,28,28,28,11,24,33,45,46,46,46,46,34,26,17,2,2,2,2,2,2,2,2,2,2,2,2,2,3],"timestamp_mouse":[11,34,49,69,90,109,131,150,169,191,210,230,250,270,291,310,330,351,369,391,411,430,449,470,491,511,529,551,569,589,611,629,649,670,689,711,731,749,769,789,809,829,850,869,891,910,930,950,970,989,1010,1029,1051,1071,1089,1109,1129,1149,1170,1190,1209,1229,1250,1270,1291,1311,1331,1349,1369,1390,1410,1429,1449,1470,1489,1509,1530,1549,1571,1589,1610,1630,1650,1671,1690,1709,1729,1749,1771,1791,1810,1830,1850,1870,1889],"xSR":741.5,"ySR":469.95,"xT1":424.9,"yT1":0,"xT2":1058.1,"yT2":0,"toosoon":0,"cond_shown":"Congruent","ratio_trial":200,"L_num":21,"L_den":30,"R_num":2,"R_den":4,"correct_side":1,"subjID":"MIGUELBURGOSGIL33","gender":"0","school":"6","age":"12"},{"start_time":1551794030477,"click_time":1551794032210,"finger_time":1551794031672,"fix_duration":1284.6587915206633,"trial":10,"RT":1195,"MT":538,"sideResp":2,"stimulus":[],"xmouse":[796,796,796,796,796,796,796,796,796,796,796,796,796,796,796,796,796,796,796,796,796,796,796,796,796,796,796,796,796,796,796,796,796,796,796,796,796,796,796,796,796,796,796,796,796,796,796,796,796,796,796,796,796,796,797,797,797,798,800,801,802,804,806,808,811,819,826,834,842,855,883,980,1012,1026,1032,1032,1032,1032,1032,1032,1032,1032,1032,1032,1032,1098,1108],"ymouse":[493,493,493,493,493,493,493,493,493,493,493,493,493,493,493,493,493,493,493,493,493,493,493,493,493,493,493,493,493,493,493,493,493,493,493,493,493,493,493,493,493,493,493,493,493,493,493,493,493,493,493,493,493,493,492,490,480,475,470,466,449,438,428,421,414,393,378,361,340,315,275,87,31,13,2,2,2,2,2,2,2,2,2,2,2,0,17],"timestamp_mouse":[13,33,55,74,94,114,135,153,174,195,214,234,254,274,293,314,334,354,374,393,413,434,453,475,493,513,533,554,573,594,613,634,654,673,695,715,734,754,774,794,813,834,854,873,894,913,933,954,973,994,1013,1034,1054,1073,1093,1113,1133,1154,1174,1195,1214,1233,1254,1273,1295,1314,1333,1354,1373,1394,1413,1433,1453,1473,1493,1513,1534,1553,1574,1595,1614,1634,1654,1673,1693,1714,1733],"xSR":741.5,"ySR":469.95,"xT1":424.9,"yT1":0,"xT2":1058.1,"yT2":0,"toosoon":0,"cond_shown":"Congruent","ratio_trial":100,"L_num":4,"L_den":8,"R_num":6,"R_den":10,"correct_side":2,"subjID":"MIGUELBURGOSGIL33","gender":"0","school":"6","age":"12"},{"start_time":1551794034313,"click_time":1551794036631,"finger_time":1551794035691,"fix_duration":1100.3204713536393,"trial":11,"RT":1378,"MT":940,"sideResp":2,"stimulus":[],"xmouse":[824,824,824,824,824,824,824,824,824,824,824,824,824,824,824,824,824,824,824,824,824,824,824,824,824,824,824,824,824,824,824,824,824,824,824,824,824,824,824,824,824,824,824,824,824,824,824,824,824,824,824,824,824,824,824,824,824,824,824,824,824,824,824,824,824,821,816,806,774,717,701,693,691,693,706,729,762,799,861,886,900,909,919,941,952,963,971,976,986,990,994,1006,1016,1041,1051,1060,1066,1069,1071,1071,1071,1071,1071,1073,1077,1081,1087,1092,1097,1097,1097,1097,1097,1097,1097,1098],"ymouse":[497,497,497,497,497,497,497,497,497,497,497,497,497,497,497,497,497,497,497,497,497,497,497,497,497,496,496,496,496,496,496,495,495,494,494,494,494,493,492,492,492,492,492,492,492,492,492,492,492,492,491,491,491,491,491,491,491,491,491,491,491,491,491,491,490,486,481,473,448,406,394,386,381,370,357,343,329,309,262,238,227,220,213,195,184,175,164,156,145,143,141,136,132,122,119,116,115,114,113,113,113,113,113,113,112,109,106,103,100,100,100,100,100,100,100,96],"timestamp_mouse":[31,38,58,77,98,118,138,159,178,198,217,239,258,278,298,317,338,357,377,398,418,438,458,478,499,517,539,559,578,599,618,639,657,679,699,717,737,757,779,797,818,837,857,878,898,918,937,958,979,998,1018,1038,1058,1077,1098,1117,1138,1158,1178,1199,1219,1238,1257,1279,1298,1318,1338,1359,1378,1398,1418,1437,1457,1478,1497,1517,1539,1558,1578,1597,1618,1638,1657,1678,1697,1718,1738,1757,1779,1797,1817,1838,1858,1878,1897,1917,1939,1958,1978,1997,2018,2037,2057,2078,2098,2118,2138,2158,2179,2197,2219,2238,2258,2277,2298,2318],"xSR":741.5,"ySR":469.95,"xT1":424.9,"yT1":0,"xT2":1058.1,"yT2":0,"toosoon":0,"cond_shown":"Incongruent","ratio_trial":300,"L_num":3,"L_den":6,"R_num":4,"R_den":20,"correct_side":1,"subjID":"MIGUELBURGOSGIL33","gender":"0","school":"6","age":"12"},{"start_time":1551794038754,"click_time":1551794040251,"finger_time":1551794040010,"fix_duration":1122.3694454975462,"trial":12,"RT":1256,"MT":241,"sideResp":1,"stimulus":[],"xmouse":[816,816,816,817,817,818,818,818,818,818,818,818,818,818,818,818,818,818,818,818,818,818,818,818,818,818,818,818,818,818,818,818,818,818,818,818,818,818,818,818,818,818,818,818,818,818,818,818,818,818,818,818,818,818,818,818,818,818,817,815,814,810,790,775,760,751,727,712,701,686,667,584,545,510,469],"ymouse":[511,511,511,509,509,509,509,509,509,509,509,509,509,509,509,509,509,509,509,509,509,509,509,509,509,509,509,509,509,509,509,509,509,509,509,509,509,509,509,509,509,509,509,509,509,509,509,509,509,509,509,509,509,509,509,509,508,502,499,495,489,483,459,442,428,417,388,370,357,339,322,273,228,150,58],"timestamp_mouse":[18,37,56,78,97,117,136,156,176,196,217,237,256,278,297,318,336,357,376,397,417,438,456,477,497,518,536,556,577,597,618,638,656,677,696,717,736,756,777,796,818,836,858,876,896,916,937,957,976,996,1018,1036,1058,1076,1097,1118,1137,1157,1177,1196,1216,1236,1256,1277,1297,1316,1337,1356,1376,1398,1418,1437,1456,1476,1496],"xSR":741.5,"ySR":469.95,"xT1":424.9,"yT1":0,"xT2":1058.1,"yT2":0,"toosoon":0,"cond_shown":"Incongruent","ratio_trial":300,"L_num":13,"L_den":26,"R_num":12,"R_den":15,"correct_side":2,"subjID":"MIGUELBURGOSGIL33","gender":"0","school":"6","age":"12"},{"start_time":1551794042494,"click_time":1551794044452,"finger_time":1551794043831,"fix_duration":1181.3841111903048,"trial":13,"RT":1337,"MT":621,"sideResp":1,"stimulus":[],"xmouse":[795,795,795,795,795,795,795,795,795,795,795,795,795,795,795,795,795,795,795,796,796,796,796,796,796,796,796,796,796,796,796,796,796,796,796,796,796,796,796,796,796,796,796,796,796,796,796,796,796,796,796,796,796,798,798,798,798,798,798,798,798,798,799,799,799,799,799,799,800,804,812,820,827,829,827,818,811,806,802,800,788,783,779,774,765,718,660,597,550,518,482,469,455,443,435,429,429,431],"ymouse":[494,494,494,494,494,494,494,494,494,494,494,494,494,494,494,494,494,494,494,494,494,494,494,494,494,494,494,494,494,494,494,494,494,494,494,494,494,494,494,494,494,494,494,494,494,494,494,494,494,494,494,494,494,492,491,490,488,488,487,486,485,484,482,481,475,471,465,459,451,421,405,388,375,368,353,340,332,327,325,323,320,319,317,316,312,293,271,250,235,223,202,191,178,167,153,126,111,97],"timestamp_mouse":[31,37,58,78,96,116,138,157,177,198,216,236,257,276,297,316,338,356,377,398,417,438,457,477,496,517,537,557,577,597,618,637,656,677,696,717,736,758,777,797,818,837,858,876,897,918,936,957,977,997,1016,1037,1056,1076,1097,1116,1137,1156,1176,1196,1216,1236,1257,1277,1297,1316,1337,1357,1376,1397,1416,1437,1456,1477,1498,1517,1536,1557,1578,1596,1617,1636,1656,1676,1696,1716,1737,1758,1777,1797,1816,1836,1857,1876,1897,1916,1936,1958],"xSR":741.5,"ySR":469.95,"xT1":424.9,"yT1":0,"xT2":1058.1,"yT2":0,"toosoon":0,"cond_shown":"Incongruent","ratio_trial":300,"L_num":8,"L_den":10,"R_num":9,"R_den":18,"correct_side":1,"subjID":"MIGUELBURGOSGIL33","gender":"0","school":"6","age":"12"},{"start_time":1551794045757,"click_time":1551794047471,"finger_time":1551794047112,"fix_duration":264.77414774799604,"trial":14,"RT":1355,"MT":359,"sideResp":1,"stimulus":[],"xmouse":[803,803,803,803,803,803,803,803,803,803,803,803,803,803,803,803,803,803,803,803,803,804,804,804,804,804,804,804,804,804,804,804,804,804,804,804,804,804,804,804,804,804,804,804,804,804,804,804,804,804,804,804,804,804,804,804,804,804,804,804,804,804,804,804,804,804,809,817,831,850,870,902,904,904,904,904,904,870,844,815,782,686,631,574,528,502],"ymouse":[505,505,505,505,505,505,505,505,505,505,505,505,505,505,505,505,505,505,505,505,505,505,505,505,505,505,505,505,505,505,505,505,505,505,505,505,505,505,505,505,505,505,505,505,504,503,503,502,502,502,502,502,502,502,502,501,501,500,500,500,500,500,500,498,496,494,473,448,404,356,295,186,175,173,173,173,172,170,169,169,164,149,133,117,103,93],"timestamp_mouse":[15,34,54,73,95,115,134,155,173,194,214,234,254,273,294,315,333,353,374,393,414,435,453,474,493,514,534,553,573,594,614,634,655,674,693,714,733,753,775,794,815,834,853,875,893,913,933,955,975,993,1013,1035,1055,1074,1094,1114,1133,1153,1175,1193,1214,1234,1253,1273,1294,1315,1334,1355,1374,1394,1413,1435,1453,1473,1495,1515,1533,1553,1574,1594,1614,1635,1653,1673,1694,1714],"xSR":741.5,"ySR":469.95,"xT1":424.9,"yT1":0,"xT2":1058.1,"yT2":0,"toosoon":0,"cond_shown":"Incongruent","ratio_trial":300,"L_num":4,"L_den":20,"R_num":2,"R_den":4,"correct_side":2,"subjID":"MIGUELBURGOSGIL33","gender":"0","school":"6","age":"12"},{"start_time":1551794051039,"click_time":1551794052891,"finger_time":1551794052431,"fix_duration":486.0773529661242,"trial":15,"RT":1392,"MT":460,"sideResp":2,"stimulus":[],"xmouse":[822,822,822,822,822,822,822,822,822,822,822,821,818,816,815,815,815,815,815,815,815,815,815,815,815,815,815,815,815,815,815,815,814,814,814,814,814,814,814,814,814,814,814,814,814,814,814,814,814,814,814,814,814,814,814,814,814,814,814,814,814,814,814,813,811,808,804,800,789,786,784,784,805,824,845,874,908,948,1018,1035,1051,1059,1069,1069,1071,1072,1073,1079,1085,1091,1093,1095,1095],"ymouse":[501,501,501,501,501,501,501,501,501,501,501,505,512,515,517,517,517,517,517,517,517,517,517,517,517,517,517,517,517,517,517,517,517,517,517,517,517,517,517,517,517,517,517,517,517,517,517,517,517,517,517,517,517,517,517,517,517,517,517,517,517,515,515,512,510,506,503,498,473,459,447,430,373,345,319,290,263,233,187,176,166,159,151,151,150,148,147,134,124,113,106,100,94],"timestamp_mouse":[13,32,51,73,92,111,131,151,173,193,211,231,252,271,292,312,331,353,371,391,411,433,452,473,493,511,532,551,573,591,612,631,651,671,691,711,731,753,772,793,811,831,852,872,893,911,933,951,971,993,1013,1031,1051,1072,1092,1111,1132,1151,1172,1192,1212,1232,1252,1272,1291,1312,1333,1351,1372,1392,1412,1431,1453,1471,1492,1511,1531,1551,1572,1592,1612,1633,1652,1672,1691,1711,1732,1752,1771,1792,1811,1831,1852],"xSR":741.5,"ySR":469.95,"xT1":424.9,"yT1":0,"xT2":1058.1,"yT2":0,"toosoon":0,"cond_shown":"Incongruent","ratio_trial":100,"L_num":4,"L_den":8,"R_num":8,"R_den":20,"correct_side":1,"subjID":"MIGUELBURGOSGIL33","gender":"0","school":"6","age":"12"},{"start_time":1551794053994,"click_time":1551794054911,"finger_time":1551794054791,"fix_duration":301.17791276438834,"trial":16,"RT":797,"MT":120,"sideResp":1,"stimulus":[],"xmouse":[790,790,790,790,790,790,790,790,790,790,790,790,790,790,790,790,790,790,790,790,790,790,790,790,790,790,790,790,790,790,790,790,790,790,790,790,789,787,782,754,731,705,676,643,543,524],"ymouse":[502,502,502,502,502,502,502,502,502,502,502,502,502,502,502,502,502,502,502,502,502,502,502,502,502,502,502,502,502,502,502,502,502,501,496,493,490,486,477,444,417,388,346,288,70,27],"timestamp_mouse":[33,36,58,76,97,118,136,158,177,196,218,237,257,278,296,316,337,356,376,398,417,436,457,477,496,517,537,556,577,597,617,636,658,678,697,716,736,756,778,797,817,836,857,877,898,916],"xSR":741.5,"ySR":469.95,"xT1":424.9,"yT1":0,"xT2":1058.1,"yT2":0,"toosoon":0,"cond_shown":"Congruent","ratio_trial":300,"L_num":20,"L_den":25,"R_num":9,"R_den":18,"correct_side":1,"subjID":"MIGUELBURGOSGIL33","gender":"0","school":"6","age":"12"},{"start_time":1551794057249,"click_time":1551794059031,"finger_time":1551794058411,"fix_duration":896.6413684537351,"trial":17,"RT":1162,"MT":620,"sideResp":2,"stimulus":[],"xmouse":[771,772,772,772,772,772,772,772,772,772,772,772,772,772,772,772,772,772,772,772,772,772,772,772,772,772,772,772,772,772,772,772,772,772,772,772,772,772,772,772,772,772,772,772,772,772,772,772,772,772,772,772,772,772,772,772,773,780,813,833,850,861,887,900,909,921,934,947,973,978,981,983,985,990,993,999,1003,1007,1015,1018,1023,1025,1033,1036,1038,1041,1044,1047,1057,1061],"ymouse":[523,523,523,523,523,523,523,523,523,523,523,523,523,523,523,523,523,523,523,523,523,523,523,523,523,523,523,523,523,523,523,523,523,523,523,523,523,523,523,523,523,523,523,523,523,523,523,523,523,523,523,523,523,521,520,513,508,489,430,398,367,340,273,244,227,212,198,184,162,157,152,148,144,137,135,129,124,119,109,106,100,96,87,82,80,77,74,72,66,65],"timestamp_mouse":[2,21,42,62,83,103,122,141,162,181,203,223,241,261,282,301,323,341,361,382,403,422,441,462,482,502,521,542,561,581,601,621,642,661,681,701,721,741,762,781,803,823,841,880,882,903,923,941,962,983,1001,1021,1042,1063,1082,1101,1122,1141,1162,1182,1202,1221,1243,1261,1281,1301,1321,1341,1361,1382,1402,1422,1441,1461,1481,1502,1521,1541,1561,1582,1602,1621,1642,1661,1681,1701,1722,1742,1761,1782],"xSR":741.5,"ySR":469.95,"xT1":424.9,"yT1":0,"xT2":1058.1,"yT2":0,"toosoon":0,"cond_shown":"Incongruent","ratio_trial":200,"L_num":3,"L_den":4,"R_num":11,"R_den":20,"correct_side":1,"subjID":"MIGUELBURGOSGIL33","gender":"0","school":"6","age":"12"},{"start_time":1551794060194,"click_time":1551794061391,"finger_time":1551794060810,"fix_duration":383.42784372816584,"trial":18,"RT":616,"MT":581,"sideResp":2,"stimulus":[],"xmouse":[795,795,795,795,795,795,795,795,795,795,795,795,796,796,796,796,797,797,797,798,798,798,798,798,799,801,805,809,819,835,860,871,881,888,903,906,907,909,910,915,919,922,926,934,993,1022,1050,1075,1093,1120,1127,1134,1138,1141,1144,1145,1145,1145,1145,1145],"ymouse":[535,535,535,535,535,535,535,535,535,535,535,535,534,534,533,532,532,531,530,530,530,529,529,529,528,524,516,507,491,470,429,407,382,359,304,291,283,277,271,259,252,248,244,235,190,172,155,142,134,119,116,114,111,110,109,108,108,107,103,91],"timestamp_mouse":[32,36,58,76,98,116,137,157,176,197,218,236,256,277,298,317,337,356,377,396,418,436,457,476,497,516,536,556,577,596,616,637,657,677,698,716,737,758,777,797,816,837,857,876,897,916,937,957,977,998,1016,1037,1058,1076,1096,1117,1137,1156,1177,1196],"xSR":741.5,"ySR":469.95,"xT1":424.9,"yT1":0,"xT2":1058.1,"yT2":0,"toosoon":0,"cond_shown":"Incongruent","ratio_trial":200,"L_num":9,"L_den":15,"R_num":8,"R_den":10,"correct_side":2,"subjID":"MIGUELBURGOSGIL33","gender":"0","school":"6","age":"12"},{"start_time":1551794064971,"click_time":1551794066291,"finger_time":1551794065510,"fix_duration":480.9507686987796,"trial":19,"RT":539,"MT":781,"sideResp":1,"stimulus":[],"xmouse":[788,788,788,788,788,788,788,788,788,788,788,788,788,788,788,788,788,788,788,788,787,786,784,781,776,758,736,710,674,644,597,590,586,582,582,602,638,649,658,663,672,678,678,678,678,666,643,625,608,597,594,593,592,590,587,581,577,574,570,567,563,555,551,545,538,514],"ymouse":[510,510,508,508,508,508,508,508,508,508,508,508,508,508,508,508,508,508,508,507,505,501,498,494,490,482,475,469,464,461,443,432,406,376,345,249,167,143,120,105,88,78,78,78,77,77,78,80,83,84,85,85,85,85,83,73,69,65,61,58,54,51,50,49,48,47],"timestamp_mouse":[37,40,60,79,100,120,141,160,180,199,220,241,260,280,300,319,341,360,379,399,419,440,460,480,500,520,539,559,579,601,620,640,659,679,700,720,740,759,779,799,821,840,861,880,901,920,939,959,980,999,1019,1040,1060,1081,1100,1120,1140,1159,1179,1200,1219,1239,1261,1281,1300,1320],"xSR":741.5,"ySR":469.95,"xT1":424.9,"yT1":0,"xT2":1058.1,"yT2":0,"toosoon":0,"cond_shown":"Congruent","ratio_trial":300,"L_num":24,"L_den":30,"R_num":2,"R_den":4,"correct_side":1,"subjID":"MIGUELBURGOSGIL33","gender":"0","school":"6","age":"12"},{"start_time":1551794071249,"click_time":1551794073351,"finger_time":1551794072630,"fix_duration":456.61116384325584,"trial":20,"RT":1381,"MT":721,"sideResp":1,"stimulus":[],"xmouse":[797,797,797,797,797,797,797,797,797,797,797,797,797,797,797,797,797,797,797,797,797,797,797,797,797,797,797,797,797,797,797,797,797,797,797,797,797,797,797,797,797,797,797,797,797,797,797,797,797,797,797,797,797,797,797,797,797,797,797,797,797,797,797,797,797,798,798,788,777,769,764,760,757,755,751,745,739,734,727,723,718,713,689,678,664,646,630,577,548,529,518,513,511,509,509,508,507,507,505,503,498,492,484,458,450,446],"ymouse":[539,539,539,539,539,539,539,539,539,539,539,539,539,539,539,539,539,539,539,539,539,539,539,539,539,539,539,539,539,539,539,539,539,539,539,539,539,539,539,539,539,539,539,539,539,539,539,539,539,539,539,539,539,539,539,539,539,539,539,539,539,539,539,537,535,531,525,495,474,458,447,435,411,395,382,365,351,340,328,322,317,312,297,289,281,270,258,223,205,191,181,175,172,167,163,159,154,147,141,137,131,125,118,103,100,97],"timestamp_mouse":[9,21,42,61,82,102,123,141,161,181,202,222,243,261,281,302,321,343,363,382,402,421,442,463,481,502,521,542,562,583,602,622,642,662,681,703,723,741,762,781,802,821,841,863,881,903,921,941,962,981,1001,1021,1042,1062,1082,1102,1121,1141,1161,1181,1203,1223,1242,1261,1282,1301,1322,1342,1361,1381,1401,1421,1442,1461,1482,1501,1522,1541,1562,1581,1602,1622,1643,1661,1682,1703,1722,1743,1762,1783,1802,1821,1841,1861,1881,1902,1923,1941,1961,1982,2002,2021,2041,2062,2081,2102],"xSR":741.5,"ySR":469.95,"xT1":424.9,"yT1":0,"xT2":1058.1,"yT2":0,"toosoon":0,"cond_shown":"Incongruent","ratio_trial":200,"L_num":7,"L_den":10,"R_num":12,"R_den":24,"correct_side":1,"subjID":"MIGUELBURGOSGIL33","gender":"0","school":"6","age":"12"},{"start_time":1551794076591,"click_time":1551794078331,"finger_time":1551794077950,"fix_duration":578.9421073869944,"trial":21,"RT":1359,"MT":381,"sideResp":1,"stimulus":[],"xmouse":[834,834,834,834,834,834,834,834,834,834,834,834,834,834,834,834,834,834,834,834,834,834,834,834,834,834,834,834,834,834,834,834,834,834,834,834,834,834,834,834,834,834,834,834,834,834,834,834,834,834,834,834,834,834,834,834,834,834,834,834,834,834,828,815,805,788,776,764,754,740,708,667,655,653,649,646,645,643,641,636,612,583,561,548,538,532,524,523],"ymouse":[533,533,533,533,533,533,533,533,533,533,533,533,533,533,533,533,533,533,533,533,533,533,533,533,533,533,533,533,533,533,533,533,533,533,533,533,533,533,533,533,533,533,533,533,533,533,533,533,533,533,533,533,533,533,533,533,533,533,533,533,533,532,526,518,513,502,490,473,454,430,355,283,262,255,249,243,240,238,235,229,206,181,161,143,129,119,100,95],"timestamp_mouse":[1,30,39,60,79,99,120,139,159,179,199,219,239,260,281,300,320,341,359,379,401,419,439,460,480,499,521,539,560,580,600,619,639,660,679,701,719,740,761,779,800,821,841,859,879,900,920,940,961,980,1000,1019,1040,1061,1081,1100,1119,1140,1159,1181,1200,1220,1240,1260,1280,1300,1320,1340,1359,1381,1400,1419,1439,1461,1480,1500,1519,1541,1559,1579,1601,1619,1640,1661,1680,1699,1719,1740],"xSR":741.5,"ySR":469.95,"xT1":424.9,"yT1":0,"xT2":1058.1,"yT2":0,"toosoon":0,"cond_shown":"Congruent","ratio_trial":300,"L_num":4,"L_den":10,"R_num":1,"R_den":10,"correct_side":1,"subjID":"MIGUELBURGOSGIL33","gender":"0","school":"6","age":"12"},{"start_time":1551794080712,"click_time":1551794082571,"finger_time":1551794082010,"fix_duration":1120.756409709274,"trial":22,"RT":1298,"MT":561,"sideResp":1,"stimulus":[],"xmouse":[817,817,817,817,817,817,817,817,817,817,817,817,817,817,817,817,817,817,817,817,817,817,817,817,817,817,817,817,817,817,817,817,817,817,817,817,817,817,817,817,817,817,817,817,817,817,817,817,817,817,817,817,817,817,817,817,817,817,817,814,809,802,796,787,760,749,735,717,692,647,616,586,574,571,571,571,571,570,549,528,489,438,392,351,320,318,318,324,364,383,402,421,438],"ymouse":[496,496,496,496,496,496,496,496,496,496,496,496,496,496,496,496,496,496,496,496,496,496,496,496,496,496,496,496,496,496,496,496,496,496,496,496,496,496,496,496,496,496,496,496,496,496,496,496,496,496,496,496,496,496,496,496,496,496,496,494,491,488,485,478,454,441,425,398,371,297,255,222,207,199,196,194,193,189,171,160,143,122,103,82,59,52,46,40,29,24,22,19,17],"timestamp_mouse":[26,38,60,80,98,119,138,158,179,198,218,240,260,279,299,319,338,360,378,399,418,439,458,479,499,519,538,559,578,600,620,638,660,679,698,718,739,760,779,799,818,839,858,878,898,919,938,958,978,1000,1018,1038,1058,1079,1098,1118,1138,1159,1180,1199,1219,1239,1258,1278,1298,1319,1339,1358,1378,1399,1418,1439,1458,1479,1498,1518,1540,1560,1579,1599,1618,1639,1659,1678,1698,1719,1740,1758,1779,1798,1818,1838,1859],"xSR":741.5,"ySR":469.95,"xT1":424.9,"yT1":0,"xT2":1058.1,"yT2":0,"toosoon":0,"cond_shown":"Congruent","ratio_trial":300,"L_num":20,"L_den":25,"R_num":14,"R_den":28,"correct_side":1,"subjID":"MIGUELBURGOSGIL33","gender":"0","school":"6","age":"12"},{"start_time":1551794084423,"click_time":1551794085792,"finger_time":1551794085091,"fix_duration":691.2647470202808,"trial":23,"RT":668,"MT":701,"sideResp":2,"stimulus":[],"xmouse":[794,794,794,794,794,794,794,794,794,794,794,794,794,794,794,794,794,794,794,794,794,794,794,794,794,794,794,794,794,794,795,796,803,819,829,831,831,832,841,847,851,852,852,856,862,868,874,877,882,886,893,902,908,924,930,933,935,936,938,942,945,950,955,958,967,975,990,1023,1077],"ymouse":[477,477,477,477,477,477,477,477,477,477,477,477,477,477,477,477,477,477,477,477,477,477,477,477,477,477,477,477,477,477,477,475,471,460,453,452,451,451,439,432,429,427,418,395,377,368,360,355,345,336,322,305,289,254,244,237,232,227,224,218,214,207,200,193,178,167,147,105,28],"timestamp_mouse":[11,32,49,68,87,107,128,147,167,187,207,227,247,267,287,309,328,348,367,389,408,428,447,468,487,507,529,547,568,588,609,628,648,668,687,707,728,748,769,787,807,829,848,868,887,907,928,947,969,987,1008,1028,1048,1069,1087,1107,1128,1148,1168,1187,1207,1227,1247,1268,1288,1308,1327,1347,1369],"xSR":741.5,"ySR":469.95,"xT1":424.9,"yT1":0,"xT2":1058.1,"yT2":0,"toosoon":0,"cond_shown":"Incongruent","ratio_trial":200,"L_num":7,"L_den":10,"R_num":14,"R_den":28,"correct_side":1,"subjID":"MIGUELBURGOSGIL33","gender":"0","school":"6","age":"12"},{"start_time":1551794089433,"click_time":1551794091210,"finger_time":1551794090710,"fix_duration":1260.8767367417365,"trial":24,"RT":1277,"MT":500,"sideResp":2,"stimulus":[],"xmouse":[772,772,772,772,772,772,772,772,772,772,772,772,772,772,772,772,772,772,772,772,772,772,772,772,772,772,772,772,772,772,772,772,772,772,772,772,772,772,772,772,772,772,772,772,772,772,772,772,772,772,772,772,772,772,772,772,772,772,772,772,772,770,748,735,718,701,683,658,655,655,655,659,701,741,800,860,901,909,910,917,931,954,986,1034,1040,1044,1047,1058,1063],"ymouse":[547,547,547,547,547,547,547,547,547,547,547,547,547,547,547,547,547,547,547,547,547,547,547,547,547,547,547,547,547,547,547,547,547,547,547,547,547,547,547,547,547,547,547,547,547,547,547,547,547,547,547,547,547,547,547,547,547,547,547,547,547,544,533,528,518,509,498,476,469,462,457,452,405,371,323,281,252,243,239,228,212,194,169,131,123,113,104,80,70],"timestamp_mouse":[18,39,59,78,98,118,139,158,177,198,217,237,258,279,297,317,339,357,379,398,417,438,458,479,498,517,539,558,578,599,618,637,659,678,697,718,739,758,777,797,818,839,857,877,898,919,938,958,978,997,1018,1038,1058,1078,1097,1118,1138,1157,1179,1197,1217,1237,1258,1277,1297,1317,1339,1358,1377,1397,1418,1438,1458,1477,1497,1517,1539,1557,1577,1598,1618,1639,1657,1677,1698,1717,1737,1759,1777],"xSR":741.5,"ySR":469.95,"xT1":424.9,"yT1":0,"xT2":1058.1,"yT2":0,"toosoon":0,"cond_shown":"Incongruent","ratio_trial":100,"L_num":13,"L_den":26,"R_num":12,"R_den":20,"correct_side":2,"subjID":"MIGUELBURGOSGIL33","gender":"0","school":"6","age":"12"},{"start_time":1551794096121,"click_time":1551794097332,"finger_time":1551794097051,"fix_duration":549.7488617619402,"trial":25,"RT":930,"MT":281,"sideResp":2,"stimulus":[],"xmouse":[759,759,759,759,759,759,759,759,759,759,759,759,759,759,759,759,759,759,759,759,759,759,759,759,759,759,759,759,759,759,759,759,759,759,759,759,759,759,759,759,759,759,759,759,759,772,798,820,854,873,880,890,901,924,948,985,1015,1034,1057,1058,1059],"ymouse":[549,549,549,549,549,549,549,549,549,549,549,549,549,549,549,549,549,549,549,549,549,549,549,549,549,549,549,549,549,549,549,549,549,549,549,549,549,549,549,549,549,549,549,549,541,498,436,375,272,230,213,197,179,138,105,71,49,34,10,9,7],"timestamp_mouse":[11,36,50,70,89,110,130,149,170,191,209,229,251,270,291,309,329,351,369,389,409,431,451,469,489,509,529,549,569,590,610,631,649,670,691,710,731,749,769,789,810,831,849,869,889,909,930,950,970,989,1009,1029,1050,1070,1089,1109,1130,1149,1170,1190,1210],"xSR":741.5,"ySR":469.95,"xT1":424.9,"yT1":0,"xT2":1058.1,"yT2":0,"toosoon":0,"cond_shown":"Congruent","ratio_trial":200,"L_num":7,"L_den":15,"R_num":18,"R_den":27,"correct_side":2,"subjID":"MIGUELBURGOSGIL33","gender":"0","school":"6","age":"12"},{"start_time":1551794098730,"click_time":1551794102210,"finger_time":1551794099410,"fix_duration":319.95616953995096,"trial":26,"RT":680,"MT":2800,"sideResp":2,"stimulus":[],"xmouse":[820,820,820,820,820,820,819,819,819,819,819,819,819,819,819,819,819,819,819,819,819,819,819,819,819,819,819,819,819,819,819,819,819,819,822,825,827,827,827,827,827,827,827,827,827,827,827,827,827,826,826,825,825,825,825,825,825,825,825,824,823,823,823,823,822,822,822,821,820,820,820,820,820,820,820,820,820,820,820,820,820,820,820,820,820,820,820,820,820,820,820,820,820,820,822,827,835,842,852,872,877,881,884,888,891,898,912,925,974,993,1004,1009,1012,1013,1014,1015,1016,1016,1028,1037,1041,1043,1044,1047,1049,1052,1054,1055,1058,1060,1062,1063,1064,1067,1070,1070,1070,1070,1070,1070,1070,1070,1070,1070,1070,1070,1070,1070,1070,1070,1070,1070,1070,1071,1071,1071,1071,1071,1071,1071,1071,1072,1072,1072,1072,1072,1072,1073,1073,1073,1073,1073,1073,1074,1075],"ymouse":[504,504,504,504,502,502,500,499,499,499,498,495,494,489,486,483,481,479,477,476,476,475,474,472,472,472,472,472,472,472,472,472,472,471,465,460,458,456,456,456,456,456,456,456,455,454,453,453,453,452,452,451,450,449,446,444,441,440,438,437,435,434,433,432,431,431,430,429,425,424,424,422,421,419,419,419,419,419,419,419,419,419,419,419,419,419,419,419,419,419,419,419,419,419,413,403,388,371,347,295,278,268,260,254,250,245,239,232,207,193,182,175,171,167,164,161,160,157,144,138,136,136,135,132,129,125,123,122,119,118,116,116,115,113,111,111,111,111,111,111,111,111,111,111,111,111,111,111,111,111,111,111,111,110,110,110,110,110,110,108,108,107,107,106,106,105,104,103,103,102,102,102,102,101,99],"timestamp_mouse":[9,22,44,61,80,101,120,141,162,181,200,221,240,261,280,300,320,342,361,381,401,420,441,461,481,502,520,541,560,582,600,621,640,660,680,702,720,740,760,782,801,820,842,862,881,900,921,941,960,981,1000,1021,1041,1061,1080,1102,1122,1141,1161,1180,1201,1220,1240,1260,1281,1301,1322,1341,1361,1380,1400,1420,1440,1461,1481,1502,1520,1541,1561,1581,1601,1621,1641,1661,1680,1700,1720,1741,1761,1781,1802,1820,1840,1861,1880,1900,1920,1940,1960,1980,2001,2020,2040,2061,2080,2100,2121,2141,2161,2180,2201,2220,2240,2261,2280,2301,2322,2341,2361,2380,2401,2421,2440,2461,2480,2500,2521,2540,2560,2580,2600,2621,2641,2661,2680,2700,2720,2741,2762,2781,2802,2820,2841,2860,2881,2902,2920,2941,2961,2982,3001,3020,3040,3061,3081,3101,3121,3141,3161,3180,3200,3221,3240,3261,3281,3302,3322,3341,3360,3381,3400,3420,3440,3461,3480],"xSR":741.5,"ySR":469.95,"xT1":424.9,"yT1":0,"xT2":1058.1,"yT2":0,"toosoon":0,"cond_shown":"Congruent","ratio_trial":100,"L_num":3,"L_den":20,"R_num":4,"R_den":16,"correct_side":2,"subjID":"MIGUELBURGOSGIL33","gender":"0","school":"6","age":"12"},{"start_time":1551794104089,"click_time":1551794105530,"finger_time":1551794104970,"fix_duration":737.9241744465999,"trial":27,"RT":881,"MT":560,"sideResp":1,"stimulus":[],"xmouse":[754,754,754,754,754,754,754,754,754,754,754,754,754,754,754,754,754,754,754,754,754,754,754,754,754,754,754,754,754,754,754,754,754,754,754,754,754,754,754,754,754,754,754,742,712,533,452,423,420,420,420,419,419,419,422,444,451,457,460,462,479,492,506,517,525,531,534,535,536,536,536,526,520],"ymouse":[504,504,504,504,504,504,504,504,504,504,504,504,504,504,504,504,504,504,504,504,504,504,504,504,504,504,504,504,504,504,504,504,504,504,504,504,504,504,504,504,504,504,504,501,482,355,305,292,290,290,290,283,279,271,259,224,213,206,202,198,177,166,152,142,136,132,128,121,116,112,110,104,99],"timestamp_mouse":[9,32,42,61,81,102,123,142,162,182,202,221,241,261,283,301,322,343,362,382,402,422,442,462,482,503,521,542,561,581,602,622,642,661,683,701,721,742,763,781,801,822,841,862,881,902,922,943,961,981,1001,1021,1042,1061,1081,1102,1121,1142,1162,1183,1202,1222,1241,1262,1282,1301,1321,1343,1362,1383,1401,1421,1441],"xSR":741.5,"ySR":469.95,"xT1":424.9,"yT1":0,"xT2":1058.1,"yT2":0,"toosoon":0,"cond_shown":"Congruent","ratio_trial":300,"L_num":11,"L_den":22,"R_num":4,"R_den":20,"correct_side":1,"subjID":"MIGUELBURGOSGIL33","gender":"0","school":"6","age":"12"},{"start_time":1551794107687,"click_time":1551794109191,"finger_time":1551794109070,"fix_duration":975.501524114635,"trial":28,"RT":1383,"MT":121,"sideResp":2,"stimulus":[],"xmouse":[749,749,749,749,749,749,749,749,749,749,749,749,749,749,749,749,749,749,749,749,749,749,749,749,749,749,749,749,749,749,749,749,749,749,749,749,749,749,749,749,749,749,749,749,749,749,749,749,749,749,749,749,749,749,749,749,749,749,749,749,749,750,750,750,750,750,754,762,768,772,805,832,892,974,1066,1157],"ymouse":[514,514,514,514,514,514,514,514,514,514,514,514,514,514,514,514,514,514,514,514,514,514,514,514,514,514,514,514,514,514,514,514,514,514,514,514,514,514,514,514,514,514,514,514,514,514,514,514,514,514,514,514,514,514,514,514,514,514,514,514,514,517,517,517,517,517,514,497,481,468,390,328,254,174,110,50],"timestamp_mouse":[4,27,44,65,84,104,125,143,164,185,203,223,245,263,284,303,324,345,364,384,403,424,444,464,484,504,523,543,565,585,604,624,644,663,683,705,723,743,764,785,804,825,843,864,883,905,925,943,963,983,1004,1023,1043,1064,1085,1103,1124,1144,1165,1183,1203,1224,1243,1263,1284,1303,1323,1343,1364,1383,1403,1423,1444,1464,1484,1504],"xSR":741.5,"ySR":469.95,"xT1":424.9,"yT1":0,"xT2":1058.1,"yT2":0,"toosoon":0,"cond_shown":"Congruent","ratio_trial":200,"L_num":9,"L_den":30,"R_num":13,"R_den":26,"correct_side":2,"subjID":"MIGUELBURGOSGIL33","gender":"0","school":"6","age":"12"},{"start_time":1551794113283,"click_time":1551794114850,"finger_time":1551794114391,"fix_duration":1270.7556771247052,"trial":29,"RT":1108,"MT":459,"sideResp":2,"stimulus":[],"xmouse":[750,750,750,750,750,750,750,750,750,750,750,750,750,750,750,750,750,750,750,750,750,750,750,750,750,750,750,750,750,750,750,750,750,750,750,750,750,750,750,750,750,750,750,750,750,750,750,750,750,750,750,750,753,757,768,787,797,806,815,823,846,873,894,913,927,955,965,975,982,988,990,990,990,991,992,997,1022,1053,1076],"ymouse":[503,503,503,503,503,503,503,503,503,503,503,503,503,503,503,503,503,503,503,503,503,503,503,503,503,503,503,503,503,503,503,503,503,503,503,503,503,503,503,503,503,503,503,503,503,503,503,503,503,503,503,503,501,496,477,442,427,414,402,390,354,321,300,281,265,233,222,209,201,195,192,192,191,188,185,179,143,108,85],"timestamp_mouse":[10,39,48,67,88,108,128,148,168,188,208,228,248,269,287,308,327,347,367,387,407,427,447,467,488,508,529,548,568,588,608,628,647,667,687,708,729,747,769,787,807,829,847,867,887,908,927,948,967,987,1008,1028,1047,1068,1087,1108,1127,1148,1168,1187,1208,1228,1248,1268,1287,1307,1328,1348,1369,1389,1408,1427,1447,1467,1487,1508,1527,1548,1567],"xSR":741.5,"ySR":469.95,"xT1":424.9,"yT1":0,"xT2":1058.1,"yT2":0,"toosoon":0,"cond_shown":"Congruent","ratio_trial":200,"L_num":7,"L_den":15,"R_num":18,"R_den":27,"correct_side":2,"subjID":"MIGUELBURGOSGIL33","gender":"0","school":"6","age":"12"},{"start_time":1551794116567,"click_time":1551794117970,"finger_time":1551794117351,"fix_duration":474.01412988401523,"trial":30,"RT":784,"MT":619,"sideResp":1,"stimulus":[],"xmouse":[815,815,815,815,815,815,815,815,815,815,815,815,815,815,815,815,815,815,815,815,815,815,815,815,815,815,815,815,815,815,815,815,815,815,815,815,815,811,805,794,784,772,745,728,715,702,683,676,668,650,630,613,594,589,585,581,572,568,564,561,558,556,556,553,545,537,527,522,518,516,514],"ymouse":[489,489,489,489,489,489,489,489,489,489,489,489,489,489,489,489,489,489,489,489,489,489,489,489,489,489,489,489,489,489,489,489,489,489,489,489,489,485,477,465,450,433,394,371,353,334,305,296,286,270,256,243,224,215,205,197,183,178,173,169,166,164,162,159,154,149,141,130,117,102,88],"timestamp_mouse":[10,39,44,64,84,103,123,144,163,183,205,224,243,263,285,303,325,344,363,384,403,425,443,464,484,503,524,544,563,583,604,625,643,665,685,704,724,745,763,784,803,823,843,864,884,905,924,944,964,984,1003,1024,1043,1063,1084,1103,1123,1144,1163,1184,1205,1224,1244,1263,1285,1304,1323,1343,1363,1384,1403],"xSR":741.5,"ySR":469.95,"xT1":424.9,"yT1":0,"xT2":1058.1,"yT2":0,"toosoon":0,"cond_shown":"Congruent","ratio_trial":300,"L_num":4,"L_den":5,"R_num":2,"R_den":4,"correct_side":1,"subjID":"MIGUELBURGOSGIL33","gender":"0","school":"6","age":"12"},{"start_time":1551794121140,"click_time":1551794123192,"finger_time":1551794122312,"fix_duration":987.4567576098356,"trial":31,"RT":1172,"MT":880,"sideResp":2,"stimulus":[],"xmouse":[764,764,764,764,764,764,764,764,764,764,764,764,764,764,764,764,764,764,764,764,764,763,763,763,763,763,763,763,763,763,763,763,763,763,763,763,763,763,763,763,763,763,763,763,763,763,763,763,763,763,763,763,763,763,763,763,761,744,719,706,704,704,704,703,703,703,703,704,709,714,720,724,726,725,723,721,719,715,712,712,726,753,864,910,947,966,977,981,985,989,991,994,996,1001,1003,1007,1011,1027,1038,1044,1049,1053,1068],"ymouse":[553,553,553,553,553,553,553,553,553,553,553,553,553,553,553,553,553,553,553,553,553,553,553,553,553,553,553,553,553,553,553,553,553,553,553,553,553,553,553,553,553,553,553,553,553,553,553,553,553,553,553,553,553,553,553,553,553,543,527,520,519,519,519,518,514,510,507,496,484,472,463,453,441,437,433,430,427,421,404,391,373,347,276,239,218,208,203,200,198,195,192,188,185,177,172,164,156,133,119,113,108,106,99],"timestamp_mouse":[11,32,51,72,91,112,131,151,171,192,211,233,251,271,291,312,331,351,371,393,411,432,452,471,491,512,531,551,572,592,611,632,651,671,691,712,733,751,772,792,812,832,852,871,892,913,932,952,972,992,1012,1033,1052,1072,1091,1113,1132,1151,1172,1192,1212,1231,1251,1271,1291,1311,1331,1352,1371,1392,1411,1432,1451,1471,1492,1511,1532,1551,1572,1591,1611,1632,1651,1671,1691,1712,1731,1752,1771,1791,1811,1831,1851,1871,1891,1912,1933,1952,1972,1991,2012,2031,2052],"xSR":741.5,"ySR":469.95,"xT1":424.9,"yT1":0,"xT2":1058.1,"yT2":0,"toosoon":0,"cond_shown":"Incongruent","ratio_trial":200,"L_num":9,"L_den":15,"R_num":8,"R_den":10,"correct_side":2,"subjID":"MIGUELBURGOSGIL33","gender":"0","school":"6","age":"12"},{"start_time":1551794124887,"click_time":1551794126492,"finger_time":1551794126011,"fix_duration":593.3924804029209,"trial":32,"RT":1124,"MT":481,"sideResp":1,"stimulus":[],"xmouse":[820,820,820,820,820,820,820,820,820,820,820,820,820,820,820,820,820,820,820,820,820,820,820,820,820,820,820,820,820,820,820,820,820,820,820,820,820,820,820,820,820,820,820,820,820,820,820,820,820,820,820,820,820,818,807,780,732,691,654,634,613,609,605,598,581,558,555,553,550,545,525,513,499,487,477,471,469,467,465,462,462],"ymouse":[556,556,556,556,556,556,556,556,556,556,556,556,556,556,556,556,556,556,556,556,556,556,556,556,556,556,556,556,556,556,556,556,556,556,556,556,556,556,556,556,556,556,556,556,556,556,556,556,556,556,556,556,556,556,552,542,510,483,462,449,423,409,389,355,312,269,264,260,255,242,198,182,167,156,147,140,135,127,119,108,92],"timestamp_mouse":[11,39,44,64,84,104,124,145,164,185,204,225,244,264,284,305,326,344,364,386,404,426,445,464,484,506,524,545,565,585,605,624,646,664,685,704,725,744,764,784,805,825,845,865,885,904,924,944,965,985,1004,1024,1044,1065,1085,1105,1124,1144,1165,1184,1205,1225,1244,1266,1285,1305,1324,1344,1365,1384,1405,1424,1445,1466,1486,1504,1526,1545,1565,1586,1605],"xSR":741.5,"ySR":469.95,"xT1":424.9,"yT1":0,"xT2":1058.1,"yT2":0,"toosoon":0,"cond_shown":"Congruent","ratio_trial":200,"L_num":12,"L_den":20,"R_num":6,"R_den":15,"correct_side":1,"subjID":"MIGUELBURGOSGIL33","gender":"0","school":"6","age":"12"},{"start_time":1551794130736,"click_time":1551794132191,"finger_time":1551794131892,"fix_duration":1343.789784642653,"trial":33,"RT":1156,"MT":299,"sideResp":1,"stimulus":[],"xmouse":[757,757,757,757,757,757,757,757,757,757,757,757,757,757,757,757,757,757,757,757,757,757,757,757,757,757,757,757,757,757,757,757,757,757,757,757,757,757,757,757,757,757,757,757,757,757,757,757,757,757,757,757,757,757,756,756,755,734,714,674,626,588,551,539,528,515,505,485,473,465,459,454,451],"ymouse":[500,500,500,500,500,500,500,500,500,500,500,500,500,500,500,500,500,500,500,500,500,500,500,500,500,500,500,500,500,500,500,500,500,500,500,500,500,500,500,500,500,500,500,500,500,500,500,500,500,500,500,500,500,500,500,500,499,463,431,372,313,272,231,216,202,186,173,146,128,116,107,100,94],"timestamp_mouse":[19,38,56,75,96,116,135,156,175,197,217,235,255,275,296,316,336,355,375,396,417,436,455,476,496,517,536,556,576,595,616,636,657,677,696,716,737,755,776,796,816,835,855,876,895,916,937,956,976,995,1015,1035,1056,1075,1095,1115,1135,1156,1175,1195,1215,1235,1256,1275,1296,1315,1335,1356,1375,1395,1415,1435,1455],"xSR":741.5,"ySR":469.95,"xT1":424.9,"yT1":0,"xT2":1058.1,"yT2":0,"toosoon":0,"cond_shown":"Incongruent","ratio_trial":100,"L_num":17,"L_den":30,"R_num":10,"R_den":15,"correct_side":2,"subjID":"MIGUELBURGOSGIL33","gender":"0","school":"6","age":"12"},{"start_time":1551794134532,"click_time":1551794135891,"finger_time":1551794135452,"fix_duration":1319.5099316961903,"trial":34,"RT":920,"MT":439,"sideResp":2,"stimulus":[],"xmouse":[776,776,777,777,779,780,780,780,780,780,780,780,780,780,780,780,780,780,780,780,780,780,780,780,780,780,780,780,780,780,780,780,780,780,780,780,780,780,780,780,780,780,780,780,780,785,793,805,855,877,897,920,942,982,998,1009,1016,1022,1049,1062,1074,1084,1093,1103,1104,1105,1105,1107,1108],"ymouse":[478,478,477,477,476,475,475,475,475,475,475,475,475,475,475,475,475,475,475,475,475,475,475,475,475,475,475,475,475,475,475,475,475,475,475,475,475,475,475,475,475,475,475,475,475,472,468,459,412,388,362,330,297,239,215,199,188,181,151,139,130,122,115,110,109,107,105,103,99],"timestamp_mouse":[1,19,42,59,79,101,121,141,161,179,199,220,241,259,280,299,320,340,359,380,399,420,439,459,479,500,519,541,559,580,601,619,639,660,679,699,719,739,759,781,800,820,839,859,879,900,920,940,960,980,999,1019,1039,1060,1079,1099,1119,1140,1159,1180,1199,1219,1239,1260,1279,1300,1319,1339,1359],"xSR":741.5,"ySR":469.95,"xT1":424.9,"yT1":0,"xT2":1058.1,"yT2":0,"toosoon":0,"cond_shown":"Congruent","ratio_trial":100,"L_num":2,"L_den":5,"R_num":11,"R_den":22,"correct_side":2,"subjID":"MIGUELBURGOSGIL33","gender":"0","school":"6","age":"12"},{"start_time":1551794138664,"click_time":1551794140451,"finger_time":1551794140191,"fix_duration":250,"trial":35,"RT":1527,"MT":260,"sideResp":2,"stimulus":[],"xmouse":[752,752,752,752,752,752,752,752,752,752,752,752,752,752,752,752,752,752,752,752,752,752,752,752,752,752,752,752,752,752,752,752,752,752,752,752,752,752,752,752,752,752,752,752,752,752,752,752,752,752,752,752,752,752,752,752,751,751,751,751,751,751,751,751,751,751,751,751,751,751,751,751,751,751,750,750,761,762,764,764,764,764,766,773,794,844,898,1001,1053,1090],"ymouse":[519,519,519,519,519,519,519,519,519,519,519,519,519,519,519,519,519,519,519,519,519,519,519,519,519,519,519,519,519,519,519,519,519,519,519,519,519,519,519,519,519,519,519,519,519,519,519,519,519,519,519,519,519,519,519,519,519,519,519,519,519,519,519,519,519,519,519,519,519,519,519,519,519,519,502,487,455,452,449,449,449,448,446,438,412,355,296,166,94,40],"timestamp_mouse":[9,27,47,67,87,107,127,149,167,187,208,228,248,267,287,307,328,347,367,387,407,427,447,469,487,507,527,548,567,587,608,629,647,667,688,707,728,749,767,787,809,828,848,869,887,908,927,949,967,989,1007,1027,1047,1068,1088,1109,1128,1148,1168,1188,1209,1227,1248,1267,1288,1309,1327,1348,1368,1389,1407,1427,1448,1469,1488,1508,1527,1547,1567,1587,1607,1628,1648,1667,1687,1708,1728,1747,1768,1787],"xSR":741.5,"ySR":469.95,"xT1":424.9,"yT1":0,"xT2":1058.1,"yT2":0,"toosoon":0,"cond_shown":"Congruent","ratio_trial":200,"L_num":8,"L_den":15,"R_num":7,"R_den":21,"correct_side":1,"subjID":"MIGUELBURGOSGIL33","gender":"0","school":"6","age":"12"},{"start_time":1551794141749,"click_time":1551794143051,"finger_time":1551794142553,"fix_duration":555.9858202079472,"trial":36,"RT":804,"MT":498,"sideResp":1,"stimulus":[],"xmouse":[750,750,750,750,750,750,750,750,750,750,750,750,750,750,750,750,750,750,750,750,750,750,750,750,750,750,750,750,750,750,750,750,751,755,764,775,781,791,794,788,772,750,725,694,682,673,663,651,605,593,584,580,579,578,577,575,573,565,555,548,542,535,530,528,525,523],"ymouse":[551,551,551,551,551,551,551,551,551,551,551,551,551,551,551,551,551,551,551,551,551,551,551,551,551,551,551,551,551,551,551,551,551,550,546,541,537,522,495,473,448,421,396,359,341,323,308,289,221,200,181,172,167,158,152,145,137,117,95,81,70,60,49,47,45,44],"timestamp_mouse":[10,24,42,62,82,102,122,142,162,182,203,222,243,262,282,302,322,343,363,382,404,422,443,463,483,503,524,542,562,582,602,623,643,662,682,703,723,743,764,782,804,823,843,862,882,903,923,942,962,982,1002,1022,1042,1062,1083,1102,1123,1142,1162,1183,1202,1224,1243,1262,1284,1302],"xSR":741.5,"ySR":469.95,"xT1":424.9,"yT1":0,"xT2":1058.1,"yT2":0,"toosoon":0,"cond_shown":"Incongruent","ratio_trial":300,"L_num":4,"L_den":20,"R_num":2,"R_den":4,"correct_side":2,"subjID":"MIGUELBURGOSGIL33","gender":"0","school":"6","age":"12"},{"start_time":1551794144314,"click_time":1551794145252,"finger_time":1551794144791,"fix_duration":522.7307150239013,"trial":37,"RT":477,"MT":461,"sideResp":2,"stimulus":[],"xmouse":[761,761,761,761,761,761,761,761,761,763,768,769,769,769,772,774,780,792,809,811,814,818,824,834,875,916,946,975,1056,1077,1091,1096,1097,1097,1097,1097,1097,1097,1095,1094,1093,1093,1092,1092,1096,1114,1133],"ymouse":[524,524,524,524,524,524,524,524,524,524,523,522,522,522,522,522,519,509,494,491,487,482,475,463,427,391,358,321,208,177,159,150,149,148,148,146,142,137,131,127,124,123,121,120,115,104,93],"timestamp_mouse":[31,38,57,77,97,117,137,158,177,198,217,238,257,277,297,317,338,358,378,397,419,439,457,477,497,517,537,558,578,598,617,639,657,678,697,717,737,758,778,798,818,837,858,878,897,917,937],"xSR":741.5,"ySR":469.95,"xT1":424.9,"yT1":0,"xT2":1058.1,"yT2":0,"toosoon":0,"cond_shown":"Incongruent","ratio_trial":200,"L_num":14,"L_den":30,"R_num":12,"R_den":18,"correct_side":2,"subjID":"MIGUELBURGOSGIL33","gender":"0","school":"6","age":"12"},{"start_time":1551794147091,"click_time":1551794148311,"finger_time":1551794147811,"fix_duration":819.7840239681129,"trial":38,"RT":720,"MT":500,"sideResp":1,"stimulus":[],"xmouse":[800,800,800,800,800,800,800,800,800,800,800,800,800,800,800,800,800,800,800,800,800,800,800,800,798,795,795,795,795,794,793,789,777,767,754,749,750,751,751,745,731,730,729,727,717,702,636,562,480,403,352,334,333,332,332,332,334,340,349,371,383,446],"ymouse":[536,536,536,536,536,536,536,536,536,536,536,536,536,536,536,536,536,536,536,536,536,536,536,536,537,538,538,538,538,536,536,530,516,507,495,477,467,459,451,438,418,416,414,409,393,376,319,280,236,193,163,147,144,139,132,126,112,103,93,84,80,76],"timestamp_mouse":[8,33,41,60,80,100,120,140,160,182,200,220,241,261,280,300,320,341,361,382,400,421,440,461,480,501,520,542,560,581,601,620,640,661,680,701,720,740,761,781,801,820,840,861,881,901,920,940,961,982,1001,1020,1040,1061,1081,1100,1120,1141,1161,1180,1200,1220],"xSR":741.5,"ySR":469.95,"xT1":424.9,"yT1":0,"xT2":1058.1,"yT2":0,"toosoon":0,"cond_shown":"Congruent","ratio_trial":300,"L_num":11,"L_den":22,"R_num":1,"R_den":5,"correct_side":1,"subjID":"MIGUELBURGOSGIL33","gender":"0","school":"6","age":"12"},{"start_time":1551794149912,"click_time":1551794151431,"finger_time":1551794150952,"fix_duration":398.5799412570551,"trial":39,"RT":1040,"MT":479,"sideResp":2,"stimulus":[],"xmouse":[823,823,823,823,823,823,823,823,823,823,823,823,823,823,823,823,823,823,823,823,823,823,823,823,823,823,823,823,823,823,823,823,823,823,823,823,823,823,823,823,823,823,823,823,823,823,823,823,823,823,830,838,852,865,877,897,906,913,921,932,935,937,940,944,952,967,979,995,1007,1034,1052,1059,1063,1063,1067,1068,1072],"ymouse":[508,508,508,508,508,508,508,508,508,508,508,508,508,508,508,508,508,508,508,508,508,508,508,508,508,508,508,508,508,508,508,508,508,508,508,508,508,508,508,508,508,508,508,508,508,508,508,508,508,508,493,472,449,426,404,370,355,342,330,315,312,309,306,300,292,272,258,239,224,185,161,148,135,126,109,103,91],"timestamp_mouse":[1,32,39,60,79,100,119,140,160,179,201,219,239,260,280,300,320,339,360,380,399,419,440,461,479,500,520,539,560,579,600,620,640,661,680,700,720,739,759,780,800,821,840,859,880,901,920,939,959,979,1000,1019,1040,1060,1079,1099,1119,1140,1159,1181,1199,1219,1240,1260,1279,1299,1319,1340,1360,1380,1399,1419,1440,1459,1480,1499,1519],"xSR":741.5,"ySR":469.95,"xT1":424.9,"yT1":0,"xT2":1058.1,"yT2":0,"toosoon":0,"cond_shown":"Congruent","ratio_trial":100,"L_num":11,"L_den":22,"R_num":6,"R_den":15,"correct_side":1,"subjID":"MIGUELBURGOSGIL33","gender":"0","school":"6","age":"12"},{"start_time":1551794152544,"click_time":1551794154131,"finger_time":1551794153672,"fix_duration":250,"trial":40,"RT":1128,"MT":459,"sideResp":1,"stimulus":[],"xmouse":[814,814,814,814,814,814,814,814,814,814,814,814,814,814,814,814,814,814,814,814,814,814,814,814,814,814,814,814,814,814,814,814,814,814,814,814,814,814,814,814,814,814,814,814,814,814,814,814,814,814,814,814,803,793,775,751,730,688,680,675,671,669,662,654,648,641,633,625,600,598,597,597,596,593,586,578,567,547,517,505],"ymouse":[549,549,549,549,549,549,549,549,549,549,549,549,549,549,549,549,549,549,549,549,549,549,549,549,549,549,549,549,549,549,549,549,549,549,549,549,549,549,549,549,549,549,549,549,549,549,549,549,549,549,549,549,551,551,538,515,489,429,416,409,403,399,370,345,322,299,274,251,207,202,202,201,198,193,185,175,162,142,112,96],"timestamp_mouse":[20,37,47,68,87,107,127,147,167,189,207,228,247,267,287,308,327,347,367,387,407,427,447,468,488,507,527,548,567,587,609,627,649,667,688,708,727,747,768,788,808,828,849,868,888,909,927,947,968,987,1007,1027,1047,1067,1088,1107,1128,1147,1168,1187,1207,1227,1248,1267,1287,1307,1328,1348,1368,1387,1407,1427,1448,1467,1487,1509,1528,1547,1567,1587],"xSR":741.5,"ySR":469.95,"xT1":424.9,"yT1":0,"xT2":1058.1,"yT2":0,"toosoon":0,"cond_shown":"Incongruent","ratio_trial":200,"L_num":14,"L_den":30,"R_num":12,"R_den":18,"correct_side":2,"subjID":"MIGUELBURGOSGIL33","gender":"0","school":"6","age":"12"},{"start_time":1551794155560,"click_time":1551794156372,"finger_time":1551794155992,"fix_duration":367.4866651008749,"trial":41,"RT":432,"MT":380,"sideResp":1,"stimulus":[],"xmouse":[767,767,767,767,767,767,767,767,767,767,767,767,767,767,767,767,767,767,768,792,834,877,885,887,888,888,888,888,888,888,888,887,842,800,744,672,611,512,484,468,459],"ymouse":[539,539,539,539,539,539,539,539,539,539,539,539,539,539,539,539,539,539,537,510,470,433,426,424,424,423,423,423,423,423,422,420,379,348,314,275,240,165,133,107,85],"timestamp_mouse":[11,31,52,72,91,111,131,152,172,191,211,231,251,271,291,311,331,352,371,392,412,432,451,471,491,513,533,551,572,592,611,632,651,671,691,712,731,752,771,791,812],"xSR":741.5,"ySR":469.95,"xT1":424.9,"yT1":0,"xT2":1058.1,"yT2":0,"toosoon":0,"cond_shown":"Congruent","ratio_trial":200,"L_num":21,"L_den":30,"R_num":2,"R_den":4,"correct_side":1,"subjID":"MIGUELBURGOSGIL33","gender":"0","school":"6","age":"12"},{"start_time":1551794158123,"click_time":1551794159131,"finger_time":1551794158751,"fix_duration":451.8519797363767,"trial":42,"RT":628,"MT":380,"sideResp":2,"stimulus":[],"xmouse":[802,802,802,802,802,802,802,802,802,802,802,802,802,802,802,802,802,802,802,802,802,802,802,802,802,802,802,803,808,819,834,853,870,892,952,966,983,996,1013,1015,1017,1023,1029,1042,1047,1051,1056,1059,1061,1069,1075],"ymouse":[533,533,533,533,533,533,533,533,533,533,533,533,533,533,533,533,533,533,533,533,533,533,533,533,533,533,533,533,530,518,506,491,475,454,388,364,326,287,225,218,209,195,181,153,143,131,124,119,114,104,99],"timestamp_mouse":[10,35,48,69,89,110,128,150,168,189,209,229,249,268,288,308,328,349,369,389,408,429,448,468,489,509,528,548,568,589,608,628,648,668,688,709,729,748,769,789,808,829,848,868,888,909,929,948,968,988,1008],"xSR":741.5,"ySR":469.95,"xT1":424.9,"yT1":0,"xT2":1058.1,"yT2":0,"toosoon":0,"cond_shown":"Congruent","ratio_trial":200,"L_num":7,"L_den":15,"R_num":18,"R_den":27,"correct_side":2,"subjID":"MIGUELBURGOSGIL33","gender":"0","school":"6","age":"12"},{"start_time":1551794160492,"click_time":1551794162211,"finger_time":1551794161552,"fix_duration":260.2388931560008,"trial":43,"RT":1060,"MT":659,"sideResp":2,"stimulus":[],"xmouse":[817,817,818,819,819,820,821,821,821,821,822,822,822,822,823,823,823,823,823,823,823,823,823,823,823,823,823,823,823,823,823,823,823,823,823,823,823,823,823,823,823,823,823,823,823,823,823,823,823,820,806,790,772,756,750,750,750,750,750,750,750,750,750,750,750,750,750,751,761,800,945,997,1044,1072,1101,1107,1108,1109,1109,1111,1111,1111,1111,1107,1083,1078],"ymouse":[503,503,502,501,500,498,498,497,496,496,495,495,495,495,494,494,494,494,494,494,494,494,494,494,494,494,494,494,494,494,494,494,494,494,494,494,494,494,494,494,494,494,494,494,494,494,494,494,494,494,494,480,463,453,450,449,449,449,449,449,449,449,449,449,449,449,449,447,443,425,357,320,276,238,184,172,168,166,163,160,158,155,149,138,104,97],"timestamp_mouse":[37,39,60,79,99,119,139,159,179,199,219,241,259,279,299,319,339,359,379,399,419,441,459,479,501,519,540,561,579,599,620,639,659,679,701,720,741,760,781,799,819,839,861,879,900,919,940,959,979,999,1020,1039,1060,1079,1099,1119,1139,1159,1179,1199,1220,1239,1259,1279,1300,1320,1339,1359,1379,1399,1419,1439,1460,1480,1499,1519,1539,1560,1580,1599,1619,1639,1659,1679,1699,1719],"xSR":741.5,"ySR":469.95,"xT1":424.9,"yT1":0,"xT2":1058.1,"yT2":0,"toosoon":0,"cond_shown":"Incongruent","ratio_trial":200,"L_num":9,"L_den":15,"R_num":8,"R_den":10,"correct_side":2,"subjID":"MIGUELBURGOSGIL33","gender":"0","school":"6","age":"12"},{"start_time":1551794164782,"click_time":1551794166393,"finger_time":1551794166211,"fix_duration":1348.449563141491,"trial":44,"RT":1429,"MT":182,"sideResp":1,"stimulus":[],"xmouse":[780,780,780,780,780,780,780,780,780,780,780,780,780,780,780,780,780,780,780,780,780,780,780,780,780,780,780,780,780,780,780,780,780,780,780,780,780,780,780,780,780,780,780,780,780,780,780,780,780,780,780,780,780,780,780,780,780,780,780,780,780,780,780,780,780,780,780,780,780,780,781,754,709,660,617,582,565,560,553,541,505],"ymouse":[498,498,498,498,498,498,498,498,498,498,498,498,498,498,498,498,498,498,498,498,498,498,498,498,498,498,498,498,498,498,498,498,498,498,498,498,498,498,498,498,498,498,498,498,498,498,498,498,498,498,498,498,498,498,498,498,498,498,498,498,498,498,498,498,498,498,498,498,498,498,494,446,371,295,235,183,148,139,126,108,80],"timestamp_mouse":[10,42,49,69,89,109,130,149,170,189,209,231,249,269,291,309,329,351,369,389,409,430,450,469,489,509,529,550,570,589,611,629,649,669,689,709,731,750,770,790,809,829,849,869,891,910,929,950,970,991,1010,1030,1051,1070,1089,1109,1129,1149,1171,1190,1209,1229,1250,1269,1291,1310,1331,1350,1370,1389,1409,1429,1449,1470,1490,1509,1529,1549,1570,1589,1610],"xSR":741.5,"ySR":469.95,"xT1":424.9,"yT1":0,"xT2":1058.1,"yT2":0,"toosoon":0,"cond_shown":"Incongruent","ratio_trial":200,"L_num":4,"L_den":5,"R_num":6,"R_den":10,"correct_side":1,"subjID":"MIGUELBURGOSGIL33","gender":"0","school":"6","age":"12"},{"start_time":1551794169400,"click_time":1551794170892,"finger_time":1551794170551,"fix_duration":1187.4486214091178,"trial":45,"RT":1151,"MT":341,"sideResp":1,"stimulus":[],"xmouse":[796,796,796,796,796,796,796,796,796,796,796,796,796,796,796,796,796,796,796,796,796,796,796,796,796,796,796,796,796,796,796,796,796,796,796,796,796,796,796,796,796,796,796,796,796,796,796,796,796,796,796,796,796,796,796,796,795,782,744,672,650,627,613,601,573,547,539,536,535,532,531,530,530,527,519],"ymouse":[492,492,492,492,492,492,492,492,492,492,492,492,492,492,492,492,492,492,492,492,492,492,492,492,492,492,492,492,492,492,492,492,492,492,492,492,492,492,492,492,492,492,492,492,492,492,492,492,492,492,492,492,492,492,492,492,491,467,412,335,311,282,262,242,199,157,143,135,130,118,114,110,105,96,76],"timestamp_mouse":[12,38,52,72,91,111,132,151,171,192,213,232,251,271,292,311,332,352,372,393,412,432,453,472,492,512,532,552,572,591,612,632,652,672,692,713,732,752,771,793,812,832,852,872,892,911,932,951,971,993,1011,1032,1051,1073,1091,1112,1131,1151,1171,1192,1211,1231,1251,1271,1291,1311,1331,1351,1372,1391,1411,1432,1452,1472,1491],"xSR":741.5,"ySR":469.95,"xT1":424.9,"yT1":0,"xT2":1058.1,"yT2":0,"toosoon":0,"cond_shown":"Incongruent","ratio_trial":300,"L_num":8,"L_den":10,"R_num":14,"R_den":28,"correct_side":1,"subjID":"MIGUELBURGOSGIL33","gender":"0","school":"6","age":"12"},{"start_time":1551794173969,"click_time":1551794175292,"finger_time":1551794174931,"fix_duration":1455.7642636180733,"trial":46,"RT":962,"MT":361,"sideResp":1,"stimulus":[],"xmouse":[810,810,810,810,810,810,810,810,810,810,810,810,810,810,810,810,810,810,810,810,810,810,810,810,810,810,810,810,810,810,810,810,810,810,810,810,810,810,810,810,810,810,810,810,810,810,810,799,780,751,712,659,651,644,635,624,585,566,549,532,518,492,481,469,458,450,440],"ymouse":[486,486,486,486,486,486,486,486,486,486,486,486,486,486,486,486,486,486,486,486,486,486,486,486,486,486,486,486,486,486,486,486,486,486,486,486,486,486,486,486,486,486,486,486,486,486,486,482,466,446,418,376,366,354,341,325,278,257,238,215,195,160,145,132,118,109,92],"timestamp_mouse":[10,39,44,62,82,102,123,143,164,182,202,223,244,262,282,303,322,342,363,382,403,422,442,464,482,504,522,543,563,582,602,623,642,662,682,702,724,742,762,784,802,822,842,863,883,902,922,943,962,982,1003,1023,1042,1062,1082,1103,1123,1142,1162,1182,1203,1223,1242,1263,1283,1303,1322],"xSR":741.5,"ySR":469.95,"xT1":424.9,"yT1":0,"xT2":1058.1,"yT2":0,"toosoon":0,"cond_shown":"Congruent","ratio_trial":300,"L_num":12,"L_den":24,"R_num":2,"R_den":10,"correct_side":1,"subjID":"MIGUELBURGOSGIL33","gender":"0","school":"6","age":"12"},{"start_time":1551794177760,"click_time":1551794179353,"finger_time":1551794179073,"fix_duration":1487.0012656842707,"trial":47,"RT":1313,"MT":280,"sideResp":1,"stimulus":[],"xmouse":[768,768,768,768,768,768,768,768,768,768,768,768,768,768,768,768,768,768,768,768,768,768,768,768,768,768,768,768,768,768,768,768,768,768,768,768,768,768,768,768,768,768,768,768,768,768,768,768,768,768,768,768,768,768,768,768,768,768,768,768,768,768,768,764,748,721,589,551,521,504,495,479,472,468,467,467,467,467,468,470],"ymouse":[520,520,520,520,520,520,520,520,520,520,520,520,520,520,520,520,520,520,520,520,520,520,520,520,520,520,520,520,520,520,520,520,520,520,520,520,520,520,520,520,520,520,520,520,520,520,520,520,520,520,520,520,520,520,520,520,520,520,520,520,520,520,520,502,475,441,292,235,188,159,143,119,111,104,103,103,103,102,100,98],"timestamp_mouse":[19,35,53,72,91,111,132,151,171,191,211,231,252,272,291,313,332,351,372,393,411,432,452,471,491,511,531,553,572,592,611,631,651,671,691,713,731,751,772,791,811,831,851,871,893,913,933,952,972,992,1012,1031,1053,1071,1092,1112,1133,1151,1172,1192,1211,1232,1251,1272,1291,1313,1332,1351,1371,1391,1411,1433,1451,1471,1491,1511,1531,1551,1571,1593],"xSR":741.5,"ySR":469.95,"xT1":424.9,"yT1":0,"xT2":1058.1,"yT2":0,"toosoon":0,"cond_shown":"Congruent","ratio_trial":300,"L_num":3,"L_den":6,"R_num":2,"R_den":10,"correct_side":1,"subjID":"MIGUELBURGOSGIL33","gender":"0","school":"6","age":"12"},{"start_time":1551794180520,"click_time":1551794181951,"finger_time":1551794181631,"fix_duration":267.9430525797937,"trial":48,"RT":1111,"MT":320,"sideResp":2,"stimulus":[],"xmouse":[753,753,753,753,753,753,753,753,753,753,753,753,753,753,753,753,753,753,753,753,753,753,753,753,753,753,753,753,753,753,753,753,753,753,753,753,753,753,753,753,753,753,753,753,753,753,753,753,753,753,753,753,753,759,816,876,925,962,992,992,992,993,999,1042,1070,1088,1094,1094,1094,1094,1094,1094],"ymouse":[530,530,530,530,530,530,530,530,530,530,530,530,530,530,530,530,530,530,530,530,530,530,530,530,530,530,530,530,530,530,530,530,530,530,530,530,530,530,530,530,530,530,530,530,530,530,530,530,530,530,530,530,530,530,530,530,530,528,524,524,523,522,508,406,326,269,228,200,141,122,103,85],"timestamp_mouse":[11,39,53,72,92,111,131,151,171,193,211,232,252,271,291,311,331,351,371,391,412,431,453,471,492,513,531,553,572,593,611,631,651,671,691,711,733,752,771,791,811,831,851,872,891,911,931,952,972,991,1011,1032,1051,1071,1091,1111,1131,1152,1171,1192,1211,1232,1251,1271,1291,1311,1331,1351,1372,1392,1411,1431],"xSR":741.5,"ySR":469.95,"xT1":424.9,"yT1":0,"xT2":1058.1,"yT2":0,"toosoon":0,"cond_shown":"Congruent","ratio_trial":300,"L_num":4,"L_den":20,"R_num":13,"R_den":26,"correct_side":2,"subjID":"MIGUELBURGOSGIL33","gender":"0","school":"6","age":"12"},{"start_time":1551794184502,"click_time":1551794186192,"finger_time":1551794185891,"fix_duration":250,"trial":49,"RT":1389,"MT":301,"sideResp":2,"stimulus":[],"xmouse":[760,760,760,760,760,760,760,760,760,760,760,760,760,760,760,760,760,760,760,760,760,760,760,760,760,760,760,760,760,760,760,760,760,760,760,760,760,760,760,760,760,760,760,760,760,760,760,760,760,760,760,760,760,760,760,760,760,760,760,760,760,760,760,760,760,760,760,761,771,883,990,1070,1129,1155,1167,1167,1167,1167,1167,1167,1167,1163,1156,1146,1113],"ymouse":[533,533,533,533,533,533,533,533,533,533,533,533,533,533,533,533,533,533,533,533,533,533,533,533,533,533,533,533,533,533,533,533,533,533,533,533,533,533,533,533,533,533,533,533,533,533,533,533,533,533,533,533,533,533,533,533,533,533,533,533,533,533,533,533,533,533,533,533,526,460,413,365,332,311,286,278,270,265,260,243,224,203,182,159,97],"timestamp_mouse":[14,38,49,69,90,109,129,149,169,189,209,229,250,270,289,310,330,349,369,389,409,430,449,469,489,509,530,549,570,589,610,629,649,669,690,709,730,750,771,790,811,830,850,869,890,911,929,950,969,990,1010,1030,1049,1071,1089,1110,1130,1149,1169,1189,1209,1229,1250,1269,1289,1309,1329,1349,1369,1389,1410,1429,1449,1469,1490,1509,1529,1549,1569,1589,1609,1629,1649,1669,1690],"xSR":741.5,"ySR":469.95,"xT1":424.9,"yT1":0,"xT2":1058.1,"yT2":0,"toosoon":0,"cond_shown":"Incongruent","ratio_trial":100,"L_num":10,"L_den":25,"R_num":8,"R_den":16,"correct_side":2,"subjID":"MIGUELBURGOSGIL33","gender":"0","school":"6","age":"12"},{"start_time":1551794187243,"click_time":1551794188571,"finger_time":1551794187911,"fix_duration":250,"trial":50,"RT":668,"MT":660,"sideResp":2,"stimulus":[],"xmouse":[775,775,775,775,775,775,775,775,775,775,775,775,775,775,775,775,775,775,775,775,775,775,775,775,775,775,775,775,775,775,782,787,797,829,841,857,873,889,914,925,933,941,962,972,981,989,998,1018,1029,1037,1040,1043,1045,1046,1046,1046,1046,1046,1046,1046,1047,1049,1052,1053,1055,1056,1062],"ymouse":[522,522,522,522,522,522,522,522,522,522,522,522,522,522,522,522,522,522,522,522,522,522,522,522,522,522,522,522,522,522,512,508,496,451,428,399,366,336,287,267,250,233,188,170,150,131,111,76,61,52,47,43,41,41,41,41,41,41,41,41,41,41,41,41,41,41,41],"timestamp_mouse":[10,33,48,69,89,108,128,148,169,189,209,229,248,268,288,308,329,348,368,388,409,428,448,470,489,509,529,548,569,588,608,629,648,668,688,708,728,749,768,788,808,828,849,868,888,909,929,949,968,988,1009,1029,1048,1068,1088,1109,1128,1149,1169,1188,1208,1229,1249,1269,1288,1308,1328],"xSR":741.5,"ySR":469.95,"xT1":424.9,"yT1":0,"xT2":1058.1,"yT2":0,"toosoon":0,"cond_shown":"Incongruent","ratio_trial":100,"L_num":2,"L_den":4,"R_num":6,"R_den":15,"correct_side":1,"subjID":"MIGUELBURGOSGIL33","gender":"0","school":"6","age":"12"},{"start_time":1551794190338,"click_time":1551794191772,"finger_time":1551794191471,"fix_duration":944.567933522852,"trial":51,"RT":1133,"MT":301,"sideResp":1,"stimulus":[],"xmouse":[821,821,821,821,821,821,821,821,821,821,821,821,821,821,821,821,821,821,821,821,821,821,821,821,821,821,821,821,821,821,821,821,821,821,821,821,821,821,821,821,821,821,821,821,821,821,821,821,821,821,821,821,821,821,815,805,780,730,715,710,706,701,693,677,668,658,644,599,581,563,539,513],"ymouse":[514,514,514,514,514,514,514,514,514,514,514,514,514,514,514,514,514,514,514,514,514,514,514,514,514,514,514,514,514,514,514,514,514,514,514,514,514,514,514,514,514,514,514,514,514,514,514,514,514,514,514,514,514,514,501,487,458,399,379,371,362,349,332,298,280,263,243,190,168,147,118,82],"timestamp_mouse":[14,34,54,75,94,113,133,153,173,195,213,234,253,273,294,313,333,354,373,393,413,433,453,473,493,514,533,553,575,593,614,634,654,673,694,713,734,753,773,794,813,833,854,873,893,913,933,954,974,993,1014,1033,1053,1073,1093,1114,1133,1154,1173,1193,1214,1234,1253,1273,1294,1314,1334,1354,1373,1393,1413,1434],"xSR":741.5,"ySR":469.95,"xT1":424.9,"yT1":0,"xT2":1058.1,"yT2":0,"toosoon":0,"cond_shown":"Incongruent","ratio_trial":300,"L_num":4,"L_den":20,"R_num":2,"R_den":4,"correct_side":2,"subjID":"MIGUELBURGOSGIL33","gender":"0","school":"6","age":"12"},{"start_time":1551794193665,"click_time":1551794197252,"finger_time":1551794196811,"fix_duration":771.1503321765309,"trial":52,"RT":3146,"MT":441,"sideResp":2,"stimulus":[],"xmouse":[773,773,773,773,773,773,773,773,773,773,773,773,773,773,773,773,773,773,773,773,773,773,773,773,773,773,773,773,773,773,773,773,773,773,773,773,773,773,773,773,773,773,773,773,773,773,773,773,773,773,773,773,773,773,773,773,773,773,773,773,773,773,773,773,773,773,773,773,773,773,773,773,773,773,773,773,773,773,773,773,773,773,773,773,773,773,773,773,773,773,773,773,773,773,773,773,773,773,773,773,773,773,773,773,773,773,773,773,773,773,773,773,774,777,780,782,783,786,787,788,788,788,788,788,788,788,788,788,788,788,788,788,788,788,788,788,788,788,788,788,788,788,788,788,788,788,788,788,788,788,788,788,788,788,788,788,795,826,863,896,934,945,970,982,987,993,999,1002,1005,1007,1011,1013,1016,1017,1021,1025,1039,1046,1058,1072],"ymouse":[488,488,488,488,488,488,488,488,488,488,488,488,488,488,488,488,488,488,488,488,488,488,488,488,488,488,488,488,488,488,488,488,488,488,488,488,488,488,488,488,488,488,488,488,488,488,488,488,488,488,488,488,488,488,488,488,488,488,488,488,488,488,488,488,488,488,488,488,488,488,488,488,488,488,488,488,488,488,488,488,488,488,488,488,488,488,488,488,488,488,488,488,488,488,488,488,488,488,488,488,488,488,488,488,488,488,488,488,488,488,488,488,488,499,506,512,518,525,528,529,530,530,530,530,530,530,530,530,530,530,530,530,530,530,530,530,530,530,530,530,530,530,530,530,530,530,530,530,530,530,530,530,530,530,530,530,524,467,393,318,235,218,178,159,154,147,139,136,132,129,125,123,118,117,114,111,102,97,92,86],"timestamp_mouse":[11,33,46,67,86,106,126,147,167,187,206,227,246,267,287,307,326,346,367,386,407,426,446,467,486,506,528,547,567,588,607,626,647,667,686,707,726,747,766,786,806,828,847,867,886,907,926,947,968,988,1007,1027,1047,1066,1087,1106,1126,1146,1167,1187,1206,1226,1246,1266,1287,1306,1326,1347,1366,1386,1406,1426,1447,1466,1486,1507,1528,1548,1567,1586,1607,1626,1646,1666,1686,1706,1726,1746,1766,1786,1806,1826,1846,1866,1886,1906,1926,1947,1966,1987,2006,2027,2046,2066,2086,2106,2126,2147,2168,2186,2206,2227,2246,2266,2287,2306,2326,2346,2367,2387,2407,2427,2447,2467,2487,2506,2526,2546,2567,2587,2606,2626,2647,2667,2686,2706,2726,2747,2768,2786,2807,2827,2846,2867,2886,2906,2927,2947,2967,2986,3006,3026,3047,3067,3087,3107,3126,3146,3166,3187,3207,3226,3247,3266,3286,3306,3327,3346,3366,3386,3407,3426,3446,3466,3487,3506,3527,3546,3566,3587],"xSR":741.5,"ySR":469.95,"xT1":424.9,"yT1":0,"xT2":1058.1,"yT2":0,"toosoon":0,"cond_shown":"Congruent","ratio_trial":100,"L_num":3,"L_den":20,"R_num":4,"R_den":16,"correct_side":2,"subjID":"MIGUELBURGOSGIL33","gender":"0","school":"6","age":"12"},{"start_time":1551794199377,"click_time":1551794201331,"finger_time":1551794200991,"fix_duration":903.876314578785,"trial":53,"RT":1614,"MT":340,"sideResp":1,"stimulus":[],"xmouse":[779,779,779,779,779,780,780,780,780,780,780,780,780,780,780,780,780,780,780,780,780,780,780,780,780,780,780,780,780,780,780,780,780,780,780,780,780,780,780,780,780,780,780,780,780,780,780,780,780,780,780,780,780,780,780,780,780,780,780,780,780,780,780,780,780,780,780,780,780,780,780,780,781,782,784,785,785,784,782,779,756,726,672,600,526,426,418,414,412,412,412,412,412,412,412,412,426,440],"ymouse":[527,527,527,527,527,527,527,527,527,527,527,527,527,527,527,527,527,527,527,527,527,527,527,527,527,527,527,527,527,527,527,527,52