[{"start_time":1551886967026,"click_time":1551886968593,"finger_time":1551886968213,"fix_duration":545.3258907749113,"trial":0,"RT":1187,"MT":380,"sideResp":2,"stimulus":[],"xmouse":[788,788,788,788,788,788,788,788,787,787,786,785,785,785,785,785,785,785,785,785,785,785,785,785,785,785,785,785,785,785,785,785,785,785,785,785,784,784,784,784,784,784,784,784,784,784,784,784,784,784,784,784,784,784,784,784,784,784,788,793,799,805,810,810,810,811,814,833,857,887,904,892,843,840,840,842,851,1014,1083],"ymouse":[528,528,528,528,528,528,528,528,527,527,527,527,527,527,527,527,527,527,527,527,527,527,527,527,526,526,526,526,526,526,526,526,526,526,526,526,525,525,525,525,525,525,525,525,525,525,525,525,525,525,525,525,525,525,525,525,524,521,510,500,489,477,467,465,465,463,459,420,377,322,257,207,131,125,125,125,126,54,15],"timestamp_mouse":[10,36,48,68,88,106,128,148,167,188,206,226,248,267,288,306,328,348,367,387,408,427,448,468,487,507,528,546,568,588,608,627,647,667,688,708,728,747,767,787,808,828,847,867,888,908,928,947,966,988,1008,1028,1047,1067,1087,1107,1127,1147,1168,1187,1207,1228,1248,1267,1288,1307,1328,1348,1367,1387,1407,1426,1448,1466,1487,1507,1527,1548,1566],"xSR":741.5,"ySR":469.95,"xT1":424.9,"yT1":0,"xT2":1058.1,"yT2":0,"toosoon":0,"cond_shown":"Incongruent","ratio_trial":200,"L_num":1,"L_den":2,"R_num":3,"R_den":10,"correct_side":1,"subjID":"nataliacorrealcaceres3","gender":" 1","age":" 11","school":" sexto","test":{"fix_dur":[250,1500],"timestim":1000,"targets_dim":[100,100],"targets_relative_coord":[0.3,0.7],"size_stim":[880,420],"start_dim":[100,100],"size_start":[300,300],"size_fix":60,"samplingrate":20,"img_types":["Congruent","Incongruent"],"ratios":[100,200,300],"rep_conds":19,"nTrials":120,"trials_to_rest":500,"Trials_order":[39,71,21,16,47,14,26,49,44,8,66,50,46,6,101,118,42,57,76,60,37,38,54,5,20,56,4,112,107,89,22,64,31,36,0,88,79,52,43,69,92,84,41,115,45,106,13,104,30,63,109,70,117,10,51,32,3,96,7,80,82,102,93,29,100,17,111,95,78,34,108,103,83,61,113,94,62,23,48,73,55,24,18,9,99,97,77,87,98,59,68,58,85,40,81,119,86,105,65,27,12,110,116,35,114,1,53,74,67,2,33,19,11,91,25,28,75,72,90,15],"cond_shown":["Incongruent","Incongruent","Incongruent","Congruent","Incongruent","Congruent","Congruent","Incongruent","Congruent","Congruent","Congruent","Congruent","Congruent","Congruent","Incongruent","Congruent","Congruent","Incongruent","Congruent","Congruent","Incongruent","Congruent","Congruent","Incongruent","Congruent","Congruent","Congruent","Congruent","Incongruent","Incongruent","Congruent","Congruent","Incongruent","Congruent","Congruent","Congruent","Incongruent","Congruent","Incongruent","Incongruent","Congruent","Congruent","Incongruent","Incongruent","Incongruent","Congruent","Incongruent","Congruent","Congruent","Incongruent","Incongruent","Congruent","Incongruent","Congruent","Incongruent","Congruent","Incongruent","Congruent","Incongruent","Congruent","Congruent","Congruent","Incongruent","Incongruent","Congruent","Incongruent","Incongruent","Incongruent","Congruent","Congruent","Congruent","Incongruent","Incongruent","Incongruent","Incongruent","Congruent","Congruent","Incongruent","Congruent","Incongruent","Incongruent","Congruent","Congruent","Incongruent","Incongruent","Incongruent","Incongruent","Incongruent","Congruent","Incongruent","Congruent","Congruent","Incongruent","Congruent","Incongruent","Incongruent","Congruent","Incongruent","Incongruent","Incongruent","Congruent","Congruent","Congruent","Incongruent","Congruent","Incongruent","Incongruent","Congruent","Incongruent","Congruent","Incongruent","Incongruent","Incongruent","Incongruent","Incongruent","Congruent","Incongruent","Congruent","Congruent","Incongruent"],"ratio_trial":[200,300,200,300,300,200,200,100,200,200,100,200,300,100,300,300,100,200,300,100,100,200,100,300,200,200,300,300,300,300,300,300,100,100,100,300,100,300,100,200,200,100,300,100,200,300,100,200,100,200,100,300,200,300,200,200,200,100,100,200,300,100,200,300,300,300,200,300,100,300,100,100,300,100,300,300,200,300,100,100,100,100,100,200,200,100,300,200,200,300,200,300,100,300,200,300,200,200,300,200,100,200,200,300,100,100,300,200,100,200,200,100,300,100,100,300,200,100,100,200],"left_num":[1,4,1,11,1,3,12,9,7,20,2,5,11,10,1,3,11,4,20,4,9,11,2,4,3,3,1,7,4,13,2,24,10,9,8,8,8,11,3,7,3,11,13,3,4,1,3,13,10,6,3,2,7,5,7,3,3,12,10,16,5,7,1,4,1,8,3,4,12,9,2,6,3,11,13,1,3,1,4,9,10,1,15,14,7,13,13,1,11,8,1,24,6,4,7,4,14,1,13,14,7,13,3,13,3,6,4,13,3,3,4,12,4,6,9,3,3,10,2,7],"right_num":[3,2,2,1,2,14,6,20,18,9,11,14,4,3,3,11,4,6,14,6,14,3,6,6,7,9,7,20,2,12,10,2,9,8,2,1,1,2,7,8,14,4,12,11,1,7,11,14,3,3,4,10,14,6,14,14,1,13,9,12,7,9,2,8,3,14,1,2,13,3,11,7,4,9,12,3,7,3,15,14,8,18,13,6,4,6,12,2,3,9,21,8,3,1,6,6,6,3,12,6,9,14,14,12,4,3,6,14,11,11,14,9,8,7,20,2,1,3,11,14],"left_den":[2,20,3,22,2,10,15,10,15,25,5,10,22,25,2,12,22,5,25,8,15,22,5,5,10,12,20,14,20,26,20,30,25,15,16,16,20,22,9,10,10,22,26,5,30,20,5,26,25,20,6,20,10,25,10,10,10,30,25,20,25,14,3,5,5,10,10,20,30,10,5,10,6,22,26,5,10,2,10,15,25,2,25,30,15,26,26,3,22,10,2,30,12,10,15,5,28,2,26,30,14,26,10,26,20,12,5,26,5,10,6,24,5,10,10,6,10,25,5,10],"right_den":[10,4,15,5,10,28,10,25,27,15,22,20,20,10,15,20,10,10,28,10,28,10,12,12,14,20,20,25,4,15,25,4,18,16,5,5,2,10,30,16,28,10,15,22,3,20,22,20,10,6,10,25,28,12,28,28,2,26,18,20,14,15,15,16,6,28,2,4,26,5,22,14,20,15,15,6,14,15,30,28,16,30,26,9,6,10,15,15,10,18,30,16,5,10,9,12,20,10,15,9,15,20,28,15,16,5,12,20,22,22,30,15,16,14,25,10,2,10,22,28],"correct_side":[1,2,1,1,1,2,1,1,2,1,2,2,1,1,1,2,1,1,1,2,1,1,2,1,2,2,2,2,2,2,2,1,2,1,1,1,2,1,1,1,2,1,2,1,2,2,1,2,1,2,1,2,1,2,1,2,2,2,2,1,2,2,1,1,2,1,2,2,2,1,2,1,1,2,2,2,2,1,2,1,2,2,1,2,2,2,2,1,1,1,2,1,2,1,2,1,1,1,2,2,2,2,2,2,2,2,1,2,1,2,1,2,1,1,1,1,2,1,2,1],"img_shown":["img2/200/Incongruent/L/I_Dist_200_LN_1_LD_2_RN_3_RD_10_0.png","img2/300/Incongruent/R/I_Dist_300_LN_4_LD_20_RN_2_RD_4_1.png","img2/200/Incongruent/L/I_Dist_200_LN_1_LD_3_RN_2_RD_15_0.png","img2/300/Congruent/L/C_Dist_300_LN_11_LD_22_RN_1_RD_5_0.png","img2/300/Incongruent/L/I_Dist_300_LN_1_LD_2_RN_2_RD_10_0.png","img2/200/Congruent/R/C_Dist_200_LN_3_LD_10_RN_14_RD_28_1.png","img2/200/Congruent/L/C_Dist_200_LN_12_LD_15_RN_6_RD_10_0.png","img2/100/Incongruent/L/I_Dist_100_LN_9_LD_10_RN_20_RD_25_0.png","img2/200/Congruent/R/C_Dist_200_LN_7_LD_15_RN_18_RD_27_1.png","img2/200/Congruent/L/C_Dist_200_LN_20_LD_25_RN_9_RD_15_0.png","img2/100/Congruent/R/C_Dist_100_LN_2_LD_5_RN_11_RD_22_1.png","img2/200/Congruent/R/C_Dist_200_LN_5_LD_10_RN_14_RD_20_1.png","img2/300/Congruent/L/C_Dist_300_LN_11_LD_22_RN_4_RD_20_0.png","img2/100/Congruent/L/C_Dist_100_LN_10_LD_25_RN_3_RD_10_0.png","img2/300/Incongruent/L/I_Dist_300_LN_1_LD_2_RN_3_RD_15_0.png","img2/300/Congruent/R/C_Dist_300_LN_3_LD_12_RN_11_RD_20_1.png","img2/100/Congruent/L/C_Dist_100_LN_11_LD_22_RN_4_RD_10_0.png","img2/200/Incongruent/L/I_Dist_200_LN_4_LD_5_RN_6_RD_10_0.png","img2/300/Congruent/L/C_Dist_300_LN_20_LD_25_RN_14_RD_28_0.png","img2/100/Congruent/R/C_Dist_100_LN_4_LD_8_RN_6_RD_10_1.png","img2/100/Incongruent/L/I_Dist_100_LN_9_LD_15_RN_14_RD_28_0.png","img2/200/Congruent/L/C_Dist_200_LN_11_LD_22_RN_3_RD_10_0.png","img2/100/Congruent/R/C_Dist_100_LN_2_LD_5_RN_6_RD_12_1.png","img2/300/Incongruent/L/I_Dist_300_LN_4_LD_5_RN_6_RD_12_0.png","img2/200/Congruent/R/C_Dist_200_LN_3_LD_10_RN_7_RD_14_1.png","img2/200/Congruent/R/C_Dist_200_LN_3_LD_12_RN_9_RD_20_1.png","img2/300/Congruent/R/C_Dist_300_LN_1_LD_20_RN_7_RD_20_1.png","img2/300/Congruent/R/C_Dist_300_LN_7_LD_14_RN_20_RD_25_1.png","img2/300/Incongruent/R/I_Dist_300_LN_4_LD_20_RN_2_RD_4_1.png","img2/300/Incongruent/R/I_Dist_300_LN_13_LD_26_RN_12_RD_15_1.png","img2/300/Congruent/R/C_Dist_300_LN_2_LD_20_RN_10_RD_25_1.png","img2/300/Congruent/L/C_Dist_300_LN_24_LD_30_RN_2_RD_4_0.png","img2/100/Incongruent/R/I_Dist_100_LN_10_LD_25_RN_9_RD_18_1.png","img2/100/Congruent/L/C_Dist_100_LN_9_LD_15_RN_8_RD_16_0.png","img2/100/Congruent/L/C_Dist_100_LN_8_LD_16_RN_2_RD_5_0.png","img2/300/Congruent/L/C_Dist_300_LN_8_LD_16_RN_1_RD_5_0.png","img2/100/Incongruent/R/I_Dist_100_LN_8_LD_20_RN_1_RD_2_1.png","img2/300/Congruent/L/C_Dist_300_LN_11_LD_22_RN_2_RD_10_0.png","img2/100/Incongruent/L/I_Dist_100_LN_3_LD_9_RN_7_RD_30_0.png","img2/200/Incongruent/L/I_Dist_200_LN_7_LD_10_RN_8_RD_16_0.png","img2/200/Congruent/R/C_Dist_200_LN_3_LD_10_RN_14_RD_28_1.png","img2/100/Congruent/L/C_Dist_100_LN_11_LD_22_RN_4_RD_10_0.png","img2/300/Incongruent/R/I_Dist_300_LN_13_LD_26_RN_12_RD_15_1.png","img2/100/Incongruent/L/I_Dist_100_LN_3_LD_5_RN_11_RD_22_0.png","img2/200/Incongruent/R/I_Dist_200_LN_4_LD_30_RN_1_RD_3_1.png","img2/300/Congruent/R/C_Dist_300_LN_1_LD_20_RN_7_RD_20_1.png","img2/100/Incongruent/L/I_Dist_100_LN_3_LD_5_RN_11_RD_22_0.png","img2/200/Congruent/R/C_Dist_200_LN_13_LD_26_RN_14_RD_20_1.png","img2/100/Congruent/L/C_Dist_100_LN_10_LD_25_RN_3_RD_10_0.png","img2/200/Incongruent/R/I_Dist_200_LN_6_LD_20_RN_3_RD_6_1.png","img2/100/Incongruent/L/I_Dist_100_LN_3_LD_6_RN_4_RD_10_0.png","img2/300/Congruent/R/C_Dist_300_LN_2_LD_20_RN_10_RD_25_1.png","img2/200/Incongruent/L/I_Dist_200_LN_7_LD_10_RN_14_RD_28_0.png","img2/300/Congruent/R/C_Dist_300_LN_5_LD_25_RN_6_RD_12_1.png","img2/200/Incongruent/L/I_Dist_200_LN_7_LD_10_RN_14_RD_28_0.png","img2/200/Congruent/R/C_Dist_200_LN_3_LD_10_RN_14_RD_28_1.png","img2/200/Incongruent/R/I_Dist_200_LN_3_LD_10_RN_1_RD_2_1.png","img2/100/Congruent/R/C_Dist_100_LN_12_LD_30_RN_13_RD_26_1.png","img2/100/Incongruent/R/I_Dist_100_LN_10_LD_25_RN_9_RD_18_1.png","img2/200/Congruent/L/C_Dist_200_LN_16_LD_20_RN_12_RD_20_0.png","img2/300/Congruent/R/C_Dist_300_LN_5_LD_25_RN_7_RD_14_1.png","img2/100/Congruent/R/C_Dist_100_LN_7_LD_14_RN_9_RD_15_1.png","img2/200/Incongruent/L/I_Dist_200_LN_1_LD_3_RN_2_RD_15_0.png","img2/300/Incongruent/L/I_Dist_300_LN_4_LD_5_RN_8_RD_16_0.png","img2/300/Congruent/R/C_Dist_300_LN_1_LD_5_RN_3_RD_6_1.png","img2/300/Incongruent/L/I_Dist_300_LN_8_LD_10_RN_14_RD_28_0.png","img2/200/Incongruent/R/I_Dist_200_LN_3_LD_10_RN_1_RD_2_1.png","img2/300/Incongruent/R/I_Dist_300_LN_4_LD_20_RN_2_RD_4_1.png","img2/100/Congruent/R/C_Dist_100_LN_12_LD_30_RN_13_RD_26_1.png","img2/300/Congruent/L/C_Dist_300_LN_9_LD_10_RN_3_RD_5_0.png","img2/100/Congruent/R/C_Dist_100_LN_2_LD_5_RN_11_RD_22_1.png","img2/100/Incongruent/L/I_Dist_100_LN_6_LD_10_RN_7_RD_14_0.png","img2/300/Incongruent/L/I_Dist_300_LN_3_LD_6_RN_4_RD_20_0.png","img2/100/Incongruent/R/I_Dist_100_LN_11_LD_22_RN_9_RD_15_1.png","img2/300/Incongruent/R/I_Dist_300_LN_13_LD_26_RN_12_RD_15_1.png","img2/300/Congruent/R/C_Dist_300_LN_1_LD_5_RN_3_RD_6_1.png","img2/200/Congruent/R/C_Dist_200_LN_3_LD_10_RN_7_RD_14_1.png","img2/300/Incongruent/L/I_Dist_300_LN_1_LD_2_RN_3_RD_15_0.png","img2/100/Congruent/R/C_Dist_100_LN_4_LD_10_RN_15_RD_30_1.png","img2/100/Incongruent/L/I_Dist_100_LN_9_LD_15_RN_14_RD_28_0.png","img2/100/Incongruent/R/I_Dist_100_LN_10_LD_25_RN_8_RD_16_1.png","img2/100/Congruent/R/C_Dist_100_LN_1_LD_2_RN_18_RD_30_1.png","img2/100/Congruent/L/C_Dist_100_LN_15_LD_25_RN_13_RD_26_0.png","img2/200/Incongruent/R/I_Dist_200_LN_14_LD_30_RN_6_RD_9_1.png","img2/200/Incongruent/R/I_Dist_200_LN_7_LD_15_RN_4_RD_6_1.png","img2/100/Incongruent/R/I_Dist_100_LN_13_LD_26_RN_6_RD_10_1.png","img2/300/Incongruent/R/I_Dist_300_LN_13_LD_26_RN_12_RD_15_1.png","img2/200/Incongruent/L/I_Dist_200_LN_1_LD_3_RN_2_RD_15_0.png","img2/200/Congruent/L/C_Dist_200_LN_11_LD_22_RN_3_RD_10_0.png","img2/300/Incongruent/L/I_Dist_300_LN_8_LD_10_RN_9_RD_18_0.png","img2/200/Congruent/R/C_Dist_200_LN_1_LD_2_RN_21_RD_30_1.png","img2/300/Congruent/L/C_Dist_300_LN_24_LD_30_RN_8_RD_16_0.png","img2/100/Incongruent/R/I_Dist_100_LN_6_LD_12_RN_3_RD_5_1.png","img2/300/Congruent/L/C_Dist_300_LN_4_LD_10_RN_1_RD_10_0.png","img2/200/Incongruent/R/I_Dist_200_LN_7_LD_15_RN_6_RD_9_1.png","img2/300/Incongruent/L/I_Dist_300_LN_4_LD_5_RN_6_RD_12_0.png","img2/200/Congruent/L/C_Dist_200_LN_14_LD_28_RN_6_RD_20_0.png","img2/200/Incongruent/L/I_Dist_200_LN_1_LD_2_RN_3_RD_10_0.png","img2/300/Incongruent/R/I_Dist_300_LN_13_LD_26_RN_12_RD_15_1.png","img2/200/Incongruent/R/I_Dist_200_LN_14_LD_30_RN_6_RD_9_1.png","img2/100/Congruent/R/C_Dist_100_LN_7_LD_14_RN_9_RD_15_1.png","img2/200/Congruent/R/C_Dist_200_LN_13_LD_26_RN_14_RD_20_1.png","img2/200/Congruent/R/C_Dist_200_LN_3_LD_10_RN_14_RD_28_1.png","img2/300/Incongruent/R/I_Dist_300_LN_13_LD_26_RN_12_RD_15_1.png","img2/100/Congruent/R/C_Dist_100_LN_3_LD_20_RN_4_RD_16_1.png","img2/100/Incongruent/R/I_Dist_100_LN_6_LD_12_RN_3_RD_5_1.png","img2/300/Incongruent/L/I_Dist_300_LN_4_LD_5_RN_6_RD_12_0.png","img2/200/Congruent/R/C_Dist_200_LN_13_LD_26_RN_14_RD_20_1.png","img2/100/Incongruent/L/I_Dist_100_LN_3_LD_5_RN_11_RD_22_0.png","img2/200/Congruent/R/C_Dist_200_LN_3_LD_10_RN_11_RD_22_1.png","img2/200/Incongruent/L/I_Dist_200_LN_4_LD_6_RN_14_RD_30_0.png","img2/100/Incongruent/R/I_Dist_100_LN_12_LD_24_RN_9_RD_15_1.png","img2/300/Incongruent/L/I_Dist_300_LN_4_LD_5_RN_8_RD_16_0.png","img2/100/Incongruent/L/I_Dist_100_LN_6_LD_10_RN_7_RD_14_0.png","img2/100/Incongruent/L/I_Dist_100_LN_9_LD_10_RN_20_RD_25_0.png","img2/300/Congruent/L/C_Dist_300_LN_3_LD_6_RN_2_RD_10_0.png","img2/200/Incongruent/R/I_Dist_200_LN_3_LD_10_RN_1_RD_2_1.png","img2/100/Congruent/L/C_Dist_100_LN_10_LD_25_RN_3_RD_10_0.png","img2/100/Congruent/R/C_Dist_100_LN_2_LD_5_RN_11_RD_22_1.png","img2/200/Incongruent/L/I_Dist_200_LN_7_LD_10_RN_14_RD_28_0.png"],"dist100_C":[["C_Dist_100_LN_10_LD_25_RN_3_RD_10_0.png","C_Dist_100_LN_11_LD_22_RN_4_RD_10_0.png","C_Dist_100_LN_11_LD_22_RN_6_RD_15_0.png","C_Dist_100_LN_15_LD_25_RN_13_RD_26_0.png","C_Dist_100_LN_3_LD_6_RN_2_RD_5_0.png","C_Dist_100_LN_6_LD_20_RN_5_RD_25_0.png","C_Dist_100_LN_8_LD_16_RN_2_RD_5_0.png","C_Dist_100_LN_9_LD_15_RN_8_RD_16_0.png"],["C_Dist_100_LN_1_LD_2_RN_18_RD_30_1.png","C_Dist_100_LN_1_LD_2_RN_3_RD_5_1.png","C_Dist_100_LN_12_LD_30_RN_13_RD_26_1.png","C_Dist_100_LN_2_LD_5_RN_11_RD_22_1.png","C_Dist_100_LN_2_LD_5_RN_6_RD_12_1.png","C_Dist_100_LN_3_LD_20_RN_4_RD_16_1.png","C_Dist_100_LN_4_LD_10_RN_15_RD_30_1.png","C_Dist_100_LN_4_LD_8_RN_6_RD_10_1.png","C_Dist_100_LN_6_LD_12_RN_15_RD_25_1.png","C_Dist_100_LN_7_LD_14_RN_15_RD_25_1.png","C_Dist_100_LN_7_LD_14_RN_9_RD_15_1.png"]],"dist100_I":[["I_Dist_100_LN_1_LD_2_RN_8_RD_20_0.png","I_Dist_100_LN_2_LD_4_RN_6_RD_15_0.png","I_Dist_100_LN_2_LD_4_RN_8_RD_20_0.png","I_Dist_100_LN_3_LD_5_RN_11_RD_22_0.png","I_Dist_100_LN_3_LD_5_RN_8_RD_16_0.png","I_Dist_100_LN_3_LD_6_RN_4_RD_10_0.png","I_Dist_100_LN_3_LD_9_RN_7_RD_30_0.png","I_Dist_100_LN_4_LD_8_RN_8_RD_20_0.png","I_Dist_100_LN_6_LD_10_RN_11_RD_22_0.png","I_Dist_100_LN_6_LD_10_RN_13_RD_26_0.png","I_Dist_100_LN_6_LD_10_RN_7_RD_14_0.png","I_Dist_100_LN_9_LD_10_RN_20_RD_25_0.png","I_Dist_100_LN_9_LD_15_RN_13_RD_26_0.png","I_Dist_100_LN_9_LD_15_RN_14_RD_28_0.png"],["I_Dist_100_LN_10_LD_25_RN_8_RD_16_1.png","I_Dist_100_LN_10_LD_25_RN_9_RD_18_1.png","I_Dist_100_LN_11_LD_22_RN_9_RD_15_1.png","I_Dist_100_LN_12_LD_24_RN_9_RD_15_1.png","I_Dist_100_LN_12_LD_30_RN_2_RD_4_1.png","I_Dist_100_LN_13_LD_26_RN_12_RD_20_1.png","I_Dist_100_LN_13_LD_26_RN_6_RD_10_1.png","I_Dist_100_LN_17_LD_30_RN_10_RD_15_1.png","I_Dist_100_LN_6_LD_12_RN_3_RD_5_1.png","I_Dist_100_LN_8_LD_16_RN_6_RD_10_1.png","I_Dist_100_LN_8_LD_20_RN_1_RD_2_1.png","I_Dist_100_LN_9_LD_18_RN_6_RD_10_1.png"]],"dist100_S":[["E_Dist_100_LN_2_LD_12_RN_2_RD_30_0.png","E_Dist_100_LN_6_LD_10_RN_6_RD_12_0.png"],["E_Dist_100_LN_6_LD_12_RN_6_RD_10_1.png"]],"dist200_C":[["C_Dist_200_LN_11_LD_22_RN_3_RD_10_0.png","C_Dist_200_LN_12_LD_15_RN_6_RD_10_0.png","C_Dist_200_LN_12_LD_20_RN_6_RD_15_0.png","C_Dist_200_LN_14_LD_28_RN_6_RD_20_0.png","C_Dist_200_LN_15_LD_25_RN_4_RD_10_0.png","C_Dist_200_LN_16_LD_20_RN_12_RD_20_0.png","C_Dist_200_LN_16_LD_30_RN_9_RD_27_0.png","C_Dist_200_LN_20_LD_25_RN_9_RD_15_0.png","C_Dist_200_LN_21_LD_30_RN_2_RD_4_0.png","C_Dist_200_LN_4_LD_10_RN_3_RD_15_0.png","C_Dist_200_LN_4_LD_8_RN_3_RD_10_0.png","C_Dist_200_LN_6_LD_15_RN_3_RD_15_0.png","C_Dist_200_LN_7_LD_21_RN_2_RD_15_0.png","C_Dist_200_LN_8_LD_15_RN_2_RD_6_0.png","C_Dist_200_LN_8_LD_15_RN_3_RD_9_0.png","C_Dist_200_LN_8_LD_15_RN_7_RD_21_0.png","C_Dist_200_LN_9_LD_20_RN_4_RD_16_0.png"],["C_Dist_200_LN_1_LD_2_RN_21_RD_30_1.png","C_Dist_200_LN_13_LD_26_RN_14_RD_20_1.png","C_Dist_200_LN_3_LD_10_RN_11_RD_22_1.png","C_Dist_200_LN_3_LD_10_RN_14_RD_28_1.png","C_Dist_200_LN_3_LD_10_RN_7_RD_14_1.png","C_Dist_200_LN_3_LD_12_RN_9_RD_20_1.png","C_Dist_200_LN_3_LD_6_RN_14_RD_20_1.png","C_Dist_200_LN_5_LD_10_RN_14_RD_20_1.png","C_Dist_200_LN_6_LD_12_RN_7_RD_10_1.png","C_Dist_200_LN_6_LD_20_RN_11_RD_22_1.png","C_Dist_200_LN_7_LD_15_RN_18_RD_27_1.png","C_Dist_200_LN_9_LD_30_RN_13_RD_26_1.png"]],"dist200_I":[["I_Dist_200_LN_1_LD_2_RN_3_RD_10_0.png","I_Dist_200_LN_1_LD_3_RN_2_RD_15_0.png","I_Dist_200_LN_3_LD_4_RN_11_RD_20_0.png","I_Dist_200_LN_4_LD_5_RN_6_RD_10_0.png","I_Dist_200_LN_4_LD_6_RN_14_RD_30_0.png","I_Dist_200_LN_7_LD_10_RN_12_RD_24_0.png","I_Dist_200_LN_7_LD_10_RN_14_RD_28_0.png","I_Dist_200_LN_7_LD_10_RN_8_RD_16_0.png"],["I_Dist_200_LN_11_LD_20_RN_3_RD_4_1.png","I_Dist_200_LN_14_LD_30_RN_12_RD_18_1.png","I_Dist_200_LN_14_LD_30_RN_6_RD_9_1.png","I_Dist_200_LN_3_LD_10_RN_1_RD_2_1.png","I_Dist_200_LN_4_LD_30_RN_1_RD_3_1.png","I_Dist_200_LN_6_LD_20_RN_3_RD_6_1.png","I_Dist_200_LN_7_LD_15_RN_4_RD_6_1.png","I_Dist_200_LN_7_LD_15_RN_6_RD_9_1.png","I_Dist_200_LN_9_LD_15_RN_8_RD_10_1.png"]],"dist200_S":[["E_Dist_200_LN_3_LD_6_RN_3_RD_10_0.png"],["E_Dist_200_LN_3_LD_10_RN_3_RD_6_1.png"]],"dist300_C":[["C_Dist_300_LN_11_LD_22_RN_1_RD_5_0.png","C_Dist_300_LN_11_LD_22_RN_2_RD_10_0.png","C_Dist_300_LN_11_LD_22_RN_4_RD_20_0.png","C_Dist_300_LN_12_LD_24_RN_2_RD_10_0.png","C_Dist_300_LN_18_LD_20_RN_9_RD_15_0.png","C_Dist_300_LN_20_LD_25_RN_13_RD_26_0.png","C_Dist_300_LN_20_LD_25_RN_14_RD_28_0.png","C_Dist_300_LN_20_LD_25_RN_5_RD_10_0.png","C_Dist_300_LN_20_LD_25_RN_8_RD_16_0.png","C_Dist_300_LN_20_LD_25_RN_9_RD_18_0.png","C_Dist_300_LN_24_LD_30_RN_2_RD_4_0.png","C_Dist_300_LN_24_LD_30_RN_8_RD_16_0.png","C_Dist_300_LN_3_LD_6_RN_2_RD_10_0.png","C_Dist_300_LN_4_LD_10_RN_1_RD_10_0.png","C_Dist_300_LN_4_LD_5_RN_2_RD_4_0.png","C_Dist_300_LN_8_LD_16_RN_1_RD_5_0.png","C_Dist_300_LN_9_LD_10_RN_3_RD_5_0.png"],["C_Dist_300_LN_1_LD_20_RN_7_RD_20_1.png","C_Dist_300_LN_1_LD_3_RN_19_RD_30_1.png","C_Dist_300_LN_1_LD_30_RN_8_RD_24_1.png","C_Dist_300_LN_1_LD_5_RN_11_RD_22_1.png","C_Dist_300_LN_1_LD_5_RN_3_RD_6_1.png","C_Dist_300_LN_1_LD_5_RN_6_RD_12_1.png","C_Dist_300_LN_2_LD_10_RN_12_RD_24_1.png","C_Dist_300_LN_2_LD_20_RN_10_RD_25_1.png","C_Dist_300_LN_3_LD_12_RN_11_RD_20_1.png","C_Dist_300_LN_3_LD_6_RN_4_RD_5_1.png","C_Dist_300_LN_4_LD_20_RN_13_RD_26_1.png","C_Dist_300_LN_5_LD_25_RN_6_RD_12_1.png","C_Dist_300_LN_5_LD_25_RN_7_RD_14_1.png","C_Dist_300_LN_7_LD_14_RN_20_RD_25_1.png","C_Dist_300_LN_8_LD_15_RN_10_RD_12_1.png"]],"dist300_I":[["I_Dist_300_LN_1_LD_2_RN_2_RD_10_0.png","I_Dist_300_LN_1_LD_2_RN_3_RD_15_0.png","I_Dist_300_LN_2_LD_4_RN_6_RD_30_0.png","I_Dist_300_LN_3_LD_6_RN_4_RD_20_0.png","I_Dist_300_LN_4_LD_5_RN_6_RD_12_0.png","I_Dist_300_LN_4_LD_5_RN_8_RD_16_0.png","I_Dist_300_LN_7_LD_10_RN_8_RD_20_0.png","I_Dist_300_LN_8_LD_10_RN_14_RD_28_0.png","I_Dist_300_LN_8_LD_10_RN_9_RD_18_0.png"],["I_Dist_300_LN_13_LD_26_RN_12_RD_15_1.png","I_Dist_300_LN_4_LD_20_RN_2_RD_4_1.png"]],"dist300_S":[["E_Dist_300_LN_9_LD_12_RN_9_RD_20_0.png"],["E_Dist_300_LN_18_LD_30_RN_18_RD_20_1.png","E_Dist_300_LN_3_LD_10_RN_3_RD_5_1.png","E_Dist_300_LN_9_LD_20_RN_9_RD_12_1.png"]],"dist500_C":[["C_Dist_500_LN_10_LD_13_RN_7_RD_26_0.png","C_Dist_500_LN_10_LD_15_RN_4_RD_24_0.png","C_Dist_500_LN_12_LD_16_RN_3_RD_12_0.png","C_Dist_500_LN_12_LD_18_RN_4_RD_24_0.png","C_Dist_500_LN_15_LD_18_RN_5_RD_15_0.png","C_Dist_500_LN_15_LD_20_RN_1_RD_4_0.png","C_Dist_500_LN_18_LD_27_RN_1_RD_6_0.png","C_Dist_500_LN_20_LD_24_RN_1_RD_3_0.png","C_Dist_500_LN_20_LD_24_RN_3_RD_9_0.png","C_Dist_500_LN_20_LD_24_RN_7_RD_21_0.png","C_Dist_500_LN_20_LD_28_RN_3_RD_14_0.png","C_Dist_500_LN_21_LD_28_RN_6_RD_24_0.png","C_Dist_500_LN_22_LD_28_RN_2_RD_7_0.png","C_Dist_500_LN_25_LD_30_RN_9_RD_27_0.png","C_Dist_500_LN_4_LD_6_RN_1_RD_6_0.png","C_Dist_500_LN_5_LD_6_RN_2_RD_6_0.png","C_Dist_500_LN_6_LD_9_RN_1_RD_6_0.png","C_Dist_500_LN_7_LD_10_RN_1_RD_5_0.png","C_Dist_500_LN_8_LD_12_RN_1_RD_6_0.png","C_Dist_500_LN_8_LD_12_RN_4_RD_24_0.png"],["C_Dist_500_LN_1_LD_4_RN_12_RD_16_1.png","C_Dist_500_LN_1_LD_4_RN_9_RD_12_1.png","C_Dist_500_LN_1_LD_9_RN_11_RD_18_1.png","C_Dist_500_LN_10_LD_24_RN_22_RD_24_1.png","C_Dist_500_LN_2_LD_12_RN_10_RD_15_1.png","C_Dist_500_LN_2_LD_12_RN_12_RD_18_1.png","C_Dist_500_LN_2_LD_12_RN_4_RD_6_1.png","C_Dist_500_LN_2_LD_24_RN_7_RD_12_1.png","C_Dist_500_LN_2_LD_5_RN_18_RD_20_1.png","C_Dist_500_LN_2_LD_5_RN_9_RD_10_1.png","C_Dist_500_LN_2_LD_8_RN_12_RD_16_1.png","C_Dist_500_LN_2_LD_8_RN_21_RD_28_1.png","C_Dist_500_LN_3_LD_10_RN_4_RD_5_1.png","C_Dist_500_LN_3_LD_12_RN_15_RD_20_1.png","C_Dist_500_LN_3_LD_30_RN_6_RD_10_1.png","C_Dist_500_LN_3_LD_8_RN_14_RD_16_1.png","C_Dist_500_LN_4_LD_16_RN_15_RD_20_1.png","C_Dist_500_LN_4_LD_24_RN_12_RD_18_1.png","C_Dist_500_LN_5_LD_14_RN_6_RD_7_1.png","C_Dist_500_LN_7_LD_21_RN_20_RD_24_1.png","C_Dist_500_LN_7_LD_28_RN_12_RD_16_1.png","C_Dist_500_LN_7_LD_28_RN_9_RD_12_1.png","C_Dist_500_LN_9_LD_27_RN_20_RD_24_1.png"]],"dist500_I":[["I_Dist_500_LN_2_LD_3_RN_4_RD_24_0.png","I_Dist_500_LN_5_LD_6_RN_6_RD_18_0.png","I_Dist_500_LN_7_LD_8_RN_9_RD_24_0.png"],["I_Dist_500_LN_7_LD_21_RN_5_RD_6_1.png"]],"dist500_S":[["E_Dist_500_LN_6_LD_8_RN_6_RD_24_0.png"],["E_Dist_500_LN_2_LD_12_RN_2_RD_3_1.png","E_Dist_500_LN_6_LD_24_RN_6_RD_8_1.png"]]}},{"start_time":1551886974653,"click_time":1551886976313,"finger_time":1551886975893,"fix_duration":537.1172003359247,"trial":1,"RT":1240,"MT":420,"sideResp":1,"stimulus":[],"xmouse":[772,772,772,772,772,772,771,770,770,770,770,770,770,770,770,770,770,770,770,770,770,770,770,770,770,770,768,767,765,765,765,765,765,765,765,765,765,765,765,765,765,765,765,765,765,765,765,765,765,765,765,765,765,765,765,765,765,765,765,765,765,765,753,739,712,689,674,654,644,634,627,626,623,620,618,612,607,595,587,579,567,553,525,506],"ymouse":[543,543,543,543,543,543,540,538,538,538,538,538,538,538,538,538,538,538,538,538,538,538,538,538,538,538,538,537,536,535,535,535,535,535,535,535,535,535,535,535,535,535,535,535,535,535,535,535,535,533,532,531,529,529,529,529,529,529,529,528,527,520,484,436,341,285,250,174,131,79,54,40,22,12,12,15,16,20,22,25,32,38,49,62],"timestamp_mouse":[15,23,40,59,80,100,120,139,160,180,200,219,240,260,281,299,321,340,360,380,399,421,440,460,480,501,520,540,561,580,600,620,640,660,680,701,719,741,760,780,801,820,840,861,880,901,920,941,960,981,1000,1020,1040,1061,1081,1101,1121,1139,1160,1180,1200,1220,1240,1260,1280,1301,1321,1341,1360,1380,1400,1420,1441,1460,1480,1501,1520,1541,1560,1579,1599,1621,1640,1660],"xSR":741.5,"ySR":501.8,"xT1":424.9,"yT1":0,"xT2":1058.1,"yT2":0,"toosoon":0,"cond_shown":"Incongruent","ratio_trial":300,"L_num":4,"L_den":20,"R_num":2,"R_den":4,"correct_side":2,"subjID":"nataliacorrealcaceres3","gender":" 1","school":" sexto","age":" 11"},{"start_time":1551886978322,"click_time":1551886980274,"finger_time":1551886979833,"fix_duration":507.0500854138804,"trial":2,"RT":1511,"MT":441,"sideResp":2,"stimulus":[],"xmouse":[783,783,783,783,783,783,783,783,783,783,783,783,783,783,783,783,783,783,783,783,783,783,783,783,783,783,783,783,783,783,783,783,783,783,783,783,783,783,783,783,783,783,783,783,783,783,783,783,783,783,783,783,783,783,783,783,783,783,783,783,783,783,783,783,783,783,783,783,783,783,783,783,783,784,788,797,814,828,868,924,951,968,975,976,977,982,995,1002,1023,1042,1046,1049,1049,1050,1051,1053,1058,1064],"ymouse":[535,534,534,534,534,534,534,534,534,534,534,534,534,534,534,534,534,534,534,534,534,534,534,534,534,534,534,534,534,534,534,534,534,534,534,534,534,534,534,534,534,534,534,534,534,534,534,534,534,534,534,534,534,534,534,534,534,534,534,534,534,534,534,534,534,534,534,534,534,534,534,534,534,527,505,460,398,339,246,163,140,127,122,121,119,114,105,102,96,92,91,89,89,89,89,88,86,82],"timestamp_mouse":[15,41,51,71,91,110,132,152,171,191,212,232,252,271,291,310,332,351,370,391,412,430,452,471,492,512,532,552,572,592,612,632,652,672,692,712,732,752,771,792,812,831,851,872,892,912,932,951,972,991,1012,1032,1052,1072,1092,1112,1132,1151,1172,1191,1212,1231,1251,1271,1292,1310,1332,1351,1371,1392,1412,1431,1452,1472,1491,1511,1531,1552,1571,1591,1611,1631,1652,1671,1691,1712,1731,1751,1770,1791,1811,1831,1852,1872,1891,1912,1932,1952],"xSR":741.5,"ySR":501.8,"xT1":424.9,"yT1":0,"xT2":1058.1,"yT2":0,"toosoon":0,"cond_shown":"Incongruent","ratio_trial":200,"L_num":1,"L_den":3,"R_num":2,"R_den":15,"correct_side":1,"subjID":"nataliacorrealcaceres3","gender":" 1","school":" sexto","age":" 11"},{"start_time":1551886981664,"click_time":1551886983313,"finger_time":1551886982974,"fix_duration":250,"trial":3,"RT":1310,"MT":339,"sideResp":1,"stimulus":[],"xmouse":[811,811,811,811,811,811,811,811,811,811,811,811,811,811,811,811,811,811,811,811,811,811,811,811,811,811,811,811,811,811,811,811,811,811,811,811,811,811,811,811,811,811,811,811,811,811,811,811,811,811,811,811,811,811,811,811,811,811,811,811,811,811,811,809,801,792,788,785,782,779,776,771,758,751,741,731,721,709,667,628,592,551,479],"ymouse":[536,536,536,536,536,536,536,536,536,536,536,536,536,536,536,536,536,536,536,536,536,536,536,536,536,536,536,536,536,536,536,536,536,536,536,536,536,536,536,536,536,536,536,536,536,536,535,534,534,534,534,534,534,534,534,534,534,534,534,534,534,534,534,527,511,492,479,467,458,452,440,424,377,353,328,304,281,256,178,124,88,61,32],"timestamp_mouse":[12,34,49,69,89,109,130,149,169,189,210,229,248,269,290,310,329,349,370,389,410,429,450,468,489,509,529,548,569,589,610,629,648,670,690,710,729,750,768,790,810,829,850,869,890,909,930,948,970,989,1009,1030,1048,1070,1090,1109,1132,1149,1170,1188,1209,1230,1249,1269,1289,1310,1330,1349,1370,1389,1408,1429,1449,1469,1490,1509,1530,1549,1569,1589,1610,1629,1649],"xSR":741.5,"ySR":501.8,"xT1":424.9,"yT1":0,"xT2":1058.1,"yT2":0,"toosoon":0,"cond_shown":"Congruent","ratio_trial":300,"L_num":11,"L_den":22,"R_num":1,"R_den":5,"correct_side":1,"subjID":"nataliacorrealcaceres3","gender":" 1","school":" sexto","age":" 11"},{"start_time":1551886987021,"click_time":1551886988893,"finger_time":1551886988773,"fix_duration":1306.0086399875254,"trial":4,"RT":1752,"MT":120,"sideResp":2,"stimulus":[],"xmouse":[785,785,785,785,785,785,785,785,785,785,785,785,785,785,785,785,785,785,785,785,785,785,785,785,785,785,785,785,785,784,784,784,784,784,784,784,784,784,784,784,784,784,784,784,784,784,784,784,784,784,784,784,784,784,784,784,784,784,784,784,784,784,784,784,784,784,784,784,784,784,784,784,784,784,784,784,784,784,784,784,784,784,784,784,784,784,797,819,871,916,1021,1068,1093,1107],"ymouse":[518,518,518,518,518,518,518,518,518,518,518,518,518,518,518,518,518,518,518,518,518,518,518,518,518,518,519,523,524,525,525,525,525,525,525,525,525,525,525,525,525,525,525,525,525,525,525,525,525,525,525,525,525,525,525,525,525,525,525,525,525,525,525,525,525,525,525,525,525,525,525,525,525,525,525,525,525,525,525,525,525,525,525,525,525,525,504,464,376,311,187,140,113,92],"timestamp_mouse":[12,38,52,72,93,111,132,152,172,192,213,232,253,273,292,313,333,352,373,392,412,433,453,472,492,513,532,552,572,592,612,633,652,673,691,712,733,753,772,793,813,833,852,873,893,912,933,953,973,993,1012,1033,1053,1073,1092,1112,1132,1152,1171,1193,1213,1233,1253,1272,1292,1313,1332,1353,1372,1393,1412,1433,1453,1473,1492,1513,1532,1553,1572,1593,1613,1632,1652,1671,1692,1711,1733,1752,1773,1792,1812,1832,1852,1872],"xSR":741.5,"ySR":501.8,"xT1":424.9,"yT1":0,"xT2":1058.1,"yT2":0,"toosoon":0,"cond_shown":"Incongruent","ratio_trial":300,"L_num":1,"L_den":2,"R_num":2,"R_den":10,"correct_side":1,"subjID":"nataliacorrealcaceres3","gender":" 1","school":" sexto","age":" 11"},{"start_time":1551886990936,"click_time":1551886994154,"finger_time":1551886992973,"fix_duration":1100.8433567483578,"trial":5,"RT":2037,"MT":1181,"sideResp":1,"stimulus":[],"xmouse":[805,805,805,805,805,805,805,805,805,805,805,805,805,805,805,805,805,805,805,805,805,805,805,805,805,805,805,805,805,805,805,805,805,805,805,805,805,805,805,805,805,805,805,805,805,805,805,805,805,805,805,805,805,805,805,805,805,805,805,805,805,805,805,805,805,805,805,805,805,805,805,805,805,805,805,805,805,805,805,805,803,803,802,802,802,802,802,802,802,802,802,802,802,802,802,802,801,801,801,801,801,801,801,803,811,815,818,821,825,831,853,865,880,893,918,926,933,939,943,946,947,948,949,949,948,945,939,926,909,890,853,845,836,828,813,766,742,715,694,671,670,670,670,670,661,644,607,560,545,544,544,543,549,554,554,554,554,554,552,547,519],"ymouse":[513,513,513,513,513,513,513,513,513,513,513,513,513,513,513,513,513,513,513,513,513,513,513,513,513,513,513,513,513,513,513,513,513,513,513,513,513,513,513,513,513,513,513,513,513,513,513,513,513,513,513,513,513,513,513,513,513,513,513,513,513,513,513,513,513,513,513,513,513,513,513,513,513,513,513,513,513,513,513,513,512,510,510,510,510,510,510,510,510,510,510,510,510,510,510,510,508,508,508,508,507,500,488,471,440,428,419,410,401,389,346,327,305,287,252,238,225,214,207,201,197,193,188,183,173,170,167,163,157,152,145,144,144,144,148,160,165,171,174,180,180,180,180,180,164,142,114,89,85,85,85,86,88,88,89,89,89,89,89,88,81],"timestamp_mouse":[17,45,56,78,97,116,137,157,176,198,217,238,257,278,297,317,337,358,378,397,417,437,458,478,498,516,538,558,577,597,618,638,658,677,697,717,738,758,777,797,817,838,857,877,897,916,938,958,978,997,1018,1037,1058,1077,1097,1117,1138,1157,1178,1197,1217,1237,1257,1278,1297,1318,1337,1357,1377,1397,1418,1437,1457,1477,1496,1518,1537,1558,1577,1596,1617,1637,1658,1678,1697,1718,1738,1758,1778,1796,1818,1837,1858,1878,1897,1918,1937,1956,1978,1997,2018,2037,2057,2077,2098,2117,2137,2157,2178,2197,2217,2237,2258,2277,2297,2317,2336,2357,2377,2399,2417,2437,2458,2477,2497,2516,2537,2557,2578,2597,2617,2637,2657,2677,2697,2717,2737,2757,2777,2798,2816,2838,2858,2878,2898,2917,2938,2956,2977,2998,3018,3037,3057,3077,3098,3118,3138,3158,3178,3198,3218],"xSR":741.5,"ySR":501.8,"xT1":424.9,"yT1":0,"xT2":1058.1,"yT2":0,"toosoon":0,"cond_shown":"Congruent","ratio_trial":200,"L_num":3,"L_den":10,"R_num":14,"R_den":28,"correct_side":2,"subjID":"nataliacorrealcaceres3","gender":" 1","school":" sexto","age":" 11"},{"start_time":1551886996904,"click_time":1551886998633,"finger_time":1551886998553,"fix_duration":769.0545736812103,"trial":6,"RT":1649,"MT":80,"sideResp":1,"stimulus":[],"xmouse":[761,761,761,761,761,761,761,761,761,761,761,761,761,761,761,761,761,761,761,761,761,761,761,761,761,761,761,761,761,761,761,761,761,761,761,761,761,761,761,761,761,761,761,761,761,761,761,761,761,761,761,761,761,761,761,761,761,761,761,761,761,761,761,761,761,761,761,761,761,761,761,761,761,761,761,761,761,761,761,761,761,753,693,640,581,511,450],"ymouse":[538,538,538,538,538,538,538,538,537,537,537,537,537,537,537,537,537,537,537,537,537,537,537,537,537,537,537,537,537,537,537,537,537,537,537,537,537,537,537,537,537,537,537,537,537,537,537,537,537,537,537,537,537,537,537,537,537,537,537,537,537,537,537,537,537,537,537,537,537,537,537,537,537,537,537,537,537,537,537,537,524,504,404,330,243,155,85],"timestamp_mouse":[14,29,54,69,89,109,129,149,169,190,210,229,249,270,290,308,330,349,369,389,409,429,450,469,490,509,529,549,570,590,608,629,649,669,690,709,729,749,769,790,808,829,849,869,888,910,929,950,969,990,1008,1028,1049,1069,1089,1110,1129,1149,1169,1189,1210,1230,1250,1269,1290,1310,1330,1348,1369,1390,1410,1429,1449,1470,1489,1510,1529,1550,1570,1589,1609,1630,1649,1668,1688,1708,1729],"xSR":741.5,"ySR":501.8,"xT1":424.9,"yT1":0,"xT2":1058.1,"yT2":0,"toosoon":0,"cond_shown":"Congruent","ratio_trial":200,"L_num":12,"L_den":15,"R_num":6,"R_den":10,"correct_side":1,"subjID":"nataliacorrealcaceres3","gender":" 1","school":" sexto","age":" 11"},{"start_time":1551887002696,"click_time":1551887005873,"finger_time":1551887005273,"fix_duration":521.5361530413604,"trial":7,"RT":2577,"MT":600,"sideResp":2,"stimulus":[],"xmouse":[770,770,770,770,770,770,770,770,770,770,770,770,770,770,770,770,770,770,770,770,770,770,770,770,770,770,770,770,770,770,770,770,770,770,770,770,770,770,770,770,770,770,770,770,770,770,770,770,770,770,770,770,770,770,770,770,770,770,770,770,770,770,770,770,770,770,770,770,770,770,770,770,770,770,770,770,770,770,770,770,770,770,770,770,770,770,770,770,770,770,770,770,770,770,770,770,770,770,770,770,770,770,770,770,770,770,770,770,770,770,770,770,770,770,769,769,769,769,769,769,769,769,769,769,769,769,773,789,803,807,811,816,822,842,858,879,883,897,911,917,921,929,967,1004,1051,1051,1051,1051,1051,1051,1051,1051,1051,1051,1051,1051,1051,1051,1063],"ymouse":[546,546,546,546,546,546,546,546,546,546,546,546,546,546,546,546,546,546,546,546,546,545,543,543,543,543,543,543,543,543,543,543,543,543,543,543,543,543,543,543,543,543,543,541,539,538,537,537,537,537,537,537,537,537,537,537,537,537,537,537,537,537,537,537,537,537,537,537,537,537,537,537,537,537,537,537,537,537,537,537,537,537,537,537,537,537,537,537,537,537,537,537,537,537,537,537,537,537,537,537,537,537,537,537,537,537,537,537,537,537,537,537,537,537,537,537,537,537,537,537,537,537,537,537,537,532,524,503,483,478,471,463,452,420,399,368,359,336,313,302,295,283,209,135,40,40,40,40,40,40,40,40,40,40,40,40,40,40,15],"timestamp_mouse":[17,38,57,76,97,118,138,158,177,198,217,238,258,278,298,318,338,357,377,398,418,437,458,478,498,518,537,557,578,597,618,638,657,678,697,717,738,757,778,799,816,838,858,877,898,917,938,958,977,998,1018,1037,1056,1078,1097,1117,1138,1157,1177,1198,1218,1238,1256,1277,1297,1318,1338,1358,1378,1397,1418,1437,1458,1477,1497,1516,1537,1558,1578,1598,1618,1638,1657,1677,1697,1718,1738,1757,1777,1797,1818,1837,1858,1877,1898,1917,1937,1957,1977,1998,2018,2038,2056,2078,2098,2116,2138,2157,2178,2198,2217,2237,2258,2277,2297,2319,2345,2357,2378,2397,2418,2438,2458,2478,2498,2517,2538,2557,2577,2598,2617,2637,2659,2677,2697,2717,2737,2757,2777,2797,2818,2837,2859,2877,2897,2917,2938,2960,2977,2998,3017,3037,3060,3077,3097,3117,3138,3157,3176],"xSR":741.5,"ySR":501.8,"xT1":424.9,"yT1":0,"xT2":1058.1,"yT2":0,"toosoon":0,"cond_shown":"Incongruent","ratio_trial":100,"L_num":9,"L_den":10,"R_num":20,"R_den":25,"correct_side":1,"subjID":"nataliacorrealcaceres3","gender":" 1","school":" sexto","age":" 11"},{"start_time":1551887008195,"click_time":1551887052673,"finger_time":1551887052653,"fix_duration":800.4746331392462,"trial":8,"RT":44458,"MT":20,"sideResp":1,"stimulus":[],"xmouse":[765,765,765,764,764,764,764,762,757,756,756,756,756,756,756,756,756,756,756,756,756,756,756,756,756,756,756,756,756,756,756,756,756,756,756,756,756,756,756,756,756,756,756,756,756,756,756,756,756,756,756,756,756,756,756,756,756,756,756,756,756,756,756,756,756,756,756,756,756,756,756,756,756,756,756,756,756,753,752,746,746,746,746,746,746,746,746,746,746,746,746,746,746,746,746,746,746,746,746,746,746,746,746,746,746,750,754,757,758,758,758,762,764,776,788,802,813,817,818,818,818,818,818,818,818,818,818,818,818,818,818,818,818,818,818,818,818,818,818,818,818,818,818,818,818,817,817,817,817,817,817,817,817,817,817,817,817,817,817,817,817,817,817,817,817,817,817,817,817,817,817,817,817,817,817,817,817,817,817,817,817,817,817,817,817,817,817,817,817,817,817,817,817,817,817,817,817,817,817,817,817,817,817,817,817,817,817,817,817,817,817,817,817,817,817,817,817,817,817,817,817,817,817,817,817,817,817,817,817,817,817,817,817,817,817,817,817,817,817,817,817,817,817,817,817,817,817,817,817,817,817,817,817,817,817,817,817,817,817,817,817,817,817,817,817,817,817,817,817,817,817,817,817,817,817,817,817,817,817,817,817,817,817,817,817,817,817,817,817,817,817,817,817,817,817,817,817,817,817,817,817,817,817,817,817,817,817,817,817,817,817,817,817,817,817,817,817,817,817,817,817,817,817,817,817,817,817,817,817,817,817,817,817,817,817,817,817,817,817,817,817,813,811,811,811,811,811,811,811,810,809,809,809,808,808,807,806,805,803,803,802,802,800,799,793,793,793,793,793,793,793,792,792,790,787,785,783,780,779,779,779,779,779,779,779,777,777,777,776,776,776,776,776,776,776,776,776,776,776,776,776,776,776,776,776,776,776,776,776,776,776,776,776,776,776,777,779,781,782,784,784,784,784,784,784,784,784,784,784,784,784,784,784,784,784,784,784,784,784,784,784,784,784,784,784,784,784,784,784,784,784,784,784,784,784,784,784,784,784,784,784,784,784,784,784,784,784,784,784,784,784,784,784,784,784,784,784,784,784,784,784,784,784,784,784,784,784,784,784,784,784,788,790,791,791,791,791,789,788,788,788,788,788,788,787,787,787,787,787,788,788,788,788,788,788,788,788,788,788,788,788,788,788,788,788,788,788,788,788,788,788,788,788,788,788,788,788,788,788,788,788,788,788,788,788,788,788,788,788,784,781,779,779,779,778,778,777,777,776,776,776,776,776,776,776,777,777,779,781,784,785,785,785,785,785,785,785,785,785,785,785,785,785,785,785,786,786,784,784,784,784,784,784,784,784,784,784,784,784,785,786,787,788,788,789,790,790,790,790,790,790,790,790,790,790,790,790,790,790,790,790,790,790,790,790,790,792,793,794,795,795,795,795,795,795,795,795,795,795,795,795,795,795,795,795,795,795,795,795,795,795,795,795,795,795,796,797,797,797,798,798,798,798,798,798,798,798,798,798,798,798,798,798,798,798,798,798,798,798,799,799,799,799,800,801,802,802,802,802,802,802,802,802,802,802,802,802,802,802,802,802,802,802,802,802,802,802,802,802,802,802,802,802,802,802,802,802,802,802,802,802,802,802,802,802,802,802,802,802,802,802,802,802,802,802,802,802,802,802,802,802,802,802,802,802,802,802,802,802,802,802,802,802,802,802,802,802,802,802,802,802,802,802,802,802,802,802,802,802,802,802,802,802,802,802,802,802,802,802,802,802,802,802,802,802,802,802,802,802,802,802,802,802,802,802,802,802,802,802,802,802,802,802,792,781,779,779,779,779,779,779,779,779,779,779,782,784,785,786,787,787,787,788,788,788,788,788,788,788,788,788,788,788,788,788,788,788,788,788,788,788,788,788,788,788,788,788,788,788,788,788,788,788,788,788,788,788,788,788,788,788,788,788,788,788,788,788,788,788,788,788,788,788,788,788,788,788,788,788,788,788,788,788,788,788,788,788,788,788,788,788,788,788,788,788,788,788,788,788,788,788,788,788,788,788,788,788,788,788,788,788,788,788,788,788,788,788,788,788,788,788,788,788,788,788,788,788,788,788,788,788,788,788,788,788,788,788,788,788,788,788,788,788,788,788,788,788,788,788,788,788,788,788,788,788,788,788,788,788,788,788,788,788,788,788,788,788,788,788,788,788,788,788,788,788,788,788,788,788,788,788,788,788,788,788,788,788,788,788,788,788,788,788,788,788,788,788,788,788,788,788,788,788,788,788,788,788,788,788,788,788,788,788,788,788,788,788,788,788,788,788,788,788,788,788,788,788,788,788,788,788,788,788,788,788,788,788,788,788,788,788,788,788,788,788,788,788,788,788,788,788,788,788,788,788,788,788,788,788,788,788,788,788,788,788,789,789,790,790,790,790,790,790,790,790,790,790,790,790,790,790,790,790,790,790,790,790,790,790,790,790,790,790,790,790,790,790,790,790,790,790,790,790,790,790,790,790,790,790,790,790,790,790,790,790,790,790,790,790,790,790,790,790,790,790,790,790,790,790,790,790,790,790,790,790,790,790,790,790,790,790,790,790,790,790,790,790,790,790,790,790,790,790,790,790,790,790,790,790,790,790,790,790,790,790,790,790,790,790,790,790,790,790,790,790,790,790,790,790,790,790,790,790,790,790,790,790,790,790,790,790,790,790,790,790,790,790,790,790,790,790,790,790,790,790,790,790,790,790,790,790,790,790,790,790,790,790,790,790,790,790,790,788,783,779,775,775,775,775,775,775,775,775,775,775,775,775,775,775,775,775,775,774,774,774,774,774,774,774,774,774,774,774,774,774,774,775,780,782,784,785,785,785,785,785,785,785,785,785,785,785,785,785,785,785,785,785,785,785,785,785,785,785,785,785,785,785,785,785,785,785,785,785,785,785,785,785,785,785,785,785,785,785,785,785,785,785,785,785,785,785,785,785,785,785,785,785,785,785,785,785,785,784,781,780,775,774,773,773,773,773,773,772,771,771,770,770,770,770,770,770,770,770,770,770,770,770,770,770,770,770,770,770,770,770,770,772,775,777,778,778,780,781,781,781,782,782,783,784,786,788,789,789,789,789,789,789,789,789,789,789,789,789,789,789,789,789,789,789,789,789,789,789,789,789,789,789,789,789,789,789,789,789,786,783,779,778,778,778,778,778,778,778,778,778,778,778,778,778,778,778,778,778,778,778,778,778,778,778,778,778,778,778,778,778,778,778,778,778,778,778,778,778,778,778,778,778,778,778,778,778,778,778,778,778,778,778,778,778,778,778,778,778,778,778,778,778,778,778,778,778,778,778,778,778,778,778,778,778,778,778,778,778,778,778,778,778,778,778,778,778,778,778,778,778,778,778,778,778,778,778,778,778,778,778,778,778,778,778,778,778,778,778,778,778,778,778,778,778,778,778,778,778,778,778,778,778,778,778,778,778,778,778,778,778,778,778,778,778,778,778,778,778,778,778,778,778,778,778,778,778,778,778,778,778,778,778,778,778,778,778,778,778,778,778,778,778,778,778,778,778,778,778,778,778,778,778,778,778,778,778,778,778,778,778,778,778,778,778,778,778,778,778,778,778,778,778,778,778,778,778,778,778,778,778,778,778,778,778,778,778,778,778,778,778,778,778,778,778,778,778,778,778,778,778,778,778,778,778,778,778,778,778,778,778,778,778,778,778,778,778,778,778,778,778,778,778,778,778,778,778,778,778,778,778,778,778,778,778,778,778,778,778,778,778,778,778,778,778,778,778,778,778,778,778,778,778,778,778,778,778,778,778,778,778,778,778,778,778,778,778,778,778,778,778,778,778,778,778,778,778,778,778,778,778,778,778,778,778,778,778,778,778,778,778,778,778,778,778,778,778,778,778,778,778,778,778,778,778,778,778,778,778,778,778,778,778,778,778,778,778,778,778,778,778,778,778,778,778,778,778,778,778,778,778,778,778,778,778,778,778,778,778,778,778,778,778,778,778,778,778,778,778,778,778,778,778,778,778,778,778,778,778,778,778,778,778,778,778,778,778,778,778,778,778,778,778,778,778,778,778,778,778,778,778,778,778,778,778,778,778,778,778,778,778,778,778,778,778,778,778,778,778,778,778,778,778,778,778,778,778,778,778,778,778,778,778,778,778,778,778,778,778,778,778,778,778,778,778,778,778,778,778,778,778,778,778,778,778,778,778,778,778,778,778,778,778,778,778,778,778,778,778,778,778,778,778,778,778,778,778,778,778,778,778,778,778,778,778,778,778,778,778,778,778,778,778,778,778,778,778,778,778,778,778,778,778,778,778,778,778,778,778,778,778,778,778,778,778,778,778,778,778,778,778,778,778,778,778,778,778,778,778,778,778,778,778,778,778,778,778,778,778,778,778,778,778,778,778,778,778,778,778,778,778,778,778,778,778,778,778,778,778,778,778,778,778,778,778,778,778,778,778,778,778,778,778,778,778,778,778,778,778,778,778,778,778,778,778,778,778,778,778,778,778,778,778,778,778,778,778,778,778,778,778,778,778,778,778,778,778,778,778,778,778,778,778,778,778,778,778,778,778,778,778,778,778,778,778,778,778,778,778,778,778,778,778,778,778,778,778,778,778,778,778,778,778,778,778,778,778,778,778,778,778,778,778,778,778,778,778,778,778,778,778,778,778,778,778,778,778,778,778,778,778,778,778,778,778,778,778,778,778,778,778,778,778,778,778,778,778,778,778,778,778,778,778,778,778,778,778,778,778,778,778,778,778,778,778,778,778,778,778,778,778,778,778,778,778,778,778,778,778,778,778,778,778,778,778,778,778,778,778,778,778,778,778,778,778,778,778,778,778,778,778,778,778,778,778,778,778,778,778,778,778,778,778,778,778,778,778,778,778,778,778,778,778,778,778,778,778,778,778,778,778,778,778,778,778,778,778,778,778,778,778,778,778,778,778,778,778,778,778,778,778,778,778,778,778,778,778,778,778,778,778,778,778,778,778,778,778,778,778,778,778,778,778,778,778,778,778,777,628,483],"ymouse":[559,559,559,559,559,559,559,558,550,550,550,550,550,550,550,550,550,550,550,550,550,550,550,550,550,550,550,550,550,550,550,550,550,550,550,550,550,550,550,550,550,550,550,550,550,550,550,550,550,550,550,550,550,550,550,550,550,550,550,550,550,550,550,550,550,550,550,550,550,550,550,550,550,550,550,548,544,538,537,536,536,536,536,536,536,536,536,536,536,536,536,533,532,532,532,532,532,532,532,532,532,532,532,532,532,532,533,535,536,536,536,537,537,544,554,564,573,576,577,577,577,577,577,577,577,578,578,578,579,579,579,579,579,579,579,579,579,579,579,579,579,579,579,579,579,578,577,577,577,577,577,577,577,577,577,577,577,577,577,577,577,577,577,577,577,577,577,577,577,577,577,577,577,577,577,577,577,577,577,577,577,577,577,577,577,577,577,577,577,577,577,577,577,577,577,577,577,577,577,577,577,577,577,577,577,577,577,577,577,577,577,577,577,577,577,577,577,577,577,577,577,577,577,574,573,572,572,571,571,571,571,571,571,571,571,571,571,571,571,571,571,571,571,571,571,571,571,571,571,571,571,571,571,571,571,571,571,571,571,571,571,571,571,571,571,571,571,571,571,571,571,571,571,571,571,571,571,571,571,571,571,571,571,571,571,571,571,571,571,571,571,571,571,571,571,571,571,571,571,571,571,571,571,571,571,571,571,571,571,571,571,571,571,571,571,571,571,571,571,571,571,571,571,571,571,571,571,571,571,571,571,571,571,571,571,571,571,571,571,571,570,568,566,566,566,566,566,566,566,565,564,563,562,562,561,559,559,559,558,558,557,554,552,548,543,543,543,543,543,543,543,543,543,543,542,542,542,542,542,542,542,542,542,542,542,543,544,548,550,553,554,554,554,554,554,554,554,554,554,554,554,554,554,554,554,554,554,554,554,554,554,554,554,554,554,554,553,552,551,550,550,550,549,549,549,549,549,549,549,549,549,549,549,549,549,549,549,549,549,549,549,549,549,549,549,549,549,549,549,549,549,549,549,549,549,549,549,549,549,549,549,549,549,549,549,549,549,549,549,549,549,549,549,549,549,549,549,549,549,549,549,549,549,549,549,549,549,549,549,549,549,536,530,530,530,530,530,533,535,535,535,535,535,536,539,540,540,540,540,535,533,531,531,531,531,531,531,531,531,531,531,531,531,531,531,531,531,531,531,531,531,531,531,531,531,531,531,531,531,531,531,531,531,531,531,531,531,531,532,535,538,539,539,539,541,544,546,548,550,552,553,555,555,556,556,556,556,557,558,558,558,558,558,558,558,558,558,558,558,558,558,558,558,558,558,559,561,563,563,563,562,561,561,561,561,561,561,561,561,560,560,560,560,560,560,560,560,560,560,560,560,560,560,560,560,560,560,560,560,560,560,560,560,560,560,560,559,557,556,554,554,554,554,554,554,554,554,554,554,554,554,554,554,554,554,554,554,554,554,554,554,554,554,554,554,551,550,548,547,546,546,545,545,545,545,545,545,545,545,545,545,545,545,545,545,545,545,545,544,542,542,542,542,540,535,534,534,534,534,534,534,534,534,534,534,534,534,534,534,534,534,534,534,534,534,534,534,534,534,534,534,534,534,534,534,534,534,534,534,534,534,534,534,534,534,534,534,534,534,534,534,534,534,534,534,534,534,534,534,534,534,534,534,534,534,534,534,534,534,534,534,534,534,534,534,534,534,534,534,534,534,534,534,534,534,534,534,534,534,534,534,534,534,534,534,534,534,534,534,534,534,534,534,534,534,534,534,534,534,534,534,534,534,534,534,534,534,534,534,534,534,534,534,536,540,542,542,542,542,542,542,542,542,543,545,550,552,554,556,557,557,558,561,561,561,561,561,561,561,561,561,561,561,561,561,561,561,561,561,561,561,561,561,561,561,561,561,561,561,561,561,561,561,561,561,561,561,561,561,561,561,561,561,561,561,561,561,561,561,561,561,561,561,561,561,561,561,561,561,561,561,561,561,561,561,561,561,561,561,561,561,561,561,561,561,561,561,561,561,561,561,561,561,561,561,561,561,561,561,561,561,561,561,561,561,561,561,561,561,561,561,561,561,561,561,561,561,561,561,561,561,561,561,561,561,561,561,561,561,561,561,561,561,561,561,561,561,561,561,561,561,561,561,561,561,561,561,561,561,561,561,561,561,561,561,561,561,561,561,561,561,561,561,561,561,561,561,561,561,561,561,561,561,561,561,561,561,561,561,561,561,561,561,561,561,561,561,561,561,561,561,561,561,561,561,561,561,561,561,561,561,561,561,561,561,561,561,561,561,561,561,561,561,561,561,561,561,561,561,561,561,561,561,561,561,561,561,561,561,561,561,561,561,561,561,561,561,561,561,561,561,561,561,561,561,561,561,561,561,561,561,561,561,561,561,560,558,556,556,556,556,556,556,556,556,556,556,554,552,551,551,551,551,551,551,551,549,548,548,547,547,547,547,547,547,547,547,547,547,547,547,547,547,547,547,547,547,547,547,547,547,547,547,547,547,547,547,547,547,547,547,547,547,547,547,547,547,547,547,547,547,547,547,547,547,547,547,547,547,547,547,547,547,547,547,547,547,547,547,547,547,547,547,547,547,547,547,547,547,547,547,547,547,547,547,547,547,547,547,547,547,547,547,547,547,547,547,547,547,547,547,547,547,547,547,547,547,547,547,547,547,547,547,547,547,547,547,547,547,547,547,547,547,547,547,547,547,547,547,547,547,547,547,547,547,547,547,547,547,547,547,547,546,544,543,542,542,542,542,542,542,542,542,542,542,542,542,541,540,539,538,536,535,535,535,535,535,535,535,535,535,535,535,535,535,535,535,536,537,538,538,538,538,538,538,538,538,538,538,538,538,538,538,538,538,538,538,538,538,538,538,538,538,538,538,538,538,538,538,538,538,538,538,538,538,538,538,538,538,538,538,538,538,538,538,539,539,539,539,539,539,539,541,542,542,542,542,542,542,542,542,542,542,544,545,549,551,551,551,551,551,552,553,555,556,558,558,558,558,558,558,558,558,558,558,558,558,558,558,558,558,558,558,558,558,558,558,558,557,556,556,556,555,555,555,555,554,553,552,551,548,547,547,547,547,547,547,547,547,547,547,547,547,547,547,547,547,547,547,547,547,547,547,547,547,547,547,547,547,547,547,547,547,552,555,559,559,559,559,559,559,559,559,559,559,559,559,559,559,559,559,559,559,559,559,559,559,559,559,559,559,559,559,559,559,559,559,559,559,559,559,559,559,559,559,559,559,559,559,559,559,559,559,559,559,559,559,559,559,559,559,559,559,559,559,559,559,559,559,559,559,559,559,559,559,559,559,559,559,559,559,559,559,559,559,559,559,559,559,559,559,559,559,559,559,559,559,559,559,559,559,559,559,559,559,559,559,559,559,559,559,559,559,559,559,559,559,559,559,559,559,559,559,559,559,559,559,559,559,559,559,559,559,559,559,559,559,559,559,559,559,559,559,559,559,559,559,559,559,559,559,559,559,559,559,559,559,559,559,559,559,559,559,559,559,559,559,559,559,559,559,559,559,559,559,559,559,559,559,559,559,559,559,559,559,559,559,559,559,559,559,559,559,559,559,559,559,559,559,559,559,559,559,559,559,559,559,559,559,559,559,559,559,559,559,559,559,559,559,559,559,559,559,559,559,559,559,559,559,559,559,559,559,559,559,559,559,559,559,559,559,559,559,559,559,559,559,559,559,559,559,559,559,559,559,559,559,559,559,559,559,559,559,559,559,559,559,559,559,559,559,559,559,559,559,559,559,559,559,559,559,559,559,559,559,559,559,559,559,559,559,559,559,559,559,559,559,559,559,559,559,559,559,559,559,559,559,559,559,559,559,559,559,559,559,559,559,559,559,559,559,559,559,559,559,559,559,559,559,559,559,559,559,559,559,559,559,559,559,559,559,559,559,559,559,559,559,559,559,559,559,559,559,559,559,559,559,559,559,559,559,559,559,559,559,559,559,559,559,559,559,559,559,559,559,559,559,559,559,559,559,559,559,559,559,559,559,559,559,559,559,559,559,559,559,559,559,559,559,559,559,559,559,559,559,559,559,559,559,559,559,559,559,559,559,559,559,559,559,559,559,559,559,559,559,559,559,559,559,559,559,559,559,559,559,559,559,559,559,559,559,559,559,559,559,559,559,559,559,559,559,559,559,559,559,559,559,559,559,559,559,559,559,559,559,559,559,559,559,559,559,559,559,559,559,559,559,559,559,559,559,559,559,559,559,559,559,559,559,559,559,559,559,559,559,559,559,559,559,559,559,559,559,559,559,559,559,559,559,559,559,559,559,559,559,559,559,559,559,559,559,559,559,559,559,559,559,559,559,559,559,559,559,559,559,559,559,559,559,559,559,559,559,559,559,559,559,559,559,559,559,559,559,559,559,559,559,559,559,559,559,559,559,559,559,559,559,559,559,559,559,559,559,559,559,559,559,559,559,559,559,559,559,559,559,559,559,559,559,559,559,559,559,559,559,559,559,559,559,559,559,559,559,559,559,559,559,559,559,559,559,559,559,559,559,559,559,559,559,559,559,559,559,559,559,559,559,559,559,559,559,559,559,559,559,559,559,559,559,559,559,559,559,559,559,559,559,559,559,559,559,559,559,559,559,559,559,559,559,559,559,559,559,559,559,559,559,559,559,559,559,559,559,559,559,559,559,559,559,559,559,559,559,559,559,559,559,559,559,559,559,559,559,559,559,559,559,559,559,559,559,559,559,559,559,559,559,559,559,559,559,559,559,559,559,559,559,559,559,559,559,559,559,559,559,559,559,559,559,559,559,559,559,559,559,559,559,559,559,559,559,559,559,559,559,559,559,559,559,559,559,559,559,559,559,559,559,559,559,559,559,559,559,559,559,559,559,559,559,559,559,559,559,559,559,559,559,559,559,559,559,559,559,559,559,559,559,559,559,559,559,559,559,559,559,559,559,559,559,559,559,559,559,559,559,559,559,559,559,559,559,559,559,559,559,559,559,559,559,559,559,559,303,88],"timestamp_mouse":[18,52,58,78,98,119,138,158,178,199,218,238,259,278,298,318,339,358,379,398,419,438,459,478,498,519,539,560,579,598,619,639,659,679,699,719,739,758,779,798,819,839,859,879,899,918,938,958,978,998,1019,1038,1059,1078,1099,1118,1139,1159,1179,1199,1219,1239,1259,1279,1298,1319,1339,1358,1378,1399,1419,1439,1458,1479,1499,1518,1538,1558,1578,1598,1618,1639,1659,1678,1699,1719,1739,1759,1778,1798,1819,1838,1859,1878,1898,1918,1939,1958,1978,1999,2019,2038,2058,2078,2098,2118,2138,2158,2178,2198,2219,2239,2258,2278,2298,2319,2339,2358,2379,2398,2418,2439,2459,2478,2498,2518,2538,2558,2579,2598,2618,2639,2658,2678,2699,2719,2738,2759,2778,2798,2818,2839,2859,2878,2898,2919,2938,2959,2978,2999,3019,3038,3059,3078,3099,3119,3139,3158,3178,3198,3218,3239,3259,3278,3298,3319,3338,3359,3378,3399,3419,3439,3459,3478,3499,3518,3539,3558,3578,3599,3618,3639,3659,3678,3699,3719,3738,3759,3778,3798,3818,3839,3859,3878,3899,3918,3938,3959,3978,3999,4019,4039,4059,4078,4099,4118,4139,4158,4179,4198,4219,4239,4259,4279,4299,4318,4339,4359,4379,4399,4418,4438,4458,4479,4498,4519,4538,4559,4578,4598,4619,4638,4659,4678,4699,4719,4739,4759,4779,4798,4819,4838,4858,4879,4899,4918,4938,4959,4978,4998,5018,5038,5059,5078,5098,5118,5138,5159,5179,5199,5218,5238,5258,5278,5298,5318,5338,5358,5379,5399,5419,5439,5458,5478,5498,5518,5538,5559,5578,5598,5618,5639,5659,5678,5698,5719,5738,5758,5779,5799,5819,5838,5859,5879,5899,5919,5939,5959,5978,5999,6018,6038,6059,6079,6099,6118,6138,6158,6179,6198,6218,6239,6258,6278,6298,6319,6339,6359,6378,6400,6419,6439,6458,6479,6499,6520,6539,6559,6578,6599,6618,6638,6659,6679,6698,6719,6739,6758,6779,6798,6818,6838,6859,6878,6898,6918,6938,6959,6978,6999,7018,7038,7058,7078,7098,7118,7138,7159,7179,7199,7218,7239,7259,7278,7298,7318,7338,7359,7379,7398,7418,7438,7458,7478,7497,7519,7538,7559,7578,7598,7618,7638,7658,7678,7699,7719,7738,7758,7778,7798,7818,7838,7858,7878,7898,7918,7938,7958,7979,7999,8019,8039,8060,8079,8098,8119,8139,8171,8178,8198,8218,8243,8258,8279,8298,8319,8338,8359,8378,8399,8418,8439,8458,8478,8499,8518,8539,8559,8578,8599,8619,8639,8659,8679,8698,8719,8739,8759,8778,8798,8819,8838,8858,8878,8898,8919,8938,8958,8978,8998,9019,9038,9059,9078,9098,9119,9138,9159,9179,9198,9219,9238,9258,9278,9299,9318,9339,9358,9379,9399,9419,9438,9459,9478,9499,9519,9538,9559,9578,9599,9619,9638,9659,9679,9699,9719,9739,9758,9779,9799,9818,9838,9858,9878,9898,9919,9938,9959,9978,9999,10019,10038,10059,10078,10099,10118,10139,10159,10178,10198,10218,10239,10259,10279,10298,10318,10338,10359,10378,10399,10418,10438,10458,10478,10498,10518,10539,10558,10578,10598,10618,10638,10658,10678,10697,10717,10739,10759,10779,10799,10819,10838,10859,10879,10899,10918,10938,10958,10978,10999,11018,11038,11058,11078,11099,11119,11138,11158,11178,11198,11218,11239,11258,11279,11298,11318,11338,11358,11378,11398,11418,11438,11458,11478,11498,11518,11539,11558,11579,11598,11619,11639,11659,11678,11698,11719,11738,11758,11778,11798,11818,11838,11859,11879,11899,11919,11939,11958,11978,11999,12018,12038,12058,12079,12098,12118,12138,12159,12178,12199,12218,12238,12258,12278,12298,12319,12338,12358,12378,12398,12418,12439,12458,12478,12498,12518,12538,12559,12579,12599,12618,12638,12658,12678,12698,12718,12738,12758,12778,12798,12819,12838,12859,12879,12898,12919,12939,12958,12979,12999,13019,13039,13058,13079,13098,13118,13138,13159,13178,13198,13218,13239,13258,13279,13298,13319,13338,13359,13378,13399,13419,13438,13458,13479,13498,13518,13538,13559,13578,13598,13619,13638,13659,13678,13698,13718,13738,13759,13778,13799,13818,13838,13859,13878,13899,13919,13938,13958,13979,13998,14019,14038,14059,14079,14099,14119,14139,14159,14180,14198,14219,14239,14258,14279,14299,14319,14338,14358,14379,14398,14418,14438,14459,14478,14499,14518,14539,14559,14579,14598,14619,14639,14658,14679,14699,14718,14738,14758,14779,14798,14818,14838,14858,14878,14899,14918,14939,14959,14978,14999,15019,15038,15059,15078,15098,15118,15139,15158,15178,15199,15218,15238,15259,15278,15299,15319,15338,15358,15379,15398,15419,15439,15459,15478,15498,15518,15539,15559,15578,15598,15619,15638,15659,15679,15699,15719,15738,15758,15779,15798,15819,15838,15859,15879,15899,15918,15938,15959,15979,15998,16018,16039,16058,16078,16098,16119,16139,16158,16178,16198,16218,16239,16259,16278,16299,16318,16338,16358,16378,16399,16419,16439,16459,16478,16499,16519,16538,16559,16579,16599,16618,16639,16659,16679,16699,16719,16739,16759,16779,16798,16819,16838,16858,16879,16898,16919,16938,16959,16978,16998,17019,17039,17059,17079,17098,17119,17139,17159,17178,17199,17219,17240,17259,17279,17298,17319,17339,17359,17378,17398,17418,17439,17459,17479,17498,17518,17538,17559,17579,17598,17618,17638,17659,17678,17698,17718,17739,17758,17778,17798,17818,17839,17858,17878,17899,17919,17938,17958,17979,17999,18019,18038,18059,18079,18099,18119,18139,18159,18179,18199,18219,18239,18258,18278,18299,18319,18339,18358,18379,18399,18419,18439,18459,18478,18498,18518,18538,18559,18578,18599,18618,18638,18658,18678,18699,18718,18739,18758,18778,18799,18818,18838,18859,18878,18898,18918,18939,18958,18979,18998,19019,19038,19058,19079,19098,19118,19138,19158,19179,19199,19220,19240,19259,19279,19298,19318,19339,19359,19378,19399,19418,19439,19460,19478,19499,19518,19538,19558,19579,19599,19619,19639,19658,19679,19699,19718,19738,19759,19778,19799,19819,19839,19859,19879,19899,19918,19939,19959,19979,19999,20018,20038,20059,20078,20098,20118,20140,20159,20179,20199,20218,20238,20258,20278,20298,20318,20339,20359,20378,20399,20418,20439,20459,20478,20499,20519,20539,20559,20578,20599,20618,20639,20658,20679,20699,20719,20738,20759,20779,20799,20819,20839,20859,20878,20899,20919,20938,20958,20979,20998,21019,21039,21059,21079,21099,21119,21139,21159,21179,21200,21218,21239,21259,21279,21299,21318,21338,21358,21378,21399,21419,21438,21458,21479,21498,21518,21538,21558,21579,21599,21618,21638,21658,21678,21699,21718,21738,21759,21779,21799,21818,21838,21858,21879,21899,21919,21939,21958,21979,21999,22019,22038,22059,22078,22099,22118,22139,22158,22178,22199,22219,22238,22259,22278,22298,22319,22338,22358,22378,22398,22419,22438,22459,22478,22499,22519,22538,22558,22579,22598,22618,22638,22659,22678,22699,22718,22738,22758,22779,22799,22818,22838,22858,22878,22899,22918,22938,22958,22978,22999,23018,23039,23059,23079,23098,23119,23139,23159,23179,23199,23218,23238,23259,23278,23299,23318,23338,23358,23379,23398,23419,23439,23459,23479,23498,23518,23539,23558,23578,23599,23618,23639,23658,23678,23698,23718,23739,23758,23778,23799,23818,23838,23859,23878,23898,23919,23938,23958,23978,23998,24018,24038,24059,24079,24099,24119,24138,24159,24178,24199,24219,24239,24259,24279,24300,24319,24339,24359,24379,24398,24418,24439,24458,24479,24498,24519,24538,24558,24579,24599,24618,24638,24658,24679,24698,24718,24739,24759,24778,24798,24819,24839,24859,24879,24899,24919,24938,24958,24979,24998,25018,25038,25059,25078,25099,25118,25138,25158,25178,25199,25218,25239,25258,25278,25299,25318,25339,25358,25379,25399,25418,25439,25458,25479,25498,25518,25539,25559,25579,25598,25618,25639,25658,25679,25698,25718,25739,25759,25780,25799,25818,25839,25859,25879,25898,25918,25939,25959,25978,25999,26019,26038,26058,26079,26099,26119,26139,26159,26179,26199,26218,26238,26258,26279,26298,26318,26338,26358,26378,26398,26419,26439,26458,26478,26499,26519,26537,26559,26579,26598,26618,26639,26658,26678,26698,26719,26738,26759,26778,26799,26818,26838,26858,26878,26899,26918,26938,26958,26978,26998,27019,27039,27058,27078,27099,27118,27138,27158,27179,27198,27219,27238,27258,27279,27299,27318,27338,27358,27378,27399,27418,27439,27458,27478,27499,27518,27539,27559,27579,27599,27619,27638,27659,27678,27699,27719,27738,27758,27779,27798,27819,27838,27859,27879,27898,27919,27938,27958,27979,27998,28019,28038,28057,28078,28098,28119,28138,28158,28178,28199,28219,28239,28258,28278,28299,28319,28338,28358,28379,28398,28418,28438,28459,28478,28499,28518,28538,28559,28578,28598,28619,28638,28659,28680,28699,28719,28739,28758,28779,28799,28818,28838,28859,28878,28898,28918,28938,28959,28979,28999,29018,29038,29058,29079,29098,29118,29139,29159,29178,29198,29218,29238,29259,29278,29298,29319,29338,29359,29379,29399,29418,29438,29458,29479,29499,29519,29539,29559,29579,29599,29619,29638,29659,29678,29699,29719,29738,29759,29779,29798,29818,29838,29859,29878,29899,29919,29938,29959,29978,29999,30018,30038,30059,30079,30098,30118,30138,30158,30179,30199,30218,30239,30259,30278,30300,30319,30338,30358,30378,30398,30419,30438,30458,30479,30498,30518,30538,30558,30578,30599,30618,30638,30659,30678,30698,30718,30739,30758,30779,30798,30818,30838,30859,30878,30898,30919,30938,30958,30978,30999,31018,31038,31059,31078,31098,31119,31138,31158,31178,31198,31218,31239,31258,31278,31300,31318,31339,31359,31379,31398,31418,31439,31459,31478,31499,31518,31539,31559,31578,31598,31619,31639,31659,31679,31699,31719,31739,31759,31780,31798,31818,31838,31859,31878,31899,31918,31938,31959,31978,32000,32019,32039,32058,32078,32098,32118,32138,32159,32178,32198,32218,32238,32258,32279,32300,32319,32338,32359,32378,32399,32419,32439,32459,32479,32499,32518,32538,32559,32579,32599,32618,32638,32658,32679,32699,32717,32738,32759,32778,32799,32819,32839,32859,32879,32899,32918,32939,32959,32978,32999,33019,33039,33059,33078,33099,33118,33138,33159,33178,33198,33219,33238,33259,33278,33299,33318,33339,33360,33378,33399,33419,33438,33459,33479,33499,33519,33538,33559,33578,33599,33619,33638,33659,33679,33698,33719,33738,33759,33779,33799,33818,33838,33859,33878,33899,33919,33939,33958,33979,33998,34019,34038,34059,34079,34099,34118,34139,34159,34179,34198,34219,34238,34259,34279,34299,34319,34338,34359,34379,34399,34419,34438,34459,34479,34499,34518,34538,34558,34579,34599,34619,34639,34659,34679,34698,34719,34739,34759,34778,34798,34819,34839,34859,34880,34899,34919,34938,34958,34978,34999,35019,35039,35059,35079,35098,35118,35139,35159,35178,35199,35218,35238,35259,35279,35299,35319,35338,35359,35379,35398,35419,35439,35459,35479,35498,35519,35539,35558,35579,35599,35619,35639,35659,35679,35699,35719,35739,35759,35778,35799,35818,35838,35858,35878,35898,35919,35938,35958,35978,35999,36018,36039,36058,36079,36099,36118,36138,36158,36179,36198,36219,36239,36258,36279,36299,36319,36339,36358,36379,36399,36418,36439,36458,36479,36499,36518,36539,36560,36579,36599,36619,36638,36658,36678,36699,36718,36738,36758,36779,36798,36819,36839,36858,36879,36898,36919,36939,36959,36978,36998,37019,37039,37058,37079,37099,37119,37139,37158,37178,37198,37219,37239,37258,37279,37298,37318,37339,37358,37378,37398,37418,37439,37459,37478,37498,37519,37538,37558,37579,37599,37619,37638,37658,37678,37699,37718,37738,37758,37778,37799,37818,37839,37859,37879,37898,37919,37939,37958,37979,37998,38019,38038,38058,38079,38099,38118,38139,38158,38179,38198,38219,38239,38258,38278,38299,38319,38339,38358,38379,38399,38419,38439,38458,38479,38499,38518,38539,38558,38578,38599,38619,38638,38658,38679,38699,38719,38738,38759,38779,38799,38818,38838,38859,38879,38898,38919,38939,38958,38978,38998,39018,39038,39059,39078,39098,39118,39139,39159,39179,39199,39218,39239,39258,39279,39298,39318,39338,39359,39379,39398,39418,39439,39459,39479,39499,39519,39538,39559,39579,39599,39618,39639,39658,39678,39699,39718,39739,39759,39778,39799,39819,39839,39858,39879,39899,39919,39939,39958,39978,39999,40018,40038,40059,40078,40098,40119,40139,40159,40179,40199,40218,40238,40259,40278,40299,40319,40338,40358,40379,40398,40419,40439,40459,40478,40498,40519,40538,40558,40579,40598,40618,40639,40659,40678,40699,40719,40738,40759,40778,40798,40818,40839,40859,40878,40898,40919,40938,40959,40978,40998,41018,41039,41058,41079,41099,41118,41139,41159,41179,41199,41219,41239,41258,41279,41298,41318,41338,41359,41378,41399,41419,41439,41458,41479,41498,41519,41539,41558,41579,41598,41618,41638,41658,41678,41698,41719,41738,41758,41779,41799,41819,41838,41858,41879,41899,41919,41939,41959,41979,41999,42019,42039,42058,42079,42099,42119,42139,42159,42179,42200,42219,42238,42258,42279,42300,42319,42338,42359,42377,42399,42419,42439,42459,42479,42499,42519,42538,42558,42579,42599,42618,42639,42659,42679,42698,42719,42738,42758,42779,42799,42818,42839,42859,42878,42899,42919,42939,42959,42979,42999,43019,43038,43059,43079,43098,43119,43138,43158,43178,43199,43219,43238,43259,43280,43299,43319,43339,43358,43379,43398,43419,43438,43458,43479,43498,43518,43539,43558,43579,43598,43620,43639,43658,43679,43698,43718,43739,43759,43779,43799,43819,43838,43858,43878,43899,43919,43938,43959,43979,43999,44019,44039,44059,44079,44098,44118,44139,44158,44178,44199,44219,44238,44259,44279,44299,44318,44338,44358,44378,44399,44419,44440,44458,44477],"xSR":741.5,"ySR":501.8,"xT1":424.9,"yT1":0,"xT2":1058.1,"yT2":0,"toosoon":0,"cond_shown":"Congruent","ratio_trial":200,"L_num":7,"L_den":15,"R_num":18,"R_den":27,"correct_side":2,"subjID":"nataliacorrealcaceres3","gender":" 1","school":" sexto","age":" 11"},{"start_time":1551887057917,"click_time":1551887059673,"finger_time":1551887059274,"fix_duration":462.92684742985057,"trial":9,"RT":1357,"MT":399,"sideResp":1,"stimulus":[],"xmouse":[779,778,778,778,778,778,778,778,778,778,778,778,778,778,778,778,778,778,779,784,787,787,787,787,787,787,786,786,786,786,786,786,786,786,786,786,786,786,786,786,786,786,785,784,783,783,783,783,783,783,783,783,783,783,783,783,783,783,783,783,783,783,783,783,783,778,765,730,714,698,665,645,624,594,592,590,578,578,578,578,578,578,578,578,578,578,578,511],"ymouse":[553,553,552,551,551,551,551,551,551,551,551,551,551,551,551,551,551,551,551,551,550,550,550,550,550,550,549,549,549,549,549,549,549,549,549,549,549,549,549,549,551,553,553,554,555,555,555,555,555,555,555,555,555,555,555,555,555,555,555,555,555,555,555,555,553,548,534,493,471,442,370,331,290,229,183,125,11,11,11,11,11,11,11,11,11,11,11,10],"timestamp_mouse":[16,42,57,76,96,116,137,156,176,197,216,236,257,276,297,317,337,356,376,396,417,436,456,477,496,517,537,556,577,596,617,637,656,677,696,716,737,757,776,797,816,837,856,876,896,916,937,956,976,997,1018,1037,1056,1077,1096,1117,1137,1156,1177,1196,1217,1237,1257,1277,1297,1317,1336,1357,1376,1396,1416,1436,1456,1476,1496,1516,1536,1556,1576,1596,1616,1636,1656,1677,1696,1716,1736,1756],"xSR":741.5,"ySR":501.8,"xT1":424.9,"yT1":0,"xT2":1058.1,"yT2":0,"toosoon":0,"cond_shown":"Congruent","ratio_trial":200,"L_num":20,"L_den":25,"R_num":9,"R_den":15,"correct_side":1,"subjID":"nataliacorrealcaceres3","gender":" 1","school":" sexto","age":" 11"},{"start_time":1551887062204,"click_time":1551887064194,"finger_time":1551887063393,"fix_duration":250,"trial":10,"RT":1189,"MT":801,"sideResp":2,"stimulus":[],"xmouse":[768,768,768,768,768,768,768,768,768,768,768,768,768,768,768,768,768,768,768,768,768,768,768,768,768,768,768,768,768,768,768,768,768,768,768,768,768,768,768,768,768,768,768,768,768,768,768,768,768,768,768,768,768,768,768,768,768,769,774,814,838,863,877,895,916,925,934,944,952,964,967,968,969,971,971,971,973,976,983,996,998,1000,1001,1005,1018,1019,1019,1019,1020,1027,1033,1041,1045,1048,1050,1050,1051,1055,1057,1062],"ymouse":[566,566,566,566,566,566,566,566,566,566,566,566,566,566,566,566,566,566,566,566,566,566,566,566,566,566,566,566,566,566,566,566,566,566,566,566,566,566,566,566,566,566,566,566,566,566,566,566,566,566,566,566,566,566,566,566,566,558,542,461,414,369,334,292,250,231,210,185,159,118,103,94,87,84,84,84,82,81,76,67,65,64,62,62,64,64,64,64,64,66,67,69,71,71,71,70,70,70,70,70],"timestamp_mouse":[27,46,50,69,89,109,129,149,169,189,209,229,249,269,289,309,329,349,370,389,410,430,449,470,489,509,530,550,570,589,609,629,649,669,689,709,729,750,769,789,810,829,849,870,890,909,930,950,970,989,1009,1030,1050,1069,1089,1110,1130,1149,1169,1189,1209,1229,1250,1269,1290,1309,1329,1349,1369,1390,1409,1429,1449,1469,1489,1510,1529,1550,1569,1590,1609,1629,1649,1670,1690,1709,1730,1750,1769,1790,1809,1829,1849,1869,1889,1909,1930,1949,1969,1990],"xSR":741.5,"ySR":501.8,"xT1":424.9,"yT1":0,"xT2":1058.1,"yT2":0,"toosoon":0,"cond_shown":"Congruent","ratio_trial":100,"L_num":2,"L_den":5,"R_num":11,"R_den":22,"correct_side":2,"subjID":"nataliacorrealcaceres3","gender":" 1","school":" sexto","age":" 11"},{"start_time":1551887067499,"click_time":1551887069153,"finger_time":1551887068792,"fix_duration":544.3321647324685,"trial":11,"RT":1293,"MT":361,"sideResp":2,"stimulus":[],"xmouse":[809,809,808,807,807,807,806,805,805,804,804,804,804,804,804,804,804,804,804,804,804,804,804,804,804,804,804,804,804,804,804,804,804,804,804,804,804,804,804,804,804,804,804,804,804,804,804,804,804,804,804,804,804,804,804,804,804,804,804,804,804,804,810,820,832,852,858,872,881,902,981,1035,1035,1035,1035,1035,1035,1035,1035,1035,1035,1035,1086],"ymouse":[564,564,563,563,563,563,561,560,560,560,560,560,560,560,560,560,560,560,560,560,560,560,560,560,560,560,560,560,560,560,560,560,560,560,560,560,560,560,560,560,560,560,560,560,560,560,560,560,560,560,560,560,560,560,560,560,560,560,560,560,560,556,543,520,492,433,408,357,316,239,78,18,18,18,18,18,18,18,18,18,18,18,11],"timestamp_mouse":[15,42,53,73,94,115,135,154,175,193,213,233,254,274,294,314,333,353,375,393,414,434,455,475,494,514,534,553,574,593,613,635,654,673,693,714,733,755,775,794,814,833,854,875,894,914,933,955,973,994,1013,1034,1054,1073,1094,1113,1133,1155,1173,1193,1213,1234,1254,1274,1293,1313,1335,1353,1373,1393,1413,1434,1454,1473,1493,1514,1534,1555,1574,1594,1614,1634,1654],"xSR":741.5,"ySR":501.8,"xT1":424.9,"yT1":0,"xT2":1058.1,"yT2":0,"toosoon":0,"cond_shown":"Congruent","ratio_trial":200,"L_num":5,"L_den":10,"R_num":14,"R_den":20,"correct_side":2,"subjID":"nataliacorrealcaceres3","gender":" 1","school":" sexto","age":" 11"},{"start_time":1551887071981,"click_time":1551887073774,"finger_time":1551887072813,"fix_duration":1407.3671872220546,"trial":12,"RT":832,"MT":961,"sideResp":1,"stimulus":[],"xmouse":[788,788,787,787,787,787,787,787,787,787,787,786,786,786,786,786,786,786,786,786,786,786,786,786,786,786,786,786,786,786,786,786,786,786,786,786,786,786,782,779,778,776,775,774,772,768,755,748,739,729,705,676,625,612,603,597,590,586,586,586,586,588,588,588,575,557,541,538,537,537,536,532,531,531,531,531,531,531,531,531,529,528,528,528,528,527,526,525,525,524],"ymouse":[524,523,523,523,523,523,522,522,522,521,521,520,520,520,520,520,520,520,520,520,520,520,520,520,520,520,520,520,520,520,520,520,520,520,520,520,520,520,515,511,510,501,496,490,482,473,449,436,416,394,338,292,193,167,143,129,117,112,110,107,104,102,102,101,97,91,86,84,83,83,83,82,82,82,82,82,82,82,82,82,81,80,80,80,80,80,80,80,80,80],"timestamp_mouse":[11,31,51,71,92,112,131,153,172,192,213,232,253,272,291,313,332,351,373,393,411,432,452,471,493,512,531,552,572,593,611,631,653,671,692,713,731,751,772,791,812,832,851,871,892,912,932,951,972,992,1012,1031,1051,1071,1092,1111,1132,1152,1172,1191,1212,1231,1252,1271,1292,1312,1333,1352,1372,1391,1411,1432,1451,1472,1492,1513,1532,1551,1572,1593,1612,1632,1651,1672,1691,1711,1731,1752,1773,1793],"xSR":741.5,"ySR":501.8,"xT1":424.9,"yT1":0,"xT2":1058.1,"yT2":0,"toosoon":0,"cond_shown":"Congruent","ratio_trial":300,"L_num":11,"L_den":22,"R_num":4,"R_den":20,"correct_side":1,"subjID":"nataliacorrealcaceres3","gender":" 1","school":" sexto","age":" 11"},{"start_time":1551887076828,"click_time":1551887078453,"finger_time":1551887077932,"fix_duration":732.5077078234182,"trial":13,"RT":1104,"MT":521,"sideResp":1,"stimulus":[],"xmouse":[760,760,760,760,760,760,760,760,760,760,760,760,760,760,760,760,760,760,760,760,760,760,760,760,760,760,760,760,760,760,760,760,760,760,760,760,760,760,760,760,760,760,760,760,760,760,760,760,760,760,760,760,760,760,757,718,700,691,673,638,528,488,454,429,414,398,396,396,396,396,396,396,396,396,396,396,396,396,396,396,396,445],"ymouse":[560,560,560,560,560,560,560,560,560,560,560,560,560,560,560,560,560,560,560,560,560,560,560,560,560,560,560,560,560,560,560,560,560,560,560,560,560,560,560,560,560,560,560,560,560,560,560,560,560,560,560,560,560,559,554,522,499,483,458,420,309,259,203,151,113,54,21,21,21,21,21,21,21,21,21,21,21,21,21,21,21,15],"timestamp_mouse":[13,33,45,65,84,104,125,145,166,184,205,224,245,264,284,305,325,344,365,384,405,425,444,465,484,504,524,544,564,585,604,624,644,666,685,704,725,745,765,784,805,824,845,866,885,905,925,945,964,985,1005,1025,1045,1065,1085,1104,1124,1144,1166,1185,1205,1224,1244,1264,1285,1305,1324,1345,1366,1384,1405,1425,1446,1466,1485,1504,1524,1544,1565,1585,1604,1624],"xSR":741.5,"ySR":501.8,"xT1":424.9,"yT1":0,"xT2":1058.1,"yT2":0,"toosoon":0,"cond_shown":"Congruent","ratio_trial":100,"L_num":10,"L_den":25,"R_num":3,"R_den":10,"correct_side":1,"subjID":"nataliacorrealcaceres3","gender":" 1","school":" sexto","age":" 11"},{"start_time":1551887081086,"click_time":1551887082153,"finger_time":1551887081673,"fix_duration":250,"trial":14,"RT":587,"MT":480,"sideResp":2,"stimulus":[],"xmouse":[764,764,764,764,764,764,764,764,764,764,764,764,764,764,764,764,764,764,764,764,764,764,764,764,764,764,764,772,782,797,836,852,928,950,965,974,981,988,991,996,999,1000,1000,1000,1000,1000,1003,1003,1017,1023,1026,1030,1053,1061],"ymouse":[573,573,573,573,573,573,573,573,573,573,573,573,573,573,573,573,573,573,573,573,573,573,573,573,573,573,570,550,528,493,398,364,190,139,104,85,74,69,68,67,65,65,65,65,65,65,65,65,68,68,68,67,67,67],"timestamp_mouse":[12,36,47,66,86,106,126,147,167,187,206,226,246,267,288,307,327,346,366,386,406,426,446,466,487,507,527,547,566,587,606,626,648,666,686,708,727,747,766,787,806,826,847,866,888,907,926,948,966,987,1007,1026,1047,1067],"xSR":741.5,"ySR":501.8,"xT1":424.9,"yT1":0,"xT2":1058.1,"yT2":0,"toosoon":0,"cond_shown":"Incongruent","ratio_trial":300,"L_num":1,"L_den":2,"R_num":3,"R_den":15,"correct_side":1,"subjID":"nataliacorrealcaceres3","gender":" 1","school":" sexto","age":" 11"},{"start_time":1551887083930,"click_time":1551887085693,"finger_time":1551887085332,"fix_duration":876.7963965692386,"trial":15,"RT":1402,"MT":361,"sideResp":2,"stimulus":[],"xmouse":[788,788,788,788,788,788,788,788,788,788,788,788,788,788,788,788,788,788,788,788,788,788,788,788,788,788,788,788,788,788,788,788,788,788,788,788,788,788,788,788,788,788,788,788,788,788,788,788,788,788,788,788,788,788,788,788,784,782,780,780,780,780,780,780,780,780,780,782,798,820,834,868,886,911,935,953,972,980,983,985,986,989,995,1004,1014,1024,1047,1054,1067],"ymouse":[541,540,540,540,540,540,540,540,540,540,540,540,540,540,540,540,540,540,540,540,540,540,540,540,540,540,540,540,540,540,540,540,540,540,540,540,540,540,540,540,540,540,540,540,540,540,540,540,540,540,540,540,540,540,540,542,550,554,558,558,558,558,558,558,558,558,558,551,531,502,481,423,387,342,293,250,196,171,165,160,158,152,142,132,121,111,93,88,81],"timestamp_mouse":[3,23,42,63,82,103,124,142,162,184,202,223,242,263,284,303,323,343,363,383,403,423,444,463,482,504,522,542,563,584,604,623,643,664,683,702,722,743,763,783,802,823,843,863,883,903,922,942,963,982,1002,1022,1043,1064,1084,1103,1123,1143,1163,1183,1202,1223,1244,1262,1282,1303,1322,1343,1363,1382,1402,1422,1444,1462,1483,1503,1522,1544,1563,1582,1603,1622,1644,1663,1682,1702,1722,1743,1763],"xSR":741.5,"ySR":501.8,"xT1":424.9,"yT1":0,"xT2":1058.1,"yT2":0,"toosoon":0,"cond_shown":"Congruent","ratio_trial":300,"L_num":3,"L_den":12,"R_num":11,"R_den":20,"correct_side":2,"subjID":"nataliacorrealcaceres3","gender":" 1","school":" sexto","age":" 11"},{"start_time":1551887086906,"click_time":1551887088092,"finger_time":1551887087692,"fix_duration":250,"trial":16,"RT":786,"MT":400,"sideResp":1,"stimulus":[],"xmouse":[782,782,782,782,782,782,782,782,782,782,782,782,782,782,782,782,782,782,782,782,782,782,782,782,782,782,782,782,782,782,782,782,782,782,782,782,782,780,769,747,713,681,625,599,573,550,530,530,530,530,530,530,530,530,530,530,530,530,530,494],"ymouse":[547,547,547,547,547,547,547,547,547,547,547,547,547,547,547,547,547,547,547,547,547,547,547,547,547,547,547,547,547,547,547,547,547,547,547,547,547,545,523,484,427,367,232,171,109,55,7,7,7,7,7,7,7,7,7,7,7,7,7,7],"timestamp_mouse":[13,26,46,67,87,107,126,146,168,186,206,228,246,267,287,306,326,348,366,386,407,428,446,468,488,507,527,547,568,586,607,626,647,666,687,707,728,747,767,786,806,826,846,866,888,908,927,946,966,987,1006,1026,1046,1068,1087,1108,1128,1147,1166,1186],"xSR":741.5,"ySR":501.8,"xT1":424.9,"yT1":0,"xT2":1058.1,"yT2":0,"toosoon":0,"cond_shown":"Congruent","ratio_trial":100,"L_num":11,"L_den":22,"R_num":4,"R_den":10,"correct_side":1,"subjID":"nataliacorrealcaceres3","gender":" 1","school":" sexto","age":" 11"},{"start_time":1551887089466,"click_time":1551887090654,"finger_time":1551887090113,"fix_duration":250,"trial":17,"RT":647,"MT":541,"sideResp":2,"stimulus":[],"xmouse":[772,772,773,775,776,776,776,776,776,776,776,776,776,776,776,776,776,776,776,776,776,776,776,776,776,776,776,776,776,777,783,797,816,834,863,877,889,901,914,923,930,936,942,946,954,956,958,960,963,979,992,1007,1023,1035,1044,1047,1049,1056,1057,1060],"ymouse":[564,564,564,564,563,563,563,563,563,563,563,563,563,562,562,562,562,562,562,562,562,562,562,562,562,562,562,562,562,557,541,516,479,436,350,315,283,258,225,197,187,179,171,163,146,142,140,138,136,127,121,112,102,93,86,85,85,84,84,82],"timestamp_mouse":[12,30,47,67,86,106,128,147,168,187,206,227,248,267,286,306,327,348,367,387,406,427,447,467,487,507,526,546,567,587,608,627,647,667,688,706,727,748,766,787,806,827,848,868,887,907,926,947,967,987,1006,1026,1046,1067,1088,1107,1127,1146,1167,1187],"xSR":741.5,"ySR":501.8,"xT1":424.9,"yT1":0,"xT2":1058.1,"yT2":0,"toosoon":0,"cond_shown":"Incongruent","ratio_trial":200,"L_num":4,"L_den":5,"R_num":6,"R_den":10,"correct_side":1,"subjID":"nataliacorrealcaceres3","gender":" 1","school":" sexto","age":" 11"},{"start_time":1551887093006,"click_time":1551887094854,"finger_time":1551887094413,"fix_duration":1312.9262902514774,"trial":18,"RT":1407,"MT":441,"sideResp":1,"stimulus":[],"xmouse":[794,794,794,794,794,794,794,794,794,794,794,794,794,794,794,794,794,794,794,794,794,794,794,794,794,794,794,794,794,794,794,794,794,794,794,794,794,794,794,794,794,794,794,794,794,794,794,794,794,794,794,794,794,794,794,794,794,794,794,794,794,794,793,791,788,783,778,774,764,756,742,734,722,702,684,665,645,625,593,583,573,567,561,549,547,547,546,545,545,545,544,533,519],"ymouse":[559,559,559,559,559,559,559,559,559,559,559,559,559,559,559,559,558,558,558,558,558,558,558,558,558,558,558,558,558,558,558,558,558,558,558,558,558,558,558,558,558,558,558,558,558,558,558,558,558,558,558,558,558,558,558,558,558,558,558,558,558,558,557,553,549,544,538,533,518,506,482,466,447,408,383,356,328,298,252,235,209,187,166,125,110,103,100,98,97,97,96,92,88],"timestamp_mouse":[20,27,48,66,86,106,126,148,168,188,208,228,246,268,286,306,326,347,368,387,407,428,448,467,486,506,527,548,567,586,607,628,648,666,686,707,728,747,767,786,806,827,847,866,887,907,926,947,966,988,1007,1027,1047,1067,1087,1106,1126,1147,1166,1188,1206,1226,1246,1267,1286,1307,1327,1347,1366,1387,1407,1426,1446,1466,1486,1506,1528,1547,1566,1587,1606,1628,1647,1666,1687,1707,1727,1747,1767,1786,1806,1827,1847],"xSR":741.5,"ySR":501.8,"xT1":424.9,"yT1":0,"xT2":1058.1,"yT2":0,"toosoon":0,"cond_shown":"Congruent","ratio_trial":300,"L_num":20,"L_den":25,"R_num":14,"R_den":28,"correct_side":1,"subjID":"nataliacorrealcaceres3","gender":" 1","school":" sexto","age":" 11"},{"start_time":1551887096178,"click_time":1551887097952,"finger_time":1551887097593,"fix_duration":304.70106023536323,"trial":19,"RT":1415,"MT":359,"sideResp":2,"stimulus":[],"xmouse":[780,780,780,780,780,780,780,780,780,780,780,780,780,780,780,780,780,780,780,780,780,780,780,780,780,780,780,780,780,780,780,780,780,780,780,780,780,780,780,780,780,780,780,780,780,780,780,780,780,780,780,780,780,780,780,780,780,780,780,780,780,780,780,780,780,780,780,780,781,804,816,828,837,845,859,864,870,876,891,905,942,960,977,992,1008,1034,1045,1058,1076],"ymouse":[559,559,559,559,559,559,559,559,559,559,559,559,559,559,559,559,559,559,559,559,559,559,559,559,559,559,559,559,559,559,559,559,559,559,559,559,559,559,559,559,559,559,559,559,559,559,559,559,559,559,559,559,559,559,559,559,559,559,559,559,559,559,559,559,559,559,559,559,555,519,499,477,460,441,409,394,381,368,343,322,271,246,223,200,179,141,128,113,96],"timestamp_mouse":[16,37,55,75,96,115,134,155,176,196,214,235,255,275,296,315,336,355,375,394,415,434,455,475,495,516,534,555,575,596,616,635,656,675,694,715,736,755,774,794,815,835,854,875,894,915,934,955,974,994,1015,1035,1056,1075,1094,1115,1135,1155,1174,1194,1216,1236,1255,1274,1295,1314,1335,1356,1375,1394,1415,1434,1455,1474,1495,1515,1535,1555,1575,1594,1614,1634,1656,1674,1695,1715,1735,1755,1774],"xSR":741.5,"ySR":501.8,"xT1":424.9,"yT1":0,"xT2":1058.1,"yT2":0,"toosoon":0,"cond_shown":"Congruent","ratio_trial":100,"L_num":4,"L_den":8,"R_num":6,"R_den":10,"correct_side":2,"subjID":"nataliacorrealcaceres3","gender":" 1","school":" sexto","age":" 11"},{"start_time":1551887099255,"click_time":1551887100253,"finger_time":1551887100074,"fix_duration":379.43129206171164,"trial":20,"RT":819,"MT":179,"sideResp":2,"stimulus":[],"xmouse":[790,790,790,790,790,790,790,790,790,790,790,790,790,790,790,790,790,790,790,790,790,790,790,790,790,790,790,790,790,790,790,790,790,790,790,790,790,790,790,790,819,845,875,907,956,987,1035,1049,1062,1073],"ymouse":[557,557,557,557,557,557,557,557,557,557,557,557,557,557,557,557,557,557,557,557,557,557,557,557,557,557,557,557,557,557,557,557,557,557,557,557,557,557,556,549,494,451,398,345,262,211,142,122,107,96],"timestamp_mouse":[18,38,58,78,98,129,138,158,178,197,218,238,257,277,299,317,338,357,379,398,419,439,457,477,497,517,538,557,577,599,619,639,658,677,698,717,739,758,779,798,819,837,858,877,898,917,937,957,977,998],"xSR":741.5,"ySR":501.8,"xT1":424.9,"yT1":0,"xT2":1058.1,"yT2":0,"toosoon":0,"cond_shown":"Incongruent","ratio_trial":100,"L_num":9,"L_den":15,"R_num":14,"R_den":28,"correct_side":1,"subjID":"nataliacorrealcaceres3","gender":" 1","school":" sexto","age":" 11"},{"start_time":1551887102155,"click_time":1551887103793,"finger_time":1551887103472,"fix_duration":922.4583350730504,"trial":21,"RT":1317,"MT":321,"sideResp":1,"stimulus":[],"xmouse":[805,805,805,805,805,805,805,805,805,805,805,805,805,805,805,805,805,805,805,805,805,805,805,805,805,805,805,805,805,805,805,805,805,805,805,805,805,805,805,805,805,805,805,805,805,805,805,805,805,805,805,805,805,805,805,805,805,805,805,805,805,805,803,800,796,789,777,772,759,749,730,662,621,596,580,570,556,548,540,532,528,520],"ymouse":[545,545,545,545,545,545,545,545,545,545,545,545,545,545,545,545,545,545,545,545,545,545,545,545,545,545,545,545,545,545,545,545,545,545,545,545,545,545,545,545,545,545,545,545,545,545,545,545,545,545,545,545,545,545,545,545,545,545,545,545,545,545,536,528,512,490,447,427,385,347,297,182,138,108,94,88,84,82,79,77,75,74],"timestamp_mouse":[17,37,58,77,97,118,138,157,179,199,219,238,257,277,298,317,339,358,378,398,417,438,458,477,498,518,538,558,579,597,617,637,658,679,699,718,738,757,777,799,819,838,857,877,898,918,937,957,979,998,1019,1037,1057,1078,1097,1117,1139,1158,1177,1198,1217,1239,1257,1278,1299,1317,1338,1358,1377,1398,1418,1437,1458,1478,1497,1517,1538,1557,1577,1597,1618,1637],"xSR":741.5,"ySR":501.8,"xT1":424.9,"yT1":0,"xT2":1058.1,"yT2":0,"toosoon":0,"cond_shown":"Congruent","ratio_trial":200,"L_num":11,"L_den":22,"R_num":3,"R_den":10,"correct_side":1,"subjID":"nataliacorrealcaceres3","gender":" 1","school":" sexto","age":" 11"},{"start_time":1551887105747,"click_time":1551887107434,"finger_time":1551887106532,"fix_duration":1011.9354918870894,"trial":22,"RT":785,"MT":902,"sideResp":2,"stimulus":[],"xmouse":[773,773,773,773,773,772,772,772,772,772,772,772,772,772,772,772,772,772,772,772,772,772,772,772,772,772,772,772,772,772,772,772,772,772,772,772,772,772,794,819,846,865,890,895,900,905,908,922,928,933,938,943,954,960,967,975,983,1008,1018,1026,1033,1039,1046,1046,1046,1046,1046,1046,1046,1046,1046,1046,1046,1048,1053,1056,1057,1057,1057,1057,1057,1057,1057,1057,1060],"ymouse":[540,540,540,540,540,540,540,540,539,539,538,538,538,538,538,538,538,538,538,538,538,538,538,538,538,538,538,538,538,538,538,538,538,538,538,538,538,537,509,486,463,442,412,401,394,386,380,356,346,335,322,309,281,267,248,232,213,172,157,144,131,119,105,103,103,103,103,103,103,103,103,103,101,97,90,86,85,85,85,85,85,85,85,85,83],"timestamp_mouse":[9,26,46,66,85,105,125,146,166,186,206,225,245,267,285,306,326,345,366,386,405,425,447,467,487,506,526,546,565,586,606,627,646,666,686,706,726,745,767,785,805,825,846,865,886,905,925,946,965,987,1005,1026,1046,1066,1085,1105,1125,1146,1165,1185,1206,1226,1246,1265,1286,1307,1326,1346,1366,1386,1406,1427,1447,1466,1485,1505,1525,1546,1565,1587,1606,1626,1646,1666,1686],"xSR":741.5,"ySR":501.8,"xT1":424.9,"yT1":0,"xT2":1058.1,"yT2":0,"toosoon":0,"cond_shown":"Congruent","ratio_trial":100,"L_num":2,"L_den":5,"R_num":6,"R_den":12,"correct_side":2,"subjID":"nataliacorrealcaceres3","gender":" 1","school":" sexto","age":" 11"},{"start_time":1551887110508,"click_time":1551887112013,"finger_time":1551887111552,"fix_duration":393.0938309165013,"trial":23,"RT":1044,"MT":461,"sideResp":2,"stimulus":[],"xmouse":[786,786,786,786,786,786,786,786,786,786,786,786,786,786,786,786,786,786,786,786,786,786,786,786,786,786,786,786,786,786,786,786,786,786,786,786,786,786,786,786,786,786,786,786,786,786,786,786,786,786,802,816,843,878,912,972,985,996,1000,1003,1006,1006,1007,1008,1008,1011,1013,1014,1014,1017,1021,1026,1033,1045,1055,1063],"ymouse":[563,563,563,563,563,563,563,563,563,563,563,563,563,563,563,563,563,563,563,563,563,563,563,563,563,563,563,563,563,563,563,563,563,563,563,563,563,563,563,563,563,563,563,563,563,563,563,563,561,558,529,505,455,396,335,217,178,128,105,87,69,64,61,58,57,52,50,50,49,48,48,49,51,55,57,59],"timestamp_mouse":[10,24,45,65,84,105,126,144,164,185,204,225,245,265,284,304,324,345,366,384,404,426,446,464,485,504,524,546,566,584,604,624,645,665,685,705,725,746,765,784,805,824,845,866,885,905,924,944,965,985,1004,1026,1044,1064,1084,1104,1125,1144,1165,1184,1204,1225,1245,1265,1286,1304,1324,1345,1364,1385,1404,1425,1445,1465,1486,1504],"xSR":741.5,"ySR":501.8,"xT1":424.9,"yT1":0,"xT2":1058.1,"yT2":0,"toosoon":0,"cond_shown":"Incongruent","ratio_trial":300,"L_num":4,"L_den":5,"R_num":6,"R_den":12,"correct_side":1,"subjID":"nataliacorrealcaceres3","gender":" 1","school":" sexto","age":" 11"},{"start_time":1551887114304,"click_time":1551887115694,"finger_time":1551887115112,"fix_duration":1250.0276756942808,"trial":24,"RT":808,"MT":582,"sideResp":2,"stimulus":[],"xmouse":[791,791,791,791,791,791,791,791,791,791,791,791,791,791,791,791,792,792,792,792,792,792,792,792,792,792,792,792,792,792,792,792,792,792,792,792,792,793,796,804,819,827,833,839,843,854,859,865,876,888,916,931,942,951,958,980,990,1000,1010,1018,1034,1038,1039,1039,1039,1040,1042,1047,1056,1066],"ymouse":[540,540,540,540,540,540,540,540,540,540,540,540,540,540,540,540,540,539,538,538,538,538,538,538,538,538,538,538,538,538,538,538,538,538,538,538,538,529,523,506,470,450,434,420,409,385,376,363,346,327,277,248,226,207,192,153,138,119,102,86,66,60,58,58,58,58,58,58,58,58],"timestamp_mouse":[13,35,50,69,89,110,129,148,168,190,208,230,250,270,289,309,330,350,368,389,410,430,448,469,488,509,528,549,568,589,608,628,649,668,689,708,730,748,768,789,808,828,848,868,889,909,928,948,968,989,1010,1028,1049,1070,1088,1109,1128,1149,1169,1190,1210,1230,1249,1269,1288,1309,1328,1348,1368,1389],"xSR":741.5,"ySR":501.8,"xT1":424.9,"yT1":0,"xT2":1058.1,"yT2":0,"toosoon":0,"cond_shown":"Congruent","ratio_trial":200,"L_num":3,"L_den":10,"R_num":7,"R_den":14,"correct_side":2,"subjID":"nataliacorrealcaceres3","gender":" 1","school":" sexto","age":" 11"},{"start_time":1551887118629,"click_time":1551887120094,"finger_time":1551887119414,"fix_duration":1313.8445847297544,"trial":25,"RT":785,"MT":680,"sideResp":2,"stimulus":[],"xmouse":[794,794,794,794,794,794,794,794,794,794,794,794,794,794,794,794,794,794,794,794,794,794,794,794,794,794,794,794,794,792,784,775,766,764,764,764,766,769,775,784,791,799,808,818,829,867,902,921,934,941,943,943,944,945,946,950,955,958,962,962,962,962,962,962,962,962,962,962,962,1042,1045,1047,1057,1065],"ymouse":[522,522,522,522,522,522,522,522,522,522,522,522,522,522,522,522,522,522,522,522,522,522,522,522,522,522,522,522,522,523,530,537,546,550,551,551,546,535,514,490,476,465,453,438,418,346,261,208,160,125,77,64,54,48,41,27,12,6,1,1,1,1,1,1,1,1,1,1,1,1,2,4,13,21],"timestamp_mouse":[10,23,46,63,84,103,123,144,163,184,205,224,245,264,283,303,324,343,364,385,404,423,444,465,484,504,523,545,563,584,604,623,644,665,685,704,723,743,764,785,803,823,843,863,884,903,924,943,965,983,1003,1024,1044,1065,1084,1103,1125,1143,1164,1186,1203,1224,1243,1263,1284,1303,1324,1345,1364,1383,1403,1423,1444,1464],"xSR":741.5,"ySR":501.8,"xT1":424.9,"yT1":0,"xT2":1058.1,"yT2":0,"toosoon":0,"cond_shown":"Congruent","ratio_trial":200,"L_num":3,"L_den":12,"R_num":9,"R_den":20,"correct_side":2,"subjID":"nataliacorrealcaceres3","gender":" 1","school":" sexto","age":" 11"},{"start_time":1551887122964,"click_time":1551887124572,"finger_time":1551887124012,"fix_duration":250,"trial":26,"RT":1048,"MT":560,"sideResp":2,"stimulus":[],"xmouse":[800,800,800,800,800,800,799,798,797,797,797,796,796,796,796,796,795,795,795,795,795,795,795,794,793,793,792,792,792,792,790,788,786,778,773,770,769,767,766,766,766,766,766,766,766,766,766,766,765,769,776,781,789,800,805,808,813,816,826,827,829,830,831,838,846,858,872,887,920,929,937,949,959,977,983,989,996,1012,1039,1053,1064],"ymouse":[540,540,540,540,540,540,540,541,541,542,542,543,543,543,543,543,544,544,544,544,544,544,544,544,546,546,547,547,547,547,548,549,551,555,557,558,558,558,559,559,559,559,559,559,559,559,559,559,556,545,529,514,493,450,423,396,364,336,284,274,270,268,266,261,258,253,244,233,201,190,183,176,170,157,150,145,138,129,112,104,95],"timestamp_mouse":[13,37,50,70,88,109,128,150,168,189,209,228,248,269,289,309,329,348,368,388,409,430,448,469,489,509,529,548,569,588,608,629,648,669,688,709,730,748,770,790,808,828,850,869,889,909,928,950,969,989,1009,1028,1048,1070,1088,1108,1129,1149,1169,1188,1209,1230,1248,1269,1288,1308,1328,1348,1369,1388,1408,1429,1450,1470,1488,1509,1529,1550,1570,1588,1608],"xSR":741.5,"ySR":501.8,"xT1":424.9,"yT1":0,"xT2":1058.1,"yT2":0,"toosoon":0,"cond_shown":"Congruent","ratio_trial":300,"L_num":1,"L_den":20,"R_num":7,"R_den":20,"correct_side":2,"subjID":"nataliacorrealcaceres3","gender":" 1","school":" sexto","age":" 11"},{"start_time":1551887126809,"click_time":1551887128172,"finger_time":1551887127712,"fix_duration":1116.2367050836274,"trial":27,"RT":903,"MT":460,"sideResp":2,"stimulus":[],"xmouse":[797,797,796,796,796,796,796,796,796,796,796,796,796,796,796,796,796,796,796,796,796,796,796,796,796,796,796,796,796,796,796,794,789,787,787,787,787,787,787,787,787,787,788,791,794,805,823,832,842,849,856,864,877,891,901,913,936,947,957,968,979,988,1011,1014,1025,1030,1033,1050,1062],"ymouse":[561,561,561,561,561,561,561,561,561,561,561,561,561,561,561,561,561,561,561,561,561,561,561,561,561,561,561,561,561,561,561,561,561,561,561,561,561,561,561,560,557,546,538,517,506,471,406,374,343,316,295,277,246,222,206,187,157,144,134,126,120,114,101,99,92,88,85,84,84],"timestamp_mouse":[10,23,54,63,83,103,124,143,163,183,203,224,243,264,284,303,323,343,363,384,403,424,444,463,484,504,523,543,564,584,603,624,643,663,684,704,723,744,763,784,803,824,843,864,883,903,925,943,964,983,1003,1023,1042,1063,1083,1104,1125,1143,1164,1184,1204,1223,1243,1264,1284,1304,1323,1343,1363],"xSR":741.5,"ySR":501.8,"xT1":424.9,"yT1":0,"xT2":1058.1,"yT2":0,"toosoon":0,"cond_shown":"Congruent","ratio_trial":300,"L_num":7,"L_den":14,"R_num":20,"R_den":25,"correct_side":2,"subjID":"nataliacorrealcaceres3","gender":" 1","school":" sexto","age":" 11"},{"start_time":1551887129603,"click_time":1551887130692,"finger_time":1551887130052,"fix_duration":409.55220423824414,"trial":28,"RT":449,"MT":640,"sideResp":2,"stimulus":[],"xmouse":[802,802,802,802,801,800,799,798,798,797,797,797,797,797,797,797,797,797,797,795,794,788,772,770,770,770,769,769,773,779,786,795,821,834,843,855,866,899,915,931,946,962,985,991,998,1003,1008,1011,1011,1011,1012,1018,1033,1055,1071],"ymouse":[560,560,560,560,559,557,556,555,555,555,555,555,555,555,555,555,555,555,555,555,557,565,605,613,614,614,612,597,584,570,553,536,487,462,440,418,392,314,271,236,207,178,133,119,105,93,83,77,77,77,76,74,67,58,50],"timestamp_mouse":[12,38,50,69,90,109,129,150,169,190,210,229,249,269,290,310,329,350,370,389,409,429,449,470,489,509,529,549,569,590,609,629,649,669,689,709,729,749,769,789,809,830,849,869,889,910,930,950,969,989,1008,1029,1049,1070,1089],"xSR":741.5,"ySR":501.8,"xT1":424.9,"yT1":0,"xT2":1058.1,"yT2":0,"toosoon":0,"cond_shown":"Incongruent","ratio_trial":300,"L_num":4,"L_den":20,"R_num":2,"R_den":4,"correct_side":2,"subjID":"nataliacorrealcaceres3","gender":" 1","school":" sexto","age":" 11"},{"start_time":1551887135277,"click_time":1551887137255,"finger_time":1551887136553,"fix_duration":882.2453247816876,"trial":29,"RT":1276,"MT":702,"sideResp":2,"stimulus":[],"xmouse":[772,772,772,772,772,772,772,772,772,772,772,772,772,772,772,772,772,772,772,772,772,772,771,769,768,768,768,768,768,768,768,768,768,768,768,768,768,768,768,768,768,768,768,768,768,768,768,768,768,768,768,768,768,768,768,768,768,768,769,771,776,782,795,830,851,873,879,893,905,910,913,915,915,916,916,919,929,936,943,957,965,978,991,1006,1023,1026,1026,1026,1027,1030,1031,1034,1039,1047,1052,1053,1054,1054,1062],"ymouse":[550,550,550,550,550,550,550,550,550,550,550,550,550,550,550,550,550,550,550,550,550,550,550,550,551,551,551,551,551,551,551,551,551,551,551,551,551,551,551,551,551,551,552,552,552,552,552,552,552,552,552,552,552,552,552,552,552,552,550,547,539,530,506,422,362,283,256,185,100,70,46,29,21,17,17,16,18,20,22,25,29,35,40,44,49,50,50,50,50,51,51,51,51,52,52,52,52,52,54],"timestamp_mouse":[15,40,56,75,96,116,136,156,175,195,217,235,256,276,295,316,335,356,376,396,415,435,455,476,495,515,536,556,575,596,616,636,656,676,695,715,736,755,775,795,815,836,855,876,896,916,936,956,976,996,1015,1035,1056,1076,1095,1116,1136,1156,1175,1195,1215,1235,1255,1276,1295,1315,1335,1356,1377,1395,1416,1436,1456,1477,1494,1515,1535,1556,1576,1595,1615,1635,1656,1675,1694,1715,1736,1756,1775,1795,1815,1836,1856,1875,1895,1915,1935,1955,1977],"xSR":741.5,"ySR":501.8,"xT1":424.9,"yT1":0,"xT2":1058.1,"yT2":0,"toosoon":0,"cond_shown":"Incongruent","ratio_trial":300,"L_num":13,"L_den":26,"R_num":12,"R_den":15,"correct_side":2,"subjID":"nataliacorrealcaceres3","gender":" 1","school":" sexto","age":" 11"},{"start_time":1551887143879,"click_time":1551887145412,"finger_time":1551887144772,"fix_duration":963.3888777228951,"trial":30,"RT":893,"MT":640,"sideResp":2,"stimulus":[],"xmouse":[768,768,768,768,768,768,768,768,768,768,768,768,768,768,768,768,768,768,768,768,768,768,768,768,768,768,768,768,768,768,768,768,768,768,768,768,768,768,768,774,780,785,801,810,826,850,858,867,878,905,922,940,971,986,1004,1008,1012,1016,1022,1029,1029,1029,1029,1029,1029,1029,1029,1029,1029,1029,1029,1029,1029,1029,1029,1029,1077],"ymouse":[548,548,548,548,548,548,548,547,547,547,547,547,547,547,547,547,547,547,547,547,547,547,547,547,547,547,547,547,547,547,547,547,547,547,547,547,547,546,542,531,525,521,513,505,492,467,455,437,412,346,308,266,192,145,77,56,42,30,17,3,3,3,3,3,3,3,3,3,3,3,3,3,3,3,3,3,3],"timestamp_mouse":[14,40,53,74,93,115,133,154,173,194,213,233,253,273,294,314,333,354,373,394,413,434,455,474,494,514,533,554,573,594,613,634,653,674,693,714,733,753,773,794,813,834,854,873,893,913,934,953,973,995,1013,1033,1053,1074,1094,1113,1133,1154,1174,1193,1213,1234,1254,1273,1295,1313,1333,1354,1374,1394,1414,1433,1453,1474,1494,1513,1533],"xSR":741.5,"ySR":501.8,"xT1":424.9,"yT1":0,"xT2":1058.1,"yT2":0,"toosoon":0,"cond_shown":"Congruent","ratio_trial":300,"L_num":2,"L_den":20,"R_num":10,"R_den":25,"correct_side":2,"subjID":"nataliacorrealcaceres3","gender":" 1","school":" sexto","age":" 11"},{"start_time":1551887147473,"click_time":1551887148853,"finger_time":1551887148152,"fix_duration":900.3587520249615,"trial":31,"RT":679,"MT":701,"sideResp":1,"stimulus":[],"xmouse":[778,778,778,778,778,778,778,778,778,778,778,778,778,778,778,778,778,778,778,778,778,778,778,778,778,778,778,778,778,778,778,777,747,696,636,542,525,517,510,506,505,505,505,509,513,520,524,527,529,531,534,535,535,535,532,525,522,518,515,514,507,503,503,502,502,502,501,497,493],"ymouse":[578,578,578,578,578,578,578,578,578,578,578,578,578,578,578,578,578,578,578,578,578,578,578,578,578,578,578,578,578,578,578,578,559,530,497,440,425,413,400,389,375,370,362,351,335,303,288,276,267,259,244,235,225,212,193,147,128,117,110,109,106,103,103,102,102,102,102,101,98],"timestamp_mouse":[19,40,59,80,99,119,139,160,179,199,220,240,259,279,300,320,340,360,380,399,420,439,459,480,500,520,540,560,580,599,620,640,659,679,699,719,739,759,780,800,820,840,859,879,900,919,939,959,980,999,1020,1039,1059,1080,1099,1119,1139,1160,1179,1199,1220,1239,1259,1279,1299,1319,1340,1359,1380],"xSR":741.5,"ySR":501.8,"xT1":424.9,"yT1":0,"xT2":1058.1,"yT2":0,"toosoon":0,"cond_shown":"Congruent","ratio_trial":300,"L_num":24,"L_den":30,"R_num":2,"R_den":4,"correct_side":1,"subjID":"nataliacorrealcaceres3","gender":" 1","school":" sexto","age":" 11"},{"start_time":1551887151802,"click_time":1551887154093,"finger_time":1551887153332,"fix_duration":588.3043076299183,"trial":32,"RT":1530,"MT":761,"sideResp":1,"stimulus":[],"xmouse":[789,789,789,789,789,789,789,789,789,789,789,789,789,789,789,789,789,789,789,789,789,789,789,789,789,789,789,789,789,789,789,789,789,789,789,789,789,789,789,789,789,789,789,789,789,789,789,789,789,789,789,789,789,789,789,789,789,789,789,789,789,789,789,789,789,789,789,789,789,789,789,789,788,788,788,788,789,795,802,816,826,847,854,875,884,896,898,900,902,902,868,807,736,659,610,608,605,603,601,599,591,582,570,557,554,554,554,554,553,553,546,544,532,528,523],"ymouse":[558,558,558,558,558,558,558,558,558,558,558,558,558,558,558,558,558,558,558,558,558,558,558,558,558,558,558,558,558,558,558,558,558,558,558,558,558,558,558,558,558,558,558,558,558,558,558,558,558,558,558,558,558,558,558,558,558,558,558,558,558,558,558,558,558,558,557,555,554,553,552,552,552,549,531,512,490,467,445,405,382,345,332,295,275,247,237,228,217,203,162,126,95,64,50,49,50,51,53,55,61,66,69,76,78,78,78,78,77,77,66,65,61,61,59],"timestamp_mouse":[14,43,51,71,91,110,131,151,171,190,211,230,250,271,291,310,331,350,371,390,410,431,450,471,491,511,530,551,570,590,610,630,650,671,690,711,730,751,770,790,810,830,850,870,891,911,930,950,970,990,1011,1030,1050,1070,1091,1111,1131,1151,1171,1191,1210,1230,1251,1270,1290,1311,1330,1351,1371,1390,1411,1430,1451,1470,1492,1510,1530,1551,1570,1592,1610,1631,1650,1671,1690,1710,1730,1751,1771,1791,1809,1830,1850,1871,1892,1910,1931,1950,1970,1991,2010,2030,2050,2071,2091,2110,2131,2151,2169,2191,2210,2230,2250,2269,2291],"xSR":741.5,"ySR":501.8,"xT1":424.9,"yT1":0,"xT2":1058.1,"yT2":0,"toosoon":0,"cond_shown":"Incongruent","ratio_trial":100,"L_num":10,"L_den":25,"R_num":9,"R_den":18,"correct_side":2,"subjID":"nataliacorrealcaceres3","gender":" 1","school":" sexto","age":" 11"},{"start_time":1551887156575,"click_time":1551887158213,"finger_time":1551887157833,"fix_duration":1400.387464059467,"trial":33,"RT":1258,"MT":380,"sideResp":1,"stimulus":[],"xmouse":[766,766,766,766,766,766,766,7