[{"start_time":1551887709327,"click_time":1551887747112,"finger_time":1551887709337,"fix_duration":370.0871908171964,"trial":0,"RT":10,"MT":37775,"sideResp":2,"stimulus":"img/500/equaldotanddens/L/5_Ratio_500_L_4_R_2.png","xmouse":[507,507,507,507,507,507,507,507,507,507,507,507,507,507,507,507,507,507,507,507,507,507,507,507,507,507,507,507,507,507,507,507,507,507,507,508,594,718,925,1015,1038,1039,1040,1040,1037,1027,995,987,977,971,965,954,947,941,932,921,875,775,687,613,588,589,591,592,594,598,604,630,640,643,646,669,686,699,706,713,719,721,724,731,736,740,742,746,754,764,785,790,791,791,791,791,791,791,791,790,788,785,784,782,781,780,780,780,780,780,780,780,780,780,780,780,780,780,780,780,780,780,780,780,780,780,780,791,797,801,802,802,802,802,802,802,802,802,802,802,802,802,802,802,802,802,802,802,802,802,802,802,802,802,802,802,802,802,802,802,802,802,802,802,802,802,802,802,802,802,802,802,802,802,802,802,802,802,802,802,802,802,802,802,802,802,802,802,802,802,802,802,802,802,802,802,802,802,802,802,802,802,802,802,802,802,802,802,802,802,802,802,802,802,802,802,802,802,802,802,802,802,802,802,802,802,802,802,802,802,802,802,802,802,802,802,802,802,802,802,802,802,802,802,802,802,802,802,802,802,802,802,802,802,802,802,802,802,802,802,802,802,802,802,802,802,802,802,802,802,802,802,802,802,802,802,802,802,802,802,802,802,802,802,802,802,802,802,802,802,802,802,802,802,802,802,802,802,802,802,802,802,802,802,802,802,802,802,802,802,802,802,802,802,802,802,802,802,802,802,802,802,802,802,802,802,802,802,802,802,802,802,802,802,802,802,802,802,802,802,802,802,802,802,802,802,802,802,802,802,802,802,802,802,802,802,802,802,802,802,802,802,802,802,802,802,802,802,802,802,802,802,802,802,802,802,802,802,802,802,802,802,802,802,802,802,802,802,802,802,802,802,802,802,802,802,802,802,802,802,802,802,802,802,802,802,802,802,802,802,802,802,802,802,802,802,802,802,802,802,802,802,802,802,802,802,802,802,802,802,802,802,802,802,802,802,802,802,802,802,802,802,802,802,802,802,802,802,802,802,802,802,802,802,802,802,802,802,802,802,802,802,802,802,802,802,802,802,802,802,802,802,802,802,802,802,802,802,802,802,802,802,802,802,802,802,802,802,802,802,802,802,802,802,802,802,802,802,802,802,802,802,802,802,802,802,802,802,802,802,802,802,802,802,802,802,802,802,802,802,802,802,802,802,802,802,802,802,802,802,802,802,802,802,802,802,802,802,802,802,802,802,802,802,802,802,802,802,802,802,802,802,802,802,802,802,802,802,802,802,802,802,802,802,802,802,802,802,802,802,802,802,802,802,802,802,802,802,802,802,802,802,802,802,802,802,802,802,802,802,802,802,802,802,802,802,802,802,802,802,802,802,802,802,802,802,802,802,802,802,802,802,802,802,802,802,802,802,802,802,802,802,802,802,802,802,802,802,802,802,802,802,802,802,802,802,802,802,802,802,802,802,802,802,802,802,802,802,802,802,802,802,802,802,802,802,802,802,802,802,802,802,802,802,802,802,802,802,802,802,802,802,802,802,802,802,802,802,802,802,802,802,802,802,802,802,802,802,802,802,802,802,802,802,802,802,802,802,802,802,802,802,802,802,802,802,802,802,802,802,802,802,802,802,802,802,802,802,802,802,802,802,802,802,802,802,802,802,802,802,802,802,802,802,802,802,802,802,802,802,802,802,802,802,802,802,802,802,802,802,802,802,802,802,802,802,802,802,802,802,802,802,802,802,802,802,802,802,802,802,802,802,802,802,802,802,802,802,802,802,802,802,802,802,802,802,802,802,802,802,802,802,802,802,802,802,802,802,802,802,802,802,802,802,802,802,802,802,802,802,802,802,802,802,802,802,802,802,802,802,802,802,802,802,802,802,802,802,802,802,802,802,802,802,802,802,802,802,802,802,802,802,802,802,802,802,802,802,802,802,802,802,802,802,802,802,802,802,802,802,802,802,802,802,802,802,802,802,802,802,802,802,802,802,802,802,802,802,802,802,802,802,802,802,802,802,802,802,802,802,802,802,802,802,802,802,802,802,802,802,802,802,802,802,802,802,802,802,802,802,802,802,802,802,802,802,802,802,802,802,802,802,802,802,802,802,802,802,802,802,802,802,802,802,802,802,802,802,802,802,802,802,802,802,802,802,802,802,802,802,802,802,802,802,802,802,802,802,802,802,802,802,802,802,802,802,802,802,802,802,802,802,802,802,802,802,802,802,802,802,802,802,802,802,802,802,802,802,802,802,802,802,802,802,802,802,802,802,802,802,802,802,802,802,802,802,802,802,802,802,802,802,802,802,802,802,802,802,802,802,802,802,802,802,802,802,802,802,802,802,802,802,802,802,802,802,802,802,802,802,802,802,802,802,802,802,802,802,802,802,802,802,802,802,802,802,802,802,802,802,802,802,802,802,802,802,802,802,802,802,802,802,802,802,802,802,802,802,802,802,802,802,802,802,802,802,802,802,802,802,802,802,802,802,802,802,802,802,802,802,802,802,802,802,802,802,802,802,802,802,802,802,802,802,802,802,802,802,802,802,802,802,802,802,802,802,802,802,802,802,802,802,802,802,802,802,802,802,802,802,802,802,802,802,802,802,802,802,802,802,802,802,802,802,802,802,802,802,802,802,802,802,802,802,802,802,802,802,802,802,802,802,802,802,802,802,802,802,802,802,802,802,802,802,802,802,802,802,802,802,802,802,802,802,802,802,802,802,802,802,802,802,802,802,802,802,802,802,802,802,802,802,802,802,802,802,802,802,802,802,802,802,802,802,802,802,802,802,802,802,802,802,802,802,802,802,802,802,802,802,802,802,802,802,802,802,802,802,802,802,802,802,802,802,802,802,802,802,802,802,802,802,802,802,802,802,802,802,802,802,802,802,802,802,802,802,802,802,802,802,802,802,802,802,802,802,802,802,802,802,802,802,802,802,802,802,802,802,802,802,802,802,802,802,802,802,802,802,802,802,802,802,802,802,802,802,802,802,802,802,802,802,802,802,802,802,802,802,802,802,802,802,802,802,802,802,802,802,802,802,802,802,802,802,802,802,802,802,802,802,802,802,802,802,802,802,802,802,802,802,802,802,802,802,802,802,802,802,802,802,802,802,802,802,802,802,802,802,802,802,802,802,802,802,802,802,802,802,802,802,802,802,802,802,802,802,802,802,802,802,802,802,802,802,802,802,802,802,802,802,802,802,802,802,802,802,802,802,802,802,802,802,802,802,802,802,802,802,802,802,802,802,802,802,802,802,802,802,802,802,802,802,802,802,802,802,802,802,802,802,802,802,802,802,802,802,802,802,802,802,802,802,802,802,802,802,802,802,802,802,802,802,802,802,802,802,802,802,802,802,802,802,802,802,802,802,802,802,802,802,802,802,802,802,802,802,802,802,802,802,802,802,802,802,802,802,802,802,802,802,802,802,802,802,802,802,802,802,802,802,802,802,802,802,802,802,802,802,802,802,802,802,802,802,802,802,802,802,802,802,802,802,802,802,802,802,802,802,802,802,802,802,802,802,802,802,802,802,802,802,802,802,802,802,802,802,802,802,802,802,802,802,802,802,802,802,802,802,802,802,802,802,802,802,802,802,802,802,802,802,802,802,802,802,802,802,802,802,802,802,802,802,802,802,802,802,802,802,802,802,802,802,802,802,802,803,825,912,976,976,976,976,976,976,971,969,964,959,954,925,907,900,897,897,897,897,897,895,893,881,879,877,872,862,833,830,829,829,829,824,822,820,819,818,815,804,795,786,783,783,783,783,783,783,783,783,784,784,784,784,784,784,784,784,784,784,784,784,784,784,784,784,784,784,784,784,784,784,784,784,784,784,784,784,784,784,784,784,784,784,784,784,784,784,784,784,784,784,784,784,784,784,784,784,784,784,784,784,784,784,784,784,784,784,784,784,784,784,784,784,784,784,784,784,784,784,784,784,784,784,784,784,784,784,784,784,784,784,784,784,784,784,784,784,784,784,784,784,784,784,784,784,784,784,784,785,787,787,787,789,802,810,815,819,828,832,834,835,835,836,838,838,841,841,841,841,841,839,824,775,752,739,729,712,671,671,670,670,679,721,760,796,809,813,817,819,819,819,819,814,809,807,805,802,783,762,716,662,595,464,433,426,427,432,441,457,468,481,497,543,569,591,606,612,614,614,614,616,631,708,741,756,759,759,759,759,759,759,759,759,759,759,759,759,760,763,763,765,766,770,773,777,783,786,787,787,787,787,787,787,787,788,790,809,972,1067,1114,1148,1172,1172,1172,1172,1172,1172,1172,1172,1172,1172,1172,1172,1172,1172,1148,1148],"ymouse":[531,531,531,531,531,531,531,531,531,531,531,531,531,531,531,531,531,531,531,531,531,531,531,531,531,531,531,531,531,531,531,531,531,531,531,531,545,564,574,574,573,573,572,572,571,566,549,545,540,539,537,537,537,540,542,546,554,558,555,543,535,531,529,527,525,524,521,515,511,511,511,512,517,521,524,527,530,530,531,532,532,532,531,528,524,518,506,504,503,503,503,503,503,503,504,504,508,511,513,516,518,519,519,519,519,519,519,519,519,519,519,519,519,519,519,519,519,519,519,519,519,519,519,527,531,533,534,534,534,534,534,534,534,534,534,534,534,534,534,534,534,534,534,534,534,534,534,534,534,534,534,534,534,534,534,534,534,534,534,534,534,534,534,534,534,534,534,534,534,534,534,534,534,534,534,534,534,534,534,534,534,534,534,534,534,534,534,534,534,534,534,534,534,534,534,534,534,534,534,534,534,534,534,534,534,534,534,534,534,534,534,534,534,534,534,534,534,534,534,534,534,534,534,534,534,534,534,534,534,534,534,534,534,534,534,534,534,534,534,534,534,534,534,534,534,534,534,534,534,534,534,534,534,534,534,534,534,534,534,534,534,534,534,534,534,534,534,534,534,534,534,534,534,534,534,534,534,534,534,534,534,534,534,534,534,534,534,534,534,534,534,534,534,534,534,534,534,534,534,534,534,534,534,534,534,534,534,534,534,534,534,534,534,534,534,534,534,534,534,534,534,534,534,534,534,534,534,534,534,534,534,534,534,534,534,534,534,534,534,534,534,534,534,534,534,534,534,534,534,534,534,534,534,534,534,534,534,534,534,534,534,534,534,534,534,534,534,534,534,534,534,534,534,534,534,534,534,534,534,534,534,534,534,534,534,534,534,534,534,534,534,534,534,534,534,534,534,534,534,534,534,534,534,534,534,534,534,534,534,534,534,534,534,534,534,534,534,534,534,534,534,534,534,534,534,534,534,534,534,534,534,534,534,534,534,534,534,534,534,534,534,534,534,534,534,534,534,534,534,534,534,534,534,534,534,534,534,534,534,534,534,534,534,534,534,534,534,534,534,534,534,534,534,534,534,534,534,534,534,534,534,534,534,534,534,534,534,534,534,534,534,534,534,534,534,534,534,534,534,534,534,534,534,534,534,534,534,534,534,534,534,534,534,534,534,534,534,534,534,534,534,534,534,534,534,534,534,534,534,534,534,534,534,534,534,534,534,534,534,534,534,534,534,534,534,534,534,534,534,534,534,534,534,534,534,534,534,534,534,534,534,534,534,534,534,534,534,534,534,534,534,534,534,534,534,534,534,534,534,534,534,534,534,534,534,534,534,534,534,534,534,534,534,534,534,534,534,534,534,534,534,534,534,534,534,534,534,534,534,534,534,534,534,534,534,534,534,534,534,534,534,534,534,534,534,534,534,534,534,534,534,534,534,534,534,534,534,534,534,534,534,534,534,534,534,534,534,534,534,534,534,534,534,534,534,534,534,534,534,534,534,534,534,534,534,534,534,534,534,534,534,534,534,534,534,534,534,534,534,534,534,534,534,534,534,534,534,534,534,534,534,534,534,534,534,534,534,534,534,534,534,534,534,534,534,534,534,534,534,534,534,534,534,534,534,534,534,534,534,534,534,534,534,534,534,534,534,534,534,534,534,534,534,534,534,534,534,534,534,534,534,534,534,534,534,534,534,534,534,534,534,534,534,534,534,534,534,534,534,534,534,534,534,534,534,534,534,534,534,534,534,534,534,534,534,534,534,534,534,534,534,534,534,534,534,534,534,534,534,534,534,534,534,534,534,534,534,534,534,534,534,534,534,534,534,534,534,534,534,534,534,534,534,534,534,534,534,534,534,534,534,534,534,534,534,534,534,534,534,534,534,534,534,534,534,534,534,534,534,534,534,534,534,534,534,534,534,534,534,534,534,534,534,534,534,534,534,534,534,534,534,534,534,534,534,534,534,534,534,534,534,534,534,534,534,534,534,534,534,534,534,534,534,534,534,534,534,534,534,534,534,534,534,534,534,534,534,534,534,534,534,534,534,534,534,534,534,534,534,534,534,534,534,534,534,534,534,534,534,534,534,534,534,534,534,534,534,534,534,534,534,534,534,534,534,534,534,534,534,534,534,534,534,534,534,534,534,534,534,534,534,534,534,534,534,534,534,534,534,534,534,534,534,534,534,534,534,534,534,534,534,534,534,534,534,534,534,534,534,534,534,534,534,534,534,534,534,534,534,534,534,534,534,534,534,534,534,534,534,534,534,534,534,534,534,534,534,534,534,534,534,534,534,534,534,534,534,534,534,534,534,534,534,534,534,534,534,534,534,534,534,534,534,534,534,534,534,534,534,534,534,534,534,534,534,534,534,534,534,534,534,534,534,534,534,534,534,534,534,534,534,534,534,534,534,534,534,534,534,534,534,534,534,534,534,534,534,534,534,534,534,534,534,534,534,534,534,534,534,534,534,534,534,534,534,534,534,534,534,534,534,534,534,534,534,534,534,534,534,534,534,534,534,534,534,534,534,534,534,534,534,534,534,534,534,534,534,534,534,534,534,534,534,534,534,534,534,534,534,534,534,534,534,534,534,534,534,534,534,534,534,534,534,534,534,534,534,534,534,534,534,534,534,534,534,534,534,534,534,534,534,534,534,534,534,534,534,534,534,534,534,534,534,534,534,534,534,534,534,534,534,534,534,534,534,534,534,534,534,534,534,534,534,534,534,534,534,534,534,534,534,534,534,534,534,534,534,534,534,534,534,534,534,534,534,534,534,534,534,534,534,534,534,534,534,534,534,534,534,534,534,534,534,534,534,534,534,534,534,534,534,534,534,534,534,534,534,534,534,534,534,534,534,534,534,534,534,534,534,534,534,534,534,534,534,534,534,534,534,534,534,534,534,534,534,534,534,534,534,534,534,534,534,534,534,534,534,534,534,534,534,534,534,534,534,534,534,534,534,534,534,534,534,534,534,534,534,534,534,534,534,534,534,534,534,534,534,534,534,534,534,534,534,534,534,534,534,534,534,534,534,534,534,534,534,534,534,534,534,534,534,534,534,534,534,534,534,534,534,534,534,534,534,534,534,534,534,534,534,534,534,534,534,534,534,534,534,534,534,534,534,534,534,534,534,534,534,534,534,534,534,534,534,534,534,534,534,534,534,534,534,534,534,534,534,534,534,534,534,534,534,534,534,534,534,534,534,534,534,534,534,534,534,534,534,534,534,534,534,534,534,534,534,534,534,534,534,534,534,534,534,534,534,534,534,534,534,534,534,534,534,534,534,534,534,534,534,534,534,534,534,534,534,534,534,534,534,534,534,534,534,534,534,534,534,534,534,534,534,534,534,534,534,534,534,534,534,534,534,534,534,534,534,534,534,534,534,534,534,534,534,534,534,534,534,534,534,534,534,534,534,534,534,534,534,534,534,534,534,534,534,534,534,534,534,534,534,534,534,534,534,534,534,534,534,534,534,534,534,534,534,534,534,534,534,534,534,534,534,534,534,534,534,534,534,534,534,534,534,534,534,534,534,534,534,534,534,534,534,534,534,534,534,534,534,534,534,534,534,534,534,534,534,534,534,534,534,534,534,534,534,534,534,534,534,534,534,534,534,534,534,534,534,534,534,534,534,534,534,534,534,534,534,470,413,413,413,411,411,411,410,410,410,412,424,452,465,471,474,474,474,474,474,476,478,485,486,488,491,493,502,504,505,506,506,507,507,507,507,507,508,512,513,516,518,520,520,520,520,520,520,520,519,519,519,519,519,519,519,519,519,519,519,519,519,519,519,519,519,519,519,519,519,519,519,519,519,519,519,519,519,519,519,519,519,519,519,519,519,519,519,519,519,519,519,519,519,519,519,519,519,519,519,519,519,519,519,519,519,519,519,519,519,519,519,519,519,519,519,519,519,519,519,519,519,519,519,519,519,519,519,519,519,519,519,519,519,519,519,519,519,519,519,519,519,519,519,519,519,519,519,505,418,348,299,264,227,216,209,204,193,187,184,183,183,180,177,173,165,158,150,137,132,127,123,120,120,120,121,126,139,140,141,141,131,92,65,39,25,21,19,18,18,18,18,23,26,27,30,33,47,63,94,130,168,275,333,370,391,401,407,407,408,412,420,436,444,450,454,454,454,454,454,454,454,474,490,503,506,506,506,506,506,506,509,513,515,517,518,519,519,520,520,520,520,520,519,518,516,515,514,514,514,514,514,514,514,512,508,485,354,263,188,107,0,0,0,0,0,0,0,0,0,0,0,0,0,0,0,1],"timestamp_mouse":[10,25,44,64,85,105,125,144,164,185,204,225,244,264,285,304,324,345,365,385,404,424,445,465,484,505,524,545,565,585,604,624,644,665,685,704,725,744,764,785,805,824,844,864,885,905,925,945,965,985,1004,1025,1044,1064,1085,1105,1125,1144,1164,1184,1205,1225,1245,1265,1285,1305,1324,1344,1364,1384,1404,1425,1446,1465,1484,1505,1525,1544,1565,1584,1604,1625,1644,1664,1685,1705,1724,1744,1764,1786,1805,1824,1845,1865,1885,1905,1924,1945,1965,1984,2005,2025,2046,2064,2084,2105,2124,2144,2165,2185,2205,2224,2246,2264,2285,2304,2326,2344,2365,2384,2405,2424,2445,2465,2485,2504,2524,2545,2565,2584,2605,2624,2645,2665,2685,2705,2726,2745,2764,2784,2804,2825,2845,2865,2886,2905,2924,2946,2965,2985,3004,3024,3045,3065,3084,3104,3124,3145,3164,3185,3204,3225,3245,3264,3286,3305,3324,3345,3365,3384,3404,3425,3445,3465,3484,3505,3525,3544,3565,3586,3606,3625,3645,3665,3685,3705,3725,3745,3765,3785,3804,3825,3845,3864,3884,3904,3925,3944,3964,3985,4004,4025,4044,4065,4084,4104,4125,4144,4165,4184,4204,4225,4244,4264,4284,4305,4326,4345,4364,4385,4405,4424,4446,4465,4484,4504,4525,4544,4564,4584,4605,4625,4644,4666,4685,4705,4724,4744,4766,4786,4805,4825,4845,4865,4884,4906,4924,4945,4965,4985,5005,5025,5045,5065,5085,5104,5125,5144,5165,5184,5204,5224,5245,5264,5285,5305,5324,5345,5365,5385,5404,5424,5445,5465,5485,5504,5526,5544,5565,5585,5604,5626,5645,5664,5685,5704,5725,5745,5764,5784,5804,5825,5845,5864,5884,5906,5924,5944,5965,5985,6004,6024,6045,6066,6084,6105,6125,6145,6164,6185,6204,6225,6245,6264,6286,6304,6324,6346,6364,6384,6405,6425,6445,6465,6486,6505,6524,6544,6566,6585,6604,6625,6645,6665,6685,6705,6724,6744,6765,6784,6804,6824,6845,6864,6885,6905,6924,6945,6965,6984,7005,7024,7045,7064,7084,7105,7124,7146,7164,7185,7205,7226,7244,7265,7284,7305,7324,7345,7365,7384,7405,7426,7444,7464,7484,7504,7525,7545,7564,7585,7604,7625,7644,7664,7684,7705,7725,7745,7765,7785,7805,7825,7845,7866,7886,7905,7924,7945,7964,7985,8004,8024,8045,8064,8084,8105,8124,8145,8166,8185,8205,8225,8245,8264,8284,8305,8326,8344,8364,8384,8405,8425,8445,8464,8484,8505,8524,8545,8564,8585,8605,8625,8645,8664,8685,8706,8725,8745,8765,8786,8804,8825,8845,8865,8884,8904,8925,8944,8966,8985,9005,9025,9045,9064,9085,9104,9124,9144,9164,9185,9204,9224,9244,9265,9285,9304,9325,9344,9365,9385,9405,9425,9444,9466,9485,9504,9525,9545,9565,9584,9604,9625,9646,9665,9684,9705,9725,9744,9765,9785,9805,9824,9846,9865,9885,9905,9924,9945,9964,9984,10005,10025,10046,10065,10084,10104,10125,10144,10164,10185,10204,10225,10245,10265,10285,10306,10325,10345,10364,10385,10405,10425,10444,10464,10485,10504,10525,10544,10565,10584,10605,10624,10644,10664,10685,10705,10725,10744,10764,10785,10804,10824,10845,10866,10886,10906,10925,10944,10965,10985,11005,11025,11045,11066,11084,11105,11124,11144,11166,11185,11204,11225,11246,11265,11285,11305,11324,11345,11365,11385,11405,11425,11445,11465,11485,11505,11524,11544,11565,11584,11605,11625,11645,11664,11685,11706,11725,11745,11765,11784,11805,11824,11845,11864,11884,11905,11925,11945,11965,11985,12004,12026,12045,12065,12084,12104,12125,12144,12164,12184,12204,12224,12244,12265,12286,12304,12325,12345,12366,12386,12404,12425,12444,12465,12485,12504,12525,12544,12566,12585,12604,12625,12644,12665,12685,12705,12724,12744,12766,12785,12805,12825,12846,12865,12884,12905,12924,12945,12965,12984,13005,13024,13044,13065,13085,13105,13124,13145,13164,13185,13205,13224,13245,13265,13285,13305,13324,13346,13365,13386,13405,13425,13445,13465,13485,13506,13524,13545,13565,13585,13604,13624,13645,13664,13684,13704,13725,13744,13765,13785,13805,13825,13845,13865,13884,13905,13924,13944,13964,13985,14004,14024,14044,14065,14084,14104,14125,14145,14164,14186,14205,14225,14245,14265,14285,14306,14324,14346,14365,14384,14405,14425,14444,14465,14486,14505,14525,14545,14565,14585,14604,14624,14645,14664,14686,14704,14725,14744,14765,14786,14806,14825,14845,14866,14885,14905,14925,14944,14965,14986,15006,15025,15045,15065,15085,15106,15125,15145,15164,15185,15205,15226,15245,15264,15285,15306,15325,15345,15365,15384,15405,15425,15444,15465,15485,15506,15525,15544,15565,15584,15606,15625,15644,15665,15686,15705,15725,15744,15765,15786,15805,15824,15845,15864,15884,15905,15924,15944,15964,15984,16005,16024,16044,16066,16085,16104,16124,16144,16164,16185,16205,16225,16245,16265,16285,16306,16326,16345,16365,16384,16405,16425,16444,16466,16484,16505,16525,16544,16565,16585,16605,16625,16644,16665,16685,16704,16725,16745,16764,16784,16805,16825,16845,16865,16884,16906,16925,16945,16965,16984,17005,17026,17046,17064,17084,17104,17124,17144,17164,17185,17205,17225,17245,17264,17285,17305,17324,17346,17364,17384,17405,17424,17445,17466,17484,17504,17525,17545,17566,17584,17604,17624,17645,17665,17686,17704,17725,17744,17766,17785,17804,17824,17845,17866,17885,17905,17925,17945,17964,17985,18005,18025,18045,18066,18085,18105,18125,18145,18164,18185,18205,18224,18244,18264,18285,18306,18325,18346,18364,18385,18406,18425,18445,18464,18484,18506,18524,18545,18564,18585,18605,18625,18645,18664,18685,18705,18725,18744,18764,18784,18805,18824,18845,18864,18885,18905,18924,18944,18964,18984,19005,19025,19045,19065,19086,19106,19125,19144,19164,19185,19205,19226,19245,19264,19285,19306,19324,19345,19364,19384,19405,19425,19444,19466,19485,19505,19525,19545,19564,19584,19604,19626,19645,19664,19685,19705,19724,19744,19764,19785,19805,19825,19845,19865,19885,19906,19925,19944,19964,19985,20004,20024,20045,20065,20085,20105,20125,20145,20164,20184,20205,20224,20245,20266,20285,20305,20324,20345,20365,20385,20404,20424,20445,20465,20485,20505,20525,20544,20564,20584,20605,20624,20645,20664,20685,20705,20724,20744,20765,20785,20805,20824,20845,20865,20884,20905,20925,20944,20965,20985,21006,21025,21045,21065,21084,21105,21125,21144,21165,21185,21204,21225,21245,21265,21284,21305,21324,21345,21364,21384,21405,21425,21444,21464,21485,21505,21525,21545,21565,21585,21604,21626,21645,21664,21685,21704,21725,21744,21765,21784,21804,21825,21845,21865,21885,21905,21925,21946,21965,21985,22005,22026,22045,22065,22085,22104,22126,22145,22165,22185,22205,22224,22245,22265,22284,22306,22325,22345,22364,22384,22405,22424,22444,22464,22484,22505,22525,22545,22565,22584,22605,22624,22645,22665,22685,22705,22725,22745,22765,22784,22805,22825,22844,22865,22884,22904,22924,22944,22965,22985,23005,23025,23044,23065,23085,23104,23125,23146,23166,23185,23205,23224,23245,23264,23285,23305,23325,23345,23365,23386,23405,23425,23444,23465,23485,23504,23526,23546,23566,23585,23604,23625,23645,23664,23685,23706,23725,23745,23766,23784,23805,23824,23844,23864,23884,23904,23924,23944,23965,23985,24004,24025,24045,24064,24085,24105,24124,24144,24164,24186,24206,24225,24245,24265,24286,24304,24324,24345,24364,24384,24405,24426,24445,24464,24485,24504,24525,24544,24566,24584,24604,24625,24644,24666,24684,24704,24724,24746,24764,24785,24806,24825,24845,24865,24884,24906,24926,24945,24966,24984,25005,25025,25044,25065,25086,25106,25126,25145,25164,25185,25205,25224,25245,25266,25285,25304,25324,25345,25365,25385,25405,25426,25446,25465,25484,25504,25524,25546,25565,25584,25604,25624,25645,25664,25684,25704,25726,25746,25765,25786,25805,25825,25844,25865,25885,25904,25925,25945,25965,25985,26004,26025,26046,26065,26085,26104,26125,26145,26164,26186,26205,26224,26245,26264,26285,26306,26325,26346,26364,26385,26406,26426,26444,26465,26485,26505,26525,26545,26565,26585,26606,26624,26645,26664,26684,26705,26726,26745,26764,26785,26804,26825,26845,26864,26884,26905,26924,26944,26965,26984,27006,27024,27045,27065,27085,27104,27124,27144,27166,27186,27204,27225,27245,27266,27284,27305,27324,27345,27365,27384,27406,27424,27444,27465,27484,27506,27525,27545,27564,27586,27606,27625,27644,27665,27685,27711,27725,27746,27765,27784,27804,27825,27846,27864,27886,27905,27924,27944,27966,27986,28006,28025,28044,28065,28084,28104,28126,28144,28165,28184,28205,28226,28245,28265,28286,28305,28324,28345,28366,28385,28404,28424,28445,28465,28485,28505,28525,28545,28566,28584,28604,28625,28646,28666,28684,28705,28725,28746,28765,28785,28804,28824,28845,28866,28885,28906,28924,28944,28965,28984,29004,29025,29045,29066,29085,29105,29124,29144,29164,29184,29206,29226,29246,29266,29286,29304,29324,29345,29366,29386,29405,29424,29444,29465,29484,29506,29526,29544,29565,29586,29604,29625,29645,29666,29685,29705,29724,29746,29764,29785,29805,29825,29845,29865,29884,29905,29925,29944,29966,29985,30005,30025,30045,30066,30084,30105,30124,30145,30166,30185,30204,30225,30244,30265,30284,30305,30325,30345,30366,30385,30406,30425,30444,30465,30486,30505,30526,30545,30564,30586,30606,30625,30645,30665,30685,30704,30725,30745,30766,30785,30805,30825,30844,30865,30884,30906,30926,30945,30964,30985,31005,31025,31044,31065,31086,31106,31124,31144,31165,31184,31204,31224,31246,31264,31285,31306,31325,31345,31365,31385,31406,31425,31445,31464,31484,31506,31526,31544,31565,31586,31605,31625,31646,31664,31686,31705,31726,31744,31766,31786,31805,31825,31844,31864,31884,31905,31925,31946,31966,31984,32005,32024,32044,32065,32085,32104,32126,32145,32166,32184,32204,32224,32244,32266,32285,32304,32324,32345,32364,32385,32404,32426,32446,32465,32484,32504,32524,32544,32565,32586,32606,32625,32644,32665,32684,32704,32724,32745,32764,32786,32804,32825,32845,32864,32884,32904,32924,32945,32965,32984,33004,33024,33045,33065,33084,33104,33126,33144,33165,33186,33206,33225,33245,33265,33284,33306,33326,33345,33364,33384,33404,33425,33444,33466,33485,33506,33524,33545,33566,33584,33604,33625,33645,33666,33684,33705,33724,33746,33765,33784,33806,33826,33844,33865,33884,33905,33925,33944,33965,33984,34005,34026,34046,34065,34085,34104,34124,34145,34164,34184,34205,34224,34244,34265,34285,34306,34326,34344,34365,34385,34405,34425,34445,34464,34485,34505,34525,34544,34565,34585,34606,34625,34645,34665,34684,34704,34724,34744,34765,34784,34806,34825,34845,34864,34885,34906,34924,34944,34964,34985,35005,35026,35044,35065,35084,35104,35126,35145,35165,35186,35205,35225,35245,35264,35285,35304,35324,35344,35365,35385,35404,35424,35444,35464,35486,35505,35524,35545,35564,35584,35604,35624,35645,35664,35685,35705,35724,35744,35765,35785,35805,35825,35844,35865,35885,35905,35924,35945,35964,35985,36004,36026,36045,36064,36085,36105,36125,36144,36165,36185,36205,36225,36245,36265,36284,36305,36325,36345,36364,36385,36405,36425,36445,36464,36484,36505,36524,36545,36564,36586,36605,36624,36644,36665,36685,36705,36725,36744,36764,36785,36806,36826,36845,36865,36884,36904,36924,36945,36966,36986,37004,37025,37045,37064,37085,37105,37125,37144,37164,37186,37205,37226,37245,37266,37284,37305,37324,37346,37364,37385,37404,37425,37445,37464,37486,37505,37526,37546,37564,37585,37605,37625,37646,37665,37684,37707,37724,37745,37764,37784],"xSR":464,"ySR":469.95,"xT1":258.4,"yT1":0,"xT2":669.5999999999999,"yT2":0,"toosoon":0,"cond_shown":"equaldotanddens","ratio_trial":500,"smaller_num":"2","larger_num":"4","correct_side":1,"subjID":" nataliacorrealcaceres3","gender":" 1","age":" 11","school":" sexto","test":{"fix_dur":[250,1500],"timestim":300,"targets_dim":[100,100],"targets_relative_coord":[0.3,0.7],"size_stim":[880,420],"start_dim":[100,100],"size_start":[300,300],"size_fix":60,"samplingrate":20,"img_types":["equaldotsize","equaldotanddens","randomdotsizeEA"],"ratios":[250,500,750,900],"rep_conds":9,"nTrials":120,"trials_to_rest":500,"Trials_order":[100,51,89,104,29,86,38,94,0,28,10,48,85,95,19,108,68,31,43,76,71,8,7,84,90,80,21,109,11,77,102,45,35,42,101,44,18,78,75,20,36,56,14,88,113,107,27,22,15,99,61,41,73,60,57,2,53,98,114,65,23,93,116,91,110,67,6,66,5,118,50,69,32,40,96,115,49,34,16,72,58,46,26,74,25,119,9,1,62,83,24,82,52,13,79,70,54,103,112,39,33,64,4,111,3,87,12,37,17,97,59,105,63,81,55,47,117,30,92,106],"cond_shown":["equaldotanddens","equaldotsize","randomdotsizeEA","randomdotsizeEA","randomdotsizeEA","randomdotsizeEA","randomdotsizeEA","equaldotanddens","equaldotsize","equaldotanddens","equaldotanddens","equaldotsize","equaldotanddens","randomdotsizeEA","equaldotanddens","equaldotsize","randomdotsizeEA","equaldotanddens","equaldotanddens","equaldotanddens","randomdotsizeEA","randomdotsizeEA","equaldotanddens","equaldotsize","equaldotsize","randomdotsizeEA","equaldotsize","equaldotanddens","randomdotsizeEA","randomdotsizeEA","equaldotsize","equaldotsize","randomdotsizeEA","equaldotsize","randomdotsizeEA","randomdotsizeEA","equaldotsize","equaldotsize","equaldotsize","randomdotsizeEA","equaldotsize","randomdotsizeEA","randomdotsizeEA","equaldotanddens","randomdotsizeEA","randomdotsizeEA","equaldotsize","equaldotanddens","equaldotsize","equaldotsize","equaldotanddens","randomdotsizeEA","equaldotanddens","equaldotsize","equaldotsize","randomdotsizeEA","randomdotsizeEA","randomdotsizeEA","equaldotsize","randomdotsizeEA","randomdotsizeEA","equaldotsize","randomdotsizeEA","equaldotanddens","randomdotsizeEA","equaldotanddens","equaldotsize","equaldotsize","randomdotsizeEA","equaldotanddens","randomdotsizeEA","equaldotsize","randomdotsizeEA","equaldotanddens","equaldotsize","equaldotanddens","equaldotanddens","equaldotanddens","equaldotanddens","equaldotsize","equaldotanddens","equaldotanddens","randomdotsizeEA","randomdotsizeEA","equaldotanddens","randomdotsizeEA","equaldotsize","equaldotanddens","randomdotsizeEA","randomdotsizeEA","equaldotsize","equaldotanddens","equaldotanddens","equaldotanddens","equaldotanddens","equaldotanddens","equaldotsize","equaldotanddens","equaldotanddens","equaldotsize","equaldotsize","equaldotanddens","equaldotanddens","equaldotsize","equaldotsize","equaldotsize","equaldotsize","equaldotanddens","randomdotsizeEA","equaldotanddens","randomdotsizeEA","equaldotsize","equaldotsize","equaldotsize","equaldotanddens","randomdotsizeEA","equaldotsize","equaldotsize","randomdotsizeEA","equaldotanddens"],"ratio_trial":[500,500,500,750,500,250,250,900,250,500,900,250,250,900,750,250,750,750,750,500,900,750,750,250,750,750,900,250,900,500,750,900,900,750,500,750,750,750,500,750,250,750,250,500,500,900,500,900,500,500,250,500,250,250,900,250,500,250,750,500,900,900,750,750,250,750,750,750,500,900,250,900,750,500,250,750,250,900,500,250,900,900,250,250,250,900,900,250,250,900,250,900,500,250,750,900,750,750,500,500,900,500,500,500,500,500,250,250,500,250,900,900,500,900,750,900,900,750,750,900],"smaller_num":["2","2","5","3","2","1","2","18","4","1","18","5","6","18","15","4","6","15","18","6","18","9","3","3","15","3","18","3","9","5","15","18","18","9","2","3","12","15","5","15","2","15","2","10","9","9","2","9","5","2","4","6","2","5","18","1","5","4","15","5","18","9","3","6","4","6","6","15","5","18","2","18","6","9","2","15","3","9","1","2","18","18","6","3","3","18","9","5","6","18","6","18","9","4","3","18","3","6","6","10","18","6","1","5","1","6","3","3","10","3","9","18","1","18","6","18","18","18","12","18"],"larger_num":["4","4","10","4","4","4","8","20","16","2","20","20","24","20","20","16","8","20","24","12","20","12","4","12","20","4","20","12","10","10","20","20","20","12","4","4","16","20","10","20","8","20","8","20","18","10","4","10","10","4","16","12","8","20","20","4","10","16","20","10","20","10","4","8","16","8","8","20","10","20","8","20","8","18","8","20","12","10","2","8","20","20","24","12","12","20","10","20","24","20","24","20","18","16","4","20","4","8","12","20","20","12","2","10","2","12","12","12","20","12","10","20","2","20","8","20","20","24","16","20"],"correct_side":[1,1,2,2,1,2,1,2,2,2,1,2,1,2,1,2,2,2,1,1,1,2,1,1,2,1,1,1,2,2,2,1,1,2,1,1,2,1,2,1,1,2,1,2,1,2,2,2,2,1,2,1,1,2,1,2,2,1,2,1,2,2,1,2,2,1,1,2,2,1,1,1,1,2,1,2,1,2,2,1,1,2,1,2,1,2,2,2,1,2,1,1,2,1,2,2,1,2,1,2,1,1,2,1,2,1,2,2,2,2,2,2,2,2,1,1,1,1,2,1],"img_shown":["img/500/equaldotanddens/L/5_Ratio_500_L_4_R_2.png","img/500/equaldotsize/L/5_Ratio_500_L_4_R_2.png","img/500/randomdotsizeEA/R/14_Ratio_500_L_5_R_10.png","img/750/randomdotsizeEA/R/7_Ratio_750_L_3_R_4.png","img/500/randomdotsizeEA/L/10_Ratio_500_L_4_R_2.png","img/250/randomdotsizeEA/R/8_Ratio_250_L_1_R_4.png","img/250/randomdotsizeEA/L/3_Ratio_250_L_8_R_2.png","img/900/equaldotanddens/R/12_Ratio_900_L_18_R_20.png","img/250/equaldotsize/R/10_Ratio_250_L_4_R_16.png","img/500/equaldotanddens/R/12_Ratio_500_L_1_R_2.png","img/900/equaldotanddens/L/4_Ratio_900_L_20_R_18.png","img/250/equaldotsize/R/12_Ratio_250_L_5_R_20.png","img/250/equaldotanddens/L/5_Ratio_250_L_24_R_6.png","img/900/randomdotsizeEA/R/12_Ratio_900_L_18_R_20.png","img/750/equaldotanddens/L/1_Ratio_750_L_20_R_15.png","img/250/equaldotsize/R/10_Ratio_250_L_4_R_16.png","img/750/randomdotsizeEA/R/2_Ratio_750_L_6_R_8.png","img/750/equaldotanddens/R/4_Ratio_750_L_15_R_20.png","img/750/equaldotanddens/L/6_Ratio_750_L_24_R_18.png","img/500/equaldotanddens/L/13_Ratio_500_L_12_R_6.png","img/900/randomdotsizeEA/L/8_Ratio_900_L_20_R_18.png","img/750/randomdotsizeEA/R/15_Ratio_750_L_9_R_12.png","img/750/equaldotanddens/L/8_Ratio_750_L_4_R_3.png","img/250/equaldotsize/L/14_Ratio_250_L_12_R_3.png","img/750/equaldotsize/R/5_Ratio_750_L_15_R_20.png","img/750/randomdotsizeEA/L/8_Ratio_750_L_4_R_3.png","img/900/equaldotsize/L/2_Ratio_900_L_20_R_18.png","img/250/equaldotanddens/L/15_Ratio_250_L_12_R_3.png","img/900/randomdotsizeEA/R/3_Ratio_900_L_9_R_10.png","img/500/randomdotsizeEA/R/14_Ratio_500_L_5_R_10.png","img/750/equaldotsize/R/5_Ratio_750_L_15_R_20.png","img/900/equaldotsize/L/4_Ratio_900_L_20_R_18.png","img/900/randomdotsizeEA/L/10_Ratio_900_L_20_R_18.png","img/750/equaldotsize/R/15_Ratio_750_L_9_R_12.png","img/500/randomdotsizeEA/L/5_Ratio_500_L_4_R_2.png","img/750/randomdotsizeEA/L/9_Ratio_750_L_4_R_3.png","img/750/equaldotsize/R/11_Ratio_750_L_12_R_16.png","img/750/equaldotsize/L/1_Ratio_750_L_20_R_15.png","img/500/equaldotsize/R/14_Ratio_500_L_5_R_10.png","img/750/randomdotsizeEA/L/1_Ratio_750_L_20_R_15.png","img/250/equaldotsize/L/3_Ratio_250_L_8_R_2.png","img/750/randomdotsizeEA/R/4_Ratio_750_L_15_R_20.png","img/250/randomdotsizeEA/L/1_Ratio_250_L_8_R_2.png","img/500/equaldotanddens/R/3_Ratio_500_L_10_R_20.png","img/500/randomdotsizeEA/L/4_Ratio_500_L_18_R_9.png","img/900/randomdotsizeEA/R/3_Ratio_900_L_9_R_10.png","img/500/equaldotsize/R/9_Ratio_500_L_2_R_4.png","img/900/equaldotanddens/R/7_Ratio_900_L_9_R_10.png","img/500/equaldotsize/R/14_Ratio_500_L_5_R_10.png","img/500/equaldotsize/L/10_Ratio_500_L_4_R_2.png","img/250/equaldotanddens/R/10_Ratio_250_L_4_R_16.png","img/500/randomdotsizeEA/L/13_Ratio_500_L_12_R_6.png","img/250/equaldotanddens/L/3_Ratio_250_L_8_R_2.png","img/250/equaldotsize/R/12_Ratio_250_L_5_R_20.png","img/900/equaldotsize/L/8_Ratio_900_L_20_R_18.png","img/250/randomdotsizeEA/R/8_Ratio_250_L_1_R_4.png","img/500/randomdotsizeEA/R/14_Ratio_500_L_5_R_10.png","img/250/randomdotsizeEA/L/2_Ratio_250_L_16_R_4.png","img/750/equaldotsize/R/5_Ratio_750_L_15_R_20.png","img/500/randomdotsizeEA/L/7_Ratio_500_L_10_R_5.png","img/900/randomdotsizeEA/R/9_Ratio_900_L_18_R_20.png","img/900/equaldotsize/R/7_Ratio_900_L_9_R_10.png","img/750/randomdotsizeEA/L/10_Ratio_750_L_4_R_3.png","img/750/equaldotanddens/R/2_Ratio_750_L_6_R_8.png","img/250/randomdotsizeEA/R/10_Ratio_250_L_4_R_16.png","img/750/equaldotanddens/L/13_Ratio_750_L_8_R_6.png","img/750/equaldotsize/L/13_Ratio_750_L_8_R_6.png","img/750/equaldotsize/R/4_Ratio_750_L_15_R_20.png","img/500/randomdotsizeEA/R/14_Ratio_500_L_5_R_10.png","img/900/equaldotanddens/L/10_Ratio_900_L_20_R_18.png","img/250/randomdotsizeEA/L/3_Ratio_250_L_8_R_2.png","img/900/equaldotsize/L/8_Ratio_900_L_20_R_18.png","img/750/randomdotsizeEA/L/14_Ratio_750_L_8_R_6.png","img/500/equaldotanddens/R/1_Ratio_500_L_9_R_18.png","img/250/equaldotsize/L/7_Ratio_250_L_8_R_2.png","img/750/equaldotanddens/R/3_Ratio_750_L_15_R_20.png","img/250/equaldotanddens/L/14_Ratio_250_L_12_R_3.png","img/900/equaldotanddens/R/15_Ratio_900_L_9_R_10.png","img/500/equaldotanddens/R/12_Ratio_500_L_1_R_2.png","img/250/equaldotsize/L/7_Ratio_250_L_8_R_2.png","img/900/equaldotanddens/L/4_Ratio_900_L_20_R_18.png","img/900/equaldotanddens/R/14_Ratio_900_L_18_R_20.png","img/250/randomdotsizeEA/L/5_Ratio_250_L_24_R_6.png","img/250/randomdotsizeEA/R/11_Ratio_250_L_3_R_12.png","img/250/equaldotanddens/L/14_Ratio_250_L_12_R_3.png","img/900/randomdotsizeEA/R/14_Ratio_900_L_18_R_20.png","img/900/equaldotsize/R/3_Ratio_900_L_9_R_10.png","img/250/equaldotanddens/R/12_Ratio_250_L_5_R_20.png","img/250/randomdotsizeEA/L/5_Ratio_250_L_24_R_6.png","img/900/randomdotsizeEA/R/11_Ratio_900_L_18_R_20.png","img/250/equaldotsize/L/5_Ratio_250_L_24_R_6.png","img/900/equaldotanddens/L/8_Ratio_900_L_20_R_18.png","img/500/equaldotanddens/R/1_Ratio_500_L_9_R_18.png","img/250/equaldotanddens/L/2_Ratio_250_L_16_R_4.png","img/750/equaldotanddens/R/12_Ratio_750_L_3_R_4.png","img/900/equaldotanddens/R/13_Ratio_900_L_18_R_20.png","img/750/equaldotsize/L/8_Ratio_750_L_4_R_3.png","img/750/equaldotanddens/R/2_Ratio_750_L_6_R_8.png","img/500/equaldotanddens/L/13_Ratio_500_L_12_R_6.png","img/500/equaldotsize/R/3_Ratio_500_L_10_R_20.png","img/900/equaldotsize/L/2_Ratio_900_L_20_R_18.png","img/500/equaldotanddens/L/11_Ratio_500_L_12_R_6.png","img/500/equaldotanddens/R/12_Ratio_500_L_1_R_2.png","img/500/equaldotsize/L/7_Ratio_500_L_10_R_5.png","img/500/equaldotsize/R/12_Ratio_500_L_1_R_2.png","img/500/equaldotsize/L/11_Ratio_500_L_12_R_6.png","img/250/equaldotsize/R/4_Ratio_250_L_3_R_12.png","img/250/equaldotanddens/R/9_Ratio_250_L_3_R_12.png","img/500/randomdotsizeEA/R/3_Ratio_500_L_10_R_20.png","img/250/equaldotanddens/R/11_Ratio_250_L_3_R_12.png","img/900/randomdotsizeEA/R/5_Ratio_900_L_9_R_10.png","img/900/equaldotsize/R/11_Ratio_900_L_18_R_20.png","img/500/equaldotsize/R/12_Ratio_500_L_1_R_2.png","img/900/equaldotsize/R/11_Ratio_900_L_18_R_20.png","img/750/equaldotanddens/L/13_Ratio_750_L_8_R_6.png","img/900/randomdotsizeEA/L/10_Ratio_900_L_20_R_18.png","img/900/equaldotsize/L/4_Ratio_900_L_20_R_18.png","img/750/equaldotsize/L/6_Ratio_750_L_24_R_18.png","img/750/randomdotsizeEA/R/11_Ratio_750_L_12_R_16.png","img/900/equaldotanddens/L/2_Ratio_900_L_20_R_18.png"],"Rat0":[["12_Ratio_0_L_9_R_0.png","13_Ratio_0_L_6_R_0.png","5_Ratio_0_L_2_R_0.png","6_Ratio_0_L_4_R_0.png","8_Ratio_0_L_6_R_0.png"],["1_Ratio_0_L_0_R_17.png","10_Ratio_0_L_0_R_22.png","11_Ratio_0_L_0_R_1.png","14_Ratio_0_L_0_R_24.png","15_Ratio_0_L_0_R_4.png","2_Ratio_0_L_0_R_5.png","3_Ratio_0_L_0_R_17.png","4_Ratio_0_L_0_R_7.png","7_Ratio_0_L_0_R_19.png","9_Ratio_0_L_0_R_15.png"]],"Rat250":[["1_Ratio_250_L_8_R_2.png","14_Ratio_250_L_12_R_3.png","15_Ratio_250_L_12_R_3.png","2_Ratio_250_L_16_R_4.png","3_Ratio_250_L_8_R_2.png","5_Ratio_250_L_24_R_6.png","7_Ratio_250_L_8_R_2.png"],["10_Ratio_250_L_4_R_16.png","11_Ratio_250_L_3_R_12.png","12_Ratio_250_L_5_R_20.png","13_Ratio_250_L_2_R_8.png","4_Ratio_250_L_3_R_12.png","6_Ratio_250_L_6_R_24.png","8_Ratio_250_L_1_R_4.png","9_Ratio_250_L_3_R_12.png"]],"Rat500":[["10_Ratio_500_L_4_R_2.png","11_Ratio_500_L_12_R_6.png","13_Ratio_500_L_12_R_6.png","4_Ratio_500_L_18_R_9.png","5_Ratio_500_L_4_R_2.png","7_Ratio_500_L_10_R_5.png","8_Ratio_500_L_8_R_4.png"],["1_Ratio_500_L_9_R_18.png","12_Ratio_500_L_1_R_2.png","14_Ratio_500_L_5_R_10.png","15_Ratio_500_L_1_R_2.png","2_Ratio_500_L_3_R_6.png","3_Ratio_500_L_10_R_20.png","6_Ratio_500_L_9_R_18.png","9_Ratio_500_L_2_R_4.png"]],"Rat750":[["1_Ratio_750_L_20_R_15.png","10_Ratio_750_L_4_R_3.png","13_Ratio_750_L_8_R_6.png","14_Ratio_750_L_8_R_6.png","6_Ratio_750_L_24_R_18.png","8_Ratio_750_L_4_R_3.png","9_Ratio_750_L_4_R_3.png"],["11_Ratio_750_L_12_R_16.png","12_Ratio_750_L_3_R_4.png","15_Ratio_750_L_9_R_12.png","2_Ratio_750_L_6_R_8.png","3_Ratio_750_L_15_R_20.png","4_Ratio_750_L_15_R_20.png","5_Ratio_750_L_15_R_20.png","7_Ratio_750_L_3_R_4.png"]],"Rat900":[["1_Ratio_900_L_10_R_9.png","10_Ratio_900_L_20_R_18.png","2_Ratio_900_L_20_R_18.png","4_Ratio_900_L_20_R_18.png","8_Ratio_900_L_20_R_18.png"],["11_Ratio_900_L_18_R_20.png","12_Ratio_900_L_18_R_20.png","13_Ratio_900_L_18_R_20.png","14_Ratio_900_L_18_R_20.png","15_Ratio_900_L_9_R_10.png","3_Ratio_900_L_9_R_10.png","5_Ratio_900_L_9_R_10.png","6_Ratio_900_L_9_R_10.png","7_Ratio_900_L_9_R_10.png","9_Ratio_900_L_18_R_20.png"]],"Rat1000":[["10_Ratio_1000_L_16_R_16.png","11_Ratio_1000_L_6_R_6.png","12_Ratio_1000_L_14_R_14.png","13_Ratio_1000_L_20_R_20.png","15_Ratio_1000_L_15_R_15.png","2_Ratio_1000_L_17_R_17.png","4_Ratio_1000_L_9_R_9.png","5_Ratio_1000_L_6_R_6.png","6_Ratio_1000_L_19_R_19.png","8_Ratio_1000_L_14_R_14.png","9_Ratio_1000_L_25_R_25.png"],["1_Ratio_1000_L_1_R_1.png","14_Ratio_1000_L_17_R_17.png","3_Ratio_1000_L_17_R_17.png","7_Ratio_1000_L_6_R_6.png"]]}},{"start_time":1551887748641,"click_time":1551887750532,"finger_time":1551887749993,"fix_duration":567.8459623810153,"trial":1,"RT":1352,"MT":539,"sideResp":1,"stimulus":"img/500/equaldotsize/L/5_Ratio_500_L_4_R_2.png","xmouse":[796,796,796,796,796,796,796,796,796,796,796,795,795,795,795,794,792,791,789,788,788,788,787,787,787,787,787,787,787,787,787,787,787,787,787,787,787,787,787,787,787,787,787,787,787,787,787,787,787,787,787,787,787,787,787,787,787,787,787,787,786,786,788,790,790,788,775,734,681,637,589,582,576,570,560,534,526,520,518,518,518,518,520,520,520,520,520,520,521,521,521,521,519,517,510],"ymouse":[525,525,525,525,525,525,525,525,525,525,525,526,526,526,526,526,527,528,529,529,529,529,529,529,529,529,529,529,529,529,529,529,529,529,529,529,529,529,529,529,529,529,529,529,529,529,529,529,529,529,529,529,529,529,529,529,529,529,529,529,529,527,524,520,518,505,490,464,434,404,362,340,316,273,237,175,155,138,128,123,121,120,120,120,120,120,120,120,120,119,116,114,109,102,90],"timestamp_mouse":[10,36,51,70,91,111,132,151,170,191,211,231,250,271,291,310,331,351,371,392,411,431,452,470,490,511,530,552,570,590,612,631,651,670,692,711,731,752,771,790,810,832,852,871,891,910,930,952,971,992,1012,1030,1052,1072,1090,1111,1131,1152,1171,1190,1210,1231,1252,1271,1291,1310,1331,1352,1372,1391,1410,1431,1451,1472,1491,1511,1530,1551,1570,1592,1610,1631,1652,1672,1691,1712,1732,1751,1770,1790,1810,1830,1850,1871,1891],"xSR":741.5,"ySR":469.95,"xT1":424.9,"yT1":0,"xT2":1058.1,"yT2":0,"toosoon":0,"cond_shown":"equaldotsize","ratio_trial":500,"smaller_num":"2","larger_num":"4","correct_side":1,"subjID":" nataliacorrealcaceres3","gender":" 1","age":" 11","school":" sexto"},{"start_time":1551887752150,"click_time":1551887753372,"finger_time":1551887752931,"fix_duration":277.96312097190736,"trial":2,"RT":781,"MT":441,"sideResp":2,"stimulus":"img/500/randomdotsizeEA/R/14_Ratio_500_L_5_R_10.png","xmouse":[806,806,806,806,806,806,806,806,806,806,806,806,806,805,804,803,803,802,800,800,800,800,800,800,800,800,800,800,800,800,800,800,800,800,798,790,786,783,779,767,727,700,671,646,622,596,592,592,592,592,592,592,592,599,623,762,851,945,958,962,1038,1124],"ymouse":[516,516,516,517,517,517,517,517,517,517,518,518,519,521,523,527,528,532,536,538,538,538,538,538,538,538,538,538,538,538,538,538,534,531,519,495,488,480,470,446,349,292,234,187,147,106,98,96,96,96,96,96,95,95,95,95,95,92,88,85,75,65],"timestamp_mouse":[14,30,41,62,82,102,123,141,161,181,201,222,242,261,283,301,321,342,361,381,401,421,442,461,481,502,521,541,563,582,601,621,642,663,683,701,722,742,762,781,801,821,841,862,881,901,922,941,962,982,1002,1021,1042,1062,1081,1101,1121,1141,1162,1181,1202,1222],"xSR":741.5,"ySR":469.95,"xT1":424.9,"yT1":0,"xT2":1058.1,"yT2":0,"toosoon":0,"cond_shown":"randomdotsizeEA","ratio_trial":500,"smaller_num":"5","larger_num":"10","correct_side":2,"subjID":" nataliacorrealcaceres3","gender":" 1","age":" 11","school":" sexto"},{"start_time":1551887755345,"click_time":1551887756392,"finger_time":1551887756013,"fix_duration":832.7010433547015,"trial":3,"RT":668,"MT":379,"sideResp":2,"stimulus":"img/750/randomdotsizeEA/R/7_Ratio_750_L_3_R_4.png","xmouse":[810,809,808,808,808,808,808,808,808,808,808,808,808,808,808,808,808,808,808,808,808,808,808,808,808,808,808,808,808,808,808,808,817,830,847,864,886,896,912,932,953,977,985,991,996,1003,1010,1017,1020,1023,1037,1056,1074],"ymouse":[497,498,498,498,498,498,498,498,498,498,498,498,498,498,498,498,498,498,498,498,498,498,498,498,498,498,498,498,498,498,498,496,481,461,439,412,340,257,205,159,124,97,92,89,88,86,84,82,82,82,83,91,96],"timestamp_mouse":[9,26,51,66,87,107,126,147,166,187,207,227,247,267,286,306,326,346,367,388,407,427,446,468,488,506,527,547,567,588,607,626,646,668,686,706,726,747,766,786,806,827,848,867,886,908,926,946,968,987,1008,1027,1047],"xSR":741.5,"ySR":469.95,"xT1":424.9,"yT1":0,"xT2":1058.1,"yT2":0,"toosoon":0,"cond_shown":"randomdotsizeEA","ratio_trial":750,"smaller_num":"3","larger_num":"4","correct_side":2,"subjID":" nataliacorrealcaceres3","gender":" 1","age":" 11","school":" sexto"},{"start_time":1551887760013,"click_time":1551887761372,"finger_time":1551887760832,"fix_duration":1339.8876175201856,"trial":4,"RT":819,"MT":540,"sideResp":1,"stimulus":"img/500/randomdotsizeEA/L/10_Ratio_500_L_4_R_2.png","xmouse":[813,813,813,813,813,813,813,813,813,813,813,813,813,813,813,813,813,813,813,813,813,813,813,813,813,813,813,813,813,813,813,812,812,815,816,817,817,817,817,807,803,786,773,740,724,712,703,697,680,668,653,633,617,581,563,549,541,539,539,538,535,523,515,505,505,505,505,504,499],"ymouse":[529,529,529,529,529,529,529,529,529,529,529,529,529,529,529,529,529,529,529,529,529,529,529,529,529,529,529,529,529,529,529,529,526,514,509,504,502,499,490,476,470,449,433,395,376,357,336,315,275,256,239,215,204,183,173,165,161,158,158,157,155,150,143,130,122,115,109,105,94],"timestamp_mouse":[8,20,38,59,79,98,118,139,158,178,199,220,238,259,279,298,319,338,358,379,400,419,439,458,478,500,519,539,558,578,600,618,638,659,678,699,719,739,759,779,799,819,838,859,879,898,920,939,959,979,1000,1020,1038,1059,1078,1098,1118,1139,1159,1180,1200,1220,1239,1258,1278,1299,1318,1338,1359],"xSR":741.5,"ySR":469.95,"xT1":424.9,"yT1":0,"xT2":1058.1,"yT2":0,"toosoon":0,"cond_shown":"randomdotsizeEA","ratio_trial":500,"smaller_num":"2","larger_num":"4","correct_side":1,"subjID":" nataliacorrealcaceres3","gender":" 1","age":" 11","school":" sexto"},{"start_time":1551887765143,"click_time":1551887766932,"finger_time":1551887766192,"fix_duration":250,"trial":5,"RT":1049,"MT":740,"sideResp":2,"stimulus":"img/250/randomdotsizeEA/R/8_Ratio_250_L_1_R_4.png","xmouse":[798,798,798,798,798,798,798,798,798,798,798,798,798,798,798,798,798,798,798,798,798,798,797,796,795,794,793,793,793,793,793,793,793,793,793,793,793,793,793,793,793,793,790,787,784,782,781,780,778,776,770,749,741,734,723,711,690,685,684,690,706,771,815,853,882,905,925,930,935,939,944,950,964,981,1010,1049,1107,1122,1134,1141,1144,1145,1146,1146,1146,1146,1146,1146,1145,1144],"ymouse":[512,512,512,512,512,512,512,512,512,512,512,512,512,512,512,512,512,512,512,512,512,512,512,512,512,512,512,512,512,512,512,512,512,512,512,512,512,512,512,512,512,512,511,510,509,507,507,506,504,504,501,485,472,455,431,409,363,338,314,289,268,231,219,208,200,192,179,174,166,160,157,156,153,149,143,137,125,119,114,111,108,105,104,103,103,103,103,102,100,98],"timestamp_mouse":[12,39,49,69,88,108,129,148,168,189,208,230,250,269,289,309,329,348,368,388,408,430,449,469,490,509,529,548,570,588,609,629,650,668,688,709,728,748,770,790,810,829,848,869,889,909,928,948,968,988,1008,1029,1049,1069,1088,1108,1130,1148,1169,1188,1208,1230,1248,1269,1288,1308,1330,1348,1369,1389,1408,1429,1448,1469,1488,1510,1530,1548,1569,1589,1609,1629,1648,1668,1688,1709,1729,1748,1770,1789],"xSR":741.5,"ySR":469.95,"xT1":424.9,"yT1":0,"xT2":1058.1,"yT2":0,"toosoon":0,"cond_shown":"randomdotsizeEA","ratio_trial":250,"smaller_num":"1","larger_num":"4","correct_side":2,"subjID":" nataliacorrealcaceres3","gender":" 1","age":" 11","school":" sexto"},{"start_time":1551887769425,"click_time":1551887770292,"finger_time":1551887770191,"fix_duration":1450.6897734130775,"trial":6,"RT":766,"MT":101,"sideResp":1,"stimulus":"img/250/randomdotsizeEA/L/3_Ratio_250_L_8_R_2.png","xmouse":[779,779,779,779,779,779,779,779,779,779,779,779,779,779,779,779,779,779,779,779,779,779,779,779,779,779,779,779,779,779,779,779,779,779,779,779,779,778,743,702,652,594,540,472],"ymouse":[525,525,525,525,525,525,525,525,525,525,525,525,525,525,525,525,525,525,525,525,525,525,525,525,525,525,525,525,525,525,525,525,525,525,525,525,525,521,456,385,301,222,153,53],"timestamp_mouse":[12,30,48,66,86,106,127,148,168,188,207,227,247,268,287,306,326,347,368,386,406,427,446,467,488,506,528,548,568,588,607,628,646,667,687,708,726,747,766,787,806,826,846,867],"xSR":741.5,"ySR":469.95,"xT1":424.9,"yT1":0,"xT2":1058.1,"yT2":0,"toosoon":0,"cond_shown":"randomdotsizeEA","ratio_trial":250,"smaller_num":"2","larger_num":"8","correct_side":1,"subjID":" nataliacorrealcaceres3","gender":" 1","age":" 11","school":" sexto"},{"start_time":1551887774258,"click_time":1551887775494,"finger_time":1551887774952,"fix_duration":944.6965093065279,"trial":7,"RT":694,"MT":542,"sideResp":2,"stimulus":"img/900/equaldotanddens/R/12_Ratio_900_L_18_R_20.png","xmouse":[778,778,778,778,778,778,778,778,778,778,778,778,778,778,778,778,778,778,778,778,778,778,778,778,778,778,778,778,778,779,781,798,803,805,808,812,819,848,862,873,883,894,914,925,940,955,976,1027,1047,1061,1071,1074,1077,1077,1077,1077,1077,1077,1078,1078,1080,1087],"ymouse":[544,544,544,544,544,544,544,544,544,544,544,544,544,544,544,544,544,544,544,544,544,544,544,544,544,544,544,544,543,539,533,498,486,476,466,455,439,389,367,346,325,307,272,257,242,228,212,181,168,156,147,138,130,129,129,129,126,123,117,112,104,85],"timestamp_mouse":[13,35,54,75,94,113,134,154,174,194,214,233,254,274,295,314,333,354,374,393,415,433,454,474,494,513,534,553,575,594,613,634,653,673,694,715,733,753,774,793,814,834,854,874,893,914,935,954,974,994,1013,1034,1053,1073,1093,1113,1135,1154,1174,1194,1214,1235],"xSR":741.5,"ySR":469.95,"xT1":424.9,"yT1":0,"xT2":1058.1,"yT2":0,"toosoon":0,"cond_shown":"equaldotanddens","ratio_trial":900,"smaller_num":"18","larger_num":"20","correct_side":2,"subjID":" nataliacorrealcaceres3","gender":" 1","age":" 11","school":" sexto"},{"start_time":1551887776364,"click_time":1551887777712,"finger_time":1551887777273,"fix_duration":250,"trial":8,"RT":909,"MT":439,"sideResp":2,"stimulus":"img/250/equaldotsize/R/10_Ratio_250_L_4_R_16.png","xmouse":[799,799,799,799,799,799,799,799,799,799,799,799,799,799,799,799,799,799,799,799,799,799,799,799,799,799,799,799,799,799,799,799,799,799,799,799,799,799,799,799,799,799,799,799,812,847,910,1045,1091,1108,1117,1120,1129,1135,1140,1142,1149,1160,1160,1160,1158,1155,1150,1149,1147,1146,1145,1145],"ymouse":[551,551,551,551,551,551,551,551,551,551,551,551,551,551,551,551,551,551,551,551,551,551,551,551,551,551,551,551,551,551,551,551,551,551,551,551,551,551,551,551,551,551,551,551,540,515,472,368,327,302,285,272,254,245,237,233,216,186,174,166,158,150,137,130,123,111,102,90],"timestamp_mouse":[7,37,49,69,88,108,129,148,167,188,208,229,249,267,288,308,329,347,368,388,409,428,448,468,488,509,527,548,568,588,608,628,647,668,687,708,728,748,767,787,809,828,847,868,887,909,929,948,968,988,1008,1027,1047,1069,1088,1107,1128,1148,1167,1188,1207,1229,1247,1268,1288,1308,1328,1348],"xSR":741.5,"ySR":469.95,"xT1":424.9,"yT1":0,"xT2":1058.1,"yT2":0,"toosoon":0,"cond_shown":"equaldotsize","ratio_trial":250,"smaller_num":"4","larger_num":"16","correct_side":2,"subjID":" nataliacorrealcaceres3","gender":" 1","age":" 11","school":" sexto"},{"start_time":1551887778614,"click_time":1551887780191,"finger_time":1551887779411,"fix_duration":301.84642788387686,"trial":9,"RT":797,"MT":780,"sideResp":2,"stimulus":"img/500/equaldotanddens/R/12_Ratio_500_L_1_R_2.png","xmouse":[778,778,778,778,778,778,778,778,778,778,778,778,778,778,778,778,778,778,778,778,778,778,778,778,778,778,778,778,778,778,778,778,778,778,778,778,781,786,799,843,870,915,947,973,1014,1024,1031,1038,1043,1067,1090,1103,1115,1123,1127,1127,1127,1127,1127,1127,1127,1123,1119,1114,1105,1103,1103,1103,1103,1103,1103,1103,1103,1103,1103,1103,1103,1104,1105],"ymouse":[530,530,530,530,530,530,530,530,530,530,530,530,530,530,530,530,530,530,530,530,530,530,530,530,530,530,530,530,530,530,530,530,530,530,530,530,527,523,512,481,462,429,404,384,348,334,322,311,302,273,246,227,208,193,176,174,174,173,173,171,170,165,161,155,137,130,123,118,115,114,113,113,111,110,107,106,105,102,99],"timestamp_mouse":[26,38,58,77,97,118,138,159,178,197,217,237,259,278,297,317,337,359,378,398,417,437,458,478,497,517,539,557,578,597,617,639,658,678,697,717,738,759,779,797,817,838,858,878,897,918,937,957,978,998,1017,1038,1058,1077,1097,1119,1139,1158,1177,1198,1218,1238,1257,1278,1298,1317,1337,1358,1378,1398,1418,1437,1459,1478,1498,1518,1537,1557,1577],"xSR":741.5,"ySR":469.95,"xT1":424.9,"yT1":0,"xT2":1058.1,"yT2":0,"toosoon":0,"cond_shown":"equaldotanddens","ratio_trial":500,"smaller_num":"1","larger_num":"2","correct_side":2,"subjID":" nataliacorrealcaceres3","gender":" 1","age":" 11","school":" sexto"},{"start_time":1551887781258,"click_time":1551887782413,"finger_time":1551887781932,"fix_duration":284.3393704536715,"trial":10,"RT":674,"MT":481,"sideResp":1,"stimulus":"img/900/equaldotanddens/L/4_Ratio_900_L_20_R_18.png","xmouse":[813,812,811,810,810,810,810,810,810,810,810,810,810,810,810,810,810,810,810,810,810,810,810,810,810,810,810,810,810,810,805,800,785,751,743,737,728,707,691,681,674,667,656,651,646,642,635,621,615,613,612,612,612,608,602,588,570,521],"ymouse":[526,526,525,525,525,525,525,525,525,525,525,525,525,525,525,525,525,525,525,525,525,525,525,525,525,525,525,525,525,525,520,514,499,466,450,436,418,379,349,331,311,293,255,237,219,199,175,134,114,109,107,107,107,102,98,92,85,64],"timestamp_mouse":[16,34,54,75,93,115,135,155,174,193,213,234,255,273,293,315,333,353,373,393,413,435,455,473,493,513,535,554,573,594,615,633,653,674,693,713,734,754,773,794,815,834,854,874,893,914,933,955,973,994,1015,1035,1054,1073,1093,1114,1134,1155],"xSR":741.5,"ySR":469.95,"xT1":424.9,"yT1":0,"xT2":1058.1,"yT2":0,"toosoon":0,"cond_shown":"equaldotanddens","ratio_trial":900,"smaller_num":"18","larger_num":"20","correct_side":1,"subjID":" nataliacorrealcaceres3","gender":" 1","age":" 11","school":" sexto"},{"start_time":1551887783770,"click_time":1551887784793,"finger_time":1551887784272,"fix_duration":256.5315054739831,"trial":11,"RT":502,"MT":521,"sideResp":2,"stimulus":"img/250/equaldotsize/R/12_Ratio_250_L_5_R_20.png","xmouse":[784,784,784,784,784,785,785,785,786,786,786,786,786,786,786,786,786,786,786,786,786,786,786,788,799,810,826,849,890,905,917,927,952,962,976,994,1005,1009,1009,1009,1009,1009,1009,1010,1013,1017,1025,1038,1041,1045,1058,1070],"ymouse":[501,501,501,501,501,501,501,501,501,501,501,501,501,501,501,501,501,501,501,501,501,501,501,499,486,468,447,415,346,318,293,270,219,202,182,155,136,116,114,114,114,114,114,113,112,110,108,103,101,99,94,91],"timestamp_mouse":[10,21,41,62,82,102,122,142,161,182,201,223,242,261,282,302,323,342,361,382,403,422,443,463,482,502,522,541,561,582,602,623,644,661,682,701,722,743,761,782,801,821,842,861,882,902,922,943,962,982,1001,1022],"xSR":741.5,"ySR":469.95,"xT1":424.9,"yT1":0,"xT2":1058.1,"yT2":0,"toosoon":0,"cond_shown":"equaldotsize","ratio_trial":250,"smaller_num":"5","larger_num":"20","correct_side":2,"subjID":" nataliacorrealcaceres3","gender":" 1","age":" 11","school":" sexto"},{"start_time":1551887786025,"click_time":1551887786932,"finger_time":1551887786513,"fix_duration":250,"trial":12,"RT":488,"MT":419,"sideResp":1,"stimulus":"img/250/equaldotanddens/L/5_Ratio_250_L_24_R_6.png","xmouse":[774,774,774,774,774,774,774,774,774,774,774,774,774,774,774,774,774,774,774,774,774,774,766,755,734,697,683,672,660,642,621,613,606,601,596,584,575,564,558,557,552,550,545,540,533,523],"ymouse":[514,514,514,514,514,514,514,514,514,514,514,514,514,514,514,514,514,514,515,515,515,515,515,508,492,449,430,409,388,356,304,277,254,233,215,175,157,137,128,125,118,115,109,102,93,77],"timestamp_mouse":[9,32,48,66,86,106,127,147,167,187,208,227,246,267,286,307,327,346,367,386,407,427,447,466,488,506,526,547,567,587,607,627,646,666,687,706,727,747,766,787,806,826,848,867,887,906],"xSR":741.5,"ySR":469.95,"xT1":424.9,"yT1":0,"xT2":1058.1,"yT2":0,"toosoon":0,"cond_shown":"equaldotanddens","ratio_trial":250,"smaller_num":"6","larger_num":"24","correct_side":1,"subjID":" nataliacorrealcaceres3","gender":" 1","age":" 11","school":" sexto"},{"start_time":1551887789226,"click_time":1551887790133,"finger_time":1551887789751,"fix_duration":1312.5230401984545,"trial":13,"RT":525,"MT":382,"sideResp":2,"stimulus":"img/900/randomdotsizeEA/R/12_Ratio_900_L_18_R_20.png","xmouse":[780,780,780,780,780,780,780,780,780,780,780,780,780,780,780,780,780,780,780,780,780,780,780,779,782,799,837,855,871,889,936,956,972,983,997,1028,1045,1055,1065,1073,1077,1079,1079,1076,1076,1074],"ymouse":[512,512,512,512,512,512,512,512,512,512,512,512,512,512,512,512,512,512,512,512,512,512,512,512,508,490,448,426,406,383,329,305,287,276,265,243,230,218,204,189,175,151,142,126,113,90],"timestamp_mouse":[10,25,46,65,85,106,127,145,165,185,206,226,246,265,286,306,327,347,366,385,405,426,446,466,486,506,525,546,566,585,606,625,646,665,687,706,725,745,766,785,806,825,846,865,886,906],"xSR":741.5,"ySR":469.95,"xT1":424.9,"yT1":0,"xT2":1058.1,"yT2":0,"toosoon":0,"cond_shown":"randomdotsizeEA","ratio_trial":900,"smaller_num":"18","larger_num":"20","correct_side":2,"subjID":" nataliacorrealcaceres3","gender":" 1","age":" 11","school":" sexto"},{"start_time":1551887791305,"click_time":1551887792251,"finger_time":1551887791932,"fix_duration":551.2909901921355,"trial":14,"RT":627,"MT":319,"sideResp":1,"stimulus":"img/750/equaldotanddens/L/1_Ratio_750_L_20_R_15.png","xmouse":[769,769,769,769,769,769,769,769,769,769,769,769,769,769,769,769,769,769,769,769,769,768,768,768,768,768,768,768,768,768,765,750,735,720,698,677,638,621,611,604,597,591,578,576,573,564,548,519],"ymouse":[533,533,533,533,533,533,533,533,533,533,533,533,533,533,533,533,533,533,533,534,534,534,534,535,535,535,535,535,533,529,518,465,431,393,342,294,197,159,132,112,96,84,68,65,61,56,48,40],"timestamp_mouse":[13,38,48,66,88,107,126,147,166,188,208,227,248,267,287,306,327,347,366,386,406,427,446,468,487,507,528,546,567,588,607,627,646,667,686,707,728,747,767,787,807,826,846,866,887,907,926,946],"xSR":741.5,"ySR":469.95,"xT1":424.9,"yT1":0,"xT2":1058.1,"yT2":0,"toosoon":0,"cond_shown":"equaldotanddens","ratio_trial":750,"smaller_num":"15","larger_num":"20","correct_side":1,"subjID":" nataliacorrealcaceres3","gender":" 1","age":" 11","school":" sexto"},{"start_time":1551887793766,"click_time":1551887794492,"finger_time":1551887794313,"fix_duration":834.286306374312,"trial":15,"RT":547,"MT":179,"sideResp":2,"stimulus":"img/250/equaldotsize/R/10_Ratio_250_L_4_R_16.png","xmouse":[802,802,802,802,802,802,802,802,802,802,802,802,802,802,802,802,802,802,802,802,802,802,802,802,804,813,834,880,940,1010,1027,1037,1043,1047,1056,1065,1085],"ymouse":[552,552,552,552,552,552,552,552,552,552,552,552,552,552,552,552,552,552,552,552,552,554,554,554,553,538,504,434,339,232,198,176,158,146,130,122,99],"timestamp_mouse":[20,28,46,66,85,106,127,146,166,186,206,226,246,265,287,305,327,346,365,386,405,425,447,466,485,505,526,546,565,586,606,626,646,665,685,706,726],"xSR":741.5,"ySR":469.95,"xT1":424.9,"yT1":0,"xT2":1058.1,"yT2":0,"toosoon":0,"cond_shown":"equaldotsize","ratio_trial":250,"smaller_num":"4","larger_num":"16","correct_side":2,"subjID":" nataliacorrealcaceres3","gender":" 1","age":" 11","school":" sexto"},{"start_time":1551887795375,"click_time":1551887796253,"finger_time":1551887795912,"fix_duration":261.13843701176097,"trial":16,"RT":537,"MT":341,"sideResp":1,"stimulus":"img/750/randomdotsizeEA/R/2_Ratio_750_L_6_R_8.png","xmouse":[780,780,780,780,780,780,780,780,780,780,780,780,780,780,780,780,780,780,780,780,780,780,780,780,779,770,759,742,703,683,665,655,647,630,618,593,580,572,566,563,562,556,540,521],"ymouse":[547,547,547,547,547,547,547,547,547,547,547,547,547,547,547,547,547,547,547,547,547,547,547,547,535,501,460,410,311,268,236,218,201,169,151,127,116,107,99,97,97,95,92,84],"timestamp_mouse":[16,36,57,77,96,117,137,157,176,197,217,237,258,276,297,318,337,356,377,396,416,438,456,476,497,517,537,557,577,597,616,637,657,676,696,716,738,757,777,796,816,849,857,877],"xSR":741.5,"ySR":469.95,"xT1":424.9,"yT1":0,"xT2":1058.1,"yT2":0,"toosoon":0,"cond_shown":"randomdotsizeEA","ratio_trial":750,"smaller_num":"6","larger_num":"8","correct_side":2,"subjID":" nataliacorrealcaceres3","gender":" 1","age":" 11","school":" sexto"},{"start_time":1551887798435,"click_time":1551887799552,"finger_time":1551887799131,"fix_duration":1442.6124092037708,"trial":17,"RT":696,"MT":421,"sideResp":2,"stimulus":"img/750/equaldotanddens/R/4_Ratio_750_L_15_R_20.png","xmouse":[776,776,776,776,776,776,776,776,776,776,776,776,776,776,776,776,776,776,776,776,776,776,776,776,776,776,776,776,776,776,776,776,776,788,814,859,928,940,947,952,958,970,974,978,982,985,994,1003,1015,1032,1048,1076,1095,1106,1110,1119],"ymouse":[505,505,505,505,505,505,505,505,505,505,505,505,505,505,505,505,505,505,505,505,505,505,505,505,505,505,505,505,505,505,505,505,504,485,449,383,287,266,256,249,246,242,240,238,235,232,223,215,206,194,180,150,125,114,101,80],"timestamp_mouse":[17,38,56,76,97,116,136,156,177,198,217,237,257,278,296,316,337,358,377,397,416,438,458,477,497,517,536,557,578,598,616,636,656,676,696,717,736,757,776,797,816,836,856,877,896,916,936,956,976,996,1016,1036,1056,1077,1097,1117],"xSR":741.5,"ySR":469.95,"xT1":424.9,"yT1":0,"xT2":1058.1,"yT2":0,"toosoon":0,"cond_shown":"equaldotanddens","ratio_trial":750,"smaller_num":"15","larger_num":"20","correct_side":2,"subjID":" nataliacorrealcaceres3","gender":" 1","age":" 11","school":" sexto"},{"start_time":1551887800663,"click_time":1551887801653,"finger_time":1551887801252,"fix_duration":389.6776904425859,"trial":18,"RT":589,"MT":401,"sideResp":1,"stimulus":"img/750/equaldotanddens/L/6_Ratio_750_L_24_R_18.png","xmouse":[776,775,773,771,770,770,770,770,770,770,770,770,770,770,770,769,768,768,767,767,767,767,767,767,767,767,767,765,763,736,724,717,713,713,709,674,645,621,601,594,586,584,582,580,576,565,560,553,539,500],"ymouse":[508,508,508,508,508,508,508,508,508,508,508,508,508,508,508,509,509,509,509,509,509,509,509,509,509,509,509,509,509,482,459,435,400,362,319,202,151,109,69,55,39,36,35,33,32,29,28,27,27,33],"timestamp_mouse":[16,34,49,68,89,108,129,148,168,190,209,229,248,269,290,309,329,348,368,389,409,428,449,470,489,509,530,548,569,589,608,629,649,669,689,708,728,748,769,790,809,828,849,868,890,908,929,948,968,990],"xSR":741.5,"ySR":469.95,"xT1":424.9,"yT1":0,"xT2":1058.1,"yT2":0,"toosoon":0,"cond_shown":"equaldotanddens","ratio_trial":750,"smaller_num":"18","larger_num":"24","correct_side":1,"subjID":" nataliacorrealcaceres3","gender":" 1","age":" 11","school":" sexto"},{"start_time":1551887804047,"click_time":1551887804972,"finger_time":1551887804631,"fix_duration":1493.5582799311212,"trial":19,"RT":584,"MT":341,"sideResp":1,"stimulus":"img/500/equaldotanddens/L/13_Ratio_500_L_12_R_6.png","xmouse":[773,773,774,774,774,775,776,776,776,776,776,776,776,776,776,776,776,776,776,776,776,776,776,776,776,776,776,772,758,743,724,683,666,645,628,611,582,573,569,564,560,555,552,547,543,537,519],"ymouse":[510,510,510,510,510,510,510,510,510,510,510,510,510,510,510,510,510,510,510,510,510,510,510,510,510,510,510,505,485,463,433,348,307,270,235,194,127,107,89,73,67,59,56,54,53,53,57],"timestamp_mouse":[13,24,44,64,85,105,126,144,164,186,204,226,246,264,285,305,324,345,366,385,404,426,446,465,485,504,525,544,564,584,604,625,644,664,684,706,725,745,765,785,804,824,844,864,884,905,925],"xSR":741.5,"ySR":469.95,"xT1":424.9,"yT1":0,"xT2":1058.1,"yT2":0,"toosoon":0,"cond_shown":"equaldotanddens","ratio_trial":500,"smaller_num":"6","larger_num":"12","correct_side":1,"subjID":" nataliacorrealcaceres3","gender":" 1","age":" 11","school":" sexto"},{"start_time":1551887809160,"click_time":1551887810332,"finger_time":1551887809832,"fix_duration":767.6137048040883,"trial":20,"RT":672,"MT":500,"sideResp":2,"stimulus":"img/900/randomdotsizeEA/L/8_Ratio_900_L_20_R_18.png","xmouse":[781,781,781,781,781,781,781,781,781,781,781,781,781,781,781,781,781,781,781,781,781,781,781,781,781,781,781,781,781,781,781,799,822,861,908,960,963,970,983,998,1016,1021,1023,1023,1023,1024,1024,1024,1026,1028,1033,1048,1054,1059,1062,1064,1073,1075,1082],"ymouse":[525,522,518,513,510,507,506,506,506,506,506,506,506,506,506,506,506,506,506,506,506,506,506,506,506,506,506,505,505,505,505,496,485,467,443,406,401,384,357,329,294,280,274,273,271,268,260,254,247,238,217,187,172,162,155,150,130,117,96],"timestamp_mouse":[11,32,57,72,91,111,133,152,171,192,211,232,251,272,291,312,332,352,371,391,411,432,452,472,491,511,531,552,572,591,611,633,651,672,691,713,731,752,772,792,813,831,851,872,891,911,931,951,972,991,1011,1031,1051,1071,1091,1111,1131,1151,1171],"xSR":741.5,"ySR":469.95,"xT1":424.9,"yT1":0,"xT2":1058.1,"yT2":0,"toosoon":0,"cond_shown":"randomdotsizeEA","ratio_trial":900,"smaller_num":"18","larger_num":"20","correct_side":1,"subjID":" nataliacorrealcaceres3","gender":" 1","age":" 11","school":" sexto"},{"start_time":1551887813887,"click_time":1551887814992,"finger_time":1551887814572,"fix_duration":1153.3482064160241,"trial":21,"RT":685,"MT":420,"sideResp":2,"stimulus":"img/750/randomdotsizeEA/R/15_Ratio_750_L_9_R_12.png","xmouse":[781,781,781,781,781,781,781,781,781,781,781,781,781,781,781,781,781,781,781,781,781,781,781,781,781,781,781,781,781,781,781,781,791,804,820,855,870,879,883,887,893,897,906,912,919,937,940,943,947,950,955,978,988,1000,1023,1109],"ymouse":[518,518,518,518,518,518,518,518,518,518,518,518,518,518,518,518,518,518,518,518,518,518,518,518,518,518,518,518,518,518,518,518,507,491,467,415,387,364,346,334,323,318,307,299,290,263,260,253,247,243,235,206,192,179,153,80],"timestamp_mouse":[12,31,44,64,86,104,126,145,165,184,204,226,246,266,286,305,325,344,364,385,406,425,444,465,486,505,524,544,564,585,605,625,644,665,685,704,725,745,765,784,805,825,844,865,885,910,925,944,965,984,1004,1025,1044,1064,1085,1105],"xSR":741.5,"ySR":469.95,"xT1":424.9,"yT1":0,"xT2":1058.1,"yT2":0,"toosoon":0,"cond_shown":"randomdotsizeEA","ratio_trial":750,"smaller_num":"9","larger_num":"12","correct_side":2,"subjID":" nataliacorrealcaceres3","gender":" 1","age":" 11","school":" sexto"},{"start_time":1551887817432,"click_time":1551887818511,"finger_time":1551887818172,"fix_duration":1260.3539209206601,"trial":22,"RT":740,"MT":339,"sideResp":1,"stimulus":"img/750/equaldotanddens/L/8_Ratio_750_L_4_R_3.png","xmouse":[770,770,770,770,770,770,770,770,770,770,770,770,770,770,770,770,770,770,770,770,770,770,770,770,770,770,770,770,770,770,771,772,776,778,781,784,790,794,795,790,783,768,694,648,602,572,547,517,507,501,493,485,479,476],"ymouse":[546,546,546,546,546,546,546,546,546,546,546,546,546,546,546,546,546,546,546,546,546,546,546,546,546,546,546,546,546,546,546,542,529,517,498,477,456,437,415,405,397,383,347,325,297,271,246,200,184,171,157,143,129,93],"timestamp_mouse":[19,39,61,80,101,119,139,160,180,199,219,240,259,279,301,320,340,360,380,400,419,441,461,479,499,521,541,559,580,599,619,639,660,679,699,720,740,759,780,799,820,840,861,879,900,919,939,961,979,1000,1019,1040,1061,1079],"xSR":741.5,"ySR":469.95,"xT1":424.9,"yT1":0,"xT2":1058.1,"yT2":0,"toosoon":0,"cond_shown":"equaldotanddens","ratio_trial":750,"smaller_num":"3","larger_num":"4","correct_side":1,"subjID":" nataliacorrealcaceres3","gender":" 1","age":" 11","school":" sexto"},{"start_time":1551887819567,"click_time":1551887820392,"finger_time":1551887820211,"fix_duration":253.97322554487934,"trial":23,"RT":644,"MT":181,"sideResp":1,"stimulus":"img/250/equaldotsize/L/14_Ratio_250_L_12_R_3.png","xmouse":[812,812,812,812,812,812,812,812,812,812,812,812,812,812,812,812,812,812,811,811,811,811,811,811,811,811,810,808,801,790,775,760,733,720,700,673,630,560,526,500,482,469],"ymouse":[530,530,530,530,530,530,530,530,530,530,530,530,530,530,530,530,530,530,530,530,530,530,530,530,530,530,531,531,530,525,514,502,471,451,420,382,323,231,184,146,116,94],"timestamp_mouse":[9,36,46,64,85,104,124,144,166,186,206,224,245,265,285,306,325,344,365,384,405,425,446,465,485,504,525,544,564,584,605,624,644,665,684,705,725,744,764,784,804,825],"xSR":741.5,"ySR":469.95,"xT1":424.9,"yT1":0,"xT2":1058.1,"yT2":0,"toosoon":0,"cond_shown":"equaldotsize","ratio_trial":250,"smaller_num":"3","larger_num":"12","correct_side":1,"subjID":" nataliacorrealcaceres3","gender":" 1","age":" 11","school":" sexto"},{"start_time":1551887822411,"click_time":1551887823412,"finger_time":1551887823112,"fix_duration":1298.3671067096254,"trial":24,"RT":701,"MT":300,"sideResp":2,"stimulus":"img/750/equaldotsize/R/5_Ratio_750_L_15_R_20.png","xmouse":[787,787,787,787,787,787,787,787,787,787,787,787,787,787,787,787,787,787,787,787,787,787,787,787,787,785,783,782,781,780,780,780,780,781,871,923,972,1002,1016,1021,1026,1031,1036,1040,1048,1052,1057,1061,1064,1066],"ymouse":[528,528,528,528,528,528,528,528,528,528,528,528,528,528,528,528,528,528,528,528,528,528,528,528,528,528,528,529,530,530,530,530,530,528,423,364,309,270,244,224,199,184,174,163,143,132,121,114,108,99],"timestamp_mouse":[21,40,60,82,100,120,140,160,182,200,220,240,260,281,300,321,341,361,381,402,420,440,460,482,500,520,542,561,581,601,621,640,660,681,700,720,740,760,781,801,821,841,861,881,901,920,940,961,980,1001],"xSR":741.5,"ySR":469.95,"xT1":424.9,"yT1":0,"xT2":1058.1,"yT2":0,"toosoon":0,"cond_shown":"equaldotsize","ratio_trial":750,"smaller_num":"15","larger_num":"20","correct_side":2,"subjID":" nataliacorrealcaceres3","gender":" 1","age":" 11","school":" sexto"},{"start_time":1551887824463,"click_time":1551887825513,"finger_time":1551887825071,"fix_duration":250,"trial":25,"RT":608,"MT":442,"sideResp":1,"stimulus":"img/750/randomdotsizeEA/L/8_Ratio_750_L_4_R_3.png","xmouse":[791,791,791,791,791,791,791,791,791,790,790,790,790,790,790,789,789,789,789,789,789,789,789,789,789,789,787,775,759,742,722,697,642,616,598,585,577,573,567,562,557,555,548,546,544,540,535,520,510,505,498,495,486],"ymouse":[536,536,536,536,536,536,536,536,536,536,536,536,536,536,536,536,536,536,536,536,536,536,536,536,536,536,536,531,519,501,477,446,383,358,341,327,313,299,260,244,230,217,195,188,179,166,153,131,118,112,105,100,88],"timestamp_mouse":[9,35,49,69,89,109,129,149,169,190,209,229,250,268,289,309,329,348,369,389,408,430,449,468,488,509,529,549,569,588,608,629,649,668,689,709,729,748,769,788,810,828,850,868,890,909,929,949,968,989,1008,1029,1049],"xSR":741.5,"ySR":469.95,"xT1":424.9,"yT1":0,"xT2":1058.1,"yT2":0,"toosoon":0,"cond_shown":"randomdotsizeEA","ratio_trial":750,"smaller_num":"3","larger_num":"4","correct_side":1,"subjID":" nataliacorrealcaceres3","gender":" 1","age":" 11","school":" sexto"},{"start_time":1551887827769,"click_time":1551887829473,"finger_time":1551887828371,"fix_duration":1396.7344526880765,"trial":26,"RT":602,"MT":1102,"sideResp":2,"stimulus":"img/900/equaldotsize/L/2_Ratio_900_L_20_R_18.png","xmouse":[768,768,768,768,768,768,768,768,768,768,768,768,768,768,768,768,768,768,768,768,768,768,768,768,768,769,770,774,793,804,820,825,847,853,864,879,897,913,936,942,948,954,963,991,1005,1019,1030,1038,1051,1055,1058,1062,1064,1070,1072,1075,1080,1085,1088,1090,1091,1091,1092,1092,1092,1092,1092,1092,1092,1092,1092,1092,1092,1092,1092,1092,1092,1092,1092,1092,1092,1092,1092,1092,1092,1094],"ymouse":[517,517,517,517,517,516,516,516,516,516,516,516,516,516,516,516,516,516,516,516,516,516,516,516,516,516,515,512,491,479,457,448,402,383,362,339,316,292,248,233,222,214,205,193,187,181,174,168,158,154,151,149,148,144,143,142,138,135,126,121,114,112,110,106,106,106,106,106,106,106,106,106,106,106,106,106,106,105,101,101,100,100,100,100,100,98],"timestamp_mouse":[13,22,42,62,82,103,123,142,163,182,203,223,243,262,283,303,322,342,363,382,403,422,442,464,484,503,523,542,562,583,602,623,644,662,683,702,722,743,763,783,803,822,842,862,882,903,923,943,962,983,1002,1022,1042,1063,1083,1102,1123,1143,1162,1182,1202,1222,1242,1262,1283,1304,1323,1343,1362,1383,1403,1422,1444,1463,1483,1504,1522,1543,1563,1582,1603,1622,1643,1663,1683,1704],"xSR":741.5,"ySR":469.95,"xT1":424.9,"yT1":0,"xT2":1058.1,"yT2":0,"toosoon":0,"cond_shown":"equaldotsize","ratio_trial":900,"smaller_num":"18","larger_num":"20","correct_side":1,"subjID":" nataliacorrealcaceres3","gender":" 1","age":" 11","school":" sexto"},{"start_time":1551887832892,"click_time":1551887833851,"finger_time":1551887833513,"fix_duration":1098.0595390699752,"trial":27,"RT":621,"MT":338,"sideResp":1,"stimulus":"img/250/equaldotanddens/L/15_Ratio_250_L_12_R_3.png","xmouse":[759,759,759,759,759,759,759,759,759,759,759,759,759,759,759,759,759,759,759,759,759,759,759,759,759,759,759,759,759,753,750,736,687,642,626,611,598,584,579,579,577,574,566,563,561,557,549,529,520],"ymouse":[545,545,545,545,545,545,545,545,545,545,545,545,545,545,545,545,545,545,545,545,545,545,545,545,545,545,545,545,545,537,529,505,440,379,350,319,290,241,223,214,203,192,165,150,138,126,111,90,83],"timestamp_mouse":[1,20,39,61,81,99,121,139,159,180,200,221,240,260,279,299,320,339,360,380,399,420,439,460,479,499,520,539,561,580,599,621,641,659,680,700,719,740,760,781,800,819,840,873,880,899,919,940,959],"xSR":741.5,"ySR":469.95,"xT1":424.9,"yT1":0,"xT2":1058.1,"yT2":0,"toosoon":0,"cond_shown":"equaldotanddens","ratio_trial":250,"smaller_num":"3","larger_num":"12","correct_side":1,"subjID":" nataliacorrealcaceres3","gender":" 1","age":" 11","school":" sexto"},{"start_time":1551887836202,"click_time":1551887837192,"finger_time":1551887836911,"fix_duration":250,"trial":28,"RT":709,"MT":281,"sideResp":2,"stimulus":"img/900/randomdotsizeEA/R/3_Ratio_900_L_9_R_10.png","xmouse":[774,774,774,773,773,773,773,773,773,772,770,770,770,770,770,770,770,770,770,770,770,770,770,770,770,770,770,770,770,770,770,770,782,800,821,856,881,929,952,981,1004,1034,1073,1082,1091,1099,1104,1123,1143,1158],"ymouse":[518,518,518,518,518,518,518,519,520,521,523,524,524,524,524,524,524,524,524,524,524,524,524,524,524,524,524,524,524,524,524,524,514,502,491,471,460,430,414,394,376,348,303,285,267,238,201,155,112,60],"timestamp_mouse":[12,29,51,69,89,111,129,150,169,190,209,229,250,270,289,309,330,349,371,389,410,431,450,470,489,511,531,550,569,589,610,631,649,671,690,709,729,749,769,789,809,829,849,870,890,911,931,949,969,990],"xSR":741.5,"ySR":469.95,"xT1":424.9,"yT1":0,"xT2":1058.1,"yT2":0,"toosoon":0,"cond_shown":"randomdotsizeEA","ratio_trial":900,"smaller_num":"9","larger_num":"10","correct_side":2,"subjID":" nataliacorrealcaceres3","gender":" 1","age":" 11","school":" sexto"},{"start_time":1551887841173,"click_time":1551887842252,"finger_time":1551887841871,"fix_duration":1020.7724436728354,"trial":29,"RT":698,"MT":381,"sideResp":1,"stimulus":"img/500/randomdotsizeEA/R/14_Ratio_500_L_5_R_10.png","xmouse":[767,767,767,767,767,767,767,767,767,767,767,767,767,767,767,767,767,767,767,767,767,767,767,767,767,767,767,767,767,767,771,774,781,794,797,797,797,787,739,707,679,656,641,620,602,589,574,561,547,544,540,534,527,521],"ymouse":[562,562,562,562,562,562,562,562,562,562,562,562,562,562,562,562,562,562,562,562,562,562,562,562,562,562,562,562,562,562,553,548,529,494,465,439,402,349,250,204,165,134,111,73,51,37,26,16,7,4,2,2,2,2],"timestamp_mouse":[19,39,59,78,100,118,138,158,179,198,219,238,259,279,298,318,339,360,379,399,419,440,460,478,499,520,540,559,578,599,619,638,660,678,698,718,738,759,779,798,819,839,860,879,898,919,939,958,979,998,1018,1039,1059,1079],"xSR":741.5,"ySR":469.95,"xT1":424.9,"yT1":0,"xT2":1058.1,"yT2":0,"toosoon":0,"cond_shown":"randomdotsizeEA","ratio_trial":500,"smaller_num":"5","larger_num":"10","correct_side":2,"subjID":" nataliacorrealcaceres3","gender":" 1","age":" 11","school":" sexto"},{"start_time":1551887844585,"click_time":1551887845454,"finger_time":1551887845272,"fix_duration":1412.8685461615662,"trial":30,"RT":687,"MT":182,"sideResp":2,"stimulus":"img/750/equaldotsize/R/5_Ratio_750_L_15_R_20.png","xmouse":[776,776,776,776,777,777,777,777,777,777,777,777,777,777,777,777,777,777,777,777,777,777,777,777,777,777,777,777,777,777,780,787,797,808,849,871,890,909,930,997,1030,1058,1080,1097],"ymouse":[527,527,527,527,527,527,527,527,527,527,527,527,527,527,527,527,527,527,527,527,527,527,527,527,527,527,527,527,527,527,523,511,494,474,403,364,323,277,242,166,143,124,110,99],"timestamp_mouse":[12,30,46,67,86,106,127,146,166,186,208,227,247,266,286,307,328,347,367,387,408,427,448,468,488,507,527,547,568,586,607,626,647,667,687,707,726,746,767,786,806,827,847,868],"xSR":741.5,"ySR":469.95,"xT1":424.9,"yT1":0,"xT2":1058.1,"yT2":0,"toosoon":0,"cond_shown":"equaldotsize","ratio_trial":750,"smaller_num":"15","larger_num":"20","correct_side":2,"subjID":" nataliacorrealcaceres3","gender":" 1","age":" 11","school":" sexto"},{"start_time":1551887846862,"click_time":1551887848032,"finger_time":1551887847571,"fix_duration":708.9148442640611,"trial":31,"RT":709,"MT":461,"sideResp":2,"stimulus":"img/900/equaldotsize/L/4_Ratio_900_L_20_R_18.png","xmouse":[773,773,773,773,773,773,773,773,773,773,773,773,773,773,773,773,773,773,773,773,773,773,773,773,773,773,773,773,773,773,775,780,786,796,810,857,902,918,967,1003,1095,1139,1167,1179,1184,1189,1192,1197,1198,1198,1197,1197,1197,1195,1190,1182,1176,1165,1158],"ymouse":[537,537,537,537,537,537,537,537,537,537,537,537,537,537,537,537,537,537,537,537,537,537,537,537,537,537,537,537,537,537,533,523,512,499,480,419,367,349,299,269,197,164,139,126,117,104,95,79,73,68,62,62,62,61,59,57,57,57,57],"timestamp_mouse":[13,34,49,70,89,110,129,150,169,190,209,229,250,269,290,311,329,350,369,390,411,431,450,470,489,511,531,551,570,589,610,629,651,670,690,709,729,750,769,789,809,830,850,869,889,909,930,950,970,989,1010,1029,1049,1069,1090,1110,1131,1149,1170],"xSR":741.5,"ySR":469.95,"xT1":424.9,"yT1":0,"xT2":1058.1,"yT2":0,"toosoon":0,"cond_shown":"equaldotsize","ratio_trial":900,"smaller_num":"18","larger_num":"20","correct_side":1,"subjID":" nataliacorrealcaceres3","gender":" 1","age":" 11","school":" sexto"},{"start_time":1551887852502,"click_time":1551887854192,"finger_time":1551887853491,"fix_duration":1448.0339235312522,"trial":32,"RT":989,"MT":701,"sideResp":1,"stimulus":"img/900/randomdotsizeEA/L/10_Ratio_900_L_20_R_18.png","xmouse":[774,774,774,774,774,774,774,774,774,774,774,774,774,774,774,774,774,774,774,774,774,774,774,774,774,774,774,774,774,774,774,774,774,774,774,774,774,774,774,774,774,774,774,774,774,780,789,798,813,840,852,861,865,866,873,884,900,926,973,987,990,990,990,990,973,955,920,865,759,732,709,684,663,633,598,589,580,573,564,537,529,525,524,524,524],"ymouse":[534,534,534,534,534,534,534,534,534,534,534,534,534,534,534,534,534,534,534,534,534,534,534,534,534,534,534,534,534,534,534,534,534,534,534,534,534,534,534,534,534,534,534,534,534,530,520,510,494,452,427,399,379,358,335,317,294,263,204,183,170,166,165,165,165,165,165,165,163,159,156,156,156,152,141,137,132,129,126,113,110,108,105,103,96],"timestamp_mouse":[14,30,49,70,90,111,129,149,171,190,209,231,249,270,290,310,331,350,370,390,411,430,449,470,490,509,530,550,570,590,610,629,649,669,690,709,729,749,771,790,809,829,849,871,889,909,930,949,970,989,1010,1030,1050,1070,1090,1110,1129,1150,1171,1189,1209,1229,1249,1270,1289,1309,1330,1349,1371,1389,1409,1429,1450,1469,1489,1509,1530,1549,1570,1589,1611,1629,1650,1669,1690],"xSR":741.5,"ySR":469.95,"xT1":424.9,"yT1":0,"xT2":1058.1,"yT2":0,"toosoon":0,"cond_shown":"randomdotsizeEA","ratio_trial":900,"smaller_num":"18","larger_num":"20","correct_side":1,"subjID":" nataliacorrealcaceres3","gender":" 1","age":" 11","school":" sexto"},{"start_time":1551887856330,"click_time":1551887857672,"finger_time":1551887857331,"fix_duration":1137.141305431221,"trial":33,"RT":1001,"MT":341,"sideResp":2,"stimulus":"img/750/equaldotsize/R/15_Ratio_750_L_9_R_12.png","xmouse":[799,799,799,799,799,799,799,799,799,799,799,799,799,799,799,799,799,799,799,799,799,799,799,799,799,799,799,799,799,799,799,799,799,799,799,799,799,799,799,799,799,799,799,799,799,799,799,799,803,812,833,850,863,888,904,919,937,951,963,974,985,989,994,1001,1004,1012,1058,1070],"ymouse":[500,500,500,500,500,500,500,500,500,500,500,500,500,500,500,500,500,500,500,500,500,500,500,500,500,500,500,500,500,500,500,500,500,500,500,500,500,500,500,500,500,500,500,500,500,500,500,500,496,483,458,438,419,379,358,338,317,303,291,278,267,263,257,240,219,176,108,65],"timestamp_mouse":[9,22,43,61,82,102,122,141,162,181,202,223,243,263,282,301,321,342,361,383,402,422,443,461,481,502,521,542,562,582,601,621,641,662,681,701,722,742,762,782,802,823,842,862,881,902,922,942,961,981,1001,1021,1041,1061,1081,1102,1122,1142,1161,1181,1201,1222,1242,1261,1281,1301,1321,1342],"xSR":741.5,"ySR":469.95,"xT1":424.9,"yT1":0,"xT2":1058.1,"yT2":0,"toosoon":0,"cond_shown":"equaldotsize","ratio_trial":750,"smaller_num":"9","larger_num":"12","correct_side":2,"subjID":" nataliacorrealcaceres3","gender":" 1","age":" 11","school":" sexto"},{"start_time":1551887860346,"click_time":1551887861752,"finger_time":1551887861172,"fix_duration":1491.6976324641198,"trial":34,"RT":826,"MT":580,"sideResp":1,"stimulus":"img/500/randomdotsizeEA/L/5_Ratio_500_L_4_R_2.png","xmouse":[791,791,791,791,791,791,791,791,791,791,791,790,790,790,790,790,790,790,790,790,790,791,791,791,791,791,791,791,791,791,791,791,791,791,791,791,791,791,791,792,795,797,801,804,809,821,842,895,978,996,1005,1006,976,894,777,642,512,365,346,346,346,346,345,345,345,345,346,363,399,417,428],"ymouse":[500,500,500,500,500,500,500,500,500,500,500,499,499,499,499,499,499,499,499,499,499,498,498,498,498,498,498,498,498,498,498,498,498,498,498,498,498,498,493,484,472,462,438,423,407,386,361,311,244,227,215,207,189,177,159,138,119,96,95,95,95,95,98,99,99,99,100,98,93,87,84],"timestamp_mouse":[11,25,46,66,87,107,125,145,167,185,205,226,245,266,292,305,325,345,366,386,405,426,446,466,486,506,525,545,565,585,607,626,645,666,686,706,725,746,765,785,806,826,847,865,887,911,926,945,965,985,1007,1026,1047,1065,1085,1105,1126,1146,1166,1185,1206,1225,1247,1265,1286,1305,1325,1347,1366,1385,1405],"xSR":741.5,"ySR":469.95,"xT1":424.9,"yT1":0,"xT2":1058.1,"yT2":0,"toosoon":0,"cond_shown":"randomdotsizeEA","ratio_trial":500,"smaller_num":"2","larger_num":"4","correct_side":1,"subjID":" nataliacorrealcaceres3","gender":" 1","age":" 11","school":" sexto"},{"start_time":1551887863223,"click_time":1551887864392,"finger_time":1551887863911,"fix_duration":250,"trial":35,"RT":688,"MT":481,"sideResp":1,"stimulus":"img/750/randomdotsizeEA/L/9_Ratio_750_L_4_R_3.png","xmouse":[783,783,784,785,785,785,785,785,785,785,785,785,785,785,785,785,785,785,785,785,785,785,785,785,785,785,785,785,785,785,786,788,794,798,803,803,803,802,800,794,785,772,756,729,688,669,649,629,608,567,552,541,536,533,531,529,526,524,522],"ymouse":[512,512,512,512,512,512,512,512,512,512,512,512,512,512,512,512,512,512,512,512,512,512,512,512,512,512,512,512,512,512,510,507,495,481,451,440,433,422,409,379,360,343,331,317,298,286,272,255,237,200,189,180,174,167,148,133,117,106,98],"timestamp_mouse":[10,35,49,68,89,110,130,149,168,189,209,229,250,269,289,309,329,350,368,388,408,429,449,468,488,508,528,550,568,589,609,628,649,668,688,708,728,748,770,788,809,829,849,869,888,908,928,949,969,988,1008,1028,1048,1069,1089,1108,1128,1148,1168],"xSR":741.5,"ySR":469.95,"xT1":424.9,"yT1":0,"xT2":1058.1,"yT2":0,"toosoon":0,"cond_shown":"randomdotsizeEA","ratio_trial":750,"smaller_num":"3","larger_num":"4","correct_side":1,"subjID":" nataliacorrealcaceres3","gender":" 1","age":" 11","school":" sexto"},{"start_time":1551887866333,"click_time":1551887867652,"finger_time":1551887866951,"fix_duration":940.4567725208518,"trial":36,"RT":618,"MT":701,"sideResp":2,"stimulus":"img/750/equaldotsize/R/11_Ratio_750_L_12_R_16.png","xmouse":[762,762,762,762,762,762,762,762,762,762,762,762,762,762,762,762,762,762,762,762,762,762,762,762,762,762,762,762,767,776,792,818,855,892,903,915,926,937,947,959,965,969,975,978,984,988,991,995,1000,1002,1007,1014,1021,1034,1037,1040,1043,1043,1043,1044,1045,1046,1047,1049,1055,1061],"ymouse":[503,503,503,503,503,503,503,503,503,503,503,503,503,503,503,503,503,503,503,503,503,503,503,503,503,503,503,503,499,487,468,435,389,328,312,285,267,251,235,212,203,193,181,170,158,150,144,136,128,125,119,112,106,97,95,92,90,90,90,90,90,89,88,87,86,84],"timestamp_mouse":[30,39,60,78,99,119,138,158,179,198,218,239,258,278,300,319,338,358,380,399,419,439,459,478,500,518,539,558,578,598,618,638,659,678,698,719,739,758,778,798,818,838,858,879,898,919,939,959,978,998,1018,1038,1058,1079,1099,1118,1140,1158,1179,1198,1219,1238,1259,1279,1298,1318],"xSR":741.5,"ySR":469.95,"xT1":424.9,"yT1":0,"xT2":1058.1,"yT2":0,"toosoon":0,"cond_shown":"equaldotsize","ratio_trial":750,"smaller_num":"12","larger_num":"16","correct_side":2,"subjID":" nataliacorrealcaceres3","gender":" 1","age":" 11","school":" sexto"},{"start_time":1551887869787,"click_time":1551887870871,"finger_time":1551887870392,"fix_duration":1352.3619846980705,"trial":37,"RT":605,"MT":479,"sideResp":1,"stimulus":"img/750/equaldotsize/L/1_Ratio_750_L_20_R_15.png","xmouse":[747,747,747,747,747,747,747,747,747,747,747,747,747,747,747,747,747,747,747,747,747,747,747,747,747,747,746,746,746,743,733,728,685,656,634,622,615,608,606,602,596,579,569,564,558,550,530,521,518,516,515,514,514,513,513],"ymouse":[522,522,522,522,522,522,522,522,522,522,522,522,522,522,522,522,522,522,522,522,522,522,522,522,522,522,523,523,523,522,509,502,412,364,325,301,279,242,224,208,194,170,163,159,154,148,131,125,121,117,113,108,103,100,96],"timestamp_mouse":[12,25,45,64,86,104,125,145,166,184,204,224,245,265,284,305,325,344,366,384,405,424,446,466,485,505,525,545,564,584,605,625,644,665,685,704,724,744,764,785,805,825,844,865,885,905,926,944,965,984,1004,1027,1044,1064,1084],"xSR":741.5,"ySR":469.95,"xT1":424.9,"yT1":0,"xT2":1058.1,"yT2":0,"toosoon":0,"cond_shown":"equaldotsize","ratio_trial":750,"smaller_num":"15","larger_num":"20","correct_side":1,"subjID":" nataliacorrealcaceres3","gender":" 1","age":" 11","school":" sexto"},{"start_time":1551887872746,"click_time":1551887874052,"finger_time":1551887873571,"fix_duration":812.6644135844787,"trial":38,"RT":825,"MT":481,"sideResp":2,"stimulus":"img/500/equaldotsize/R/14_Ratio_500_L_5_R_10.png","xmouse":[815,815,815,815,815,815,815,815,815,815,815,815,815,815,815,815,815,815,815,815,815,815,815,815,815,815,815,815,815,815,815,815,815,815,815,815,815,815,815,817,829,855,879,898,928,941,953,968,977,988,992,993,995,997,999,1002,1005,1009,1015,1025,1029,1032,1035,1041,1067,1082],"ymouse":[548,548,548,548,548,548,548,548,548,548,548,548,548,548,548,548,548,548,548,548,548,548,548,548,548,548,548,548,548,548,548,548,548,548,548,548,548,548,548,546,533,501,465,431,340,306,280,259,245,229,221,218,209,203,192,187,181,176,165,149,138,133,130,124,105,96],"timestamp_mouse":[5,35,45,65,86,105,126,145,165,186,205,226,246,266,286,305,325,347,365,385,406,427,445,466,485,506,527,546,566,586,605,626,646,666,686,706,727,745,765,785,807,825,846,866,885,906,925,946,965,985,1005,1026,1045,1065,1085,1106,1125,1146,1165,1185,1206,1225,1246,1265,1285,1306],"xSR":741.5,"ySR":469.95,"xT1":424.9,"yT1":0,"xT2":1058.1,"yT2":0,"toosoon":0,"cond_shown":"equaldotsize","ratio_trial":500,"smaller_num":"5","larger_num":"10","correct_side":2,"subjID":" nataliacorrealcaceres3","gender":" 1","age":" 11","school":" sexto"},{"start_time":1551887875164,"click_time":1551887876051,"finger_time":1551887875931,"fix_duration":250,"trial":39,"RT":767,"MT":120,"sideResp":1,"stimulus":"img/750/randomdotsizeEA/L/1_Ratio_750_L_20_R_15.png","xmouse":[795,795,795,795,795,795,795,795,795,795,795,795,795,795,795,795,795,795,795,795,795,795,795,795,795,795,795,795,795,795,795,795,795,795,795,795,784,776,730,703,653,612,577,539,500],"ymouse":[516,516,516,516,516,516,516,516,516,516,516,516,516,516,516,516,516,516,516,516,516,516,516,516,516,516,516,516,516,516,516,516,516,516,516,515,508,501,434,384,294,225,159,95,24],"timestamp_mouse":[14,28,47,67,88,107,127,148,168,189,208,228,247,267,289,309,328,348,368,387,408,428,447,469,488,507,527,548,568,588,607,628,647,668,689,708,727,747,767,788,808,828,847,867,887],"xSR":741.5,"ySR":469.95,"xT1":424.9,"yT1":0,"xT2":1058.1,"yT2":0,"toosoon":0,"cond_shown":"randomdotsizeEA","ratio_trial":750,"smaller_num":"15","larger_num":"20","correct_side":1,"subjID":" nataliacorrealcaceres3","gender":" 1","age":" 11","school":" sexto"},{"start_time":1551887878231,"click_time":1551887879033,"finger_time":1551887878872,"fix_duration":997.3410028815671,"trial":40,"RT":641,"MT":161,"sideResp":1,"stimulus":"img/250/equaldotsize/L/3_Ratio_250_L_8_R_2.png","xmouse":[817,817,817,817,817,817,817,817,817,817,817,817,817,817,817,817,817,817,817,817,817,817,817,817,817,817,817,815,811,803,782,773,761,746,719,661,583,548,525,510,486],"ymouse":[561,561,561,561,561,561,561,561,561,561,561,561,561,561,561,561,561,561,561,561,561,561,561,561,561,561,561,558,553,540,506,484,458,427,379,293,185,143,116,101,82],"timestamp_mouse":[9,20,41,60,81,101,120,142,162,181,200,221,241,260,280,301,321,341,361,380,401,420,442,461,481,501,520,540,561,581,601,620,641,661,681,700,720,740,760,780,802],"xSR":741.5,"ySR":469.95,"xT1":424.9,"yT1":0,"xT2":1058.1,"yT2":0,"toosoon":0,"cond_shown":"equaldotsize","ratio_trial":250,"smaller_num":"2","larger_num":"8","correct_side":1,"subjID":" nataliacorrealcaceres3","gender":" 1","age":" 11","school":" sexto"},{"start_time":1551887880676,"click_time":1551887882111,"finger_time":1551887881352,"fix_duration":743.4348132875871,"trial":41,"RT":676,"MT":759,"sideResp":2,"stimulus":"img/750/randomdotsizeEA/R/4_Ratio_750_L_15_R_20.png","xmouse":[791,791,791,791,791,791,791,791,791,791,791,791,791,791,791,791,791,791,791,791,791,791,791,791,791,791,791,791,791,791,791,792,799,819,837,856,874,890,917,937,971,1016,1027,1036,1037,1039,1039,1039,1047,1053,1060,1077,1094,1126,1128,1129,1129,1129,1129,1129,1129,1129,1129,1129,1129,1129,1129,1130,1129,1129,1129,1129],"ymouse":[532,531,531,531,531,531,531,530,530,530,530,530,530,530,530,530,530,530,530,530,530,530,530,530,530,530,530,530,530,530,525,516,501,442,402,361,322,295,253,229,197,158,143,127,125,124,123,123,120,119,118,117,117,116,115,115,115,115,115,115,115,115,115,115,115,115,115,111,104,103,101,98],"timestamp_mouse":[16,36,56,75,97,116,136,155,175,197,216,236,256,276,297,317,337,355,376,395,415,437,456,476,496,515,535,555,576,595,615,635,655,676,695,716,735,756,776,796,815,835,856,876,895,916,936,955,975,996,1016,1035,1056,1075,1095,1116,1135,1156,1176,1196,1216,1236,1256,1275,1296,1316,1335,1355,1375,1396,1415,1435],"xSR":741.5,"ySR":469.95,"xT1":424.9,"yT1":0,"xT2":1058.1,"yT2":0,"toosoon":0,"cond_shown":"randomdotsizeEA","ratio_trial":750,"smaller_num":"15","larger_num":"20","correct_side":2,"subjID":" nataliacorrealcaceres3","gender":" 1","age":" 11","school":" sexto"},{"start_time":1551887883382,"click_time":1551887884252,"finger_time":1551887884011,"fix_duration":329.0204868684681,"trial":42,"RT":629,"MT":241,"sideResp":1,"stimulus":"img/250/randomdotsizeEA/L/1_Ratio_250_L_8_R_2.png","xmouse":[777,778,778,778,778,778,778,778,778,778,778,778,778,778,778,778,778,778,778,778,778,778,778,778,778,778,779,778,773,765,753,743,730,720,691,668,646,623,580,563,552,542,530,515],"ymouse":[519,519,519,519,519,519,519,519,519,519,519,519,519,519,519,519,519,519,519,519,519,519,519,519,519,519,518,516,509,500,484,468,445,425,360,307,270,239,180,157,136,116,100,75],"timestamp_mouse":[10,30,49,69,91,110,130,151,169,190,211,229,249,270,289,310,329,349,370,391,410,430,451,469,490,511,530,549,570,589,609,629,651,670,691,709,729,749,770,789,809,830,849,870],"xSR":741.5,"ySR":469.95,"xT1":424.9,"yT1":0,"xT2":1058.1,"yT2":0,"toosoon":0,"cond_shown":"randomdotsizeEA","ratio_trial":250,"smaller_num":"2","larger_num":"8","correct_side":1,"subjID":" nataliacorrealcaceres3","gender":" 1","age":" 11","school":" sexto"},{"start_time":1551887886447,"click_time":1551887887611,"finger_time":1551887887072,"fix_duration":1113.5598370735686,"trial":43,"RT":625,"MT":539,"sideResp":2,"stimulus":"img/500/equaldotanddens/R/3_Ratio_500_L_10_R_20.png","xmouse":[770,770,770,770,770,770,770,770,770,770,770,770,770,770,770,770,770,770,770,770,770,770,770,770,770,770,770,770,771,776,838,872,899,912,917,925,934,946,960,971,995,1003,1012,1019,1027,1032,1038,1039,1042,1043,1043,1043,1043,1044,1044,1053,1058,1069,1081],"ymouse":[531,531,531,531,531,531,531,531,531,531,531,531,531,531,531,531,531,531,531,531,531,531,531,531,531,531,531,531,529,525,487,460,435,417,406,389,377,362,348,332,297,284,268,250,232,220,202,196,185,179,171,162,160,158,157,142,132,114,97],"timestamp_mouse":[9,25,45,65,86,105,125,144,166,184,205,225,246,264,284,305,324,345,365,385,404,425,444,466,486,504,525,546,564,585,605,625,644,664,685,706,724,744,764,784,806,824,844,864,885,905,924,945,965,985,1004,1025,1045,1065,1085,1106,1124,1144,1164],"xSR":741.5,"ySR":469.95,"xT1":424.9,"yT1":0,"xT2":1058.1,"yT2":0,"toosoon":0,"cond_shown":"equaldotanddens","ratio_trial":500,"smaller_num":"10","larger_num":"20","correct_side":2,"subjID":" nataliacorrealcaceres3","gender":" 1","age":" 11","school":" sexto"},{"start_time":1551887889384,"click_time":1551887890171,"finger_time":1551887889953,"fix_duration":990.8904763065885,"trial":44,"RT":569,"MT":218,"sideResp":2,"stimulus":"img/500/randomdotsizeEA/L/4_Ratio_500_L_18_R_9.png","xmouse":[776,776,776,776,776,776,776,776,776,776,776,776,776,776,776,776,776,776,776,776,776,776,776,776,776,781,786,791,797,812,825,852,875,899,963,998,1032,1052,1068,1084],"ymouse":[500,500,500,500,500,500,500,500,500,500,500,500,500,500,500,500,500,500,500,500,500,500,500,500,500,494,483,470,457,429,412,380,358,336,275,230,186,151,127,99],"timestamp_mouse":[20,33,48,67,87,107,128,148,167,187,207,228,248,269,287,307,327,347,368,388,407,427,448,467,489,507,527,547,569,588,608,627,647,668,687,708,728,747,768,787],"xSR":741.5,"ySR":469.95,"xT1":424.9,"yT1":0,"xT2":1058.1,"yT2":0,"toosoon":0,"cond_shown":"randomdotsizeEA","ratio_trial":500,"smaller_num":"9","larger_num":"18","correct_side":1,"subjID":" nataliacorrealcaceres3","gender":" 1","age":" 11","school":" sexto"},{"start_time":1551887892538,"click_time":1551887893611,"finger_time":1551887893192,"fix_duration":1306.8809118857444,"trial":45,"RT":654,"MT":419,"sideResp":2,"stimulus":"img/900/randomdotsizeEA/R/3_Ratio_900_L_9_R_10.png","xmouse":[797,797,797,797,797,797,797,797,797,797,797,797,797,797,797,797,797,797,797,797,797,797,797,797,797,797,797,797,797,797,797,801,835,883,918,942,964,970,973,975,977,980,986,988,991,993,996,1002,1006,1017,1035,1076,1086,1095],"ymouse":[544,544,544,544,544,544,544,544,544,544,544,544,544,544,544,544,544,544,544,544,544,544,544,544,544,544,544,544,544,544,544,527,463,397,352,312,253,234,221,214,208,203,187,182,177,172,166,157,152,145,135,109,102,94],"timestamp_mouse":[13,34,54,74,94,113,133,153,173,194,213,233,254,274,294,314,333,354,374,393,414,435,454,474,495,513,533,553,573,595,613,633,654,673,694,714,733,753,773,793,813,834,854,873,893,913,933,953,974,994,1014,1034,1053,1073],"xSR":741.5,"ySR":469.95,"xT1":424.9,"yT1":0,"xT2":1058.1,"yT2":0,"toosoon":0,"cond_shown":"randomdotsizeEA","ratio_trial":900,"smaller_num":"9","larger_num":"10","correct_side":2,"subjID":" nataliacorrealcaceres3","gender":" 1","age":" 11","school":" sexto"},{"start_time":1551887895778,"click_time":1551887897192,"finger_time":1551887896393,"fix_duration":1144.8488310866862,"trial":46,"RT":615,"MT":799,"sideResp":2,"stimulus":"img/500/equaldotsize/R/9_Ratio_500_L_2_R_4.png","xmouse":[778,778,778,778,778,778,778,778,778,778,778,778,778,778,778,778,778,778,778,778,778,778,778,778,778,778,777,776,767,761,709,678,651,624,587,571,560,551,545,542,542,542,543,550,583,730,839,955,1058,1140,1163,1165,1165,1165,1164,1163,1163,1163,1163,1163,1163,1163,1162,1162,1161,1159,1158,1156,1155,1153,1151],"ymouse":[518,518,518,518,518,518,518,518,518,518,518,518,518,518,518,518,518,518,518,518,518,518,518,518,518,518,514,510,487,480,406,364,323,282,221,194,175,158,147,141,141,141,143,148,163,215,237,251,251,231,194,171,153,142,131,127,125,122,122,119,116,114,113,112,110,107,106,104,103,100,97],"timestamp_mouse":[13,41,53,75,93,114,134,153,174,193,215,233,254,273,294,314,334,354,374,393,414,434,455,474,494,514,533,554,573,594,615,633,653,673,695,713,734,753,773,794,814,833,853,873,893,913,934,955,974,994,1013,1033,1054,1073,1095,1113,1134,1154,1174,1193,1213,1234,1254,1273,1293,1313,1334,1353,1373,1393,1414],"xSR":741.5,"ySR":469.95,"xT1":424.9,"yT1":0,"xT2":1058.1,"yT2":0,"toosoon":0,"cond_shown":"equaldotsize","ratio_trial":500,"smaller_num":"2","larger_num":"4","correct_side":2,"subjID":" nataliacorrealcaceres3","gender":" 1","age":" 11","school":" sexto"},{"start_time":1551887899470,"click_time":1551887900631,"finger_time":1551887900191,"fix_duration":1335.4901072012985,"trial":47,"RT":721,"MT":440,"sideResp":1,"stimulus":"img/900/equaldotanddens/R/7_Ratio_900_L_9_R_10.png","xmouse":[791,791,791,791,791,791,791,791,791,791,791,791,791,791,791,791,791,791,791,791,791,791,791,791,791,791,791,791,791,792,792,791,790,789,789,789,787,783,778,769,755,727,690,657,627,601,578,574,571,568,567,560,555,552,549,546,536,525,513],"ymouse":[507,507,507,507,507,507,507,507,507,507,507,507,507,507,507,507,507,507,507,507,507,507,507,507,507,507,507,507,507,507,505,496,489,487,482,477,460,445,427,408,386,353,305,252,201,149,95,80,70,62,57,42,35,30,28,27,27,28,33],"timestamp_mouse":[9,21,43,63,82,102,122,142,163,182,203,222,241,263,281,301,321,341,362,381,402,423,441,463,481,502,523,541,562,581,602,621,641,661,682,701,721,741,762,782,802,821,841,861,882,902,922,941,962,981,1001,1021,1041,1061,1082,1101,1121,1141,1161],"xSR":741.5,"ySR":469.95,"xT1":424.9,"yT1":0,"xT2":1058.1,"yT2":0,"toosoon":0,"cond_shown":"equaldotanddens","ratio_trial":900,"smaller_num":"9","larger_num":"10","correct_side":2,"subjID":" nataliacorrealcaceres3","gender":" 1","age":" 11","school":" sexto"},{"start_time":1551887902153,"click_time":1551887903031,"finger_time":1551887902791,"fix_duration":660.7431138120633,"trial":48,"RT":638,"MT":240,"sideResp":2,"stimulus":"img/500/equaldotsize/R/14_Ratio_500_L_5_R_10.png","xmouse":[815,815,815,815,815,815,815,815,815,815,815,815,815,815,815,815,815,816,816,816,816,816,816,816,816,816,816,816,816,817,819,861,929,995,1042,1074,1110,1121,1124,1126,1128,1129,1129,1129],"ymouse":[516,516,516,516,516,515,514,514,514,513,513,513,513,512,512,512,512,512,512,512,512,512,512,512,512,512,512,512,512,511,507,467,421,376,338,307,244,207,188,169,152,121,107,95],"timestamp_mouse":[20,38,58,79,98,119,139,159,180,199,219,239,259,278,298,319,338,360,379,398,418,439,459,479,499,519,538,559,579,598,619,638,658,678,698,720,740,758,778,799,819,839,858,878],"xSR":741.5,"ySR":469.95,"xT1":424.9,"yT1":0,"xT2":1058.1,"yT2":0,"toosoon":0,"cond_shown":"equaldotsize","ratio_trial":500,"smaller_num":"5","larger_num":"10","correct_side":2,"subjID":" nataliacorrealcaceres3","gender":" 1","age":" 11","school":" sexto"},{"start_time":1551887904081,"click_time":1551887905371,"finger_time":1551887904852,"fix_duration":408.94100178386736,"trial":49,"RT":771,"MT":519,"sideResp":1,"stimulus":"img/500/equaldotsize/L/10_Ratio_500_L_4_R_2.png","xmouse":[764,765,765,765,765,765,765,765,766,766,769,769,769,770,771,771,772,772,772,772,772,773,773,773,773,773,773,773,773,773,773,773,773,773,773,770,760,747,734,716,673,661,651,642,631,613,607,601,599,597,595,592,586,577,569,558,537,533,528,523,513,510,509,508,506],"ymouse":[558,557,557,557,557,557,557,557,555,554,548,547,544,539,534,532,529,529,528,528,527,525,525,525,525,525,525,525,525,525,525,525,525,525,525,523,517,505,484,448,356,322,290,263,239,197,184,174,169,166,164,162,159,154,151,145,136,133,131,127,119,115,107,100,93],"timestamp_mouse":[18,34,51,70,91,110,132,151,170,191,211,230,250,270,290,310,330,352,371,391,411,431,450,471,491,511,531,551,570,590,611,631,652,672,690,710,730,750,771,791,811,831,850,871,890,911,930,951,971,991,1011,1030,1051,1071,1090,1110,1130,1151,1170,1191,1212,1230,1251,1271,1290],"xSR":741.5,"ySR":469.95,"xT1":424.9,"yT1":0,"xT2":1058.1,"yT2":0,"toosoon":0,"cond_shown":"equaldotsize","ratio_trial":500,"smaller_num":"2","larger_num":"4","correct_side":1,"subjID":" nataliacorrealcaceres3","gender":" 1","age":" 11","school":" sexto"},{"start_time":1551887906980,"click_time":1551887908112,"finger_time":1551887907512,"fix_duration":687.5669809567856,"trial":50,"RT":532,"MT":600,"sideResp":2,"stimulus":"img/250/equaldotanddens/R/10_Ratio_250_L_4_R_16.png","xmouse":[803,803,80