[{"start_time":1551900737672,"click_time":1551900745098,"finger_time":1551900737680,"fix_duration":250,"trial":0,"RT":8,"MT":7418,"sideResp":2,"stimulus":"img/750/equaldotanddens/R/7_Ratio_750_L_3_R_4.png","xmouse":[795,795,795,795,795,795,795,795,795,795,795,795,795,795,795,795,795,795,795,795,795,795,795,795,795,795,795,795,795,795,795,795,795,794,805,814,820,825,825,825,825,825,824,819,818,818,818,818,818,818,818,818,818,818,818,818,818,818,818,817,814,813,811,810,809,809,809,809,809,809,809,809,809,809,809,809,809,809,809,809,809,809,809,809,809,809,809,809,809,809,809,809,809,809,809,809,809,809,809,809,809,809,809,809,809,809,809,809,809,809,809,809,809,809,809,809,809,809,809,809,809,809,809,809,809,809,809,809,809,809,809,809,809,809,809,809,809,809,809,809,809,809,809,809,809,809,809,809,809,809,809,809,809,809,809,809,809,809,809,809,809,809,809,809,809,809,809,809,809,809,809,809,809,809,809,809,809,809,809,809,809,809,809,809,809,809,809,809,809,809,809,809,809,809,809,809,809,809,809,809,809,809,809,809,809,809,809,808,808,808,808,808,808,808,808,808,808,808,808,808,808,808,807,807,807,807,807,807,807,807,806,806,806,806,806,806,806,806,806,803,798,795,795,795,795,795,795,795,795,795,795,795,795,795,795,795,795,795,795,795,795,795,795,795,795,795,795,795,795,795,795,803,806,816,851,872,899,911,921,935,940,943,946,948,952,955,957,958,960,960,962,963,964,967,972,973,973,974,976,983,988,993,998,1001,1003,1004,1004,1005,1005,1007,1008,1008,1010,1014,1016,1017,1017,1018,1018,1019,1019,1019,1021,1022,1024,1024,1024,1026,1026,1026,1027,1029,1032,1036,1045,1055,1056,1056,1056,1057,1058,1059,1059,1061,1063,1065,1067,1067,1067,1069,1072,1080,1092,1105,1128,1144,1156,1169,1178,1186,1184,1181,1178,1178,1178,1176,1174,1174,1173,1164,1160,1156],"ymouse":[499,499,499,499,499,499,499,499,499,499,499,499,499,499,499,499,499,499,499,499,499,499,499,499,499,499,499,499,499,499,499,499,499,521,562,596,618,635,639,639,641,644,650,659,660,660,660,660,660,660,660,660,660,660,660,660,660,660,660,660,656,653,651,650,649,649,649,649,649,649,649,649,649,649,649,649,649,649,649,649,649,649,649,649,649,649,649,649,649,649,649,649,649,649,649,649,649,649,649,649,649,649,649,649,649,649,649,649,649,649,649,649,649,649,649,649,649,649,649,649,649,649,649,649,649,649,649,649,649,649,649,649,649,649,649,649,649,649,649,649,649,649,649,649,649,649,649,649,649,649,649,649,649,649,649,649,649,649,649,649,649,649,649,649,649,649,649,649,649,649,649,649,649,649,649,649,649,649,649,649,649,649,649,649,649,649,649,649,649,649,649,649,649,649,649,649,649,649,649,649,649,649,649,649,646,646,645,643,641,639,638,637,635,634,630,629,627,626,626,626,626,626,625,625,625,625,625,625,625,625,624,624,624,624,624,624,624,624,624,623,622,621,621,621,621,621,621,621,621,621,621,621,621,621,621,621,621,621,621,621,621,621,621,621,621,621,621,621,621,621,621,618,615,607,577,559,533,521,506,485,474,464,453,445,432,422,413,410,406,401,398,394,391,386,377,375,374,372,370,356,349,344,340,338,336,335,335,335,334,331,330,329,326,317,313,311,310,309,308,306,306,306,303,301,298,298,298,298,298,298,298,298,298,298,300,304,304,304,304,304,304,303,303,299,290,285,283,282,282,279,275,272,266,253,215,178,149,115,86,33,13,6,0,0,0,3,5,6,8,16,21,27],"timestamp_mouse":[8,26,47,66,86,106,125,146,167,186,205,226,245,267,286,306,327,346,366,385,406,426,447,466,486,507,526,547,566,585,606,626,647,667,685,706,726,747,766,785,806,826,846,867,886,906,926,946,965,987,1005,1026,1046,1066,1086,1105,1126,1146,1166,1186,1205,1226,1245,1266,1287,1306,1326,1346,1367,1385,1405,1425,1447,1465,1486,1505,1527,1545,1566,1586,1606,1626,1647,1666,1685,1707,1726,1746,1766,1785,1805,1826,1846,1865,1886,1905,1926,1947,1967,1985,2006,2026,2045,2066,2086,2107,2125,2145,2165,2186,2205,2226,2245,2266,2286,2305,2327,2346,2366,2386,2406,2427,2446,2467,2486,2507,2525,2547,2566,2586,2607,2626,2647,2666,2686,2706,2726,2745,2767,2786,2806,2827,2846,2866,2886,2905,2927,2945,2966,2986,3007,3026,3045,3066,3085,3107,3125,3147,3166,3186,3205,3227,3246,3267,3286,3306,3325,3347,3366,3385,3405,3426,3445,3466,3486,3506,3525,3546,3566,3586,3606,3625,3646,3666,3686,3706,3727,3746,3765,3786,3805,3826,3846,3866,3886,3906,3927,3946,3966,3987,4007,4025,4046,4067,4086,4105,4125,4146,4165,4186,4206,4226,4246,4266,4286,4305,4326,4347,4366,4387,4406,4425,4447,4466,4486,4506,4526,4547,4567,4586,4606,4625,4646,4666,4686,4706,4725,4745,4766,4786,4805,4825,4846,4865,4887,4907,4926,4947,4965,4986,5007,5025,5047,5066,5086,5107,5127,5147,5165,5186,5205,5226,5247,5265,5285,5306,5325,5347,5365,5386,5406,5426,5446,5466,5486,5505,5525,5546,5566,5586,5605,5626,5645,5667,5686,5706,5726,5746,5767,5786,5805,5826,5847,5867,5885,5906,5926,5946,5966,5986,6005,6026,6046,6067,6086,6105,6125,6146,6165,6185,6207,6226,6246,6267,6285,6305,6325,6347,6366,6386,6406,6426,6446,6466,6485,6506,6526,6547,6567,6587,6605,6627,6645,6666,6686,6706,6726,6746,6766,6786,6806,6826,6845,6865,6885,6906,6927,6947,6965,6986,7007,7027,7047,7066,7086,7105,7126,7145,7167,7186,7207,7227,7247,7266,7286,7306,7326,7346,7367,7386,7405,7425],"xSR":741.5,"ySR":469.95,"xT1":424.9,"yT1":0,"xT2":1058.1,"yT2":0,"toosoon":0,"cond_shown":"equaldotanddens","ratio_trial":750,"smaller_num":"3","larger_num":"4","correct_side":2,"subjID":" NtaliaErazoYepes26","gender":"1","age":"11","school":"6","test":{"fix_dur":[250,1500],"timestim":300,"targets_dim":[100,100],"targets_relative_coord":[0.3,0.7],"size_stim":[880,420],"start_dim":[100,100],"size_start":[300,300],"size_fix":60,"samplingrate":20,"img_types":["equaldotsize","equaldotanddens","randomdotsizeEA"],"ratios":[250,500,750,900],"rep_conds":9,"nTrials":120,"trials_to_rest":500,"Trials_order":[91,14,60,36,72,58,9,64,66,115,25,11,101,83,3,42,21,71,40,30,79,19,26,56,86,33,32,13,93,82,39,80,118,49,88,62,95,113,55,48,27,45,59,102,2,96,65,29,114,69,24,44,37,54,5,46,73,8,97,109,16,104,81,6,70,61,23,74,0,98,50,31,20,92,110,53,90,117,22,4,112,41,100,105,99,10,12,84,43,57,15,78,47,87,94,67,111,34,38,1,108,75,77,7,103,106,85,76,51,18,68,116,17,35,52,119,63,89,107,28],"cond_shown":["equaldotanddens","randomdotsizeEA","equaldotsize","equaldotsize","equaldotsize","equaldotanddens","equaldotsize","equaldotanddens","equaldotsize","equaldotanddens","equaldotanddens","randomdotsizeEA","randomdotsizeEA","randomdotsizeEA","equaldotsize","equaldotsize","equaldotsize","randomdotsizeEA","equaldotanddens","equaldotsize","equaldotanddens","equaldotanddens","randomdotsizeEA","randomdotsizeEA","randomdotsizeEA","equaldotsize","randomdotsizeEA","equaldotanddens","equaldotsize","equaldotanddens","equaldotsize","randomdotsizeEA","equaldotanddens","equaldotanddens","equaldotanddens","randomdotsizeEA","randomdotsizeEA","randomdotsizeEA","equaldotanddens","equaldotsize","equaldotsize","equaldotsize","randomdotsizeEA","equaldotsize","randomdotsizeEA","equaldotsize","randomdotsizeEA","randomdotsizeEA","equaldotsize","equaldotsize","equaldotsize","randomdotsizeEA","equaldotanddens","equaldotsize","randomdotsizeEA","equaldotanddens","equaldotanddens","randomdotsizeEA","equaldotanddens","equaldotanddens","equaldotanddens","randomdotsizeEA","equaldotsize","equaldotsize","equaldotanddens","equaldotanddens","randomdotsizeEA","randomdotsizeEA","equaldotsize","randomdotsizeEA","randomdotsizeEA","equaldotanddens","randomdotsizeEA","randomdotsizeEA","randomdotsizeEA","randomdotsizeEA","equaldotsize","equaldotsize","equaldotanddens","equaldotanddens","equaldotanddens","randomdotsizeEA","equaldotanddens","equaldotsize","equaldotsize","equaldotanddens","equaldotsize","equaldotsize","equaldotanddens","equaldotsize","equaldotsize","equaldotsize","randomdotsizeEA","equaldotsize","equaldotanddens","equaldotanddens","equaldotsize","equaldotanddens","randomdotsizeEA","equaldotanddens","equaldotsize","equaldotsize","randomdotsizeEA","equaldotanddens","equaldotanddens","equaldotanddens","equaldotanddens","equaldotanddens","equaldotsize","equaldotsize","randomdotsizeEA","randomdotsizeEA","randomdotsizeEA","randomdotsizeEA","equaldotanddens","randomdotsizeEA","equaldotsize","randomdotsizeEA","randomdotsizeEA","equaldotanddens"],"ratio_trial":[750,250,250,250,250,900,900,500,750,750,250,900,500,900,500,750,900,900,500,750,750,750,250,750,250,900,750,250,900,900,500,750,900,250,500,250,900,500,750,250,500,900,900,750,250,250,500,500,750,900,250,750,250,750,500,900,250,750,250,250,500,750,900,750,900,250,900,250,250,250,250,750,750,750,250,500,750,900,900,500,500,500,500,900,500,900,250,250,750,900,500,750,900,500,900,750,500,900,250,250,250,500,500,750,750,900,250,500,500,750,750,750,500,900,500,900,500,500,900,500],"smaller_num":["3","4","4","3","3","9","9","2","9","12","3","18","6","18","2","3","18","9","2","15","15","9","3","3","3","18","6","5","18","18","9","3","18","3","9","5","18","4","15","4","4","18","18","3","6","2","2","10","6","18","2","18","3","18","6","18","3","6","1","3","2","3","9","18","18","3","18","1","4","3","2","15","3","6","2","6","6","18","18","2","9","10","1","9","9","18","3","2","6","18","2","6","18","2","18","6","5","18","4","2","3","2","1","3","3","9","6","2","4","3","3","3","6","18","5","18","9","9","18","9"],"larger_num":["4","16","16","12","12","10","10","4","12","16","12","20","12","20","4","4","20","10","4","20","20","12","12","4","12","20","8","20","20","20","18","4","20","12","18","20","20","8","20","16","8","20","20","4","24","8","4","20","8","20","8","24","12","24","12","20","12","8","4","12","4","4","10","24","20","12","20","4","16","12","8","20","4","8","8","12","8","20","20","4","18","20","2","10","18","20","12","8","8","20","4","8","20","4","20","8","10","20","16","8","12","4","2","4","4","10","24","4","8","4","4","4","12","20","10","20","18","18","20","18"],"correct_side":[2,1,2,2,2,1,2,1,2,2,2,2,1,1,1,2,2,2,2,1,2,2,2,1,1,1,1,2,1,1,2,1,1,2,2,2,1,1,2,2,1,2,1,1,1,1,2,2,2,2,1,1,1,1,1,1,1,1,2,2,1,1,1,1,1,1,2,2,2,2,1,2,1,1,1,1,2,1,1,1,2,2,2,1,2,2,2,1,1,1,1,1,1,2,2,1,2,2,2,1,2,1,2,2,1,2,1,1,1,2,1,1,1,2,1,2,2,1,1,2],"img_shown":["img/750/equaldotanddens/R/7_Ratio_750_L_3_R_4.png","img/250/randomdotsizeEA/L/2_Ratio_250_L_16_R_4.png","img/250/equaldotsize/R/10_Ratio_250_L_4_R_16.png","img/250/equaldotsize/R/4_Ratio_250_L_3_R_12.png","img/250/equaldotsize/R/9_Ratio_250_L_3_R_12.png","img/900/equaldotanddens/L/1_Ratio_900_L_10_R_9.png","img/900/equaldotsize/R/15_Ratio_900_L_9_R_10.png","img/500/equaldotanddens/L/10_Ratio_500_L_4_R_2.png","img/750/equaldotsize/R/15_Ratio_750_L_9_R_12.png","img/750/equaldotanddens/R/11_Ratio_750_L_12_R_16.png","img/250/equaldotanddens/R/9_Ratio_250_L_3_R_12.png","img/900/randomdotsizeEA/R/14_Ratio_900_L_18_R_20.png","img/500/randomdotsizeEA/L/11_Ratio_500_L_12_R_6.png","img/900/randomdotsizeEA/L/4_Ratio_900_L_20_R_18.png","img/500/equaldotsize/L/10_Ratio_500_L_4_R_2.png","img/750/equaldotsize/R/12_Ratio_750_L_3_R_4.png","img/900/equaldotsize/R/11_Ratio_900_L_18_R_20.png","img/900/randomdotsizeEA/R/15_Ratio_900_L_9_R_10.png","img/500/equaldotanddens/R/9_Ratio_500_L_2_R_4.png","img/750/equaldotsize/L/1_Ratio_750_L_20_R_15.png","img/750/equaldotanddens/R/5_Ratio_750_L_15_R_20.png","img/750/equaldotanddens/R/15_Ratio_750_L_9_R_12.png","img/250/randomdotsizeEA/R/4_Ratio_250_L_3_R_12.png","img/750/randomdotsizeEA/L/9_Ratio_750_L_4_R_3.png","img/250/randomdotsizeEA/L/15_Ratio_250_L_12_R_3.png","img/900/equaldotsize/L/10_Ratio_900_L_20_R_18.png","img/750/randomdotsizeEA/L/14_Ratio_750_L_8_R_6.png","img/250/equaldotanddens/R/12_Ratio_250_L_5_R_20.png","img/900/equaldotsize/L/10_Ratio_900_L_20_R_18.png","img/900/equaldotanddens/L/10_Ratio_900_L_20_R_18.png","img/500/equaldotsize/R/6_Ratio_500_L_9_R_18.png","img/750/randomdotsizeEA/L/9_Ratio_750_L_4_R_3.png","img/900/equaldotanddens/L/8_Ratio_900_L_20_R_18.png","img/250/equaldotanddens/R/11_Ratio_250_L_3_R_12.png","img/500/equaldotanddens/R/6_Ratio_500_L_9_R_18.png","img/250/randomdotsizeEA/R/12_Ratio_250_L_5_R_20.png","img/900/randomdotsizeEA/L/4_Ratio_900_L_20_R_18.png","img/500/randomdotsizeEA/L/8_Ratio_500_L_8_R_4.png","img/750/equaldotanddens/R/4_Ratio_750_L_15_R_20.png","img/250/equaldotsize/R/10_Ratio_250_L_4_R_16.png","img/500/equaldotsize/L/8_Ratio_500_L_8_R_4.png","img/900/equaldotsize/R/11_Ratio_900_L_18_R_20.png","img/900/randomdotsizeEA/L/10_Ratio_900_L_20_R_18.png","img/750/equaldotsize/L/10_Ratio_750_L_4_R_3.png","img/250/randomdotsizeEA/L/5_Ratio_250_L_24_R_6.png","img/250/equaldotsize/L/7_Ratio_250_L_8_R_2.png","img/500/randomdotsizeEA/R/9_Ratio_500_L_2_R_4.png","img/500/randomdotsizeEA/R/3_Ratio_500_L_10_R_20.png","img/750/equaldotsize/R/2_Ratio_750_L_6_R_8.png","img/900/equaldotsize/R/13_Ratio_900_L_18_R_20.png","img/250/equaldotsize/L/1_Ratio_250_L_8_R_2.png","img/750/randomdotsizeEA/L/6_Ratio_750_L_24_R_18.png","img/250/equaldotanddens/L/14_Ratio_250_L_12_R_3.png","img/750/equaldotsize/L/6_Ratio_750_L_24_R_18.png","img/500/randomdotsizeEA/L/13_Ratio_500_L_12_R_6.png","img/900/equaldotanddens/L/8_Ratio_900_L_20_R_18.png","img/250/equaldotanddens/L/15_Ratio_250_L_12_R_3.png","img/750/randomdotsizeEA/L/13_Ratio_750_L_8_R_6.png","img/250/equaldotanddens/R/8_Ratio_250_L_1_R_4.png","img/250/equaldotanddens/R/11_Ratio_250_L_3_R_12.png","img/500/equaldotanddens/L/10_Ratio_500_L_4_R_2.png","img/750/randomdotsizeEA/L/8_Ratio_750_L_4_R_3.png","img/900/equaldotsize/L/1_Ratio_900_L_10_R_9.png","img/750/equaldotsize/L/6_Ratio_750_L_24_R_18.png","img/900/equaldotanddens/L/2_Ratio_900_L_20_R_18.png","img/250/equaldotanddens/L/14_Ratio_250_L_12_R_3.png","img/900/randomdotsizeEA/R/14_Ratio_900_L_18_R_20.png","img/250/randomdotsizeEA/R/8_Ratio_250_L_1_R_4.png","img/250/equaldotsize/R/10_Ratio_250_L_4_R_16.png","img/250/randomdotsizeEA/R/4_Ratio_250_L_3_R_12.png","img/250/randomdotsizeEA/L/3_Ratio_250_L_8_R_2.png","img/750/equaldotanddens/R/5_Ratio_750_L_15_R_20.png","img/750/randomdotsizeEA/L/10_Ratio_750_L_4_R_3.png","img/750/randomdotsizeEA/L/14_Ratio_750_L_8_R_6.png","img/250/randomdotsizeEA/L/3_Ratio_250_L_8_R_2.png","img/500/randomdotsizeEA/L/13_Ratio_500_L_12_R_6.png","img/750/equaldotsize/R/2_Ratio_750_L_6_R_8.png","img/900/equaldotsize/L/2_Ratio_900_L_20_R_18.png","img/900/equaldotanddens/L/4_Ratio_900_L_20_R_18.png","img/500/equaldotanddens/L/10_Ratio_500_L_4_R_2.png","img/500/equaldotanddens/R/6_Ratio_500_L_9_R_18.png","img/500/randomdotsizeEA/R/3_Ratio_500_L_10_R_20.png","img/500/equaldotanddens/R/12_Ratio_500_L_1_R_2.png","img/900/equaldotsize/L/1_Ratio_900_L_10_R_9.png","img/500/equaldotsize/R/6_Ratio_500_L_9_R_18.png","img/900/equaldotanddens/R/11_Ratio_900_L_18_R_20.png","img/250/equaldotsize/R/11_Ratio_250_L_3_R_12.png","img/250/equaldotsize/L/7_Ratio_250_L_8_R_2.png","img/750/equaldotanddens/L/14_Ratio_750_L_8_R_6.png","img/900/equaldotsize/L/2_Ratio_900_L_20_R_18.png","img/500/equaldotsize/L/5_Ratio_500_L_4_R_2.png","img/750/equaldotsize/L/14_Ratio_750_L_8_R_6.png","img/900/randomdotsizeEA/L/10_Ratio_900_L_20_R_18.png","img/500/equaldotsize/R/9_Ratio_500_L_2_R_4.png","img/900/equaldotanddens/R/14_Ratio_900_L_18_R_20.png","img/750/equaldotanddens/L/14_Ratio_750_L_8_R_6.png","img/500/equaldotsize/R/14_Ratio_500_L_5_R_10.png","img/900/equaldotanddens/R/9_Ratio_900_L_18_R_20.png","img/250/randomdotsizeEA/R/10_Ratio_250_L_4_R_16.png","img/250/equaldotanddens/L/3_Ratio_250_L_8_R_2.png","img/250/equaldotsize/R/9_Ratio_250_L_3_R_12.png","img/500/equaldotsize/L/10_Ratio_500_L_4_R_2.png","img/500/randomdotsizeEA/R/15_Ratio_500_L_1_R_2.png","img/750/equaldotanddens/R/12_Ratio_750_L_3_R_4.png","img/750/equaldotanddens/L/10_Ratio_750_L_4_R_3.png","img/900/equaldotanddens/R/7_Ratio_900_L_9_R_10.png","img/250/equaldotanddens/L/5_Ratio_250_L_24_R_6.png","img/500/equaldotanddens/L/10_Ratio_500_L_4_R_2.png","img/500/equaldotsize/L/8_Ratio_500_L_8_R_4.png","img/750/equaldotsize/R/7_Ratio_750_L_3_R_4.png","img/750/randomdotsizeEA/L/8_Ratio_750_L_4_R_3.png","img/750/randomdotsizeEA/L/9_Ratio_750_L_4_R_3.png","img/500/randomdotsizeEA/L/13_Ratio_500_L_12_R_6.png","img/900/randomdotsizeEA/R/9_Ratio_900_L_18_R_20.png","img/500/equaldotanddens/L/7_Ratio_500_L_10_R_5.png","img/900/randomdotsizeEA/R/13_Ratio_900_L_18_R_20.png","img/500/equaldotsize/R/6_Ratio_500_L_9_R_18.png","img/500/randomdotsizeEA/L/4_Ratio_500_L_18_R_9.png","img/900/randomdotsizeEA/L/8_Ratio_900_L_20_R_18.png","img/500/equaldotanddens/R/6_Ratio_500_L_9_R_18.png"],"Rat0":[["12_Ratio_0_L_9_R_0.png","13_Ratio_0_L_6_R_0.png","5_Ratio_0_L_2_R_0.png","6_Ratio_0_L_4_R_0.png","8_Ratio_0_L_6_R_0.png"],["1_Ratio_0_L_0_R_17.png","10_Ratio_0_L_0_R_22.png","11_Ratio_0_L_0_R_1.png","14_Ratio_0_L_0_R_24.png","15_Ratio_0_L_0_R_4.png","2_Ratio_0_L_0_R_5.png","3_Ratio_0_L_0_R_17.png","4_Ratio_0_L_0_R_7.png","7_Ratio_0_L_0_R_19.png","9_Ratio_0_L_0_R_15.png"]],"Rat250":[["1_Ratio_250_L_8_R_2.png","14_Ratio_250_L_12_R_3.png","15_Ratio_250_L_12_R_3.png","2_Ratio_250_L_16_R_4.png","3_Ratio_250_L_8_R_2.png","5_Ratio_250_L_24_R_6.png","7_Ratio_250_L_8_R_2.png"],["10_Ratio_250_L_4_R_16.png","11_Ratio_250_L_3_R_12.png","12_Ratio_250_L_5_R_20.png","13_Ratio_250_L_2_R_8.png","4_Ratio_250_L_3_R_12.png","6_Ratio_250_L_6_R_24.png","8_Ratio_250_L_1_R_4.png","9_Ratio_250_L_3_R_12.png"]],"Rat500":[["10_Ratio_500_L_4_R_2.png","11_Ratio_500_L_12_R_6.png","13_Ratio_500_L_12_R_6.png","4_Ratio_500_L_18_R_9.png","5_Ratio_500_L_4_R_2.png","7_Ratio_500_L_10_R_5.png","8_Ratio_500_L_8_R_4.png"],["1_Ratio_500_L_9_R_18.png","12_Ratio_500_L_1_R_2.png","14_Ratio_500_L_5_R_10.png","15_Ratio_500_L_1_R_2.png","2_Ratio_500_L_3_R_6.png","3_Ratio_500_L_10_R_20.png","6_Ratio_500_L_9_R_18.png","9_Ratio_500_L_2_R_4.png"]],"Rat750":[["1_Ratio_750_L_20_R_15.png","10_Ratio_750_L_4_R_3.png","13_Ratio_750_L_8_R_6.png","14_Ratio_750_L_8_R_6.png","6_Ratio_750_L_24_R_18.png","8_Ratio_750_L_4_R_3.png","9_Ratio_750_L_4_R_3.png"],["11_Ratio_750_L_12_R_16.png","12_Ratio_750_L_3_R_4.png","15_Ratio_750_L_9_R_12.png","2_Ratio_750_L_6_R_8.png","3_Ratio_750_L_15_R_20.png","4_Ratio_750_L_15_R_20.png","5_Ratio_750_L_15_R_20.png","7_Ratio_750_L_3_R_4.png"]],"Rat900":[["1_Ratio_900_L_10_R_9.png","10_Ratio_900_L_20_R_18.png","2_Ratio_900_L_20_R_18.png","4_Ratio_900_L_20_R_18.png","8_Ratio_900_L_20_R_18.png"],["11_Ratio_900_L_18_R_20.png","12_Ratio_900_L_18_R_20.png","13_Ratio_900_L_18_R_20.png","14_Ratio_900_L_18_R_20.png","15_Ratio_900_L_9_R_10.png","3_Ratio_900_L_9_R_10.png","5_Ratio_900_L_9_R_10.png","6_Ratio_900_L_9_R_10.png","7_Ratio_900_L_9_R_10.png","9_Ratio_900_L_18_R_20.png"]],"Rat1000":[["10_Ratio_1000_L_16_R_16.png","11_Ratio_1000_L_6_R_6.png","12_Ratio_1000_L_14_R_14.png","13_Ratio_1000_L_20_R_20.png","15_Ratio_1000_L_15_R_15.png","2_Ratio_1000_L_17_R_17.png","4_Ratio_1000_L_9_R_9.png","5_Ratio_1000_L_6_R_6.png","6_Ratio_1000_L_19_R_19.png","8_Ratio_1000_L_14_R_14.png","9_Ratio_1000_L_25_R_25.png"],["1_Ratio_1000_L_1_R_1.png","14_Ratio_1000_L_17_R_17.png","3_Ratio_1000_L_17_R_17.png","7_Ratio_1000_L_6_R_6.png"]]}},{"start_time":1551900747599,"click_time":1551900749498,"finger_time":1551900748778,"fix_duration":1200.4250118110353,"trial":1,"RT":1179,"MT":720,"sideResp":1,"stimulus":"img/250/randomdotsizeEA/L/2_Ratio_250_L_16_R_4.png","xmouse":[800,800,800,800,800,800,800,800,800,800,800,800,800,800,800,800,800,800,800,800,800,800,800,800,800,800,800,800,800,800,800,800,800,800,800,800,800,800,800,800,800,800,800,800,800,800,800,800,800,800,797,794,792,786,784,782,780,778,770,761,752,744,734,712,701,686,677,668,655,649,643,638,633,620,615,607,604,603,598,595,589,585,579,572,567,562,555,549,533,527,519,516,516,516,511],"ymouse":[637,637,637,637,637,637,637,637,637,637,637,637,637,637,637,637,637,637,637,637,637,637,637,637,637,637,637,637,637,637,637,637,637,637,637,637,637,637,637,637,637,637,637,637,637,637,637,637,637,637,630,623,618,608,603,599,595,589,564,544,522,501,480,440,420,391,369,350,318,309,299,287,279,260,252,243,240,238,228,220,207,194,177,129,99,50,24,4,0,0,0,0,0,0,3],"timestamp_mouse":[19,38,59,78,100,119,139,159,179,198,220,238,258,280,299,320,338,360,379,398,418,439,458,479,499,518,539,560,579,599,619,639,660,679,698,719,739,759,779,799,820,840,858,878,900,919,938,959,978,998,1019,1039,1058,1078,1099,1118,1138,1159,1179,1198,1218,1239,1258,1278,1299,1318,1339,1359,1379,1398,1419,1439,1458,1478,1499,1519,1539,1559,1579,1598,1619,1639,1660,1678,1699,1719,1739,1759,1779,1799,1819,1838,1859,1878,1898],"xSR":741.5,"ySR":573.95,"xT1":424.9,"yT1":0,"xT2":1058.1,"yT2":0,"toosoon":0,"cond_shown":"randomdotsizeEA","ratio_trial":250,"smaller_num":"4","larger_num":"16","correct_side":1,"subjID":" NtaliaErazoYepes26","gender":"1","age":"11","school":"6"},{"start_time":1551900751730,"click_time":1551900753178,"finger_time":1551900752617,"fix_duration":1030.4080129081062,"trial":2,"RT":887,"MT":561,"sideResp":2,"stimulus":"img/250/equaldotsize/R/10_Ratio_250_L_4_R_16.png","xmouse":[811,811,811,811,811,811,811,811,811,811,811,811,811,811,811,811,811,811,811,811,811,811,811,811,811,811,811,811,811,811,811,811,811,811,811,811,811,811,811,811,811,811,819,830,842,854,863,896,914,938,982,1032,1085,1105,1123,1136,1146,1164,1177,1186,1194,1203,1213,1217,1218,1218,1217,1210,1209,1208,1201,1181,1139],"ymouse":[632,632,632,632,632,632,632,632,632,632,632,632,632,632,632,632,632,632,632,632,632,632,632,632,632,632,632,632,632,632,632,632,632,632,632,632,632,632,632,632,632,632,624,618,610,602,593,564,547,530,496,460,419,399,375,353,332,285,256,233,211,183,126,101,79,63,48,31,30,30,30,35,46],"timestamp_mouse":[8,31,48,68,87,107,127,148,168,188,208,229,247,267,288,308,327,349,368,387,409,428,448,468,489,508,527,548,568,589,608,627,648,667,687,707,727,748,768,788,807,827,847,867,887,907,928,948,967,987,1008,1028,1048,1067,1088,1108,1127,1148,1168,1188,1208,1227,1247,1267,1288,1308,1327,1348,1368,1388,1409,1428,1448],"xSR":741.5,"ySR":573.95,"xT1":424.9,"yT1":0,"xT2":1058.1,"yT2":0,"toosoon":0,"cond_shown":"equaldotsize","ratio_trial":250,"smaller_num":"4","larger_num":"16","correct_side":2,"subjID":" NtaliaErazoYepes26","gender":"1","age":"11","school":"6"},{"start_time":1551900755384,"click_time":1551900756459,"finger_time":1551900756038,"fix_duration":1083.361719649221,"trial":3,"RT":654,"MT":421,"sideResp":2,"stimulus":"img/250/equaldotsize/R/4_Ratio_250_L_3_R_12.png","xmouse":[808,808,808,808,808,808,808,808,808,808,808,808,808,808,808,808,808,808,808,808,808,808,808,808,808,808,808,808,808,808,808,813,851,930,975,1028,1045,1070,1093,1122,1136,1161,1186,1213,1225,1228,1228,1228,1228,1228,1212,1193,1173,1154],"ymouse":[585,585,585,585,585,585,585,585,585,585,585,585,585,585,585,585,585,585,585,585,585,585,585,585,585,585,585,585,585,585,585,576,545,488,453,400,375,340,307,261,235,195,159,111,89,69,68,67,67,65,48,39,31,26],"timestamp_mouse":[14,34,54,74,93,114,133,154,175,195,215,234,255,274,293,315,335,353,375,395,413,434,455,474,493,514,535,555,574,594,613,635,654,674,694,714,733,754,774,795,813,834,854,875,894,915,935,953,973,994,1014,1035,1053,1075],"xSR":741.5,"ySR":573.95,"xT1":424.9,"yT1":0,"xT2":1058.1,"yT2":0,"toosoon":0,"cond_shown":"equaldotsize","ratio_trial":250,"smaller_num":"3","larger_num":"12","correct_side":2,"subjID":" NtaliaErazoYepes26","gender":"1","age":"11","school":"6"},{"start_time":1551900758547,"click_time":1551900759918,"finger_time":1551900759198,"fix_duration":806.912294498485,"trial":4,"RT":651,"MT":720,"sideResp":2,"stimulus":"img/250/equaldotsize/R/9_Ratio_250_L_3_R_12.png","xmouse":[793,793,793,793,793,793,793,793,793,793,793,793,793,793,793,793,793,793,793,793,793,793,793,793,793,793,793,793,796,804,815,828,868,885,901,916,929,955,969,982,999,1014,1038,1050,1065,1074,1081,1096,1102,1112,1121,1127,1137,1150,1162,1173,1181,1187,1188,1188,1188,1188,1188,1188,1188,1188,1187,1153,1132],"ymouse":[650,650,650,650,650,650,650,650,650,650,650,650,650,650,650,650,650,650,650,650,650,650,650,650,650,650,650,645,636,624,610,592,542,521,503,484,466,427,408,387,363,343,305,287,263,251,242,226,220,211,200,192,180,170,160,149,140,131,129,129,129,129,129,129,129,128,125,108,97],"timestamp_mouse":[11,35,52,71,90,112,130,151,171,190,211,230,250,272,291,311,332,350,370,390,412,430,451,470,491,510,532,551,570,592,611,632,651,672,690,711,731,751,771,791,811,832,850,871,891,912,932,951,972,992,1012,1031,1052,1072,1091,1111,1132,1151,1172,1191,1211,1231,1252,1272,1291,1311,1331,1351,1371],"xSR":741.5,"ySR":573.95,"xT1":424.9,"yT1":0,"xT2":1058.1,"yT2":0,"toosoon":0,"cond_shown":"equaldotsize","ratio_trial":250,"smaller_num":"3","larger_num":"12","correct_side":2,"subjID":" NtaliaErazoYepes26","gender":"1","age":"11","school":"6"},{"start_time":1551900761771,"click_time":1551900763978,"finger_time":1551900762598,"fix_duration":372.869084780363,"trial":5,"RT":827,"MT":1380,"sideResp":1,"stimulus":"img/900/equaldotanddens/L/1_Ratio_900_L_10_R_9.png","xmouse":[766,766,766,766,766,766,766,766,766,766,766,766,766,766,766,766,766,766,766,766,766,766,771,780,787,792,799,799,800,800,800,800,800,800,800,800,800,800,800,799,798,787,777,761,749,742,725,720,712,705,698,693,693,693,693,693,693,693,693,693,693,691,680,668,655,639,629,615,610,606,605,599,593,587,583,581,576,576,575,574,572,561,556,552,549,546,544,544,544,544,544,544,544,544,544,544,543,542,542,538,534,531,530,530,530,530,530,529,527,526,524],"ymouse":[612,612,612,612,612,612,612,612,612,612,612,612,612,612,612,612,612,612,612,612,612,612,613,609,605,601,595,595,594,594,594,594,594,594,594,594,594,594,594,591,589,551,523,487,463,446,413,398,377,359,343,332,332,332,332,332,332,332,332,332,332,328,307,289,270,251,235,207,193,182,175,161,143,132,123,117,107,105,104,102,99,91,88,85,83,80,79,79,79,79,79,79,79,79,79,79,79,79,79,77,76,75,75,75,75,75,75,75,75,75,75],"timestamp_mouse":[8,36,47,67,86,107,127,148,167,186,207,226,248,267,287,308,327,346,368,388,407,426,448,466,487,507,527,546,568,588,607,628,647,666,687,707,727,747,767,786,807,827,847,867,887,907,926,948,967,987,1006,1027,1047,1066,1086,1108,1128,1147,1167,1186,1207,1227,1247,1266,1288,1308,1327,1348,1368,1388,1406,1426,1446,1466,1488,1508,1526,1547,1566,1588,1608,1626,1646,1668,1688,1708,1727,1746,1766,1786,1808,1828,1847,1867,1886,1907,1926,1946,1967,1987,2008,2026,2047,2067,2088,2107,2127,2146,2168,2187,2207],"xSR":741.5,"ySR":573.95,"xT1":424.9,"yT1":0,"xT2":1058.1,"yT2":0,"toosoon":0,"cond_shown":"equaldotanddens","ratio_trial":900,"smaller_num":"9","larger_num":"10","correct_side":1,"subjID":" NtaliaErazoYepes26","gender":"1","age":"11","school":"6"},{"start_time":1551900766047,"click_time":1551900767177,"finger_time":1551900766738,"fix_duration":1046.2104710284254,"trial":6,"RT":691,"MT":439,"sideResp":2,"stimulus":"img/900/equaldotsize/R/15_Ratio_900_L_9_R_10.png","xmouse":[789,789,789,789,789,789,789,789,789,789,789,789,789,789,789,789,789,789,789,789,789,789,789,789,789,789,789,789,793,794,797,802,822,837,851,873,883,924,965,982,995,1010,1034,1043,1053,1059,1069,1075,1091,1098,1104,1108,1112,1113,1114,1114,1114],"ymouse":[620,620,620,620,620,620,620,620,620,620,620,620,620,620,620,620,620,620,620,620,620,620,620,620,620,620,620,620,620,620,618,614,598,587,573,544,529,469,407,387,367,347,308,289,275,262,240,226,193,177,164,154,133,124,115,107,98],"timestamp_mouse":[10,36,52,70,92,111,131,152,172,192,211,230,251,272,290,311,332,351,370,392,412,432,450,470,490,512,530,550,570,590,611,630,652,670,691,710,730,750,771,791,811,831,852,870,891,910,931,951,971,990,1011,1031,1052,1070,1091,1110,1130],"xSR":741.5,"ySR":573.95,"xT1":424.9,"yT1":0,"xT2":1058.1,"yT2":0,"toosoon":0,"cond_shown":"equaldotsize","ratio_trial":900,"smaller_num":"9","larger_num":"10","correct_side":2,"subjID":" NtaliaErazoYepes26","gender":"1","age":"11","school":"6"},{"start_time":1551900768569,"click_time":1551900770477,"finger_time":1551900769357,"fix_duration":250,"trial":7,"RT":788,"MT":1120,"sideResp":1,"stimulus":"img/500/equaldotanddens/L/10_Ratio_500_L_4_R_2.png","xmouse":[795,795,795,795,795,795,795,795,795,795,795,795,795,795,795,795,795,795,795,795,795,795,795,795,795,795,795,795,795,795,795,795,795,795,795,795,795,795,795,791,777,760,717,700,689,682,678,668,663,659,654,650,644,640,634,627,620,604,600,598,594,593,589,587,584,581,575,573,573,573,573,573,573,573,573,571,570,559,555,553,553,552,552,552,551,550,549,549,549,549,549,548,540,534,525,512],"ymouse":[599,599,599,599,599,599,599,599,599,599,599,599,599,599,599,599,599,599,599,599,599,599,599,599,599,599,599,599,599,599,599,599,599,599,599,599,599,598,576,550,516,473,383,356,340,329,321,300,288,279,270,266,256,248,239,227,217,190,179,170,155,149,137,129,121,113,105,102,102,102,102,102,102,102,101,99,97,93,91,90,90,89,89,88,87,87,86,86,86,86,86,85,83,82,80,76],"timestamp_mouse":[9,34,49,69,90,109,128,149,169,189,208,229,248,268,289,310,329,350,368,389,410,429,450,470,488,510,529,550,569,588,608,629,649,669,688,709,728,748,769,788,808,828,848,869,889,909,929,948,968,988,1010,1029,1048,1069,1089,1109,1130,1149,1168,1189,1209,1229,1249,1268,1289,1309,1328,1348,1370,1389,1409,1428,1449,1470,1489,1509,1528,1548,1570,1589,1610,1629,1649,1668,1689,1708,1730,1749,1769,1788,1809,1828,1848,1870,1889,1908],"xSR":741.5,"ySR":573.95,"xT1":424.9,"yT1":0,"xT2":1058.1,"yT2":0,"toosoon":0,"cond_shown":"equaldotanddens","ratio_trial":500,"smaller_num":"2","larger_num":"4","correct_side":1,"subjID":" NtaliaErazoYepes26","gender":"1","age":"11","school":"6"},{"start_time":1551900773035,"click_time":1551900774339,"finger_time":1551900773717,"fix_duration":1497.4330040295772,"trial":8,"RT":682,"MT":622,"sideResp":2,"stimulus":"img/750/equaldotsize/R/15_Ratio_750_L_9_R_12.png","xmouse":[793,793,793,793,793,793,793,793,793,794,795,795,795,795,795,795,795,795,795,795,795,795,795,795,795,795,795,795,795,799,803,808,815,822,839,855,869,883,898,920,932,944,957,977,1040,1057,1071,1087,1101,1143,1162,1176,1191,1197,1216,1218,1218,1218,1218,1218,1218,1218,1217,1212,1166,1149],"ymouse":[602,602,602,602,602,602,602,602,602,602,602,602,602,602,602,602,602,602,602,602,602,602,602,602,602,602,602,602,602,601,599,596,590,582,558,523,491,458,430,381,355,328,301,266,189,174,161,149,139,118,109,104,98,92,79,75,73,71,71,71,71,71,71,70,61,56],"timestamp_mouse":[8,23,44,62,82,104,123,143,162,184,203,223,243,262,282,302,324,343,364,383,402,423,443,462,482,502,523,543,563,583,602,623,643,663,682,702,723,742,763,783,802,823,843,863,883,903,923,944,963,982,1003,1022,1043,1063,1083,1102,1123,1144,1163,1182,1203,1224,1242,1263,1283,1304],"xSR":741.5,"ySR":573.95,"xT1":424.9,"yT1":0,"xT2":1058.1,"yT2":0,"toosoon":0,"cond_shown":"equaldotsize","ratio_trial":750,"smaller_num":"9","larger_num":"12","correct_side":2,"subjID":" NtaliaErazoYepes26","gender":"1","age":"11","school":"6"},{"start_time":1551900776463,"click_time":1551900777658,"finger_time":1551900777218,"fix_duration":643.5779134204365,"trial":9,"RT":755,"MT":440,"sideResp":2,"stimulus":"img/750/equaldotanddens/R/11_Ratio_750_L_12_R_16.png","xmouse":[805,805,805,805,805,805,805,805,805,805,805,805,805,805,805,805,805,805,805,805,805,805,805,805,805,805,805,806,807,807,807,808,809,812,815,820,830,844,891,917,932,939,942,957,964,971,977,990,998,1006,1015,1019,1030,1043,1049,1059,1070,1075,1081,1082],"ymouse":[594,595,595,595,595,595,595,595,595,595,595,595,595,595,595,595,595,595,595,595,595,595,595,595,595,595,594,594,593,593,592,591,590,587,585,583,576,563,501,452,407,355,344,296,276,258,243,217,204,194,181,177,165,153,146,135,126,118,106,99],"timestamp_mouse":[14,34,55,76,95,114,135,155,175,195,215,235,255,275,294,315,335,355,375,394,416,435,455,474,494,516,535,556,574,596,614,635,656,675,694,715,735,755,774,796,815,834,855,874,895,916,936,955,974,995,1015,1035,1055,1076,1094,1114,1135,1155,1174,1195],"xSR":741.5,"ySR":573.95,"xT1":424.9,"yT1":0,"xT2":1058.1,"yT2":0,"toosoon":0,"cond_shown":"equaldotanddens","ratio_trial":750,"smaller_num":"12","larger_num":"16","correct_side":2,"subjID":" NtaliaErazoYepes26","gender":"1","age":"11","school":"6"},{"start_time":1551900779783,"click_time":1551900780798,"finger_time":1551900780338,"fix_duration":1063.5506193074145,"trial":10,"RT":555,"MT":460,"sideResp":2,"stimulus":"img/250/equaldotanddens/R/9_Ratio_250_L_3_R_12.png","xmouse":[787,787,787,787,787,787,787,787,787,787,787,787,787,787,787,787,787,787,787,787,787,787,787,787,790,800,810,828,840,853,866,880,915,972,1014,1035,1043,1045,1047,1047,1051,1055,1062,1065,1071,1074,1078,1093,1105,1127,1157],"ymouse":[599,599,599,599,599,599,599,599,599,599,599,599,599,599,599,599,599,599,599,599,599,599,599,599,600,597,590,569,553,536,518,498,457,397,349,321,306,298,295,292,285,279,263,254,243,234,226,200,180,135,85],"timestamp_mouse":[15,35,55,75,96,115,135,156,176,195,216,235,255,275,294,314,336,355,375,395,414,434,456,476,494,515,535,555,574,595,614,636,654,674,694,716,735,755,776,795,815,836,854,875,894,914,935,956,974,995,1014],"xSR":741.5,"ySR":573.95,"xT1":424.9,"yT1":0,"xT2":1058.1,"yT2":0,"toosoon":0,"cond_shown":"equaldotanddens","ratio_trial":250,"smaller_num":"3","larger_num":"12","correct_side":2,"subjID":" NtaliaErazoYepes26","gender":"1","age":"11","school":"6"},{"start_time":1551900783934,"click_time":1551900785197,"finger_time":1551900784557,"fix_duration":1474.8294604103307,"trial":11,"RT":623,"MT":640,"sideResp":1,"stimulus":"img/900/randomdotsizeEA/R/14_Ratio_900_L_18_R_20.png","xmouse":[796,796,796,796,797,797,797,797,797,797,797,797,797,797,797,797,797,797,797,797,797,797,797,797,797,797,797,798,798,798,796,783,774,769,765,761,745,738,727,717,710,699,696,693,681,672,658,657,657,657,655,641,625,600,582,572,566,565,562,557,547,510,488,477],"ymouse":[628,628,628,628,626,625,623,623,623,623,623,623,623,623,623,623,623,623,623,623,623,623,623,623,623,623,623,620,615,608,598,569,553,537,520,497,432,408,387,372,358,331,324,319,306,297,286,285,285,285,282,273,266,251,232,220,212,209,205,198,185,141,108,93],"timestamp_mouse":[8,23,47,65,85,105,125,145,163,185,205,224,244,263,285,304,323,344,364,384,403,424,444,465,485,505,523,543,565,584,603,623,644,663,684,703,723,744,764,784,805,824,845,864,883,904,924,944,964,984,1004,1023,1045,1063,1084,1104,1124,1144,1164,1184,1204,1223,1244,1263],"xSR":741.5,"ySR":573.95,"xT1":424.9,"yT1":0,"xT2":1058.1,"yT2":0,"toosoon":0,"cond_shown":"randomdotsizeEA","ratio_trial":900,"smaller_num":"18","larger_num":"20","correct_side":2,"subjID":" NtaliaErazoYepes26","gender":"1","age":"11","school":"6"},{"start_time":1551900786470,"click_time":1551900787778,"finger_time":1551900787358,"fix_duration":250,"trial":12,"RT":888,"MT":420,"sideResp":1,"stimulus":"img/500/randomdotsizeEA/L/11_Ratio_500_L_12_R_6.png","xmouse":[789,789,789,789,789,789,789,789,789,789,789,789,789,789,789,789,789,789,789,789,789,789,789,789,789,789,789,789,789,789,789,789,789,789,789,789,789,789,789,789,789,789,789,788,766,752,741,735,732,729,728,725,718,710,685,674,666,657,643,615,599,585,569,552,533,497],"ymouse":[606,606,606,606,606,606,606,606,606,606,606,606,606,606,606,606,606,606,606,606,606,606,606,606,606,606,606,606,606,606,606,606,606,606,606,606,606,606,606,606,606,601,599,593,550,527,509,498,493,486,483,471,455,434,388,366,350,333,310,262,240,216,187,154,118,69],"timestamp_mouse":[8,38,49,68,88,108,128,148,167,188,208,227,249,268,288,307,328,348,367,388,409,429,447,468,489,508,529,548,568,589,607,628,648,669,689,709,727,749,767,789,809,828,848,867,888,908,927,948,968,988,1007,1027,1048,1068,1087,1107,1128,1148,1168,1188,1207,1228,1248,1267,1288,1308],"xSR":741.5,"ySR":573.95,"xT1":424.9,"yT1":0,"xT2":1058.1,"yT2":0,"toosoon":0,"cond_shown":"randomdotsizeEA","ratio_trial":500,"smaller_num":"6","larger_num":"12","correct_side":1,"subjID":" NtaliaErazoYepes26","gender":"1","age":"11","school":"6"},{"start_time":1551900789228,"click_time":1551900790878,"finger_time":1551900789979,"fix_duration":369.33675359714437,"trial":13,"RT":751,"MT":899,"sideResp":2,"stimulus":"img/900/randomdotsizeEA/L/4_Ratio_900_L_20_R_18.png","xmouse":[817,817,817,817,817,817,817,817,817,817,817,817,817,817,817,817,817,817,817,817,817,817,817,817,817,817,817,817,817,817,817,817,817,819,821,824,830,842,845,845,846,848,848,848,848,848,848,848,849,853,855,859,859,859,859,859,859,859,859,859,859,859,859,859,859,859,860,861,861,862,863,876,888,901,916,931,941,973,985,996,1012,1048,1065],"ymouse":[597,597,597,597,597,597,597,597,597,597,597,597,597,597,597,597,597,597,597,597,597,597,597,597,597,597,597,597,597,597,597,597,597,597,596,592,588,566,553,546,540,533,531,531,531,531,531,531,530,526,523,519,519,519,519,519,519,519,519,519,519,519,519,519,519,519,517,513,510,507,503,485,473,460,445,427,409,344,317,292,259,101,39],"timestamp_mouse":[9,44,49,70,90,110,131,150,170,190,210,230,251,271,291,311,331,349,371,391,410,430,450,470,490,510,531,550,570,590,610,630,651,669,690,709,730,751,770,790,809,831,850,871,889,910,931,950,969,991,1010,1031,1050,1070,1091,1110,1131,1150,1170,1191,1210,1230,1251,1270,1290,1310,1331,1350,1370,1390,1410,1431,1450,1470,1490,1510,1530,1550,1570,1590,1610,1631,1650],"xSR":741.5,"ySR":573.95,"xT1":424.9,"yT1":0,"xT2":1058.1,"yT2":0,"toosoon":0,"cond_shown":"randomdotsizeEA","ratio_trial":900,"smaller_num":"18","larger_num":"20","correct_side":1,"subjID":" NtaliaErazoYepes26","gender":"1","age":"11","school":"6"},{"start_time":1551900793472,"click_time":1551900794898,"finger_time":1551900794178,"fix_duration":1292.2993811797464,"trial":14,"RT":706,"MT":720,"sideResp":1,"stimulus":"img/500/equaldotsize/L/10_Ratio_500_L_4_R_2.png","xmouse":[792,792,792,792,792,792,792,792,792,792,792,792,792,792,792,792,792,792,792,792,792,792,786,777,771,763,761,761,761,761,761,761,761,761,761,758,754,746,734,719,697,659,627,601,571,542,534,531,529,527,526,525,523,523,523,519,516,512,511,511,510,510,510,510,510,508,505,503,501,498,489,483],"ymouse":[633,633,633,633,633,633,633,633,633,633,633,633,633,633,633,633,633,633,633,633,633,628,615,603,593,585,583,583,583,583,583,583,583,582,580,571,566,557,545,533,510,468,424,379,337,298,286,279,271,265,256,253,249,249,249,231,222,212,205,198,182,171,164,156,149,141,138,136,134,131,114,97],"timestamp_mouse":[9,36,47,66,85,107,127,145,166,186,205,227,246,266,287,306,326,346,366,386,406,427,446,466,486,506,526,546,567,586,607,626,646,667,686,706,726,746,766,786,805,826,846,867,886,906,925,946,966,986,1006,1026,1046,1066,1086,1106,1125,1146,1166,1186,1205,1227,1246,1266,1286,1306,1327,1346,1366,1387,1405,1426],"xSR":741.5,"ySR":573.95,"xT1":424.9,"yT1":0,"xT2":1058.1,"yT2":0,"toosoon":0,"cond_shown":"equaldotsize","ratio_trial":500,"smaller_num":"2","larger_num":"4","correct_side":1,"subjID":" NtaliaErazoYepes26","gender":"1","age":"11","school":"6"},{"start_time":1551900796249,"click_time":1551900798118,"finger_time":1551900797238,"fix_duration":250,"trial":15,"RT":989,"MT":880,"sideResp":2,"stimulus":"img/750/equaldotsize/R/12_Ratio_750_L_3_R_4.png","xmouse":[785,785,785,785,785,785,785,785,785,785,785,785,785,785,785,785,785,785,785,785,785,785,785,785,785,785,785,785,785,785,785,785,785,785,785,785,785,785,785,785,785,785,785,785,785,785,785,785,785,787,790,806,810,817,822,829,837,856,868,879,890,931,952,977,1012,1042,1109,1143,1162,1180,1191,1198,1199,1200,1200,1200,1193,1189,1183,1174,1167,1158,1146,1143,1140,1140,1139,1136,1135,1134,1133,1132,1112,1104],"ymouse":[589,589,589,589,589,589,589,589,589,589,589,589,589,589,589,589,589,589,589,589,589,589,589,589,589,589,589,589,589,589,589,589,589,589,589,589,589,589,589,589,589,589,589,589,589,589,589,589,579,566,548,495,473,450,428,405,379,337,321,310,305,282,271,261,246,234,212,200,190,180,172,146,140,134,131,128,125,125,123,121,119,116,113,111,110,109,108,105,103,101,101,100,100,99],"timestamp_mouse":[10,33,48,69,89,109,129,149,169,189,209,229,249,269,289,308,330,349,368,389,408,429,448,470,489,509,529,549,569,589,610,630,649,668,690,710,730,749,769,789,810,829,850,869,889,910,929,948,969,989,1009,1029,1049,1069,1089,1109,1129,1148,1170,1189,1209,1229,1249,1269,1289,1309,1329,1349,1369,1389,1409,1429,1449,1469,1490,1509,1529,1548,1569,1589,1609,1629,1649,1668,1690,1709,1729,1748,1769,1788,1809,1829,1848,1869],"xSR":741.5,"ySR":573.95,"xT1":424.9,"yT1":0,"xT2":1058.1,"yT2":0,"toosoon":0,"cond_shown":"equaldotsize","ratio_trial":750,"smaller_num":"3","larger_num":"4","correct_side":2,"subjID":" NtaliaErazoYepes26","gender":"1","age":"11","school":"6"},{"start_time":1551900800980,"click_time":1551900802238,"finger_time":1551900801758,"fix_duration":1300.488538196515,"trial":16,"RT":778,"MT":480,"sideResp":2,"stimulus":"img/900/equaldotsize/R/11_Ratio_900_L_18_R_20.png","xmouse":[769,769,769,769,769,769,769,769,769,769,769,769,769,769,769,769,769,769,769,769,769,769,769,769,769,769,769,769,769,769,769,769,769,769,768,768,769,772,768,757,745,735,722,708,708,718,755,823,913,1013,1245,1363,1433,1434,1422,1406,1396,1386,1377,1353,1253,1207,1151],"ymouse":[648,648,648,648,648,648,648,648,648,648,648,648,648,648,648,648,648,648,648,648,648,648,648,648,648,648,648,648,648,648,648,648,648,648,649,628,599,577,559,546,521,496,459,426,424,423,425,437,463,491,505,500,467,447,401,352,339,324,306,271,165,120,56],"timestamp_mouse":[18,39,58,78,97,118,138,158,179,197,218,238,259,278,298,319,337,358,379,398,418,438,458,477,498,518,538,558,578,598,618,638,659,678,697,718,737,758,778,798,818,838,857,878,898,919,938,958,978,998,1018,1038,1057,1079,1098,1118,1138,1158,1178,1197,1217,1238,1258],"xSR":741.5,"ySR":573.95,"xT1":424.9,"yT1":0,"xT2":1058.1,"yT2":0,"toosoon":0,"cond_shown":"equaldotsize","ratio_trial":900,"smaller_num":"18","larger_num":"20","correct_side":2,"subjID":" NtaliaErazoYepes26","gender":"1","age":"11","school":"6"},{"start_time":1551900811956,"click_time":1551900813798,"finger_time":1551900813018,"fix_duration":1336.0759369045788,"trial":17,"RT":1062,"MT":780,"sideResp":1,"stimulus":"img/900/randomdotsizeEA/R/15_Ratio_900_L_9_R_10.png","xmouse":[761,761,761,761,761,761,761,761,761,761,761,761,761,761,761,761,761,761,761,761,761,761,761,761,761,761,761,761,761,761,761,761,761,761,761,761,761,761,761,761,761,761,761,761,761,761,761,761,761,760,759,759,756,740,731,721,711,702,682,680,676,673,670,664,660,656,651,645,632,626,622,620,620,620,620,620,620,620,620,620,620,620,620,620,616,608,596,585,559,545,535,524,517],"ymouse":[606,606,606,606,606,606,606,606,606,606,606,606,606,606,606,606,606,606,606,606,606,606,606,606,606,606,606,606,606,606,606,606,605,605,605,605,605,605,605,605,605,605,605,605,605,605,605,605,605,604,600,598,585,533,510,486,463,445,407,402,395,390,387,379,375,370,366,357,342,335,329,328,326,326,326,326,326,325,324,316,314,313,313,313,302,282,255,234,172,140,122,107,96],"timestamp_mouse":[10,22,44,63,83,102,122,142,163,183,203,222,242,263,283,302,322,342,362,382,402,422,442,461,483,503,521,543,562,582,603,622,642,663,682,703,723,742,761,782,801,822,842,862,883,902,922,943,962,982,1002,1022,1042,1062,1081,1102,1122,1142,1162,1182,1202,1222,1242,1262,1282,1302,1322,1342,1362,1382,1402,1423,1442,1462,1482,1502,1523,1542,1562,1583,1602,1623,1642,1662,1681,1702,1722,1743,1762,1782,1802,1822,1842],"xSR":741.5,"ySR":573.95,"xT1":424.9,"yT1":0,"xT2":1058.1,"yT2":0,"toosoon":0,"cond_shown":"randomdotsizeEA","ratio_trial":900,"smaller_num":"9","larger_num":"10","correct_side":2,"subjID":" NtaliaErazoYepes26","gender":"1","age":"11","school":"6"},{"start_time":1551900815502,"click_time":1551900816579,"finger_time":1551900816298,"fix_duration":663.7212545846238,"trial":18,"RT":796,"MT":281,"sideResp":2,"stimulus":"img/500/equaldotanddens/R/9_Ratio_500_L_2_R_4.png","xmouse":[826,826,826,826,826,826,826,826,826,826,826,826,826,826,826,826,826,826,826,826,826,826,826,826,826,826,826,826,826,826,826,826,826,826,826,826,826,826,833,850,876,891,907,923,944,962,980,991,1005,1023,1051,1076,1086,1094],"ymouse":[628,628,628,628,628,628,628,628,628,628,628,628,628,628,628,628,628,628,628,628,628,628,628,628,628,628,628,628,628,628,628,628,628,628,628,628,618,613,601,576,538,507,460,406,350,314,279,258,234,202,161,124,110,97],"timestamp_mouse":[17,36,56,76,96,116,136,157,175,196,216,236,257,276,297,317,337,357,377,396,417,436,457,476,496,516,536,556,576,596,617,636,656,676,696,716,736,755,776,796,817,836,856,876,896,916,936,956,976,996,1016,1036,1056,1077],"xSR":741.5,"ySR":573.95,"xT1":424.9,"yT1":0,"xT2":1058.1,"yT2":0,"toosoon":0,"cond_shown":"equaldotanddens","ratio_trial":500,"smaller_num":"2","larger_num":"4","correct_side":2,"subjID":" NtaliaErazoYepes26","gender":"1","age":"11","school":"6"},{"start_time":1551900817871,"click_time":1551900819738,"finger_time":1551900818558,"fix_duration":250,"trial":19,"RT":687,"MT":1180,"sideResp":1,"stimulus":"img/750/equaldotsize/L/1_Ratio_750_L_20_R_15.png","xmouse":[799,799,799,799,799,799,799,799,799,799,799,799,799,799,799,799,799,799,799,799,799,799,799,799,799,799,799,799,799,799,799,799,797,787,778,767,753,734,727,721,711,703,693,671,663,657,649,639,624,621,617,612,611,606,602,599,597,593,590,589,588,588,588,587,587,587,587,584,566,559,558,554,554,554,554,554,552,552,550,548,543,539,537,536,536,536,535,535,535,534,534,532,528,509],"ymouse":[599,599,599,599,599,599,599,599,599,599,599,599,599,599,599,599,599,599,599,599,599,599,599,599,599,599,599,599,599,599,599,599,599,581,556,534,510,472,459,447,432,421,410,381,372,364,353,340,320,315,308,302,296,280,267,253,241,228,214,206,201,198,197,195,195,195,195,191,166,150,148,141,141,141,141,140,138,136,125,116,100,90,79,67,65,64,62,62,60,60,59,59,57,56],"timestamp_mouse":[8,43,48,68,86,107,127,147,167,188,208,228,247,267,287,307,328,348,367,388,408,427,448,468,486,508,527,548,567,587,607,626,647,667,687,707,727,748,767,787,807,827,847,867,887,908,927,948,967,987,1007,1028,1047,1067,1087,1107,1127,1148,1167,1187,1207,1228,1247,1267,1287,1307,1327,1347,1366,1386,1407,1428,1448,1467,1487,1507,1527,1547,1567,1587,1607,1627,1647,1667,1687,1707,1727,1748,1767,1788,1806,1827,1847,1867],"xSR":741.5,"ySR":573.95,"xT1":424.9,"yT1":0,"xT2":1058.1,"yT2":0,"toosoon":0,"cond_shown":"equaldotsize","ratio_trial":750,"smaller_num":"15","larger_num":"20","correct_side":1,"subjID":" NtaliaErazoYepes26","gender":"1","age":"11","school":"6"},{"start_time":1551900822454,"click_time":1551900824378,"finger_time":1551900823338,"fix_duration":273.5421307214444,"trial":20,"RT":884,"MT":1040,"sideResp":2,"stimulus":"img/750/equaldotanddens/R/5_Ratio_750_L_15_R_20.png","xmouse":[806,806,806,806,806,806,806,806,806,806,806,806,806,806,806,806,806,806,806,806,806,806,806,806,806,806,806,806,806,806,806,806,806,806,806,806,806,806,806,806,806,806,808,809,833,850,874,898,921,993,1046,1119,1199,1271,1389,1432,1456,1462,1462,1463,1469,1469,1469,1468,1451,1427,1405,1382,1350,1331,1325,1315,1304,1291,1273,1272,1271,1270,1258,1232,1220,1211,1199,1188,1168,1165,1164,1164,1164,1164,1164,1164,1164,1164,1163,1161,1158],"ymouse":[592,592,592,592,592,592,592,592,592,592,592,592,592,592,592,592,592,592,592,592,592,592,592,592,592,592,592,592,592,592,592,592,592,592,592,592,592,592,592,592,592,592,589,584,551,532,511,489,466,344,253,142,29,0,0,0,0,0,0,0,0,0,0,0,0,0,0,0,0,1,4,8,11,15,18,18,18,19,25,31,32,34,37,39,42,42,43,43,43,43,43,43,43,43,43,43,43],"timestamp_mouse":[9,38,44,65,84,104,124,145,165,184,205,225,244,265,285,304,325,344,365,384,404,425,445,464,485,503,525,545,563,584,604,624,644,665,684,705,724,744,764,784,805,825,844,864,884,904,923,945,964,984,1005,1024,1045,1064,1084,1105,1124,1144,1164,1184,1204,1224,1244,1264,1284,1304,1325,1345,1364,1385,1403,1424,1444,1464,1485,1505,1524,1544,1564,1584,1604,1623,1645,1664,1686,1704,1724,1745,1765,1785,1804,1824,1845,1863,1885,1904,1924],"xSR":741.5,"ySR":573.95,"xT1":424.9,"yT1":0,"xT2":1058.1,"yT2":0,"toosoon":0,"cond_shown":"equaldotanddens","ratio_trial":750,"smaller_num":"15","larger_num":"20","correct_side":2,"subjID":" NtaliaErazoYepes26","gender":"1","age":"11","school":"6"},{"start_time":1551900827629,"click_time":1551900828859,"finger_time":1551900828338,"fix_duration":250,"trial":21,"RT":709,"MT":521,"sideResp":2,"stimulus":"img/750/equaldotanddens/R/15_Ratio_750_L_9_R_12.png","xmouse":[789,789,789,789,789,789,789,789,789,789,789,789,789,789,789,789,789,789,789,789,789,790,790,790,790,790,790,790,790,790,790,790,793,801,811,820,852,869,889,907,922,958,980,999,1013,1026,1042,1059,1069,1076,1081,1086,1087,1087,1087,1087,1088,1089,1089,1089,1089,1089],"ymouse":[634,634,634,634,634,634,634,634,634,634,634,634,634,634,634,634,634,634,634,634,634,634,634,634,634,634,634,634,634,633,631,626,617,602,583,565,506,474,432,396,361,285,243,211,190,173,151,140,134,128,123,117,115,114,113,112,107,105,104,102,100,99],"timestamp_mouse":[9,41,50,70,90,109,129,148,169,190,209,230,249,270,288,309,329,349,370,389,409,429,450,469,489,509,528,549,570,589,609,629,649,669,689,709,729,749,769,789,810,829,850,869,889,909,929,949,969,990,1009,1029,1049,1070,1089,1110,1129,1149,1168,1189,1208,1230],"xSR":741.5,"ySR":573.95,"xT1":424.9,"yT1":0,"xT2":1058.1,"yT2":0,"toosoon":0,"cond_shown":"equaldotanddens","ratio_trial":750,"smaller_num":"9","larger_num":"12","correct_side":2,"subjID":" NtaliaErazoYepes26","gender":"1","age":"11","school":"6"},{"start_time":1551900830049,"click_time":1551900831838,"finger_time":1551900830898,"fix_duration":250,"trial":22,"RT":849,"MT":940,"sideResp":2,"stimulus":"img/250/randomdotsizeEA/R/4_Ratio_250_L_3_R_12.png","xmouse":[778,778,778,778,778,778,778,778,778,778,778,778,778,778,778,778,778,778,778,778,778,778,778,778,778,778,778,778,778,778,778,778,778,778,779,780,781,783,787,793,809,819,829,836,848,871,885,904,928,966,1048,1086,1116,1138,1152,1182,1190,1197,1200,1202,1204,1204,1204,1204,1202,1197,1194,1192,1189,1186,1179,1178,1177,1175,1172,1146,1135,1127,1126,1125,1125,1123,1123,1123,1122,1118,1117,1115,1115,1114],"ymouse":[633,633,633,633,633,633,633,633,633,633,633,633,633,633,633,633,633,633,633,633,633,633,633,633,633,633,633,633,633,633,632,630,629,628,626,624,623,620,615,608,589,576,563,551,530,494,475,450,421,389,331,308,287,271,259,230,219,210,204,199,189,186,181,176,169,151,145,141,136,134,131,131,131,131,129,121,116,113,112,112,112,111,111,110,110,106,105,104,101,98],"timestamp_mouse":[9,39,49,70,88,109,128,149,169,189,209,229,249,269,289,308,329,349,370,388,409,429,448,469,489,509,529,549,570,589,610,629,649,669,689,709,728,749,769,789,809,829,849,868,889,909,929,949,969,989,1009,1029,1049,1069,1089,1109,1130,1149,1170,1189,1209,1229,1249,1269,1290,1309,1329,1349,1369,1389,1409,1430,1448,1469,1489,1509,1528,1550,1570,1590,1609,1629,1649,1669,1689,1709,1728,1749,1769,1789],"xSR":741.5,"ySR":573.95,"xT1":424.9,"yT1":0,"xT2":1058.1,"yT2":0,"toosoon":0,"cond_shown":"randomdotsizeEA","ratio_trial":250,"smaller_num":"3","larger_num":"12","correct_side":2,"subjID":" NtaliaErazoYepes26","gender":"1","age":"11","school":"6"},{"start_time":1551900833244,"click_time":1551900834539,"finger_time":1551900834058,"fix_duration":305.3155051001455,"trial":23,"RT":814,"MT":481,"sideResp":1,"stimulus":"img/750/randomdotsizeEA/L/9_Ratio_750_L_4_R_3.png","xmouse":[789,789,789,789,789,789,789,789,789,789,789,789,789,789,789,789,789,789,789,789,789,789,789,789,789,789,789,789,789,789,789,789,789,789,789,789,789,789,789,784,780,762,751,736,717,673,656,643,630,619,608,590,579,569,554,545,539,537,535,534,534,534,532,531,520],"ymouse":[597,597,597,597,597,597,597,597,597,597,597,597,597,597,597,597,597,597,597,597,597,597,597,597,597,597,597,597,597,597,597,597,597,597,597,597,597,597,597,585,573,515,477,435,364,257,219,188,159,132,110,80,65,53,35,25,18,16,15,15,15,15,15,15,17],"timestamp_mouse":[14,43,55,75,94,114,134,154,173,195,215,234,254,275,295,314,334,355,375,395,414,435,453,474,494,514,535,555,574,594,614,634,655,673,694,714,733,755,774,794,814,833,854,874,894,915,934,954,975,994,1014,1034,1053,1074,1095,1114,1134,1154,1174,1195,1213,1233,1255,1274,1295],"xSR":741.5,"ySR":573.95,"xT1":424.9,"yT1":0,"xT2":1058.1,"yT2":0,"toosoon":0,"cond_shown":"randomdotsizeEA","ratio_trial":750,"smaller_num":"3","larger_num":"4","correct_side":1,"subjID":" NtaliaErazoYepes26","gender":"1","age":"11","school":"6"},{"start_time":1551900835890,"click_time":1551900836798,"finger_time":1551900836558,"fix_duration":250,"trial":24,"RT":668,"MT":240,"sideResp":1,"stimulus":"img/250/randomdotsizeEA/L/15_Ratio_250_L_12_R_3.png","xmouse":[814,814,814,814,814,814,814,814,814,814,814,814,814,814,814,814,814,814,814,814,814,814,814,814,814,814,814,814,814,814,814,812,806,796,748,713,674,641,600,587,578,566,558,547,526,517],"ymouse":[627,627,627,627,627,627,627,627,627,627,627,627,627,627,627,627,627,627,627,627,627,627,627,627,627,627,626,624,623,615,609,597,580,556,435,342,253,192,138,121,109,91,76,61,33,22],"timestamp_mouse":[9,39,48,69,89,108,128,149,168,189,209,227,249,268,289,308,329,348,368,389,409,428,449,467,488,508,528,549,568,587,609,628,647,668,688,709,728,748,769,788,808,828,848,869,888,908],"xSR":741.5,"ySR":573.95,"xT1":424.9,"yT1":0,"xT2":1058.1,"yT2":0,"toosoon":0,"cond_shown":"randomdotsizeEA","ratio_trial":250,"smaller_num":"3","larger_num":"12","correct_side":1,"subjID":" NtaliaErazoYepes26","gender":"1","age":"11","school":"6"},{"start_time":1551900843751,"click_time":1551900845198,"finger_time":1551900844558,"fix_duration":250,"trial":25,"RT":807,"MT":640,"sideResp":1,"stimulus":"img/900/equaldotsize/L/10_Ratio_900_L_20_R_18.png","xmouse":[778,778,778,778,778,778,778,778,778,778,778,778,778,778,778,778,778,778,778,778,778,778,778,778,778,778,778,778,778,778,778,778,778,778,778,778,778,776,773,767,757,747,725,709,687,658,648,633,624,618,611,606,591,581,566,558,549,526,518,512,505,499,492,488,487,485,483,478,477,475,474,472,470],"ymouse":[605,605,605,605,605,605,605,605,605,605,605,605,605,605,605,605,605,605,605,605,605,605,605,605,605,605,605,605,605,605,605,605,605,605,605,603,601,596,590,579,564,551,522,504,486,461,453,434,422,412,400,387,354,330,294,274,254,215,202,192,178,168,150,144,144,141,137,125,121,114,108,103,94],"timestamp_mouse":[8,44,46,67,87,108,127,148,168,187,207,227,247,267,287,308,328,347,368,386,408,427,447,467,487,508,526,547,568,587,606,627,647,667,688,707,727,747,767,788,807,828,847,867,887,908,927,947,967,987,1007,1027,1046,1066,1086,1107,1127,1147,1167,1187,1207,1227,1247,1267,1287,1307,1327,1347,1368,1387,1407,1427,1447],"xSR":741.5,"ySR":573.95,"xT1":424.9,"yT1":0,"xT2":1058.1,"yT2":0,"toosoon":0,"cond_shown":"equaldotsize","ratio_trial":900,"smaller_num":"18","larger_num":"20","correct_side":1,"subjID":" NtaliaErazoYepes26","gender":"1","age":"11","school":"6"},{"start_time":1551900848890,"click_time":1551900850238,"finger_time":1551900849598,"fix_duration":1171.5342124894776,"trial":26,"RT":708,"MT":640,"sideResp":1,"stimulus":"img/750/randomdotsizeEA/L/14_Ratio_750_L_8_R_6.png","xmouse":[764,764,764,764,764,764,764,764,764,764,764,764,764,764,764,764,764,764,764,764,764,764,764,764,764,764,764,764,764,764,764,764,763,756,750,730,707,699,692,684,677,668,666,664,661,650,643,636,629,619,581,557,548,539,531,517,516,514,512,511,509,507,504,504,501,494,490,486],"ymouse":[624,624,624,624,624,624,624,624,624,624,624,624,624,624,624,624,624,624,624,624,624,624,624,624,624,624,624,624,624,624,624,620,613,596,581,541,507,491,479,465,452,435,428,423,418,401,389,377,364,351,306,277,264,255,243,217,212,204,199,194,189,179,172,162,151,116,103,94],"timestamp_mouse":[11,40,49,69,88,108,129,148,168,189,209,229,249,268,288,308,328,348,369,388,408,429,449,468,488,509,529,548,569,587,609,628,648,668,689,708,728,748,767,788,809,828,848,868,888,908,929,948,968,988,1008,1028,1048,1068,1088,1108,1128,1148,1169,1188,1209,1228,1248,1268,1287,1308,1328,1348],"xSR":741.5,"ySR":573.95,"xT1":424.9,"yT1":0,"xT2":1058.1,"yT2":0,"toosoon":0,"cond_shown":"randomdotsizeEA","ratio_trial":750,"smaller_num":"6","larger_num":"8","correct_side":1,"subjID":" NtaliaErazoYepes26","gender":"1","age":"11","school":"6"},{"start_time":1551900851650,"click_time":1551900852998,"finger_time":1551900852379,"fix_duration":390.6786646691662,"trial":27,"RT":729,"MT":619,"sideResp":2,"stimulus":"img/250/equaldotanddens/R/12_Ratio_250_L_5_R_20.png","xmouse":[779,779,779,779,779,779,779,779,779,779,779,779,779,779,779,779,771,771,771,771,771,771,771,771,771,771,771,771,771,771,771,771,771,771,774,778,788,793,798,800,807,818,850,862,871,878,894,908,941,956,969,980,989,1007,1014,1021,1026,1028,1030,1031,1034,1038,1044,1052,1054,1055,1057,1061],"ymouse":[596,596,596,596,596,596,596,596,596,596,596,596,596,596,597,598,601,601,601,601,601,601,601,601,601,601,601,601,601,601,601,601,601,601,592,585,572,564,543,530,512,489,442,420,398,374,335,309,267,253,240,228,212,177,165,151,136,127,110,105,99,93,85,76,74,74,74,72],"timestamp_mouse":[9,41,48,69,88,108,130,148,168,188,209,229,249,268,288,308,328,349,368,389,409,429,448,468,489,509,529,549,568,589,609,629,648,669,688,708,729,749,769,788,808,828,849,868,889,908,928,948,969,988,1008,1028,1048,1068,1088,1108,1129,1148,1169,1188,1208,1228,1248,1268,1289,1308,1329,1348],"xSR":741.5,"ySR":573.95,"xT1":424.9,"yT1":0,"xT2":1058.1,"yT2":0,"toosoon":0,"cond_shown":"equaldotanddens","ratio_trial":250,"smaller_num":"5","larger_num":"20","correct_side":2,"subjID":" NtaliaErazoYepes26","gender":"1","age":"11","school":"6"},{"start_time":1551900854932,"click_time":1551900856118,"finger_time":1551900855460,"fix_duration":732.300277090743,"trial":28,"RT":528,"MT":658,"sideResp":1,"stimulus":"img/900/equaldotsize/L/10_Ratio_900_L_20_R_18.png","xmouse":[819,819,819,819,819,819,819,819,819,819,819,819,819,819,819,819,819,819,819,819,819,817,814,809,794,783,772,761,753,730,719,708,700,693,677,668,659,652,642,622,609,600,591,583,567,561,555,551,547,541,537,533,531,528,524,523,521,520,519,515],"ymouse":[612,612,612,612,612,612,612,612,612,612,612,612,612,612,612,612,612,612,612,612,612,612,609,603,590,582,572,561,550,521,506,481,463,446,406,385,365,341,317,269,241,227,211,198,171,163,155,149,145,137,133,130,127,123,115,111,108,104,100,91],"timestamp_mouse":[19,34,46,67,86,106,127,147,166,187,206,227,247,266,287,306,327,346,366,386,407,426,447,466,486,506,528,546,567,586,606,626,646,666,686,707,726,746,766,786,806,826,846,867,886,906,926,946,967,987,1006,1026,1047,1066,1086,1106,1126,1146,1166,1186],"xSR":741.5,"ySR":573.95,"xT1":424.9,"yT1":0,"xT2":1058.1,"yT2":0,"toosoon":0,"cond_shown":"equaldotsize","ratio_trial":900,"smaller_num":"18","larger_num":"20","correct_side":1,"subjID":" NtaliaErazoYepes26","gender":"1","age":"11","school":"6"},{"start_time":1551900858461,"click_time":1551900859298,"finger_time":1551900858958,"fix_duration":1262.1125419570512,"trial":29,"RT":497,"MT":340,"sideResp":1,"stimulus":"img/900/equaldotanddens/L/10_Ratio_900_L_20_R_18.png","xmouse":[800,800,800,800,800,800,800,800,800,800,800,800,800,800,800,800,800,800,800,800,800,799,796,793,785,776,766,739,725,709,692,679,657,643,633,623,613,578,557,538,523,508],"ymouse":[592,592,592,592,592,592,592,592,592,592,592,592,592,592,592,592,592,592,592,592,592,591,585,580,569,560,545,504,481,458,434,412,369,334,311,286,262,195,158,131,109,87],"timestamp_mouse":[17,48,57,78,98,118,138,157,177,197,217,238,257,277,297,317,337,358,377,397,417,438,457,478,497,517,537,557,578,598,618,637,657,677,697,717,737,757,777,797,818,837],"xSR":741.5,"ySR":573.95,"xT1":424.9,"yT1":0,"xT2":1058.1,"yT2":0,"toosoon":0,"cond_shown":"equaldotanddens","ratio_trial":900,"smaller_num":"18","larger_num":"20","correct_side":1,"subjID":" NtaliaErazoYepes26","gender":"1","age":"11","school":"6"},{"start_time":1551900861332,"click_time":1551900862578,"finger_time":1551900861939,"fix_duration":771.9408554046886,"trial":30,"RT":607,"MT":639,"sideResp":2,"stimulus":"img/500/equaldotsize/R/6_Ratio_500_L_9_R_18.png","xmouse":[799,799,799,799,799,799,799,799,799,799,799,799,799,799,799,799,799,799,799,799,799,799,799,799,799,799,799,799,805,813,835,846,857,863,863,870,897,914,930,942,959,970,978,985,993,1002,1005,1006,1006,1008,1017,1021,1026,1035,1043,1052,1052,1052,1052,1052,1054,1058,1063],"ymouse":[603,603,603,603,603,603,603,603,603,603,603,603,603,603,603,603,603,603,601,601,601,601,601,601,601,601,601,600,593,586,554,518,455,372,291,179,136,113,92,76,51,41,36,35,35,35,35,35,35,35,34,34,33,33,33,33,33,33,33,33,33,33,33],"timestamp_mouse":[10,34,46,67,86,117,126,146,167,187,207,227,247,267,286,307,326,346,367,387,406,426,447,466,487,507,526,546,566,586,607,626,647,666,686,706,726,746,767,786,806,827,846,866,886,906,926,946,966,986,1006,1026,1046,1067,1086,1106,1126,1146,1166,1187,1206,1227,1246],"xSR":741.5,"ySR":573.95,"xT1":424.9,"yT1":0,"xT2":1058.1,"yT2":0,"toosoon":0,"cond_shown":"equaldotsize","ratio_trial":500,"smaller_num":"9","larger_num":"18","correct_side":2,"subjID":" NtaliaErazoYepes26","gender":"1","age":"11","school":"6"},{"start_time":1551900864690,"click_time":1551900866039,"finger_time":1551900865298,"fix_duration":851.0981390241907,"trial":31,"RT":608,"MT":741,"sideResp":1,"stimulus":"img/750/randomdotsizeEA/L/9_Ratio_750_L_4_R_3.png","xmouse":[801,801,801,801,801,801,801,801,801,801,801,801,801,801,801,801,801,801,801,801,801,801,801,801,801,801,801,802,801,794,787,778,761,756,753,750,742,726,711,703,696,691,675,663,650,642,635,630,609,596,585,571,544,532,524,520,519,512,508,503,501,500,498,495,492,488,486,481],"ymouse":[597,597,597,597,597,597,597,597,597,597,597,597,597,597,597,597,597,597,597,597,597,597,597,597,597,597,597,595,589,578,569,557,532,525,522,516,505,484,464,454,444,437,412,393,375,363,348,333,285,263,245,221,178,161,150,145,144,139,134,130,128,127,126,122,116,110,103,86],"timestamp_mouse":[9,39,48,69,88,109,129,148,168,188,210,229,248,269,289,308,329,349,369,388,408,428,449,469,488,508,529,548,568,588,608,628,648,669,689,708,729,748,768,788,808,828,848,868,888,908,928,948,968,989,1008,1028,1048,1069,1088,1108,1129,1148,1169,1189,1209,1229,1248,1269,1288,1308,1328,1349],"xSR":741.5,"ySR":573.95,"xT1":424.9,"yT1":0,"xT2":1058.1,"yT2":0,"toosoon":0,"cond_shown":"randomdotsizeEA","ratio_trial":750,"smaller_num":"3","larger_num":"4","correct_side":1,"subjID":" NtaliaErazoYepes26","gender":"1","age":"11","school":"6"},{"start_time":1551900867311,"click_time":1551900868558,"finger_time":1551900867958,"fix_duration":250,"trial":32,"RT":647,"MT":600,"sideResp":1,"stimulus":"img/900/equaldotanddens/L/8_Ratio_900_L_20_R_18.png","xmouse":[814,814,814,814,814,814,814,814,814,814,814,814,814,814,814,814,814,814,814,814,814,814,814,814,814,814,814,813,805,795,788,786,777,770,763,752,732,720,709,699,688,680,660,649,635,618,595,593,587,581,576,570,569,567,565,564,561,548,541,538,533,523,518],"ymouse":[597,597,597,597,597,598,598,598,598,598,598,598,598,598,598,598,598,598,598,598,598,598,598,598,598,598,598,599,594,585,578,575,560,548,536,510,465,442,424,409,396,385,358,344,326,303,270,261,248,235,222,206,197,190,184,180,172,145,131,123,116,102,96],"timestamp_mouse":[11,28,48,68,87,107,128,147,168,187,207,228,247,268,287,307,328,348,368,387,408,427,448,468,488,508,527,547,567,588,608,627,647,668,687,709,728,747,767,787,807,827,847,867,887,907,927,947,967,988,1008,1028,1047,1067,1087,1107,1127,1147,1167,1188,1207,1228,1247],"xSR":741.5,"ySR":573.95,"xT1":424.9,"yT1":0,"xT2":1058.1,"yT2":0,"toosoon":0,"cond_shown":"equaldotanddens","ratio_trial":900,"smaller_num":"18","larger_num":"20","correct_side":1,"subjID":" NtaliaErazoYepes26","gender":"1","age":"11","school":"6"},{"start_time":1551900871202,"click_time":1551900872278,"finger_time":1551900871798,"fix_duration":1343.8690410756315,"trial":33,"RT":596,"MT":480,"sideResp":2,"stimulus":"img/250/equaldotanddens/R/11_Ratio_250_L_3_R_12.png","xmouse":[798,798,798,798,798,798,798,798,798,798,798,798,798,798,798,798,798,798,798,798,798,798,798,798,798,798,798,801,805,814,825,838,866,883,900,913,924,943,953,962,970,977,993,1002,1011,1020,1029,1057,1063,1067,1067,1067,1071,1073],"ymouse":[600,600,600,600,600,600,600,600,600,600,600,600,600,600,600,600,600,600,600,600,600,600,600,600,600,600,600,597,586,573,557,543,508,488,468,449,431,398,381,362,348,334,305,287,270,251,231,179,162,143,128,118,103,98],"timestamp_mouse":[17,51,56,76,96,116,136,158,176,196,217,236,256,277,297,316,337,356,376,396,416,437,457,476,496,516,537,556,576,596,617,636,656,677,696,717,737,756,776,796,816,837,856,876,896,916,936,956,977,996,1016,1036,1056,1076],"xSR":741.5,"ySR":573.95,"xT1":424.9,"yT1":0,"xT2":1058.1,"yT2":0,"toosoon":0,"cond_shown":"equaldotanddens","ratio_trial":250,"smaller_num":"3","larger_num":"12","correct_side":2,"subjID":" NtaliaErazoYepes26","gender":"1","age":"11","school":"6"},{"start_time":1551900873848,"click_time":1551900874919,"finger_time":1551900874438,"fix_duration":387.7315017870032,"trial":34,"RT":590,"MT":481,"sideResp":2,"stimulus":"img/500/equaldotanddens/R/6_Ratio_500_L_9_R_18.png","xmouse":[766,766,766,766,766,766,766,766,766,766,766,766,766,766,766,766,766,766,769,771,771,771,771,771,771,773,781,790,800,809,829,837,848,865,887,929,952,966,981,998,1030,1044,1055,1064,1067,1069,1070,1071,1073,1074,1076,1076,1076,1076],"ymouse":[632,632,632,632,632,632,632,632,632,632,632,632,632,632,632,632,633,634,635,635,635,635,635,635,635,629,612,596,577,563,531,509,484,452,419,360,328,307,285,263,217,198,187,176,173,167,160,156,149,143,128,117,106,98],"timestamp_mouse":[12,42,50,70,90,111,131,150,171,190,210,230,250,270,290,310,331,350,370,391,411,431,451,470,490,510,531,550,570,590,610,630,650,670,691,710,731,750,771,790,810,829,850,870,890,910,930,950,971,990,1010,1030,1050,1070],"xSR":741.5,"ySR":573.95,"xT1":424.9,"yT1":0,"xT2":1058.1,"yT2":0,"toosoon":0,"cond_shown":"equaldotanddens","ratio_trial":500,"smaller_num":"9","larger_num":"18","correct_side":2,"subjID":" NtaliaErazoYepes26","gender":"1","age":"11","school":"6"},{"start_time":1551900877457,"click_time":1551900878538,"finger_time":1551900878158,"fix_duration":898.5084133561235,"trial":35,"RT":701,"MT":380,"sideResp":2,"stimulus":"img/250/randomdotsizeEA/R/12_Ratio_250_L_5_R_20.png","xmouse":[821,821,821,821,821,821,821,821,821,821,821,821,821,821,821,821,821,821,821,821,821,821,821,821,821,821,821,821,821,821,821,819,818,818,818,823,834,844,859,884,945,970,990,1007,1028,1040,1068,1082,1093,1102,1109,1114,1115,1118,1120],"ymouse":[606,606,606,606,606,606,606,606,606,606,606,606,606,606,606,606,606,606,606,606,606,606,606,606,606,606,606,606,606,606,606,604,597,590,579,559,527,506,481,445,361,326,298,272,240,219,181,164,151,140,130,119,113,105,95],"timestamp_mouse":[8,21,41,62,81,101,122,142,162,181,202,222,241,262,281,301,322,341,362,381,403,421,442,461,482,501,521,542,561,581,601,621,642,661,682,701,721,741,761,781,801,821,842,861,881,901,922,941,962,981,1001,1021,1042,1062,1081],"xSR":741.5,"ySR":573.95,"xT1":424.9,"yT1":0,"xT2":1058.1,"yT2":0,"toosoon":0,"cond_shown":"randomdotsizeEA","ratio_trial":250,"smaller_num":"5","larger_num":"20","correct_side":2,"subjID":" NtaliaErazoYepes26","gender":"1","age":"11","school":"6"},{"start_time":1551900879910,"click_time":1551900881098,"finger_time":1551900880578,"fix_duration":250,"trial":36,"RT":668,"MT":520,"sideResp":1,"stimulus":"img/900/randomdotsizeEA/L/4_Ratio_900_L_20_R_18.png","xmouse":[758,758,758,758,758,758,758,758,758,758,758,758,758,758,758,758,758,758,758,758,758,758,758,758,758,758,758,758,758,758,758,756,753,741,735,732,731,728,718,713,710,703,697,673,656,641,635,631,618,610,598,583,565,552,546,538,532,527,525,523],"ymouse":[605,605,605,605,605,605,605,605,605,605,605,605,605,605,605,605,605,605,605,605,605,605,605,605,605,605,605,605,605,605,605,604,595,565,548,539,533,525,502,488,477,458,444,406,385,362,345,329,284,258,217,167,122,94,84,72,62,56,50,48],"timestamp_mouse":[19,34,48,68,88,109,128,148,169,188,209,228,249,268,289,308,328,348,368,388,408,428,449,468,489,508,529,549,569,588,608,629,648,668,688,708,728,748,768,789,808,828,848,868,888,908,928,948,968,988,1008,1028,1048,1069,1088,1108,1128,1148,1168,1188],"xSR":741.5,"ySR":573.95,"xT1":424.9,"yT1":0,"xT2":1058.1,"yT2":0,"toosoon":0,"cond_shown":"randomdotsizeEA","ratio_trial":900,"smaller_num":"18","larger_num":"20","correct_side":1,"subjID":" NtaliaErazoYepes26","gender":"1","age":"11","school":"6"},{"start_time":1551900883339,"click_time":1551900884218,"finger_time":1551900883919,"fix_duration":940.0579772330696,"trial":37,"RT":580,"MT":299,"sideResp":2,"stimulus":"img/500/randomdotsizeEA/L/8_Ratio_500_L_8_R_4.png","xmouse":[788,788,788,788,788,788,788,788,788,788,788,788,788,788,788,788,788,788,788,788,788,789,789,790,790,790,792,794,801,811,823,853,870,894,915,936,983,1006,1018,1028,1038,1061,1071,1078],"ymouse":[610,610,610,610,610,610,610,610,610,610,610,610,610,610,610,610,610,610,610,610,608,603,601,597,594,591,586,582,572,558,540,493,462,420,385,354,294,258,231,205,183,136,112,89],"timestamp_mouse":[19,39,60,79,99,120,139,159,179,200,220,239,259,279,299,319,339,359,379,399,419,439,459,480,499,519,539,559,580,599,619,639,659,679,699,719,739,759,780,799,819,839,859,879],"xSR":741.5,"ySR":573.95,"xT1":424.9,"yT1":0,"xT2":1058.1,"yT2":0,"toosoon":0,"cond_shown":"randomdotsizeEA","ratio_trial":500,"smaller_num":"4","larger_num":"8","correct_side":1,"subjID":" NtaliaErazoYepes26","gender":"1","age":"11","school":"6"},{"start_time":1551900886435,"click_time":1551900887778,"finger_time":1551900887258,"fix_duration":1216.4823544124165,"trial":38,"RT":823,"MT":520,"sideResp":2,"stimulus":"img/750/equaldotanddens/R/4_Ratio_750_L_15_R_20.png","xmouse":[767,767,767,767,767,767,767,767,767,767,767,767,767,767,767,767,767,767,767,767,767,767,767,767,767,767,767,767,767,768,770,778,800,809,812,813,813,813,814,815,817,820,841,853,865,881,895,922,934,948,958,968,984,989,995,1001,1008,1015,1018,1021,1026,1031,1039,1041,1045,1049,1052,1066],"ymouse":[618,618,618,618,618,618,618,618,618,618,618,618,618,618,618,618,618,618,618,618,618,618,618,618,618,618,618,618,618,618,617,609,593,586,584,583,582,582,581,579,576,570,539,521,498,470,442,392,372,351,329,306,240,217,198,185,174,157,150,142,134,128,116,112,106,99,90,69],"timestamp_mouse":[11,23,44,63,83,103,124,144,164,184,203,224,244,264,284,303,323,343,365,384,403,423,443,463,483,503,524,544,564,585,603,624,643,664,683,703,724,744,763,784,803,823,843,863,883,905,923,944,963,983,1003,1024,1043,1063,1083,1103,1123,1143,1163,1184,1203,1223,1243,1263,1283,1303,1323,1343],"xSR":741.5,"ySR":573.95,"xT1":424.9,"yT1":0,"xT2":1058.1,"yT2":0,"toosoon":0,"cond_shown":"equaldotanddens","ratio_trial":750,"smaller_num":"15","larger_num":"20","correct_side":2,"subjID":" NtaliaErazoYepes26","gender":"1","age":"11","school":"6"},{"start_time":1551900891147,"click_time":1551900892238,"finger_time":1551900891738,"fix_duration":1327.0342742546839,"trial":39,"RT":591,"MT":500,"sideResp":2,"stimulus":"img/250/equaldotsize/R/10_Ratio_250_L_4_R_16.png","xmouse":[805,805,805,805,805,805,805,805,805,805,805,805,805,805,805,805,805,805,805,805,805,805,805,805,805,806,808,825,838,850,863,892,909,930,951,977,993,1020,1027,1033,1034,1035,1037,1039,1042,1043,1045,1050,1053,1058,1062,1067,1080,1084,1090],"ymouse":[627,627,627,627,627,627,627,627,627,627,627,627,627,627,627,627,627,627,627,627,627,627,627,627,627,627,625,603,584,562,527,462,438,414,389,359,341,308,293,281,273,267,258,249,240,230,219,201,190,177,164,149,120,107,90],"timestamp_mouse":[11,33,51,71,92,111,131,151,171,193,211,231,252,272,291,312,332,352,371,392,412,432,451,472,491,511,531,551,571,591,611,632,651,671,691,712,731,751,771,791,811,831,851,872,891,912,932,951,971,991,1011,1031,1050,1071,1091],"xSR":741.5,"ySR":573.95,"xT1":424.9,"yT1":0,"xT2":1058.1,"yT2":0,"toosoon":0,"cond_shown":"equaldotsize","ratio_trial":250,"smaller_num":"4","larger_num":"16","correct_side":2,"subjID":" NtaliaErazoYepes26","gender":"1","age":"11","school":"6"},{"start_time":1551900894549,"click_time":1551900895658,"finger_time":1551900895158,"fix_duration":1249.0811297616517,"trial":40,"RT":609,"MT":500,"sideResp":1,"stimulus":"img/500/equaldotsize/L/8_Ratio_500_L_8_R_4.png","xmouse":[824,824,824,824,824,824,824,824,824,824,824,824,824,824,824,824,824,824,824,824,824,824,824,824,824,820,809,794,791,786,778,767,747,735,726,714,700,683,679,673,668,661,651,645,634,623,613,582,563,542,523,506,480,466,457,442],"ymouse":[640,640,640,640,640,640,640,640,640,640,640,640,640,640,640,640,640,640,640,640,640,640,640,640,640,638,624,601,594,586,573,556,529,511,496,472,449,419,408,395,382,368,338,324,299,285,270,234,214,193,173,156,130,119,110,97],"timestamp_mouse":[11,30,50,70,89,110,137,150,170,190,209,229,249,269,289,310,329,350,370,389,409,430,450,469,489,510,529,549,569,590,609,629,649,670,689,709,729,749,769,789,810,829,849,870,889,910,929,949,969,989,1010,1029,1049,1069,1089,1109],"xSR":741.5,"ySR":573.95,"xT1":424.9,"yT1":0,"xT2":1058.1,"yT2":0,"toosoon":0,"cond_shown":"equaldotsize","ratio_trial":500,"smaller_num":"4","larger_num":"8","correct_side":1,"subjID":" NtaliaErazoYepes26","gender":"1","age":"11","school":"6"},{"start_time":1551900899348,"click_time":1551900900498,"finger_time":1551900900098,"fix_duration":949.813815642572,"trial":41,"RT":750,"MT":400,"sideResp":1,"stimulus":"img/900/equaldotsize/R/11_Ratio_900_L_18_R_20.png","xmouse":[801,801,801,801,801,801,801,801,801,801,801,801,801,801,801,801,801,801,801,801,801,801,801,801,801,801,801,801,801,801,801,801,801,801,801,797,794,786,768,759,747,729,716,691,677,664,654,636,623,609,592,573,553,533,519,499,476,455],"ymouse":[598,598,598,598,598,598,598,598,598,598,598,598,598,598,598,598,598,598,598,598,598,598,598,598,598,598,598,598,598,598,598,598,598,598,598,594,587,570,529,507,482,451,433,398,381,363,348,315,297,277,257,238,215,189,170,143,112,87],"timestamp_mouse":[10,34,51,71,90,110,130,150,171,190,210,230,251,270,290,310,330,350,370,390,410,431,450,470,490,510,530,551,570,591,611,630,651,671,690,710,730,750,770,791,810,830,850,870,890,910,930,951,970,990,1011,1031,1050,1070,1091,1111,1130,1150],"xSR":741.5,"ySR":573.95,"xT1":424.9,"yT1":0,"xT2":1058.1,"yT2":0,"toosoon":0,"cond_shown":"equaldotsize","ratio_trial":900,"smaller_num":"18","larger_num":"20","correct_side":2,"subjID":" NtaliaErazoYepes26","gender":"1","age":"11","school":"6"},{"start_time":1551900902922,"click_time":1551900904698,"finger_time":1551900903939,"fix_duration":1122.876173571908,"trial":42,"RT":1017,"MT":759,"sideResp":1,"stimulus":"img/900/randomdotsizeEA/L/10_Ratio_900_L_20_R_18.png","xmouse":[822,822,822,822,822,822,822,822,822,822,822,822,822,822,822,822,822,822,822,822,822,822,822,822,822,822,822,822,822,822,822,822,822,821,821,820,820,820,820,820,820,820,820,817,813,801,790,780,768,765,749,727,695,666,641,614,600,585,567,556,532,523,518,517,515,509,505,502,502,501,499,497,496,496,495,495,494,494,492,491,491,491,490,489,488,487,486,483,481],"ymouse":[618,618,618,618,618,618,618,618,618,618,618,618,618,618,618,618,618,618,618,618,618,618,618,618,618,618,618,615,612,611,609,608,607,604,600,598,597,597,597,597,597,596,596,596,596,593,590,587,581,580,569,561,542,520,498,459,434,413,385,364,316,298,284,272,260,236,226,214,210,206,196,191,185,178,172,165,161,159,154,149,141,137,133,130,128,118,113,107,99],"timestamp_mouse":[17,36,57,76,97,116,136,157,177,197,216,238,257,276,297,317,336,357,377,396,417,436,457,476,496,516,536,556,576,596,616,636,656,677,697,716,737,757,776,796,816,837,856,876,897,916,936,956,976,996,1017,1036,1057,1076,1096,1116,1137,1156,1177,1196,1216,1236,1256,1276,1296,1316,1336,1356,1376,1397,1416,1436,1456,1476,1496,1516,1537,1556,1576,1596,1617,1636,1656,1676,1697,1716,1736,1756,1776],"xSR":741.5,"ySR":573.95,"xT1":424.9,"yT1":0,"xT2":1058.1,"yT2":0,"toosoon":0,"cond_shown":"randomdotsizeEA","ratio_trial":900,"smaller_num":"18","larger_num":"20","correct_side":1,"subjID":" NtaliaErazoYepes26","gender":"1","age":"11","school":"6"},{"start_time":1551900907557,"click_time":1551900908858,"finger_time":1551900908299,"fix_duration":417.3060955520491,"trial":43,"RT":742,"MT":559,"sideResp":1,"stimulus":"img/750/equaldotsize/L/10_Ratio_750_L_4_R_3.png","xmouse":[789,789,789,789,789,789,789,789,789,789,789,789,789,789,789,789,789,789,789,789,789,789,789,789,789,789,789,789,789,789,789,789,789,789,784,778,770,762,750,737,707,689,671,654,632,617,605,596,590,583,577,570,564,557,541,532,528,524,521,518,515,513,511,509,504,499],"ymouse":[604,604,604,604,604,604,604,604,604,604,604,604,604,604,604,604,604,604,604,604,604,604,604,604,604,604,604,604,604,604,604,604,604,604,595,586,574,562,547,530,487,462,436,412,369,338,318,301,287,263,248,238,226,214,190,179,172,166,162,154,150,144,140,134,110,84],"timestamp_mouse":[11,22,41,61,81,101,121,142,161,182,201,222,241,261,281,301,322,341,361,382,401,421,441,461,481,501,521,542,561,582,601,621,641,661,681,702,721,742,761,781,801,821,841,861,881,901,921,942,961,981,1001,1021,1041,1062,1081,1102,1121,1141,1161,1181,1201,1221,1241,1262,1281,1301],"xSR":741.5,"ySR":573.95,"xT1":424.9,"yT1":0,"xT2":1058.1,"yT2":0,"toosoon":0,"cond_shown":"equaldotsize","ratio_trial":750,"smaller_num":"3","larger_num":"4","correct_side":1,"subjID":" NtaliaErazoYepes26","gender":"1","age":"11","school":"6"},{"start_time":1551900910331,"click_time":1551900911697,"finger_time":1551900911037,"fix_duration":372.27582956432036,"trial":44,"RT":706,"MT":660,"sideResp":1,"stimulus":"img/250/randomdotsizeEA/L/5_Ratio_250_L_24_R_6.png","xmouse":[815,815,815,815,815,815,815,815,815,815,815,815,815,815,815,815,815,815,815,815,815,815,815,815,815,815,815,815,812,809,805,795,788,780,777,767,757,744,730,718,710,708,705,700,690,670,665,662,659,656,649,644,640,637,632,621,607,602,595,585,566,556,549,541,537,533,531,528,524],"ymouse":[652,652,652,652,652,652,652,652,652,652,652,652,652,652,652,652,652,652,652,652,652,652,652,652,652,652,652,652,644,641,634,616,605,590,584,566,562,561,557,552,537,528,517,504,487,448,436,424,414,404,385,374,366,357,344,320,283,261,239,217,179,163,146,126,119,109,104,98,89],"timestamp_mouse":[8,38,46,67,88,107,126,147,168,187,207,228,246,267,288,307,327,347,368,388,406,428,448,468,487,507,526,547,567,586,607,626,648,667,686,706,727,746,768,786,808,827,847,867,887,907,926,947,967,987,1007,1026,1047,1067,1087,1106,1126,1146,1167,1187,1208,1227,1247,1266,1287,1307,1327,1346,1366],"xSR":741.5,"ySR":573.95,"xT1":424.9,"yT1":0,"xT2":1058.1,"yT2":0,"toosoon":0,"cond_shown":"randomdotsizeEA","ratio_trial":250,"smaller_num":"6","larger_num":"24","correct_side":1,"subjID":" NtaliaErazoYepes26","gender":"1","age":"11","school":"6"},{"start_time":1551900913465,"click_time":1551900914458,"finger_time":1551900913978,"fix_duration":425.9117580976819,"trial":45,"RT":513,"MT":480,"sideResp":1,"stimulus":"img/250/equaldotsize/L/7_Ratio_250_L_8_R_2.png","xmouse":[807,807,807,807,807,807,807,807,807,807,807,807,807,807,807,807,807,807,807,807,806,805,804,803,801,796,788,780,769,743,711,666,621,577,519,506,496,487,477,464,462,461,460,459,458,455,454,453,453,453],"ymouse":[586,586,586,586,586,586,586,586,586,586,586,586,586,586,586,586,586,586,585,584,582,581,580,579,576,572,564,556,540,502,456,390,327,279,224,210,193,179,165,150,148,144,137,131,119,110,107,105,103,94],"timestamp_mouse":[19,39,53,74,93,113,132,154,173,192,214,232,253,273,293,314,334,353,372,393,414,433,452,473,492,513,532,553,573,593,613,633,652,672,693,713,734,752,772,793,814,832,852,873,892,914,932,953,974,993],"xSR":741.5,"ySR":573.95,"xT1":424.9,"yT1":0,"xT2":1058.1,"yT2":0,"toosoon":0,"cond_shown":"equaldotsize","ratio_trial":250,"smaller_num":"2","larger_num":"8","correct_side":1,"subjID":" NtaliaErazoYepes26","gender":"1","age":"11","school":"6"},{"start_time":1551900915884,"click_time":1551900916838,"finger_time":1551900916537,"fix_duration":364.9886167459877,"trial":46,"RT":653,"MT":301,"sideResp":2,"stimulus":"img/500/randomdotsizeEA/R/9_Ratio_500_L_2_R_4.png","xmouse":[806,806,806,806,806,806,806,806,805,805,804,804,804,804,804,804,803,803,802,801,801,799,798,796,796,795,795,794,792,792,792,795,802,832,848,861,877,893,938,961,983,1005,1030,1058,1071,1075,1076,1079],"ymouse":[623,623,623,623,623,623,623,622,620,619,617,617,617,617,617,617,617,615,615,613,613,611,610,607,607,606,606,605,600,596,591,581,568,515,487,465,437,408,337,302,263,230,196,152,125,111,100,91],"timestamp_mouse":[13,42,55,73,95,115,134,154,174,194,213,234,255,273,293,314,334,354,375,393,414,434,455,473,494,515,534,554,573,593,613,633,653,673,694,713,734,754,774,795,813,834,854,873,894,913,935,954],"xSR":741.5,"ySR":573.95,"xT1":424.9,"yT1":0,"xT2":1058.1,"yT2":0,"toosoon":0,"cond_shown":"randomdotsizeEA","ratio_trial":500,"smaller_num":"2","larger_num":"4","correct_side":2,"subjID":" NtaliaErazoYepes26","gender":"1","age":"11","school":"6"},{"start_time":1551900918543,"click_time":1551900919558,"finger_time":1551900919099,"fix_duration":462.2311983961602,"trial":47,"RT":556,"MT":459,"sideResp":1,"stimulus":"img/500/randomdotsizeEA/R/3_Ratio_500_L_10_R_20.png","xmouse":[815,815,815,815,815,815,815,815,815,815,815,815,815,815,815,815,815,815,815,815,814,809,807,804,799,782,772,760,748,735,713,707,699,690,679,657,649,646,642,628,622,604,596,587,575,541,524,511,500,488,479],"ymouse":[630,630,630,630,630,630,630,630,630,630,630,630,630,630,630,630,630,630,630,630,630,624,621,617,612,592,580,565,547,525,476,462,444,424,402,363,351,346,341,327,321,300,290,277,260,203,172,149,131,115,97],"timestamp_mouse":[18,47,56,75,95,114,135,156,175,195,215,236,254,275,296,315,336,354,374,394,414,435,454,475,495,515,534,556,575,596,615,634,654,675,694,715,735,755,775,796,814,835,855,875,894,915,934,955,974,994,1015],"xSR":741.5,"ySR":573.95,"xT1":424.9,"yT1":0,"xT2":1058.1,"yT2":0,"toosoon":0,"cond_shown":"randomdotsizeEA","ratio_trial":500,"smaller_num":"10","larger_num":"20","correct_side":2,"subjID":" NtaliaErazoYepes26","gender":"1","age":"11","school":"6"},{"start_time":1551900921744,"click_time":1551900922678,"finger_time":1551900922518,"fix_duration":764.4386795853384,"trial":48,"RT":774,"MT":160,"sideResp":2,"stimulus":"img/750/equaldotsize/R/2_Ratio_750_L_6_R_8.png","xmouse":[834,834,834,834,834,834,834,834,834,834,834,834,834,834,834,834,834,834,834,834,834,834,834,834,834,834,834,834,834,834,833,833,832,832,832,832,832,832,836,840,847,908,939,966,994,1020,1063],"ymouse":[593,593,593,593,593,593,593,593,593,593,593,593,593,593,593,593,593,593,593,593,593,593,593,593,593,593,593,591,588,585,582,581,580,580,580,579,577,575,563,548,529,431,373,311,246,187,99],"timestamp_mouse":[14,38,55,73,94,113,135,155,174,195,214,233,253,274,293,315,334,355,374,394,413,433,454,474,494,513,533,554,574,594,613,634,654,675,694,713,735,755,774,795,814,833,853,874,893,914,934],"xSR":741.5,"ySR":573.95,"xT1":424.9,"yT1":0,"xT2":1058.1,"yT2":0,"toosoon":0,"cond_shown":"equaldotsize","ratio_trial":750,"smaller_num":"6","larger_num":"8","correct_side":2,"subjID":" NtaliaErazoYepes26","gender":"1","age":"11","school":"6"},{"start_time":1551900926152,"click_time":1551900927238,"finger_time":1551900926917,"fix_duration":1171.769238941086,"trial":49,"RT":765,"MT":321,"sideResp":2,"stimulus":"img/900/equaldotsize/R/13_Ratio_900_L_18_R_20.png","xmouse":[814,814,814,814,814,814,814,814,813,813,812,812,812,812,812,812,812,812,812,812,812,812,812,812,812,812,812,812,812,812,812,812,812,812,812,812,812,839,853,870,884,907,915,924,937,950,968,969,969,971,975,994,1013,1037,1069],"ymouse":[627,627,627,627,627,627,627,627,628,629,629,629,629,629,629,629,629,629,629,629,629,629,629,629,629,629,629,629,629,629,629,629,629,629,629,627,622,586,561,534,501,377,317,244,180,146,104,97,90,84,78,64,57,47,38],"timestamp_mouse":[8,27,46,67,86,107,126,146,166,186,206,227,246,267,285,306,326,345,366,386,405,426,447,465,485,507,526,547,565,585,605,625,646,666,685,706,725,746,765,786,805,825,845,866,885,905,926,946,966,986,1006,1025,1045,1066,1086],"xSR":741.5,"ySR":573.95,"xT1":424.9,"yT1":0,"xT2":1058.1,"yT2":0,"toosoon":0,"cond_shown":"equaldotsize","ratio_trial":900,"smaller_num":"18","larger_num":"20","correct_side":2,"subjID":" NtaliaErazoYepes26","gender":"1","age":"11","school":"6"},{"start_time":1551900930486,"click_time":1551900931558,"finger_time":1551900931117,"fix_duration":727.1149379644056,"trial":50,"RT":631,"MT":441,"sideResp":1,"stimulus":"img/250/equaldotsize/L/1_Ratio_250_L_8_R_2.png","xmouse":[818,818,818,818,818,818,818,818,818,818,818,818,818,818,818,818,818,818,818,818,818,818,818,816,812,810,808,805,803,801,790,783,774,757,728,675,649,614,602,594,563,545,536,525,508,507,503,498,493,487,473,465,458,457],"ymouse":[619,619,619,619,619,619,619,619,619,619,619,619,619,619,619,619,619,619,619,619,619,619,619,618,611,608,605,601,599,595,575,562,541,486,426,360,334,304,292,283,256,242,229,220,203,202,197,191,183,171,142,120,106,95],"timestamp_mouse":[11,40,53,73,91,111,132,153,171,192,212,231,251,272,292,313,331,352,371,392,411,433,452,471,493,511,532,552,572,591,611,631,652,672,691,712,731,752,772,792,811,832,851,871,899,911,931,951,972,992,1012,1032,1052,1072],"xSR":741.5,"ySR":573.95,"xT1":424.9,"yT1":0,"xT2":1058.1,"yT2":0,"toosoon":0,"cond_shown":"equaldotsize","ratio_trial":250,"smaller_num":"2","larger_num":"8","correct_side":1,"subjID":" NtaliaErazoYepes26","gender":"1","age":"11","school":"6"},{"start_time":1551900933197,"click_time":1551900935037,"finger_time":1551900934538,"fix_duration":296.5116865066158,"trial":51,"RT":1341,"MT":499,"sideResp":1,"stimulus":"img/750/randomdotsizeEA/L/6_Ratio_750_L_24_R_18.png","xmouse":[806,806,806,806,806,806,806,806,806,806,806,806,806,806,806,806,806,806,806,806,806,806,806,806,806,806,806,806,806,806,806,806,806,806,806,806,806,806,806,806,806,806,806,806,806,806,806,806,806,806,806,806,806,806,806,806,806,806,803,802,800,798,796,795,793,781,771,760,748,735,713,695,681,669,657,629,616,604,590,579,554,536,528,521,515,503,497,492,489,486,481,476,472],"ymouse":[622,622,622,622,622,622,622,622,622,622,622,622,622,622,622,622,622,622,622,622,622,622,622,622,622,622,622,622,622,622,622,622,622,622,622,622,622,622,622,622,622,622,622,622,622,622,622,622,622,622,622,622,622,622,622,622,622,622,618,616,611,605,602,600,597,585,576,563,549,532,502,479,463,444,423,367,343,321,301,285,251,225,212,198,187,162,154,147,140,134,115,105,97],"timestamp_mouse":[8,21,41,62,80,101,121,140,160,180,201,220,242,261,281,301,321,342,360,382,401,422,441,460,482,502,521,540,562,581,601,620,641,661,680,702,721,741,760,781,801,821,841,862,880,901,922,940,962,981,1002,1020,1042,1060,1080,1100,1120,1141,1160,1182,1201,1220,1241,1262,1280,1300,1321,1341,1361,1382,1401,1420,1440,1461,1480,1501,1520,1541,1560,1582,1601,1621,1640,1661,1680,1701,1720,1741,1760,1780,1800,1822,1840],"xSR":741.5,"ySR":573.95,"xT1":424.9,"yT1":0,"xT2":1058.1,"yT2":0,"toosoon":0,"cond_shown":"randomdotsizeEA","ratio_trial":750,"smaller_num":"18","larger_num":"24","correct_side":1,"subjID":" NtaliaErazoYepes26","gender":"1","age":"11","school":"6"},{"start_time":1551900936350,"click_time":1551900937538,"finger_time":1551900936958,"fix_duration":250,"trial":52,"RT":608,"MT":580,"sideResp":1,"stimulus":"img/250/equaldotanddens/L/14_Ratio_250_L_12_R_3.png","xmouse":[806,805,804,804,804,804,804,804,804,802,802,801,800,799,799,799,799,799,799,799,799,799,799,799,799,799,799,792,781,767,742,704,597,569,558,548,539,524,518,517,515,513,508,504,500,497,492,485,483,482,482,482,479,477,476,475,474,473,473,472],"ymouse":[641,641,640,640,640,640,640,640,639,638,638,636,636,634,634,634,634,634,634,634,634,634,634,634,634,634,634,624,608,588,552,505,342,303,281,264,247,223,215,211,207,202,189,182,174,169,161,148,144,142,142,142,135,129,123,116,112,107,104,99],"timestamp_mouse":[10,27,48,68,89,107,129,147,168,188,207,229,248,268,289,308,327,349,367,387,409,428,448,469,489,507,527,547,568,589,608,628,648,667,687,708,728,748,767,788,808,828,848,867,887,909,928,948,967,987,1008,1028,1047,1067,1087,1108,1127,1148,1167,1188],"xSR":741.5,"ySR":573.95,"xT1":424.9,"yT1":0,"xT2":1058.1,"yT2":0,"toosoon":0,"cond_shown":"equaldotanddens","ratio_trial":250,"smaller_num":"3","larger_num":"12","correct_side":1,"subjID":" NtaliaErazoYepes26","gender":"1","age":"11","school":"6"},{"start_time":1551900939925,"click_time":1551900941159,"finger_time":1551900940537,"fix_duration":1306.2940484384164,"trial":53,"RT":612,"MT":622,"sideResp":1,"stimulus":"img/750/equaldotsize/L/6_Ratio_750_L_24_R_18.png","xmouse":[807,807,807,807,807,807,807,807,807,807,807,807,807,807,807,807,807,807,807,807,807,807,807,807,807,807,807,805,802,775,752,745,719,695,651,633,615,600,586,557,542,530,517,509,492,486,483,481,480,474,472,469,469,468,468,468,468,468,468,469,469,472],"ymouse":[613,613,613,613,613,613,613,613,613,613,613,613,613,613,613,613,613,613,613,613,613,613,613,613,613,613,613,612,608,581,554,546,516,487,430,403,378,348,322,270,243,223,198,179,148,136,130,125,122,113,108,104,103,102,102,102,102,102,102,101,101,98],"timestamp_mouse":[14,43,53,72,94,113,133,154,173,192,214,233,253,273,294,314,332,353,373,393,412,433,454,473,492,512,532,552,572,592,612,632,652,672,693,712,733,753,773,793,813,833,852,873,894,912,932,952,973,993,1012,1033,1054,1074,1093,1113,1132,1153,1173,1193,1213,1234],"xSR":741.5,"ySR":573.95,"xT1":424.9,"yT1":0,"xT2":1058.1,"yT2":0,"toosoon":0,"cond_shown":"equaldotsize","ratio_trial":750,"smaller_num":"18","larger_num":"24","correct_side":1,"subjID":" NtaliaErazoYepes26","gender":"1","age":"11","school":"6"},{"start_time":1551900943262,"click_time":1551900944218,"finger_time":1551900943818,"fix_duration":1061.8933956431085,"trial":54,"RT":556,"MT":400,"sideResp":1,"stimulus":"img/500/randomdotsizeEA/L/13_Ratio_500_L_12_R_6.png","xmouse":[770,770,770,770,770,770,770,770,770,770,770,770,770,770,770,770,770,770,770,770,770,770,770,770,770,767,762,740,723,696,662,629,584,549,524,514,508,498,494,490,489,487,486,486,486,486,486,485],"ymouse":[647,647,647,647,647,647,647,647,647,647,647,647,647,647,647,647,647,647,647,647,647,647,647,646,645,639,630,588,561,523,476,427,338,266,221,196,176,141,129,118,112,106,101,100,100,100,100,99],"timestamp_mouse":[16,35,55,77,96,116,136,156,176,196,216,237,255,277,295,315,335,356,376,396,415,436,456,477,495,516,536,556,577,595,615,637,656,676,695,715,735,756,776,796,816,835,855,875,896,917,936,955],"xSR":741.5,"ySR":573.95,"xT1":424.9,"yT1":0,"xT2":1058.1,"yT2":0,"toosoon":0,"cond_shown":"randomdotsizeEA","ratio_trial":500,"smaller_num":"6","larger_num":"12","correct_side":1,"subjID":" NtaliaErazoYepes26","gender":"1","age":"11","school":"6"},{"start_time":1551900945813,"click_time":1551900946997,"finger_time":1551900946617,"fix_duration":594.3310363050235,"trial":55,"RT":804,"MT":380,"sideResp":1,"stimulus":"img/900/equaldotanddens/L/8_Ratio_900_L_20_R_18.png","xmouse":[822,822,822,822,822,822,822,822,822,822,822,822,822,822,822,822,822,822,822,822,822,822,822,822,822,822,822,822,822,822,822,822,822,822,822,822,822,822,822,822,819,805,790,773,752,692,664,640,623,611,583,571,556,546,537,519,516,512,508,503],"ymouse":[600,600,600,600,600,600,600,600,600,600,600,600,600,600,600,600,600,600,600,600,600,600,600,600,600,600,597,589,585,580,578,578,578,578,578,578,578,578,578,578,573,558,534,502,465,364,325,292,267,248,210,191,169,155,144,119,115,109,104,95],"timestamp_mouse":[10,37,45,65,85,104,126,145,165,185,204,225,245,265,284,305,325,346,365,384,406,426,446,464,486,504,525,545,566,584,606,626,645,666,684,705,724,746,764,785,804,825,845,865,885,904,924,944,965,984,1004,1024,1045,1065,1086,1104,1124,1144,1165,1184],"xSR":741.5,"ySR":573.95,"xT1":424.9,"yT1":0,"xT2":1058.1,"yT2":0,"toosoon":0,"cond_shown":"equaldotanddens","ratio_trial":900,"smaller_num":"18","larger_num":"20","correct_side":1,"subjID":" NtaliaErazoYepes26","gender":"1","age":"11","school":"6"},{"start_time":1551900948230,"click_time":1551900949358,"finger_time":1551900948938,"fix_duration":250,"trial":56,"RT":708,"MT":420,"sideResp":1,"stimulus":"img/250/equaldotanddens/L/15_Ratio_250_L_12_R_3.png","xmouse":[784,784,784,784,784,784,784,784,784,784,784,784,784,784,784,784,784,784,784,784,784,784,784,784,784,784,784,784,784,784,784,784,784,784,771,755,729,703,682,660,619,604,587,575,554,549,542,536,532,528,523,520,518,516,512,508,506],"ymouse":[611,611,611,611,611,611,611,611,611,611,611,611,611,611,611,611,611,611,611,611,611,611,611,611,611,611,611,611,611,611,611,611,611,611,594,572,536,500,469,429,342,305,267,240,196,183,170,158,150,141,130,127,123,119,112,103,97],"timestamp_mouse":[9,41,48,68,88,109,128,148,167,188,208,228,248,269,289,309,328,347,369,388,408,427,448,467,487,507,527,548,568,589,608,627,647,668,688,708,727,749,767,788,808,828,848,868,888,907,927,948,968,988,1008,1029,1048,1067,1087,1107,1128],"xSR":741.5,"ySR":573.95,"xT1":424.9,"yT1":0,"xT2":1058.1,"yT2":0,"toosoon":0,"cond_shown":"equaldotanddens","ratio_trial":250,"smaller_num":"3","larger_num":"12","correct_side":1,"subjID":" NtaliaErazoYepes26","gender":"1","age":"11","school":"6"},{"start_time":1551900951334,"click_time":1551900952598,"finger_time":1551900952218,"fix_duration":1015.5903403800455,"trial":57,"RT":884,"MT":380,"sideResp":1,"stimulus":"img/750/randomdotsizeEA/L/13_Ratio_750_L_8_R_6.png","xmouse":[770,770,770,770,770,770,770,770,770,770,769,769,769,769,769,769,769,769,769,769,769,769,769,769,769,769,769,769,769,769,769,769,769,769,769,769,769,769,769,769,769,769,760,754,740,703,676,643,629,620,596,587,579,571,565,546,538,529,521,511,501,495,491,488],"ymouse":[639,639,639,639,639,639,639,639,639,639,639,639,639,639,639,639,639,639,639,639,639,639,639,639,639,639,639,639,639,639,639,639,639,639,639,639,639,639,639,639,639,639,635,628,611,569,530,480,458,437,383,359,331,304,281,233,211,183,166,149,125,113,104,95],"timestamp_mouse":[8,24,46,64,84,104,124,143,163,185,205,223,243,263,284,303,324,343,365,385,403,424,443,463,484,503,524,543,563,584,603,625,643,664,683,704,724,744,764,784,803,825,844,864,884,903,923,944,965,984,1003,1023,1044,1064,1084,1103,1124,1143,1164,1183,1203,1223,1243,1264],"xSR":741.5,"ySR":573.95,"xT1":424.9,"yT1":0,"xT2":1058.1,"yT2":0,"toosoon":0,"cond_shown":"randomdotsizeEA","ratio_trial":750,"smaller_num":"6","larger_num":"8","correct_side":1,"subjID":" NtaliaErazoYepes26","gender":"1","age":"11","school":"6"},{"start_time":1551900954908,"click_time":1551900955978,"finger_time":1551900955577,"fix_duration":1368.8736597221239,"trial":58,"RT":669,"MT":401,"sideResp":2,"stimulus":"img/250/equaldotanddens/R/8_Ratio_250_L_1_R_4.png","xmouse":[783,783,783,783,783,783,783,783,783,783,783,783,783,783,783,783,783,783,783,783,783,783,783,783,783,783,783,783,783,783,783,784,798,811,824,837,849,869,880,891,900,912,919,927,937,946,976,1003,1028,1050,1068,1099,1104,1104],"ymouse":[623,623,623,623,623,623,623,623,623,623,623,623,623,623,623,623,623,623,623,623,623,623,623,623,623,623,623,623,623,623,621,612,579,558,534,512,490,442,425,409,393,365,353,341,327,314,276,240,210,180,156,118,105,97],"timestamp_mouse":[10,37,50,70,90,109,129,151,170,189,210,231,250,270,290,311,329,349,370,391,409,429,449,471,490,510,529,551,570,590,609,629,650,669,690,710,729,750,769,790,810,829,851,871,890,911,929,949,969,990,1010,1031,1050,1070],"xSR":741.5,"ySR":573.95,"xT1":424.9,"yT1":0,"xT2":1058.1,"yT2":0,"toosoon":0,"cond_shown":"equaldotanddens","ratio_trial":250,"smaller_num":"1","larger_num":"4","correct_side":2,"subjID":" NtaliaErazoYepes26","gender":"1","age":"11","school":"6"},{"start_time":1551900957630,"click_time":1551900958438,"finger_time":1551900958117,"fix_duration":250,"trial":59,"RT":487,"MT":321,"sideResp":2,"stimulus":"img/250/equaldotanddens/R/11_Ratio_250_L_3_R_12.png","xmouse":[831,831,831,831,831,831,831,831,831,831,831,831,831,831,831,831,831,831,831,831,831,831,831,833,837,852,865,880,894,910,925,951,966,980,992,1011,1025,1038,1046,1053,1068],"ymouse":[596,596,596,596,596,596,596,596,596,596,596,596,596,596,596,596,596,596,596,596,596,596,596,587,572,519,484,451,416,376,332,244,211,181,151,101,80,61,49,37,18],"timestamp_mouse":[10,39,48,67,87,108,128,148,167,188,208,227,248,268,287,309,328,347,367,388,408,428,447,468,487,507,527,549,568,588,607,629,648,669,687,708,727,748,767,788,807],"xSR":741.5,"ySR":573.95,"xT1":424.9,"yT1":0,"xT2":1058.1,"yT2":0,"toosoon":0,"cond_shown":"equaldotanddens","ratio_trial":250,"smaller_num":"3","larger_num":"12","correct_side":2,"subjID":" NtaliaErazoYepes26","gender":"1","age":"11","school":"6"},{"start_time":1551900959428,"click_time":1551900960577,"finger_time":1551900960098,"fix_duration":250,"trial":60,"RT":670,"MT":479,"sideResp":1,"stimulus":"img/500/equaldotanddens/L/10_Ratio_500_L_4_R_2.png","xmouse":[799,799,799,799,799,799,799,799,799,799,799,799,799,799,799,800,800,800,800,800,800,800,800,800,800,800,800,800,800,800,800,788,777,760,736,714,678,668,659,651,639,615,600,586,570,554,514,503,493,484,473,467,461,460,460,459,457,457],"ymouse":[665,665,665,665,665,665,665,665,665,665,665,665,665,663,661,661,659,659,659,659,659,659,659,659,659,659,659,659,657,650,640,610,592,569,535,504,447,430,417,402,385,352,334,317,298,279,224,206,188,171,155,145,129,126,120,114,101,98],"timestamp_mouse":[11,31,49,69,89,110,129,149,169,191,209,230,249,270,290,311,329,349,369,391,410,431,450,469,490,509,529,550,570,589,609,629,650,670,691,710,729,750,770,789,809,829,850,870,889,909,929,951,970,990,1011,1029,1049,1069,1091,1111,1130,1149],"xSR":741.5,"ySR":573.95,"xT1":424.9,"yT1":0,"xT2":1058.1,"yT2":0,"toosoon":0,"cond_shown":"equaldotanddens","ratio_trial":500,"smaller_num":"2","larger_num":"4","correct_side":1,"subjID":" NtaliaErazoYepes26","gender":"1","age":"11","school":"6"},{"start_time":1551900964278,"click_time":1551900965838,"finger_time":1551900964997,"fix_duration":780.3764663525009,"trial":61,"RT":719,"MT":841,"sideResp":2,"stimulus":"img/750/randomdotsizeEA/L/8_Ratio_750_L_4_R_3.png","xmouse":[799,799,799,799,799,799,799,799,799,799,799,799,799,799,799,799,799,799,799,799,799,799,799,799,799,799,799,799,799,799,799,799,799,796,785,782,781,781,781,781,781,781,781,781,781,781,781,781,781,781,781,781,781,781,781,781,784,792,793,795,795,795,795,796,798,803,809,817,826,857,892,915,942,972,1027,1049,1067,1078],"ymouse":[597,597,597,597,597,597,597,597,597,597,597,597,597,597,597,597,597,597,597,597,597,597,597,597,597,597,597,597,597,597,597,597,597,593,577,573,572,572,572,572,572,572,572,572,572,572,572,572,572,572,572,572,572,572,572,575,584,600,606,611,611,611,611,611,599,581,560,535,500,431,363,319,274,227,157,128,106,89],"timestamp_mouse":[20,45,61,80,99,121,141,159,179,201,220,239,261,281,299,320,340,361,380,399,420,439,461,480,500,520,541,560,579,600,619,641,659,679,699,719,740,760,781,800,820,841,860,879,899,919,940,960,980,999,1019,1041,1061,1079,1099,1119,1140,1159,1179,1201,1220,1239,1261,1280,1299,1319,1339,1359,1379,1400,1419,1440,1460,1479,1500,1520,1539,1559],"xSR":741.5,"ySR":573.95,"xT1":424.9,"yT1":0,"xT2":1058.1,"yT2":0,"toosoon":0,"cond_shown":"randomdotsizeEA","ratio_trial":750,"smaller_num":"3","larger_num":"4","correct_side":1,"subjID":" NtaliaErazoYepes26","gender":"1","age":"11","school":"6"},{"start_time":1551900968209,"click_time":1551900969278,"finger_time":1551900968677,"fix_duration":1148.7136505593585,"trial":62,"RT":468,"MT":601,"sideResp":1,"stimulus":"img/900/equaldotsize/L/1_Ratio_900_L_10_R_9.png","xmouse":[813,813,813,813,813,813,813,813,813,813,813,813,813,813,813,813,813,813,796,788,781,773,766,752,740,734,724,712,694,688,680,672,663,646,634,625,614,604,582,575,570,565,557,541,540,538,538,538,538,537,535,533,528,522],"ymouse":[643,643,643,643,643,643,643,643,643,643,643,643,643,643,643,643,643,643,616,606,595,584,576,555,539,530,516,500,473,461,446,426,407,366,338,320,302,282,243,225,207,190,170,130,121,118,117,116,116,114,109,105,98,91],"timestamp_mouse":[8,35,48,69,90,108,128,150,170,188,210,230,249,270,290,308,329,349,369,388,409,429,450,468,488,508,529,549,569,589,608,628,649,668,688,708,729,748,768,790,809,828,850,868,888,909,928,949,969,988,1009,1028,1050,1068],"xSR":741.5,"ySR":573.95,"xT1":424.9,"yT1":0,"xT2":1058.1,"yT2":0,"toosoon":0,"cond_shown":"equaldotsize","ratio_trial":900,"smaller_num":"9","larger_num":"10","correct_side":1,"subjID":" NtaliaErazoYepes26","gender":"1","age":"11","school":"6"},{"start_time":1551900971181,"click_time":1551900972280,"finger_time":1551900971879,"fix_duration":800.9061433195282,"trial":63,"RT":698,"MT":401,"sideResp":1,"stimulus":"img/750/equaldotsize/L/6_Ratio_750_L_24_R_18.png","xmouse":[780,780,780,780,780,780,780,780,780,780,780,780,780,780,780,780,780,780,780,780,780,780,780,780,780,780,780,780,780,780,780,780,780,775,762,745,736,725,714,696,691,681,671,6