[{"start_time":1551900009528,"click_time":1551900021243,"finger_time":1551900009544,"fix_duration":561.9278808402676,"trial":0,"RT":16,"MT":11699,"sideResp":1,"stimulus":[],"xmouse":[786,786,786,786,786,786,786,786,786,786,786,786,786,786,786,786,786,786,786,786,786,786,786,786,786,786,786,786,786,786,786,786,786,786,786,786,786,786,786,786,786,786,786,786,786,786,786,786,786,786,786,786,786,786,786,786,786,786,786,786,786,786,786,786,786,786,786,786,786,786,786,786,786,786,786,786,786,786,786,786,786,786,786,785,785,785,785,786,787,790,790,791,791,791,791,791,791,791,791,793,793,793,793,793,793,794,794,795,795,795,795,795,795,795,795,795,795,795,795,795,795,795,795,795,795,795,795,795,795,795,795,795,795,795,795,795,795,795,795,795,795,795,795,795,795,795,795,795,795,795,795,795,795,795,795,795,795,795,795,795,795,795,795,795,795,795,795,795,795,795,795,795,795,795,795,795,795,795,795,795,795,795,795,795,795,795,795,795,795,795,795,795,795,795,795,795,795,795,795,795,795,795,795,795,795,795,795,795,795,795,795,795,795,795,795,795,795,795,795,795,795,795,795,795,795,795,795,795,795,795,795,795,795,795,795,795,795,795,795,795,795,795,795,795,795,795,795,795,795,795,795,795,795,795,795,795,795,795,795,795,795,795,795,795,795,795,795,795,795,795,795,795,795,795,795,795,795,795,795,795,795,795,795,795,795,795,795,795,795,795,795,795,795,795,795,795,795,795,795,795,795,795,795,795,795,795,795,795,795,795,795,795,795,795,795,795,795,795,795,795,795,795,795,795,795,795,795,795,795,795,795,795,795,795,795,795,795,795,795,795,795,795,795,795,795,795,795,795,795,795,795,795,795,795,795,795,795,795,795,795,795,795,795,795,795,795,795,795,795,795,795,795,795,795,795,795,795,795,795,795,795,795,795,795,795,795,795,795,795,795,798,823,892,998,1107,1221,1240,1255,1259,1253,1200,1149,1099,1052,1019,984,976,956,949,879,855,841,838,837,837,837,837,837,837,837,837,837,837,837,835,829,825,823,823,823,823,823,823,823,823,823,823,823,822,819,816,815,815,815,815,815,815,815,815,815,815,815,815,815,815,815,815,815,815,815,815,815,815,815,815,815,815,815,815,815,815,815,815,815,815,815,815,815,815,815,815,815,815,815,815,815,815,815,815,815,815,815,815,815,815,815,815,815,815,815,815,815,815,815,815,815,815,815,815,815,815,815,815,815,815,815,815,815,815,815,813,813,813,813,813,813,811,810,807,803,796,792,791,790,790,790,790,793,799,815,839,840,835,821,790,662,608,572,576,602,798,977,1157,1298,1389,1413,1206,1010,826,690,638,644,658,675,689,694,693,689,680,662,642,640,637,634,630,625,623,619,609,590,544,518,506,502,502,498],"ymouse":[548,548,548,548,548,548,548,548,548,548,548,548,548,548,548,548,548,548,548,548,548,548,548,548,548,548,548,548,548,548,548,548,548,548,548,548,548,548,548,548,548,548,548,548,548,548,548,548,548,548,548,548,548,548,548,548,548,548,548,548,548,548,548,548,548,548,548,548,548,548,548,548,548,548,548,548,548,548,548,548,548,548,548,548,549,549,550,554,557,569,580,587,593,597,598,598,598,598,598,602,602,602,602,602,605,610,615,619,620,621,621,621,621,621,621,621,621,621,621,621,621,621,621,621,621,621,621,621,621,621,621,621,621,621,621,621,621,621,621,621,621,621,621,621,621,621,621,621,621,621,621,621,621,621,621,621,621,621,621,621,621,621,621,621,621,621,621,621,621,621,621,621,621,621,621,621,621,621,621,621,621,621,621,621,621,621,621,621,621,621,621,621,621,621,621,621,621,621,621,621,621,621,621,621,621,621,621,621,621,621,621,621,621,621,621,621,621,621,621,621,621,621,621,621,621,621,621,621,621,621,621,621,621,621,621,621,621,621,621,621,621,621,621,621,621,621,621,621,621,621,621,621,621,621,621,621,621,621,621,621,621,621,621,621,621,621,621,621,621,621,621,621,621,621,621,621,621,621,621,621,621,621,621,621,621,621,621,621,621,621,621,621,621,621,621,621,621,621,621,621,621,621,621,621,621,621,621,621,621,621,621,621,621,621,621,621,621,621,621,621,621,621,621,621,621,621,621,621,621,621,621,621,621,621,621,621,621,621,621,621,621,621,621,621,621,621,621,621,621,621,621,621,621,621,621,621,621,621,621,621,621,621,621,621,621,621,621,621,621,621,621,621,621,621,621,621,621,621,621,621,621,621,621,621,621,621,621,621,621,621,621,617,589,535,482,438,433,430,429,427,418,418,418,433,448,467,473,488,493,524,533,541,544,545,545,545,545,545,545,545,547,549,552,557,563,579,586,591,591,591,591,591,591,591,591,591,591,592,594,603,612,615,617,618,618,618,618,618,618,618,618,618,618,618,618,618,618,618,618,618,618,618,618,618,618,618,618,618,618,618,618,618,618,618,618,618,618,618,618,618,618,618,618,618,618,618,618,618,618,618,618,618,618,618,618,618,618,618,618,618,618,618,618,618,618,618,618,618,618,618,618,618,618,618,618,618,618,618,618,618,618,618,618,618,618,618,618,618,618,618,618,620,623,625,625,625,625,618,594,566,523,510,503,502,506,598,679,795,849,881,875,808,703,590,481,410,331,316,323,363,414,423,432,433,429,405,404,403,394,350,286,276,262,247,239,239,239,239,239,234,204,177,154,134,119,99],"timestamp_mouse":[16,36,55,75,95,115,135,156,175,195,216,236,257,276,296,316,336,355,375,395,416,437,456,475,496,515,536,555,576,596,615,636,655,675,695,716,737,755,775,796,815,835,857,875,896,915,936,957,976,996,1015,1036,1055,1076,1095,1116,1135,1155,1175,1195,1216,1237,1256,1276,1295,1315,1335,1355,1376,1396,1416,1435,1456,1476,1495,1516,1537,1556,1576,1595,1615,1636,1655,1676,1695,1716,1735,1756,1775,1795,1815,1835,1857,1875,1897,1916,1935,1955,1976,1996,2016,2035,2055,2076,2096,2115,2135,2155,2177,2195,2215,2235,2255,2275,2297,2315,2335,2357,2376,2397,2415,2436,2456,2477,2495,2516,2536,2556,2577,2595,2616,2635,2655,2675,2695,2715,2735,2755,2775,2795,2817,2835,2857,2875,2895,2917,2936,2955,2976,2996,3017,3035,3057,3076,3096,3115,3135,3155,3176,3196,3216,3237,3256,3277,3295,3316,3336,3355,3375,3396,3417,3436,3455,3477,3496,3516,3535,3555,3575,3597,3617,3636,3656,3677,3696,3715,3736,3755,3775,3795,3816,3835,3855,3875,3897,3916,3936,3955,3975,3997,4016,4037,4057,4075,4096,4115,4136,4156,4176,4195,4216,4235,4256,4275,4295,4315,4335,4355,4375,4396,4415,4435,4455,4475,4496,4515,4535,4557,4575,4595,4615,4636,4655,4676,4695,4717,4736,4755,4776,4795,4815,4837,4855,4876,4897,4915,4935,4956,4976,4995,5016,5037,5055,5076,5095,5115,5136,5157,5176,5196,5215,5235,5256,5275,5295,5315,5335,5356,5376,5395,5415,5436,5455,5476,5497,5515,5537,5555,5575,5597,5616,5635,5655,5675,5695,5715,5736,5755,5775,5796,5816,5835,5855,5875,5897,5915,5935,5955,5976,5996,6015,6035,6056,6075,6096,6116,6135,6155,6175,6195,6215,6235,6255,6276,6296,6317,6335,6355,6376,6395,6417,6437,6455,6475,6495,6515,6535,6555,6575,6595,6615,6637,6655,6675,6695,6715,6735,6756,6775,6795,6815,6835,6857,6875,6895,6916,6935,6955,6976,6995,7016,7036,7055,7075,7095,7115,7136,7155,7175,7195,7215,7235,7256,7275,7295,7317,7335,7355,7376,7395,7415,7435,7456,7475,7496,7515,7537,7555,7575,7595,7615,7636,7655,7675,7695,7716,7736,7755,7776,7795,7815,7835,7856,7875,7896,7916,7936,7955,7975,7996,8015,8035,8057,8077,8096,8115,8135,8155,8175,8196,8215,8235,8255,8275,8296,8315,8337,8355,8376,8396,8415,8435,8455,8476,8495,8515,8536,8556,8575,8596,8616,8636,8655,8676,8696,8715,8736,8756,8776,8795,8815,8835,8855,8877,8896,8916,8937,8955,8976,8997,9015,9035,9057,9075,9096,9116,9136,9155,9175,9195,9216,9235,9256,9275,9297,9315,9335,9356,9376,9396,9416,9436,9455,9475,9497,9515,9537,9556,9577,9596,9615,9635,9655,9675,9696,9715,9735,9755,9776,9796,9816,9835,9857,9875,9897,9916,9935,9955,9975,9997,10016,10036,10055,10076,10095,10117,10135,10155,10177,10196,10216,10236,10255,10275,10296,10315,10335,10356,10377,10396,10415,10435,10457,10476,10495,10516,10536,10555,10576,10595,10615,10635,10655,10675,10695,10715,10736,10755,10776,10797,10815,10836,10856,10876,10895,10916,10936,10955,10976,10996,11016,11035,11055,11076,11097,11115,11135,11156,11175,11195,11215,11235,11255,11275,11295,11315,11336,11356,11376,11396,11415,11436,11456,11476,11495,11515,11535,11555,11575,11596,11615,11635,11656,11675,11696,11715],"xSR":741.5,"ySR":469.95,"xT1":424.9,"yT1":0,"xT2":1058.1,"yT2":0,"toosoon":0,"cond_shown":"Congruent","ratio_trial":300,"L_num":1,"L_den":5,"R_num":11,"R_den":22,"correct_side":2,"subjID":"NataliaErazo26","gender":"1","age":"11","school":"6","test":{"fix_dur":[250,1500],"timestim":1000,"targets_dim":[100,100],"targets_relative_coord":[0.3,0.7],"size_stim":[880,420],"start_dim":[100,100],"size_start":[300,300],"size_fix":60,"samplingrate":20,"img_types":["Congruent","Incongruent"],"ratios":[100,200,300],"rep_conds":19,"nTrials":120,"trials_to_rest":500,"Trials_order":[100,68,47,85,55,36,89,70,26,81,80,49,38,77,118,0,72,112,27,99,10,87,67,91,3,23,14,8,19,20,33,21,65,4,98,97,52,101,88,116,103,113,56,11,105,51,31,71,110,50,25,44,24,117,40,2,1,32,104,54,63,60,12,46,48,43,18,102,106,84,28,35,111,6,76,109,114,90,95,62,108,34,29,30,45,59,42,22,41,83,119,53,82,94,7,39,16,13,78,96,69,37,86,73,9,58,5,61,79,15,107,57,75,17,74,115,64,93,66,92],"cond_shown":["Congruent","Congruent","Incongruent","Incongruent","Incongruent","Congruent","Incongruent","Congruent","Congruent","Incongruent","Congruent","Incongruent","Congruent","Incongruent","Congruent","Congruent","Congruent","Congruent","Incongruent","Incongruent","Congruent","Incongruent","Incongruent","Incongruent","Incongruent","Incongruent","Congruent","Congruent","Incongruent","Congruent","Incongruent","Incongruent","Incongruent","Congruent","Congruent","Incongruent","Congruent","Incongruent","Congruent","Congruent","Incongruent","Incongruent","Congruent","Incongruent","Incongruent","Incongruent","Incongruent","Incongruent","Congruent","Congruent","Incongruent","Congruent","Congruent","Incongruent","Congruent","Congruent","Incongruent","Congruent","Congruent","Congruent","Incongruent","Congruent","Congruent","Congruent","Congruent","Incongruent","Congruent","Congruent","Congruent","Congruent","Congruent","Incongruent","Incongruent","Congruent","Congruent","Incongruent","Congruent","Congruent","Incongruent","Congruent","Congruent","Congruent","Incongruent","Congruent","Incongruent","Incongruent","Congruent","Congruent","Incongruent","Incongruent","Incongruent","Incongruent","Congruent","Congruent","Incongruent","Incongruent","Congruent","Incongruent","Congruent","Congruent","Incongruent","Incongruent","Congruent","Incongruent","Incongruent","Congruent","Incongruent","Incongruent","Incongruent","Incongruent","Incongruent","Incongruent","Incongruent","Incongruent","Congruent","Incongruent","Congruent","Incongruent","Congruent","Congruent"],"ratio_trial":[300,200,300,100,100,100,300,300,200,200,200,100,200,300,300,100,100,300,200,200,300,200,100,100,200,300,200,200,100,200,200,200,300,300,200,100,300,300,300,200,100,300,200,300,200,200,100,300,200,200,100,200,100,200,300,200,100,200,200,100,200,100,100,300,100,100,100,100,300,100,300,300,200,100,300,100,100,100,300,200,100,300,300,100,200,300,100,300,300,300,300,300,300,300,100,200,300,100,100,100,200,100,200,100,200,300,300,100,100,200,300,200,200,300,200,100,300,200,100,200],"left_num":[1,14,13,9,6,9,3,20,6,4,20,4,6,8,1,6,7,2,3,3,2,1,10,6,7,4,20,8,6,16,6,9,3,18,6,9,7,13,1,3,1,13,16,4,7,7,3,4,1,6,9,5,8,7,1,14,6,20,9,3,4,6,8,2,7,6,8,6,5,9,20,4,4,11,1,6,12,1,13,11,11,11,13,1,3,7,3,1,4,1,8,7,5,24,2,4,2,2,7,6,4,17,7,8,1,24,2,6,3,4,1,1,7,1,12,9,3,14,1,6],"right_num":[11,6,12,20,3,8,4,8,11,6,9,8,3,14,3,15,9,10,1,1,10,3,8,7,12,2,9,7,11,9,3,8,4,9,11,6,20,12,8,9,8,12,9,2,6,14,4,2,21,11,6,14,2,8,3,6,7,9,4,2,1,5,2,12,9,7,2,5,7,8,9,2,1,6,7,13,13,3,12,3,6,1,12,18,11,8,4,7,6,3,14,8,6,2,6,1,10,6,9,15,1,10,18,6,3,2,6,13,7,1,2,2,4,3,6,13,11,6,18,11],"left_den":[5,28,26,10,12,15,6,25,20,5,25,8,15,10,5,12,14,20,10,10,20,2,25,10,10,20,25,15,10,30,20,15,6,20,20,18,14,26,30,12,2,26,30,20,15,10,6,20,2,20,18,10,16,10,5,28,10,25,20,6,30,20,16,10,14,10,16,20,25,15,25,20,30,22,20,10,30,2,26,22,22,22,26,2,4,10,20,20,5,2,10,10,25,30,4,30,20,4,14,12,30,30,15,16,2,30,4,10,9,30,2,3,15,2,20,15,12,30,2,20],"right_den":[22,20,15,25,5,16,20,16,22,10,15,20,15,28,6,25,15,25,2,2,25,10,16,14,24,4,15,21,22,27,6,10,20,15,22,10,25,15,24,20,20,15,27,4,9,28,10,4,30,22,10,20,5,16,6,20,14,15,16,5,3,25,5,24,15,14,5,25,14,16,18,4,3,15,20,26,26,5,15,10,15,5,15,30,20,20,16,20,12,15,28,20,12,4,15,3,25,15,15,25,3,15,27,10,10,4,30,26,30,3,10,15,6,15,15,26,20,9,30,22],"correct_side":[2,1,2,1,2,1,1,1,2,1,1,1,1,1,2,2,2,2,2,2,2,1,2,1,1,2,1,1,1,1,2,2,1,1,2,2,2,2,2,2,1,2,1,2,2,1,1,2,2,2,2,2,1,1,2,1,1,1,1,1,2,1,1,2,2,1,1,1,2,1,1,2,2,1,2,1,2,2,2,1,1,1,2,2,1,1,2,2,1,1,1,1,2,1,1,2,2,1,2,2,2,2,2,2,1,1,1,1,1,2,1,1,2,1,1,1,2,2,2,2],"img_shown":["img2/300/Congruent/R/C_Dist_300_LN_1_LD_5_RN_11_RD_22_1.png","img2/200/Congruent/L/C_Dist_200_LN_14_LD_28_RN_6_RD_20_0.png","img2/300/Incongruent/R/I_Dist_300_LN_13_LD_26_RN_12_RD_15_1.png","img2/100/Incongruent/L/I_Dist_100_LN_9_LD_10_RN_20_RD_25_0.png","img2/100/Incongruent/R/I_Dist_100_LN_6_LD_12_RN_3_RD_5_1.png","img2/100/Congruent/L/C_Dist_100_LN_9_LD_15_RN_8_RD_16_0.png","img2/300/Incongruent/L/I_Dist_300_LN_3_LD_6_RN_4_RD_20_0.png","img2/300/Congruent/L/C_Dist_300_LN_20_LD_25_RN_8_RD_16_0.png","img2/200/Congruent/R/C_Dist_200_LN_6_LD_20_RN_11_RD_22_1.png","img2/200/Incongruent/L/I_Dist_200_LN_4_LD_5_RN_6_RD_10_0.png","img2/200/Congruent/L/C_Dist_200_LN_20_LD_25_RN_9_RD_15_0.png","img2/100/Incongruent/L/I_Dist_100_LN_4_LD_8_RN_8_RD_20_0.png","img2/200/Congruent/L/C_Dist_200_LN_6_LD_15_RN_3_RD_15_0.png","img2/300/Incongruent/L/I_Dist_300_LN_8_LD_10_RN_14_RD_28_0.png","img2/300/Congruent/R/C_Dist_300_LN_1_LD_5_RN_3_RD_6_1.png","img2/100/Congruent/R/C_Dist_100_LN_6_LD_12_RN_15_RD_25_1.png","img2/100/Congruent/R/C_Dist_100_LN_7_LD_14_RN_9_RD_15_1.png","img2/300/Congruent/R/C_Dist_300_LN_2_LD_20_RN_10_RD_25_1.png","img2/200/Incongruent/R/I_Dist_200_LN_3_LD_10_RN_1_RD_2_1.png","img2/200/Incongruent/R/I_Dist_200_LN_3_LD_10_RN_1_RD_2_1.png","img2/300/Congruent/R/C_Dist_300_LN_2_LD_20_RN_10_RD_25_1.png","img2/200/Incongruent/L/I_Dist_200_LN_1_LD_2_RN_3_RD_10_0.png","img2/100/Incongruent/R/I_Dist_100_LN_10_LD_25_RN_8_RD_16_1.png","img2/100/Incongruent/L/I_Dist_100_LN_6_LD_10_RN_7_RD_14_0.png","img2/200/Incongruent/L/I_Dist_200_LN_7_LD_10_RN_12_RD_24_0.png","img2/300/Incongruent/R/I_Dist_300_LN_4_LD_20_RN_2_RD_4_1.png","img2/200/Congruent/L/C_Dist_200_LN_20_LD_25_RN_9_RD_15_0.png","img2/200/Congruent/L/C_Dist_200_LN_8_LD_15_RN_7_RD_21_0.png","img2/100/Incongruent/L/I_Dist_100_LN_6_LD_10_RN_11_RD_22_0.png","img2/200/Congruent/L/C_Dist_200_LN_16_LD_30_RN_9_RD_27_0.png","img2/200/Incongruent/R/I_Dist_200_LN_6_LD_20_RN_3_RD_6_1.png","img2/200/Incongruent/R/I_Dist_200_LN_9_LD_15_RN_8_RD_10_1.png","img2/300/Incongruent/L/I_Dist_300_LN_3_LD_6_RN_4_RD_20_0.png","img2/300/Congruent/L/C_Dist_300_LN_18_LD_20_RN_9_RD_15_0.png","img2/200/Congruent/R/C_Dist_200_LN_6_LD_20_RN_11_RD_22_1.png","img2/100/Incongruent/R/I_Dist_100_LN_9_LD_18_RN_6_RD_10_1.png","img2/300/Congruent/R/C_Dist_300_LN_7_LD_14_RN_20_RD_25_1.png","img2/300/Incongruent/R/I_Dist_300_LN_13_LD_26_RN_12_RD_15_1.png","img2/300/Congruent/R/C_Dist_300_LN_1_LD_30_RN_8_RD_24_1.png","img2/200/Congruent/R/C_Dist_200_LN_3_LD_12_RN_9_RD_20_1.png","img2/100/Incongruent/L/I_Dist_100_LN_1_LD_2_RN_8_RD_20_0.png","img2/300/Incongruent/R/I_Dist_300_LN_13_LD_26_RN_12_RD_15_1.png","img2/200/Congruent/L/C_Dist_200_LN_16_LD_30_RN_9_RD_27_0.png","img2/300/Incongruent/R/I_Dist_300_LN_4_LD_20_RN_2_RD_4_1.png","img2/200/Incongruent/R/I_Dist_200_LN_7_LD_15_RN_6_RD_9_1.png","img2/200/Incongruent/L/I_Dist_200_LN_7_LD_10_RN_14_RD_28_0.png","img2/100/Incongruent/L/I_Dist_100_LN_3_LD_6_RN_4_RD_10_0.png","img2/300/Incongruent/R/I_Dist_300_LN_4_LD_20_RN_2_RD_4_1.png","img2/200/Congruent/R/C_Dist_200_LN_1_LD_2_RN_21_RD_30_1.png","img2/200/Congruent/R/C_Dist_200_LN_6_LD_20_RN_11_RD_22_1.png","img2/100/Incongruent/R/I_Dist_100_LN_9_LD_18_RN_6_RD_10_1.png","img2/200/Congruent/R/C_Dist_200_LN_5_LD_10_RN_14_RD_20_1.png","img2/100/Congruent/L/C_Dist_100_LN_8_LD_16_RN_2_RD_5_0.png","img2/200/Incongruent/L/I_Dist_200_LN_7_LD_10_RN_8_RD_16_0.png","img2/300/Congruent/R/C_Dist_300_LN_1_LD_5_RN_3_RD_6_1.png","img2/200/Congruent/L/C_Dist_200_LN_14_LD_28_RN_6_RD_20_0.png","img2/100/Incongruent/L/I_Dist_100_LN_6_LD_10_RN_7_RD_14_0.png","img2/200/Congruent/L/C_Dist_200_LN_20_LD_25_RN_9_RD_15_0.png","img2/200/Congruent/L/C_Dist_200_LN_9_LD_20_RN_4_RD_16_0.png","img2/100/Congruent/L/C_Dist_100_LN_3_LD_6_RN_2_RD_5_0.png","img2/200/Incongruent/R/I_Dist_200_LN_4_LD_30_RN_1_RD_3_1.png","img2/100/Congruent/L/C_Dist_100_LN_6_LD_20_RN_5_RD_25_0.png","img2/100/Congruent/L/C_Dist_100_LN_8_LD_16_RN_2_RD_5_0.png","img2/300/Congruent/R/C_Dist_300_LN_2_LD_10_RN_12_RD_24_1.png","img2/100/Congruent/R/C_Dist_100_LN_7_LD_14_RN_9_RD_15_1.png","img2/100/Incongruent/L/I_Dist_100_LN_6_LD_10_RN_7_RD_14_0.png","img2/100/Congruent/L/C_Dist_100_LN_8_LD_16_RN_2_RD_5_0.png","img2/100/Congruent/L/C_Dist_100_LN_6_LD_20_RN_5_RD_25_0.png","img2/300/Congruent/R/C_Dist_300_LN_5_LD_25_RN_7_RD_14_1.png","img2/100/Congruent/L/C_Dist_100_LN_9_LD_15_RN_8_RD_16_0.png","img2/300/Congruent/L/C_Dist_300_LN_20_LD_25_RN_9_RD_18_0.png","img2/300/Incongruent/R/I_Dist_300_LN_4_LD_20_RN_2_RD_4_1.png","img2/200/Incongruent/R/I_Dist_200_LN_4_LD_30_RN_1_RD_3_1.png","img2/100/Congruent/L/C_Dist_100_LN_11_LD_22_RN_6_RD_15_0.png","img2/300/Congruent/R/C_Dist_300_LN_1_LD_20_RN_7_RD_20_1.png","img2/100/Incongruent/L/I_Dist_100_LN_6_LD_10_RN_13_RD_26_0.png","img2/100/Congruent/R/C_Dist_100_LN_12_LD_30_RN_13_RD_26_1.png","img2/100/Congruent/R/C_Dist_100_LN_1_LD_2_RN_3_RD_5_1.png","img2/300/Incongruent/R/I_Dist_300_LN_13_LD_26_RN_12_RD_15_1.png","img2/200/Congruent/L/C_Dist_200_LN_11_LD_22_RN_3_RD_10_0.png","img2/100/Congruent/L/C_Dist_100_LN_11_LD_22_RN_6_RD_15_0.png","img2/300/Congruent/L/C_Dist_300_LN_11_LD_22_RN_1_RD_5_0.png","img2/300/Incongruent/R/I_Dist_300_LN_13_LD_26_RN_12_RD_15_1.png","img2/100/Congruent/R/C_Dist_100_LN_1_LD_2_RN_18_RD_30_1.png","img2/200/Incongruent/L/I_Dist_200_LN_3_LD_4_RN_11_RD_20_0.png","img2/300/Incongruent/L/I_Dist_300_LN_7_LD_10_RN_8_RD_20_0.png","img2/100/Congruent/R/C_Dist_100_LN_3_LD_20_RN_4_RD_16_1.png","img2/300/Congruent/R/C_Dist_300_LN_1_LD_20_RN_7_RD_20_1.png","img2/300/Incongruent/L/I_Dist_300_LN_4_LD_5_RN_6_RD_12_0.png","img2/300/Incongruent/L/I_Dist_300_LN_1_LD_2_RN_3_RD_15_0.png","img2/300/Incongruent/L/I_Dist_300_LN_8_LD_10_RN_14_RD_28_0.png","img2/300/Incongruent/L/I_Dist_300_LN_7_LD_10_RN_8_RD_20_0.png","img2/300/Congruent/R/C_Dist_300_LN_5_LD_25_RN_6_RD_12_1.png","img2/300/Congruent/L/C_Dist_300_LN_24_LD_30_RN_2_RD_4_0.png","img2/100/Incongruent/L/I_Dist_100_LN_2_LD_4_RN_6_RD_15_0.png","img2/200/Incongruent/R/I_Dist_200_LN_4_LD_30_RN_1_RD_3_1.png","img2/300/Congruent/R/C_Dist_300_LN_2_LD_20_RN_10_RD_25_1.png","img2/100/Incongruent/L/I_Dist_100_LN_2_LD_4_RN_6_RD_15_0.png","img2/100/Congruent/R/C_Dist_100_LN_7_LD_14_RN_9_RD_15_1.png","img2/100/Congruent/R/C_Dist_100_LN_6_LD_12_RN_15_RD_25_1.png","img2/200/Incongruent/R/I_Dist_200_LN_4_LD_30_RN_1_RD_3_1.png","img2/100/Incongruent/R/I_Dist_100_LN_17_LD_30_RN_10_RD_15_1.png","img2/200/Congruent/R/C_Dist_200_LN_7_LD_15_RN_18_RD_27_1.png","img2/100/Incongruent/R/I_Dist_100_LN_8_LD_16_RN_6_RD_10_1.png","img2/200/Incongruent/L/I_Dist_200_LN_1_LD_2_RN_3_RD_10_0.png","img2/300/Congruent/L/C_Dist_300_LN_24_LD_30_RN_2_RD_4_0.png","img2/300/Incongruent/L/I_Dist_300_LN_2_LD_4_RN_6_RD_30_0.png","img2/100/Incongruent/L/I_Dist_100_LN_6_LD_10_RN_13_RD_26_0.png","img2/100/Incongruent/L/I_Dist_100_LN_3_LD_9_RN_7_RD_30_0.png","img2/200/Incongruent/R/I_Dist_200_LN_4_LD_30_RN_1_RD_3_1.png","img2/300/Incongruent/L/I_Dist_300_LN_1_LD_2_RN_2_RD_10_0.png","img2/200/Incongruent/L/I_Dist_200_LN_1_LD_3_RN_2_RD_15_0.png","img2/200/Incongruent/R/I_Dist_200_LN_7_LD_15_RN_4_RD_6_1.png","img2/300/Incongruent/L/I_Dist_300_LN_1_LD_2_RN_3_RD_15_0.png","img2/200/Congruent/L/C_Dist_200_LN_12_LD_20_RN_6_RD_15_0.png","img2/100/Incongruent/L/I_Dist_100_LN_9_LD_15_RN_13_RD_26_0.png","img2/300/Congruent/R/C_Dist_300_LN_3_LD_12_RN_11_RD_20_1.png","img2/200/Incongruent/R/I_Dist_200_LN_14_LD_30_RN_6_RD_9_1.png","img2/100/Congruent/R/C_Dist_100_LN_1_LD_2_RN_18_RD_30_1.png","img2/200/Congruent/R/C_Dist_200_LN_6_LD_20_RN_11_RD_22_1.png"],"dist100_C":[["C_Dist_100_LN_10_LD_25_RN_3_RD_10_0.png","C_Dist_100_LN_11_LD_22_RN_4_RD_10_0.png","C_Dist_100_LN_11_LD_22_RN_6_RD_15_0.png","C_Dist_100_LN_15_LD_25_RN_13_RD_26_0.png","C_Dist_100_LN_3_LD_6_RN_2_RD_5_0.png","C_Dist_100_LN_6_LD_20_RN_5_RD_25_0.png","C_Dist_100_LN_8_LD_16_RN_2_RD_5_0.png","C_Dist_100_LN_9_LD_15_RN_8_RD_16_0.png"],["C_Dist_100_LN_1_LD_2_RN_18_RD_30_1.png","C_Dist_100_LN_1_LD_2_RN_3_RD_5_1.png","C_Dist_100_LN_12_LD_30_RN_13_RD_26_1.png","C_Dist_100_LN_2_LD_5_RN_11_RD_22_1.png","C_Dist_100_LN_2_LD_5_RN_6_RD_12_1.png","C_Dist_100_LN_3_LD_20_RN_4_RD_16_1.png","C_Dist_100_LN_4_LD_10_RN_15_RD_30_1.png","C_Dist_100_LN_4_LD_8_RN_6_RD_10_1.png","C_Dist_100_LN_6_LD_12_RN_15_RD_25_1.png","C_Dist_100_LN_7_LD_14_RN_15_RD_25_1.png","C_Dist_100_LN_7_LD_14_RN_9_RD_15_1.png"]],"dist100_I":[["I_Dist_100_LN_1_LD_2_RN_8_RD_20_0.png","I_Dist_100_LN_2_LD_4_RN_6_RD_15_0.png","I_Dist_100_LN_2_LD_4_RN_8_RD_20_0.png","I_Dist_100_LN_3_LD_5_RN_11_RD_22_0.png","I_Dist_100_LN_3_LD_5_RN_8_RD_16_0.png","I_Dist_100_LN_3_LD_6_RN_4_RD_10_0.png","I_Dist_100_LN_3_LD_9_RN_7_RD_30_0.png","I_Dist_100_LN_4_LD_8_RN_8_RD_20_0.png","I_Dist_100_LN_6_LD_10_RN_11_RD_22_0.png","I_Dist_100_LN_6_LD_10_RN_13_RD_26_0.png","I_Dist_100_LN_6_LD_10_RN_7_RD_14_0.png","I_Dist_100_LN_9_LD_10_RN_20_RD_25_0.png","I_Dist_100_LN_9_LD_15_RN_13_RD_26_0.png","I_Dist_100_LN_9_LD_15_RN_14_RD_28_0.png"],["I_Dist_100_LN_10_LD_25_RN_8_RD_16_1.png","I_Dist_100_LN_10_LD_25_RN_9_RD_18_1.png","I_Dist_100_LN_11_LD_22_RN_9_RD_15_1.png","I_Dist_100_LN_12_LD_24_RN_9_RD_15_1.png","I_Dist_100_LN_12_LD_30_RN_2_RD_4_1.png","I_Dist_100_LN_13_LD_26_RN_12_RD_20_1.png","I_Dist_100_LN_13_LD_26_RN_6_RD_10_1.png","I_Dist_100_LN_17_LD_30_RN_10_RD_15_1.png","I_Dist_100_LN_6_LD_12_RN_3_RD_5_1.png","I_Dist_100_LN_8_LD_16_RN_6_RD_10_1.png","I_Dist_100_LN_8_LD_20_RN_1_RD_2_1.png","I_Dist_100_LN_9_LD_18_RN_6_RD_10_1.png"]],"dist100_S":[["E_Dist_100_LN_2_LD_12_RN_2_RD_30_0.png","E_Dist_100_LN_6_LD_10_RN_6_RD_12_0.png"],["E_Dist_100_LN_6_LD_12_RN_6_RD_10_1.png"]],"dist200_C":[["C_Dist_200_LN_11_LD_22_RN_3_RD_10_0.png","C_Dist_200_LN_12_LD_15_RN_6_RD_10_0.png","C_Dist_200_LN_12_LD_20_RN_6_RD_15_0.png","C_Dist_200_LN_14_LD_28_RN_6_RD_20_0.png","C_Dist_200_LN_15_LD_25_RN_4_RD_10_0.png","C_Dist_200_LN_16_LD_20_RN_12_RD_20_0.png","C_Dist_200_LN_16_LD_30_RN_9_RD_27_0.png","C_Dist_200_LN_20_LD_25_RN_9_RD_15_0.png","C_Dist_200_LN_21_LD_30_RN_2_RD_4_0.png","C_Dist_200_LN_4_LD_10_RN_3_RD_15_0.png","C_Dist_200_LN_4_LD_8_RN_3_RD_10_0.png","C_Dist_200_LN_6_LD_15_RN_3_RD_15_0.png","C_Dist_200_LN_7_LD_21_RN_2_RD_15_0.png","C_Dist_200_LN_8_LD_15_RN_2_RD_6_0.png","C_Dist_200_LN_8_LD_15_RN_3_RD_9_0.png","C_Dist_200_LN_8_LD_15_RN_7_RD_21_0.png","C_Dist_200_LN_9_LD_20_RN_4_RD_16_0.png"],["C_Dist_200_LN_1_LD_2_RN_21_RD_30_1.png","C_Dist_200_LN_13_LD_26_RN_14_RD_20_1.png","C_Dist_200_LN_3_LD_10_RN_11_RD_22_1.png","C_Dist_200_LN_3_LD_10_RN_14_RD_28_1.png","C_Dist_200_LN_3_LD_10_RN_7_RD_14_1.png","C_Dist_200_LN_3_LD_12_RN_9_RD_20_1.png","C_Dist_200_LN_3_LD_6_RN_14_RD_20_1.png","C_Dist_200_LN_5_LD_10_RN_14_RD_20_1.png","C_Dist_200_LN_6_LD_12_RN_7_RD_10_1.png","C_Dist_200_LN_6_LD_20_RN_11_RD_22_1.png","C_Dist_200_LN_7_LD_15_RN_18_RD_27_1.png","C_Dist_200_LN_9_LD_30_RN_13_RD_26_1.png"]],"dist200_I":[["I_Dist_200_LN_1_LD_2_RN_3_RD_10_0.png","I_Dist_200_LN_1_LD_3_RN_2_RD_15_0.png","I_Dist_200_LN_3_LD_4_RN_11_RD_20_0.png","I_Dist_200_LN_4_LD_5_RN_6_RD_10_0.png","I_Dist_200_LN_4_LD_6_RN_14_RD_30_0.png","I_Dist_200_LN_7_LD_10_RN_12_RD_24_0.png","I_Dist_200_LN_7_LD_10_RN_14_RD_28_0.png","I_Dist_200_LN_7_LD_10_RN_8_RD_16_0.png"],["I_Dist_200_LN_11_LD_20_RN_3_RD_4_1.png","I_Dist_200_LN_14_LD_30_RN_12_RD_18_1.png","I_Dist_200_LN_14_LD_30_RN_6_RD_9_1.png","I_Dist_200_LN_3_LD_10_RN_1_RD_2_1.png","I_Dist_200_LN_4_LD_30_RN_1_RD_3_1.png","I_Dist_200_LN_6_LD_20_RN_3_RD_6_1.png","I_Dist_200_LN_7_LD_15_RN_4_RD_6_1.png","I_Dist_200_LN_7_LD_15_RN_6_RD_9_1.png","I_Dist_200_LN_9_LD_15_RN_8_RD_10_1.png"]],"dist200_S":[["E_Dist_200_LN_3_LD_6_RN_3_RD_10_0.png"],["E_Dist_200_LN_3_LD_10_RN_3_RD_6_1.png"]],"dist300_C":[["C_Dist_300_LN_11_LD_22_RN_1_RD_5_0.png","C_Dist_300_LN_11_LD_22_RN_2_RD_10_0.png","C_Dist_300_LN_11_LD_22_RN_4_RD_20_0.png","C_Dist_300_LN_12_LD_24_RN_2_RD_10_0.png","C_Dist_300_LN_18_LD_20_RN_9_RD_15_0.png","C_Dist_300_LN_20_LD_25_RN_13_RD_26_0.png","C_Dist_300_LN_20_LD_25_RN_14_RD_28_0.png","C_Dist_300_LN_20_LD_25_RN_5_RD_10_0.png","C_Dist_300_LN_20_LD_25_RN_8_RD_16_0.png","C_Dist_300_LN_20_LD_25_RN_9_RD_18_0.png","C_Dist_300_LN_24_LD_30_RN_2_RD_4_0.png","C_Dist_300_LN_24_LD_30_RN_8_RD_16_0.png","C_Dist_300_LN_3_LD_6_RN_2_RD_10_0.png","C_Dist_300_LN_4_LD_10_RN_1_RD_10_0.png","C_Dist_300_LN_4_LD_5_RN_2_RD_4_0.png","C_Dist_300_LN_8_LD_16_RN_1_RD_5_0.png","C_Dist_300_LN_9_LD_10_RN_3_RD_5_0.png"],["C_Dist_300_LN_1_LD_20_RN_7_RD_20_1.png","C_Dist_300_LN_1_LD_3_RN_19_RD_30_1.png","C_Dist_300_LN_1_LD_30_RN_8_RD_24_1.png","C_Dist_300_LN_1_LD_5_RN_11_RD_22_1.png","C_Dist_300_LN_1_LD_5_RN_3_RD_6_1.png","C_Dist_300_LN_1_LD_5_RN_6_RD_12_1.png","C_Dist_300_LN_2_LD_10_RN_12_RD_24_1.png","C_Dist_300_LN_2_LD_20_RN_10_RD_25_1.png","C_Dist_300_LN_3_LD_12_RN_11_RD_20_1.png","C_Dist_300_LN_3_LD_6_RN_4_RD_5_1.png","C_Dist_300_LN_4_LD_20_RN_13_RD_26_1.png","C_Dist_300_LN_5_LD_25_RN_6_RD_12_1.png","C_Dist_300_LN_5_LD_25_RN_7_RD_14_1.png","C_Dist_300_LN_7_LD_14_RN_20_RD_25_1.png","C_Dist_300_LN_8_LD_15_RN_10_RD_12_1.png"]],"dist300_I":[["I_Dist_300_LN_1_LD_2_RN_2_RD_10_0.png","I_Dist_300_LN_1_LD_2_RN_3_RD_15_0.png","I_Dist_300_LN_2_LD_4_RN_6_RD_30_0.png","I_Dist_300_LN_3_LD_6_RN_4_RD_20_0.png","I_Dist_300_LN_4_LD_5_RN_6_RD_12_0.png","I_Dist_300_LN_4_LD_5_RN_8_RD_16_0.png","I_Dist_300_LN_7_LD_10_RN_8_RD_20_0.png","I_Dist_300_LN_8_LD_10_RN_14_RD_28_0.png","I_Dist_300_LN_8_LD_10_RN_9_RD_18_0.png"],["I_Dist_300_LN_13_LD_26_RN_12_RD_15_1.png","I_Dist_300_LN_4_LD_20_RN_2_RD_4_1.png"]],"dist300_S":[["E_Dist_300_LN_9_LD_12_RN_9_RD_20_0.png"],["E_Dist_300_LN_18_LD_30_RN_18_RD_20_1.png","E_Dist_300_LN_3_LD_10_RN_3_RD_5_1.png","E_Dist_300_LN_9_LD_20_RN_9_RD_12_1.png"]],"dist500_C":[["C_Dist_500_LN_10_LD_13_RN_7_RD_26_0.png","C_Dist_500_LN_10_LD_15_RN_4_RD_24_0.png","C_Dist_500_LN_12_LD_16_RN_3_RD_12_0.png","C_Dist_500_LN_12_LD_18_RN_4_RD_24_0.png","C_Dist_500_LN_15_LD_18_RN_5_RD_15_0.png","C_Dist_500_LN_15_LD_20_RN_1_RD_4_0.png","C_Dist_500_LN_18_LD_27_RN_1_RD_6_0.png","C_Dist_500_LN_20_LD_24_RN_1_RD_3_0.png","C_Dist_500_LN_20_LD_24_RN_3_RD_9_0.png","C_Dist_500_LN_20_LD_24_RN_7_RD_21_0.png","C_Dist_500_LN_20_LD_28_RN_3_RD_14_0.png","C_Dist_500_LN_21_LD_28_RN_6_RD_24_0.png","C_Dist_500_LN_22_LD_28_RN_2_RD_7_0.png","C_Dist_500_LN_25_LD_30_RN_9_RD_27_0.png","C_Dist_500_LN_4_LD_6_RN_1_RD_6_0.png","C_Dist_500_LN_5_LD_6_RN_2_RD_6_0.png","C_Dist_500_LN_6_LD_9_RN_1_RD_6_0.png","C_Dist_500_LN_7_LD_10_RN_1_RD_5_0.png","C_Dist_500_LN_8_LD_12_RN_1_RD_6_0.png","C_Dist_500_LN_8_LD_12_RN_4_RD_24_0.png"],["C_Dist_500_LN_1_LD_4_RN_12_RD_16_1.png","C_Dist_500_LN_1_LD_4_RN_9_RD_12_1.png","C_Dist_500_LN_1_LD_9_RN_11_RD_18_1.png","C_Dist_500_LN_10_LD_24_RN_22_RD_24_1.png","C_Dist_500_LN_2_LD_12_RN_10_RD_15_1.png","C_Dist_500_LN_2_LD_12_RN_12_RD_18_1.png","C_Dist_500_LN_2_LD_12_RN_4_RD_6_1.png","C_Dist_500_LN_2_LD_24_RN_7_RD_12_1.png","C_Dist_500_LN_2_LD_5_RN_18_RD_20_1.png","C_Dist_500_LN_2_LD_5_RN_9_RD_10_1.png","C_Dist_500_LN_2_LD_8_RN_12_RD_16_1.png","C_Dist_500_LN_2_LD_8_RN_21_RD_28_1.png","C_Dist_500_LN_3_LD_10_RN_4_RD_5_1.png","C_Dist_500_LN_3_LD_12_RN_15_RD_20_1.png","C_Dist_500_LN_3_LD_30_RN_6_RD_10_1.png","C_Dist_500_LN_3_LD_8_RN_14_RD_16_1.png","C_Dist_500_LN_4_LD_16_RN_15_RD_20_1.png","C_Dist_500_LN_4_LD_24_RN_12_RD_18_1.png","C_Dist_500_LN_5_LD_14_RN_6_RD_7_1.png","C_Dist_500_LN_7_LD_21_RN_20_RD_24_1.png","C_Dist_500_LN_7_LD_28_RN_12_RD_16_1.png","C_Dist_500_LN_7_LD_28_RN_9_RD_12_1.png","C_Dist_500_LN_9_LD_27_RN_20_RD_24_1.png"]],"dist500_I":[["I_Dist_500_LN_2_LD_3_RN_4_RD_24_0.png","I_Dist_500_LN_5_LD_6_RN_6_RD_18_0.png","I_Dist_500_LN_7_LD_8_RN_9_RD_24_0.png"],["I_Dist_500_LN_7_LD_21_RN_5_RD_6_1.png"]],"dist500_S":[["E_Dist_500_LN_6_LD_8_RN_6_RD_24_0.png"],["E_Dist_500_LN_2_LD_12_RN_2_RD_3_1.png","E_Dist_500_LN_6_LD_24_RN_6_RD_8_1.png"]]}},{"start_time":1551900022554,"click_time":1551900024644,"finger_time":1551900024023,"fix_duration":288.05801326183564,"trial":1,"RT":1469,"MT":621,"sideResp":1,"stimulus":[],"xmouse":[793,793,793,793,793,793,793,793,793,793,793,793,793,793,793,793,793,793,793,793,793,793,793,793,793,793,793,793,793,793,793,793,793,793,793,793,793,793,793,793,793,793,793,793,793,793,793,793,793,793,793,793,793,793,793,793,793,793,793,793,793,793,793,793,793,793,793,794,795,806,812,813,808,780,778,778,773,770,763,758,745,722,692,665,638,636,635,633,632,622,610,597,591,580,571,565,562,561,558,547,539,531,526,519],"ymouse":[622,622,622,622,622,622,622,622,622,622,622,622,622,622,622,622,622,622,622,622,622,622,622,622,622,622,622,622,622,622,622,622,622,622,622,622,622,622,622,622,622,622,622,622,622,622,622,622,622,622,622,622,622,622,622,622,622,622,622,622,622,622,622,622,622,622,622,622,623,624,624,616,570,334,276,240,210,185,140,102,46,0,0,0,0,0,1,2,3,5,7,12,15,20,22,23,23,23,23,25,26,29,31,35],"timestamp_mouse":[10,52,70,89,110,130,150,169,190,210,230,249,271,289,311,330,349,370,389,409,429,449,469,491,509,531,550,569,591,609,630,649,669,689,711,731,749,769,789,810,829,849,869,889,909,930,949,970,990,1011,1029,1049,1069,1090,1109,1129,1149,1170,1191,1209,1230,1249,1269,1290,1309,1329,1350,1370,1390,1410,1429,1449,1469,1490,1509,1529,1549,1570,1590,1609,1630,1650,1671,1690,1711,1730,1751,1770,1790,1809,1829,1849,1869,1890,1909,1929,1950,1969,1990,2009,2029,2050,2070,2090],"xSR":741.5,"ySR":573.95,"xT1":424.9,"yT1":0,"xT2":1058.1,"yT2":0,"toosoon":0,"cond_shown":"Congruent","ratio_trial":200,"L_num":14,"L_den":28,"R_num":6,"R_den":20,"correct_side":1,"subjID":"NataliaErazo26","gender":"1","school":"6","age":"11"},{"start_time":1551900026562,"click_time":1551900028823,"finger_time":1551900027963,"fix_duration":577.5488105407029,"trial":2,"RT":1401,"MT":860,"sideResp":2,"stimulus":[],"xmouse":[794,794,794,794,794,794,794,794,794,794,794,794,794,794,794,794,794,794,794,794,794,794,794,794,794,794,794,794,794,794,794,794,794,794,794,794,794,794,794,794,794,794,794,794,794,794,794,794,794,794,794,794,794,794,794,794,794,794,794,794,794,794,794,794,795,803,806,811,816,826,851,858,863,868,873,890,902,913,926,937,957,967,982,994,1004,1016,1021,1027,1033,1040,1048,1049,1050,1054,1058,1067,1070,1071,1071,1071,1071,1077,1078,1078,1078,1078,1078,1080,1081,1081,1081,1081,1081,1081],"ymouse":[651,651,651,651,651,651,651,651,651,651,651,651,651,651,651,651,651,651,651,651,651,651,651,651,651,651,651,651,651,651,651,651,651,651,651,651,651,651,651,651,651,651,651,651,651,651,651,651,651,651,651,651,651,651,651,651,651,651,651,651,651,651,651,651,651,642,637,629,619,609,587,576,567,558,549,520,505,492,477,463,437,421,400,385,369,346,335,319,306,294,279,273,265,250,243,225,218,211,201,191,167,153,144,135,126,113,111,109,108,107,104,102,100,98],"timestamp_mouse":[11,35,43,61,82,102,121,143,161,181,201,223,241,262,283,301,321,343,362,381,401,421,441,462,483,502,521,541,561,582,602,621,642,662,681,701,721,743,761,782,801,821,841,861,881,902,921,942,961,982,1001,1022,1042,1062,1082,1103,1121,1142,1162,1183,1201,1222,1242,1261,1281,1301,1322,1343,1362,1382,1401,1421,1442,1462,1482,1501,1522,1541,1561,1583,1601,1622,1641,1662,1681,1701,1722,1741,1761,1782,1801,1822,1841,1861,1881,1901,1922,1941,1962,1982,2001,2021,2041,2061,2083,2101,2122,2143,2162,2181,2201,2222,2241,2261],"xSR":741.5,"ySR":573.95,"xT1":424.9,"yT1":0,"xT2":1058.1,"yT2":0,"toosoon":0,"cond_shown":"Incongruent","ratio_trial":300,"L_num":13,"L_den":26,"R_num":12,"R_den":15,"correct_side":2,"subjID":"NataliaErazo26","gender":"1","school":"6","age":"11"},{"start_time":1551900031395,"click_time":1551900033404,"finger_time":1551900032823,"fix_duration":1371.9466433032783,"trial":3,"RT":1428,"MT":581,"sideResp":1,"stimulus":[],"xmouse":[801,801,801,801,801,801,801,801,801,801,801,801,801,801,801,801,801,801,801,801,801,801,801,801,801,801,801,801,801,801,801,801,801,801,801,801,801,801,801,801,801,801,801,801,801,801,801,801,801,801,801,801,801,801,801,801,801,801,801,801,801,801,801,801,801,801,801,801,792,781,772,760,748,725,711,693,681,665,661,634,627,622,620,616,604,596,590,584,577,567,562,558,555,552,548,547,545,544,542,526,520],"ymouse":[627,627,627,627,627,627,627,627,627,627,627,627,627,627,627,627,627,627,627,627,627,627,627,627,627,627,627,627,627,627,627,627,627,627,627,627,627,627,627,627,627,627,627,627,627,627,627,627,627,627,627,627,627,627,627,627,627,627,627,627,627,627,627,627,627,627,627,626,614,598,584,565,547,512,491,462,438,402,391,334,314,292,271,254,226,210,196,182,169,159,155,151,146,143,136,134,130,127,122,95,84],"timestamp_mouse":[8,40,49,70,89,109,128,149,168,188,210,228,248,268,288,309,328,348,370,389,408,428,449,469,489,510,529,549,569,589,609,630,648,668,688,708,729,748,768,789,808,829,848,869,889,909,928,948,968,989,1008,1029,1048,1068,1089,1109,1128,1148,1170,1188,1209,1229,1248,1269,1290,1309,1329,1350,1370,1388,1408,1428,1450,1470,1488,1508,1529,1549,1569,1589,1609,1629,1649,1669,1689,1708,1729,1749,1768,1789,1808,1828,1848,1869,1889,1908,1929,1948,1969,1988,2008],"xSR":741.5,"ySR":573.95,"xT1":424.9,"yT1":0,"xT2":1058.1,"yT2":0,"toosoon":0,"cond_shown":"Incongruent","ratio_trial":100,"L_num":9,"L_den":10,"R_num":20,"R_den":25,"correct_side":1,"subjID":"NataliaErazo26","gender":"1","school":"6","age":"11"},{"start_time":1551900035798,"click_time":1551900037664,"finger_time":1551900037183,"fix_duration":1172.2081755732695,"trial":4,"RT":1385,"MT":481,"sideResp":1,"stimulus":[],"xmouse":[796,796,796,796,796,796,796,796,796,796,796,796,796,796,796,796,796,796,796,796,796,796,796,796,796,796,796,796,796,796,796,796,796,796,796,796,796,796,796,796,796,796,796,796,796,796,796,796,796,796,796,796,796,796,796,796,796,796,796,796,796,796,796,796,796,792,785,777,771,756,749,744,738,732,714,703,692,682,671,645,632,624,619,615,607,600,593,588,584,567,555,540,526,516],"ymouse":[629,629,629,629,629,629,629,629,629,629,629,629,629,629,629,629,629,629,629,629,629,629,629,629,629,629,629,629,629,629,629,629,629,629,629,629,629,629,629,629,629,629,629,629,629,629,629,629,629,629,629,629,629,629,629,629,629,629,629,629,629,629,629,629,629,618,602,586,574,551,537,525,511,495,464,447,421,399,378,331,308,291,276,264,242,227,209,196,181,135,104,71,41,18],"timestamp_mouse":[8,36,45,65,86,107,126,145,166,185,206,226,246,267,285,306,327,346,366,386,407,426,446,467,486,507,525,546,566,585,605,626,646,665,686,705,725,745,767,786,806,826,845,865,886,906,926,947,966,985,1005,1026,1046,1066,1086,1106,1125,1145,1165,1187,1206,1226,1247,1265,1286,1306,1325,1346,1365,1385,1405,1425,1445,1467,1486,1505,1525,1546,1565,1585,1605,1626,1646,1667,1686,1706,1725,1745,1765,1785,1806,1825,1846,1866],"xSR":741.5,"ySR":573.95,"xT1":424.9,"yT1":0,"xT2":1058.1,"yT2":0,"toosoon":0,"cond_shown":"Incongruent","ratio_trial":100,"L_num":6,"L_den":12,"R_num":3,"R_den":5,"correct_side":2,"subjID":"NataliaErazo26","gender":"1","school":"6","age":"11"},{"start_time":1551900040279,"click_time":1551900042703,"finger_time":1551900041985,"fix_duration":1015.9643697405775,"trial":5,"RT":1706,"MT":718,"sideResp":1,"stimulus":[],"xmouse":[814,814,814,814,814,814,814,814,814,814,814,814,814,814,814,814,814,814,814,814,814,814,814,814,814,814,814,814,814,814,814,814,814,814,814,814,814,814,814,814,814,814,814,814,814,814,814,814,814,814,814,814,814,814,814,814,814,814,814,814,814,814,814,814,814,814,814,814,814,814,814,814,814,814,814,814,814,814,814,814,814,814,814,813,811,802,798,793,790,784,782,775,767,756,746,719,704,691,679,669,660,643,634,626,614,603,575,564,552,542,533,531,530,528,527,526,525,525,525,525,525,523],"ymouse":[586,586,586,586,586,586,586,586,586,586,586,586,586,586,586,586,586,586,586,586,586,586,586,586,586,586,586,586,586,586,586,586,586,586,586,586,586,586,586,586,586,586,586,586,586,586,586,586,586,586,586,586,586,586,586,586,586,586,586,586,586,586,586,586,586,586,586,586,586,586,586,586,586,586,586,586,586,586,586,586,586,586,586,587,580,564,560,557,554,550,548,536,527,511,490,429,389,357,332,307,284,234,215,193,171,147,99,83,68,57,47,45,44,41,39,38,37,37,37,37,37,36],"timestamp_mouse":[10,25,47,64,84,105,124,145,164,185,204,225,244,264,285,304,325,345,365,384,405,424,444,464,484,504,524,544,566,585,604,625,644,664,686,705,725,744,764,785,805,824,845,865,884,906,926,945,964,986,1004,1025,1046,1065,1084,1106,1124,1145,1164,1185,1205,1226,1245,1264,1284,1304,1324,1345,1365,1386,1405,1425,1446,1465,1485,1505,1525,1545,1565,1585,1605,1625,1644,1665,1684,1706,1724,1744,1766,1785,1805,1824,1844,1864,1884,1906,1924,1944,1966,1984,2004,2024,2044,2064,2084,2105,2125,2144,2164,2184,2204,2225,2245,2264,2285,2306,2325,2344,2364,2385,2405,2424],"xSR":741.5,"ySR":573.95,"xT1":424.9,"yT1":0,"xT2":1058.1,"yT2":0,"toosoon":0,"cond_shown":"Congruent","ratio_trial":100,"L_num":9,"L_den":15,"R_num":8,"R_den":16,"correct_side":1,"subjID":"NataliaErazo26","gender":"1","school":"6","age":"11"},{"start_time":1551900044657,"click_time":1551900047504,"finger_time":1551900045583,"fix_duration":632.5051290405855,"trial":6,"RT":926,"MT":1921,"sideResp":1,"stimulus":[],"xmouse":[791,791,791,791,791,791,791,791,791,791,791,791,791,791,791,791,791,791,791,791,791,791,791,791,791,791,791,791,791,791,791,791,791,791,791,791,791,791,791,791,791,791,791,787,765,744,730,727,727,727,727,727,727,726,726,725,724,721,718,714,710,703,691,682,677,674,673,672,672,672,672,672,672,672,672,672,672,672,672,672,672,672,672,672,672,672,672,672,672,672,672,672,672,672,672,672,672,672,672,672,672,672,672,672,672,672,672,672,672,672,672,672,672,672,671,670,667,663,645,635,625,615,609,598,596,594,590,582,572,563,551,542,532,528,526,525,524,523,521,520,518,517,517],"ymouse":[630,630,630,630,630,630,630,630,630,630,630,630,630,630,630,630,630,630,630,630,630,630,630,630,630,630,630,630,630,630,630,630,630,630,630,630,630,630,630,630,630,630,630,628,609,597,594,594,594,594,594,594,594,594,594,593,592,589,585,579,572,561,531,518,507,502,499,498,498,498,498,498,498,498,498,498,498,498,498,498,498,498,498,498,498,498,498,498,498,498,498,498,498,498,498,498,498,498,498,498,498,498,498,498,498,498,498,498,498,498,498,498,498,497,496,494,490,482,440,415,392,370,355,331,323,318,305,276,242,220,191,166,137,129,124,121,119,114,110,105,102,100,99],"timestamp_mouse":[8,37,46,68,86,108,126,146,167,187,206,228,247,267,287,307,327,346,368,386,407,427,446,467,486,508,526,546,567,587,608,628,648,667,687,706,726,746,767,787,806,828,846,867,887,908,926,947,966,988,1006,1027,1047,1067,1086,1107,1128,1147,1166,1187,1206,1226,1246,1267,1287,1308,1328,1346,1366,1387,1408,1428,1447,1466,1486,1507,1528,1546,1566,1587,1607,1628,1647,1667,1688,1706,1727,1747,1767,1787,1807,1826,1846,1867,1887,1906,1927,1948,1968,1986,2007,2027,2047,2068,2087,2106,2128,2147,2167,2187,2206,2227,2247,2267,2287,2307,2328,2347,2367,2387,2407,2427,2447,2467,2487,2508,2527,2546,2566,2586,2608,2628,2647,2666,2686,2707,2727,2747,2767,2787,2808,2827,2847],"xSR":741.5,"ySR":573.95,"xT1":424.9,"yT1":0,"xT2":1058.1,"yT2":0,"toosoon":0,"cond_shown":"Incongruent","ratio_trial":300,"L_num":3,"L_den":6,"R_num":4,"R_den":20,"correct_side":1,"subjID":"NataliaErazo26","gender":"1","school":"6","age":"11"},{"start_time":1551900050030,"click_time":1551900051425,"finger_time":1551900051063,"fix_duration":1325.985099789123,"trial":7,"RT":1033,"MT":362,"sideResp":1,"stimulus":[],"xmouse":[796,796,796,796,796,796,796,796,796,796,796,796,796,796,796,796,796,796,796,796,796,796,796,796,796,796,796,796,796,796,796,796,796,797,797,797,797,797,797,797,797,797,797,797,797,797,797,793,786,779,769,758,749,738,717,708,698,687,652,642,631,620,605,570,554,544,534,521,513,497],"ymouse":[609,609,609,609,609,609,609,609,609,609,609,609,609,609,609,609,609,609,609,609,609,609,609,609,609,609,609,609,609,609,609,609,609,609,609,609,609,609,609,609,609,609,609,609,609,609,609,605,597,586,575,561,548,533,504,491,476,456,395,377,355,335,309,246,215,190,166,129,109,78],"timestamp_mouse":[15,41,55,75,93,114,135,154,173,194,214,233,255,273,294,315,333,353,374,395,413,435,453,474,493,513,534,553,574,594,614,635,654,674,694,714,735,755,775,795,815,833,854,873,894,913,933,954,975,993,1013,1033,1054,1074,1094,1115,1133,1153,1174,1194,1214,1234,1255,1275,1294,1315,1334,1355,1374,1395],"xSR":741.5,"ySR":573.95,"xT1":424.9,"yT1":0,"xT2":1058.1,"yT2":0,"toosoon":0,"cond_shown":"Congruent","ratio_trial":300,"L_num":20,"L_den":25,"R_num":8,"R_den":16,"correct_side":1,"subjID":"NataliaErazo26","gender":"1","school":"6","age":"11"},{"start_time":1551900053796,"click_time":1551900055624,"finger_time":1551900055123,"fix_duration":1372.8848201764638,"trial":8,"RT":1327,"MT":501,"sideResp":2,"stimulus":[],"xmouse":[793,793,793,793,793,793,793,793,793,793,793,793,793,793,793,793,793,793,793,793,793,793,793,793,793,793,793,793,793,793,793,793,793,793,793,793,793,793,793,793,793,793,793,793,793,793,793,793,793,793,793,793,793,793,793,793,793,793,793,793,793,793,796,809,821,836,857,872,877,897,909,936,947,958,966,975,987,993,998,1007,1015,1025,1030,1035,1042,1049,1057,1059,1061,1063,1063,1066],"ymouse":[638,638,638,638,638,638,638,638,638,638,638,638,638,638,638,638,638,638,638,638,638,638,638,638,638,638,638,638,638,638,638,638,638,638,638,638,638,638,638,638,638,638,638,638,638,638,638,638,638,638,638,638,638,638,638,638,638,638,638,638,638,638,638,625,615,605,581,555,547,522,507,474,455,434,415,395,361,343,325,299,283,249,231,218,203,190,168,153,139,120,107,93],"timestamp_mouse":[9,41,49,69,88,109,128,147,168,189,209,228,248,267,288,309,329,348,369,387,408,429,449,468,488,509,527,548,567,587,608,628,647,669,688,708,728,749,769,788,808,827,847,867,888,909,928,947,969,988,1007,1027,1049,1068,1088,1109,1127,1149,1168,1188,1207,1229,1248,1267,1289,1308,1327,1347,1368,1388,1408,1428,1447,1468,1488,1507,1528,1548,1569,1588,1608,1628,1648,1667,1688,1709,1728,1749,1769,1787,1808,1828],"xSR":741.5,"ySR":573.95,"xT1":424.9,"yT1":0,"xT2":1058.1,"yT2":0,"toosoon":0,"cond_shown":"Congruent","ratio_trial":200,"L_num":6,"L_den":20,"R_num":11,"R_den":22,"correct_side":2,"subjID":"NataliaErazo26","gender":"1","school":"6","age":"11"},{"start_time":1551900057973,"click_time":1551900059625,"finger_time":1551900059244,"fix_duration":1168.5565370764887,"trial":9,"RT":1271,"MT":381,"sideResp":1,"stimulus":[],"xmouse":[776,776,776,776,776,776,776,776,776,776,776,776,776,776,776,776,776,776,776,776,776,776,776,776,776,776,776,776,776,776,776,776,776,776,776,776,776,776,776,776,776,776,776,776,776,776,776,776,776,776,776,776,776,776,776,776,776,776,775,771,765,761,757,746,741,727,711,692,635,615,598,582,552,542,537,535,532,528,528,528,528,528,522],"ymouse":[637,637,637,637,637,637,637,637,637,637,637,637,637,637,637,637,637,637,637,637,637,637,637,637,637,637,637,637,637,637,637,637,637,637,637,637,637,637,637,637,637,637,637,637,637,637,637,637,637,637,637,637,637,637,637,637,637,635,628,618,605,591,574,529,490,433,379,333,226,189,158,129,72,50,35,28,24,17,16,16,16,16,16],"timestamp_mouse":[10,40,51,70,92,111,131,150,172,192,211,232,250,271,291,310,332,352,370,391,411,431,451,472,490,510,531,552,571,590,610,632,652,670,690,710,731,751,771,790,812,830,851,872,891,910,931,950,970,991,1012,1031,1051,1071,1090,1111,1131,1151,1170,1191,1212,1231,1251,1271,1291,1310,1331,1350,1372,1391,1411,1431,1451,1470,1492,1511,1530,1552,1570,1591,1611,1630,1652],"xSR":741.5,"ySR":573.95,"xT1":424.9,"yT1":0,"xT2":1058.1,"yT2":0,"toosoon":0,"cond_shown":"Incongruent","ratio_trial":200,"L_num":4,"L_den":5,"R_num":6,"R_den":10,"correct_side":1,"subjID":"NataliaErazo26","gender":"1","school":"6","age":"11"},{"start_time":1551900063565,"click_time":1551900065205,"finger_time":1551900064665,"fix_duration":1360.3206359606727,"trial":10,"RT":1100,"MT":540,"sideResp":1,"stimulus":[],"xmouse":[768,768,768,768,768,768,768,768,768,768,768,768,768,768,768,768,768,768,768,768,768,768,768,768,768,768,768,768,768,768,768,768,768,768,768,768,768,768,768,768,768,768,768,768,768,767,766,765,762,760,758,757,753,745,735,725,718,711,696,685,674,662,652,638,587,567,550,538,524,520,517,514,513,510,509,507,504,500,499,497,495,490],"ymouse":[611,611,611,611,611,611,611,611,611,611,611,611,611,611,611,611,611,611,611,611,611,611,611,611,611,611,611,611,611,611,611,611,611,611,611,611,611,611,611,611,611,611,611,611,611,611,611,611,611,610,609,607,603,592,576,559,547,533,506,486,464,437,413,379,291,261,234,216,192,184,179,174,169,160,155,146,138,127,114,108,103,95],"timestamp_mouse":[19,39,59,79,99,118,139,160,179,200,220,245,258,280,299,319,340,359,378,399,418,439,458,480,500,519,539,558,578,600,620,638,659,678,699,720,739,760,778,800,819,838,860,878,900,919,938,959,979,999,1019,1038,1059,1079,1100,1119,1138,1159,1179,1199,1219,1240,1259,1279,1299,1319,1339,1359,1380,1399,1420,1439,1459,1479,1498,1518,1540,1559,1579,1599,1619,1640],"xSR":741.5,"ySR":573.95,"xT1":424.9,"yT1":0,"xT2":1058.1,"yT2":0,"toosoon":0,"cond_shown":"Congruent","ratio_trial":200,"L_num":20,"L_den":25,"R_num":9,"R_den":15,"correct_side":1,"subjID":"NataliaErazo26","gender":"1","school":"6","age":"11"},{"start_time":1551900067564,"click_time":1551900071204,"finger_time":1551900069824,"fix_duration":1278.5903488702943,"trial":11,"RT":2260,"MT":1380,"sideResp":1,"stimulus":[],"xmouse":[779,779,779,779,779,779,779,779,779,779,779,779,779,779,779,779,779,779,778,778,777,776,776,776,776,776,776,776,776,776,776,776,776,776,776,776,776,776,776,776,776,776,776,776,776,776,776,775,774,774,774,774,774,774,774,774,774,774,774,774,774,774,774,774,774,774,774,774,774,774,774,774,774,774,774,774,774,773,773,775,783,787,788,789,790,790,790,790,791,792,793,793,794,794,794,796,796,797,797,797,798,798,798,798,798,798,798,798,798,798,798,793,774,752,704,657,634,611,589,564,526,513,505,502,497,492,490,488,485,482,479,477,477,477,477,476,476,476,475,474,473,473,473,473,473,472,472,472,472,472,472,472,472,472,472,472,472,472,472,472,472,472,472,472,472,472,472,472,472,472,472,472,472,472,472,472,472,472,472,472,472,472,471],"ymouse":[630,630,630,630,630,630,630,630,630,630,630,630,630,630,630,630,630,631,631,631,631,631,631,631,631,631,631,631,631,631,631,631,631,631,631,631,631,631,631,631,631,631,631,631,631,631,631,631,630,630,630,630,630,630,630,630,630,630,630,630,630,630,630,630,630,630,630,630,630,630,630,630,630,630,630,630,630,629,628,626,620,617,616,616,614,614,613,612,611,609,609,608,607,606,606,605,604,602,602,602,601,601,601,601,601,601,601,601,601,601,601,593,581,565,526,479,450,419,386,351,293,274,263,258,250,240,234,226,217,207,185,173,166,159,155,150,149,146,143,139,130,122,119,115,112,111,111,111,111,111,111,111,111,111,111,111,111,111,111,111,111,111,111,111,111,111,111,111,111,111,111,111,111,111,111,111,111,111,111,111,110,107,98],"timestamp_mouse":[1,21,39,60,80,99,121,140,160,179,199,220,240,260,281,300,319,341,360,381,399,420,441,460,480,500,521,539,560,580,600,620,639,660,680,699,720,739,761,779,799,820,839,861,880,900,920,941,959,981,1000,1020,1040,1060,1081,1099,1120,1139,1160,1180,1200,1220,1240,1260,1281,1300,1320,1339,1359,1380,1400,1420,1439,1461,1480,1500,1520,1540,1561,1581,1600,1619,1641,1660,1681,1700,1720,1740,1760,1781,1799,1820,1840,1860,1880,1901,1920,1939,1960,1981,2001,2020,2041,2059,2080,2101,2120,2141,2160,2180,2200,2220,2241,2260,2279,2299,2320,2340,2360,2379,2400,2421,2440,2460,2480,2500,2520,2540,2561,2580,2600,2620,2639,2660,2681,2701,2720,2739,2760,2781,2800,2821,2840,2861,2879,2899,2920,2940,2960,2979,3001,3020,3041,3059,3080,3100,3120,3141,3159,3181,3201,3221,3239,3261,3280,3300,3320,3341,3360,3380,3401,3420,3440,3460,3480,3500,3520,3539,3560,3581,3600,3619,3640],"xSR":741.5,"ySR":573.95,"xT1":424.9,"yT1":0,"xT2":1058.1,"yT2":0,"toosoon":0,"cond_shown":"Incongruent","ratio_trial":100,"L_num":4,"L_den":8,"R_num":8,"R_den":20,"correct_side":1,"subjID":"NataliaErazo26","gender":"1","school":"6","age":"11"},{"start_time":1551900073777,"click_time":1551900075904,"finger_time":1551900075084,"fix_duration":250,"trial":12,"RT":1307,"MT":820,"sideResp":1,"stimulus":[],"xmouse":[795,795,795,795,795,795,795,795,795,795,795,795,795,795,795,795,795,795,795,795,795,795,795,795,795,795,795,795,795,795,795,795,795,795,795,795,795,795,795,795,795,795,795,795,795,795,795,795,795,795,795,795,795,795,795,795,795,795,795,795,795,795,795,793,782,776,767,757,746,718,699,687,677,669,659,657,655,651,648,641,638,635,633,631,622,617,609,602,596,588,565,552,540,530,522,513,512,510,510,509,507,507,505,505,503,498,493],"ymouse":[610,610,610,610,610,610,610,610,610,610,610,610,610,610,610,610,610,610,610,610,610,610,610,610,610,610,610,610,610,610,610,610,610,610,610,610,610,610,610,610,610,610,610,610,610,610,610,610,610,610,610,610,610,610,610,610,610,610,610,610,610,610,609,607,587,571,550,528,503,453,420,400,383,371,358,354,349,345,340,331,325,321,315,311,296,288,277,268,259,250,213,195,179,165,155,143,140,139,138,137,135,134,132,130,119,102,83],"timestamp_mouse":[9,37,46,66,88,106,126,148,167,187,208,227,248,267,287,307,327,346,368,386,407,426,447,466,486,508,527,548,568,586,606,627,647,668,687,708,727,747,767,788,806,826,847,866,888,906,926,948,968,987,1007,1026,1046,1068,1087,1108,1128,1148,1167,1187,1206,1226,1248,1267,1287,1307,1327,1348,1366,1387,1406,1427,1447,1468,1487,1507,1527,1547,1566,1588,1606,1627,1648,1667,1687,1707,1727,1747,1767,1788,1807,1826,1847,1867,1886,1906,1927,1948,1967,1987,2008,2027,2048,2068,2087,2107,2126],"xSR":741.5,"ySR":573.95,"xT1":424.9,"yT1":0,"xT2":1058.1,"yT2":0,"toosoon":0,"cond_shown":"Congruent","ratio_trial":200,"L_num":6,"L_den":15,"R_num":3,"R_den":15,"correct_side":1,"subjID":"NataliaErazo26","gender":"1","school":"6","age":"11"},{"start_time":1551900077630,"click_time":1551900079664,"finger_time":1551900078964,"fix_duration":506.6860032913467,"trial":13,"RT":1334,"MT":700,"sideResp":1,"stimulus":[],"xmouse":[763,762,762,762,762,762,762,762,762,762,762,762,762,762,762,762,762,762,762,762,762,762,762,762,762,762,762,762,762,762,762,762,762,762,762,762,762,762,762,762,762,762,762,762,762,762,762,762,762,762,762,762,762,762,762,762,762,762,762,762,762,762,762,761,759,755,748,739,735,731,725,720,704,693,682,671,658,643,633,621,610,586,574,562,548,523,507,493,490,489,488,487,486,485,485,484,484,483,481,479,477,476],"ymouse":[599,598,598,598,598,598,598,598,598,598,598,598,598,598,598,598,598,598,598,598,598,598,598,598,598,598,598,598,598,598,598,598,598,598,598,598,598,598,598,598,598,598,598,598,598,598,598,598,598,598,598,598,598,598,598,598,598,598,598,598,598,598,598,596,592,584,573,557,548,541,531,519,484,465,444,425,400,369,351,330,310,269,251,232,212,177,155,132,127,124,123,121,118,117,115,114,113,110,106,104,100,98],"timestamp_mouse":[14,34,53,74,93,115,135,154,175,194,213,234,253,275,294,313,335,355,374,394,413,435,454,474,495,515,534,554,575,593,614,634,654,674,695,714,734,753,775,795,815,835,854,873,894,914,935,954,975,993,1015,1035,1053,1075,1095,1114,1134,1154,1175,1193,1215,1233,1255,1275,1294,1313,1334,1355,1374,1394,1413,1435,1454,1475,1494,1514,1534,1555,1574,1594,1614,1635,1654,1674,1693,1714,1734,1754,1774,1795,1815,1834,1854,1874,1894,1914,1934,1955,1974,1995,2014,2034],"xSR":741.5,"ySR":573.95,"xT1":424.9,"yT1":0,"xT2":1058.1,"yT2":0,"toosoon":0,"cond_shown":"Incongruent","ratio_trial":300,"L_num":8,"L_den":10,"R_num":14,"R_den":28,"correct_side":1,"subjID":"NataliaErazo26","gender":"1","school":"6","age":"11"},{"start_time":1551900081317,"click_time":1551900084424,"finger_time":1551900083483,"fix_duration":250.80969163391842,"trial":14,"RT":2166,"MT":941,"sideResp":2,"stimulus":[],"xmouse":[817,816,815,815,815,815,815,815,815,815,815,815,815,815,815,815,815,815,815,815,815,815,815,815,815,815,815,815,815,815,815,815,815,815,815,815,815,815,815,815,815,815,815,815,815,815,815,815,815,815,815,815,815,815,815,815,815,815,815,815,815,815,815,815,815,815,815,815,815,815,815,815,815,815,815,815,815,815,815,815,815,815,815,815,815,815,815,815,815,815,815,815,815,815,815,815,815,815,815,815,815,815,815,815,817,818,819,820,828,836,843,848,859,881,897,912,925,933,948,956,970,978,985,1000,1007,1012,1017,1019,1025,1028,1031,1031,1032,1033,1034,1034,1035,1035,1037,1039,1042,1044,1046,1054,1056,1059,1061,1062,1062,1062,1062,1062,1062,1067,1071,1075],"ymouse":[600,601,601,601,601,601,601,601,601,601,601,601,601,601,601,601,601,601,601,601,601,601,601,601,601,601,601,601,601,601,601,601,601,601,601,601,601,601,601,601,601,601,601,601,601,601,601,601,601,601,601,601,601,601,601,601,601,601,601,601,601,601,601,601,601,601,601,601,601,601,601,601,601,601,601,601,601,601,601,601,601,601,601,601,601,601,601,601,601,601,601,601,601,601,601,601,601,601,601,601,601,601,601,598,594,591,587,581,564,552,540,529,509,468,448,430,414,401,369,354,329,316,303,278,265,257,246,239,222,216,205,201,196,186,184,182,180,179,174,170,165,162,160,148,142,138,136,135,135,134,132,128,124,110,101,95],"timestamp_mouse":[10,26,47,66,87,108,128,147,167,187,207,228,247,268,286,307,327,347,367,386,406,427,447,468,487,507,526,547,568,587,607,627,648,667,687,706,727,747,766,786,808,827,846,866,888,907,927,947,967,988,1007,1027,1048,1067,1087,1108,1127,1146,1168,1187,1206,1227,1248,1266,1287,1307,1328,1347,1367,1387,1407,1427,1448,1466,1486,1506,1527,1548,1566,1588,1606,1628,1647,1667,1687,1707,1726,1746,1766,1786,1808,1826,1846,1868,1887,1907,1927,1948,1966,1987,2008,2027,2047,2066,2087,2107,2128,2148,2166,2186,2206,2227,2246,2266,2287,2306,2327,2347,2366,2388,2407,2427,2448,2467,2487,2506,2527,2546,2567,2588,2607,2626,2648,2667,2686,2707,2727,2748,2767,2786,2807,2827,2848,2866,2887,2907,2926,2947,2968,2987,3006,3028,3047,3066,3086,3107],"xSR":741.5,"ySR":573.95,"xT1":424.9,"yT1":0,"xT2":1058.1,"yT2":0,"toosoon":0,"cond_shown":"Congruent","ratio_trial":300,"L_num":1,"L_den":5,"R_num":3,"R_den":6,"correct_side":2,"subjID":"NataliaErazo26","gender":"1","school":"6","age":"11"},{"start_time":1551900086809,"click_time":1551900088684,"finger_time":1551900088145,"fix_duration":863.6446482190335,"trial":15,"RT":1336,"MT":539,"sideResp":2,"stimulus":[],"xmouse":[816,816,816,816,816,816,816,816,816,816,816,816,816,816,816,816,816,816,816,816,816,816,816,816,816,816,816,816,816,816,816,816,815,813,813,813,813,813,813,813,813,813,813,813,813,813,813,813,813,813,813,813,813,813,813,813,813,813,813,813,813,813,813,813,818,841,876,914,942,978,988,996,1006,1013,1027,1036,1042,1045,1046,1040,1038,1036,1035,1034,1034,1034,1035,1036,1040,1041,1045,1050,1051,1060],"ymouse":[610,610,610,610,610,610,610,610,610,610,610,610,610,610,610,610,610,610,610,610,610,610,610,610,610,610,610,610,610,610,610,610,611,612,612,612,612,612,612,612,612,612,612,612,612,612,612,612,612,612,612,612,612,612,612,612,612,612,612,612,612,612,612,612,607,589,564,540,521,477,452,424,391,362,288,258,227,204,184,152,147,140,136,131,120,115,111,108,103,102,100,96,94,90],"timestamp_mouse":[16,41,55,74,96,115,134,155,175,195,214,234,256,275,296,315,335,355,375,395,416,434,454,474,496,515,534,556,575,595,615,634,655,675,694,714,735,754,774,795,816,835,856,874,894,916,935,955,974,995,1015,1034,1055,1075,1095,1116,1135,1154,1174,1194,1216,1236,1255,1276,1295,1315,1336,1354,1375,1394,1416,1436,1455,1475,1495,1515,1534,1554,1575,1597,1615,1636,1656,1674,1694,1715,1735,1755,1776,1795,1815,1835,1855,1875],"xSR":741.5,"ySR":573.95,"xT1":424.9,"yT1":0,"xT2":1058.1,"yT2":0,"toosoon":0,"cond_shown":"Congruent","ratio_trial":100,"L_num":6,"L_den":12,"R_num":15,"R_den":25,"correct_side":2,"subjID":"NataliaErazo26","gender":"1","school":"6","age":"11"},{"start_time":1551900091034,"click_time":1551900092844,"finger_time":1551900092324,"fix_duration":1008.9796336368186,"trial":16,"RT":1290,"MT":520,"sideResp":2,"stimulus":[],"xmouse":[792,792,792,792,792,791,791,791,791,791,791,791,791,791,791,791,791,791,791,791,791,791,791,791,791,791,791,791,791,791,791,791,791,791,791,791,791,791,791,790,789,789,789,789,789,789,789,789,789,789,789,789,789,789,789,789,789,789,789,789,789,795,801,831,846,861,874,887,928,957,965,987,999,1019,1030,1041,1053,1065,1084,1091,1096,1104,1109,1113,1114,1113,1112,1111,1107,1106,1105],"ymouse":[660,660,660,660,660,661,661,662,662,662,662,662,663,663,663,663,663,663,663,663,663,663,663,663,663,663,663,663,663,663,663,663,663,663,663,663,663,663,663,664,665,665,665,665,665,665,665,665,665,665,665,665,665,665,665,665,665,665,665,665,665,659,651,620,609,597,580,552,485,444,432,397,375,330,309,291,275,255,218,199,181,159,148,127,121,116,114,112,103,100,97],"timestamp_mouse":[9,37,50,70,91,109,130,149,170,191,209,230,251,270,290,310,331,351,370,390,411,431,450,471,489,511,531,549,570,589,610,630,649,671,689,711,731,751,770,791,809,830,850,869,890,909,929,950,970,990,1010,1029,1049,1070,1090,1110,1130,1149,1170,1190,1210,1231,1250,1269,1290,1310,1331,1351,1370,1389,1410,1429,1449,1469,1490,1509,1531,1551,1570,1591,1610,1630,1650,1670,1689,1710,1731,1750,1770,1789,1810],"xSR":741.5,"ySR":573.95,"xT1":424.9,"yT1":0,"xT2":1058.1,"yT2":0,"toosoon":0,"cond_shown":"Congruent","ratio_trial":100,"L_num":7,"L_den":14,"R_num":9,"R_den":15,"correct_side":2,"subjID":"NataliaErazo26","gender":"1","school":"6","age":"11"},{"start_time":1551900095302,"click_time":1551900097385,"finger_time":1551900096424,"fix_duration":1016.6410041304343,"trial":17,"RT":1122,"MT":961,"sideResp":2,"stimulus":[],"xmouse":[819,819,819,819,819,819,819,819,819,819,819,819,819,819,819,819,819,819,819,819,819,819,819,819,819,819,819,819,819,819,819,819,819,819,819,819,819,819,819,819,819,819,819,819,819,819,819,819,819,819,819,819,819,819,819,823,843,860,879,895,928,948,976,1014,1060,1144,1166,1182,1198,1216,1246,1258,1269,1275,1278,1278,1275,1275,1275,1275,1274,1273,1270,1266,1262,1256,1232,1220,1212,1206,1205,1199,1198,1195,1191,1189,1188,1186,1182,1177,1170,1168,1166,1159,1148],"ymouse":[594,594,594,594,594,594,594,594,594,594,594,594,594,594,594,594,594,594,594,594,594,594,594,594,594,594,594,594,594,594,594,594,594,594,594,594,594,594,594,594,594,594,594,594,594,594,594,594,594,594,594,594,594,594,594,591,577,563,548,533,500,476,444,407,369,281,244,215,186,153,91,64,38,16,0,0,0,0,0,0,0,0,0,0,3,7,17,22,27,31,32,35,37,38,39,41,41,42,42,43,44,45,45,47,50],"timestamp_mouse":[10,22,43,63,82,102,122,142,162,182,202,221,241,262,282,301,322,342,361,382,403,423,442,462,482,501,522,541,562,583,603,623,642,662,682,701,722,743,762,781,802,823,841,863,883,903,922,942,962,983,1002,1022,1042,1062,1083,1101,1122,1142,1162,1183,1202,1221,1242,1262,1281,1302,1321,1342,1362,1381,1402,1421,1442,1463,1482,1502,1522,1542,1562,1582,1601,1622,1642,1662,1681,1703,1723,1742,1763,1781,1802,1822,1842,1861,1882,1901,1922,1941,1962,1981,2002,2022,2042,2062,2083],"xSR":741.5,"ySR":573.95,"xT1":424.9,"yT1":0,"xT2":1058.1,"yT2":0,"toosoon":0,"cond_shown":"Congruent","ratio_trial":300,"L_num":2,"L_den":20,"R_num":10,"R_den":25,"correct_side":2,"subjID":"NataliaErazo26","gender":"1","school":"6","age":"11"},{"start_time":1551900099652,"click_time":1551900101864,"finger_time":1551900101225,"fix_duration":1086.1758689342537,"trial":18,"RT":1573,"MT":639,"sideResp":2,"stimulus":[],"xmouse":[773,773,773,773,773,773,773,773,773,773,773,773,773,773,773,773,773,773,773,773,773,773,773,773,773,773,773,773,773,773,773,773,773,773,773,773,773,773,773,773,773,773,773,773,773,773,773,773,773,773,773,773,773,773,773,773,773,773,773,773,773,773,773,773,773,773,773,773,773,773,773,773,773,773,773,773,774,776,796,810,823,833,849,854,889,906,923,942,958,983,992,1001,1007,1014,1024,1027,1030,1034,1043,1058,1065,1071,1075,1080,1090,1094,1097,1099,1102,1104,1106],"ymouse":[599,599,599,599,599,599,599,599,599,599,599,599,599,599,599,599,599,599,599,599,599,599,599,599,599,599,599,599,599,599,599,599,599,599,599,599,599,599,599,599,599,599,599,599,599,599,599,599,599,599,599,599,599,599,599,599,599,599,599,599,599,599,599,599,599,599,599,599,599,599,599,599,599,599,599,599,595,592,569,552,539,526,506,498,455,435,416,402,388,358,346,332,322,311,287,277,264,251,233,205,193,183,177,169,151,141,130,122,111,106,98],"timestamp_mouse":[12,37,52,72,92,111,131,152,171,192,211,231,252,272,292,312,331,353,373,392,411,433,452,473,493,512,531,553,572,592,613,631,652,671,693,711,731,753,772,793,812,832,851,873,892,911,932,952,972,993,1012,1033,1051,1072,1093,1111,1133,1152,1172,1192,1213,1232,1251,1272,1293,1312,1332,1351,1372,1393,1411,1433,1452,1471,1493,1513,1532,1552,1573,1591,1611,1632,1652,1672,1693,1712,1732,1752,1772,1792,1812,1832,1852,1873,1893,1912,1931,1952,1972,1991,2013,2032,2052,2073,2092,2112,2132,2153,2173,2191,2211],"xSR":741.5,"ySR":573.95,"xT1":424.9,"yT1":0,"xT2":1058.1,"yT2":0,"toosoon":0,"cond_shown":"Incongruent","ratio_trial":200,"L_num":3,"L_den":10,"R_num":1,"R_den":2,"correct_side":2,"subjID":"NataliaErazo26","gender":"1","school":"6","age":"11"},{"start_time":1551900104189,"click_time":1551900105983,"finger_time":1551900105303,"fix_duration":923.6692575970725,"trial":19,"RT":1114,"MT":680,"sideResp":1,"stimulus":[],"xmouse":[807,807,807,807,807,807,807,807,807,807,807,807,807,807,807,807,807,807,807,807,807,807,807,807,807,807,807,807,807,807,807,807,807,807,807,807,807,807,807,807,807,807,807,807,807,807,807,807,807,806,805,802,796,791,788,783,778,768,764,759,753,747,731,719,707,691,679,658,649,639,631,621,602,594,587,583,577,568,562,556,552,549,545,545,544,542,540,537,531,524],"ymouse":[620,620,620,620,620,620,620,620,620,620,620,620,620,620,620,620,620,620,620,620,620,620,620,620,620,620,620,620,620,620,620,620,620,620,620,620,620,620,620,620,620,620,620,620,620,620,620,620,618,615,611,606,593,583,578,569,560,540,531,520,507,494,458,436,415,387,366,330,312,295,278,258,212,193,171,156,143,122,111,101,94,88,84,83,82,81,81,79,78,77],"timestamp_mouse":[15,34,55,75,95,116,136,155,175,196,216,236,255,274,295,315,334,355,374,394,415,436,455,475,496,515,536,554,576,594,616,636,654,675,715,715,735,756,774,795,814,835,855,875,896,914,936,955,975,995,1015,1035,1054,1074,1094,1114,1134,1153,1174,1194,1214,1235,1254,1275,1294,1315,1335,1354,1374,1394,1414,1436,1454,1475,1494,1515,1534,1554,1574,1594,1615,1635,1654,1673,1694,1715,1734,1754,1774,1794],"xSR":741.5,"ySR":573.95,"xT1":424.9,"yT1":0,"xT2":1058.1,"yT2":0,"toosoon":0,"cond_shown":"Incongruent","ratio_trial":200,"L_num":3,"L_den":10,"R_num":1,"R_den":2,"correct_side":2,"subjID":"NataliaErazo26","gender":"1","school":"6","age":"11"},{"start_time":1551900108006,"click_time":1551900109523,"finger_time":1551900108924,"fix_duration":802.8644764840534,"trial":20,"RT":918,"MT":599,"sideResp":2,"stimulus":[],"xmouse":[794,794,794,794,794,794,794,794,794,794,794,794,794,794,794,794,794,794,794,794,794,794,794,794,794,794,794,794,794,794,794,794,794,794,794,794,794,794,794,794,795,798,807,820,836,856,898,916,933,944,952,969,980,990,997,1003,1010,1013,1018,1022,1027,1031,1041,1045,1049,1052,1054,1060,1062,1065,1069,1075,1081,1085,1088,1090],"ymouse":[604,604,604,604,604,604,604,604,604,604,604,604,604,604,604,604,604,604,604,604,604,604,604,604,604,604,604,604,604,604,604,604,604,604,604,604,604,604,604,604,605,605,599,591,581,567,542,528,514,500,483,440,409,388,367,348,309,291,273,256,241,227,197,188,180,173,168,158,152,148,142,129,116,107,101,94],"timestamp_mouse":[17,37,58,77,98,117,137,157,177,198,217,238,257,277,297,317,338,358,377,397,418,438,457,478,497,518,537,558,578,597,617,637,657,678,698,717,738,758,777,797,819,837,857,877,897,918,937,957,978,998,1018,1037,1057,1078,1097,1117,1137,1157,1178,1198,1217,1237,1257,1277,1297,1317,1337,1357,1378,1398,1418,1437,1456,1477,1497,1517],"xSR":741.5,"ySR":573.95,"xT1":424.9,"yT1":0,"xT2":1058.1,"yT2":0,"toosoon":0,"cond_shown":"Congruent","ratio_trial":300,"L_num":2,"L_den":20,"R_num":10,"R_den":25,"correct_side":2,"subjID":"NataliaErazo26","gender":"1","school":"6","age":"11"},{"start_time":1551900111396,"click_time":1551900113563,"finger_time":1551900112923,"fix_duration":250,"trial":21,"RT":1527,"MT":640,"sideResp":1,"stimulus":[],"xmouse":[797,797,797,797,797,797,797,797,797,797,797,797,797,797,797,797,797,797,797,797,797,797,797,797,797,797,797,797,797,797,797,797,797,797,797,797,797,797,797,797,797,797,797,797,797,797,797,797,797,797,797,797,797,797,797,797,797,797,797,797,797,797,797,797,797,797,797,797,797,797,797,797,795,783,779,774,771,767,760,755,749,745,736,708,691,681,669,657,627,612,598,579,566,545,540,535,534,534,533,531,530,529,529,529,528,527,526,525,521],"ymouse":[597,597,597,597,597,597,597,597,597,597,597,597,597,597,597,597,597,597,597,597,597,597,597,597,597,597,597,597,597,597,597,597,597,597,597,597,597,597,597,597,597,597,597,597,597,597,597,597,597,597,597,597,597,597,597,597,597,597,597,597,597,597,597,597,597,597,597,597,597,597,597,597,596,586,583,578,573,566,552,544,535,526,510,470,446,430,412,394,352,331,311,280,259,222,207,189,173,158,138,130,123,117,108,96,92,86,82,78,71],"timestamp_mouse":[11,40,48,67,87,107,127,147,168,188,207,227,247,267,287,308,327,348,367,387,407,428,448,467,487,508,528,548,567,588,609,628,647,667,687,708,727,747,767,788,807,828,847,867,888,908,927,947,968,988,1008,1028,1047,1067,1087,1107,1128,1147,1167,1187,1207,1228,1248,1267,1287,1308,1327,1347,1367,1387,1408,1428,1447,1467,1487,1507,1527,1547,1567,1587,1607,1627,1647,1667,1688,1707,1728,1747,1767,1788,1808,1828,1848,1867,1887,1907,1927,1948,1967,1987,2007,2027,2048,2067,2087,2107,2127,2148,2167],"xSR":741.5,"ySR":573.95,"xT1":424.9,"yT1":0,"xT2":1058.1,"yT2":0,"toosoon":0,"cond_shown":"Incongruent","ratio_trial":200,"L_num":1,"L_den":2,"R_num":3,"R_den":10,"correct_side":1,"subjID":"NataliaErazo26","gender":"1","school":"6","age":"11"},{"start_time":1551900115214,"click_time":1551900117263,"finger_time":1551900116683,"fix_duration":250,"trial":22,"RT":1469,"MT":580,"sideResp":1,"stimulus":[],"xmouse":[784,784,784,784,784,784,784,784,784,784,784,784,784,784,784,784,784,784,784,784,784,784,784,784,784,784,784,784,784,784,784,784,784,784,784,784,784,784,784,784,784,784,784,784,784,784,784,784,784,784,784,784,784,784,784,784,784,784,784,784,784,784,784,784,784,784,784,784,784,784,783,774,762,756,747,736,727,705,690,681,670,657,633,618,596,576,557,531,520,505,494,486,477,474,472,469,468,466,466,466,466,466,465],"ymouse":[611,611,611,611,611,611,611,611,611,611,611,611,611,611,611,611,611,611,611,611,611,611,611,611,611,611,611,611,611,611,611,611,611,611,611,611,611,611,611,611,611,611,611,611,611,611,611,611,611,611,611,611,611,611,611,611,611,611,611,611,611,611,611,611,611,611,611,611,611,611,610,599,581,572,560,545,528,491,466,448,429,411,374,356,330,306,284,244,226,200,183,167,143,133,126,121,117,110,107,104,102,100,94],"timestamp_mouse":[9,44,49,70,89,110,129,150,170,190,210,230,249,269,290,309,329,349,369,390,409,430,449,469,490,510,529,549,570,589,609,629,649,669,689,709,729,749,769,789,809,829,849,869,890,909,929,949,969,989,1009,1029,1049,1069,1089,1109,1129,1149,1169,1189,1210,1230,1249,1269,1290,1309,1329,1349,1370,1389,1409,1429,1450,1469,1489,1509,1530,1549,1569,1589,1610,1630,1649,1669,1689,1710,1729,1749,1769,1789,1809,1829,1849,1869,1889,1909,1929,1949,1969,1989,2009,2029,2049],"xSR":741.5,"ySR":573.95,"xT1":424.9,"yT1":0,"xT2":1058.1,"yT2":0,"toosoon":0,"cond_shown":"Incongruent","ratio_trial":100,"L_num":10,"L_den":25,"R_num":8,"R_den":16,"correct_side":2,"subjID":"NataliaErazo26","gender":"1","school":"6","age":"11"},{"start_time":1551900119404,"click_time":1551900121443,"finger_time":1551900120964,"fix_duration":1078.4478801701837,"trial":23,"RT":1560,"MT":479,"sideResp":2,"stimulus":[],"xmouse":[802,802,802,802,802,802,802,802,802,802,802,802,802,802,802,802,802,802,802,802,802,802,802,802,802,802,802,802,802,802,802,802,802,802,802,802,802,802,802,802,802,802,802,802,802,802,802,802,802,802,802,802,802,802,802,802,802,802,802,802,802,802,802,802,802,802,802,802,802,802,802,802,802,802,802,804,804,804,810,818,828,841,854,865,888,899,910,926,936,963,975,986,992,997,1006,1012,1020,1035,1042,1054,1063,1069,1077],"ymouse":[583,583,583,583,583,583,583,583,583,583,583,583,583,583,583,583,583,583,583,583,583,583,583,583,583,583,583,583,583,583,583,583,583,583,583,583,583,583,583,583,583,583,583,583,583,583,583,583,583,583,583,583,583,583,583,583,583,583,583,583,583,583,583,583,583,583,583,583,583,583,583,583,583,583,583,583,583,583,573,565,552,537,523,505,466,446,425,391,369,326,306,288,271,255,226,215,201,182,170,136,119,104,89],"timestamp_mouse":[4,19,39,60,79,99,119,139,159,179,199,220,240,259,279,300,319,340,359,380,400,419,440,459,479,499,519,540,560,579,600,619,639,660,679,699,720,740,760,779,799,820,840,860,879,899,920,939,959,979,1000,1020,1039,1059,1079,1100,1119,1139,1160,1180,1199,1220,1239,1260,1280,1300,1319,1339,1359,1380,1399,1419,1439,1459,1479,1499,1520,1539,1560,1579,1599,1619,1639,1659,1679,1700,1719,1739,1760,1779,1799,1819,1839,1860,1879,1899,1919,1939,1959,1979,1999,2019,2039],"xSR":741.5,"ySR":573.95,"xT1":424.9,"yT1":0,"xT2":1058.1,"yT2":0,"toosoon":0,"cond_shown":"Incongruent","ratio_trial":100,"L_num":6,"L_den":10,"R_num":7,"R_den":14,"correct_side":1,"subjID":"NataliaErazo26","gender":"1","school":"6","age":"11"},{"start_time":1551900123362,"click_time":1551900124803,"finger_time":1551900124444,"fix_duration":617.8611128656753,"trial":24,"RT":1082,"MT":359,"sideResp":1,"stimulus":[],"xmouse":[774,774,774,774,774,774,774,774,774,774,774,774,775,775,775,775,775,775,775,775,775,775,775,775,775,775,775,775,775,775,775,775,775,775,775,775,775,775,775,775,775,775,775,775,775,775,775,775,775,775,772,760,753,744,739,734,722,714,707,701,692,676,667,656,648,640,621,606,592,579,562,535,522],"ymouse":[628,628,628,628,628,628,628,628,628,628,628,628,627,627,626,625,625,625,625,625,625,625,625,625,625,625,625,625,625,625,625,625,625,625,625,625,625,625,625,625,625,625,625,625,625,625,625,625,625,623,620,610,605,598,593,588,570,556,544,531,513,479,459,436,411,383,318,270,233,201,165,116,86],"timestamp_mouse":[9,37,41,61,81,101,122,141,161,181,201,223,241,261,281,302,321,341,361,381,401,421,441,463,481,502,521,541,562,582,602,622,642,662,681,702,721,741,761,781,803,821,842,862,881,902,921,941,961,982,1001,1021,1041,1061,1082,1101,1121,1141,1161,1182,1202,1221,1241,1261,1281,1301,1322,1341,1361,1381,1401,1421,1441],"xSR":741.5,"ySR":573.95,"xT1":424.9,"yT1":0,"xT2":1058.1,"yT2":0,"toosoon":0,"cond_shown":"Incongruent","ratio_trial":200,"L_num":7,"L_den":10,"R_num":12,"R_den":24,"correct_side":1,"subjID":"NataliaErazo26","gender":"1","school":"6","age":"11"},{"start_time":1551900128056,"click_time":1551900130143,"finger_time":1551900129283,"fix_duration":1150.1348166819155,"trial":25,"RT":1227,"MT":860,"sideResp":2,"stimulus":[],"xmouse":[815,815,815,815,815,815,815,815,815,815,815,815,815,815,815,815,815,815,815,815,815,815,815,815,815,815,815,815,815,815,815,815,815,815,815,815,815,815,815,815,815,815,815,815,815,815,815,815,815,817,817,817,817,817,817,817,818,819,822,829,831,844,864,877,892,908,926,966,985,1006,1023,1048,1073,1081,1090,1097,1102,1111,1116,1118,1123,1123,1121,1119,1115,1112,1109,1100,1098,1095,1093,1091,1088,1087,1086,1085,1085,1084,1084,1084,1084,1084,1087,1087,1090],"ymouse":[623,623,623,623,623,623,623,623,623,623,623,623,623,623,623,623,623,623,623,623,623,623,623,623,623,623,623,623,623,623,623,623,623,623,623,623,623,623,623,623,623,623,623,623,623,623,623,623,623,623,622,622,622,622,622,622,622,620,616,609,607,592,569,554,538,519,496,450,426,404,384,354,323,311,300,291,281,264,254,246,233,223,206,197,187,178,168,150,144,138,134,130,126,123,120,118,116,112,110,109,109,109,105,103,99],"timestamp_mouse":[8,27,47,69,92,108,128,147,167,187,208,227,248,267,287,308,328,347,369,388,408,427,448,468,488,508,527,547,567,588,608,628,647,668,687,708,728,747,767,788,808,827,847,868,888,908,928,947,967,987,1007,1027,1047,1067,1087,1108,1128,1147,1167,1187,1207,1227,1247,1267,1288,1308,1327,1347,1367,1388,1407,1427,1448,1467,1487,1507,1527,1547,1567,1588,1608,1627,1647,1667,1687,1708,1727,1747,1767,1787,1807,1827,1847,1867,1887,1908,1927,1947,1967,1987,2007,2027,2047,2067,2087],"xSR":741.5,"ySR":573.95,"xT1":424.9,"yT1":0,"xT2":1058.1,"yT2":0,"toosoon":0,"cond_shown":"Incongruent","ratio_trial":300,"L_num":4,"L_den":20,"R_num":2,"R_den":4,"correct_side":2,"subjID":"NataliaErazo26","gender":"1","school":"6","age":"11"},{"start_time":1551900132627,"click_time":1551900133983,"finger_time":1551900133403,"fix_duration":1222.0440192959634,"trial":26,"RT":776,"MT":580,"sideResp":1,"stimulus":[],"xmouse":[803,803,802,802,802,802,802,802,802,802,802,802,802,802,802,802,802,802,802,802,802,802,802,802,802,802,802,802,802,802,802,802,802,802,802,799,793,783,738,689,667,644,620,595,591,590,588,588,586,580,574,565,559,553,550,548,545,542,539,537,537,536,535,534,530,529,525,522],"ymouse":[637,637,635,634,634,634,634,634,634,634,634,634,634,634,634,634,634,634,634,634,634,634,634,634,634,634,634,634,634,634,634,634,634,634,632,627,613,589,501,415,364,326,293,258,249,243,234,223,197,174,161,146,134,123,119,114,109,103,101,96,93,92,90,89,77,71,63,56],"timestamp_mouse":[29,37,56,77,96,117,136,156,177,196,216,237,258,277,297,317,337,356,377,396,417,436,456,477,496,516,536,557,576,596,616,636,656,676,696,717,736,757,776,796,816,837,857,876,895,917,937,957,976,996,1016,1037,1056,1076,1096,1116,1137,1156,1176,1196,1216,1236,1256,1276,1296,1317,1336,1356],"xSR":741.5,"ySR":573.95,"xT1":424.9,"yT1":0,"xT2":1058.1,"yT2":0,"toosoon":0,"cond_shown":"Congruent","ratio_trial":200,"L_num":20,"L_den":25,"R_num":9,"R_den":15,"correct_side":1,"subjID":"NataliaErazo26","gender":"1","school":"6","age":"11"},{"start_time":1551900136349,"click_time":1551900138243,"finger_time":1551900137623,"fix_duration":1243.8150200837051,"trial":27,"RT":1274,"MT":620,"sideResp":1,"stimulus":[],"xmouse":[779,779,779,779,779,779,779,779,779,779,779,779,779,779,779,779,779,779,779,779,779,779,779,779,779,779,779,779,779,779,779,779,779,779,779,779,779,779,779,779,779,779,779,779,779,779,779,779,779,779,779,779,779,779,779,779,779,779,779,779,779,779,775,763,753,745,735,721,701,694,684,674,664,638,626,614,600,575,565,557,553,550,547,544,542,539,537,536,531,530,527,525,521,518,516],"ymouse":[619,619,619,619,619,619,619,619,619,619,619,619,619,619,619,619,619,619,619,619,619,619,619,619,619,619,619,619,619,619,619,619,619,619,619,619,619,619,619,619,619,619,619,619,619,619,619,619,619,619,619,619,619,619,619,619,619,619,619,619,614,611,600,572,553,534,514,490,445,427,406,388,371,324,303,281,257,214,199,185,177,171,161,151,146,142,137,133,124,121,114,112,106,101,97],"timestamp_mouse":[16,44,55,74,94,114,135,154,174,195,215,235,254,274,295,315,335,354,374,395,414,434,454,474,495,514,534,555,574,594,615,634,654,674,694,715,734,754,775,795,814,835,854,874,894,914,935,954,974,995,1014,1034,1054,1074,1095,1114,1135,1154,1174,1195,1214,1234,1254,1274,1294,1314,1335,1354,1374,1395,1414,1434,1455,1474,1494,1515,1534,1555,1574,1594,1614,1635,1655,1675,1694,1715,1734,1754,1774,1795,1814,1834,1854,1875,1894],"xSR":741.5,"ySR":573.95,"xT1":424.9,"yT1":0,"xT2":1058.1,"yT2":0,"toosoon":0,"cond_shown":"Congruent","ratio_trial":200,"L_num":8,"L_den":15,"R_num":7,"R_den":21,"correct_side":1,"subjID":"NataliaErazo26","gender":"1","school":"6","age":"11"},{"start_time":1551900139838,"click_time":1551900141843,"finger_time":1551900141223,"fix_duration":352.24042332291117,"trial":28,"RT":1385,"MT":620,"sideResp":1,"stimulus":[],"xmouse":[784,784,784,784,784,784,784,784,784,784,784,784,784,784,784,784,784,784,784,784,784,784,784,784,784,784,784,784,784,784,784,784,784,784,784,784,784,784,784,784,784,784,784,784,784,784,784,784,784,784,784,784,784,784,784,784,784,784,784,784,784,784,784,784,784,784,784,779,773,756,746,738,732,725,709,701,689,681,673,657,648,639,631,623,605,591,587,575,564,545,538,531,522,518,512,511,509,506,503,497,494],"ymouse":[609,609,609,609,609,609,609,609,609,609,609,609,609,609,609,609,609,609,609,609,609,609,609,609,609,609,609,609,609,609,609,609,609,609,609,609,609,609,609,609,609,609,609,609,609,609,609,609,609,609,609,609,609,609,609,609,609,609,609,609,609,609,609,609,609,609,609,602,590,565,550,538,527,516,489,475,453,442,428,400,384,370,355,341,309,285,279,258,240,198,180,164,150,143,134,131,127,121,114,102,97],"timestamp_mouse":[8,25,45,66,86,106,126,145,166,185,205,226,246,266,286,306,326,345,366,384,406,425,446,465,486,505,525,546,565,586,605,625,646,665,685,705,725,746,766,785,805,826,846,865,885,905,925,945,965,985,1006,1026,1045,1066,1085,1105,1126,1145,1165,1186,1206,1226,1245,1266,1286,1306,1325,1345,1365,1385,1405,1426,1446,1465,1485,1505,1525,1546,1566,1585,1605,1625,1646,1665,1685,1706,1725,1746,1765,1785,1805,1825,1845,1865,1885,1906,1925,1945,1966,1985,2005],"xSR":741.5,"ySR":573.95,"xT1":424.9,"yT1":0,"xT2":1058.1,"yT2":0,"toosoon":0,"cond_shown":"Incongruent","ratio_trial":100,"L_num":6,"L_den":10,"R_num":11,"R_den":22,"correct_side":1,"subjID":"NataliaErazo26","gender":"1","school":"6","age":"11"},{"start_time":1551900143859,"click_time":1551900145664,"finger_time":1551900145124,"fix_duration":855.5210491269185,"trial":29,"RT":1265,"MT":540,"sideResp":1,"stimulus":[],"xmouse":[815,815,815,815,815,815,815,815,814,814,814,814,814,814,814,814,814,814,814,814,814,814,814,814,814,814,814,814,814,814,814,814,814,814,814,814,814,814,814,814,814,814,814,814,814,814,814,814,814,814,814,814,814,814,814,814,814,811,800,787,774,763,750,722,707,680,660,639,583,548,515,482,455,438,410,403,398,393,391,391,391,391,391,397,402,405,410,415,421,423,426],"ymouse":[640,640,640,640,640,640,640,640,640,640,640,640,640,640,640,640,640,640,640,640,640,640,640,640,640,640,640,640,640,640,640,640,640,640,640,640,640,640,640,640,640,640,640,640,640,640,640,640,640,640,640,640,640,640,640,640,640,640,634,626,617,607,596,566,546,501,462,419,323,271,222,178,139,114,66,53,42,34,29,28,28,28,28,26,25,24,23,23,23,23,24],"timestamp_mouse":[10,24,45,65,84,105,124,144,164,184,204,225,244,265,286,305,325,344,364,384,404,424,445,465,484,504,524,544,564,584,605,624,644,664,684,704,724,745,764,786,804,824,845,864,884,904,924,945,964,984,1004,1025,1045,1064,1084,1104,1124,1144,1164,1184,1204,1224,1244,1265,1284,1304,1324,1345,1364,1384,1404,1425,1446,1464,1484,1504,1525,1544,1565,1585,1604,1624,1645,1665,1684,1704,1724,1744,1764,1784,1805],"xSR":741.5,"ySR":573.95,"xT1":424.9,"yT1":0,"xT2":1058.1,"yT2":0,"toosoon":0,"cond_shown":"Congruent","ratio_trial":200,"L_num":16,"L_den":30,"R_num":9,"R_den":27,"correct_side":1,"subjID":"NataliaErazo26","gender":"1","school":"6","age":"11"},{"start_time":1551900147434,"click_time":1551900149304,"finger_time":1551900148944,"fix_duration":250,"trial":30,"RT":1510,"MT":360,"sideResp":2,"stimulus":[],"xmouse":[774,774,774,774,774,774,774,774,774,774,774,774,774,774,774,774,774,774,774,774,774,774,774,774,774,774,774,774,774,774,774,774,774,774,774,774,774,774,774,774,774,774,774,774,774,774,774,774,774,774,774,774,774,774,774,774,774,774,774,774,774,774,774,774,774,774,774,774,774,774,774,775,777,780,786,807,821,836,853,872,922,945,972,1006,1017,1035,1048,1060,1070,1081,1097,1103,1108,1117],"ymouse":[599,599,599,599,599,599,599,599,599,599,599,599,599,599,599,599,599,599,599,599,599,599,599,599,599,599,599,599,599,599,599,599,599,599,599,599,599,599,599,599,599,599,599,599,599,599,599,599,599,599,599,599,599,599,599,599,599,599,599,599,599,599,599,599,599,599,599,599,599,599,599,599,599,594,585,558,543,524,505,483,428,404,369,315,281,233,215,196,177,159,128,115,106,90],"timestamp_mouse":[9,40,49,69,90,109,129,150,169,189,209,229,249,269,289,309,329,349,369,390,409,429,450,470,490,509,530,549,569,590,609,629,650,669,690,710,729,750,769,789,810,829,849,869,890,909,930,950,969,990,1009,1029,1050,1070,1089,1109,1129,1150,1169,1189,1209,1229,1249,1269,1289,1309,1330,1350,1370,1389,1410,1430,1449,1469,1489,1510,1529,1549,1569,1589,1609,1629,1649,1669,1690,1709,1729,1749,1769,1790,1809,1829,1849,1870],"xSR":741.5,"ySR":573.95,"xT1":424.9,"yT1":0,"xT2":1058.1,"yT2":0,"toosoon":0,"cond_shown":"Incongruent","ratio_trial":200,"L_num":6,"L_den":20,"R_num":3,"R_den":6,"correct_side":2,"subjID":"NataliaErazo26","gender":"1","school":"6","age":"11"},{"start_time":1551900151355,"click_time":1551900152864,"finger_time":1551900152424,"fix_duration":749.1962193110036,"trial":31,"RT":1069,"MT":440,"sideResp":2,"stimulus":[],"xmouse":[803,803,803,803,803,803,803,803,803,803,803,803,803,803,803,803,803,803,803,803,803,803,803,803,803,803,803,803,803,803,803,803,803,803,803,803,803,803,803,803,803,803,803,803,803,803,803,803,803,803,805,819,836,848,876,891,916,928,940,961,970,979,986,993,999,1002,1010,1017,1023,1034,1039,1044,1047,1050,1056,1059],"ymouse":[609,609,609,609,609,609,609,609,609,609,609,609,609,609,609,609,609,609,609,609,609,609,609,609,609,609,609,609,609,609,609,609,609,609,609,609,609,609,609,609,609,609,609,609,609,609,609,609,609,609,609,602,591,578,539,518,483,464,443,395,370,343,318,296,251,230,202,185,171,144,132,122,116,111,100,93],"timestamp_mouse":[11,28,50,69,89,109,129,148,169,188,209,228,249,269,288,308,329,348,368,388,409,428,448,468,489,509,528,549,569,588,608,628,648,669,688,708,728,749,769,788,809,828,849,869,888,908,929,948,968,988,1008,1028,1049,1069,1088,1108,1128,1148,1168,1188,1208,1229,1248,1268,1288,1309,1328,1348,1368,1388,1408,1428,1448,1468,1488,1509],"xSR":741.5,"ySR":573.95,"xT1":424.9,"yT1":0,"xT2":1058.1,"yT2":0,"toosoon":0,"cond_shown":"Incongruent","ratio_trial":200,"L_num":9,"L_den":15,"R_num":8,"R_den":10,"correct_side":2,"subjID":"NataliaErazo26","gender":"1","school":"6","age":"11"},{"start_time":1551900155057,"click_time":1551900158824,"finger_time":1551900156463,"fix_duration":1250.6766313275957,"trial":32,"RT":1406,"MT":2361,"sideResp":1,"stimulus":[],"xmouse":[782,782,782,782,782,782,782,782,782,782,782,782,782,782,782,782,782,782,782,782,782,782,782,782,782,782,782,782,782,782,782,782,782,782,782,782,782,782,782,782,782,782,782,782,782,782,782,782,782,782,782,782,782,782,782,782,782,782,782,782,782,782,782,782,782,782,786,792,800,821,838,848,856,863,869,882,886,889,890,891,891,891,891,891,891,891,891,891,891,891,891,891,891,892,892,892,892,892,892,892,892,892,892,892,892,892,892,892,892,892,892,892,892,892,892,892,892,892,892,892,892,892,892,892,892,892,892,892,892,892,892,892,892,892,892,892,892,892,892,892,892,892,892,892,892,892,892,892,892,892,894,896,898,900,903,912,918,926,935,948,959,960,961,961,961,961,961,961,960,933,901,859,818,791,769,738,724,712,697,682,649,638,625,614,603,579,561,537,514],"ymouse":[624,624,624,624,624,624,624,624,624,624,624,624,624,624,624,624,624,624,624,624,624,624,624,624,624,624,624,624,624,624,624,624,624,624,624,624,624,624,624,624,624,624,624,624,624,624,624,624,624,624,624,624,624,624,624,624,624,624,624,624,624,624,624,624,624,624,620,614,606,581,560,544,526,511,496,469,461,455,451,449,448,448,448,448,448,448,448,448,448,448,448,447,446,445,445,444,444,444,444,444,444,444,444,444,444,444,444,444,444,444,444,444,444,444,444,444,444,444,444,444,444,444,444,444,444,444,444,444,444,444,444,444,444,444,444,444,444,444,444,444,444,444,444,444,444,444,444,444,444,444,436,433,427,422,413,392,379,364,348,327,309,305,304,304,304,304,304,303,302,298,294,287,282,276,269,248,235,221,209,197,172,162,152,141,127,103,89,78,71],"timestamp_mouse":[10,36,47,66,86,107,127,147,166,186,206,226,247,267,286,306,326,348,367,387,406,426,447,467,487,506,527,547,566,587,606,627,646,667,687,706,727,747,766,787,807,826,846,867,886,907,927,946,967,987,1006,1026,1046,1067,1087,1106,1126,1146,1166,1187,1206,1226,1247,1267,1286,1306,1326,1347,1367,1386,1406,1426,1447,1467,1486,1506,1526,1547,1567,1586,1607,1626,1647,1667,1686,1706,1726,1747,1767,1786,1807,1826,1846,1866,1887,1906,1926,1946,1966,1986,2006,2027,2046,2066,2087,2106,2126,2146,2166,2186,2206,2226,2246,2266,2286,2306,2327,2347,2368,2386,2406,2426,2446,2467,2486,2507,2526,2547,2566,2588,2606,2626,2647,2666,2687,2706,2726,2746,2766,2786,2807,2826,2846,2866,2887,2906,2926,2946,2966,2986,3006,3026,3046,3066,3087,3106,3126,3146,3166,3186,3206,3226,3247,3267,3287,3306,3326,3346,3367,3387,3406,3426,3447,3467,3486,3506,3526,3547,3567,3586,3606,3626,3646,3666,3686,3706,3727,3746,3767],"xSR":741.5,"ySR":573.95,"xT1":424.9,"yT1":0,"xT2":1058.1,"yT2":0,"toosoon":0,"cond_shown":"Incongruent","ratio_trial":300,"L_num":3,"L_den":6,"R_num":4,"R_den":20,"correct_side":1,"subjID":"NataliaErazo26","gender":"1","school":"6","age":"11"},{"start_time":1551900160152,"click_time":1551900161523,"finger_time":1551900161035,"fix_duration":286.1120587756095,"trial":33,"RT":883,"MT":488,"sideResp":1,"stimulus":[],"xmouse":[814,814,814,814,814,814,814,814,814,814,814,814,814,814,814,814,814,814,814,814,814,814,814,814,814,814,814,814,814,814,814,814,814,814,814,814,814,814,814,814,812,807,801,789,775,760,750,740,727,715,685,667,643,622,610,582,571,558,547,539,529,525,524,520,517,509,503,494,484],"ymouse":[594,594,594,594,594,594,594,594,594,594,594,594,594,594,594,594,594,594,594,594,594,594,594,594,594,594,594,594,594,594,594,594,594,594,594,594,594,594,594,594,595,592,586,573,557,536,523,508,491,472,431,407,370,342,321,278,260,241,224,208,190,181,179,168,162,142,128,108,89],"timestamp_mouse":[11,40,52,71,91,111,132,151,171,192,212,231,253,272,292,312,332,351,371,391,411,432,451,471,491,511,531,551,572,591,611,631,651,672,691,711,732,751,771,791,811,831,851,883,891,912,931,951,971,991,1011,1031,1051,1071,1091,1111,1131,1150,1171,1191,1211,1231,1251,1272,1291,1311,1331,1351,1371],"xSR":741.5,"ySR":573.95,"xT1":424.9,"yT1":0,"xT2":1058.1,"yT2":0,"toosoon":0,"cond_shown":"Congruent","ratio_trial":300,"L_num":18,"L_den":20,"R_num":9,"R_den":15,"correct_side":1,"subjID":"NataliaErazo26","gender":"1","school":"6","age":"11"},{"start_time":1551900163617,"click_time":1551900165305,"finger_time":1551900164603,"fix_duration":1171.9472727140521,"trial":34,"RT":986,"MT":702,"sideResp":2,"stimulus":[],"xmouse":[825,824,824,824,824,824,824,824,824,824,824,824,823,823,822,820,819,809,808,807,807,807,807,807,807,807,807,807,807,807,807,807,807,807,807,807,807,807,807,807,807,807,807,807,807,807,807,811,817,826,832,839,855,864,876,888,900,914,935,950,956,962,973,981,989,998,1008,1025,1036,1041,1044,1046,1050,1053,1058,1063,1069,1082,1088,1091,1091,1091,1091,1091,1091],"ymouse":[614,614,614,614,614,614,614,614,614,614,614,614,615,615,615,615,615,617,617,617,617,617,617,617,617,617,617,617,617,617,617,617,617,617,617,617,617,617,617,617,617,617,617,617,617,615,614,602,590,571,557,540,505,486,463,441,419,396,357,335,327,316,297,287,277,265,254,231,218,213,209,206,200,195,189,182,174,158,147,138,130,122,107,102,99],"timestamp_mouse":[9,36,46,67,86,107,126,146,166,187,207,226,247,266,286,306,327,346,367,386,406,427,446,466,487,506,526,546,566,586,606,627,646,666,686,706,725,746,766,786,807,826,846,867,887,906,927,946,967,986,1006,1026,1047,1065,1086,1107,1127,1146,1166,1186,1207,1226,1246,1266,1286,1307,1327,1346,1366,1386,1407,1426,1447,1466,1486,1507,1527,1546,1566,1586,1607,1628,1647,1667,1688],"xSR":741.5,"ySR":573.95,"xT1":424.9,"yT1":0,"xT2":1058.1,"yT2":0,"toosoon":0,"cond_shown":"Congruent","ratio_trial":200,"L_num":6,"L_den":20,"R_num":11,"R_den":22,"correct_side":2,"subjID":"NataliaErazo26","gender":"1","school":"6","age":"11"},{"start_time":1551900168500,"click_time":1551900170204,"finger_time":1551900169944,"fix_duration":334.006692181676,"trial":35,"RT":1444,"MT":260,"sideResp":1,"stimulus":[],"xmouse":[819,819,819,819,819,819,819,819,819,819,819,819,819,819,819,819,819,819,819,819,819,819,819,819,819,819,819,819,819,819,819,819,819,819,819,819,819,819,819,819,819,819,819,819,819,819,819,819,818,818,818,818,818,818,818,818,818,818,818,818,818,818,818,818,818,818,817,815,812,809,801,794,784,769,751,741,729,717,705,674,655,636,600,588,513,493],"ymouse":[616,616,616,616,616,616,616,616,616,616,616,616,616,616,616,616,616,616,616,616,616,616,616,616,616,616,616,616,616,616,616,616,616,616,616,616,616,616,616,616,616,616,616,616,616,616,616,616,616,616,616,617,618,618,618,618,618,618,618,618,618,618,618,618,618,618,619,617,610,604,594,584,570,548,517,499,478,456,435,378,344,312,251,227,104,76],"timestamp_mouse":[9,35,45,65,86,104,125,144,164,184,204,224,244,264,284,304,324,344,365,384,405,424,445,464,484,504,524,544,564,584,604,624,644,664,684,705,725,744,764,784,804,824,844,864,884,905,925,944,964,985,1005,1024,1044,1064,1085,1105,1124,1144,1164,1184,1205,1225,1244,1264,1285,1306,1325,1344,1365,1384,1404,1424,1444,1464,1485,1504,1524,1545,1564,1584,1605,1624,1645,1665,1685,1704],"xSR":741.5,"ySR":573.95,"xT1":424.9,"yT1":0,"xT2":1058.1,"yT2":0,"toosoon":0,"cond_shown":"Incongruent","ratio_trial":100,"L_num":9,"L_den":18,"R_num":6,"R_den":10,"correct_side":2,"subjID":"NataliaErazo26","gender":"1","school":"6","age":"11"},{"start_time":1551900171976,"click_time":1551900173524,"finger_time":1551900172845,"fix_duration":749.9798788754325,"trial":36,"RT":869,"MT":679,"sideResp":2,"stimulus":[],"xmouse":[774,774,774,774,774,774,774,774,774,774,774,774,774,774,774,774,774,774,774,774,774,774,774,774,774,774,774,774,774,774,774,774,774,774,774,774,774,774,774,774,774,779,791,802,814,836,845,857,883,899,927,938,949,956,964,980,991,1001,1015,1022,1034,1041,1047,1054,1060,1070,1076,1082,1089,1099,1114,1117,1117,1118,1118,1118,1118,1117],"ymouse":[616,616,616,616,616,616,616,616,616,616,616,616,616,616,616,616,616,616,616,616,616,616,616,616,616,616,616,616,616,616,616,616,616,616,616,616,616,616,616,616,616,609,590,573,554,516,503,487,459,445,419,405,387,369,351,313,295,276,250,236,210,198,188,176,167,155,149,140,135,127,115,110,107,105,104,101,100,95],"timestamp_mouse":[8,28,48,69,88,108,129,148,169,189,208,228,248,268,288,308,328,348,368,388,409,429,448,468,488,509,528,549,569,588,608,629,649,669,689,708,728,749,769,790,808,828,848,869,888,908,928,948,968,989,1010,1028,1048,1069,1089,1108,1129,1148,1168,1189,1208,1228,1248,1268,1288,1308,1329,1348,1368,1388,1408,1428,1448,1468,1490,1509,1528,1548],"xSR":741.5,"ySR":573.95,"xT1":424.9,"yT1":0,"xT2":1058.1,"yT2":0,"toosoon":0,"cond_shown":"Congruent","ratio_trial":300,"L_num":7,"L_den":14,"R_num":20,"R_den":25,"correct_side":2,"subjID":"NataliaErazo26","gender":"1","school":"6","age":"11"},{"start_time":1551900174998,"click_time":1551900176204,"finger_time":1551900175984,"fix_duration":412.7063159121821,"trial":37,"RT":986,"MT":220,"sideResp":2,"stimulus":[],"xmouse":[798,798,798,798,798,798,798,798,798,798,798,798,798,798,798,798,798,798,798,798,798,798,798,798,798,798,798,798,798,798,798,798,798,798,798,798,798,798,798,798,798,798,798,798,798,799,805,813,821,834,842,857,874,897,946,983,1007,1028,1051,1068,1093],"ymouse":[647,647,647,647,647,647,647,647,647,646,646,646,646,646,646,646,646,646,646,646,646,646,646,646,646,646,646,646,646,646,646,646,646,646,646,646,646,646,646,646,646,646,646,646,646,642,634,625,608,563,537,500,465,425,338,274,234,197,166,139,97],"timestamp_mouse":[10,35,46,67,87,106,126,146,166,186,206,226,247,267,287,306,326,346,366,387,407,426,447,467,487,506,527,547,566,586,607,626,647,666,686,706,726,746,766,786,806,826,846,866,887,906,926,946,966,986,1006,1026,1046,1067,1086,1106,1126,1146,1166,1186,1206],"xSR":741.5,"ySR":573.95,"xT1":424.9,"yT1":0,"xT2":1058.1,"yT2":0,"toosoon":0,"cond_shown":"Incongruent","ratio_trial":300,"L_num":13,"L_den":26,"R_num":12,"R_den":15,"correct_side":2,"subjID":"NataliaErazo26","gender":"1","school":"6","age":"11"},{"start_time":1551900178357,"click_time":1551900179565,"finger_time":1551900179184,"fix_duration":250,"trial":38,"RT":827,"MT":381,"sideResp":2,"stimulus":[],"xmouse":[823,823,823,823,823,823,823,823,823,823,823,823,823,823,823,823,823,823,823,823,823,823,823,823,823,823,823,823,823,823,823,823,823,823,823,823,823,824,825,825,827,829,835,845,850,853,858,868,880,895,912,929,949,972,984,1000,1013,1025,1048,1055,1059],"ymouse":[602,602,602,602,602,602,602,602,602,602,602,602,602,602,602,602,602,602,602,602,602,602,602,602,602,602,602,602,602,602,602,602,602,602,602,602,602,596,591,586,581,572,557,532,520,508,493,458,433,398,360,319,272,218,186,149,117,88,43,30,21],"timestamp_mouse":[8,42,47,67,87,107,127,148,167,187,207,228,248,267,287,308,327,348,368,387,408,427,447,468,487,507,527,547,568,587,608,628,647,667,687,709,727,748,767,788,808,827,847,868,887,907,928,948,967,988,1007,1027,1047,1067,1087,1107,1128,1147,1167,1188,1208],"xSR":741.5,"ySR":573.95,"xT1":424.9,"yT1":0,"xT2":1058.1,"yT2":0,"toosoon":0,"cond_shown":"Congruent","ratio_trial":300,"L_num":1,"L_den":30,"R_num":8,"R_den":24,"correct_side":2,"subjID":"NataliaErazo26","gender":"1","school":"6","age":"11"},{"start_time":1551900181275,"click_time":1551900183524,"finger_time":1551900182685,"fix_duration":349.3903462298525,"trial":39,"RT":1410,"MT":839,"sideResp":2,"stimulus":[],"xmouse":[802,802,802,802,802,802,802,802,802,802,802,802,802,802,802,802,802,802,802,802,802,802,802,802,802,802,802,802,802,802,802,802,802,802,802,802,802,802,802,802,802,802,802,802,802,802,802,802,802,802,802,802,802,802,802,802,802,802,802,802,802,802,802,802,802,801,801,804,806,809,812,813,819,823,832,839,848,864,870,878,885,895,920,934,953,965,975,994,1003,1011,1019,1025,1029,1030,1030,1034,1036,1040,1041,1042,1042,1043,1044,1045,1047,1047,1047,1047,1048,1052,1056,1057,1059],"ymouse":[603,603,603,603,603,603,603,603,603,603,603,603,603,603,603,603,603,603,603,603,603,603,603,603,603,603,603,603,603,603,603,603,603,603,603,603,603,603,603,603,603,603,603,603,603,603,603,603,603,603,603,603,603,603,603,603,603,603,603,603,603,603,603,603,603,602,599,593,587,579,573,565,549,537,516,496,477,442,426,409,392,372,327,299,261,232,207,157,138,121,108,98,91,90,88,84,82,80,78,78,78,77,76,74,73,73,73,73,71,69,66,65,63],"timestamp_mouse":[9,38,49,69,89,109,129,149,169,190,209,229,249,269,290,309,329,349,370,389,410,429,450,470,489,509,529,549,569,590,610,629,650,669,689,711,729,749,769,789,810,829,849,870,890,910,929,949,970,989,1009,1029,1049,1069,1089,1109,1129,1149,1169,1190,1209,1230,1250,1270,1290,1310,1330,1349,1369,1389,1410,1430,1449,1470,1489,1509,1529,1549,1569,1589,1609,1630,1649,1670,1689,1709,1729,1749,1769,1789,1809,1830,1849,1870,1889,1909,1930,1949,1969,1989,2009,2029,2050,2069,2089,2109,2129,2149,2169,2189,2209,2229,2249],"xSR":741.5,"ySR":573.95,"xT1":424.9,"yT1":0,"xT2":1058.1,"yT2":0,"toosoon":0,"cond_shown":"Congruent","ratio_trial":200,"L_num":3,"L_den":12,"R_num":9,"R_den":20,"correct_side":2,"subjID":"NataliaErazo26","gender":"1","school":"6","age":"11"},{"start_time":1551900185320,"click_time":1551900186464,"finger_time":1551900186284,"fix_duration":475.3926643897284,"trial":40,"RT":964,"MT":180,"sideResp":1,"stimulus":[],"xmouse":[801,801,801,801,801,801,801,801,801,801,801,801,801,801,801,801,801,801,801,801,801,801,801,801,801,801,801,801,801,801,801,800,800,800,800,800,800,800,800,800,800,800,800,800,800,800,800,794,786,769,718,663,626,588,552,491,461,441],"ymouse":[602,602,602,602,602,602,602,602,602,602,602,602,602,602,602,602,602,602,602,602,602,602,602,602,602,602,602,602,602,602,602,601,601,601,601,601,601,601,601,601,601,601,601,601,601,601,596,583,563,537,459,382,330,282,235,158,121,93],"timestamp_mouse":[8,39,45,64,85,105,125,144,165,185,206,224,244,264,284,304,324,344,364,384,404,424,445,464,484,505,524,544,564,584,604,624,644,664,685,705,725,745,765,785,804,825,844,865,885,905,924,945,964,985,1005,1024,1045,1065,1084,1105,1124,1144],"xSR":741.5,"ySR":573.95,"xT1":424.9,"yT1":0,"xT2":1058.1,"yT2":0,"toosoon":0,"cond_shown":"Incongruent","ratio_trial":100,"L_num":1,"L_den":2,"R_num":8,"R_den":20,"correct_side":1,"subjID":"NataliaErazo26","gender":"1","school":"6","age":"11"},{"start_time":1551900188307,"click_time":1551900190144,"finger_time":1551900189384,"fix_duration":362.19698329944606,"trial":41,"RT":1077,"MT":760,"sideResp":2,"stimulus":[],"xmouse":[804,804,804,804,804,804,804,804,804,804,804,804,804,804,804,804,804,804,804,804,804,804,804,804,804,804,804,804,804,804,804,804,804,804,804,804,804,804,804,804,804,804,804,804,804,804,804,804,804,804,804,808,817,824,833,842,852,855,856,858,860,865,869,872,877,885,894,903,912,923,929,949,962,975,987,997,1015,1021,1029,1032,1038,1044,1046,1047,1047,1047,1048,1052,1055,1058,1059,1062],"ymouse":[587,587,587,587,587,587,587,587,587,587,587,587,587,587,587,587,587,587,587,587,587,587,587,587,587,587,587,587,587,587,587,587,587,587,587,587,587,587,587,587,587,587,587,587,587,587,587,587,587,587,587,585,575,564,549,532,510,503,497,492,482,470,463,453,444,424,410,397,384,364,355,324,306,289,270,252,219,205,185,177,162,150,145,141,138,135,126,119,115,108,103,93],"timestamp_mouse":[33,37,57,77,98,118,138,157,177,198,218,237,258,277,297,318,337,357,377,397,417,437,458,477,498,517,537,557,578,598,618,637,658,677,698,718,738,758,777,798,818,837,857,878,898,917,937,957,977,998,1017,1038,1057,1077,1098,1118,1137,1157,1178,1197,1217,1237,1257,1277,1297,1319,1337,1357,1378,1398,1418,1437,1457,1477,1498,1517,1537,1558,1577,1597,1618,1637,1657,1678,1697,1718,1737,1758,1778,1797,1817,1837],"xSR":741.5,"ySR":573.95,"xT1":424.9,"yT1":0,"xT2":1058.1,"yT2":0,"toosoon":0,"cond_shown":"Incongruent","ratio_trial":300,"L_num":13,"L_den":26,"R_num":12,"R_den":15,"correct_side":2,"subjID":"NataliaErazo26","gender":"1","school":"6","age":"11"},{"start_time":1551900193019,"click_time":1551900194944,"finger_time":1551900194264,"fix_duration":1473.9027485304027,"trial":42,"RT":1245,"MT":680,"sideResp":1,"stimulus":[],"xmouse":[792,792,792,792,792,792,792,792,792,792,792,792,792,792,792,792,792,792,792,792,792,792,792,792,792,792,792,792,792,792,792,792,792,792,792,792,792,792,792,792,792,792,789,788,787,786,786,786,786,786,786,785,782,780,779,778,774,773,771,768,764,754,745,738,728,716,695,683,671,662,658,653,651,647,644,641,631,623,614,613,605,590,579,567,558,550,541,535,532,529,527,522,519,516,513,510,507],"ymouse":[611,611,611,611,611,611,611,611,611,611,611,611,611,611,611,611,611,611,611,611,611,611,611,611,611,611,611,611,611,611,611,611,611,611,611,611,611,611,611,611,611,611,612,612,612,612,612,612,612,612,612,612,611,610,609,608,604,603,600,597,592,577,563,550,534,517,480,460,440,421,405,380,364,353,342,333,313,300,281,277,264,236,215,202,187,175,156,146,142,136,132,125,120,114,109,103,96],"timestamp_mouse":[9,43,45,65,85,105,126,145,166,185,206,225,245,267,285,305,326,345,366,386,405,426,446,467,485,505,526,546,565,585,606,625,645,665,685,705,725,745,766,786,805,825,845,865,886,906,926,946,966,986,1006,1026,1046,1065,1086,1106,1125,1145,1165,1186,1207,1225,1245,1265,1285,1305,1326,1345,1365,1385,1405,1425,1445,1465,1486,1507,1525,1545,1569,1586,1605,1625,1646,1665,1686,1706,1725,1745,1765,1785,1805,1825,1845,1865,1885,1906,1925],"xSR":741.5,"ySR":573.95,"xT1":424.9,"yT1":0,"xT2":1058.1,"yT2":0,"toosoon":0,"cond_shown":"Congruent","ratio_trial":200,"L_num":16,"L_den":30,"R_num":9,"R_den":27,"correct_side":1,"subjID":"NataliaErazo26","gender":"1","school":"6","age":"11"},{"start_time":1551900199425,"click_time":1551900201266,"finger_time":1551900200764,"fix_duration":1117.5650000791686,"trial":43,"RT":1339,"MT":502,"sideResp":2,"stimulus":[],"xmouse":[809,809,809,809,809,809,809,809,809,809,809,809,809,809,809,809,809,809,809,809,809,809,809,809,809,809,809,809,809,809,809,809,809,809,809,809,809,809,809,809,809,809,809,809,809,809,809,809,809,809,809,809,809,809,809,809,809,809,809,809,809,809,809,810,811,813,819,834,845,858,875,906,951,971,987,1001,1014,1037,1046,1054,1064,1067,1070,1071,1072,1072,1072,1072,1072,1071,1070,1070,1077],"ymouse":[597,597,597,597,597,597,597,597,597,597,597,597,597,597,597,597,597,597,597,597,597,597,597,597,597,597,597,597,597,597,597,597,597,597,597,597,597,597,597,597,597,597,597,597,597,597,597,597,597,597,597,597,597,597,597,597,597,597,597,597,597,597,596,594,590,586,577,549,529,508,484,439,376,347,325,305,283,236,214,194,173,164,155,152,149,146,143,140,138,137,132,125,98],"timestamp_mouse":[1,19,40,59,79,100,120,140,161,179,199,219,241,260,280,299,319,339,360,380,399,419,440,459,479,499,519,539,559,581,599,619,640,659,679,699,720