[{"start_time":1551882346558,"click_time":1551882347143,"finger_time":1551882346567,"fix_duration":352.3481014784159,"trial":0,"RT":9,"MT":576,"sideResp":1,"stimulus":[],"xmouse":[777,777,777,777,777,777,777,777,777,777,777,777,777,777,777,777,777,777,773,766,731,607,548,520,510,510,509,503,495,490],"ymouse":[529,529,529,529,529,529,529,529,529,529,529,529,529,529,529,529,529,529,524,504,426,274,211,179,155,147,131,117,104,93],"timestamp_mouse":[9,24,45,65,85,105,125,145,165,185,204,225,244,264,285,305,324,345,365,386,404,425,444,465,485,505,524,545,564,584],"xSR":741.5,"ySR":469.95,"xT1":424.9,"yT1":0,"xT2":1058.1,"yT2":0,"toosoon":0,"cond_shown":"Incongruent","ratio_trial":100,"L_num":9,"L_den":18,"R_num":6,"R_den":10,"correct_side":2,"subjID":"nathaliamendezrueda27","gender":"1","age":"12","school":"6","test":{"fix_dur":[250,1500],"timestim":1000,"targets_dim":[100,100],"targets_relative_coord":[0.3,0.7],"size_stim":[880,420],"start_dim":[100,100],"size_start":[300,300],"size_fix":60,"samplingrate":20,"img_types":["Congruent","Incongruent"],"ratios":[100,200,300],"rep_conds":19,"nTrials":120,"trials_to_rest":500,"Trials_order":[79,90,35,105,23,30,67,95,31,75,109,107,70,49,20,80,100,81,17,25,108,86,103,87,55,13,93,37,47,12,45,115,32,94,113,85,34,82,71,48,69,58,89,91,39,2,38,11,64,18,56,76,88,19,61,66,101,119,118,41,8,1,98,46,72,112,96,40,15,3,104,16,24,74,84,33,116,60,99,7,10,26,57,65,21,51,111,73,59,4,106,36,14,54,29,6,63,5,78,27,43,50,97,28,77,44,68,42,52,53,22,62,9,83,117,92,102,0,114,110],"cond_shown":["Incongruent","Congruent","Incongruent","Incongruent","Incongruent","Congruent","Incongruent","Incongruent","Incongruent","Incongruent","Incongruent","Incongruent","Congruent","Incongruent","Congruent","Congruent","Congruent","Incongruent","Incongruent","Incongruent","Congruent","Congruent","Incongruent","Incongruent","Incongruent","Incongruent","Incongruent","Incongruent","Incongruent","Congruent","Incongruent","Incongruent","Congruent","Congruent","Incongruent","Incongruent","Congruent","Congruent","Incongruent","Congruent","Incongruent","Congruent","Incongruent","Incongruent","Incongruent","Congruent","Congruent","Incongruent","Congruent","Congruent","Congruent","Congruent","Congruent","Incongruent","Incongruent","Congruent","Incongruent","Incongruent","Congruent","Incongruent","Congruent","Incongruent","Congruent","Congruent","Congruent","Congruent","Congruent","Congruent","Incongruent","Incongruent","Congruent","Congruent","Congruent","Congruent","Congruent","Incongruent","Congruent","Congruent","Incongruent","Incongruent","Congruent","Congruent","Incongruent","Incongruent","Incongruent","Incongruent","Incongruent","Incongruent","Incongruent","Congruent","Congruent","Congruent","Congruent","Congruent","Incongruent","Congruent","Incongruent","Incongruent","Congruent","Incongruent","Incongruent","Congruent","Incongruent","Congruent","Incongruent","Congruent","Congruent","Congruent","Congruent","Incongruent","Congruent","Congruent","Incongruent","Incongruent","Incongruent","Congruent","Congruent","Congruent","Congruent","Congruent"],"ratio_trial":[100,100,300,200,300,100,100,300,100,200,100,300,300,100,200,200,300,200,300,100,100,200,100,200,100,100,200,100,300,100,200,100,200,300,300,100,300,300,300,100,200,300,300,100,200,200,200,300,300,100,200,300,300,100,100,100,300,300,300,300,200,100,200,300,100,300,100,300,200,200,200,300,100,200,100,200,200,100,200,100,300,200,200,300,200,200,200,100,300,300,300,100,200,100,300,100,200,300,100,200,100,200,100,300,300,200,200,100,300,300,300,200,200,300,200,200,100,100,100,200],"left_num":[9,9,1,4,4,11,10,1,6,11,10,7,20,1,21,3,1,3,13,6,8,14,6,7,2,3,6,4,13,3,1,10,16,11,7,9,4,8,1,9,4,8,13,3,7,11,3,13,7,8,6,9,20,10,9,7,8,13,11,2,3,12,5,3,3,11,6,7,1,4,11,4,8,8,4,7,20,8,14,11,1,11,4,4,7,14,14,6,2,1,2,6,16,1,8,3,14,13,1,7,1,6,9,5,4,3,8,4,3,13,3,3,4,4,1,14,11,8,6,8],"right_num":[6,8,3,1,2,6,8,2,13,3,8,8,8,8,2,9,6,1,12,3,2,6,3,12,8,11,3,8,12,2,2,9,9,2,8,20,2,1,3,8,14,10,12,8,4,3,14,12,20,2,3,3,13,8,13,15,9,12,1,6,14,9,14,4,2,1,5,20,3,14,3,1,2,2,15,12,9,2,6,9,6,3,14,2,6,6,12,11,6,11,12,15,12,18,14,2,12,12,18,8,8,3,20,7,2,7,2,6,4,12,4,14,6,8,3,6,6,2,5,7],"left_den":[18,15,2,30,20,22,25,2,10,20,25,10,25,2,30,12,5,10,26,12,16,28,12,10,4,5,20,8,26,6,3,25,30,22,10,10,5,16,2,15,6,15,26,5,15,22,10,26,14,16,15,10,25,25,15,14,10,26,22,4,6,24,10,6,6,22,20,14,2,6,22,10,16,15,10,10,25,16,30,22,5,22,6,20,15,30,30,10,4,5,10,12,20,2,10,6,30,26,2,10,2,15,10,25,20,10,15,8,6,26,6,6,5,5,2,28,22,16,20,15],"right_den":[10,16,15,3,4,15,16,10,26,4,16,20,16,20,4,20,12,2,15,5,5,20,5,24,20,22,6,20,15,5,15,18,27,10,20,25,4,5,15,16,30,12,15,16,6,10,28,15,25,5,15,5,26,16,26,25,18,15,5,30,20,15,20,5,5,5,25,25,10,30,10,10,5,6,30,24,15,5,9,15,12,10,30,4,9,9,18,22,30,22,24,25,20,30,28,5,18,15,30,16,20,15,25,14,4,14,6,10,5,15,5,20,10,16,10,20,15,5,25,21],"correct_side":[2,1,1,2,2,1,2,1,1,2,2,1,1,1,1,2,2,2,2,2,1,1,2,1,1,1,2,1,2,1,1,2,1,1,1,1,1,1,1,1,1,2,2,1,2,1,2,2,2,1,1,1,1,2,1,2,1,2,1,1,2,2,2,2,1,1,1,2,1,1,1,1,1,1,2,1,1,1,2,2,2,1,1,2,2,2,2,1,1,2,2,2,1,2,1,1,2,2,2,1,1,1,1,2,2,2,1,2,2,2,2,2,1,1,1,1,1,1,1,1],"img_shown":["img2/100/Incongruent/R/I_Dist_100_LN_9_LD_18_RN_6_RD_10_1.png","img2/100/Congruent/L/C_Dist_100_LN_9_LD_15_RN_8_RD_16_0.png","img2/300/Incongruent/L/I_Dist_300_LN_1_LD_2_RN_3_RD_15_0.png","img2/200/Incongruent/R/I_Dist_200_LN_4_LD_30_RN_1_RD_3_1.png","img2/300/Incongruent/R/I_Dist_300_LN_4_LD_20_RN_2_RD_4_1.png","img2/100/Congruent/L/C_Dist_100_LN_11_LD_22_RN_6_RD_15_0.png","img2/100/Incongruent/R/I_Dist_100_LN_10_LD_25_RN_8_RD_16_1.png","img2/300/Incongruent/L/I_Dist_300_LN_1_LD_2_RN_2_RD_10_0.png","img2/100/Incongruent/L/I_Dist_100_LN_6_LD_10_RN_13_RD_26_0.png","img2/200/Incongruent/R/I_Dist_200_LN_11_LD_20_RN_3_RD_4_1.png","img2/100/Incongruent/R/I_Dist_100_LN_10_LD_25_RN_8_RD_16_1.png","img2/300/Incongruent/L/I_Dist_300_LN_7_LD_10_RN_8_RD_20_0.png","img2/300/Congruent/L/C_Dist_300_LN_20_LD_25_RN_8_RD_16_0.png","img2/100/Incongruent/L/I_Dist_100_LN_1_LD_2_RN_8_RD_20_0.png","img2/200/Congruent/L/C_Dist_200_LN_21_LD_30_RN_2_RD_4_0.png","img2/200/Congruent/R/C_Dist_200_LN_3_LD_12_RN_9_RD_20_1.png","img2/300/Congruent/R/C_Dist_300_LN_1_LD_5_RN_6_RD_12_1.png","img2/200/Incongruent/R/I_Dist_200_LN_3_LD_10_RN_1_RD_2_1.png","img2/300/Incongruent/R/I_Dist_300_LN_13_LD_26_RN_12_RD_15_1.png","img2/100/Incongruent/R/I_Dist_100_LN_6_LD_12_RN_3_RD_5_1.png","img2/100/Congruent/L/C_Dist_100_LN_8_LD_16_RN_2_RD_5_0.png","img2/200/Congruent/L/C_Dist_200_LN_14_LD_28_RN_6_RD_20_0.png","img2/100/Incongruent/R/I_Dist_100_LN_6_LD_12_RN_3_RD_5_1.png","img2/200/Incongruent/L/I_Dist_200_LN_7_LD_10_RN_12_RD_24_0.png","img2/100/Incongruent/L/I_Dist_100_LN_2_LD_4_RN_8_RD_20_0.png","img2/100/Incongruent/L/I_Dist_100_LN_3_LD_5_RN_11_RD_22_0.png","img2/200/Incongruent/R/I_Dist_200_LN_6_LD_20_RN_3_RD_6_1.png","img2/100/Incongruent/L/I_Dist_100_LN_4_LD_8_RN_8_RD_20_0.png","img2/300/Incongruent/R/I_Dist_300_LN_13_LD_26_RN_12_RD_15_1.png","img2/100/Congruent/L/C_Dist_100_LN_3_LD_6_RN_2_RD_5_0.png","img2/200/Incongruent/L/I_Dist_200_LN_1_LD_3_RN_2_RD_15_0.png","img2/100/Incongruent/R/I_Dist_100_LN_10_LD_25_RN_9_RD_18_1.png","img2/200/Congruent/L/C_Dist_200_LN_16_LD_30_RN_9_RD_27_0.png","img2/300/Congruent/L/C_Dist_300_LN_11_LD_22_RN_2_RD_10_0.png","img2/300/Incongruent/L/I_Dist_300_LN_7_LD_10_RN_8_RD_20_0.png","img2/100/Incongruent/L/I_Dist_100_LN_9_LD_10_RN_20_RD_25_0.png","img2/300/Congruent/L/C_Dist_300_LN_4_LD_5_RN_2_RD_4_0.png","img2/300/Congruent/L/C_Dist_300_LN_8_LD_16_RN_1_RD_5_0.png","img2/300/Incongruent/L/I_Dist_300_LN_1_LD_2_RN_3_RD_15_0.png","img2/100/Congruent/L/C_Dist_100_LN_9_LD_15_RN_8_RD_16_0.png","img2/200/Incongruent/L/I_Dist_200_LN_4_LD_6_RN_14_RD_30_0.png","img2/300/Congruent/R/C_Dist_300_LN_8_LD_15_RN_10_RD_12_1.png","img2/300/Incongruent/R/I_Dist_300_LN_13_LD_26_RN_12_RD_15_1.png","img2/100/Incongruent/L/I_Dist_100_LN_3_LD_5_RN_8_RD_16_0.png","img2/200/Incongruent/R/I_Dist_200_LN_7_LD_15_RN_4_RD_6_1.png","img2/200/Congruent/L/C_Dist_200_LN_11_LD_22_RN_3_RD_10_0.png","img2/200/Congruent/R/C_Dist_200_LN_3_LD_10_RN_14_RD_28_1.png","img2/300/Incongruent/R/I_Dist_300_LN_13_LD_26_RN_12_RD_15_1.png","img2/300/Congruent/R/C_Dist_300_LN_7_LD_14_RN_20_RD_25_1.png","img2/100/Congruent/L/C_Dist_100_LN_8_LD_16_RN_2_RD_5_0.png","img2/200/Congruent/L/C_Dist_200_LN_6_LD_15_RN_3_RD_15_0.png","img2/300/Congruent/L/C_Dist_300_LN_9_LD_10_RN_3_RD_5_0.png","img2/300/Congruent/L/C_Dist_300_LN_20_LD_25_RN_13_RD_26_0.png","img2/100/Incongruent/R/I_Dist_100_LN_10_LD_25_RN_8_RD_16_1.png","img2/100/Incongruent/L/I_Dist_100_LN_9_LD_15_RN_13_RD_26_0.png","img2/100/Congruent/R/C_Dist_100_LN_7_LD_14_RN_15_RD_25_1.png","img2/300/Incongruent/L/I_Dist_300_LN_8_LD_10_RN_9_RD_18_0.png","img2/300/Incongruent/R/I_Dist_300_LN_13_LD_26_RN_12_RD_15_1.png","img2/300/Congruent/L/C_Dist_300_LN_11_LD_22_RN_1_RD_5_0.png","img2/300/Incongruent/L/I_Dist_300_LN_2_LD_4_RN_6_RD_30_0.png","img2/200/Congruent/R/C_Dist_200_LN_3_LD_6_RN_14_RD_20_1.png","img2/100/Incongruent/R/I_Dist_100_LN_12_LD_24_RN_9_RD_15_1.png","img2/200/Congruent/R/C_Dist_200_LN_5_LD_10_RN_14_RD_20_1.png","img2/300/Congruent/R/C_Dist_300_LN_3_LD_6_RN_4_RD_5_1.png","img2/100/Congruent/L/C_Dist_100_LN_3_LD_6_RN_2_RD_5_0.png","img2/300/Congruent/L/C_Dist_300_LN_11_LD_22_RN_1_RD_5_0.png","img2/100/Congruent/L/C_Dist_100_LN_6_LD_20_RN_5_RD_25_0.png","img2/300/Congruent/R/C_Dist_300_LN_7_LD_14_RN_20_RD_25_1.png","img2/200/Incongruent/L/I_Dist_200_LN_1_LD_2_RN_3_RD_10_0.png","img2/200/Incongruent/L/I_Dist_200_LN_4_LD_6_RN_14_RD_30_0.png","img2/200/Congruent/L/C_Dist_200_LN_11_LD_22_RN_3_RD_10_0.png","img2/300/Congruent/L/C_Dist_300_LN_4_LD_10_RN_1_RD_10_0.png","img2/100/Congruent/L/C_Dist_100_LN_8_LD_16_RN_2_RD_5_0.png","img2/200/Congruent/L/C_Dist_200_LN_8_LD_15_RN_2_RD_6_0.png","img2/100/Congruent/R/C_Dist_100_LN_4_LD_10_RN_15_RD_30_1.png","img2/200/Incongruent/L/I_Dist_200_LN_7_LD_10_RN_12_RD_24_0.png","img2/200/Congruent/L/C_Dist_200_LN_20_LD_25_RN_9_RD_15_0.png","img2/100/Congruent/L/C_Dist_100_LN_8_LD_16_RN_2_RD_5_0.png","img2/200/Incongruent/R/I_Dist_200_LN_14_LD_30_RN_6_RD_9_1.png","img2/100/Incongruent/R/I_Dist_100_LN_11_LD_22_RN_9_RD_15_1.png","img2/300/Congruent/R/C_Dist_300_LN_1_LD_5_RN_6_RD_12_1.png","img2/200/Congruent/L/C_Dist_200_LN_11_LD_22_RN_3_RD_10_0.png","img2/200/Incongruent/L/I_Dist_200_LN_4_LD_6_RN_14_RD_30_0.png","img2/300/Incongruent/R/I_Dist_300_LN_4_LD_20_RN_2_RD_4_1.png","img2/200/Incongruent/R/I_Dist_200_LN_7_LD_15_RN_6_RD_9_1.png","img2/200/Incongruent/R/I_Dist_200_LN_14_LD_30_RN_6_RD_9_1.png","img2/200/Incongruent/R/I_Dist_200_LN_14_LD_30_RN_12_RD_18_1.png","img2/100/Incongruent/L/I_Dist_100_LN_6_LD_10_RN_11_RD_22_0.png","img2/300/Incongruent/L/I_Dist_300_LN_2_LD_4_RN_6_RD_30_0.png","img2/300/Congruent/R/C_Dist_300_LN_1_LD_5_RN_11_RD_22_1.png","img2/300/Congruent/R/C_Dist_300_LN_2_LD_10_RN_12_RD_24_1.png","img2/100/Congruent/R/C_Dist_100_LN_6_LD_12_RN_15_RD_25_1.png","img2/200/Congruent/L/C_Dist_200_LN_16_LD_20_RN_12_RD_20_0.png","img2/100/Congruent/R/C_Dist_100_LN_1_LD_2_RN_18_RD_30_1.png","img2/300/Incongruent/L/I_Dist_300_LN_8_LD_10_RN_14_RD_28_0.png","img2/100/Congruent/L/C_Dist_100_LN_3_LD_6_RN_2_RD_5_0.png","img2/200/Incongruent/R/I_Dist_200_LN_14_LD_30_RN_12_RD_18_1.png","img2/300/Incongruent/R/I_Dist_300_LN_13_LD_26_RN_12_RD_15_1.png","img2/100/Congruent/R/C_Dist_100_LN_1_LD_2_RN_18_RD_30_1.png","img2/200/Incongruent/L/I_Dist_200_LN_7_LD_10_RN_8_RD_16_0.png","img2/100/Incongruent/L/I_Dist_100_LN_1_LD_2_RN_8_RD_20_0.png","img2/200/Congruent/L/C_Dist_200_LN_6_LD_15_RN_3_RD_15_0.png","img2/100/Incongruent/L/I_Dist_100_LN_9_LD_10_RN_20_RD_25_0.png","img2/300/Congruent/R/C_Dist_300_LN_5_LD_25_RN_7_RD_14_1.png","img2/300/Incongruent/R/I_Dist_300_LN_4_LD_20_RN_2_RD_4_1.png","img2/200/Congruent/R/C_Dist_200_LN_3_LD_10_RN_7_RD_14_1.png","img2/200/Congruent/L/C_Dist_200_LN_8_LD_15_RN_2_RD_6_0.png","img2/100/Congruent/R/C_Dist_100_LN_4_LD_8_RN_6_RD_10_1.png","img2/300/Congruent/R/C_Dist_300_LN_3_LD_6_RN_4_RD_5_1.png","img2/300/Incongruent/R/I_Dist_300_LN_13_LD_26_RN_12_RD_15_1.png","img2/300/Congruent/R/C_Dist_300_LN_3_LD_6_RN_4_RD_5_1.png","img2/200/Congruent/R/C_Dist_200_LN_3_LD_6_RN_14_RD_20_1.png","img2/200/Incongruent/L/I_Dist_200_LN_4_LD_5_RN_6_RD_10_0.png","img2/300/Incongruent/L/I_Dist_300_LN_4_LD_5_RN_8_RD_16_0.png","img2/200/Incongruent/L/I_Dist_200_LN_1_LD_2_RN_3_RD_10_0.png","img2/200/Congruent/L/C_Dist_200_LN_14_LD_28_RN_6_RD_20_0.png","img2/100/Congruent/L/C_Dist_100_LN_11_LD_22_RN_6_RD_15_0.png","img2/100/Congruent/L/C_Dist_100_LN_8_LD_16_RN_2_RD_5_0.png","img2/100/Congruent/L/C_Dist_100_LN_6_LD_20_RN_5_RD_25_0.png","img2/200/Congruent/L/C_Dist_200_LN_8_LD_15_RN_7_RD_21_0.png"],"dist100_C":[["C_Dist_100_LN_10_LD_25_RN_3_RD_10_0.png","C_Dist_100_LN_11_LD_22_RN_4_RD_10_0.png","C_Dist_100_LN_11_LD_22_RN_6_RD_15_0.png","C_Dist_100_LN_15_LD_25_RN_13_RD_26_0.png","C_Dist_100_LN_3_LD_6_RN_2_RD_5_0.png","C_Dist_100_LN_6_LD_20_RN_5_RD_25_0.png","C_Dist_100_LN_8_LD_16_RN_2_RD_5_0.png","C_Dist_100_LN_9_LD_15_RN_8_RD_16_0.png"],["C_Dist_100_LN_1_LD_2_RN_18_RD_30_1.png","C_Dist_100_LN_1_LD_2_RN_3_RD_5_1.png","C_Dist_100_LN_12_LD_30_RN_13_RD_26_1.png","C_Dist_100_LN_2_LD_5_RN_11_RD_22_1.png","C_Dist_100_LN_2_LD_5_RN_6_RD_12_1.png","C_Dist_100_LN_3_LD_20_RN_4_RD_16_1.png","C_Dist_100_LN_4_LD_10_RN_15_RD_30_1.png","C_Dist_100_LN_4_LD_8_RN_6_RD_10_1.png","C_Dist_100_LN_6_LD_12_RN_15_RD_25_1.png","C_Dist_100_LN_7_LD_14_RN_15_RD_25_1.png","C_Dist_100_LN_7_LD_14_RN_9_RD_15_1.png"]],"dist100_I":[["I_Dist_100_LN_1_LD_2_RN_8_RD_20_0.png","I_Dist_100_LN_2_LD_4_RN_6_RD_15_0.png","I_Dist_100_LN_2_LD_4_RN_8_RD_20_0.png","I_Dist_100_LN_3_LD_5_RN_11_RD_22_0.png","I_Dist_100_LN_3_LD_5_RN_8_RD_16_0.png","I_Dist_100_LN_3_LD_6_RN_4_RD_10_0.png","I_Dist_100_LN_3_LD_9_RN_7_RD_30_0.png","I_Dist_100_LN_4_LD_8_RN_8_RD_20_0.png","I_Dist_100_LN_6_LD_10_RN_11_RD_22_0.png","I_Dist_100_LN_6_LD_10_RN_13_RD_26_0.png","I_Dist_100_LN_6_LD_10_RN_7_RD_14_0.png","I_Dist_100_LN_9_LD_10_RN_20_RD_25_0.png","I_Dist_100_LN_9_LD_15_RN_13_RD_26_0.png","I_Dist_100_LN_9_LD_15_RN_14_RD_28_0.png"],["I_Dist_100_LN_10_LD_25_RN_8_RD_16_1.png","I_Dist_100_LN_10_LD_25_RN_9_RD_18_1.png","I_Dist_100_LN_11_LD_22_RN_9_RD_15_1.png","I_Dist_100_LN_12_LD_24_RN_9_RD_15_1.png","I_Dist_100_LN_12_LD_30_RN_2_RD_4_1.png","I_Dist_100_LN_13_LD_26_RN_12_RD_20_1.png","I_Dist_100_LN_13_LD_26_RN_6_RD_10_1.png","I_Dist_100_LN_17_LD_30_RN_10_RD_15_1.png","I_Dist_100_LN_6_LD_12_RN_3_RD_5_1.png","I_Dist_100_LN_8_LD_16_RN_6_RD_10_1.png","I_Dist_100_LN_8_LD_20_RN_1_RD_2_1.png","I_Dist_100_LN_9_LD_18_RN_6_RD_10_1.png"]],"dist100_S":[["E_Dist_100_LN_2_LD_12_RN_2_RD_30_0.png","E_Dist_100_LN_6_LD_10_RN_6_RD_12_0.png"],["E_Dist_100_LN_6_LD_12_RN_6_RD_10_1.png"]],"dist200_C":[["C_Dist_200_LN_11_LD_22_RN_3_RD_10_0.png","C_Dist_200_LN_12_LD_15_RN_6_RD_10_0.png","C_Dist_200_LN_12_LD_20_RN_6_RD_15_0.png","C_Dist_200_LN_14_LD_28_RN_6_RD_20_0.png","C_Dist_200_LN_15_LD_25_RN_4_RD_10_0.png","C_Dist_200_LN_16_LD_20_RN_12_RD_20_0.png","C_Dist_200_LN_16_LD_30_RN_9_RD_27_0.png","C_Dist_200_LN_20_LD_25_RN_9_RD_15_0.png","C_Dist_200_LN_21_LD_30_RN_2_RD_4_0.png","C_Dist_200_LN_4_LD_10_RN_3_RD_15_0.png","C_Dist_200_LN_4_LD_8_RN_3_RD_10_0.png","C_Dist_200_LN_6_LD_15_RN_3_RD_15_0.png","C_Dist_200_LN_7_LD_21_RN_2_RD_15_0.png","C_Dist_200_LN_8_LD_15_RN_2_RD_6_0.png","C_Dist_200_LN_8_LD_15_RN_3_RD_9_0.png","C_Dist_200_LN_8_LD_15_RN_7_RD_21_0.png","C_Dist_200_LN_9_LD_20_RN_4_RD_16_0.png"],["C_Dist_200_LN_1_LD_2_RN_21_RD_30_1.png","C_Dist_200_LN_13_LD_26_RN_14_RD_20_1.png","C_Dist_200_LN_3_LD_10_RN_11_RD_22_1.png","C_Dist_200_LN_3_LD_10_RN_14_RD_28_1.png","C_Dist_200_LN_3_LD_10_RN_7_RD_14_1.png","C_Dist_200_LN_3_LD_12_RN_9_RD_20_1.png","C_Dist_200_LN_3_LD_6_RN_14_RD_20_1.png","C_Dist_200_LN_5_LD_10_RN_14_RD_20_1.png","C_Dist_200_LN_6_LD_12_RN_7_RD_10_1.png","C_Dist_200_LN_6_LD_20_RN_11_RD_22_1.png","C_Dist_200_LN_7_LD_15_RN_18_RD_27_1.png","C_Dist_200_LN_9_LD_30_RN_13_RD_26_1.png"]],"dist200_I":[["I_Dist_200_LN_1_LD_2_RN_3_RD_10_0.png","I_Dist_200_LN_1_LD_3_RN_2_RD_15_0.png","I_Dist_200_LN_3_LD_4_RN_11_RD_20_0.png","I_Dist_200_LN_4_LD_5_RN_6_RD_10_0.png","I_Dist_200_LN_4_LD_6_RN_14_RD_30_0.png","I_Dist_200_LN_7_LD_10_RN_12_RD_24_0.png","I_Dist_200_LN_7_LD_10_RN_14_RD_28_0.png","I_Dist_200_LN_7_LD_10_RN_8_RD_16_0.png"],["I_Dist_200_LN_11_LD_20_RN_3_RD_4_1.png","I_Dist_200_LN_14_LD_30_RN_12_RD_18_1.png","I_Dist_200_LN_14_LD_30_RN_6_RD_9_1.png","I_Dist_200_LN_3_LD_10_RN_1_RD_2_1.png","I_Dist_200_LN_4_LD_30_RN_1_RD_3_1.png","I_Dist_200_LN_6_LD_20_RN_3_RD_6_1.png","I_Dist_200_LN_7_LD_15_RN_4_RD_6_1.png","I_Dist_200_LN_7_LD_15_RN_6_RD_9_1.png","I_Dist_200_LN_9_LD_15_RN_8_RD_10_1.png"]],"dist200_S":[["E_Dist_200_LN_3_LD_6_RN_3_RD_10_0.png"],["E_Dist_200_LN_3_LD_10_RN_3_RD_6_1.png"]],"dist300_C":[["C_Dist_300_LN_11_LD_22_RN_1_RD_5_0.png","C_Dist_300_LN_11_LD_22_RN_2_RD_10_0.png","C_Dist_300_LN_11_LD_22_RN_4_RD_20_0.png","C_Dist_300_LN_12_LD_24_RN_2_RD_10_0.png","C_Dist_300_LN_18_LD_20_RN_9_RD_15_0.png","C_Dist_300_LN_20_LD_25_RN_13_RD_26_0.png","C_Dist_300_LN_20_LD_25_RN_14_RD_28_0.png","C_Dist_300_LN_20_LD_25_RN_5_RD_10_0.png","C_Dist_300_LN_20_LD_25_RN_8_RD_16_0.png","C_Dist_300_LN_20_LD_25_RN_9_RD_18_0.png","C_Dist_300_LN_24_LD_30_RN_2_RD_4_0.png","C_Dist_300_LN_24_LD_30_RN_8_RD_16_0.png","C_Dist_300_LN_3_LD_6_RN_2_RD_10_0.png","C_Dist_300_LN_4_LD_10_RN_1_RD_10_0.png","C_Dist_300_LN_4_LD_5_RN_2_RD_4_0.png","C_Dist_300_LN_8_LD_16_RN_1_RD_5_0.png","C_Dist_300_LN_9_LD_10_RN_3_RD_5_0.png"],["C_Dist_300_LN_1_LD_20_RN_7_RD_20_1.png","C_Dist_300_LN_1_LD_3_RN_19_RD_30_1.png","C_Dist_300_LN_1_LD_30_RN_8_RD_24_1.png","C_Dist_300_LN_1_LD_5_RN_11_RD_22_1.png","C_Dist_300_LN_1_LD_5_RN_3_RD_6_1.png","C_Dist_300_LN_1_LD_5_RN_6_RD_12_1.png","C_Dist_300_LN_2_LD_10_RN_12_RD_24_1.png","C_Dist_300_LN_2_LD_20_RN_10_RD_25_1.png","C_Dist_300_LN_3_LD_12_RN_11_RD_20_1.png","C_Dist_300_LN_3_LD_6_RN_4_RD_5_1.png","C_Dist_300_LN_4_LD_20_RN_13_RD_26_1.png","C_Dist_300_LN_5_LD_25_RN_6_RD_12_1.png","C_Dist_300_LN_5_LD_25_RN_7_RD_14_1.png","C_Dist_300_LN_7_LD_14_RN_20_RD_25_1.png","C_Dist_300_LN_8_LD_15_RN_10_RD_12_1.png"]],"dist300_I":[["I_Dist_300_LN_1_LD_2_RN_2_RD_10_0.png","I_Dist_300_LN_1_LD_2_RN_3_RD_15_0.png","I_Dist_300_LN_2_LD_4_RN_6_RD_30_0.png","I_Dist_300_LN_3_LD_6_RN_4_RD_20_0.png","I_Dist_300_LN_4_LD_5_RN_6_RD_12_0.png","I_Dist_300_LN_4_LD_5_RN_8_RD_16_0.png","I_Dist_300_LN_7_LD_10_RN_8_RD_20_0.png","I_Dist_300_LN_8_LD_10_RN_14_RD_28_0.png","I_Dist_300_LN_8_LD_10_RN_9_RD_18_0.png"],["I_Dist_300_LN_13_LD_26_RN_12_RD_15_1.png","I_Dist_300_LN_4_LD_20_RN_2_RD_4_1.png"]],"dist300_S":[["E_Dist_300_LN_9_LD_12_RN_9_RD_20_0.png"],["E_Dist_300_LN_18_LD_30_RN_18_RD_20_1.png","E_Dist_300_LN_3_LD_10_RN_3_RD_5_1.png","E_Dist_300_LN_9_LD_20_RN_9_RD_12_1.png"]],"dist500_C":[["C_Dist_500_LN_10_LD_13_RN_7_RD_26_0.png","C_Dist_500_LN_10_LD_15_RN_4_RD_24_0.png","C_Dist_500_LN_12_LD_16_RN_3_RD_12_0.png","C_Dist_500_LN_12_LD_18_RN_4_RD_24_0.png","C_Dist_500_LN_15_LD_18_RN_5_RD_15_0.png","C_Dist_500_LN_15_LD_20_RN_1_RD_4_0.png","C_Dist_500_LN_18_LD_27_RN_1_RD_6_0.png","C_Dist_500_LN_20_LD_24_RN_1_RD_3_0.png","C_Dist_500_LN_20_LD_24_RN_3_RD_9_0.png","C_Dist_500_LN_20_LD_24_RN_7_RD_21_0.png","C_Dist_500_LN_20_LD_28_RN_3_RD_14_0.png","C_Dist_500_LN_21_LD_28_RN_6_RD_24_0.png","C_Dist_500_LN_22_LD_28_RN_2_RD_7_0.png","C_Dist_500_LN_25_LD_30_RN_9_RD_27_0.png","C_Dist_500_LN_4_LD_6_RN_1_RD_6_0.png","C_Dist_500_LN_5_LD_6_RN_2_RD_6_0.png","C_Dist_500_LN_6_LD_9_RN_1_RD_6_0.png","C_Dist_500_LN_7_LD_10_RN_1_RD_5_0.png","C_Dist_500_LN_8_LD_12_RN_1_RD_6_0.png","C_Dist_500_LN_8_LD_12_RN_4_RD_24_0.png"],["C_Dist_500_LN_1_LD_4_RN_12_RD_16_1.png","C_Dist_500_LN_1_LD_4_RN_9_RD_12_1.png","C_Dist_500_LN_1_LD_9_RN_11_RD_18_1.png","C_Dist_500_LN_10_LD_24_RN_22_RD_24_1.png","C_Dist_500_LN_2_LD_12_RN_10_RD_15_1.png","C_Dist_500_LN_2_LD_12_RN_12_RD_18_1.png","C_Dist_500_LN_2_LD_12_RN_4_RD_6_1.png","C_Dist_500_LN_2_LD_24_RN_7_RD_12_1.png","C_Dist_500_LN_2_LD_5_RN_18_RD_20_1.png","C_Dist_500_LN_2_LD_5_RN_9_RD_10_1.png","C_Dist_500_LN_2_LD_8_RN_12_RD_16_1.png","C_Dist_500_LN_2_LD_8_RN_21_RD_28_1.png","C_Dist_500_LN_3_LD_10_RN_4_RD_5_1.png","C_Dist_500_LN_3_LD_12_RN_15_RD_20_1.png","C_Dist_500_LN_3_LD_30_RN_6_RD_10_1.png","C_Dist_500_LN_3_LD_8_RN_14_RD_16_1.png","C_Dist_500_LN_4_LD_16_RN_15_RD_20_1.png","C_Dist_500_LN_4_LD_24_RN_12_RD_18_1.png","C_Dist_500_LN_5_LD_14_RN_6_RD_7_1.png","C_Dist_500_LN_7_LD_21_RN_20_RD_24_1.png","C_Dist_500_LN_7_LD_28_RN_12_RD_16_1.png","C_Dist_500_LN_7_LD_28_RN_9_RD_12_1.png","C_Dist_500_LN_9_LD_27_RN_20_RD_24_1.png"]],"dist500_I":[["I_Dist_500_LN_2_LD_3_RN_4_RD_24_0.png","I_Dist_500_LN_5_LD_6_RN_6_RD_18_0.png","I_Dist_500_LN_7_LD_8_RN_9_RD_24_0.png"],["I_Dist_500_LN_7_LD_21_RN_5_RD_6_1.png"]],"dist500_S":[["E_Dist_500_LN_6_LD_8_RN_6_RD_24_0.png"],["E_Dist_500_LN_2_LD_12_RN_2_RD_3_1.png","E_Dist_500_LN_6_LD_24_RN_6_RD_8_1.png"]]}},{"start_time":1551882349213,"click_time":1551882388184,"finger_time":1551882388004,"fix_duration":1348.6541354919532,"trial":1,"RT":38791,"MT":180,"sideResp":2,"stimulus":[],"xmouse":[777,777,777,777,777,777,777,777,777,777,777,777,777,777,777,777,777,777,777,777,777,777,777,777,777,777,777,777,777,777,777,777,777,777,777,777,777,777,777,777,777,777,777,777,777,777,777,777,777,777,777,777,777,777,777,777,777,777,777,777,777,777,777,777,777,777,777,777,777,777,777,777,777,777,777,777,777,777,777,777,777,777,777,777,777,777,777,777,777,777,777,777,777,777,777,777,777,777,777,777,777,777,777,777,777,777,777,777,777,777,777,777,777,777,777,777,777,777,777,777,777,777,777,777,777,777,777,777,777,777,777,777,777,777,777,777,777,777,777,777,777,777,777,777,777,777,777,777,777,777,777,777,777,777,777,777,777,777,777,777,777,777,777,777,777,777,777,777,777,777,777,777,777,777,777,777,777,777,777,777,777,777,777,777,777,777,777,777,777,777,777,777,777,777,777,777,777,777,777,777,777,777,777,777,777,777,777,777,777,777,777,777,777,777,777,777,777,777,777,777,777,777,777,777,777,777,777,777,777,777,777,777,777,777,777,777,777,777,777,777,777,777,777,777,777,777,777,777,777,777,777,777,777,777,777,777,777,777,777,777,777,777,777,777,777,777,777,777,777,777,777,777,777,777,777,777,777,777,777,777,777,777,777,777,777,777,777,777,777,777,777,777,777,777,777,777,777,777,777,777,777,777,777,777,777,777,777,777,777,777,777,777,777,777,777,777,777,777,777,777,777,777,777,777,777,777,777,777,777,777,777,777,777,777,777,777,777,777,777,777,777,777,777,777,777,777,777,777,777,777,777,777,777,777,777,777,777,777,777,777,777,777,777,777,777,777,777,777,777,777,777,777,777,777,777,777,777,777,777,777,777,777,777,777,777,777,777,777,777,777,777,777,777,777,777,777,777,777,777,777,777,777,777,777,777,777,777,777,777,777,777,777,777,777,777,777,777,777,777,777,777,777,777,777,777,777,777,777,777,777,777,777,777,777,777,777,777,777,777,777,777,777,777,777,777,777,777,777,777,777,777,777,777,777,777,777,777,777,777,777,777,777,777,777,777,777,777,777,777,777,777,777,777,777,777,777,777,777,777,777,777,777,777,777,777,777,777,777,777,777,777,777,777,777,777,777,777,777,777,777,777,777,777,777,777,777,777,777,777,777,777,777,777,777,777,777,777,777,777,777,777,777,777,777,777,777,777,777,777,777,777,777,777,777,777,777,777,777,777,777,777,777,777,777,777,777,777,777,777,777,777,777,777,777,777,777,777,777,777,777,777,777,777,777,777,777,777,777,777,777,777,777,777,777,777,777,777,777,777,777,777,777,777,777,777,777,777,777,777,777,777,777,777,777,777,777,777,777,777,777,777,777,777,777,777,777,777,777,777,777,777,777,777,777,777,777,777,777,777,777,777,777,777,777,777,777,777,777,777,777,777,777,777,777,777,777,777,777,777,777,777,777,777,777,777,777,777,777,777,777,777,777,777,777,777,777,777,777,777,777,777,777,777,777,777,777,777,777,777,777,777,777,777,777,777,777,777,777,777,777,777,777,777,777,777,777,777,777,777,777,777,777,777,777,777,777,777,777,777,777,777,777,777,777,777,777,777,777,777,777,777,777,777,777,777,777,777,777,777,777,777,777,777,777,777,777,777,777,777,777,777,777,777,777,777,777,777,777,777,777,777,777,777,777,777,777,777,777,777,777,777,777,777,777,777,777,777,777,777,777,777,777,777,777,777,777,777,777,777,777,777,777,777,777,777,777,777,777,777,777,777,777,777,777,777,777,777,777,777,777,777,777,777,777,777,777,777,777,777,777,777,777,777,777,777,777,777,777,777,777,777,777,777,777,777,777,777,777,777,777,777,777,777,777,777,777,777,777,777,777,777,777,777,777,777,777,777,777,777,777,777,777,777,777,777,777,777,777,777,777,777,777,777,777,777,777,777,777,777,777,777,777,777,777,777,777,777,777,777,777,777,777,777,777,777,777,777,777,777,777,777,777,777,777,777,777,777,777,777,777,777,777,777,777,777,777,777,777,777,777,777,777,777,777,777,777,777,777,777,777,777,777,777,777,777,777,777,777,777,777,777,777,777,777,777,777,777,777,777,777,777,777,777,777,777,777,777,777,777,777,777,777,777,777,777,777,777,777,777,777,777,777,777,777,777,777,777,777,777,777,777,777,777,777,777,777,777,777,777,777,777,777,777,777,777,777,777,777,777,777,777,777,777,777,777,777,777,777,777,777,777,777,777,777,777,777,777,777,777,777,777,777,777,777,777,777,777,777,777,777,777,777,777,777,777,777,777,777,777,777,777,777,777,777,777,777,777,777,777,777,777,777,777,777,777,777,777,777,777,777,777,777,777,777,777,777,777,777,777,777,777,777,777,777,777,777,777,777,777,777,777,777,777,777,777,777,777,777,777,777,777,777,777,777,777,777,777,777,777,777,777,777,777,777,777,777,777,777,777,777,777,777,777,777,777,777,777,777,777,777,777,777,777,777,777,777,777,777,777,777,777,777,777,777,777,777,777,777,777,777,777,777,777,777,777,777,777,777,777,777,777,777,777,777,777,777,777,777,777,777,777,777,777,777,777,777,777,777,777,777,777,777,777,777,777,777,777,777,777,777,777,777,777,777,777,777,777,777,777,777,777,777,777,777,777,777,777,777,777,777,777,777,777,777,777,777,777,777,777,777,777,777,777,777,777,777,777,777,777,777,777,777,777,777,777,777,777,777,777,777,777,777,777,777,777,777,777,777,777,777,777,777,777,777,777,777,777,777,777,777,777,777,777,777,777,777,777,777,777,777,777,777,777,777,777,777,777,777,777,777,777,777,777,777,777,777,777,777,777,777,777,777,777,777,777,777,777,777,777,777,777,777,777,777,777,777,777,777,777,777,777,777,777,777,777,777,777,777,777,777,777,777,777,777,777,777,777,777,777,777,777,777,777,777,777,777,777,777,777,777,777,777,777,777,777,777,777,777,777,777,777,777,777,777,777,777,777,777,777,777,777,777,777,777,777,777,777,777,777,777,777,777,777,777,777,777,777,777,777,777,777,777,777,777,777,777,777,777,777,777,777,777,777,777,777,777,777,777,777,777,777,777,777,777,777,777,777,777,777,777,777,777,777,777,777,777,777,777,777,777,777,777,777,777,777,777,777,777,777,777,777,777,777,777,777,777,777,777,777,777,777,777,777,777,777,777,777,777,777,777,777,777,777,777,777,777,777,777,777,777,777,777,777,777,777,777,777,777,777,777,777,777,777,777,777,777,777,777,777,777,777,777,777,777,777,777,777,777,777,777,777,777,777,777,777,777,777,777,777,777,777,777,777,777,777,777,777,777,777,777,777,777,777,777,777,777,777,777,777,777,777,777,777,777,777,777,777,777,777,777,777,777,777,777,777,777,777,777,777,777,777,777,777,777,777,777,777,777,777,777,777,777,777,777,777,777,777,777,777,777,777,777,777,777,777,777,777,777,777,777,777,777,777,777,777,777,777,777,777,777,777,777,777,777,777,777,777,777,777,777,777,777,777,777,777,777,777,777,777,777,777,777,777,777,777,777,777,777,777,777,777,777,777,777,777,777,777,777,777,777,777,777,777,777,777,777,777,777,777,777,777,777,777,777,777,777,777,777,777,777,777,777,777,777,777,777,777,777,777,777,777,777,777,777,777,777,777,777,777,777,777,777,777,777,777,777,777,777,777,777,777,777,777,777,777,777,777,777,777,777,777,777,777,777,777,777,777,777,777,777,777,777,777,777,777,777,777,777,777,777,777,777,777,777,777,777,777,777,777,777,777,777,777,777,777,777,777,777,777,777,777,777,777,777,777,777,777,777,777,777,777,777,777,777,777,777,777,777,777,777,777,777,777,777,777,777,777,777,777,777,777,777,777,777,777,777,777,777,777,777,777,777,777,777,777,777,777,777,777,777,777,777,777,777,777,777,777,777,777,777,777,777,777,777,777,777,777,777,777,777,777,777,777,777,777,777,777,777,777,777,777,777,777,777,777,777,777,777,777,777,777,777,777,777,777,777,777,777,777,777,777,777,777,777,777,777,777,777,777,777,777,777,777,777,777,777,777,777,777,777,777,777,777,777,777,777,777,777,777,777,777,777,777,777,777,777,777,777,777,777,777,777,777,777,777,777,777,777,777,777,777,777,777,777,777,777,777,777,777,777,777,777,777,777,777,777,777,777,777,777,777,777,777,777,777,777,777,777,777,777,777,777,777,777,777,777,777,777,777,777,777,777,777,777,777,777,777,777,777,777,777,777,777,777,777,777,777,777,777,777,777,777,777,777,777,777,777,777,777,777,777,777,777,777,777,777,777,777,777,777,777,777,777,777,777,777,777,777,777,777,777,777,777,777,777,777,779,784,777,780,790,807,903,966,1021,1069,1106,1119,1127],"ymouse":[626,626,626,626,626,626,626,626,626,626,626,626,626,626,626,626,626,626,626,626,626,626,626,626,626,626,626,626,626,626,626,626,626,626,626,626,626,626,626,626,626,626,626,626,626,626,626,626,626,626,626,626,626,626,626,626,626,626,626,626,626,626,626,626,626,626,626,626,626,626,626,626,626,626,626,626,626,626,626,626,626,626,626,626,626,626,626,626,626,626,626,626,626,626,626,626,626,626,626,626,626,626,626,626,626,626,626,626,626,626,626,626,626,626,626,626,626,626,626,626,626,626,626,626,626,626,626,626,626,626,626,626,626,626,626,626,626,626,626,626,626,626,626,626,626,626,626,626,626,626,626,626,626,626,626,626,626,626,626,626,626,626,626,626,626,626,626,626,626,626,626,626,626,626,626,626,626,626,626,626,626,626,626,626,626,626,626,626,626,626,626,626,626,626,626,626,626,626,626,626,626,626,626,626,626,626,626,626,626,626,626,626,626,626,626,626,626,626,626,626,626,626,626,626,626,626,626,626,626,626,626,626,626,626,626,626,626,626,626,626,626,626,626,626,626,626,626,626,626,626,626,626,626,626,626,626,626,626,626,626,626,626,626,626,626,626,626,626,626,626,626,626,626,626,626,626,626,626,626,626,626,626,626,626,626,626,626,626,626,626,626,626,626,626,626,626,626,626,626,626,626,626,626,626,626,626,626,626,626,626,626,626,626,626,626,626,626,626,626,626,626,626,626,626,626,626,626,626,626,626,626,626,626,626,626,626,626,626,626,626,626,626,626,626,626,626,626,626,626,626,626,626,626,626,626,626,626,626,626,626,626,626,626,626,626,626,626,626,626,626,626,626,626,626,626,626,626,626,626,626,626,626,626,626,626,626,626,626,626,626,626,626,626,626,626,626,626,626,626,626,626,626,626,626,626,626,626,626,626,626,626,626,626,626,626,626,626,626,626,626,626,626,626,626,626,626,626,626,626,626,626,626,626,626,626,626,626,626,626,626,626,626,626,626,626,626,626,626,626,626,626,626,626,626,626,626,626,626,626,626,626,626,626,626,626,626,626,626,626,626,626,626,626,626,626,626,626,626,626,626,626,626,626,626,626,626,626,626,626,626,626,626,626,626,626,626,626,626,626,626,626,626,626,626,626,626,626,626,626,626,626,626,626,626,626,626,626,626,626,626,626,626,626,626,626,626,626,626,626,626,626,626,626,626,626,626,626,626,626,626,626,626,626,626,626,626,626,626,626,626,626,626,626,626,626,626,626,626,626,626,626,626,626,626,626,626,626,626,626,626,626,626,626,626,626,626,626,626,626,626,626,626,626,626,626,626,626,626,626,626,626,626,626,626,626,626,626,626,626,626,626,626,626,626,626,626,626,626,626,626,626,626,626,626,626,626,626,626,626,626,626,626,626,626,626,626,626,626,626,626,626,626,626,626,626,626,626,626,626,626,626,626,626,626,626,626,626,626,626,626,626,626,626,626,626,626,626,626,626,626,626,626,626,626,626,626,626,626,626,626,626,626,626,626,626,626,626,626,626,626,626,626,626,626,626,626,626,626,626,626,626,626,626,626,626,626,626,626,626,626,626,626,626,626,626,626,626,626,626,626,626,626,626,626,626,626,626,626,626,626,626,626,626,626,626,626,626,626,626,626,626,626,626,626,626,626,626,626,626,626,626,626,626,626,626,626,626,626,626,626,626,626,626,626,626,626,626,626,626,626,626,626,626,626,626,626,626,626,626,626,626,626,626,626,626,626,626,626,626,626,626,626,626,626,626,626,626,626,626,626,626,626,626,626,626,626,626,626,626,626,626,626,626,626,626,626,626,626,626,626,626,626,626,626,626,626,626,626,626,626,626,626,626,626,626,626,626,626,626,626,626,626,626,626,626,626,626,626,626,626,626,626,626,626,626,626,626,626,626,626,626,626,626,626,626,626,626,626,626,626,626,626,626,626,626,626,626,626,626,626,626,626,626,626,626,626,626,626,626,626,626,626,626,626,626,626,626,626,626,626,626,626,626,626,626,626,626,626,626,626,626,626,626,626,626,626,626,626,626,626,626,626,626,626,626,626,626,626,626,626,626,626,626,626,626,626,626,626,626,626,626,626,626,626,626,626,626,626,626,626,626,626,626,626,626,626,626,626,626,626,626,626,626,626,626,626,626,626,626,626,626,626,626,626,626,626,626,626,626,626,626,626,626,626,626,626,626,626,626,626,626,626,626,626,626,626,626,626,626,626,626,626,626,626,626,626,626,626,626,626,626,626,626,626,626,626,626,626,626,626,626,626,626,626,626,626,626,626,626,626,626,626,626,626,626,626,626,626,626,626,626,626,626,626,626,626,626,626,626,626,626,626,626,626,626,626,626,626,626,626,626,626,626,626,626,626,626,626,626,626,626,626,626,626,626,626,626,626,626,626,626,626,626,626,626,626,626,626,626,626,626,626,626,626,626,626,626,626,626,626,626,626,626,626,626,626,626,626,626,626,626,626,626,626,626,626,626,626,626,626,626,626,626,626,626,626,626,626,626,626,626,626,626,626,626,626,626,626,626,626,626,626,626,626,626,626,626,626,626,626,626,626,626,626,626,626,626,626,626,626,626,626,626,626,626,626,626,626,626,626,626,626,626,626,626,626,626,626,626,626,626,626,626,626,626,626,626,626,626,626,626,626,626,626,626,626,626,626,626,626,626,626,626,626,626,626,626,626,626,626,626,626,626,626,626,626,626,626,626,626,626,626,626,626,626,626,626,626,626,626,626,626,626,626,626,626,626,626,626,626,626,626,626,626,626,626,626,626,626,626,626,626,626,626,626,626,626,626,626,626,626,626,626,626,626,626,626,626,626,626,626,626,626,626,626,626,626,626,626,626,626,626,626,626,626,626,626,626,626,626,626,626,626,626,626,626,626,626,626,626,626,626,626,626,626,626,626,626,626,626,626,626,626,626,626,626,626,626,626,626,626,626,626,626,626,626,626,626,626,626,626,626,626,626,626,626,626,626,626,626,626,626,626,626,626,626,626,626,626,626,626,626,626,626,626,626,626,626,626,626,626,626,626,626,626,626,626,626,626,626,626,626,626,626,626,626,626,626,626,626,626,626,626,626,626,626,626,626,626,626,626,626,626,626,626,626,626,626,626,626,626,626,626,626,626,626,626,626,626,626,626,626,626,626,626,626,626,626,626,626,626,626,626,626,626,626,626,626,626,626,626,626,626,626,626,626,626,626,626,626,626,626,626,626,626,626,626,626,626,626,626,626,626,626,626,626,626,626,626,626,626,626,626,626,626,626,626,626,626,626,626,626,626,626,626,626,626,626,626,626,626,626,626,626,626,626,626,626,626,626,626,626,626,626,626,626,626,626,626,626,626,626,626,626,626,626,626,626,626,626,626,626,626,626,626,626,626,626,626,626,626,626,626,626,626,626,626,626,626,626,626,626,626,626,626,626,626,626,626,626,626,626,626,626,626,626,626,626,626,626,626,626,626,626,626,626,626,626,626,626,626,626,626,626,626,626,626,626,626,626,626,626,626,626,626,626,626,626,626,626,626,626,626,626,626,626,626,626,626,626,626,626,626,626,626,626,626,626,626,626,626,626,626,626,626,626,626,626,626,626,626,626,626,626,626,626,626,626,626,626,626,626,626,626,626,626,626,626,626,626,626,626,626,626,626,626,626,626,626,626,626,626,626,626,626,626,626,626,626,626,626,626,626,626,626,626,626,626,626,626,626,626,626,626,626,626,626,626,626,626,626,626,626,626,626,626,626,626,626,626,626,626,626,626,626,626,626,626,626,626,626,626,626,626,626,626,626,626,626,626,626,626,626,626,626,626,626,626,626,626,626,626,626,626,626,626,626,626,626,626,626,626,626,626,626,626,626,626,626,626,626,626,626,626,626,626,626,626,626,626,626,626,626,626,626,626,626,626,626,626,626,626,626,626,626,626,626,626,626,626,626,626,626,626,626,626,626,626,626,626,626,626,626,626,626,626,626,626,626,626,626,626,626,626,626,626,626,626,626,626,626,626,626,626,626,626,626,626,626,626,626,626,626,626,626,626,626,626,626,626,626,626,626,626,626,626,626,626,626,626,626,626,626,626,626,626,626,626,626,626,626,626,626,626,626,626,626,626,626,626,626,626,626,626,626,626,626,626,626,626,626,626,626,626,626,626,626,626,626,626,626,626,626,626,626,626,626,626,626,626,626,626,626,626,626,626,626,626,626,626,626,626,626,626,626,626,626,626,626,626,626,626,626,626,626,626,626,626,626,626,626,626,626,626,626,626,626,626,626,626,626,626,626,626,626,626,626,626,626,626,626,626,626,626,626,626,626,626,626,626,626,626,626,626,626,626,626,626,626,626,626,626,626,626,626,626,628,655,672,675,674,665,556,483,404,304,198,108,30],"timestamp_mouse":[10,29,50,70,90,110,129,150,169,189,211,230,250,270,290,309,329,350,370,389,410,429,450,470,489,510,530,549,569,589,611,629,650,671,689,711,730,749,769,789,810,829,851,869,889,911,930,949,970,990,1010,1030,1049,1069,1090,1109,1131,1150,1170,1189,1211,1230,1250,1269,1289,1309,1330,1350,1369,1390,1409,1430,1451,1469,1490,1510,1529,1549,1571,1589,1611,1629,1650,1669,1690,1710,1729,1750,1771,1789,1810,1830,1850,1870,1890,1910,1929,1950,1971,1989,2010,2029,2050,2069,2090,2110,2129,2150,2169,2189,2209,2231,2250,2270,2289,2309,2329,2349,2370,2389,2409,2429,2450,2471,2490,2509,2529,2550,2569,2590,2610,2629,2649,2669,2691,2710,2729,2749,2769,2791,2810,2830,2850,2870,2889,2911,2931,2950,2970,2990,3011,3031,3050,3070,3091,3110,3130,3149,3171,3191,3211,3230,3249,3271,3291,3310,3329,3350,3370,3391,3409,3429,3449,3471,3491,3510,3529,3550,3570,3590,3610,3630,3649,3670,3691,3710,3730,3750,3771,3790,3809,3831,3851,3870,3889,3911,3930,3950,3970,3990,4010,4030,4049,4071,4089,4110,4130,4151,4170,4190,4210,4230,4250,4271,4290,4310,4330,4349,4369,4391,4411,4430,4450,4470,4490,4509,4531,4550,4571,4590,4610,4630,4651,4670,4690,4709,4731,4749,4771,4789,4810,4831,4850,4871,4889,4909,4930,4951,4969,4991,5011,5029,5049,5071,5089,5110,5130,5149,5171,5190,5209,5230,5250,5270,5289,5309,5329,5350,5371,5391,5411,5431,5449,5470,5489,5511,5530,5551,5571,5590,5611,5631,5649,5671,5689,5711,5731,5749,5770,5789,5809,5831,5850,5870,5891,5911,5929,5950,5970,5990,6010,6030,6050,6069,6090,6111,6129,6150,6170,6191,6210,6231,6249,6271,6291,6310,6331,6350,6369,6389,6411,6431,6449,6471,6491,6511,6531,6550,6569,6589,6610,6629,6649,6671,6689,6711,6730,6750,6771,6789,6809,6830,6849,6869,6889,6909,6930,6951,6970,6991,7010,7030,7049,7069,7089,7110,7129,7151,7171,7190,7211,7230,7249,7270,7289,7309,7329,7350,7370,7390,7410,7429,7451,7471,7490,7510,7530,7550,7570,7590,7611,7630,7649,7670,7690,7710,7731,7749,7771,7789,7810,7830,7850,7869,7890,7909,7931,7949,7970,7989,8010,8029,8051,8070,8090,8109,8129,8149,8170,8190,8210,8230,8249,8270,8290,8310,8331,8350,8370,8390,8409,8431,8449,8471,8490,8511,8529,8550,8570,8589,8609,8629,8650,8669,8691,8709,8731,8750,8769,8791,8811,8830,8851,8870,8889,8911,8931,8950,8970,8991,9009,9030,9049,9070,9090,9111,9130,9150,9171,9190,9211,9230,9249,9269,9290,9310,9330,9349,9370,9390,9409,9430,9449,9471,9489,9511,9530,9550,9571,9590,9610,9630,9649,9669,9689,9709,9730,9751,9770,9790,9809,9829,9850,9871,9890,9910,9930,9950,9970,9991,10010,10030,10049,10070,10089,10111,10130,10150,10171,10189,10209,10231,10251,10270,10290,10310,10331,10349,10370,10390,10411,10429,10450,10469,10491,10509,10530,10551,10570,10591,10610,10629,10650,10670,10690,10710,10731,10749,10771,10791,10811,10830,10850,10870,10890,10910,10929,10951,10971,10990,11010,11030,11050,11070,11091,11111,11131,11150,11171,11189,11209,11229,11250,11271,11290,11310,11331,11350,11370,11390,11409,11431,11451,11469,11489,11511,11531,11550,11570,11589,11610,11630,11651,11670,11690,11710,11731,11751,11770,11789,11810,11831,11849,11870,11890,11909,11930,11950,11969,11991,12009,12031,12051,12070,12090,12109,12129,12151,12169,12190,12209,12231,12251,12269,12290,12310,12330,12350,12371,12389,12409,12431,12450,12471,12490,12509,12531,12549,12569,12590,12610,12631,12651,12670,12690,12711,12730,12750,12770,12790,12811,12829,12851,12870,12890,12910,12929,12950,12971,12989,13009,13030,13051,13071,13090,13109,13129,13150,13170,13190,13210,13230,13250,13271,13290,13309,13330,13349,13369,13390,13411,13431,13449,13470,13491,13510,13529,13551,13570,13589,13610,13629,13650,13669,13689,13711,13729,13750,13770,13791,13809,13830,13850,13869,13890,13911,13929,13951,13970,13990,14010,14031,14050,14070,14091,14109,14130,14149,14169,14190,14209,14231,14249,14269,14291,14309,14330,14349,14370,14390,14410,14430,14450,14470,14490,14509,14531,14550,14569,14590,14610,14631,14651,14671,14689,14711,14729,14751,14769,14790,14810,14829,14851,14871,14889,14909,14931,14949,14969,14991,15010,15030,15051,15070,15090,15111,15130,15149,15171,15189,15211,15230,15251,15271,15289,15310,15331,15349,15369,15391,15410,15430,15450,15471,15491,15509,15531,15550,15570,15590,15610,15629,15650,15669,15689,15711,15730,15750,15771,15789,15810,15830,15850,15869,15891,15910,15930,15950,15970,15990,16010,16029,16051,16069,16089,16111,16131,16151,16170,16191,16210,16230,16249,16271,16289,16310,16331,16350,16371,16390,16410,16430,16451,16470,16491,16511,16530,16549,16570,16591,16609,16629,16649,16671,16690,16711,16730,16749,16771,16791,16811,16830,16849,16870,16891,16910,16930,16949,16971,16991,17010,17030,17050,17071,17091,17110,17130,17150,17170,17190,17210,17231,17250,17269,17290,17310,17330,17349,17370,17391,17411,17430,17449,17470,17490,17511,17529,17551,17571,17590,17609,17629,17651,17671,17691,17711,17730,17750,17771,17791,17811,17829,17851,17870,17889,17909,17930,17950,17971,17990,18010,18029,18051,18071,18091,18110,18130,18150,18170,18190,18210,18230,18251,18269,18290,18310,18329,18350,18371,18389,18410,18429,18451,18469,18491,18511,18529,18551,18571,18590,18609,18631,18651,18671,18689,18711,18731,18750,18769,18791,18811,18830,18851,18871,18889,18910,18930,18951,18969,18990,19011,19030,19051,19070,19089,19110,19130,19149,19170,19190,19211,19231,19250,19271,19289,19309,19330,19349,19370,19391,19411,19431,19449,19470,19490,19511,19530,19550,19569,19591,19610,19630,19651,19669,19689,19710,19730,19751,19771,19790,19810,19831,19849,19870,19891,19911,19929,19950,19971,19990,20010,20030,20051,20071,20089,20110,20129,20151,20171,20189,20209,20231,20251,20271,20289,20310,20330,20350,20370,20390,20410,20431,20451,20470,20490,20510,20531,20550,20570,20589,20611,20631,20650,20670,20691,20709,20731,20751,20770,20790,20809,20830,20851,20869,20890,20909,20931,20951,20971,20990,21011,21030,21049,21070,21090,21111,21130,21149,21169,21189,21209,21230,21249,21270,21290,21310,21329,21350,21370,21389,21411,21430,21449,21471,21489,21511,21530,21550,21569,21589,21609,21630,21650,21670,21690,21710,21731,21750,21771,21789,21810,21831,21849,21869,21890,21910,21930,21951,21970,21989,22010,22030,22051,22071,22090,22109,22131,22149,22170,22190,22210,22230,22251,22270,22290,22309,22331,22350,22370,22390,22410,22429,22449,22469,22490,22510,22529,22550,22570,22590,22610,22631,22650,22670,22689,22711,22730,22749,22771,22791,22809,22831,22849,22870,22890,22910,22929,22951,22969,22991,23010,23031,23050,23069,23089,23111,23129,23151,23169,23190,23211,23229,23251,23270,23290,23310,23330,23349,23369,23391,23409,23430,23451,23470,23490,23517,23529,23550,23570,23591,23609,23630,23650,23669,23689,23710,23731,23749,23771,23789,23810,23831,23849,23869,23889,23910,23929,23951,23970,23989,24011,24031,24051,24070,24089,24110,24129,24151,24170,24190,24209,24229,24250,24270,24291,24309,24331,24350,24370,24391,24410,24430,24450,24469,24491,24511,24531,24550,24569,24590,24609,24629,24651,24669,24690,24709,24731,24750,24769,24791,24809,24830,24849,24869,24891,24909,24930,24950,24969,24991,25009,25030,25050,25069,25090,25110,25131,25149,25170,25190,25209,25231,25251,25269,25291,25310,25331,25350,25370,25390,25409,25429,25451,25471,25490,25510,25529,25550,25570,25591,25609,25631,25651,25669,25690,25710,25729,25750,25769,25791,25811,25830,25851,25870,25889,25910,25929,25951,25971,25990,26010,26031,26049,26069,26090,26109,26130,26150,26171,26189,26211,26231,26250,26269,26291,26310,26330,26350,26370,26390,26410,26429,26450,26469,26490,26510,26531,26551,26571,26590,26610,26631,26651,26670,26690,26711,26731,26750,26770,26789,26809,26831,26850,26869,26891,26911,26930,26950,26970,26990,27010,27030,27049,27071,27090,27111,27130,27151,27170,27189,27211,27231,27250,27269,27290,27309,27331,27349,27371,27391,27410,27431,27451,27470,27489,27511,27529,27549,27570,27589,27611,27631,27650,27669,27690,27711,27729,27750,27771,27790,27811,27829,27850,27870,27891,27910,27930,27951,27969,27990,28009,28030,28050,28071,28089,28110,28131,28149,28171,28190,28211,28229,28250,28270,28290,28310,28331,28350,28370,28391,28411,28430,28449,28471,28490,28510,28529,28549,28571,28590,28610,28630,28649,28671,28691,28709,28729,28751,28771,28790,28811,28831,28849,28869,28891,28911,28930,28949,28969,28991,29011,29031,29050,29070,29090,29110,29131,29149,29170,29191,29210,29231,29251,29270,29289,29311,29331,29350,29370,29389,29410,29431,29450,29471,29490,29509,29531,29551,29569,29590,29611,29630,29650,29671,29690,29710,29731,29750,29771,29790,29809,29829,29850,29871,29891,29910,29930,29951,29970,29991,30010,30030,30050,30070,30091,30111,30129,30149,30170,30191,30210,30231,30250,30270,30291,30310,30329,30350,30370,30391,30411,30430,30451,30471,30489,30510,30531,30550,30570,30590,30609,30629,30651,30670,30689,30710,30730,30751,30771,30789,30809,30831,30849,30870,30889,30910,30929,30949,30970,30991,31011,31030,31051,31071,31089,31110,31131,31149,31171,31191,31209,31230,31250,31269,31290,31309,31331,31349,31369,31391,31411,31429,31450,31470,31490,31511,31529,31550,31571,31590,31609,31629,31650,31670,31691,31710,31731,31749,31771,31790,31811,31829,31851,31871,31890,31910,31929,31951,31970,31990,32011,32030,32050,32071,32090,32109,32130,32151,32170,32189,32211,32229,32249,32270,32291,32309,32331,32350,32371,32389,32409,32430,32450,32469,32490,32510,32530,32551,32571,32589,32609,32630,32649,32669,32690,32711,32730,32749,32769,32790,32810,32829,32850,32869,32890,32909,32931,32949,32971,32989,33011,33029,33050,33069,33089,33110,33131,33150,33171,33189,33210,33231,33249,33269,33291,33309,33331,33350,33370,33390,33411,33429,33450,33470,33489,33511,33530,33550,33570,33589,33611,33629,33650,33669,33689,33710,33729,33751,33770,33789,33810,33831,33849,33869,33891,33909,33930,33950,33970,33989,34011,34030,34049,34069,34089,34111,34129,34151,34169,34189,34211,34230,34249,34269,34291,34309,34329,34349,34371,34389,34409,34429,34451,34471,34489,34509,34530,34549,34569,34589,34610,34630,34651,34669,34689,34711,34730,34751,34769,34790,34810,34829,34851,34870,34890,34910,34930,34951,34969,34989,35010,35031,35049,35070,35090,35111,35129,35151,35169,35189,35211,35229,35251,35269,35290,35310,35330,35350,35371,35390,35410,35430,35449,35471,35489,35510,35529,35551,35570,35591,35610,35630,35650,35671,35689,35710,35731,35751,35770,35789,35810,35831,35849,35869,35890,35911,35929,35951,35971,35990,36009,36030,36051,36069,36090,36109,36131,36150,36171,36190,36210,36231,36250,36270,36290,36310,36331,36350,36369,36390,36410,36430,36451,36469,36489,36510,36530,36551,36570,36591,36610,36629,36649,36671,36691,36710,36730,36750,36771,36791,36810,36829,36851,36871,36891,36909,36931,36951,36970,36990,37010,37030,37049,37070,37091,37111,37131,37149,37170,37191,37211,37230,37249,37270,37291,37309,37331,37350,37371,37389,37411,37429,37451,37469,37490,37511,37529,37550,37570,37590,37609,37630,37649,37671,37691,37709,37730,37749,37771,37791,37809,37831,37850,37871,37891,37909,37930,37951,37970,37989,38011,38029,38050,38070,38090,38110,38131,38149,38171,38190,38209,38231,38249,38271,38290,38309,38329,38350,38369,38391,38410,38429,38450,38469,38490,38511,38529,38550,38570,38590,38609,38629,38650,38670,38690,38711,38729,38749,38771,38791,38809,38830,38850,38870,38890,38909,38929,38950,38970],"xSR":741.5,"ySR":573.95,"xT1":424.9,"yT1":0,"xT2":1058.1,"yT2":0,"toosoon":0,"cond_shown":"Congruent","ratio_trial":100,"L_num":9,"L_den":15,"R_num":8,"R_den":16,"correct_side":1,"subjID":"nathaliamendezrueda27","gender":"1","school":"6","age":"12"},{"start_time":1551882389275,"click_time":1551882397603,"finger_time":1551882396682,"fix_duration":250,"trial":2,"RT":7407,"MT":921,"sideResp":2,"stimulus":[],"xmouse":[782,782,782,782,782,782,782,782,782,782,782,782,782,782,782,782,782,782,782,782,782,782,782,782,782,782,782,782,782,782,782,782,782,782,782,782,782,782,782,782,782,782,782,782,782,782,782,782,782,782,782,782,782,782,782,782,782,782,782,782,782,782,782,782,782,782,782,782,782,782,782,782,782,782,782,782,782,782,782,782,782,782,782,782,782,782,782,782,782,782,782,782,782,782,782,782,782,782,782,782,782,782,782,782,782,782,782,782,782,782,782,782,782,782,782,782,782,782,782,782,782,782,782,782,782,782,782,782,782,782,782,782,782,782,782,782,782,782,782,782,782,782,782,782,782,782,782,782,782,782,782,782,782,782,782,782,782,782,782,782,782,782,782,782,782,782,782,782,782,782,782,782,782,782,782,782,782,782,782,782,782,782,782,782,782,782,782,782,782,782,782,782,782,782,782,782,782,782,782,782,782,782,782,782,782,782,782,782,782,782,782,782,782,782,782,782,782,782,782,782,782,782,782,782,782,782,782,782,782,782,782,782,782,782,782,782,782,782,782,782,782,782,782,782,782,782,782,782,782,782,782,782,782,782,782,782,782,782,782,782,782,782,782,782,782,782,782,782,782,782,782,782,782,782,782,782,782,782,782,782,782,782,782,782,782,782,782,782,782,782,782,782,782,782,782,782,782,782,782,782,782,782,782,782,782,782,782,782,782,782,782,782,782,782,782,782,782,782,782,782,782,782,782,782,782,782,782,782,782,782,782,782,782,782,782,782,782,782,782,782,782,782,782,782,782,782,782,782,782,782,782,782,782,782,782,782,782,782,782,782,782,782,782,782,782,782,782,784,785,803,917,1003,1095,1205,1323,1531,1531,1531,1531,1531,1531,1531,1578,1557,1536,1482,1467,1459,1456,1455,1455,1455,1455,1455,1455,1455,1448,1434,1419,1403,1358,1328,1305,1294,1292,1292,1291,1284,1266,1242,1207,1194,1189,1185,1182,1165,1156],"ymouse":[629,629,629,629,629,629,629,629,629,629,629,629,629,629,629,629,629,629,629,629,629,629,629,629,629,629,629,629,629,629,629,629,629,629,629,629,629,629,629,629,629,629,629,629,629,629,629,629,629,629,629,629,629,629,629,629,629,629,629,629,629,629,629,629,629,629,629,629,629,629,629,629,629,629,629,629,629,629,629,629,629,629,629,629,629,629,629,629,629,629,629,629,629,629,629,629,629,629,629,629,629,629,629,629,629,629,629,629,629,629,629,629,629,629,629,629,629,629,629,629,629,629,629,629,629,629,629,629,629,629,629,629,629,629,629,629,629,629,629,629,629,629,629,629,629,629,629,629,629,629,629,629,629,629,629,629,629,629,629,629,629,629,629,629,629,629,629,629,629,629,629,629,629,629,629,629,629,629,629,629,629,629,629,629,629,629,629,629,629,629,629,629,629,629,629,629,629,629,629,629,629,629,629,629,629,629,629,629,629,629,629,629,629,629,629,629,629,629,629,629,629,629,629,629,629,629,629,629,629,629,629,629,629,629,629,629,629,629,629,629,629,629,629,629,629,629,629,629,629,629,629,629,629,629,629,629,629,629,629,629,629,629,629,629,629,629,629,629,629,629,629,629,629,629,629,629,629,629,629,629,629,629,629,629,629,629,629,629,629,629,629,629,629,629,629,629,629,629,629,629,629,629,629,629,629,629,629,629,629,629,629,629,629,629,629,629,629,629,629,629,629,629,629,629,629,629,629,629,629,629,629,629,629,629,629,629,629,629,629,629,629,629,629,629,629,629,629,629,629,629,629,629,629,629,629,629,629,629,629,629,629,629,629,629,629,629,629,629,628,619,532,463,401,334,260,142,142,142,142,142,142,142,0,0,0,0,6,16,21,23,23,23,23,23,23,23,23,23,23,23,23,21,15,12,11,11,11,11,11,15,21,27,30,34,37,45,48],"timestamp_mouse":[7,28,47,67,88,107,129,148,168,187,209,228,248,268,287,307,327,349,368,387,409,427,447,469,487,508,527,547,567,588,609,629,648,669,688,709,727,747,769,788,807,828,849,867,888,908,928,947,968,987,1009,1027,1049,1067,1087,1109,1127,1148,1168,1187,1208,1228,1247,1268,1288,1307,1328,1347,1368,1388,1407,1429,1449,1467,1487,1508,1527,1549,1569,1587,1607,1628,1649,1668,1689,1708,1728,1748,1767,1789,1807,1827,1848,1868,1887,1909,1927,1948,1968,1988,2007,2028,2048,2067,2087,2108,2128,2147,2168,2187,2209,2227,2247,2268,2288,2307,2327,2347,2369,2387,2407,2427,2447,2469,2487,2507,2529,2547,2569,2587,2607,2627,2648,2668,2687,2708,2729,2748,2768,2789,2808,2828,2849,2867,2887,2909,2927,2947,2967,2988,3007,3028,3048,3068,3089,3107,3127,3148,3169,3188,3207,3229,3248,3267,3287,3309,3329,3347,3367,3388,3408,3428,3449,3467,3489,3508,3529,3548,3569,3588,3608,3629,3648,3668,3689,3707,3728,3747,3767,3788,3807,3828,3847,3868,3888,3908,3928,3948,3968,3988,4007,4027,4047,4068,4087,4109,4128,4147,4167,4189,4207,4227,4248,4268,4287,4309,4328,4347,4367,4388,4408,4428,4448,4467,4488,4507,4528,4548,4567,4589,4609,4627,4647,4669,4688,4707,4729,4749,4767,4788,4808,4828,4849,4867,4888,4907,4928,4949,4968,4989,5008,5029,5047,5068,5088,5108,5128,5148,5168,5188,5208,5227,5248,5269,5288,5308,5328,5348,5368,5388,5409,5427,5447,5468,5488,5509,5528,5547,5569,5589,5609,5627,5648,5668,5689,5708,5729,5748,5767,5789,5807,5828,5848,5869,5887,5909,5929,5947,5969,5989,6007,6028,6049,6068,6088,6108,6128,6148,6167,6189,6208,6229,6249,6267,6287,6308,6328,6348,6368,6387,6407,6428,6449,6468,6487,6509,6529,6547,6567,6588,6607,6629,6647,6667,6688,6707,6727,6748,6767,6788,6807,6827,6847,6867,6887,6908,6928,6947,6967,6989,7007,7027,7048,7067,7088,7109,7128,7148,7168,7187,7209,7228,7248,7268,7288,7309,7328,7347,7368,7387,7407,7428,7448,7468,7488,7507,7528,7549,7567,7587,7607,7627,7647,7667,7688,7709,7728,7748,7768,7789,7808,7828,7847,7868,7888,7909,7929,7948,7967,7987,8008,8029,8048,8068,8088,8108,8127,8147,8168,8188,8208,8227,8247,8267,8288,8307,8327],"xSR":741.5,"ySR":573.95,"xT1":424.9,"yT1":0,"xT2":1058.1,"yT2":0,"toosoon":0,"cond_shown":"Incongruent","ratio_trial":300,"L_num":1,"L_den":2,"R_num":3,"R_den":15,"correct_side":1,"subjID":"nathaliamendezrueda27","gender":"1","school":"6","age":"12"},{"start_time":1551882401475,"click_time":1551882404164,"finger_time":1551882403083,"fix_duration":589.4881471942838,"trial":3,"RT":1608,"MT":1081,"sideResp":1,"stimulus":[],"xmouse":[780,780,780,780,780,780,780,780,780,780,780,780,780,780,780,780,780,780,780,780,780,780,780,780,780,780,780,780,780,780,780,780,780,780,780,780,780,780,780,780,780,780,780,780,780,780,780,780,780,780,780,780,780,780,780,780,780,780,780,780,780,780,780,780,780,780,780,780,780,780,780,780,780,780,780,780,780,780,781,784,796,801,803,803,803,803,799,792,787,785,785,785,785,786,789,796,798,798,798,798,796,796,796,796,796,770,751,732,718,708,696,692,690,689,687,684,683,682,673,660,622,610,603,597,592,585,584,582,582,582,581,577,565,544,520],"ymouse":[642,642,642,642,642,642,642,642,642,642,642,642,642,642,642,642,642,642,642,642,642,642,642,642,642,642,642,642,642,642,642,642,642,642,642,642,642,642,642,642,642,642,642,642,642,642,642,642,642,642,642,642,642,642,642,642,642,642,642,642,642,642,642,642,642,642,642,642,642,642,642,642,642,642,642,639,632,621,608,595,559,548,544,544,544,543,545,550,553,554,554,554,554,552,546,519,495,479,468,461,454,454,454,454,452,388,347,310,280,259,225,211,203,199,192,188,185,183,173,164,148,143,137,129,119,106,102,99,98,98,96,93,88,82,75],"timestamp_mouse":[7,40,48,67,87,109,128,147,168,188,208,228,248,268,288,308,328,347,368,389,407,427,448,468,487,508,528,548,569,589,609,629,647,668,688,709,729,749,768,789,807,828,849,867,887,909,928,947,967,989,1007,1027,1049,1067,1087,1108,1128,1149,1169,1189,1209,1228,1248,1267,1287,1309,1328,1349,1367,1388,1409,1428,1449,1468,1488,1507,1528,1548,1568,1588,1608,1628,1647,1667,1687,1709,1728,1749,1767,1787,1807,1828,1849,1868,1888,1908,1929,1948,1967,1987,2007,2027,2047,2069,2088,2108,2127,2148,2168,2187,2207,2228,2249,2268,2288,2309,2328,2348,2367,2387,2408,2429,2448,2468,2488,2507,2529,2549,2567,2588,2607,2627,2647,2667,2688],"xSR":741.5,"ySR":573.95,"xT1":424.9,"yT1":0,"xT2":1058.1,"yT2":0,"toosoon":0,"cond_shown":"Incongruent","ratio_trial":200,"L_num":4,"L_den":30,"R_num":1,"R_den":3,"correct_side":2,"subjID":"nathaliamendezrueda27","gender":"1","school":"6","age":"12"},{"start_time":1551882431834,"click_time":1551882433982,"finger_time":1551882433483,"fix_duration":250,"trial":4,"RT":1649,"MT":499,"sideResp":2,"stimulus":[],"xmouse":[779,779,779,779,779,779,779,779,779,779,779,779,779,779,779,779,779,779,779,779,779,779,779,779,779,779,779,779,779,779,779,779,779,779,779,779,779,779,779,779,779,779,779,779,779,779,779,779,779,779,779,779,779,779,779,779,779,779,779,779,779,779,779,779,779,779,779,779,779,779,779,779,779,779,779,779,779,779,779,782,793,806,841,874,904,926,957,965,973,979,985,994,1013,1023,1029,1033,1038,1040,1046,1050,1053,1054,1058,1059,1062,1063,1065,1072],"ymouse":[639,639,639,639,639,639,639,639,639,639,639,639,639,639,639,639,639,639,639,639,639,639,639,639,639,639,639,639,639,639,639,639,639,639,639,639,639,639,639,639,639,639,639,639,639,639,639,639,639,639,639,639,639,639,639,639,639,639,639,639,639,639,639,639,639,639,639,639,639,639,639,639,639,639,639,639,639,639,639,637,620,597,524,475,440,423,394,382,366,352,334,317,279,259,245,233,213,206,187,176,165,158,143,137,128,121,115,95],"timestamp_mouse":[11,34,49,70,90,109,128,149,168,190,209,229,249,268,289,309,330,349,370,390,409,429,449,468,489,510,528,550,569,589,609,629,649,670,689,710,728,749,769,788,808,829,848,869,888,909,929,949,968,989,1008,1030,1048,1069,1089,1108,1129,1148,1169,1188,1209,1229,1249,1269,1290,1309,1329,1348,1369,1389,1409,1428,1450,1468,1490,1509,1528,1550,1568,1589,1609,1629,1649,1669,1688,1710,1729,1748,1769,1790,1808,1830,1848,1868,1889,1910,1930,1948,1968,1989,2010,2028,2049,2069,2089,2109,2129,2148],"xSR":741.5,"ySR":573.95,"xT1":424.9,"yT1":0,"xT2":1058.1,"yT2":0,"toosoon":0,"cond_shown":"Incongruent","ratio_trial":300,"L_num":4,"L_den":20,"R_num":2,"R_den":4,"correct_side":2,"subjID":"nathaliamendezrueda27","gender":"1","school":"6","age":"12"},{"start_time":1551882435556,"click_time":1551882437683,"finger_time":1551882436964,"fix_duration":250,"trial":5,"RT":1408,"MT":719,"sideResp":1,"stimulus":[],"xmouse":[791,791,791,791,791,791,791,791,791,791,791,791,791,791,791,791,791,791,791,791,791,791,791,791,791,791,791,791,791,791,791,791,791,791,791,791,791,791,791,791,791,791,791,791,791,791,791,791,791,791,791,791,791,791,791,791,791,791,791,791,791,791,791,791,791,791,791,791,791,791,791,789,787,785,783,781,764,752,743,737,734,729,725,720,712,702,683,676,672,669,665,661,657,650,645,641,634,630,627,624,616,596,579,565,554,543,508],"ymouse":[609,609,609,609,609,609,609,609,609,609,609,609,609,609,609,609,609,609,609,609,609,609,609,609,609,609,609,609,609,609,609,609,609,609,609,609,609,609,609,609,609,609,609,609,609,609,609,609,609,609,609,609,609,609,609,609,609,609,609,609,609,609,609,609,609,609,609,600,595,580,535,499,480,464,446,421,347,322,302,287,276,256,234,215,196,179,149,140,135,131,126,122,120,117,116,113,111,109,107,104,99,86,77,71,66,61,46],"timestamp_mouse":[8,27,47,67,87,107,128,147,167,187,208,226,247,268,287,307,328,346,366,388,407,428,447,466,488,506,526,547,566,587,606,626,648,667,687,706,728,746,767,788,808,828,846,866,886,907,928,948,967,986,1007,1028,1047,1067,1088,1107,1127,1147,1166,1187,1206,1228,1247,1267,1287,1308,1327,1346,1366,1387,1408,1427,1448,1467,1486,1507,1526,1547,1566,1587,1607,1627,1647,1666,1686,1707,1726,1747,1767,1788,1807,1826,1846,1866,1888,1907,1927,1946,1966,1988,2008,2027,2046,2068,2088,2107,2127],"xSR":741.5,"ySR":573.95,"xT1":424.9,"yT1":0,"xT2":1058.1,"yT2":0,"toosoon":0,"cond_shown":"Congruent","ratio_trial":100,"L_num":11,"L_den":22,"R_num":6,"R_den":15,"correct_side":1,"subjID":"nathaliamendezrueda27","gender":"1","school":"6","age":"12"},{"start_time":1551882439254,"click_time":1551882440683,"finger_time":1551882440003,"fix_duration":688.7924277793776,"trial":6,"RT":749,"MT":680,"sideResp":2,"stimulus":[],"xmouse":[758,758,758,758,758,758,758,758,758,758,758,758,758,758,758,758,758,758,758,758,758,758,758,758,758,758,758,758,758,758,758,758,758,760,763,775,809,854,889,919,940,963,969,975,980,988,993,994,994,994,994,994,996,999,1002,1008,1027,1058,1071,1078,1081,1082,1083,1083,1083,1084,1086,1087,1090,1092,1094,1099],"ymouse":[633,633,633,633,633,633,633,633,633,633,633,633,633,633,633,633,633,633,633,633,633,633,633,633,633,633,633,633,633,633,633,633,633,633,628,617,582,529,487,447,419,381,364,351,339,319,307,304,303,303,303,303,300,295,288,275,229,178,158,149,145,142,141,139,138,137,133,130,123,119,111,92],"timestamp_mouse":[11,40,49,70,89,108,129,149,169,190,208,230,249,268,288,309,330,349,369,389,409,430,449,468,489,509,528,550,570,588,610,630,649,668,689,708,729,749,769,789,809,830,849,868,888,909,928,949,970,989,1008,1029,1048,1069,1090,1108,1129,1149,1168,1189,1210,1230,1250,1268,1290,1308,1329,1349,1370,1388,1408,1429],"xSR":741.5,"ySR":573.95,"xT1":424.9,"yT1":0,"xT2":1058.1,"yT2":0,"toosoon":0,"cond_shown":"Incongruent","ratio_trial":100,"L_num":10,"L_den":25,"R_num":8,"R_den":16,"correct_side":2,"subjID":"nathaliamendezrueda27","gender":"1","school":"6","age":"12"},{"start_time":1551882442114,"click_time":1551882444023,"finger_time":1551882442942,"fix_duration":250,"trial":7,"RT":828,"MT":1081,"sideResp":1,"stimulus":[],"xmouse":[765,765,765,765,765,765,765,765,765,765,765,765,765,765,765,765,765,765,765,765,765,765,765,765,765,765,765,765,765,765,765,765,765,765,765,765,765,765,765,767,773,784,830,868,920,927,930,939,945,952,955,957,958,959,960,961,961,962,963,963,964,964,964,964,964,959,955,949,927,912,885,856,812,743,722,720,720,719,715,709,695,676,646,639,634,630,625,599,571,540,533,533,533,532,531,516],"ymouse":[593,593,593,593,593,593,593,593,593,593,593,593,593,593,593,593,593,593,593,593,593,593,593,593,593,593,593,593,593,593,593,593,593,593,593,593,593,593,593,591,585,573,519,471,428,420,416,403,391,379,370,365,363,361,359,356,356,355,352,352,350,350,348,343,341,330,322,311,277,256,221,193,159,125,117,116,116,116,115,113,110,103,95,94,92,91,89,81,75,67,63,63,63,62,61,55],"timestamp_mouse":[8,29,48,69,89,109,129,148,169,189,209,229,250,268,288,309,328,350,370,388,409,429,448,469,489,509,529,548,569,589,610,628,650,668,688,709,728,750,770,790,808,828,850,868,888,908,929,950,968,989,1009,1029,1049,1070,1089,1110,1129,1148,1169,1189,1209,1229,1249,1268,1290,1310,1329,1349,1370,1390,1409,1429,1449,1469,1490,1508,1530,1549,1570,1589,1610,1628,1649,1669,1689,1710,1729,1749,1768,1790,1810,1830,1849,1869,1889,1909],"xSR":741.5,"ySR":573.95,"xT1":424.9,"yT1":0,"xT2":1058.1,"yT2":0,"toosoon":0,"cond_shown":"Incongruent","ratio_trial":300,"L_num":1,"L_den":2,"R_num":2,"R_den":10,"correct_side":1,"subjID":"nathaliamendezrueda27","gender":"1","school":"6","age":"12"},{"start_time":1551882445446,"click_time":1551882446663,"finger_time":1551882446263,"fix_duration":442.6614383331026,"trial":8,"RT":817,"MT":400,"sideResp":2,"stimulus":[],"xmouse":[785,785,785,785,785,785,785,785,785,785,785,785,785,785,785,785,785,785,785,785,785,785,785,785,785,785,785,785,785,785,785,785,785,785,785,785,785,800,819,838,900,935,965,991,1007,1022,1027,1033,1038,1043,1054,1058,1062,1065,1067,1074,1079,1083,1086,1089,1092],"ymouse":[634,634,634,634,634,634,634,634,634,634,634,634,634,634,634,634,634,634,634,634,634,634,634,634,634,634,634,634,634,634,634,634,634,634,634,634,635,623,604,584,508,466,417,370,341,300,288,272,263,250,216,201,187,177,168,150,137,120,109,100,88],"timestamp_mouse":[17,38,56,76,97,116,138,157,177,197,217,237,257,277,297,318,336,357,377,396,418,437,457,476,496,518,537,557,577,596,616,636,656,678,696,717,737,756,777,796,817,837,856,877,897,917,937,956,976,996,1018,1036,1056,1076,1097,1117,1136,1157,1177,1198,1217],"xSR":741.5,"ySR":573.95,"xT1":424.9,"yT1":0,"xT2":1058.1,"yT2":0,"toosoon":0,"cond_shown":"Incongruent","ratio_trial":100,"L_num":6,"L_den":10,"R_num":13,"R_den":26,"correct_side":1,"subjID":"nathaliamendezrueda27","gender":"1","school":"6","age":"12"},{"start_time":1551882448396,"click_time":1551882451063,"finger_time":1551882449242,"fix_duration":250,"trial":9,"RT":846,"MT":1821,"sideResp":2,"stimulus":[],"xmouse":[767,767,767,767,767,767,767,767,767,767,767,767,767,767,767,768,768,770,770,771,771,771,771,771,771,771,771,771,771,771,771,771,771,771,771,771,771,771,771,773,773,776,778,780,783,783,783,781,739,727,716,712,710,709,708,707,706,703,691,676,662,642,615,603,601,601,601,601,601,600,600,600,599,598,596,593,589,583,573,568,568,566,565,565,565,565,565,565,565,565,565,565,565,578,602,652,731,823,927,1137,1278,1363,1433,1483,1522,1525,1526,1526,1526,1496,1455,1383,1331,1255,1232,1216,1208,1207,1206,1206,1205,1205,1205,1205,1205,1204,1199,1192,1178,1172,1167,1160,1159,1158],"ymouse":[606,606,606,606,606,606,606,606,606,606,606,606,606,606,606,606,606,606,605,605,605,605,605,605,605,605,605,605,605,605,605,605,605,605,605,605,605,605,605,603,600,584,569,551,503,475,442,399,299,277,256,247,242,238,234,232,230,226,210,192,179,163,145,136,133,133,133,133,132,131,131,128,126,121,118,112,106,98,85,78,76,69,67,66,66,66,66,66,66,66,66,66,66,65,66,72,85,98,119,169,197,212,223,230,233,233,232,231,227,208,188,155,132,89,74,61,55,52,45,43,42,40,40,40,40,39,39,43,47,48,50,51,51,51],"timestamp_mouse":[7,30,47,67,88,108,126,148,167,186,206,228,248,267,287,306,326,348,368,386,406,428,447,467,488,506,526,547,568,587,606,627,647,668,686,707,727,748,766,786,807,826,846,866,886,907,926,947,967,986,1008,1027,1047,1067,1087,1108,1127,1148,1167,1186,1208,1227,1248,1266,1286,1307,1327,1348,1367,1386,1407,1427,1447,1467,1486,1507,1527,1547,1567,1586,1607,1628,1646,1668,1687,1706,1726,1748,1768,1787,1806,1826,1847,1867,1887,1907,1927,1947,1966,1987,2008,2028,2048,2067,2088,2107,2128,2146,2166,2187,2206,2227,2246,2267,2287,2307,2327,2348,2367,2386,2408,2427,2448,2467,2487,2508,2528,2547,2567,2586,2608,2628,2648,2667],"xSR":741.5,"ySR":573.95,"xT1":424.9,"yT1":0,"xT2":1058.1,"yT2":0,"toosoon":0,"cond_shown":"Incongruent","ratio_trial":200,"L_num":11,"L_den":20,"R_num":3,"R_den":4,"correct_side":2,"subjID":"nathaliamendezrueda27","gender":"1","school":"6","age":"12"},{"start_time":1551882453118,"click_time":1551882454423,"finger_time":1551882454284,"fix_duration":894.0088484944237,"trial":10,"RT":1166,"MT":139,"sideResp":2,"stimulus":[],"xmouse":[797,797,797,797,797,797,797,797,797,797,797,797,797,797,797,797,797,797,797,797,797,797,797,797,799,799,799,800,801,801,801,802,802,802,802,802,802,802,802,802,802,802,802,802,802,802,802,802,802,802,802,802,802,803,804,809,815,828,869,889,910,933,990,1030,1040,1062],"ymouse":[652,652,652,652,652,652,652,652,652,652,652,652,652,652,652,652,652,652,652,652,652,652,652,652,649,648,646,643,642,641,641,641,641,641,641,641,641,641,641,641,641,641,641,641,641,641,641,641,641,641,641,641,641,637,636,626,610,583,486,435,384,340,230,153,133,85],"timestamp_mouse":[10,32,46,65,85,104,125,145,164,186,205,224,246,264,284,306,324,346,365,384,404,426,446,465,486,504,526,545,566,586,604,626,646,666,685,704,726,746,764,785,805,825,844,866,884,905,926,945,965,985,1004,1025,1045,1065,1085,1105,1124,1145,1166,1184,1205,1226,1245,1264,1285,1305],"xSR":741.5,"ySR":573.95,"xT1":424.9,"yT1":0,"xT2":1058.1,"yT2":0,"toosoon":0,"cond_shown":"Incongruent","ratio_trial":100,"L_num":10,"L_den":25,"R_num":8,"R_den":16,"correct_side":2,"subjID":"nathaliamendezrueda27","gender":"1","school":"6","age":"12"},{"start_time":1551882456758,"click_time":1551882458903,"finger_time":1551882458263,"fix_duration":1013.895077183239,"trial":11,"RT":1505,"MT":640,"sideResp":1,"stimulus":[],"xmouse":[800,800,800,800,800,800,800,800,800,800,800,800,800,800,800,800,800,800,800,800,800,800,800,800,800,800,800,800,800,800,800,799,799,799,799,799,799,799,799,799,799,799,799,799,799,799,799,799,799,799,799,799,799,799,799,799,799,799,799,799,799,799,799,799,799,799,799,799,799,799,799,799,799,799,801,801,809,809,808,794,790,773,768,768,767,763,760,758,750,740,729,691,641,613,593,583,576,573,571,566,558,551,550,550,548,544,527,518],"ymouse":[636,636,636,636,636,636,636,636,636,636,636,636,636,636,636,636,636,636,636,636,636,636,636,636,636,636,636,636,636,636,636,637,637,637,637,637,637,637,637,637,637,637,637,637,637,637,637,637,637,637,637,637,637,637,637,637,637,637,637,637,637,637,637,637,637,637,637,637,637,637,637,637,635,625,598,556,452,416,361,319,308,258,250,244,234,223,210,203,193,183,172,130,87,67,52,46,40,37,36,33,29,27,27,27,27,27,27,27],"timestamp_mouse":[8,26,50,65,84,106,124,144,164,185,206,224,245,265,285,304,326,344,364,385,404,424,446,464,484,506,525,545,565,584,604,626,645,664,685,705,726,745,765,785,805,826,845,865,885,905,924,944,966,984,1004,1025,1045,1065,1084,1104,1126,1145,1164,1186,1206,1224,1245,1264,1285,1305,1325,1344,1364,1386,1405,1426,1445,1465,1485,1505,1524,1545,1565,1586,1606,1626,1645,1664,1684,1706,1726,1745,1764,1786,1805,1824,1844,1865,1886,1905,1926,1945,1964,1986,2005,2024,2046,2065,2084,2105,2126,2145],"xSR":741.5,"ySR":573.95,"xT1":424.9,"yT1":0,"xT2":1058.1,"yT2":0,"toosoon":0,"cond_shown":"Incongruent","ratio_trial":300,"L_num":7,"L_den":10,"R_num":8,"R_den":20,"correct_side":1,"subjID":"nathaliamendezrueda27","gender":"1","school":"6","age":"12"},{"start_time":1551882462691,"click_time":1551882463844,"finger_time":1551882463323,"fix_duration":725.5600255555148,"trial":12,"RT":632,"MT":521,"sideResp":1,"stimulus":[],"xmouse":[781,781,781,781,781,781,781,781,781,781,781,781,781,781,781,781,781,781,782,782,783,783,783,783,783,783,783,783,785,783,768,741,694,624,614,615,622,627,627,628,628,628,627,626,626,626,626,626,620,593,579,568,561,554,545,538,528,521],"ymouse":[649,649,649,649,649,649,649,649,649,649,649,649,649,649,649,649,649,649,648,648,647,647,647,647,647,647,647,647,645,629,576,484,368,166,109,78,69,64,63,56,50,43,40,40,40,40,39,39,41,52,55,58,59,60,60,60,60,59],"timestamp_mouse":[12,35,51,73,93,111,133,151,173,191,212,233,253,271,292,313,331,352,372,393,411,433,452,471,493,512,532,553,572,592,611,631,653,673,692,711,732,753,772,793,812,833,852,873,891,911,933,952,972,993,1012,1032,1051,1071,1091,1111,1133,1153],"xSR":741.5,"ySR":573.95,"xT1":424.9,"yT1":0,"xT2":1058.1,"yT2":0,"toosoon":0,"cond_shown":"Congruent","ratio_trial":300,"L_num":20,"L_den":25,"R_num":8,"R_den":16,"correct_side":1,"subjID":"nathaliamendezrueda27","gender":"1","school":"6","age":"12"},{"start_time":1551882465196,"click_time":1551882467223,"finger_time":1551882466284,"fix_duration":250,"trial":13,"RT":1088,"MT":939,"sideResp":1,"stimulus":[],"xmouse":[756,756,756,756,756,756,756,756,757,757,758,758,758,758,758,758,759,759,760,761,763,765,767,768,775,778,780,781,784,785,785,785,785,785,785,785,785,785,785,785,785,785,785,785,785,785,785,785,785,785,785,792,799,810,832,845,855,861,865,867,867,867,867,867,867,867,867,867,867,867,867,867,867,868,875,876,878,879,880,880,880,880,880,873,835,794,725,676,628,545,517,512,511,511,511,511,511,511,511,511,511,509],"ymouse":[673,673,673,673,673,673,673,672,671,670,669,669,669,668,668,668,667,667,667,665,662,659,656,653,642,636,631,627,622,620,620,620,620,620,620,620,620,620,620,620,620,620,620,620,620,620,620,620,620,620,620,609,596,576,527,497,475,460,451,445,445,445,445,445,445,445,445,445,445,445,445,445,444,442,425,421,417,412,410,409,409,409,407,393,347,308,254,190,119,2,0,0,0,0,0,0,0,0,0,0,0,1],"timestamp_mouse":[7,34,47,68,87,107,127,148,168,186,207,228,248,266,287,306,328,348,367,387,407,427,447,467,486,508,528,546,567,586,606,627,648,666,688,707,726,748,768,787,807,827,846,868,888,906,926,946,967,988,1008,1027,1048,1067,1088,1107,1127,1148,1167,1187,1206,1227,1248,1267,1288,1307,1326,1348,1367,1387,1407,1428,1447,1466,1488,1507,1526,1547,1567,1587,1607,1627,1648,1667,1686,1708,1727,1747,1767,1786,1807,1827,1847,1868,1887,1906,1926,1947,1967,1986,2007,2027],"xSR":741.5,"ySR":573.95,"xT1":424.9,"yT1":0,"xT2":1058.1,"yT2":0,"toosoon":0,"cond_shown":"Incongruent","ratio_trial":100,"L_num":1,"L_den":2,"R_num":8,"R_den":20,"correct_side":1,"subjID":"nathaliamendezrueda27","gender":"1","school":"6","age":"12"},{"start_time":1551882471132,"click_time":1551882472404,"finger_time":1551882471783,"fix_duration":1126.7541034734754,"trial":14,"RT":651,"MT":621,"sideResp":1,"stimulus":[],"xmouse":[781,781,781,781,781,781,781,781,781,781,781,781,781,781,781,781,781,781,781,781,781,781,781,781,781,781,781,781,781,779,779,775,763,742,727,715,704,702,700,697,692,689,685,683,681,678,675,658,646,635,621,608,585,582,581,580,579,575,572,570,568,557,534,509],"ymouse":[610,610,610,610,610,610,610,610,610,610,610,610,610,610,610,610,610,610,610,610,610,610,610,610,610,610,610,610,610,609,605,592,549,500,477,464,451,446,439,429,416,407,396,385,372,353,331,279,252,228,203,182,149,144,142,141,139,135,133,132,130,122,107,90],"timestamp_mouse":[11,30,60,70,91,112,130,150,171,191,211,231,252,271,291,310,330,351,371,390,411,431,451,472,491,510,530,551,570,591,612,630,651,671,690,712,732,750,771,790,810,831,851,871,892,911,930,951,972,991,1010,1031,1052,1071,1092,1111,1131,1150,1171,1190,1212,1232,1250,1271],"xSR":741.5,"ySR":573.95,"xT1":424.9,"yT1":0,"xT2":1058.1,"yT2":0,"toosoon":0,"cond_shown":"Congruent","ratio_trial":200,"L_num":21,"L_den":30,"R_num":2,"R_den":4,"correct_side":1,"subjID":"nathaliamendezrueda27","gender":"1","school":"6","age":"12"},{"start_time":1551882473762,"click_time":1551882475823,"finger_time":1551882475243,"fix_duration":357.1678792447863,"trial":15,"RT":1481,"MT":580,"sideResp":2,"stimulus":[],"xmouse":[766,766,766,766,766,766,766,766,766,766,766,766,766,766,766,766,766,766,766,766,766,767,767,768,770,770,771,773,774,775,776,777,777,777,777,777,777,777,777,777,777,777,777,777,777,777,777,777,777,777,777,777,777,777,777,777,777,777,777,777,777,777,777,777,777,777,777,777,777,777,777,777,778,781,787,805,819,844,865,888,903,920,928,932,938,952,963,976,990,1002,1022,1032,1035,1037,1038,1038,1038,1039,1039,1039,1042,1047,1053,1062],"ymouse":[631,631,631,631,631,631,631,631,631,631,631,631,631,631,631,631,631,631,631,631,631,631,631,631,630,630,630,629,627,625,623,622,622,622,622,622,622,622,622,622,622,622,622,622,622,622,622,622,622,622,622,622,622,622,622,622,622,622,622,622,622,622,622,622,622,622,620,616,613,609,606,596,592,583,571,531,503,468,437,406,382,349,331,321,309,274,257,233,212,191,152,126,116,109,105,105,105,104,104,104,100,94,89,84],"timestamp_mouse":[10,21,41,60,82,102,121,140,162,182,200,222,241,261,280,301,322,341,361,380,401,421,441,461,482,501,522,541,561,580,601,621,640,662,680,702,720,740,762,780,801,822,842,862,880,901,920,940,960,981,1000,1020,1041,1062,1081,1100,1121,1141,1160,1182,1201,1220,1242,1260,1280,1301,1320,1341,1360,1381,1401,1422,1440,1461,1481,1502,1520,1541,1561,1582,1600,1620,1641,1661,1682,1702,1721,1740,1760,1782,1802,1821,1841,1861,1880,1900,1920,1941,1961,1982,2002,2020,2040,2060],"xSR":741.5,"ySR":573.95,"xT1":424.9,"yT1":0,"xT2":1058.1,"yT2":0,"toosoon":0,"cond_shown":"Congruent","ratio_trial":200,"L_num":3,"L_den":12,"R_num":9,"R_den":20,"correct_side":2,"subjID":"nathaliamendezrueda27","gender":"1","school":"6","age":"12"},{"start_time":1551882477055,"click_time":1551882478543,"finger_time":1551882477682,"fix_duration":250,"trial":16,"RT":627,"MT":861,"sideResp":2,"stimulus":[],"xmouse":[774,774,774,774,774,774,774,774,774,774,774,774,774,774,774,774,774,774,774,774,774,774,774,774,774,774,774,774,775,782,792,815,823,832,837,840,845,848,852,859,880,887,897,904,913,930,949,958,966,974,983,1007,1017,1024,1029,1030,1031,1031,1031,1031,1031,1034,1037,1038,1039,1040,1041,1041,1041,1041,1043,1044,1049,1056,1064],"ymouse":[649,649,649,649,649,649,649,649,649,649,649,649,649,649,649,649,649,649,649,649,649,649,649,649,649,649,649,649,649,634,607,548,524,506,496,489,482,478,474,466,429,411,395,378,357,303,240,207,180,152,124,61,38,24,17,14,13,13,13,12,12,24,30,33,37,44,46,47,47,47,49,49,49,48,47],"timestamp_mouse":[7,37,49,68,89,107,127,148,167,189,207,228,248,267,289,308,329,349,368,389,409,429,448,468,489,508,527,549,569,588,608,627,647,668,688,708,727,748,769,789,809,827,848,867,887,909,927,949,968,989,1009,1028,1048,1068,1088,1107,1128,1147,1169,1188,1208,1228,1247,1268,1289,1309,1328,1347,1368,1388,1409,1428,1447,1468,1488],"xSR":741.5,"ySR":573.95,"xT1":424.9,"yT1":0,"xT2":1058.1,"yT2":0,"toosoon":0,"cond_shown":"Congruent","ratio_trial":300,"L_num":1,"L_den":5,"R_num":6,"R_den":12,"correct_side":2,"subjID":"nathaliamendezrueda27","gender":"1","school":"6","age":"12"},{"start_time":1551882480951,"click_time":1551882482683,"finger_time":1551882482143,"fix_duration":1287.9300282547547,"trial":17,"RT":1192,"MT":540,"sideResp":2,"stimulus":[],"xmouse":[764,764,764,764,764,764,764,764,764,764,764,764,764,764,764,764,764,764,764,764,764,764,764,764,764,764,764,764,764,764,762,761,760,760,760,760,760,760,760,760,760,760,760,760,760,760,760,760,760,760,760,760,760,760,760,760,760,766,771,781,791,822,835,853,868,903,930,955,990,1022,1052,1094,1109,1117,1121,1125,1133,1136,1138,1139,1141,1141,1141,1141,1141,1141,1141],"ymouse":[612,612,612,612,612,612,612,612,612,612,612,612,612,612,612,612,612,612,612,612,612,612,612,612,612,612,612,612,612,611,603,597,596,595,595,595,595,595,595,595,595,595,595,595,595,595,595,595,595,595,595,595,595,595,595,595,595,585,580,569,557,518,500,473,455,395,356,316,278,240,205,161,140,129,125,119,109,104,103,101,100,100,100,100,100,100,99],"timestamp_mouse":[20,45,52,71,91,111,132,151,172,192,213,233,251,272,293,312,332,351,372,392,412,431,452,473,491,512,533,551,572,592,612,632,652,671,692,713,733,752,772,791,811,831,851,872,893,913,931,952,971,992,1012,1031,1052,1072,1092,1113,1131,1151,1171,1192,1212,1231,1251,1273,1292,1313,1332,1352,1372,1392,1412,1432,1452,1472,1492,1512,1531,1552,1572,1592,1613,1632,1651,1672,1692,1713,1732],"xSR":741.5,"ySR":573.95,"xT1":424.9,"yT1":0,"xT2":1058.1,"yT2":0,"toosoon":0,"cond_shown":"Incongruent","ratio_trial":200,"L_num":3,"L_den":10,"R_num":1,"R_den":2,"correct_side":2,"subjID":"nathaliamendezrueda27","gender":"1","school":"6","age":"12"},{"start_time":1551882484096,"click_time":1551882485304,"finger_time":1551882484964,"fix_duration":250,"trial":18,"RT":868,"MT":340,"sideResp":2,"stimulus":[],"xmouse":[810,810,810,810,810,810,810,810,810,810,810,810,810,810,810,810,810,810,810,810,810,810,810,810,810,810,810,810,810,810,810,810,810,810,810,810,810,810,810,810,814,820,836,875,907,928,940,950,963,969,976,986,998,1010,1032,1039,1043,1048,1052,1057,1061],"ymouse":[651,651,651,651,651,651,651,651,651,651,651,651,651,651,651,651,651,651,651,651,651,651,651,651,651,651,651,651,651,651,651,651,651,651,651,651,651,651,651,651,640,630,602,505,427,376,337,310,279,267,254,237,216,195,151,137,127,117,108,98,92],"timestamp_mouse":[8,40,47,68,86,108,126,148,168,186,207,228,246,266,288,307,326,346,368,388,406,428,447,466,487,507,527,548,566,587,607,627,647,666,687,706,726,748,766,788,807,828,846,868,886,907,926,948,968,987,1007,1027,1046,1067,1087,1106,1127,1146,1167,1187,1208],"xSR":741.5,"ySR":573.95,"xT1":424.9,"yT1":0,"xT2":1058.1,"yT2":0,"toosoon":0,"cond_shown":"Incongruent","ratio_trial":300,"L_num":13,"L_den":26,"R_num":12,"R_den":15,"correct_side":2,"subjID":"nathaliamendezrueda27","gender":"1","school":"6","age":"12"},{"start_time":1551882486944,"click_time":1551882488724,"finger_time":1551882488163,"fix_duration":880.4515986435438,"trial":19,"RT":1219,"MT":561,"sideResp":1,"stimulus":[],"xmouse":[818,818,818,818,818,818,818,818,818,818,818,818,818,818,818,818,818,818,818,818,818,818,818,818,818,818,818,818,818,818,818,818,818,818,818,818,818,818,818,818,818,818,818,818,818,818,818,818,818,818,818,818,818,818,818,818,818,818,818,814,806,785,779,768,758,752,743,738,732,724,713,681,665,656,646,638,622,613,602,592,584,572,569,566,564,556,547,536,519],"ymouse":[621,621,621,621,621,621,621,621,621,621,621,621,621,621,621,621,621,621,621,621,621,621,621,621,621,621,621,621,621,621,621,621,621,621,621,621,621,621,621,621,621,621,621,621,621,621,621,621,621,621,621,621,621,621,621,621,621,614,602,580,554,478,452,425,404,389,364,350,336,321,306,271,253,240,227,215,189,174,158,147,138,124,120,117,114,108,103,99,94],"timestamp_mouse":[18,45,60,79,99,119,139,158,180,199,218,240,258,280,299,318,338,359,378,399,419,439,458,479,499,520,539,560,578,598,618,638,659,679,700,718,740,759,780,798,818,838,858,880,898,918,939,959,978,998,1019,1039,1058,1079,1098,1119,1140,1160,1178,1198,1219,1239,1259,1279,1299,1319,1340,1360,1380,1399,1418,1439,1459,1480,1500,1518,1540,1559,1579,1599,1619,1640,1658,1680,1698,1720,1738,1759,1780],"xSR":741.5,"ySR":573.95,"xT1":424.9,"yT1":0,"xT2":1058.1,"yT2":0,"toosoon":0,"cond_shown":"Incongruent","ratio_trial":100,"L_num":6,"L_den":12,"R_num":3,"R_den":5,"correct_side":2,"subjID":"nathaliamendezrueda27","gender":"1","school":"6","age":"12"},{"start_time":1551882490999,"click_time":1551882493623,"finger_time":1551882492162,"fix_duration":1154.2443899976997,"trial":20,"RT":1163,"MT":1461,"sideResp":1,"stimulus":[],"xmouse":[756,756,756,756,756,756,756,756,756,756,756,756,756,756,756,756,756,756,756,756,756,756,756,756,756,756,756,756,756,756,756,756,756,756,756,756,756,756,756,756,756,756,756,756,756,756,756,756,756,756,755,752,752,752,752,753,765,784,825,932,947,956,964,968,975,978,980,982,984,988,990,993,995,997,1000,1001,1004,1009,1012,1015,1016,1016,1016,1016,1016,1016,1015,1011,1004,988,976,970,963,954,928,919,914,912,906,872,841,813,783,752,676,632,589,560,535,511,501,500,500,500,499,499,500,502,502,503,504,504,504,504,504,504,504,504,503,502,501,501],"ymouse":[645,645,645,645,645,645,645,645,645,645,645,645,645,645,645,645,645,645,645,645,645,645,645,645,645,645,645,645,645,645,645,645,645,645,645,645,645,645,645,645,645,645,645,645,645,645,645,645,645,645,646,649,649,649,649,642,616,575,522,429,411,398,387,379,365,359,352,347,343,332,325,319,310,305,297,293,287,276,268,261,261,261,261,261,261,260,260,268,280,305,327,337,346,355,368,369,369,369,366,341,318,302,287,269,243,232,220,216,212,210,209,208,207,204,183,170,158,144,136,125,121,116,112,110,107,107,106,105,103,101,100,99],"timestamp_mouse":[8,23,44,64,84,107,123,144,165,184,203,223,244,263,283,304,323,344,363,383,403,423,443,464,484,504,524,543,565,584,603,624,643,663,684,704,723,744,763,784,804,823,843,864,883,904,923,944,964,984,1003,1023,1043,1064,1084,1104,1124,1143,1163,1184,1203,1224,1243,1263,1283,1303,1323,1343,1364,1384,1403,1424,1444,1463,1483,1504,1524,1543,1563,1583,1603,1623,1644,1664,1684,1703,1723,1743,1764,1784,1803,1824,1844,1863,1884,1904,1923,1944,1963,1984,2003,2024,2044,2064,2083,2103,2124,2143,2163,2184,2203,2223,2243,2264,2284,2304,2323,2345,2364,2383,2403,2423,2444,2463,2483,2504,2523,2544,2563,2583,2603,2624],"xSR":741.5,"ySR":573.95,"xT1":424.9,"yT1":0,"xT2":1058.1,"yT2":0,"toosoon":0,"cond_shown":"Congruent","ratio_trial":100,"L_num":8,"L_den":16,"R_num":2,"R_den":5,"correct_side":1,"subjID":"nathaliamendezrueda27","gender":"1","school":"6","age":"12"},{"start_time":1551882495779,"click_time":1551882497502,"finger_time":1551882497182,"fix_duration":975.8416331893268,"trial":21,"RT":1403,"MT":320,"sideResp":1,"stimulus":[],"xmouse":[765,765,765,765,765,765,765,765,765,765,765,765,765,765,765,765,765,765,765,765,765,765,765,765,765,765,765,765,765,765,765,765,765,765,765,765,765,765,765,765,765,765,765,765,765,765,765,765,765,765,765,765,765,765,765,765,765,765,765,765,765,765,765,765,765,765,765,766,767,770,770,770,770,769,764,759,757,754,749,744,717,694,655,609,565,500,488],"ymouse":[624,624,624,625,625,625,625,625,625,626,626,626,626,626,626,626,626,626,626,626,626,626,626,626,626,626,626,626,626,626,626,626,626,626,626,626,626,626,626,626,626,626,626,626,626,626,626,626,626,626,626,626,626,626,626,626,626,626,626,626,626,626,626,626,626,626,626,617,609,591,544,518,498,479,442,424,412,402,393,380,332,298,252,203,163,106,94],"timestamp_mouse":[7,23,43,63,85,104,123,145,163,184,204,224,244,263,284,304,323,343,363,383,403,424,453,464,484,503,524,543,564,583,603,623,643,663,684,703,724,743,763,783,803,823,843,863,883,904,923,943,963,984,1003,1023,1043,1063,1083,1104,1123,1143,1163,1185,1204,1224,1244,1264,1283,1303,1323,1344,1364,1383,1403,1424,1444,1463,1484,1503,1523,1543,1564,1583,1603,1624,1643,1663,1683,1704,1723],"xSR":741.5,"ySR":573.95,"xT1":424.9,"yT1":0,"xT2":1058.1,"yT2":0,"toosoon":0,"cond_shown":"Congruent","ratio_trial":200,"L_num":14,"L_den":28,"R_num":6,"R_den":20,"correct_side":1,"subjID":"nathaliamendezrueda27","gender":"1","school":"6","age":"12"},{"start_time":1551882498870,"click_time":1551882500602,"finger_time":1551882500002,"fix_duration":305.1224358360254,"trial":22,"RT":1132,"MT":600,"sideResp":2,"stimulus":[],"xmouse":[779,779,779,779,779,779,779,779,779,779,779,778,778,778,778,778,778,778,778,778,778,778,778,778,778,778,778,778,778,778,778,778,778,778,778,778,778,778,778,778,778,778,778,778,778,778,778,778,778,778,778,778,778,778,782,790,809,823,839,852,868,875,883,892,907,916,927,936,948,958,962,965,972,978,990,999,1002,1010,1015,1032,1038,1041,1043,1045,1048,1055,1060],"ymouse":[593,593,593,593,594,594,595,596,596,596,597,598,598,598,599,599,599,599,599,599,599,599,599,599,599,599,599,599,599,599,599,599,599,599,599,599,599,599,599,599,599,599,599,599,599,599,599,599,599,599,599,599,599,599,598,589,566,543,514,491,454,437,417,390,344,323,298,281,266,254,250,247,243,239,229,220,215,201,190,152,137,125,117,110,104,91,83],"timestamp_mouse":[13,38,52,72,93,114,133,152,172,192,212,232,253,272,293,313,332,352,372,392,413,432,453,473,492,513,532,552,572,593,612,632,653,672,693,712,733,752,773,793,812,832,852,873,892,912,932,952,972,993,1012,1032,1053,1073,1093,1113,1132,1152,1173,1193,1213,1232,1253,1272,1293,1312,1332,1353,1373,1393,1412,1432,1452,1472,1493,1512,1532,1552,1572,1593,1612,1632,1653,1672,1693,1713,1732],"xSR":741.5,"ySR":573.95,"xT1":424.9,"yT1":0,"xT2":1058.1,"yT2":0,"toosoon":0,"cond_shown":"Incongruent","ratio_trial":100,"L_num":6,"L_den":12,"R_num":3,"R_den":5,"correct_side":2,"subjID":"nathaliamendezrueda27","gender":"1","school":"6","age":"12"},{"start_time":1551882502684,"click_time":1551882504502,"finger_time":1551882504222,"fix_duration":699.0251358349487,"trial":23,"RT":1538,"MT":280,"sideResp":1,"stimulus":[],"xmouse":[830,830,830,830,829,828,827,826,825,822,821,821,820,820,820,820,820,820,820,820,820,820,820,820,820,820,820,820,820,820,820,820,820,820,820,820,820,820,820,820,820,820,820,820,820,820,820,820,820,820,820,820,820,820,820,820,820,820,820,820,820,820,820,820,820,820,820,820,820,820,820,820,819,816,807,790,762,716,616,582,561,551,544,533,528,526,524,521,517,515,513],"ymouse":[648,648,648,648,648,648,648,648,648,647,646,646,646,646,646,646,646,646,646,646,646,646,646,646,646,646,646,646,646,646,646,646,646,646,646,646,646,646,646,646,646,646,646,646,646,646,646,646,646,646,646,646,646,646,646,646,646,646,646,646,646,646,646,646,646,646,646,646,646,646,646,646,646,639,616,585,520,438,286,239,195,174,156,130,120,117,113,109,102,100,95],"timestamp_mouse":[21,43,59,78,98,118,139,158,179,199,218,239,258,278,298,319,338,359,379,398,419,439,458,479,499,519,538,559,579,599,619,640,658,679,699,718,739,758,778,798,818,839,859,878,898,919,938,959,979,999,1018,1039,1059,1079,1099,1118,1138,1159,1178,1198,1218,1239,1259,1281,1299,1318,1338,1358,1378,1398,1419,1438,1458,1478,1498,1518,1538,1558,1579,1598,1619,1638,1658,1679,1699,1718,1738,1758,1778,1798,1818],"xSR":741.5,"ySR":573.95,"xT1":424.9,"yT1":0,"xT2":1058.1,"yT2":0,"toosoon":0,"cond_shown":"Incongruent","ratio_trial":200,"L_num":7,"L_den":10,"R_num":12,"R_den":24,"correct_side":1,"subjID":"nathaliamendezrueda27","gender":"1","school":"6","age":"12"},{"start_time":1551882506775,"click_time":1551882508083,"finger_time":1551882507722,"fix_duration":1190.6092523790664,"trial":24,"RT":947,"MT":361,"sideResp":1,"stimulus":[],"xmouse":[744,744,744,744,744,744,744,744,744,744,744,744,744,744,744,744,744,744,744,744,744,744,744,744,744,744,744,744,744,744,744,744,744,744,744,744,744,744,744,744,744,744,744,744,744,748,751,753,753,754,762,762,762,762,758,742,741,741,741,738,723,699,666,621,533,503],"ymouse":[592,592,592,592,592,592,592,592,592,592,592,592,592,592,592,592,592,592,592,592,592,592,592,592,592,592,592,592,592,592,592,592,592,592,592,592,592,592,592,592,592,592,592,592,592,590,579,560,541,518,421,369,325,271,238,204,201,201,201,199,191,179,162,139,103,89],"timestamp_mouse":[8,38,48,67,87,108,127,147,167,187,208,228,247,267,287,307,328,348,368,388,408,428,448,468,488,507,528,547,567,588,608,628,647,668,687,708,728,747,767,787,808,828,848,868,887,908,927,947,968,987,1007,1028,1047,1068,1087,1107,1127,1148,1168,1187,1207,1227,1247,1267,1286,1307],"xSR":741.5,"ySR":573.95,"xT1":424.9,"yT1":0,"xT2":1058.1,"yT2":0,"toosoon":0,"cond_shown":"Incongruent","ratio_trial":100,"L_num":2,"L_den":4,"R_num":8,"R_den":20,"correct_side":1,"subjID":"nathaliamendezrueda27","gender":"1","school":"6","age":"12"},{"start_time":1551882509869,"click_time":1551882511563,"finger_time":1551882510982,"fix_duration":305.8182357182817,"trial":25,"RT":1113,"MT":581,"sideResp":1,"stimulus":[],"xmouse":[775,775,775,775,775,775,775,775,775,775,775,775,775,775,775,775,775,775,775,775,775,775,775,774,772,771,769,768,768,768,768,768,768,768,768,768,768,768,768,768,768,768,768,768,768,768,768,768,768,768,768,768,768,765,751,726,671,646,624,603,584,583,583,583,582,579,576,573,568,562,549,548,548,548,543,527,510,491,478,470,469,469,468,467,466],"ymouse":[625,625,625,625,625,625,625,625,625,625,625,625,625,625,625,625,625,625,625,625,625,625,625,626,628,629,631,631,631,631,631,631,631,631,631,631,631,631,631,631,631,631,631,631,631,631,631,631,631,631,631,631,631,631,614,582,488,417,341,282,238,234,234,232,227,217,208,195,182,169,152,151,151,151,149,140,132,123,116,109,108,107,105,103,96],"timestamp_mouse":[14,33,53,83,94,113,134,153,173,193,214,234,253,273,293,314,333,354,374,393,414,434,454,475,494,514,534,553,573,593,613,633,654,673,694,713,733,754,773,794,814,833,853,874,893,913,933,953,974,993,1013,1034,1053,1074,1093,1113,1134,1153,1173,1193,1213,1233,1254,1273,1293,1314,1333,1353,1373,1393,1414,1433,1453,1474,1493,1513,1533,1553,1573,1593,1613,1633,1653,1673,1693],"xSR":741.5,"ySR":573.95,"xT1":424.9,"yT1":0,"xT2":1058.1,"yT2":0,"toosoon":0,"cond_shown":"Incongruent","ratio_trial":100,"L_num":3,"L_den":5,"R_num":11,"R_den":22,"correct_side":1,"subjID":"nathaliamendezrueda27","gender":"1","school":"6","age":"12"},{"start_time":1551882513936,"click_time":1551882515263,"finger_time":1551882514662,"fix_duration":1272.3838357328789,"trial":26,"RT":726,"MT":601,"sideResp":2,"stimulus":[],"xmouse":[797,797,797,797,797,797,797,797,797,797,797,797,797,797,797,797,797,797,797,797,797,797,797,797,797,797,797,797,797,797,797,797,797,796,797,803,811,842,859,880,899,933,949,966,984,995,1013,1019,1025,1030,1035,1048,1056,1060,1065,1068,1069,1070,1071,1072,1072,1072,1072,1073,1073,1074,1078],"ymouse":[626,626,626,626,626,626,626,626,626,626,626,626,626,626,626,626,626,626,626,626,626,626,626,626,626,626,626,626,626,626,626,626,626,626,609,586,557,480,448,418,395,354,335,318,292,277,254,245,236,226,215,188,175,164,149,140,125,120,115,112,110,110,109,108,105,104,94],"timestamp_mouse":[7,39,46,66,86,107,127,146,166,186,206,226,247,266,286,307,326,346,366,386,406,426,446,466,486,506,526,547,566,586,606,626,646,666,686,706,726,746,767,787,806,826,847,866,887,906,926,947,967,987,1006,1026,1046,1067,1086,1107,1126,1145,1166,1186,1207,1226,1246,1266,1286,1306,1326],"xSR":741.5,"ySR":573.95,"xT1":424.9,"yT1":0,"xT2":1058.1,"yT2":0,"toosoon":0,"cond_shown":"Incongruent","ratio_trial":200,"L_num":6,"L_den":20,"R_num":3,"R_den":6,"correct_side":2,"subjID":"nathaliamendezrueda27","gender":"1","school":"6","age":"12"},{"start_time":1551882517569,"click_time":1551882519282,"finger_time":1551882518382,"fix_duration":1385.4787955410034,"trial":27,"RT":813,"MT":900,"sideResp":1,"stimulus":[],"xmouse":[774,774,774,774,774,774,774,774,774,774,774,774,774,774,774,774,774,774,774,774,774,774,774,774,774,774,774,774,774,774,774,774,774,774,774,774,774,774,774,774,776,778,778,773,755,742,727,717,709,695,689,684,675,671,668,660,657,653,649,644,643,642,642,636,606,599,597,595,591,574,558,551,544,541,536,532,528,524,521,520,519,517,515,512,507,504],"ymouse":[661,661,661,661,661,661,661,661,661,661,661,661,661,661,661,661,661,661,661,661,661,661,661,661,661,661,661,661,661,661,661,661,661,661,661,661,661,650,641,604,570,561,541,502,453,425,403,385,370,347,336,328,314,307,301,289,283,276,268,259,257,257,255,249,226,220,218,216,213,197,184,179,173,169,162,158,154,150,147,145,141,134,128,119,105,96],"timestamp_mouse":[13,38,53,73,94,113,133,154,173,195,214,234,253,274,293,314,333,353,374,393,413,434,453,474,493,514,534,553,573,593,613,633,653,674,693,713,734,754,773,793,813,833,853,874,893,913,933,953,973,993,1013,1033,1053,1074,1093,1113,1134,1153,1173,1193,1213,1234,1255,1273,1293,1313,1333,1354,1374,1393,1413,1433,1453,1473,1493,1513,1533,1553,1574,1593,1613,1633,1653,1674,1693,1713],"xSR":741.5,"ySR":573.95,"xT1":424.9,"yT1":0,"xT2":1058.1,"yT2":0,"toosoon":0,"cond_shown":"Incongruent","ratio_trial":100,"L_num":4,"L_den":8,"R_num":8,"R_den":20,"correct_side":1,"subjID":"nathaliamendezrueda27","gender":"1","school":"6","age":"12"},{"start_time":1551882520673,"click_time":1551882521702,"finger_time":1551882521362,"fix_duration":250,"trial":28,"RT":689,"MT":340,"sideResp":2,"stimulus":[],"xmouse":[801,801,801,801,801,801,801,801,801,801,801,801,801,801,801,801,801,801,801,801,801,801,801,801,801,801,801,801,801,801,805,811,820,827,843,847,851,857,860,868,873,881,890,907,981,1004,1028,1047,1070,1098,1112,1121],"ymouse":[624,624,624,624,624,624,624,624,624,624,624,624,624,624,624,624,624,624,624,624,624,624,624,624,624,624,624,624,624,624,624,615,601,584,550,536,522,501,488,457,438,415,387,354,275,250,221,198,162,122,103,91],"timestamp_mouse":[9,37,51,70,90,109,129,149,169,189,209,229,249,269,290,309,329,349,370,390,410,429,449,469,489,510,529,550,569,589,610,629,650,669,689,710,729,749,770,789,809,829,850,870,889,909,930,949,970,989,1009,1029],"xSR":741.5,"ySR":573.95,"xT1":424.9,"yT1":0,"xT2":1058.1,"yT2":0,"toosoon":0,"cond_shown":"Incongruent","ratio_trial":300,"L_num":13,"L_den":26,"R_num":12,"R_den":15,"correct_side":2,"subjID":"nathaliamendezrueda27","gender":"1","school":"6","age":"12"},{"start_time":1551882523024,"click_time":1551882524062,"finger_time":1551882523603,"fix_duration":360.07332467288444,"trial":29,"RT":579,"MT":459,"sideResp":1,"stimulus":[],"xmouse":[814,814,814,814,814,814,814,814,814,814,814,814,814,814,814,814,814,814,814,814,814,814,814,814,814,813,808,803,797,783,764,748,744,741,733,712,668,648,626,617,611,595,586,575,564,552,548,548,548,547,541,506],"ymouse":[628,628,628,628,628,628,628,628,628,628,628,628,628,628,628,628,628,628,628,628,628,628,628,628,628,628,611,595,572,534,498,457,444,434,412,377,302,272,240,221,206,172,157,143,128,116,111,111,111,111,106,90],"timestamp_mouse":[19,39,58,79,99,119,139,159,179,198,218,239,258,278,298,319,339,358,379,398,418,438,458,479,499,518,540,558,579,600,618,638,658,678,698,719,738,758,778,798,819,838,859,878,898,918,938,959,978,999,1019,1038],"xSR":741.5,"ySR":573.95,"xT1":424.9,"yT1":0,"xT2":1058.1,"yT2":0,"toosoon":0,"cond_shown":"Congruent","ratio_trial":100,"L_num":3,"L_den":6,"R_num":2,"R_den":5,"correct_side":1,"subjID":"nathaliamendezrueda27","gender":"1","school":"6","age":"12"},{"start_time":1551882526715,"click_time":1551882528263,"finger_time":1551882527882,"fix_duration":1090.535523398343,"trial":30,"RT":1167,"MT":381,"sideResp":1,"stimulus":[],"xmouse":[747,747,747,747,747,747,747,747,747,747,747,747,747,747,747,747,747,747,747,747,747,747,747,747,747,747,747,747,747,747,747,747,747,747,747,747,747,747,747,747,747,747,747,747,747,747,747,747,747,747,747,747,747,747,747,747,749,750,750,750,740,723,691,674,662,652,640,628,622,615,611,603,587,577,567,554,533,507],"ymouse":[643,643,643,643,643,643,643,643,643,643,643,643,643,643,643,643,643,643,643,643,643,643,643,643,643,643,643,643,643,643,643,643,643,643,643,643,643,643,643,643,643,643,643,643,643,643,643,643,643,643,643,643,643,643,643,643,637,583,534,458,377,309,212,177,156,139,123,107,97,87,79,69,49,39,32,26,19,15],"timestamp_mouse":[7,36,47,67,88,107,128,147,167,187,207,227,247,268,288,307,328,348,368,387,407,428,447,467,487,507,527,547,567,588,608,628,648,667,689,708,727,747,767,788,807,827,848,868,888,907,927,947,967,988,1007,1027,1047,1067,1088,1108,1128,1147,1167,1187,1207,1229,1247,1267,1287,1309,1327,1346,1367,1388,1407,1427,1447,1467,1488,1508,1527,1547],"xSR":741.5,"ySR":573.95,"xT1":424.9,"yT1":0,"xT2":1058.1,"yT2":0,"toosoon":0,"cond_shown":"Incongruent","ratio_trial":200,"L_num":1,"L_den":3,"R_num":2,"R_den":15,"correct_side":1,"subjID":"nathaliamendezrueda27","gender":"1","school":"6","age":"12"},{"start_time":1551882530911,"click_time":1551882532523,"finger_time":1551882531742,"fix_duration":1447.4495242329276,"trial":31,"RT":831,"MT":781,"sideResp":2,"stimulus":[],"xmouse":[746,747,748,748,748,749,749,749,749,749,749,749,749,749,749,749,749,749,749,749,749,749,749,749,749,749,749,749,749,749,749,749,749,753,754,758,767,776,784,790,799,807,813,820,822,825,828,830,831,833,833,833,833,833,833,833,833,834,834,837,840,846,865,877,889,974,1052,1164,1198,1217,1230,1235,1238,1238,1238,1237,1232,1212,1193,1172,1146],"ymouse":[640,640,640,640,640,640,640,640,640,640,640,640,640,640,640,640,640,640,640,640,640,640,640,640,640,640,640,640,640,640,640,640,640,638,637,635,627,617,607,596,582,567,555,540,535,530,523,518,516,514,513,513,513,513,513,513,513,511,510,506,501,490,448,422,392,319,271,196,175,165,155,151,147,147,147,144,141,128,116,100,86],"timestamp_mouse":[11,32,52,71,91,111,132,151,171,192,212,232,252,271,291,312,332,351,371,391,412,431,452,471,492,511,531,552,571,592,611,631,652,671,691,711,731,751,771,791,811,831,851,872,891,911,931,951,971,991,1012,1032,1051,1071,1091,1112,1132,1151,1171,1191,1211,1231,1252,1272,1291,1311,1331,1351,1372,1391,1412,1431,1451,1471,1491,1511,1532,1551,1572,1591,1612],"xSR":741.5,"ySR":573.95,"xT1":424.9,"yT1":0,"xT2":1058.1,"yT2":0,"toosoon":0,"cond_shown":"Incongruent","ratio_trial":100,"L_num":10,"L_den":25,"R_num":9,"R_den":18,"correct_side":2,"subjID":"nathaliamendezrueda27","gender":"1","school":"6","age":"12"},{"start_time":1551882535177,"click_time":1551882536783,"finger_time":1551882536142,"fix_duration":973.0669709603765,"trial":32,"RT":965,"MT":641,"sideResp":1,"stimulus":[],"xmouse":[807,807,807,807,807,807,807,807,807,807,807,807,807,807,807,807,807,807,807,807,807,807,807,807,807,807,807,807,807,807,807,807,807,807,807,807,807,807,807,807,807,807,807,807,807,807,807,807,807,798,788,779,769,762,754,749,743,729,723,679,663,658,651,646,634,631,627,618,603,582,548,546,544,542,541,537,535,533,531,527,519],"ymouse":[619,619,619,619,619,619,619,619,619,619,619,619,619,619,619,619,619,619,619,619,619,619,619,619,619,619,619,619,619,619,619,619,619,619,619,619,619,619,619,619,619,619,619,619,619,619,607,581,546,441,386,328,266,227,166,132,96,47,25,0,0,0,0,0,0,0,0,0,0,0,0,0,0,2,3,6,8,10,12,15,24],"timestamp_mouse":[7,26,45,65,86,106,126,145,166,185,206,227,245,266,285,305,326,345,365,385,406,425,445,465,485,505,525,546,566,586,605,626,646,666,685,705,725,745,765,786,805,825,845,865,886,905,925,945,965,985,1005,1025,1045,1065,1085,1105,1125,1146,1165,1185,1208,1225,1245,1265,1286,1305,1325,1346,1365,1386,1405,1426,1446,1466,1486,1505,1526,1546,1565,1586,1606],"xSR":741.5,"ySR":573.95,"xT1":424.9,"yT1":0,"xT2":1058.1,"yT2":0,"toosoon":0,"cond_shown":"Congruent","ratio_trial":200,"L_num":16,"L_den":30,"R_num":9,"R_den":27,"correct_side":1,"subjID":"nathaliamendezrueda27","gender":"1","school":"6","age":"12"},{"start_time":1551882541476,"click_time":1551882542642,"finger_time":1551882542362,"fix_duration":1313.7951842400817,"trial":33,"RT":886,"MT":280,"sideResp":1,"stimulus":[],"xmouse":[781,781,781,781,781,781,781,781,781,781,781,781,781,781,781,781,781,781,781,781,781,781,781,781,781,781,781,781,781,781,781,781,781,781,781,781,781,781,781,781,781,781,775,759,751,696,673,643,607,571,527,515,508,506,506,506,506,506,505],"ymouse":[660,660,660,660,660,660,660,660,660,660,660,660,660,66