[{"start_time":1551881552916,"click_time":1551881555139,"finger_time":1551881552920,"fix_duration":1213.6585881555277,"trial":0,"RT":4,"MT":2219,"sideResp":1,"stimulus":"img/900/equaldotsize/L/8_Ratio_900_L_20_R_18.png","xmouse":[534,534,534,534,534,534,534,534,534,534,534,534,534,534,534,534,534,534,534,534,534,534,534,534,534,534,534,534,534,534,534,534,534,534,534,534,534,534,534,534,534,534,534,534,534,534,534,534,534,534,534,534,534,534,534,534,534,534,534,534,534,534,534,534,534,534,534,534,534,534,534,534,534,534,534,534,534,534,534,534,534,534,534,534,534,534,534,534,534,534,534,534,534,534,534,534,534,534,534,534,534,534,534,534,534,534,534,532,505,474,437,358],"ymouse":[505,505,505,505,505,505,505,505,505,505,505,505,505,505,505,505,505,505,505,505,505,505,505,505,505,505,505,505,505,505,505,505,505,505,505,505,505,505,505,505,505,505,505,505,505,505,505,505,505,505,505,505,505,505,505,505,505,505,505,505,505,505,505,505,505,505,505,505,505,505,505,505,505,505,505,505,505,505,505,505,505,505,505,505,505,505,505,505,505,505,505,505,505,505,505,505,505,505,505,505,505,505,505,505,505,505,504,498,325,198,104,20],"timestamp_mouse":[4,23,44,63,82,103,124,144,163,184,202,223,244,264,283,302,322,343,363,383,403,423,442,463,483,503,523,544,563,583,604,623,643,664,682,702,723,743,764,783,804,823,842,862,883,903,924,944,963,983,1004,1023,1044,1063,1083,1104,1122,1143,1163,1183,1204,1223,1243,1263,1282,1303,1324,1343,1364,1382,1403,1423,1444,1464,1484,1504,1523,1544,1563,1583,1603,1623,1644,1663,1683,1704,1723,1744,1764,1782,1802,1823,1843,1863,1883,1902,1922,1943,1963,1983,2004,2023,2043,2063,2083,2102,2124,2143,2163,2183,2203,2223],"xSR":458.5,"ySR":477.75,"xT1":255.09999999999997,"yT1":0,"xT2":661.9,"yT2":0,"toosoon":0,"cond_shown":"equaldotsize","ratio_trial":900,"smaller_num":"18","larger_num":"20","correct_side":1,"subjID":"nathaliamendezrueda27","gender":"1","age":"12","school":"6","test":{"fix_dur":[250,1500],"timestim":300,"targets_dim":[100,100],"targets_relative_coord":[0.3,0.7],"size_stim":[880,420],"start_dim":[100,100],"size_start":[300,300],"size_fix":60,"samplingrate":20,"img_types":["equaldotsize","equaldotanddens","randomdotsizeEA"],"ratios":[250,500,750,900],"rep_conds":9,"nTrials":120,"trials_to_rest":500,"Trials_order":[9,72,34,67,1,0,20,111,102,74,85,41,54,12,38,105,62,25,36,23,4,106,98,79,107,5,61,60,90,11,103,17,53,117,22,14,21,16,13,63,70,24,89,108,48,93,46,8,73,7,57,91,104,6,49,3,88,30,84,115,45,69,99,83,56,118,26,114,42,35,116,2,68,58,66,81,10,47,28,64,39,15,97,92,80,51,52,71,110,113,86,109,40,95,75,77,82,101,87,44,76,96,33,32,119,59,94,78,112,43,55,50,100,37,27,65,19,29,18,31],"cond_shown":["equaldotsize","equaldotsize","equaldotanddens","equaldotanddens","equaldotanddens","equaldotsize","randomdotsizeEA","equaldotsize","equaldotsize","randomdotsizeEA","equaldotanddens","randomdotsizeEA","equaldotsize","equaldotsize","randomdotsizeEA","equaldotsize","randomdotsizeEA","equaldotanddens","equaldotsize","randomdotsizeEA","equaldotanddens","equaldotanddens","randomdotsizeEA","equaldotanddens","randomdotsizeEA","randomdotsizeEA","equaldotanddens","equaldotsize","equaldotsize","randomdotsizeEA","equaldotanddens","randomdotsizeEA","randomdotsizeEA","equaldotsize","equaldotanddens","randomdotsizeEA","equaldotsize","equaldotanddens","equaldotanddens","equaldotsize","equaldotanddens","equaldotsize","randomdotsizeEA","equaldotsize","equaldotsize","equaldotsize","equaldotanddens","randomdotsizeEA","equaldotanddens","equaldotanddens","equaldotsize","equaldotanddens","randomdotsizeEA","equaldotsize","equaldotanddens","equaldotsize","equaldotanddens","equaldotsize","equaldotsize","equaldotanddens","equaldotsize","equaldotsize","equaldotsize","randomdotsizeEA","randomdotsizeEA","equaldotanddens","randomdotsizeEA","equaldotsize","equaldotsize","randomdotsizeEA","randomdotsizeEA","randomdotsizeEA","randomdotsizeEA","equaldotanddens","equaldotsize","equaldotsize","equaldotanddens","randomdotsizeEA","equaldotanddens","equaldotanddens","equaldotsize","equaldotsize","equaldotanddens","randomdotsizeEA","randomdotsizeEA","equaldotsize","equaldotanddens","randomdotsizeEA","randomdotsizeEA","randomdotsizeEA","randomdotsizeEA","equaldotanddens","equaldotanddens","randomdotsizeEA","equaldotsize","randomdotsizeEA","equaldotanddens","randomdotsizeEA","equaldotsize","randomdotsizeEA","equaldotanddens","equaldotsize","equaldotsize","randomdotsizeEA","randomdotsizeEA","randomdotsizeEA","equaldotanddens","equaldotsize","equaldotanddens","equaldotanddens","equaldotanddens","randomdotsizeEA","equaldotanddens","equaldotanddens","equaldotsize","randomdotsizeEA","equaldotanddens","randomdotsizeEA","equaldotsize","equaldotanddens"],"ratio_trial":[900,250,900,750,250,250,750,500,750,250,250,500,750,250,250,900,250,250,250,900,500,900,250,750,900,500,250,250,750,900,750,500,500,900,900,250,900,500,250,500,900,250,500,250,250,900,900,750,250,750,900,750,750,750,250,500,500,750,250,750,900,900,500,900,750,900,250,750,750,900,750,250,750,900,750,900,900,900,500,500,500,500,250,750,750,500,500,900,250,500,250,250,500,900,500,500,900,500,500,750,500,250,900,750,900,900,900,750,500,750,750,250,500,250,500,500,750,500,750,750],"smaller_num":["18","2","18","3","2","6","3","6","6","3","3","1","15","2","2","18","3","5","2","18","1","9","3","6","18","9","3","6","6","9","3","10","9","18","18","2","9","6","6","10","18","6","5","3","3","9","18","9","4","3","9","3","3","9","1","1","3","3","2","18","9","18","6","18","3","9","4","6","18","18","6","1","3","18","12","18","18","18","5","2","2","9","3","15","3","6","2","18","2","9","5","2","2","18","1","9","9","1","6","3","9","5","9","15","9","18","9","12","3","15","6","2","2","1","2","4","3","3","3","6"],"larger_num":["20","8","20","4","8","24","4","12","8","12","12","2","20","8","8","20","12","20","8","20","2","10","12","8","20","18","12","24","8","10","4","20","18","20","20","8","10","12","24","20","20","24","10","12","12","10","20","12","16","4","10","4","4","12","4","2","6","4","8","24","10","20","12","20","4","10","16","8","24","20","8","4","4","20","16","20","20","20","10","4","4","18","12","20","4","12","4","20","8","18","20","8","4","20","2","18","10","2","12","4","18","20","10","20","10","20","10","16","6","20","8","8","4","4","4","8","4","6","4","8"],"correct_side":[1,1,1,2,1,2,2,1,2,2,2,2,2,2,1,2,1,2,2,1,2,1,2,1,1,1,1,2,1,2,1,2,2,2,2,2,2,1,2,2,1,1,1,2,2,1,2,2,2,1,2,2,1,2,2,2,2,1,1,1,1,1,1,2,2,2,2,1,1,1,1,2,2,2,2,1,2,1,2,1,1,2,1,2,2,1,2,2,2,2,2,1,1,2,2,2,2,2,1,2,1,2,2,2,2,1,2,2,2,2,1,1,2,2,1,1,2,2,1,1],"img_shown":["img/900/equaldotsize/L/8_Ratio_900_L_20_R_18.png","img/250/equaldotsize/L/3_Ratio_250_L_8_R_2.png","img/900/equaldotanddens/L/10_Ratio_900_L_20_R_18.png","img/750/equaldotanddens/R/7_Ratio_750_L_3_R_4.png","img/250/equaldotanddens/L/3_Ratio_250_L_8_R_2.png","img/250/equaldotsize/R/6_Ratio_250_L_6_R_24.png","img/750/randomdotsizeEA/R/12_Ratio_750_L_3_R_4.png","img/500/equaldotsize/L/11_Ratio_500_L_12_R_6.png","img/750/equaldotsize/R/2_Ratio_750_L_6_R_8.png","img/250/randomdotsizeEA/R/4_Ratio_250_L_3_R_12.png","img/250/equaldotanddens/R/11_Ratio_250_L_3_R_12.png","img/500/randomdotsizeEA/R/15_Ratio_500_L_1_R_2.png","img/750/equaldotsize/R/5_Ratio_750_L_15_R_20.png","img/250/equaldotsize/R/13_Ratio_250_L_2_R_8.png","img/250/randomdotsizeEA/L/7_Ratio_250_L_8_R_2.png","img/900/equaldotsize/R/9_Ratio_900_L_18_R_20.png","img/250/randomdotsizeEA/L/15_Ratio_250_L_12_R_3.png","img/250/equaldotanddens/R/12_Ratio_250_L_5_R_20.png","img/250/equaldotsize/R/13_Ratio_250_L_2_R_8.png","img/900/randomdotsizeEA/L/4_Ratio_900_L_20_R_18.png","img/500/equaldotanddens/R/15_Ratio_500_L_1_R_2.png","img/900/equaldotanddens/L/1_Ratio_900_L_10_R_9.png","img/250/randomdotsizeEA/R/4_Ratio_250_L_3_R_12.png","img/750/equaldotanddens/L/13_Ratio_750_L_8_R_6.png","img/900/randomdotsizeEA/L/4_Ratio_900_L_20_R_18.png","img/500/randomdotsizeEA/L/4_Ratio_500_L_18_R_9.png","img/250/equaldotanddens/L/15_Ratio_250_L_12_R_3.png","img/250/equaldotsize/R/6_Ratio_250_L_6_R_24.png","img/750/equaldotsize/L/14_Ratio_750_L_8_R_6.png","img/900/randomdotsizeEA/R/15_Ratio_900_L_9_R_10.png","img/750/equaldotanddens/L/8_Ratio_750_L_4_R_3.png","img/500/randomdotsizeEA/R/3_Ratio_500_L_10_R_20.png","img/500/randomdotsizeEA/R/1_Ratio_500_L_9_R_18.png","img/900/equaldotsize/R/14_Ratio_900_L_18_R_20.png","img/900/equaldotanddens/R/11_Ratio_900_L_18_R_20.png","img/250/randomdotsizeEA/R/13_Ratio_250_L_2_R_8.png","img/900/equaldotsize/R/5_Ratio_900_L_9_R_10.png","img/500/equaldotanddens/L/13_Ratio_500_L_12_R_6.png","img/250/equaldotanddens/R/6_Ratio_250_L_6_R_24.png","img/500/equaldotsize/R/3_Ratio_500_L_10_R_20.png","img/900/equaldotanddens/L/8_Ratio_900_L_20_R_18.png","img/250/equaldotsize/L/5_Ratio_250_L_24_R_6.png","img/500/randomdotsizeEA/L/7_Ratio_500_L_10_R_5.png","img/250/equaldotsize/R/4_Ratio_250_L_3_R_12.png","img/250/equaldotsize/R/4_Ratio_250_L_3_R_12.png","img/900/equaldotsize/L/1_Ratio_900_L_10_R_9.png","img/900/equaldotanddens/R/9_Ratio_900_L_18_R_20.png","img/750/randomdotsizeEA/R/15_Ratio_750_L_9_R_12.png","img/250/equaldotanddens/R/10_Ratio_250_L_4_R_16.png","img/750/equaldotanddens/L/8_Ratio_750_L_4_R_3.png","img/900/equaldotsize/R/5_Ratio_900_L_9_R_10.png","img/750/equaldotanddens/R/7_Ratio_750_L_3_R_4.png","img/750/randomdotsizeEA/L/9_Ratio_750_L_4_R_3.png","img/750/equaldotsize/R/15_Ratio_750_L_9_R_12.png","img/250/equaldotanddens/R/8_Ratio_250_L_1_R_4.png","img/500/equaldotsize/R/12_Ratio_500_L_1_R_2.png","img/500/equaldotanddens/R/2_Ratio_500_L_3_R_6.png","img/750/equaldotsize/L/10_Ratio_750_L_4_R_3.png","img/250/equaldotsize/L/3_Ratio_250_L_8_R_2.png","img/750/equaldotanddens/L/6_Ratio_750_L_24_R_18.png","img/900/equaldotsize/L/1_Ratio_900_L_10_R_9.png","img/900/equaldotsize/L/2_Ratio_900_L_20_R_18.png","img/500/equaldotsize/L/11_Ratio_500_L_12_R_6.png","img/900/randomdotsizeEA/R/11_Ratio_900_L_18_R_20.png","img/750/randomdotsizeEA/R/12_Ratio_750_L_3_R_4.png","img/900/equaldotanddens/R/7_Ratio_900_L_9_R_10.png","img/250/randomdotsizeEA/R/10_Ratio_250_L_4_R_16.png","img/750/equaldotsize/L/14_Ratio_750_L_8_R_6.png","img/750/equaldotsize/L/6_Ratio_750_L_24_R_18.png","img/900/randomdotsizeEA/L/4_Ratio_900_L_20_R_18.png","img/750/randomdotsizeEA/L/14_Ratio_750_L_8_R_6.png","img/250/randomdotsizeEA/R/8_Ratio_250_L_1_R_4.png","img/750/randomdotsizeEA/R/7_Ratio_750_L_3_R_4.png","img/900/equaldotanddens/R/13_Ratio_900_L_18_R_20.png","img/750/equaldotsize/R/11_Ratio_750_L_12_R_16.png","img/900/equaldotsize/L/10_Ratio_900_L_20_R_18.png","img/900/equaldotanddens/R/12_Ratio_900_L_18_R_20.png","img/900/randomdotsizeEA/L/10_Ratio_900_L_20_R_18.png","img/500/equaldotanddens/R/14_Ratio_500_L_5_R_10.png","img/500/equaldotanddens/L/10_Ratio_500_L_4_R_2.png","img/500/equaldotsize/L/10_Ratio_500_L_4_R_2.png","img/500/equaldotsize/R/1_Ratio_500_L_9_R_18.png","img/250/equaldotanddens/L/15_Ratio_250_L_12_R_3.png","img/750/randomdotsizeEA/R/3_Ratio_750_L_15_R_20.png","img/750/randomdotsizeEA/R/12_Ratio_750_L_3_R_4.png","img/500/equaldotsize/L/11_Ratio_500_L_12_R_6.png","img/500/equaldotanddens/R/9_Ratio_500_L_2_R_4.png","img/900/randomdotsizeEA/R/9_Ratio_900_L_18_R_20.png","img/250/randomdotsizeEA/R/13_Ratio_250_L_2_R_8.png","img/500/randomdotsizeEA/R/1_Ratio_500_L_9_R_18.png","img/250/randomdotsizeEA/R/12_Ratio_250_L_5_R_20.png","img/250/equaldotanddens/L/3_Ratio_250_L_8_R_2.png","img/500/equaldotanddens/L/10_Ratio_500_L_4_R_2.png","img/900/randomdotsizeEA/R/13_Ratio_900_L_18_R_20.png","img/500/equaldotsize/R/12_Ratio_500_L_1_R_2.png","img/500/randomdotsizeEA/R/1_Ratio_500_L_9_R_18.png","img/900/equaldotanddens/R/15_Ratio_900_L_9_R_10.png","img/500/randomdotsizeEA/R/12_Ratio_500_L_1_R_2.png","img/500/equaldotsize/L/11_Ratio_500_L_12_R_6.png","img/750/randomdotsizeEA/R/12_Ratio_750_L_3_R_4.png","img/500/equaldotanddens/L/4_Ratio_500_L_18_R_9.png","img/250/equaldotsize/R/12_Ratio_250_L_5_R_20.png","img/900/equaldotsize/R/6_Ratio_900_L_9_R_10.png","img/750/randomdotsizeEA/R/5_Ratio_750_L_15_R_20.png","img/900/randomdotsizeEA/R/6_Ratio_900_L_9_R_10.png","img/900/randomdotsizeEA/L/4_Ratio_900_L_20_R_18.png","img/900/equaldotanddens/R/3_Ratio_900_L_9_R_10.png","img/750/equaldotsize/R/11_Ratio_750_L_12_R_16.png","img/500/equaldotanddens/R/2_Ratio_500_L_3_R_6.png","img/750/equaldotanddens/R/4_Ratio_750_L_15_R_20.png","img/750/equaldotanddens/L/14_Ratio_750_L_8_R_6.png","img/250/randomdotsizeEA/L/1_Ratio_250_L_8_R_2.png","img/500/equaldotanddens/R/9_Ratio_500_L_2_R_4.png","img/250/equaldotanddens/R/8_Ratio_250_L_1_R_4.png","img/500/equaldotsize/L/10_Ratio_500_L_4_R_2.png","img/500/randomdotsizeEA/L/8_Ratio_500_L_8_R_4.png","img/750/equaldotanddens/R/7_Ratio_750_L_3_R_4.png","img/500/randomdotsizeEA/R/2_Ratio_500_L_3_R_6.png","img/750/equaldotsize/L/9_Ratio_750_L_4_R_3.png","img/750/equaldotanddens/L/13_Ratio_750_L_8_R_6.png"],"Rat0":[["12_Ratio_0_L_9_R_0.png","13_Ratio_0_L_6_R_0.png","5_Ratio_0_L_2_R_0.png","6_Ratio_0_L_4_R_0.png","8_Ratio_0_L_6_R_0.png"],["1_Ratio_0_L_0_R_17.png","10_Ratio_0_L_0_R_22.png","11_Ratio_0_L_0_R_1.png","14_Ratio_0_L_0_R_24.png","15_Ratio_0_L_0_R_4.png","2_Ratio_0_L_0_R_5.png","3_Ratio_0_L_0_R_17.png","4_Ratio_0_L_0_R_7.png","7_Ratio_0_L_0_R_19.png","9_Ratio_0_L_0_R_15.png"]],"Rat250":[["1_Ratio_250_L_8_R_2.png","14_Ratio_250_L_12_R_3.png","15_Ratio_250_L_12_R_3.png","2_Ratio_250_L_16_R_4.png","3_Ratio_250_L_8_R_2.png","5_Ratio_250_L_24_R_6.png","7_Ratio_250_L_8_R_2.png"],["10_Ratio_250_L_4_R_16.png","11_Ratio_250_L_3_R_12.png","12_Ratio_250_L_5_R_20.png","13_Ratio_250_L_2_R_8.png","4_Ratio_250_L_3_R_12.png","6_Ratio_250_L_6_R_24.png","8_Ratio_250_L_1_R_4.png","9_Ratio_250_L_3_R_12.png"]],"Rat500":[["10_Ratio_500_L_4_R_2.png","11_Ratio_500_L_12_R_6.png","13_Ratio_500_L_12_R_6.png","4_Ratio_500_L_18_R_9.png","5_Ratio_500_L_4_R_2.png","7_Ratio_500_L_10_R_5.png","8_Ratio_500_L_8_R_4.png"],["1_Ratio_500_L_9_R_18.png","12_Ratio_500_L_1_R_2.png","14_Ratio_500_L_5_R_10.png","15_Ratio_500_L_1_R_2.png","2_Ratio_500_L_3_R_6.png","3_Ratio_500_L_10_R_20.png","6_Ratio_500_L_9_R_18.png","9_Ratio_500_L_2_R_4.png"]],"Rat750":[["1_Ratio_750_L_20_R_15.png","10_Ratio_750_L_4_R_3.png","13_Ratio_750_L_8_R_6.png","14_Ratio_750_L_8_R_6.png","6_Ratio_750_L_24_R_18.png","8_Ratio_750_L_4_R_3.png","9_Ratio_750_L_4_R_3.png"],["11_Ratio_750_L_12_R_16.png","12_Ratio_750_L_3_R_4.png","15_Ratio_750_L_9_R_12.png","2_Ratio_750_L_6_R_8.png","3_Ratio_750_L_15_R_20.png","4_Ratio_750_L_15_R_20.png","5_Ratio_750_L_15_R_20.png","7_Ratio_750_L_3_R_4.png"]],"Rat900":[["1_Ratio_900_L_10_R_9.png","10_Ratio_900_L_20_R_18.png","2_Ratio_900_L_20_R_18.png","4_Ratio_900_L_20_R_18.png","8_Ratio_900_L_20_R_18.png"],["11_Ratio_900_L_18_R_20.png","12_Ratio_900_L_18_R_20.png","13_Ratio_900_L_18_R_20.png","14_Ratio_900_L_18_R_20.png","15_Ratio_900_L_9_R_10.png","3_Ratio_900_L_9_R_10.png","5_Ratio_900_L_9_R_10.png","6_Ratio_900_L_9_R_10.png","7_Ratio_900_L_9_R_10.png","9_Ratio_900_L_18_R_20.png"]],"Rat1000":[["10_Ratio_1000_L_16_R_16.png","11_Ratio_1000_L_6_R_6.png","12_Ratio_1000_L_14_R_14.png","13_Ratio_1000_L_20_R_20.png","15_Ratio_1000_L_15_R_15.png","2_Ratio_1000_L_17_R_17.png","4_Ratio_1000_L_9_R_9.png","5_Ratio_1000_L_6_R_6.png","6_Ratio_1000_L_19_R_19.png","8_Ratio_1000_L_14_R_14.png","9_Ratio_1000_L_25_R_25.png"],["1_Ratio_1000_L_1_R_1.png","14_Ratio_1000_L_17_R_17.png","3_Ratio_1000_L_17_R_17.png","7_Ratio_1000_L_6_R_6.png"]]}},{"start_time":1551881564799,"click_time":1551881571999,"finger_time":1551881568839,"fix_duration":999.1313020079886,"trial":1,"RT":4040,"MT":3160,"sideResp":1,"stimulus":"img/250/equaldotsize/L/3_Ratio_250_L_8_R_2.png","xmouse":[592,592,592,592,592,592,592,592,592,592,592,592,592,592,592,592,592,592,592,592,592,592,592,592,592,592,592,592,592,592,592,592,592,592,592,592,592,592,592,592,592,592,592,592,592,592,592,592,592,592,592,592,592,592,592,592,592,592,592,592,592,592,592,592,592,592,592,592,592,592,592,592,592,592,592,592,592,592,592,592,592,592,592,592,592,592,592,592,592,592,592,592,592,592,592,592,592,592,592,592,592,592,592,592,592,592,592,592,592,592,592,592,592,592,592,592,592,592,592,592,592,592,592,592,592,592,592,592,592,592,592,592,592,592,592,592,592,592,592,592,592,592,592,592,592,592,592,592,592,592,592,592,592,592,592,592,592,592,592,592,592,592,592,592,592,592,592,592,592,592,592,592,592,592,592,592,592,592,592,592,592,592,592,592,592,592,592,592,592,592,592,592,592,592,592,592,592,592,592,592,592,622,669,722,732,737,736,735,732,732,732,732,732,732,732,728,722,709,699,696,694,692,687,670,662,657,654,648,642,642,642,642,642,642,642,642,642,642,642,642,642,642,642,642,642,642,642,642,642,642,642,642,642,642,642,642,642,642,642,642,642,642,642,642,642,642,642,642,642,642,642,642,642,642,642,642,642,642,642,642,642,642,642,642,642,642,642,642,642,642,642,642,642,642,642,642,642,642,642,642,642,642,642,642,642,642,642,642,642,642,642,642,642,642,642,642,642,642,642,642,642,642,642,642,642,642,642,642,642,642,642,642,642,642,642,642,642,642,634,592,528,476,457,447,447,449,451,451,449,448,450,451,451,451,451,451,450,450,439,423],"ymouse":[405,405,405,405,405,405,405,405,405,405,405,405,405,405,405,405,405,405,405,405,405,405,405,405,405,405,405,405,405,405,405,405,405,405,405,405,405,405,405,405,405,405,405,405,405,405,405,405,405,405,405,405,405,405,405,405,405,405,405,405,405,405,405,405,405,405,405,405,405,405,405,405,405,405,405,405,405,405,405,405,405,405,405,405,405,405,405,405,405,405,405,405,405,405,405,405,405,405,405,405,405,405,405,405,405,405,405,405,405,405,405,405,405,405,405,405,405,405,405,405,405,405,405,405,405,405,405,405,405,405,405,405,405,405,405,405,405,405,405,405,405,405,405,405,405,405,405,405,405,405,405,405,405,405,405,405,405,405,405,405,405,405,405,405,405,405,405,405,405,405,405,405,405,405,405,405,405,405,405,405,405,405,405,405,405,405,405,405,405,405,405,405,405,405,405,405,405,405,405,405,404,363,312,292,300,307,312,314,323,331,332,334,335,344,349,357,369,390,412,418,422,424,433,452,460,464,466,470,472,472,472,472,472,472,472,472,472,472,472,472,472,472,472,472,472,472,472,472,472,472,472,472,472,472,472,472,472,472,472,472,472,472,472,472,472,472,472,472,472,472,472,472,472,472,472,472,472,472,472,472,472,472,472,472,472,472,472,472,472,472,472,472,472,472,472,472,472,472,472,472,472,472,472,472,472,472,472,472,472,472,472,472,472,472,472,472,472,472,472,472,472,472,472,472,472,472,472,472,472,472,472,472,472,472,472,472,472,472,468,431,374,320,262,168,136,108,89,72,35,19,13,12,12,12,12,12,12,12,26,43],"timestamp_mouse":[20,51,59,80,100,120,139,161,181,199,220,240,260,281,299,321,341,360,380,400,420,439,459,480,500,520,540,560,580,599,620,639,660,679,700,720,739,760,780,800,820,840,861,880,899,920,941,959,981,1001,1020,1039,1060,1079,1099,1121,1141,1159,1181,1201,1221,1239,1261,1280,1301,1320,1339,1360,1380,1399,1421,1441,1460,1479,1501,1521,1541,1561,1580,1600,1621,1640,1660,1681,1701,1721,1741,1760,1780,1800,1821,1841,1859,1880,1900,1920,1941,1960,1981,2001,2019,2040,2059,2081,2101,2121,2139,2160,2179,2200,2220,2240,2260,2280,2299,2320,2341,2359,2381,2399,2419,2440,2459,2481,2500,2519,2540,2561,2580,2601,2619,2639,2661,2680,2700,2719,2740,2759,2779,2801,2819,2841,2859,2880,2900,2921,2940,2959,2980,3000,3021,3041,3060,3079,3100,3119,3140,3160,3180,3201,3220,3241,3261,3280,3301,3321,3339,3361,3380,3399,3420,3439,3460,3480,3500,3520,3539,3561,3579,3600,3620,3639,3659,3680,3701,3719,3740,3761,3781,3801,3821,3840,3861,3880,3901,3919,3941,3961,3980,4001,4019,4040,4060,4080,4100,4120,4139,4160,4180,4199,4220,4240,4260,4280,4299,4320,4340,4361,4380,4400,4419,4440,4461,4480,4500,4521,4539,4561,4579,4600,4621,4641,4659,4680,4701,4719,4740,4760,4781,4800,4821,4839,4860,4880,4900,4921,4940,4961,4980,5000,5021,5040,5059,5079,5100,5121,5140,5161,5180,5199,5221,5240,5261,5280,5300,5321,5341,5360,5381,5400,5420,5441,5459,5481,5501,5520,5540,5560,5580,5601,5619,5640,5661,5680,5700,5719,5740,5761,5780,5801,5820,5841,5860,5880,5901,5920,5941,5961,5980,6000,6020,6041,6059,6080,6100,6119,6140,6161,6181,6200,6220,6240,6261,6280,6301,6321,6339,6360,6380,6400,6419,6440,6460,6480,6501,6521,6541,6561,6580,6600,6619,6639,6661,6679,6701,6721,6739,6760,6779,6799,6820,6840,6859,6879,6899,6920,6940,6959,6980,7001,7020,7040,7060,7081,7100,7120,7140,7159,7180,7200],"xSR":583.2000122070312,"ySR":401.440023803711,"xT1":329.9200073242187,"yT1":0,"xT2":836.4800170898437,"yT2":0,"toosoon":0,"cond_shown":"equaldotsize","ratio_trial":250,"smaller_num":"2","larger_num":"8","correct_side":1,"subjID":"nathaliamendezrueda27","gender":"1","age":"12","school":"6"},{"start_time":1551881574330,"click_time":1551881580198,"finger_time":1551881574839,"fix_duration":1128.5691102378607,"trial":2,"RT":509,"MT":5359,"sideResp":2,"stimulus":"img/900/equaldotanddens/L/10_Ratio_900_L_20_R_18.png","xmouse":[634,633,633,633,633,633,633,633,633,633,633,633,633,633,633,633,633,633,633,633,631,628,616,608,601,600,600,600,600,600,600,600,600,600,600,600,600,600,607,621,628,632,638,645,649,655,658,660,660,660,660,660,660,660,660,660,659,655,654,653,653,653,653,653,653,653,653,653,653,653,652,651,644,637,632,629,628,628,628,628,628,628,628,628,628,628,628,628,628,628,628,628,628,628,628,628,628,628,628,628,628,628,628,628,628,628,628,628,628,628,628,628,628,628,628,628,628,628,628,628,628,628,628,628,628,628,628,628,628,628,628,628,628,628,628,628,628,628,628,628,628,628,628,628,628,628,628,628,628,628,628,628,628,628,628,628,628,628,628,628,628,628,628,628,628,628,628,628,628,628,628,628,628,628,628,628,628,628,628,628,628,628,628,628,628,628,628,628,628,628,628,628,628,628,628,628,628,628,628,628,628,628,628,628,628,628,628,628,628,628,628,628,628,628,628,628,628,628,628,628,628,628,628,628,628,628,628,628,628,628,628,628,628,628,628,628,628,628,628,628,628,628,626,620,544,494,481,481,480,482,484,488,500,522,542,564,597,669,704,732,756,775,838,884,924,965,999,1024,1024,1024,1024,1024,1024,1024,1024,1024,1024,1024,1024,1024,969,955,942,940,940,940,940,940,940,940,940,939,939,936],"ymouse":[450,449,449,449,449,449,449,449,449,449,449,449,449,449,449,449,449,449,449,449,446,443,424,412,403,400,400,400,400,400,400,400,400,400,400,400,400,412,444,494,520,528,529,517,508,496,491,489,489,489,489,489,488,484,480,476,472,461,457,456,455,454,454,454,454,454,454,454,454,454,454,454,454,454,454,455,455,455,455,455,455,455,455,455,455,455,455,455,455,455,455,455,455,455,455,455,455,455,455,455,455,455,455,455,455,455,455,455,455,455,455,455,455,455,455,455,455,455,455,455,455,455,455,455,455,455,455,455,455,455,455,455,455,455,455,455,455,455,455,455,455,455,455,455,455,455,455,455,455,455,455,455,455,455,455,455,455,455,455,455,455,455,455,455,455,455,455,455,455,455,455,455,455,455,455,455,455,455,455,455,455,455,455,455,455,455,455,455,455,455,455,455,455,455,455,455,455,455,455,455,455,455,455,455,455,455,455,455,455,455,455,455,455,455,455,455,455,455,455,455,455,455,455,455,455,455,455,455,455,455,455,455,455,455,455,455,455,455,455,455,455,455,453,452,451,452,453,453,453,451,449,446,437,421,407,391,368,328,314,300,291,279,222,168,127,84,43,9,9,9,9,9,9,9,9,9,9,9,9,9,12,28,43,44,44,44,44,44,44,44,44,44,45,48],"timestamp_mouse":[9,28,48,70,90,110,128,150,170,190,208,228,249,270,288,309,329,350,369,389,409,430,449,469,489,509,529,549,569,589,610,628,649,669,689,709,728,749,769,789,809,830,849,869,889,908,928,949,968,989,1010,1028,1049,1068,1089,1110,1130,1148,1169,1190,1210,1230,1249,1269,1289,1310,1328,1350,1370,1388,1409,1429,1448,1469,1489,1508,1530,1549,1569,1589,1609,1630,1650,1669,1690,1708,1730,1748,1769,1789,1810,1828,1850,1869,1890,1909,1930,1950,1969,1988,2010,2029,2050,2069,2089,2109,2130,2149,2169,2190,2208,2230,2249,2269,2289,2310,2328,2349,2370,2389,2409,2429,2448,2470,2490,2509,2529,2548,2569,2589,2610,2629,2650,2670,2689,2709,2728,2749,2769,2790,2809,2829,2850,2869,2889,2909,2930,2949,2968,2989,3009,3030,3049,3068,3090,3109,3129,3149,3170,3189,3210,3230,3249,3270,3289,3308,3329,3349,3370,3389,3409,3429,3450,3470,3489,3508,3530,3549,3568,3589,3609,3629,3649,3670,3690,3710,3730,3749,3769,3790,3810,3830,3850,3870,3889,3910,3930,3948,3970,3989,4009,4029,4050,4070,4089,4109,4129,4149,4169,4188,4210,4230,4249,4269,4289,4310,4330,4349,4369,4390,4410,4430,4450,4469,4490,4509,4530,4549,4568,4589,4609,4629,4649,4669,4690,4710,4729,4749,4769,4788,4810,4829,4849,4868,4888,4909,4930,4949,4969,4990,5009,5028,5049,5068,5089,5109,5129,5148,5170,5189,5209,5228,5249,5269,5289,5310,5329,5349,5369,5389,5408,5430,5449,5469,5489,5510,5529,5549,5569,5589,5610,5629,5649,5668,5688,5709,5728,5750,5769,5789,5810,5830,5848,5868],"xSR":583.2000122070312,"ySR":401.440023803711,"xT1":329.9200073242187,"yT1":0,"xT2":836.4800170898437,"yT2":0,"toosoon":0,"cond_shown":"equaldotanddens","ratio_trial":900,"smaller_num":"18","larger_num":"20","correct_side":1,"subjID":"nathaliamendezrueda27","gender":"1","age":"12","school":"6"},{"start_time":1551881584730,"click_time":1551881586300,"finger_time":1551881585979,"fix_duration":250,"trial":3,"RT":1249,"MT":321,"sideResp":2,"stimulus":"img/750/equaldotanddens/R/7_Ratio_750_L_3_R_4.png","xmouse":[649,649,649,649,649,649,649,649,649,649,649,649,649,649,649,649,649,649,649,649,649,649,649,649,649,649,649,649,649,649,649,649,649,649,649,649,649,649,649,649,649,649,649,649,649,649,649,649,649,649,649,649,649,649,649,649,649,649,649,649,650,652,762,867,904,937,967,983,983,983,983,983,983,983,983,983,983,983,925],"ymouse":[432,432,432,432,432,432,432,432,432,432,432,432,432,432,432,432,432,432,432,432,432,432,432,432,432,432,432,432,432,432,432,432,432,432,432,432,432,432,432,432,432,432,432,432,432,432,432,432,432,432,432,432,432,432,432,432,432,432,432,432,431,428,349,265,218,162,89,19,19,19,19,19,19,19,19,19,19,19,32],"timestamp_mouse":[8,31,48,69,90,109,130,150,168,189,209,230,250,269,289,310,329,349,369,390,409,428,449,469,490,510,530,548,569,589,608,629,649,670,689,709,729,748,770,789,809,830,849,868,890,908,929,949,969,989,1009,1029,1050,1068,1090,1110,1128,1150,1170,1188,1209,1230,1249,1268,1289,1309,1328,1349,1368,1388,1409,1430,1449,1469,1488,1508,1528,1548,1570],"xSR":583.2000122070312,"ySR":401.440023803711,"xT1":329.9200073242187,"yT1":0,"xT2":836.4800170898437,"yT2":0,"toosoon":0,"cond_shown":"equaldotanddens","ratio_trial":750,"smaller_num":"3","larger_num":"4","correct_side":2,"subjID":"nathaliamendezrueda27","gender":"1","age":"12","school":"6"},{"start_time":1551881588931,"click_time":1551881589959,"finger_time":1551881589679,"fix_duration":250,"trial":4,"RT":748,"MT":280,"sideResp":1,"stimulus":"img/250/equaldotanddens/L/3_Ratio_250_L_8_R_2.png","xmouse":[592,592,592,592,592,592,592,592,592,592,592,592,592,592,592,592,592,592,592,592,592,592,592,592,592,592,592,592,592,592,592,592,592,592,592,592,592,543,499,467,467,467,467,467,467,467,467,467,467,467,467,399],"ymouse":[448,448,448,448,448,448,448,448,448,448,448,448,448,448,448,448,448,448,448,448,448,448,448,448,448,448,448,448,448,448,448,448,448,448,448,447,432,250,145,41,41,41,41,41,41,41,41,41,41,41,41,4],"timestamp_mouse":[8,33,48,68,88,108,128,147,169,187,208,229,247,269,288,309,328,349,368,389,408,427,447,469,489,509,528,548,568,587,607,628,648,668,688,708,728,748,768,787,807,827,848,868,888,907,929,947,968,988,1009,1028],"xSR":583.2000122070312,"ySR":401.440023803711,"xT1":329.9200073242187,"yT1":0,"xT2":836.4800170898437,"yT2":0,"toosoon":0,"cond_shown":"equaldotanddens","ratio_trial":250,"smaller_num":"2","larger_num":"8","correct_side":1,"subjID":"nathaliamendezrueda27","gender":"1","age":"12","school":"6"},{"start_time":1551881591947,"click_time":1551881593019,"finger_time":1551881592639,"fix_duration":787.6624330714612,"trial":5,"RT":692,"MT":380,"sideResp":2,"stimulus":"img/250/equaldotsize/R/6_Ratio_250_L_6_R_24.png","xmouse":[661,661,661,661,661,661,661,661,661,661,661,661,661,661,661,661,661,661,661,661,661,661,661,661,661,661,661,661,661,661,661,661,661,664,694,744,872,932,974,986,986,986,986,986,986,986,986,986,986,986,986,986,951,936],"ymouse":[472,472,472,472,472,472,472,472,472,472,472,472,472,472,472,472,472,472,472,472,472,472,472,472,472,472,472,472,472,472,472,472,472,456,405,337,188,112,46,17,17,17,17,17,17,17,17,17,17,17,17,17,28,53],"timestamp_mouse":[12,32,51,72,93,111,133,152,171,192,211,232,252,273,293,313,331,353,371,393,413,432,453,472,493,513,531,552,572,591,613,632,652,671,692,712,732,751,772,793,812,833,852,871,892,912,933,952,971,992,1012,1032,1053,1072],"xSR":583.2000122070312,"ySR":401.440023803711,"xT1":329.9200073242187,"yT1":0,"xT2":836.4800170898437,"yT2":0,"toosoon":0,"cond_shown":"equaldotsize","ratio_trial":250,"smaller_num":"6","larger_num":"24","correct_side":2,"subjID":"nathaliamendezrueda27","gender":"1","age":"12","school":"6"},{"start_time":1551881594470,"click_time":1551881597198,"finger_time":1551881596719,"fix_duration":250,"trial":6,"RT":2249,"MT":479,"sideResp":2,"stimulus":"img/750/randomdotsizeEA/R/12_Ratio_750_L_3_R_4.png","xmouse":[623,623,623,623,623,623,623,623,623,623,623,623,623,623,623,623,623,623,623,623,623,623,623,623,623,623,623,623,623,623,623,623,623,623,623,623,623,623,623,623,623,623,623,623,623,623,623,623,623,623,623,623,623,623,623,623,623,623,623,623,623,623,623,623,623,623,623,623,623,623,623,623,623,623,623,623,623,623,623,623,623,623,623,623,623,623,623,623,623,623,623,623,623,623,623,623,623,623,623,623,623,623,623,623,623,623,623,623,623,627,634,638,643,651,663,700,731,746,758,768,781,788,792,796,800,807,809,810,811,812,817,820,824,828,833,836,837],"ymouse":[427,427,427,427,427,427,427,427,427,427,427,427,427,427,427,427,427,427,427,427,427,427,427,427,427,427,427,427,427,427,427,427,427,427,427,427,427,427,427,427,427,427,427,427,427,427,427,427,427,427,427,427,427,427,427,427,427,427,427,427,427,427,427,427,427,427,427,427,427,427,427,427,427,427,427,427,427,427,427,427,427,427,427,427,427,427,427,427,427,427,427,427,427,427,427,427,427,427,427,427,427,427,427,427,427,427,427,427,427,420,411,405,400,388,371,333,308,292,276,261,234,220,208,194,180,157,147,141,135,128,112,105,99,92,84,78,76],"timestamp_mouse":[9,29,49,68,90,109,129,149,170,190,210,229,250,270,288,309,329,349,368,390,410,428,448,469,490,510,530,548,569,590,609,629,649,669,688,709,729,748,770,788,809,829,850,870,890,908,929,949,969,989,1010,1028,1048,1069,1089,1110,1130,1150,1170,1188,1209,1230,1248,1270,1289,1308,1329,1349,1369,1388,1409,1429,1448,1469,1489,1509,1530,1549,1568,1589,1608,1628,1649,1669,1689,1709,1730,1749,1769,1789,1809,1830,1849,1868,1888,1909,1929,1948,1969,1990,2009,2029,2049,2069,2090,2109,2128,2149,2168,2189,2209,2229,2249,2269,2290,2309,2330,2349,2369,2389,2409,2430,2449,2469,2489,2508,2529,2549,2570,2589,2609,2628,2648,2669,2690,2708,2728],"xSR":583.2000122070312,"ySR":401.440023803711,"xT1":329.9200073242187,"yT1":0,"xT2":836.4800170898437,"yT2":0,"toosoon":0,"cond_shown":"randomdotsizeEA","ratio_trial":750,"smaller_num":"3","larger_num":"4","correct_side":2,"subjID":"nathaliamendezrueda27","gender":"1","age":"12","school":"6"},{"start_time":1551881601570,"click_time":1551881603859,"finger_time":1551881603199,"fix_duration":1309.9090872551712,"trial":7,"RT":1629,"MT":660,"sideResp":1,"stimulus":"img/500/equaldotsize/L/11_Ratio_500_L_12_R_6.png","xmouse":[587,587,587,587,587,587,587,587,587,587,587,587,587,587,587,587,587,587,587,587,587,587,587,587,587,587,587,587,587,587,587,587,587,587,587,587,587,587,587,587,587,587,587,587,587,587,587,587,587,587,587,587,587,587,587,587,587,587,587,587,587,587,587,587,587,587,587,587,587,587,587,587,587,587,587,587,587,587,587,587,588,580,570,556,537,504,488,473,462,453,448,448,447,447,446,440,436,435,435,435,435,435,435,435,435,435,435,435,435,435,435,435,434,433,428],"ymouse":[489,489,489,489,489,489,489,489,489,489,489,489,489,489,489,489,489,489,489,489,489,489,489,489,489,489,489,489,489,489,489,489,489,489,489,489,489,489,489,489,489,489,489,489,489,489,489,489,489,489,489,489,489,489,489,489,489,489,489,489,489,489,489,489,489,489,489,489,489,489,489,489,489,489,489,489,489,489,489,489,473,388,320,252,192,112,89,75,66,61,58,56,55,54,53,47,43,42,42,42,42,42,42,42,42,42,42,42,42,42,42,42,42,42,44],"timestamp_mouse":[9,36,49,70,89,109,130,149,169,190,210,229,249,268,290,310,328,349,370,390,408,430,450,468,489,509,529,549,568,589,609,628,650,669,689,709,729,749,769,790,809,830,849,870,889,908,930,950,968,989,1008,1030,1050,1070,1088,1109,1129,1150,1170,1189,1209,1228,1250,1269,1290,1310,1328,1350,1370,1388,1409,1430,1449,1470,1490,1509,1530,1550,1569,1589,1608,1629,1648,1670,1689,1709,1728,1749,1768,1788,1809,1829,1849,1869,1888,1909,1929,1949,1969,1990,2009,2029,2049,2070,2090,2109,2129,2150,2169,2190,2209,2230,2249,2269,2289],"xSR":583.2000122070312,"ySR":401.440023803711,"xT1":329.9200073242187,"yT1":0,"xT2":836.4800170898437,"yT2":0,"toosoon":0,"cond_shown":"equaldotsize","ratio_trial":500,"smaller_num":"6","larger_num":"12","correct_side":1,"subjID":"nathaliamendezrueda27","gender":"1","age":"12","school":"6"},{"start_time":1551881606303,"click_time":1551881607279,"finger_time":1551881607219,"fix_duration":1463.1953427638882,"trial":8,"RT":916,"MT":60,"sideResp":2,"stimulus":"img/750/equaldotsize/R/2_Ratio_750_L_6_R_8.png","xmouse":[632,632,632,632,632,632,632,632,632,632,632,632,632,632,632,632,632,632,632,632,632,632,632,632,632,632,632,632,632,632,632,632,632,632,632,632,632,632,632,632,632,632,632,632,647,678,719,762,838],"ymouse":[481,481,481,481,481,481,481,481,481,481,481,481,481,481,481,481,481,481,481,481,481,481,481,481,481,481,481,481,481,481,481,481,481,481,481,481,481,481,481,481,481,481,481,481,435,378,305,231,90],"timestamp_mouse":[16,35,57,76,96,116,136,157,176,196,216,235,256,277,297,316,335,357,377,397,415,437,457,476,496,516,536,556,576,595,616,635,655,676,697,716,735,757,775,795,816,835,857,876,896,916,936,956,976],"xSR":583.2000122070312,"ySR":401.440023803711,"xT1":329.9200073242187,"yT1":0,"xT2":836.4800170898437,"yT2":0,"toosoon":0,"cond_shown":"equaldotsize","ratio_trial":750,"smaller_num":"6","larger_num":"8","correct_side":2,"subjID":"nathaliamendezrueda27","gender":"1","age":"12","school":"6"},{"start_time":1551881609888,"click_time":1551881611279,"finger_time":1551881610939,"fix_duration":1208.4883880048933,"trial":9,"RT":1051,"MT":340,"sideResp":2,"stimulus":"img/250/randomdotsizeEA/R/4_Ratio_250_L_3_R_12.png","xmouse":[673,673,673,673,673,673,673,673,673,673,673,673,673,673,673,673,673,673,673,673,673,673,673,673,673,673,673,673,673,673,673,673,673,673,673,673,673,673,673,673,673,673,673,673,673,673,673,673,673,673,673,678,691,727,836,908,938,951,955,955,955,955,955,955,955,955,953,948,942,922],"ymouse":[448,448,448,448,448,448,448,448,448,448,448,448,448,448,448,448,448,448,448,448,448,448,448,448,448,448,448,448,448,448,448,448,448,448,448,448,448,448,448,448,448,448,448,448,448,448,448,448,448,448,448,432,408,348,200,109,73,58,52,52,52,52,52,52,51,49,48,48,48,48],"timestamp_mouse":[11,31,53,72,90,112,131,151,171,191,211,231,252,272,290,310,331,351,370,390,411,431,451,471,492,512,530,551,572,590,611,630,651,672,691,710,731,751,771,791,811,831,851,870,890,912,931,951,970,991,1011,1032,1051,1071,1091,1111,1131,1150,1172,1191,1210,1230,1251,1272,1291,1311,1330,1351,1371,1391],"xSR":583.2000122070312,"ySR":401.440023803711,"xT1":329.9200073242187,"yT1":0,"xT2":836.4800170898437,"yT2":0,"toosoon":0,"cond_shown":"randomdotsizeEA","ratio_trial":250,"smaller_num":"3","larger_num":"12","correct_side":2,"subjID":"nathaliamendezrueda27","gender":"1","age":"12","school":"6"},{"start_time":1551881613894,"click_time":1551881614601,"finger_time":1551881614519,"fix_duration":1473.9616150202437,"trial":10,"RT":625,"MT":82,"sideResp":2,"stimulus":"img/250/equaldotanddens/R/11_Ratio_250_L_3_R_12.png","xmouse":[652,652,652,652,652,652,652,652,652,652,652,652,652,652,652,652,652,652,652,652,652,652,652,652,652,652,652,652,652,656,666,686,712,748,813,838],"ymouse":[468,468,468,468,468,468,468,468,468,468,466,464,464,463,462,462,461,461,461,460,459,458,458,458,457,457,457,457,456,441,416,378,329,264,143,88],"timestamp_mouse":[5,31,46,66,85,107,126,145,166,186,205,225,245,266,285,305,326,347,366,386,405,426,445,465,485,505,526,545,566,586,605,625,645,667,685,706],"xSR":583.2000122070312,"ySR":401.440023803711,"xT1":329.9200073242187,"yT1":0,"xT2":836.4800170898437,"yT2":0,"toosoon":0,"cond_shown":"equaldotanddens","ratio_trial":250,"smaller_num":"3","larger_num":"12","correct_side":2,"subjID":"nathaliamendezrueda27","gender":"1","age":"12","school":"6"},{"start_time":1551881616009,"click_time":1551881618279,"finger_time":1551881616419,"fix_duration":468.68338782852356,"trial":11,"RT":410,"MT":1860,"sideResp":2,"stimulus":"img/500/randomdotsizeEA/R/15_Ratio_500_L_1_R_2.png","xmouse":[646,646,646,646,646,646,646,646,646,646,646,646,646,646,646,646,646,646,648,679,722,772,822,876,880,882,882,882,882,882,882,882,882,882,882,882,882,880,877,868,860,854,849,848,848,848,848,848,841,812,780,742,693,596,556,528,506,496,492,492,492,492,492,492,492,492,492,492,492,497,530,564,597,627,649,655,661,676,729,768,790,807,820,827,827,827,827,827,827,827,827,827,827,827,816,812,808,807,807,807,807,807,807,807,807,808,808,808,808,809,816,822,828,857],"ymouse":[473,473,473,473,473,473,473,473,473,473,473,473,473,473,473,473,473,473,472,428,376,313,253,186,178,176,176,176,176,176,176,176,176,176,176,176,176,176,179,187,193,198,200,201,201,201,201,201,202,211,217,227,236,248,248,248,248,247,246,246,246,246,246,246,246,246,246,246,246,257,317,363,408,438,445,433,411,374,290,218,163,104,58,9,3,3,3,3,3,3,3,3,3,3,5,10,21,30,38,38,38,38,38,38,38,38,38,38,38,38,38,38,37,33],"timestamp_mouse":[10,40,51,71,91,111,131,150,170,190,211,231,252,272,291,310,331,350,370,392,410,430,451,470,490,510,532,551,571,591,610,632,651,671,691,711,730,750,770,792,810,831,851,871,892,911,931,952,971,991,1010,1032,1051,1070,1090,1111,1130,1152,1171,1191,1210,1230,1250,1272,1291,1311,1330,1352,1370,1391,1410,1430,1451,1470,1491,1510,1530,1552,1570,1591,1611,1631,1651,1670,1690,1710,1731,1750,1771,1790,1811,1831,1850,1870,1890,1911,1930,1952,1972,1991,2010,2030,2051,2071,2090,2110,2130,2150,2171,2190,2211,2232,2250,2270],"xSR":583.2000122070312,"ySR":401.440023803711,"xT1":329.9200073242187,"yT1":0,"xT2":836.4800170898437,"yT2":0,"toosoon":0,"cond_shown":"randomdotsizeEA","ratio_trial":500,"smaller_num":"1","larger_num":"2","correct_side":2,"subjID":"nathaliamendezrueda27","gender":"1","age":"12","school":"6"},{"start_time":1551881619431,"click_time":1551881620739,"finger_time":1551881620679,"fix_duration":250,"trial":12,"RT":1248,"MT":60,"sideResp":2,"stimulus":"img/750/equaldotsize/R/5_Ratio_750_L_15_R_20.png","xmouse":[635,635,635,635,635,635,635,635,635,635,635,635,635,635,635,635,635,635,635,635,635,635,635,635,635,635,635,635,635,635,635,635,635,635,635,635,635,635,635,635,635,635,635,635,635,635,635,635,635,635,635,635,635,635,635,635,635,635,635,635,639,653,716,768,826,867],"ymouse":[446,446,446,446,446,446,446,446,446,446,446,446,446,446,446,446,446,446,446,446,446,446,446,446,446,446,446,446,446,446,446,446,446,446,446,446,446,446,446,446,446,446,446,446,446,446,446,446,446,446,446,446,446,446,446,446,446,446,446,446,441,412,294,215,128,67],"timestamp_mouse":[12,36,49,69,89,108,128,149,168,189,209,229,249,268,289,308,328,349,368,388,409,430,449,469,489,508,529,550,569,589,608,628,649,669,688,710,729,748,768,789,809,828,849,870,888,908,928,949,968,989,1009,1030,1049,1069,1088,1109,1128,1148,1168,1189,1208,1228,1248,1268,1289,1308],"xSR":583.2000122070312,"ySR":401.440023803711,"xT1":329.9200073242187,"yT1":0,"xT2":836.4800170898437,"yT2":0,"toosoon":0,"cond_shown":"equaldotsize","ratio_trial":750,"smaller_num":"15","larger_num":"20","correct_side":2,"subjID":"nathaliamendezrueda27","gender":"1","age":"12","school":"6"},{"start_time":1551881622387,"click_time":1551881623180,"finger_time":1551881623159,"fix_duration":606.3344579002317,"trial":13,"RT":772,"MT":21,"sideResp":2,"stimulus":"img/250/equaldotsize/R/13_Ratio_250_L_2_R_8.png","xmouse":[630,630,630,630,630,630,630,630,630,630,630,630,630,630,630,630,630,630,630,630,630,630,630,630,630,630,630,630,630,630,630,630,630,630,630,630,641,656,705,868],"ymouse":[434,434,434,434,434,434,434,434,434,434,434,434,434,434,434,434,434,434,434,434,434,434,434,434,434,434,434,434,434,434,434,434,434,434,434,434,422,402,332,72],"timestamp_mouse":[23,34,52,72,93,113,133,152,172,193,213,233,252,272,293,314,333,353,373,393,413,434,453,473,493,513,532,553,572,593,612,632,653,672,693,712,732,752,772,793],"xSR":583.2000122070312,"ySR":401.440023803711,"xT1":329.9200073242187,"yT1":0,"xT2":836.4800170898437,"yT2":0,"toosoon":0,"cond_shown":"equaldotsize","ratio_trial":250,"smaller_num":"2","larger_num":"8","correct_side":2,"subjID":"nathaliamendezrueda27","gender":"1","age":"12","school":"6"},{"start_time":1551881625504,"click_time":1551881626840,"finger_time":1551881626299,"fix_duration":823.980832247142,"trial":14,"RT":795,"MT":541,"sideResp":1,"stimulus":"img/250/randomdotsizeEA/L/7_Ratio_250_L_8_R_2.png","xmouse":[616,616,616,616,616,616,616,616,616,616,616,616,616,616,616,616,616,616,616,616,616,616,616,616,616,616,616,616,616,616,616,616,616,616,616,615,612,606,588,575,563,553,547,536,531,528,526,524,514,509,500,491,480,464,457,453,452,450,448,448,448,447,446,440,435,430,424],"ymouse":[451,451,451,451,451,451,451,451,451,451,451,451,451,451,451,451,451,452,448,444,443,441,440,440,440,440,440,440,440,440,440,440,440,440,440,440,436,431,406,381,357,336,319,302,293,288,282,275,257,248,236,220,204,175,155,139,122,109,92,88,87,83,80,73,72,70,68],"timestamp_mouse":[15,35,55,76,95,115,136,155,176,195,216,235,257,276,297,316,335,356,376,396,415,435,457,476,495,516,536,556,576,595,617,635,656,676,697,715,735,756,776,795,815,835,855,875,896,916,935,955,975,996,1015,1036,1055,1075,1095,1116,1135,1155,1175,1195,1215,1235,1256,1275,1295,1316,1335],"xSR":583.2000122070312,"ySR":401.440023803711,"xT1":329.9200073242187,"yT1":0,"xT2":836.4800170898437,"yT2":0,"toosoon":0,"cond_shown":"randomdotsizeEA","ratio_trial":250,"smaller_num":"2","larger_num":"8","correct_side":1,"subjID":"nathaliamendezrueda27","gender":"1","age":"12","school":"6"},{"start_time":1551881627952,"click_time":1551881628720,"finger_time":1551881628480,"fix_duration":250,"trial":15,"RT":528,"MT":240,"sideResp":2,"stimulus":"img/900/equaldotsize/R/9_Ratio_900_L_18_R_20.png","xmouse":[608,608,608,608,608,608,608,608,608,608,608,608,608,608,608,608,608,608,608,608,608,608,608,609,611,614,628,634,639,644,646,657,667,685,716,752,783,830,844],"ymouse":[416,416,416,416,416,416,416,416,416,416,416,416,416,416,416,416,416,416,416,416,416,415,415,413,408,403,382,374,365,359,355,332,314,280,230,182,147,98,80],"timestamp_mouse":[7,28,48,68,87,107,127,149,167,188,211,227,247,267,287,307,327,347,367,387,409,427,447,467,489,507,528,547,568,588,608,628,648,667,688,707,727,748,768],"xSR":583.2000122070312,"ySR":401.440023803711,"xT1":329.9200073242187,"yT1":0,"xT2":836.4800170898437,"yT2":0,"toosoon":0,"cond_shown":"equaldotsize","ratio_trial":900,"smaller_num":"18","larger_num":"20","correct_side":2,"subjID":"nathaliamendezrueda27","gender":"1","age":"12","school":"6"},{"start_time":1551881631352,"click_time":1551881632680,"finger_time":1551881632199,"fix_duration":1470.2686945343758,"trial":16,"RT":847,"MT":481,"sideResp":1,"stimulus":"img/250/randomdotsizeEA/L/15_Ratio_250_L_12_R_3.png","xmouse":[644,644,644,644,644,644,644,644,644,644,644,644,644,644,644,644,644,644,644,644,644,644,644,644,644,644,644,644,644,644,644,644,644,644,644,644,644,644,644,644,644,630,607,565,540,526,520,520,520,520,520,516,508,498,485,473,461,461,456,450,444,432,430,430,430,430,428],"ymouse":[444,444,444,444,444,444,444,444,444,444,444,444,444,444,444,444,444,444,444,444,444,444,444,444,444,444,444,444,444,444,444,444,444,444,444,444,444,444,444,444,442,403,356,286,252,233,222,220,220,220,218,208,198,185,168,150,121,89,44,26,16,8,8,8,8,8,8],"timestamp_mouse":[7,38,47,69,89,107,129,149,168,188,209,228,247,269,287,307,327,349,368,387,409,428,447,469,489,508,528,547,568,588,608,629,647,668,687,708,727,748,767,787,808,827,847,867,887,908,927,948,967,987,1008,1028,1047,1067,1088,1107,1127,1148,1168,1188,1207,1228,1247,1269,1287,1308,1328],"xSR":583.2000122070312,"ySR":401.440023803711,"xT1":329.9200073242187,"yT1":0,"xT2":836.4800170898437,"yT2":0,"toosoon":0,"cond_shown":"randomdotsizeEA","ratio_trial":250,"smaller_num":"3","larger_num":"12","correct_side":1,"subjID":"nathaliamendezrueda27","gender":"1","age":"12","school":"6"},{"start_time":1551881634268,"click_time":1551881634980,"finger_time":1551881634841,"fix_duration":606.5015650143793,"trial":17,"RT":573,"MT":139,"sideResp":2,"stimulus":"img/250/equaldotanddens/R/12_Ratio_250_L_5_R_20.png","xmouse":[604,604,604,604,604,604,604,604,604,604,604,604,604,604,604,604,604,604,604,604,604,604,604,604,604,604,604,608,616,633,704,746,783,811,833,851],"ymouse":[411,411,411,411,411,411,411,411,411,411,411,411,411,411,411,411,411,411,411,411,411,411,411,411,411,411,411,407,397,373,278,221,172,133,102,74],"timestamp_mouse":[11,31,53,73,92,112,132,151,172,192,213,231,251,272,292,312,331,352,371,393,413,431,452,472,491,512,531,551,573,591,611,633,652,672,691,711],"xSR":583.2000122070312,"ySR":401.440023803711,"xT1":329.9200073242187,"yT1":0,"xT2":836.4800170898437,"yT2":0,"toosoon":0,"cond_shown":"equaldotanddens","ratio_trial":250,"smaller_num":"5","larger_num":"20","correct_side":2,"subjID":"nathaliamendezrueda27","gender":"1","age":"12","school":"6"},{"start_time":1551881636794,"click_time":1551881637380,"finger_time":1551881637279,"fix_duration":952.2604196714077,"trial":18,"RT":485,"MT":101,"sideResp":2,"stimulus":"img/250/equaldotsize/R/13_Ratio_250_L_2_R_8.png","xmouse":[650,639,621,607,593,590,589,588,587,585,585,585,585,585,585,585,585,585,588,601,616,625,639,651,677,745,778,808,832,877],"ymouse":[448,466,480,488,489,489,489,488,488,485,485,485,485,485,485,485,484,483,480,467,456,448,436,420,376,253,200,160,124,48],"timestamp_mouse":[6,30,47,66,86,105,125,146,166,185,206,225,246,267,285,305,325,345,365,385,406,425,445,466,485,505,525,546,565,586],"xSR":583.2000122070312,"ySR":401.440023803711,"xT1":329.9200073242187,"yT1":0,"xT2":836.4800170898437,"yT2":0,"toosoon":0,"cond_shown":"equaldotsize","ratio_trial":250,"smaller_num":"2","larger_num":"8","correct_side":2,"subjID":"nathaliamendezrueda27","gender":"1","age":"12","school":"6"},{"start_time":1551881640101,"click_time":1551881641499,"finger_time":1551881641179,"fix_duration":1280.1436623234383,"trial":19,"RT":1078,"MT":320,"sideResp":1,"stimulus":"img/900/randomdotsizeEA/L/4_Ratio_900_L_20_R_18.png","xmouse":[640,640,640,640,640,640,640,640,640,640,640,640,640,640,640,640,640,640,640,640,640,640,640,640,640,640,640,640,640,640,640,640,640,640,640,640,640,640,640,640,640,640,640,640,640,640,640,640,640,639,637,632,622,575,538,523,512,503,486,478,468,461,454,446,444,441,435,423,395,387],"ymouse":[447,447,447,447,447,447,447,447,447,447,447,447,447,447,447,447,447,447,447,447,447,447,447,447,447,447,447,447,447,447,447,447,447,447,447,447,447,447,447,447,447,447,447,447,447,447,447,447,447,447,447,442,427,336,272,247,232,221,204,197,192,190,188,182,179,173,162,145,107,93],"timestamp_mouse":[19,38,59,79,100,118,140,159,179,199,218,239,258,278,298,319,338,359,379,398,419,438,460,479,498,519,539,558,579,600,619,640,660,679,699,720,738,759,779,799,819,838,858,880,899,919,938,958,978,999,1018,1038,1059,1078,1098,1118,1139,1159,1178,1199,1218,1238,1260,1278,1298,1318,1338,1358,1378,1398],"xSR":583.2000122070312,"ySR":401.440023803711,"xT1":329.9200073242187,"yT1":0,"xT2":836.4800170898437,"yT2":0,"toosoon":0,"cond_shown":"randomdotsizeEA","ratio_trial":900,"smaller_num":"18","larger_num":"20","correct_side":1,"subjID":"nathaliamendezrueda27","gender":"1","age":"12","school":"6"},{"start_time":1551881645182,"click_time":1551881646400,"finger_time":1551881646079,"fix_duration":801.4293797357918,"trial":20,"RT":897,"MT":321,"sideResp":2,"stimulus":"img/500/equaldotanddens/R/15_Ratio_500_L_1_R_2.png","xmouse":[652,652,652,652,652,652,652,652,652,652,652,652,652,652,652,652,652,652,652,652,652,652,652,652,652,652,652,652,652,652,652,652,652,652,652,652,652,652,652,652,652,652,656,667,707,729,753,772,796,835,852,856,857,857,857,857,857,858,858,858,859],"ymouse":[468,468,468,468,468,468,468,468,468,468,468,468,468,468,468,468,468,468,468,468,468,468,468,468,468,468,468,468,468,468,468,468,468,468,468,468,468,468,468,468,468,463,448,429,359,316,276,243,202,141,112,103,102,102,102,102,102,101,100,100,98],"timestamp_mouse":[29,37,57,79,97,117,137,157,178,198,217,237,257,277,297,318,337,358,379,397,418,437,457,477,498,518,539,557,577,598,617,639,659,677,697,717,737,759,777,798,818,838,857,877,897,918,937,957,977,997,1017,1037,1059,1079,1098,1117,1138,1158,1177,1197,1218],"xSR":583.2000122070312,"ySR":401.440023803711,"xT1":329.9200073242187,"yT1":0,"xT2":836.4800170898437,"yT2":0,"toosoon":0,"cond_shown":"equaldotanddens","ratio_trial":500,"smaller_num":"1","larger_num":"2","correct_side":2,"subjID":"nathaliamendezrueda27","gender":"1","age":"12","school":"6"},{"start_time":1551881648158,"click_time":1551881649280,"finger_time":1551881649080,"fix_duration":957.4442867502319,"trial":21,"RT":922,"MT":200,"sideResp":1,"stimulus":"img/900/equaldotanddens/L/1_Ratio_900_L_10_R_9.png","xmouse":[664,664,664,664,664,664,664,664,664,664,664,664,664,664,664,664,664,664,664,664,664,664,664,664,664,664,664,664,664,664,664,664,664,664,664,664,664,664,664,664,664,664,664,664,661,657,606,563,520,484,461,444,442,442,440,434,419],"ymouse":[455,455,455,455,455,455,455,455,455,455,455,455,455,455,455,455,455,455,455,455,455,455,455,455,455,455,455,455,455,455,455,455,455,455,455,455,455,455,455,455,455,455,455,455,452,441,333,258,191,148,127,112,110,109,102,88,70],"timestamp_mouse":[3,21,42,65,82,102,122,141,162,181,202,221,241,261,282,301,321,342,361,382,403,421,441,462,481,501,522,541,561,582,603,621,642,661,682,703,721,742,762,782,802,822,841,862,881,901,922,941,961,982,1002,1022,1041,1061,1081,1101,1121],"xSR":583.2000122070312,"ySR":401.440023803711,"xT1":329.9200073242187,"yT1":0,"xT2":836.4800170898437,"yT2":0,"toosoon":0,"cond_shown":"equaldotanddens","ratio_trial":900,"smaller_num":"9","larger_num":"10","correct_side":1,"subjID":"nathaliamendezrueda27","gender":"1","age":"12","school":"6"},{"start_time":1551881651934,"click_time":1551881652979,"finger_time":1551881652280,"fix_duration":1353.154921894286,"trial":22,"RT":346,"MT":699,"sideResp":2,"stimulus":"img/250/randomdotsizeEA/R/4_Ratio_250_L_3_R_12.png","xmouse":[606,606,606,606,606,606,606,606,606,606,606,606,606,606,606,608,615,632,638,641,643,643,644,644,644,644,645,651,657,665,675,685,704,718,727,732,736,744,747,752,762,772,792,796,801,806,811,819,821,823,824,827,837],"ymouse":[432,432,432,432,432,432,432,432,432,432,432,432,432,432,431,424,411,382,369,364,363,361,360,360,360,359,356,342,331,316,300,286,260,239,227,220,214,201,196,189,174,158,130,124,116,110,104,94,91,89,87,84,73],"timestamp_mouse":[5,25,45,65,86,106,126,145,166,186,206,225,246,266,285,306,326,346,366,385,405,426,445,467,487,506,525,545,567,586,605,626,645,665,685,706,726,745,766,786,806,825,846,866,885,905,926,945,966,985,1005,1025,1045],"xSR":583.2000122070312,"ySR":401.440023803711,"xT1":329.9200073242187,"yT1":0,"xT2":836.4800170898437,"yT2":0,"toosoon":0,"cond_shown":"randomdotsizeEA","ratio_trial":250,"smaller_num":"3","larger_num":"12","correct_side":2,"subjID":"nathaliamendezrueda27","gender":"1","age":"12","school":"6"},{"start_time":1551881656891,"click_time":1551881657999,"finger_time":1551881657679,"fix_duration":250,"trial":23,"RT":788,"MT":320,"sideResp":1,"stimulus":"img/750/equaldotanddens/L/13_Ratio_750_L_8_R_6.png","xmouse":[636,636,636,636,636,636,636,636,636,636,636,636,636,636,636,636,636,636,636,636,636,636,636,636,636,636,636,636,636,636,636,636,636,636,636,636,636,635,628,613,601,584,555,499,499,499,499,499,499,499,499,499,499,499,499,428],"ymouse":[419,419,419,419,419,419,419,419,419,419,419,419,419,419,419,419,419,419,419,419,419,419,419,419,419,419,419,419,419,419,419,419,419,419,419,419,420,420,406,312,229,156,94,13,13,13,13,13,13,13,13,13,13,13,13,1],"timestamp_mouse":[8,35,49,69,89,108,129,150,168,188,209,228,250,268,289,309,329,349,368,388,409,430,448,468,490,508,529,550,569,588,608,630,649,668,688,708,729,749,768,788,809,828,848,869,888,909,928,949,969,990,1009,1028,1049,1068,1088,1108],"xSR":583.2000122070312,"ySR":401.440023803711,"xT1":329.9200073242187,"yT1":0,"xT2":836.4800170898437,"yT2":0,"toosoon":0,"cond_shown":"equaldotanddens","ratio_trial":750,"smaller_num":"6","larger_num":"8","correct_side":1,"subjID":"nathaliamendezrueda27","gender":"1","age":"12","school":"6"},{"start_time":1551881661229,"click_time":1551881662379,"finger_time":1551881661999,"fix_duration":708.2645941514013,"trial":24,"RT":770,"MT":380,"sideResp":2,"stimulus":"img/900/randomdotsizeEA/L/4_Ratio_900_L_20_R_18.png","xmouse":[598,598,600,600,600,600,600,600,600,600,600,600,600,600,600,600,600,600,600,600,600,600,600,600,600,600,600,600,600,600,600,600,600,600,600,600,604,625,648,673,697,714,732,736,743,748,750,752,752,752,752,755,767,773,782,795,816,862],"ymouse":[451,451,452,452,452,452,452,452,452,452,452,452,452,452,452,452,452,452,452,452,452,452,452,452,452,452,452,452,452,452,452,452,452,452,452,452,447,410,373,332,298,268,238,227,216,208,203,198,198,198,197,194,183,174,162,144,112,45],"timestamp_mouse":[14,30,51,70,90,111,130,150,170,190,211,230,250,270,291,311,330,351,370,390,410,430,450,471,492,510,531,550,571,590,610,630,650,670,691,710,730,750,770,790,810,831,850,871,891,910,932,951,970,990,1010,1030,1051,1071,1090,1110,1131,1150],"xSR":583.2000122070312,"ySR":401.440023803711,"xT1":329.9200073242187,"yT1":0,"xT2":836.4800170898437,"yT2":0,"toosoon":0,"cond_shown":"randomdotsizeEA","ratio_trial":900,"smaller_num":"18","larger_num":"20","correct_side":1,"subjID":"nathaliamendezrueda27","gender":"1","age":"12","school":"6"},{"start_time":1551881668716,"click_time":1551881670379,"finger_time":1551881670041,"fix_duration":295.07046343853114,"trial":25,"RT":1325,"MT":338,"sideResp":2,"stimulus":"img/500/randomdotsizeEA/L/4_Ratio_500_L_18_R_9.png","xmouse":[625,625,625,625,625,625,625,625,625,625,625,625,625,625,625,625,625,625,625,625,625,625,625,625,625,625,625,625,625,625,625,625,625,625,625,625,625,625,625,625,625,625,625,625,625,625,625,625,625,625,625,625,625,625,625,625,625,625,625,625,625,625,625,627,638,659,680,708,752,759,763,769,776,795,808,816,822,823,823,823,824,828,834,841],"ymouse":[484,484,484,484,484,484,484,484,484,484,484,484,484,484,484,484,484,484,484,484,484,484,484,484,484,484,484,484,484,484,484,484,484,484,484,484,484,484,484,484,484,484,484,484,484,484,484,484,484,484,484,484,484,484,484,484,484,484,484,484,484,484,484,480,456,412,374,336,285,272,261,248,236,204,175,157,144,136,120,111,101,92,79,62],"timestamp_mouse":[4,36,44,64,83,103,123,143,164,184,204,224,243,265,285,304,324,345,364,384,404,424,444,464,484,504,524,544,564,583,605,625,644,663,683,705,724,744,764,785,804,824,845,864,884,904,923,944,963,984,1004,1023,1043,1063,1084,1103,1124,1143,1164,1184,1204,1225,1244,1263,1284,1303,1325,1344,1363,1384,1403,1424,1443,1464,1484,1503,1523,1544,1564,1583,1603,1624,1645,1663],"xSR":583.2000122070312,"ySR":401.440023803711,"xT1":329.9200073242187,"yT1":0,"xT2":836.4800170898437,"yT2":0,"toosoon":0,"cond_shown":"randomdotsizeEA","ratio_trial":500,"smaller_num":"9","larger_num":"18","correct_side":1,"subjID":"nathaliamendezrueda27","gender":"1","age":"12","school":"6"},{"start_time":1551881676192,"click_time":1551881676840,"finger_time":1551881676800,"fix_duration":1291.447983234118,"trial":26,"RT":608,"MT":40,"sideResp":1,"stimulus":"img/250/equaldotanddens/L/15_Ratio_250_L_12_R_3.png","xmouse":[670,670,670,670,670,670,670,670,670,670,670,670,670,670,670,670,670,670,670,670,670,670,670,670,670,670,670,669,668,656,592,503,408],"ymouse":[492,492,492,492,492,492,492,492,492,492,492,492,492,492,492,492,492,492,492,492,492,492,492,492,492,492,492,487,477,420,269,124,1],"timestamp_mouse":[7,39,48,69,87,108,127,147,168,188,207,228,248,267,287,307,327,347,369,388,407,427,447,467,488,507,528,548,567,587,608,627,648],"xSR":583.2000122070312,"ySR":401.440023803711,"xT1":329.9200073242187,"yT1":0,"xT2":836.4800170898437,"yT2":0,"toosoon":0,"cond_shown":"equaldotanddens","ratio_trial":250,"smaller_num":"3","larger_num":"12","correct_side":1,"subjID":"nathaliamendezrueda27","gender":"1","age":"12","school":"6"},{"start_time":1551881680096,"click_time":1551881681119,"finger_time":1551881680740,"fix_duration":515.1594923926767,"trial":27,"RT":644,"MT":379,"sideResp":2,"stimulus":"img/250/equaldotsize/R/6_Ratio_250_L_6_R_24.png","xmouse":[616,616,616,616,616,616,616,616,616,616,616,617,617,616,613,612,612,611,610,610,610,610,610,610,610,610,610,611,614,625,638,648,656,663,669,697,745,782,818,848,853,855,859,864,868,876,878,880,881,884,884,886],"ymouse":[500,500,500,500,500,500,500,500,500,499,492,487,481,475,467,463,461,460,460,460,460,458,458,458,458,458,458,456,452,441,429,412,392,365,304,255,220,196,177,159,155,153,150,147,144,134,127,122,116,107,100,92],"timestamp_mouse":[4,31,43,63,83,103,123,144,163,183,203,223,244,263,284,303,323,343,364,385,404,423,443,465,483,504,523,544,564,583,603,623,644,663,684,704,724,744,763,783,804,823,843,863,883,903,924,943,964,983,1004,1023],"xSR":583.2000122070312,"ySR":401.440023803711,"xT1":329.9200073242187,"yT1":0,"xT2":836.4800170898437,"yT2":0,"toosoon":0,"cond_shown":"equaldotsize","ratio_trial":250,"smaller_num":"6","larger_num":"24","correct_side":2,"subjID":"nathaliamendezrueda27","gender":"1","age":"12","school":"6"},{"start_time":1551881682457,"click_time":1551881683380,"finger_time":1551881682840,"fix_duration":334.84864147277705,"trial":28,"RT":383,"MT":540,"sideResp":1,"stimulus":"img/750/equaldotsize/L/14_Ratio_750_L_8_R_6.png","xmouse":[658,658,658,658,658,658,658,658,658,658,658,658,658,658,658,658,658,658,658,658,658,658,659,660,660,660,654,648,640,620,586,507,480,464,458,452,444,440,439,438,438,438,438,438,438,437,417],"ymouse":[448,448,448,448,448,448,448,448,448,448,448,448,448,448,448,449,444,420,404,391,385,380,377,368,356,340,309,288,269,243,204,124,95,76,65,56,47,42,40,40,40,40,40,40,40,40,40],"timestamp_mouse":[3,33,43,62,83,102,123,142,162,183,202,222,244,263,282,302,322,344,362,383,402,423,442,462,482,504,523,542,562,584,604,622,643,662,682,702,722,742,763,782,803,822,842,863,883,902,923],"xSR":583.2000122070312,"ySR":401.440023803711,"xT1":329.9200073242187,"yT1":0,"xT2":836.4800170898437,"yT2":0,"toosoon":0,"cond_shown":"equaldotsize","ratio_trial":750,"smaller_num":"6","larger_num":"8","correct_side":1,"subjID":"nathaliamendezrueda27","gender":"1","age":"12","school":"6"},{"start_time":1551881686415,"click_time":1551881688400,"finger_time":1551881687939,"fix_duration":714.7520222591264,"trial":29,"RT":1524,"MT":461,"sideResp":2,"stimulus":"img/900/randomdotsizeEA/R/15_Ratio_900_L_9_R_10.png","xmouse":[600,600,599,599,599,599,599,599,598,598,598,598,598,598,598,598,598,598,598,598,598,598,598,598,598,598,598,598,598,598,598,598,598,598,598,598,598,598,598,598,598,598,598,598,598,598,598,598,598,598,598,598,598,598,598,598,599,600,600,602,604,605,608,611,611,611,611,611,611,611,611,612,614,624,637,658,684,720,803,830,836,841,845,850,854,859,864,868,872,873,873,875,876,879,880,881,882,883,886,888],"ymouse":[496,499,500,500,500,500,500,500,500,500,500,500,500,500,500,500,500,500,500,500,500,500,500,500,500,500,500,500,500,500,500,500,500,500,500,500,500,500,500,500,500,500,500,500,500,500,500,500,500,500,500,500,500,500,500,500,500,500,500,499,498,497,496,494,494,494,494,494,494,494,494,494,493,487,480,467,452,431,373,327,299,272,243,193,180,168,158,152,142,138,136,135,132,126,120,118,116,113,103,97],"timestamp_mouse":[5,25,44,65,84,104,125,145,165,185,204,224,244,265,286,305,324,345,365,384,404,424,445,466,485,505,524,546,565,584,606,626,644,665,685,704,724,744,764,784,804,826,844,864,885,904,924,946,965,985,1004,1025,1044,1064,1086,1104,1125,1144,1164,1186,1204,1225,1244,1265,1284,1305,1326,1344,1364,1385,1404,1425,1444,1464,1485,1505,1524,1546,1565,1584,1604,1625,1644,1664,1684,1705,1724,1745,1764,1785,1805,1824,1845,1864,1884,1905,1925,1945,1965,1985],"xSR":583.2000122070312,"ySR":401.440023803711,"xT1":329.9200073242187,"yT1":0,"xT2":836.4800170898437,"yT2":0,"toosoon":0,"cond_shown":"randomdotsizeEA","ratio_trial":900,"smaller_num":"9","larger_num":"10","correct_side":2,"subjID":"nathaliamendezrueda27","gender":"1","age":"12","school":"6"},{"start_time":1551881690497,"click_time":1551881691479,"finger_time":1551881691320,"fix_duration":1315.8625714253967,"trial":30,"RT":823,"MT":159,"sideResp":1,"stimulus":"img/750/equaldotanddens/L/8_Ratio_750_L_4_R_3.png","xmouse":[624,624,624,624,624,624,624,624,624,624,624,624,624,624,624,624,624,624,624,624,624,624,624,624,624,624,624,624,624,624,624,624,624,624,624,624,624,624,618,600,584,553,519,477,414,400,400,405,409,412],"ymouse":[469,469,469,469,469,469,469,469,469,469,469,469,469,469,469,469,469,469,469,469,469,469,469,469,469,469,469,469,469,469,469,469,469,469,469,469,469,469,465,444,422,388,344,292,187,143,124,110,102,93],"timestamp_mouse":[3,23,44,62,84,102,122,144,163,183,203,223,242,263,282,302,323,343,363,383,402,424,442,463,482,503,522,542,563,583,604,623,644,663,682,702,723,742,762,782,802,823,842,863,882,902,922,942,962,982],"xSR":583.2000122070312,"ySR":401.440023803711,"xT1":329.9200073242187,"yT1":0,"xT2":836.4800170898437,"yT2":0,"toosoon":0,"cond_shown":"equaldotanddens","ratio_trial":750,"smaller_num":"3","larger_num":"4","correct_side":1,"subjID":"nathaliamendezrueda27","gender":"1","age":"12","school":"6"},{"start_time":1551881694708,"click_time":1551881696061,"finger_time":1551881695579,"fix_duration":848.0203736595996,"trial":31,"RT":871,"MT":482,"sideResp":2,"stimulus":"img/500/randomdotsizeEA/R/3_Ratio_500_L_10_R_20.png","xmouse":[641,641,641,641,641,641,641,641,641,641,641,641,641,641,641,641,641,641,641,641,641,641,641,641,641,641,641,641,641,641,641,641,641,641,641,641,641,641,641,644,646,654,666,708,752,787,822,848,878,883,890,892,894,897,897,897,897,897,896,895,895,895,895,896,896,896,893,891],"ymouse":[453,453,453,453,453,453,453,453,453,453,453,453,453,453,453,453,453,453,453,453,453,453,453,453,453,453,453,453,453,453,453,453,453,453,453,453,453,453,453,449,448,439,428,394,348,315,283,260,230,219,209,206,201,194,191,188,184,180,172,169,165,161,156,145,132,120,107,94],"timestamp_mouse":[13,43,52,72,91,111,132,152,172,192,212,233,252,271,291,311,333,352,371,392,412,431,453,471,491,512,532,552,571,593,612,631,653,672,692,711,732,752,772,791,812,832,851,871,891,912,932,952,972,991,1012,1031,1051,1072,1091,1111,1131,1151,1172,1191,1212,1232,1253,1271,1292,1312,1333,1353],"xSR":583.2000122070312,"ySR":401.440023803711,"xT1":329.9200073242187,"yT1":0,"xT2":836.4800170898437,"yT2":0,"toosoon":0,"cond_shown":"randomdotsizeEA","ratio_trial":500,"smaller_num":"10","larger_num":"20","correct_side":2,"subjID":"nathaliamendezrueda27","gender":"1","age":"12","school":"6"},{"start_time":1551881698003,"click_time":1551881699020,"finger_time":1551881698639,"fix_duration":903.4044432993642,"trial":32,"RT":636,"MT":381,"sideResp":1,"stimulus":"img/500/randomdotsizeEA/R/1_Ratio_500_L_9_R_18.png","xmouse":[612,612,612,612,612,612,612,612,612,612,612,612,612,612,612,612,612,612,612,612,612,612,612,612,612,612,613,613,613,610,607,604,597,583,575,560,536,515,491,482,480,477,474,467,464,462,460,458,445,438,428],"ymouse":[452,452,452,452,452,452,452,452,452,452,452,452,452,452,452,452,452,452,452,452,452,452,452,452,452,452,452,452,436,421,409,398,376,340,322,299,274,256,229,209,198,181,166,142,132,125,120,112,100,95,90],"timestamp_mouse":[17,36,58,76,97,117,136,156,177,198,216,237,257,277,296,317,337,357,378,396,416,436,456,478,496,517,537,557,577,598,616,636,657,678,697,717,736,757,776,796,816,836,857,876,897,916,936,956,978,997,1017],"xSR":583.2000122070312,"ySR":401.440023803711,"xT1":329.9200073242187,"yT1":0,"xT2":836.4800170898437,"yT2":0,"toosoon":0,"cond_shown":"randomdotsizeEA","ratio_trial":500,"smaller_num":"9","larger_num":"18","correct_side":2,"subjID":"nathaliamendezrueda27","gender":"1","age":"12","school":"6"},{"start_time":1551881701743,"click_time":1551881702939,"finger_time":1551881702619,"fix_duration":762.7067925056948,"trial":33,"RT":876,"MT":320,"sideResp":2,"stimulus":"img/900/equaldotsize/R/14_Ratio_900_L_18_R_20.png","xmouse":[657,657,657,657,657,657,657,657,657,657,657,657,657,657,657,657,657,657,657,657,657,657,657,657,657,657,657,657,657,657,657,657,657,657,657,657,657,657,657,657,657,668,682,712,756,813,921,957,983,995,1000,1004,1007,1008,1008,1008,1006,987,958,927],"ymouse":[495,495,495,495,495,495,495,495,495,495,495,495,495,495,495,495,495,495,495,495,495,495,495,495,495,495,495,495,495,495,495,495,495,495,495,495,495,495,495,495,495,481,462,418,357,292,194,166,144,132,121,106,99,95,92,88,84,79,72,67],"timestamp_mouse":[16,48,56,76,97,117,137,157,176,198,216,236,256,278,296,317,336,356,377,397,417,437,457,478,497,518,537,557,578,596,616,637,657,676,696,716,736,758,776,796,818,836,856,876,896,917,936,957,977,997,1016,1036,1056,1076,1097,1118,1137,1157,1177,1196],"xSR":583.2000122070312,"ySR":401.440023803711,"xT1":329.9200073242187,"yT1":0,"xT2":836.4800170898437,"yT2":0,"toosoon":0,"cond_shown":"equaldotsize","ratio_trial":900,"smaller_num":"18","larger_num":"20","correct_side":2,"subjID":"nathaliamendezrueda27","gender":"1","age":"12","school":"6"},{"start_time":1551881704864,"click_time":1551881706899,"finger_time":1551881706800,"fix_duration":642.6080095221544,"trial":34,"RT":1936,"MT":99,"sideResp":1,"stimulus":"img/900/equaldotanddens/R/11_Ratio_900_L_18_R_20.png","xmouse":[643,643,643,643,643,643,643,643,643,643,643,643,643,643,643,643,643,643,643,643,643,643,643,643,643,643,643,643,643,643,643,643,643,643,643,643,643,643,643,643,643,643,643,643,643,643,643,643,643,643,643,643,643,643,643,643,643,643,643,643,643,643,643,643,643,643,643,643,643,643,643,643,643,643,643,643,643,643,643,643,643,643,643,643,643,643,643,643,643,643,643,643,643,643,642,640,616,584,547,499,374,348],"ymouse":[428,428,428,428,428,428,428,428,428,428,428,428,429,429,429,429,429,429,429,429,429,429,429,429,429,429,429,429,429,429,429,429,429,429,429,429,429,429,429,429,429,429,429,429,429,429,429,429,429,429,429,429,429,429,429,429,429,429,429,429,429,429,429,429,429,429,429,429,429,429,429,429,429,429,429,429,429,429,429,429,429,429,429,429,429,429,429,429,429,429,429,429,429,429,429,428,376,320,264,211,120,96],"timestamp_mouse":[15,36,55,75,96,115,136,155,176,196,215,235,256,277,296,316,335,355,377,395,416,437,456,476,495,517,536,555,576,596,615,635,655,675,696,715,737,755,777,796,816,836,856,877,897,915,935,957,976,996,1015,1036,1057,1077,1096,1115,1135,1156,1176,1196,1215,1235,1256,1277,1296,1316,1336,1356,1377,1397,1415,1437,1455,1475,1495,1516,1536,1555,1576,1596,1616,1635,1656,1675,1696,1716,1736,1756,1776,1797,1815,1835,1857,1875,1896,1915,1936,1955,1976,1995,2017,2035],"xSR":583.2000122070312,"ySR":401.440023803711,"xT1":329.9200073242187,"yT1":0,"xT2":836.4800170898437,"yT2":0,"toosoon":0,"cond_shown":"equaldotanddens","ratio_trial":900,"smaller_num":"18","larger_num":"20","correct_side":2,"subjID":"nathaliamendezrueda27","gender":"1","age":"12","school":"6"},{"start_time":1551881717005,"click_time":1551881718000,"finger_time":1551881717779,"fix_duration":1484.1023193184847,"trial":35,"RT":774,"MT":221,"sideResp":2,"stimulus":"img/250/randomdotsizeEA/R/13_Ratio_250_L_2_R_8.png","xmouse":[598,598,598,598,598,598,598,598,598,598,598,598,598,598,598,598,598,598,598,598,598,598,598,598,598,597,597,597,597,597,597,597,597,597,597,597,597,597,600,604,611,620,629,652,672,700,733,766,832,852],"ymouse":[455,455,455,455,455,455,455,455,455,455,455,455,455,455,455,455,455,455,455,455,455,455,455,455,455,455,455,455,455,455,455,455,455,455,455,449,444,428,394,380,365,350,333,297,263,223,186,159,112,98],"timestamp_mouse":[14,34,54,75,95,114,135,155,176,196,215,234,255,274,295,316,335,354,374,395,414,434,454,474,495,514,535,555,575,594,614,634,654,675,694,714,735,755,774,795,814,836,854,874,894,914,934,955,975,995],"xSR":583.2000122070312,"ySR":401.440023803711,"xT1":329.9200073242187,"yT1":0,"xT2":836.4800170898437,"yT2":0,"toosoon":0,"cond_shown":"randomdotsizeEA","ratio_trial":250,"smaller_num":"2","larger_num":"8","correct_side":2,"subjID":"nathaliamendezrueda27","gender":"1","age":"12","school":"6"},{"start_time":1551881720204,"click_time":1551881721219,"finger_time":1551881720760,"fix_duration":1002.8848345219078,"trial":36,"RT":556,"MT":459,"sideResp":1,"stimulus":"img/900/equaldotsize/R/5_Ratio_900_L_9_R_10.png","xmouse":[644,644,644,644,644,644,644,644,644,644,644,644,644,644,644,644,644,644,644,641,639,638,638,636,636,636,631,618,590,573,567,562,557,548,544,539,534,528,523,522,517,511,500,479,472,463,453,446,434,430,426],"ymouse":[456,456,456,456,456,456,456,456,456,456,456,456,456,456,456,456,456,456,456,446,440,437,435,428,425,421,410,396,368,346,336,328,320,306,297,286,268,248,225,215,196,172,152,124,117,110,104,97,88,84,81],"timestamp_mouse":[15,36,55,77,96,115,136,155,176,197,216,236,257,276,296,315,336,357,375,395,415,436,455,475,495,515,535,556,575,595,615,636,655,675,696,715,735,756,776,795,815,835,855,875,895,916,935,955,976,995,1015],"xSR":583.2000122070312,"ySR":401.440023803711,"xT1":329.9200073242187,"yT1":0,"xT2":836.4800170898437,"yT2":0,"toosoon":0,"cond_shown":"equaldotsize","ratio_trial":900,"smaller_num":"9","larger_num":"10","correct_side":2,"subjID":"nathaliamendezrueda27","gender":"1","age":"12","school":"6"},{"start_time":1551881723496,"click_time":1551881725080,"finger_time":1551881724480,"fix_duration":914.1829831479704,"trial":37,"RT":984,"MT":600,"sideResp":2,"stimulus":"img/500/equaldotanddens/L/13_Ratio_500_L_12_R_6.png","xmouse":[620,620,620,620,620,620,620,620,620,620,620,620,620,620,620,620,620,620,620,620,620,620,620,620,620,620,620,620,620,619,618,617,617,617,617,617,617,617,617,617,617,617,617,617,617,617,617,620,622,628,632,633,634,636,640,642,648,656,666,698,722,747,777,800,816,834,837,837,837,837,837,838,839,840,844,847,852,855,859,866],"ymouse":[480,480,480,480,480,480,480,480,480,480,480,480,480,480,480,480,480,480,480,480,480,480,480,480,480,480,480,479,477,468,464,460,459,459,459,459,459,459,459,459,459,459,459,459,457,452,441,425,409,386,376,371,367,361,352,349,335,321,304,262,236,212,189,173,164,155,154,154,154,154,154,153,152,150,143,136,126,119,110,95],"timestamp_mouse":[3,24,44,63,83,104,124,145,163,183,203,224,244,264,285,304,324,343,365,383,403,423,444,463,484,503,523,544,563,583,603,624,644,663,683,703,724,743,765,784,803,823,844,863,883,904,924,944,963,984,1004,1023,1043,1064,1084,1104,1124,1143,1163,1183,1205,1223,1244,1265,1283,1304,1325,1344,1364,1383,1403,1424,1445,1463,1483,1503,1524,1543,1563,1584],"xSR":583.2000122070312,"ySR":401.440023803711,"xT1":329.9200073242187,"yT1":0,"xT2":836.4800170898437,"yT2":0,"toosoon":0,"cond_shown":"equaldotanddens","ratio_trial":500,"smaller_num":"6","larger_num":"12","correct_side":1,"subjID":"nathaliamendezrueda27","gender":"1","age":"12","school":"6"},{"start_time":1551881730425,"click_time":1551881731239,"finger_time":1551881731059,"fix_duration":844.7915290028358,"trial":38,"RT":634,"MT":180,"sideResp":2,"stimulus":"img/250/equaldotanddens/R/6_Ratio_250_L_6_R_24.png","xmouse":[584,584,584,584,584,584,584,584,584,584,584,584,584,584,584,584,584,584,584,584,584,584,584,584,584,584,584,586,593,606,619,636,673,696,711,723,738,797,817,828,839],"ymouse":[443,443,443,443,443,443,443,443,443,443,443,443,443,443,443,443,443,443,443,443,443,443,443,443,443,443,443,440,432,420,405,389,348,324,304,287,274,203,161,122,85],"timestamp_mouse":[15,36,55,75,94,115,135,155,175,194,215,236,254,274,294,315,334,355,375,394,414,436,454,476,494,514,536,554,574,595,615,634,655,674,694,714,736,755,775,794,814],"xSR":583.2000122070312,"ySR":401.440023803711,"xT1":329.9200073242187,"yT1":0,"xT2":836.4800170898437,"yT2":0,"toosoon":0,"cond_shown":"equaldotanddens","ratio_trial":250,"smaller_num":"6","larger_num":"24","correct_side":2,"subjID":"nathaliamendezrueda27","gender":"1","age":"12","school":"6"},{"start_time":1551881733771,"click_time":1551881734979,"finger_time":1551881734519,"fix_duration":250,"trial":39,"RT":748,"MT":460,"sideResp":2,"stimulus":"img/500/equaldotsize/R/3_Ratio_500_L_10_R_20.png","xmouse":[606,606,606,606,606,604,604,604,604,604,604,604,604,604,604,604,604,604,604,604,604,604,604,604,604,604,604,604,604,604,604,604,604,604,604,605,614,631,655,677,707,715,718,721,724,730,732,734,736,737,738,739,739,739,739,740,745,760,779,808,838],"ymouse":[460,460,460,460,460,460,460,460,460,460,460,460,460,460,460,460,460,460,460,460,460,460,460,460,460,460,460,460,460,460,460,460,460,460,460,450,431,400,357,313,250,222,201,180,160,120,104,88,77,72,68,67,66,66,66,66,66,68,71,72,72],"timestamp_mouse":[10,37,50,70,89,109,128,148,170,189,209,228,250,269,288,308,328,349,370,389,408,428,448,468,489,510,528,548,569,588,608,628,650,668,689,708,728,748,768,789,808,830,849,869,890,909,929,948,969,988,1009,1029,1049,1069,1089,1108,1129,1149,1168,1189,1208],"xSR":583.2000122070312,"ySR":401.440023803711,"xT1":329.9200073242187,"yT1":0,"xT2":836.4800170898437,"yT2":0,"toosoon":0,"cond_shown":"equaldotsize","ratio_trial":500,"smaller_num":"10","larger_num":"20","correct_side":2,"subjID":"nathaliamendezrueda27","gender":"1","age":"12","school":"6"},{"start_time":1551881737617,"click_time":1551881738400,"finger_time":1551881738340,"fix_duration":1136.284180996602,"trial":40,"RT":723,"MT":60,"sideResp":1,"stimulus":"img/900/equaldotanddens/L/8_Ratio_900_L_20_R_18.png","xmouse":[614,614,614,614,614,614,614,614,614,614,614,614,614,614,614,614,614,614,614,614,614,614,614,614,614,614,614,614,614,614,614,614,614,613,609,600,586,562,473,396],"ymouse":[431,431,431,431,431,431,431,431,431,431,431,431,431,431,431,431,431,431,431,431,431,431,431,431,431,431,431,431,431,431,431,431,431,432,427,414,397,359,199,86],"timestamp_mouse":[3,30,42,62,84,102,123,143,162,182,203,222,243,262,283,302,323,344,362,382,402,423,442,462,482,503,522,542,563,583,602,623,642,663,682,702,723,744,762,783],"xSR":583.2000122070312,"ySR":401.440023803711,"xT1":329.9200073242187,"yT1":0,"xT2":836.4800170898437,"yT2":0,"toosoon":0,"cond_shown":"equaldotanddens","ratio_trial":900,"smaller_num":"18","larger_num":"20","correct_side":1,"subjID":"nathaliamendezrueda27","gender":"1","age":"12","school":"6"},{"start_time":1551881742066,"click_time":1551881742780,"finger_time":1551881742721,"fix_duration":1345.3023671111262,"trial":41,"RT":655,"MT":59,"sideResp":1,"stimulus":"img/250/equaldotsize/L/5_Ratio_250_L_24_R_6.png","xmouse":[629,628,626,625,624,620,620,620,620,620,620,620,620,620,620,620,620,619,619,619,619,619,619,619,619,619,619,618,617,615,605,592,564,518,456,331],"ymouse":[458,460,464,467,470,476,478,479,479,479,479,479,479,479,479,479,480,480,480,480,480,480,480,480,480,480,480,480,479,477,466,448,407,337,248,90],"timestamp_mouse":[16,43,53,74,93,113,133,153,173,194,214,234,253,275,294,314,334,353,375,394,415,434,454,473,495,514,534,553,574,593,613,634,655,673,693,713],"xSR":583.2000122070312,"ySR":401.440023803711,"xT1":329.9200073242187,"yT1":0,"xT2":836.4800170898437,"yT2":0,"toosoon":0,"cond_shown":"equaldotsize","ratio_trial":250,"smaller_num":"6","larger_num":"24","correct_side":1,"subjID":"nathaliamendezrueda27","gender":"1","age":"12","school":"6"},{"start_time":1551881744090,"click_time":1551881746080,"finger_time":1551881745980,"fix_duration":250,"trial":42,"RT":1890,"MT":100,"sideResp":1,"stimulus":"img/500/randomdotsizeEA/L/7_Ratio_500_L_10_R_5.png","xmouse":[584,584,584,584,584,584,584,584,584,584,584,584,584,584,584,584,584,584,584,584,584,584,584,584,584,584,584,584,584,584,584,584,584,584,584,584,584,584,584,584,584,584,584,584,584,584,584,584,584,584,584,584,584,584,584,584,584,584,584,584,584,584,584,584,584,584,584,584,584,584,584,584,584,584,588,588,588,588,589,590,590,590,590,590,590,590,590,590,590,590,590,591,588,584,529,496,468,450,435,416],"ymouse":[450,450,450,450,450,450,450,450,450,450,450,450,450,450,450,450,450,450,450,450,450,450,450,450,450,450,450,450,450,450,450,450,450,450,450,450,450,450,450,450,450,450,450,450,450,450,450,450,450,450,450,450,450,450,450,450,450,450,450,450,450,450,450,450,450,450,450,450,450,450,450,450,450,451,453,453,453,453,454,455,455,455,455,455,455,455,455,455,455,455,455,452,444,425,310,254,207,170,133,92],"timestamp_mouse":[9,30,51,70,89,109,130,151,171,190,211,230,251,269,289,311,330,350,369,390,409,430,449,469,490,511,529,551,569,590,610,629,651,670,690,710,730,749,769,790,811,830,850,871,890,910,930,949,970,990,1009,1030,1051,1069,1089,1109,1129,1150,1171,1189,1211,1230,1251,1269,1289,1311,1331,1349,1369,1390,1409,1429,1450,1470,1489,1510,1530,1549,1569,1590,1611,1630,1649,1670,1690,1710,1730,1751,1770,1789,1810,1830,1849,1871,1890,1909,1929,1950,1970,1990],"xSR":583.2000122070312,"ySR":401.440023803711,"xT1":329.9200073242187,"yT1":0,"xT2":836.4800170898437,"yT2":0,"toosoon":0,"cond_shown":"randomdotsizeEA","ratio_trial":500,"smaller_num":"5","larger_num":"10","correct_side":1,"subjID":"nathaliamendezrueda27","gender":"1","age":"12","school":"6"},{"start_time":1551881749264,"click_time":1551881750400,"finger_time":1551881749979,"fix_duration":1463.117144507279,"trial":43,"RT":715,"MT":421,"sideResp":2,"stimulus":"img/250/equaldotsize/R/4_Ratio_250_L_3_R_12.png","xmouse":[604,604,604,604,604,604,604,604,604,604,604,604,604,604,604,604,604,604,604,604,604,604,604,604,604,604,604,604,604,604,604,604,604,604,608,644,666,693,724,740,749,750,750,750,751,762,771,776,780,786,808,824,843,862,876,887,890],"ymouse":[407,407,407,407,407,407,407,407,407,407,407,407,407,407,407,407,407,407,407,407,407,407,407,407,407,407,407,407,407,407,407,407,407,407,405,343,306,268,228,206,197,196,196,196,196,191,188,187,185,184,172,164,152,138,127,108,96],"timestamp_mouse":[16,35,56,75,96,116,135,157,175,195,216,236,257,276,296,317,335,357,376,395,416,435,455,475,497,515,537,557,575,595,616,636,656,675,697,715,737,756,776,795,815,835,856,876,897,916,936,955,975,996,1016,1036,1056,1075,1097,1115,1136],"xSR":583.2000122070312,"ySR":401.440023803711,"xT1":329.9200073242187,"yT1":0,"xT2":836.4800170898437,"yT2":0,"toosoon":0,"cond_shown":"equaldotsize","ratio_trial":250,"smaller_num":"3","larger_num":"12","correct_side":2,"subjID":"nathaliamendezrueda27","gender":"1","age":"12","school":"6"},{"start_time":1551881753124,"click_time":1551881753859,"finger_time":1551881753579,"fix_duration":582.6180020219768,"trial":44,"RT":455,"MT":280,"sideResp":2,"stimulus":"img/250/equaldotsize/R/4_Ratio_250_L_3_R_12.png","xmouse":[590,590,590,590,590,590,590,590,590,590,590,590,590,590,590,590,590,590,589,588,588,588,592,599,608,618,635,682,700,716,729,741,779,796,814,830,840],"ymouse":[440,440,440,440,440,440,440,440,440,440,440,440,440,440,440,440,440,440,439,434,423,408,353,324,293,260,223,156,137,126,117,110,87,78,70,64,60],"timestamp_mouse":[16,36,56,76,96,116,135,155,176,195,216,236,255,276,297,316,336,356,376,395,416,437,455,475,496,516,535,555,576,596,615,636,656,676,695,716,735],"xSR":583.2000122070312,"ySR":401.440023803711,"xT1":329.9200073242187,"yT1":0,"xT2":836.4800170898437,"yT2":0,"toosoon":0,"cond_shown":"equaldotsize","ratio_trial":250,"smaller_num":"3","larger_num":"12","correct_side":2,"subjID":"nathaliamendezrueda27","gender":"1","age":"12","school":"6"},{"start_time":1551881755531,"click_time":1551881757279,"finger_time":1551881755921,"fix_duration":250,"trial":45,"RT":390,"MT":1358,"sideResp":1,"stimulus":"img/900/equaldotsize/L/1_Ratio_900_L_10_R_9.png","xmouse":[665,665,665,665,665,665,665,665,665,665,665,665,665,665,665,665,664,662,656,651,644,639,630,628,628,628,627,605,580,544,498,444,320,242,212,198,194,192,191,191,191,191,191,191,191,191,193,211,231,252,272,288,302,303,304,307,309,316,319,320,320,320,320,320,320,320,320,320,320,320,320,320,320,320,320,320,320,320,320,320,320,320,320,320,320,320,321,340],"ymouse":[494,494,494,494,494,494,494,494,494,494,494,494,494,494,494,494,491,473,443,399,360,324,292,288,288,288,286,267,248,226,200,165,94,50,32,25,21,13,10,9,9,9,9,9,9,9,12,28,43,56,68,76,78,78,77,72,65,45,39,37,37,37,37,37,37,37,37,37,37,37,37,37,37,37,37,37,37,37,37,37,37,37,37,37,37,37,36,43],"timestamp_mouse":[9,37,48,68,88,109,129,149,168,188,208,230,248,269,288,308,328,348,368,390,408,430,448,468,488,508,528,548,568,589,609,628,649,668,688,709,729,748,769,789,809,829,850,870,889,908,928,948,968,988,1009,1029,1049,1068,1088,1110,1129,1148,1168,1188,1208,1229,1249,1268,1288,1309,1330,1348,1368,1389,1409,1428,1448,1469,1489,1509,1530,1549,1569,1588,1609,1630,1649,1668,1690,1709,1728,1748],"xSR":583.2000122070312,"ySR":401.440023803711,"xT1":329.9200073242187,"yT1":0,"xT2":836.4800170898437,"yT2":0,"toosoon":0,"cond_shown":"equaldotsize","ratio_trial":900,"smaller_num":"9","larger_num":"10","correct_side":1,"subjID":"nathaliamendezrueda27","gender":"1","age":"12","school":"6"},{"start_time":1551881759616,"click_time":1551881760679,"finger_time":1551881760499,"fix_duration":1014.0393213631997,"trial":46,"RT":883,"MT":180,"sideResp":2,"stimulus":"img/900/equaldotanddens/R/9_Ratio_900_L_18_R_20.png","xmouse":[596,596,596,596,596,596,596,596,596,596,596,596,596,596,596,596,596,596,598,599,600,600,600,601,601,602,602,602,603,604,604,604,604,604,604,604,604,604,604,605,606,607,609,614,619,625,632,641,688,722,767,813,857,929],"ymouse":[480,480,480,480,480,480,480,480,480,480,480,480,480,480,480,480,480,480,472,468,464,461,458,452,452,449,447,446,442,440,439,439,439,439,439,439,439,438,433,432,429,424,418,403,393,380,365,349,296,266,226,191,152,92],"timestamp_mouse":[3,30,44,63,83,103,124,144,164,184,203,223,244,264,283,304,325,343,363,383,403,424,445,463,483,504,525,543,563,585,603,624,644,663,685,703,725,745,764,783,803,825,844,863,883,904,923,944,964,984,1004,1023,1043,1063],"xSR":583.2000122070312,"ySR":401.440023803711,"xT1":329.9200073242187,"yT1":0,"xT2":836.4800170898437,"yT2":0,"toosoon":0,"cond_shown":"equaldotanddens","ratio_trial":900,"smaller_num":"18","larger_num":"20","correct_side":2,"subjID":"nathaliamendezrueda27","gender":"1","age":"12","school":"6"},{"start_time":1551881762168,"click_time":1551881763300,"finger_time":1551881763040,"fix_duration":287.9876608400751,"trial":47,"RT":872,"MT":260,"sideResp":2,"stimulus":"img/750/randomdotsizeEA/R/15_Ratio_750_L_9_R_12.png","xmouse":[672,672,672,672,672,672,672,672,672,672,672,672,672,672,672,672,672,672,672,672,672,672,672,672,672,672,672,672,672,672,672,672,672,672,672,672,672,672,672,672,672,672,673,679,690,730,752,772,791,805,820,824,825,826,828,835,837],"ymouse":[427,427,427,427,427,427,427,427,427,427,427,427,427,427,427,427,427,427,427,427,427,427,427,427,427,427,427,427,427,427,427,427,427,427,427,427,427,427,427,427,427,427,414,389,346,255,213,179,147,124,96,88,86,84,81,70,64],"timestamp_mouse":[12,31,52,72,92,111,132,153,171,192,211,231,252,271,291,312,332,352,371,391,411,433,451,472,492,512,532,553,572,592,611,631,653,673,692,712,732,751,772,792,811,832,852,872,892,911,932,951,971,991,1012,1032,1052,1071,1091,1112,1132],"xSR":583.2000122070312,"ySR":401.440023803711,"xT1":329.9200073242187,"yT1":0,"xT2":836.4800170898437,"yT2":0,"toosoon":0,"cond_shown":"randomdotsizeEA","ratio_trial":750,"smaller_num":"9","larger_num":"12","correct_side":2,"subjID":"nathaliamendezrueda27","gender":"1","age":"12","school":"6"},{"start_time":1551881765095,"click_time":1551881766459,"finger_time":1551881765760,"fix_duration":714.7747095156888,"trial":48,"RT":665,"MT":699,"sideResp":2,"stimulus":"img/250/equaldotanddens/R/10_Ratio_250_L_4_R_16.png","xmouse":[632,632,632,632,632,632,632,632,632,632,632,632,632,632,632,632,632,632,632,632,632,632,632,632,632,632,632,632,632,632,632,632,636,643,699,746,768,781,785,786,787,787,787,789,791,794,798,802,804,810,814,818,824,831,836,836,836,836,836,836,836,836,836,836,836,836,836,836,839],"ymouse":[432,432,432,432,432,432,432,432,432,432,432,432,432,432,432,432,432,432,432,432,432,432,432,432,432,432,432,432,432,432,432,432,415,399,292,208,176,156,148,147,146,146,144,141,135,127,120,112,104,95,89,84,74,65,59,58,58,58,58,58,58,58,58,58,58,58,58,57,54],"timestamp_mouse":[4,34,45,65,84,104,124,145,164,186,205,225,244,265,284,304,326,345,365,385,405,424,445,465,484,505,525,544,565,584,604,625,644,665,684,705,724,745,766,785,804,824,844,865,884,905,924,944,964,985,1005,1024,1044,1064,1085,1105,1125,1144,1165,1185,1205,1224,1244,1266,1286,1305,1324,1344,1364],"xSR":583.2000122070312,"ySR":401.440023803711,"xT1":329.9200073242187,"yT1":0,"xT2":836.4800170898437,"yT2":0,"toosoon":0,"cond_shown":"equaldotanddens","ratio_trial":250,"smaller_num":"4","larger_num":"16","correct_side":2,"subjID":"nathaliamendezrueda27","gender":"1","age":"12","school":"6"},{"start_time":1551881769883,"click_time":1551881770820,"finger_time":1551881770579,"fix_duration":1401.4554004789393,"trial":49,"RT":696,"MT":241,"sideResp":1,"stimulus":"img/750/equaldotanddens/L/8_Ratio_750_L_4_R_3.png","xmouse":[666,666,666,666,666,666,666,666,666,666,666,666,666,666,666,666,666,666,666,666,666,666,666,666,666,666,666,666,666,666,666,659,655,641,596,573,557,547,540,538,537,533,524,504,457,432,423],"ymouse":[428,428,428,428,428,428,428,428,428,428,428,428,428,428,428,428,428,428,428,428,428,428,428,428,428,428,428,428,428,428,428,423,418,403,355,329,312,300,292,289,287,277,255,217,134,90,72],"timestamp_mouse":[17,37,57,77,98,117,136,158,177,197,218,236,258,276,296,317,336,356,376,397,416,437,456,477,497,516,538,558,576,596,618,638,656,676,696,716,736,757,778,797,816,837,857,877,896,916,937],"xSR":583.2000122070312,"ySR":401.440023803711,"xT1":329.9200073242187,"yT1":0,"xT2":836.4800170898437,"yT2":0,"toosoon":0,"cond_shown":"equaldotanddens","ratio_trial":750,"smaller_num":"3","larger_num":"4","correct_side":1,"subjID":"nathaliamendezrueda27","gender":"1","age":"12","school":"6"},{"start_time":1551881773821,"click_time":1551881774859,"finger_time":1551881774580,"fix_duration":759.3199773246791,"trial":50,"RT":759,"MT":279,"sideResp":2,"stimulus":"img/900/equaldotsize/R/5_Ratio_900_L_9_R_10.png","xmouse":[634,634,634,634,634,634,634,634,634,634,634,634,634,634,634,634,634,634,634,634,634,635,635,635,635,635,635,635,635,635,635,635,635,635,637,647,660,679,732,738,740,742,743,749,759,773,789,808,844,860,868,876,883],"ymouse":[477,477,477,477,477,477,477,477,477,477,477,477,477,477,477,477,477,477,477,477,477,477,477,477,477,476,476,476,476,476,476,476,476,475,469,456,436,410,338,330,326,324,322,310,297,278,252,225,176,145,129,113,99],"timestamp_mouse":[1,28,38,60,80,98,119,140,159,178,199,218,238,260,278,300,318,339,359,379,399,418,439,460,478,499,518,538,558,579,599,618,639,658,679,698,718,739,759,779,799,820,840,858,879,899,920,938,958,979,998,1018,1038],"xSR":583.2000122070312,"ySR":401.440023803711,"xT1":329.9200073242187,"yT1":0,"xT2":836.4800170898437,"yT2":0,"toosoon":0,"cond_shown":"equaldotsize","ratio_trial":900,"smaller_num":"9","larger_num":"10","correct_side":2,"subjID":"nathaliamendezrueda27","gender":"1","age":"12","school":"6"},{"start_time":1551881776866,"click_time":1551881779280,"finger_time":1551881778979,"fix_duration":1166.1217802242513,"trial":51,"RT":2113,"MT":301,"sideResp":1,"stimulus":"img/750/equaldotanddens/R/7_Ratio_750_L_3_R_4.png","xmouse":[619,619,619,618,618,618,618,618,618,618,618,618,618,618,618,618,618,618,618,618,618,618,618,618,618,618,618,618,618,618,618,618,618,618,618,618,618,618,618,618,618,618,618,618,618,618,618,618,618,618,618,618,618,618,618,618,618,618,618,618,618,618,618,618,618,618,618,618,618,618,618,618,618,618,618,618,618,618,618,618,618,618,618,618,618,618,618,618,618,618,618,618,618,618,618,618,620,620,620,620,620,620,620,620,616,595,579,552,528,513,508,508,508,508,508,482,467,454,444,432,412],"ymouse":[441,441,441,442,441,440,440,440,440,440,440,440,440,440,440,440,440,440,440,440,440,440,440,440,440,440,440,440,440,440,440,440,440,440,440,440,440,440,440,440,440,440,440,440,440,440,440,440,440,440,440,440,440,440,440,440,440,440,440,440,440,440,440,440,440,440,440,440,440,440,440,440,440,440,440,440,440,440,440,440,440,440,440,440,440,440,440,440,440,440,440,440,440,440,440,435,422,422,422,422,422,421,420,415,404,336,288,225,173,142,132,132,132,131,131,117,112,109,108,104,97],"timestamp_mouse":[13,34,55,73,93,114,134,154,174,193,213,235,254,274,293,313,334,354,374,393,415,433,453,474,493,513,533,553,573,594,613,633,654,674,693,713,733,754,775,793,813,833,855,874,894,914,933,953,973,995,1013,1033,1053,1074,1093,1114,1134,1154,1174,1194,1213,1233,1254,1275,1294,1314,1334,1353,1374,1393,1414,1433,1453,1474,1493,1513,1534,1555,1573,1594,1614,1634,1653,1674,1694,1714,1735,1754,1774,1794,1814,1834,1853,1875,1893,1914,1933,1954,1974,1994,2013,2033,2053,2073,2094,2113,2134,2153,2174,2194,2215,2234,2253,2273,2293,2314,2334,2353,2373,2393,2414],"xSR":583.2000122070312,"ySR":401.440023803711,"xT1":329.9200073242187,"yT1":0,"xT2":836.4800170898437,"yT2":0,"toosoon":0,"cond_shown":"equaldotanddens","ratio_trial":750,"smaller_num":"3","larger_num":"4","correct_side":2,"subjID":"nathaliamendezrueda27","gender":"1","age":"12","school":"6"},{"start_time":1551881799966,"click_time":1551881803020,"finger_time":1551881802079,"fix_duration":885.1722154134509,"trial":52,"RT":2113,"MT":941,"sideResp":1,"stimulus":"img/750/randomdotsizeEA/L/9_Ratio_750_L_4_R_3.png","xmouse":[613,613,613,613,613,613,613,613,613,613,613,613,613,613,613,613,613,613,613,613,613,613,613,613,613,613,613,613,613,613,613,613,613,613,613,613,613,613,613,613,613,613,613,613,613,613,613,613,613,613,613,613,613,613,613,613,613,613,613,613,613,613,613,613,613,613,613,613,613,613,613,613,613,613,613,613,613,613,613,613,613,613,613,613,613,613,613,613,613,613,613,613,613,613,613,613,613,613,613,613,613,613,613,613,610,575,529,493,474,468,466,466,466,466,466,496,502,508,522,545,564,564,564,564,564,567,567,567,567,567,569,569,569,560,547,516,508,507,507,507,497,486,483,482,480,476,471,467,466,466,463,448,411],"ymouse":[424,424,424,424,424,424,424,424,424,424,424,424,424,424,424,424,424,424,424,424,424,424,424,424,424,424,424,424,424,424,424,424,424,424,424,424,424,424,424,424,424,424,424,424,424,424,424,424,424,424,424,424,424,424,424,424,424,424,424,424,424,424,424,424,424,424,424,424,424,424,424,424,424,424,424,424,424,424,424,424,424,424,424,424,424,424,424,424,424,424,424,424,424,424,424,424,424,424,424,424,424,424,424,424,420,392,361,343,335,332,332,332,332,332,323,201,187,186,174,153,134,133,131,118,108,103,102,102,102,102,100,100,98,96,94,92,92,92,92,92,91,89,88,88,86,80,76,73,72,72,72,72,67],"timestamp_mouse":[15,34,55,73,94,114,133,154,174,195,213,233,254,275,293,313,335,355,375,395,414,435,455,473,494,513,534,554,574,594,614,634,654,674,694,714,734,754,773,795,814,835,855,875,893,913,935,953,974,995,1014,1033,1054,1075,1094,1114,1135,1154,1173,1195,1214,1234,1255,1275,1295,1314,1335,1354,1374,1393,1415,1435,1455,1475,1494,1514,1535,1555,1574,1595,1614,1634,1655,1674,1695,1713,1734,1755,1774,1794,1815,1834,1855,1875,1894,1915,1933,1955,1974,1995,2014,2034,2055,2075,2094,2113,2134,2154,2173,2194,2214,2235,2254,2273,2294,2313,2333,2354,2374,2395,2414,2435,2454,2475,2494,2514,2535,2555,2575,2595,2614,2635,2654,2675,2695,2714,2735,2755,2774,2794,2814,2834,2854,2873,2893,2914,2933,2954,2974,2994,3014,3034,3054],"xSR":583.2000122070312,"ySR":401.440023803711,"xT1":329.9200073242187,"yT1":0,"xT2":836.4800170898437,"yT2":0,"toosoon":0,"cond_shown":"randomdotsizeEA","ratio_trial":750,"smaller_num":"3","larger_num":"4","correct_side":1,"subjID":"nathaliamendezrueda27","gender":"1","age":"12","school":"6"},{"start_time":1551881806599,"click_time":1551881807520,"finger_time":1551881807320,"fix_duration":857.4276135210256,"trial":53,"RT":721,"MT":200,"sideResp":2,"stimulus":"img/750/equaldotsize/R/15_Ratio_750_L_9_R_12.png","xmouse":[656,656,656,656,656,656,656,656,656,656,656,656,656,656,656,656,656,656,656,656,656,656,656,656,656,656,656,656,656,656,656,656,656,656,656,662,679,713,750,789,798,804,810,816,827,833,839],"ymouse":[438,438,438,438,438,438,438,438,438,438,438,438,438,438,438,438,438,438,438,438,438,438,438,438,438,438,438,438,438,438,438,438,438,438,432,411,358,284,220,158,137,124,112,100,80,66,54],"timestamp_mouse":[4,32,42,62,82,101,121,142,161,181,201,221,242,261,282,301,321,341,362,382,402,422,442,461,481,501,522,541,562,581,601,621,641,661,681,700,721,741,761,780,801,820,841,861,880,900,921],"xSR":583.2000122070312,"ySR":401.440023803711,"xT1":329.9200073242187,"yT1":0,"xT2":836.4800170898437,"yT2":0,"toosoon":0,"cond_shown":"equaldotsize","ratio_trial":750,"smaller_num":"9","larger_num":"12","correct_side":2,"subjID":"nathaliamendezrueda27","gender":"1","age":"12","school":"6"},{"start_time":1551881809595,"click_time":1551881810780,"finger_time":1551881810461,"fix_duration":494.50230304899634,"trial":54,"RT":866,"MT":319,"sideResp":2,"stimulus":"img/250/equaldotanddens/R/8_Ratio_250_L_1_R_4.png","xmouse":[605,605,605,605,605,605,605,605,605,605,605,605,605,605,605,605,605,605,605,605,605,605,605,605,605,605,605,605,605,605,605,605,605,605,605,605,605,605,605,605,608,618,633,658,739,766,784,796,804,820,827,831,833,836,844,848,850,852,854,860],"ymouse":[464,464,464,464,464,464,464,464,464,464,464,464,464,464,464,464,464,464,464,464,464,464,464,463,456,448,444,443,443,443,443,443,443,443,443,443,443,443,443,443,439,430,416,394,317,285,262,246,234,210,196,186,178,167,144,135,125,111,100,79],"timestamp_mouse":[6,31,45,65,84,105,125,146,166,185,206,225,246,265,284,304,325,346,366,385,406,425,445,465,485,506,525,546,566,585,605,625,645,665,684,705,725,744,765,785,806,825,845,866,885,904,925,945,966,985,1005,1025,1046,1065,1085,1105,1126,1145,1166,1185],"xSR":583.2000122070312,"ySR":401.440023803711,"xT1":329.9200073242187,"yT1":0,"xT2":836.4800170898437,"yT2":0,"toosoon":0,"cond_shown":"equaldotanddens","ratio_trial":250,"smaller_num":"1","larger_num":"4","correct_side":2,"subjID":"nathaliamendezrueda27","gender":"1","age":"12","school":"6"},{"start_time":1551881811951,"click_time":1551881813140,"finger_time":1551881812299,"fix_duration":250,"trial":55,"RT":348,"MT":841,"sideResp":2,"stimulus":"img/500/equaldotsize/R/12_Ratio_500_L_1_R_2.png","xmouse":[656,656,656,656,656,656,656,656,656,656,656,656,656,656,656,655,654,651,648,648,646,646,645,645,645,645,645,645,646,652,661,687,699,711,726,740,768,776,784,791,796,808,808,810,810,812,814,815,817,819,820,823,828,830,832,832,834,835,836,837],"ymouse":[428,428,428,428,428,428,428,428,428,428,428,428,428,428,428,428,408,384,367,357,350,340,324,313,305,300,292,286,280,272,260,235,223,212,203,193,173,166,159,148,136,114,110,105,102,98,90,85,79,76,72,70,69,68,68,68,68,68,68,68],"timestamp_mouse":[9,35,49,69,89,108,129,149,169,189,210,228,249,269,289,310,329,348,369,388,410,428,449,469,489,510,529,549,569,589,610,629,650,669,689,708,730,750,769,789,810,829,848,869,889,909,929,949,968,988,1010,1028,1049,1070,1089,1110,1129,1148,1170,1188],"xSR":583.2000122070312,"ySR":401.440023803711,"xT1":329.9200073242187,"yT1":0,"xT2":836.4800170898437,"yT2":0,"toosoon":0,"cond_shown":"equaldotsize","ratio_trial":500,"smaller_num":"1","larger_num":"2","correct_side":2,"subjID":"nathaliamendezrueda27","gender":"1","age":"12","school":"6"},{"start_time":1551881814633,"click_time":1551881815500,"finger_time":1551881815119,"fix_duration":551.0747128926729,"trial":56,"RT":486,"MT":381,"sideResp":2,"stimulus":"img/500/equaldotanddens/R/2_Ratio_500_L_3_R_6.png","xmouse":[666,666,666,666,666,666,666,666,666,666,666,666,666,666,666,666,666,666,666,666,666,666,668,674,683,697,710,743,756,768,779,788,804,812,819,825,830,836,837,840,841,843,844,844],"ymouse":[436,436,436,436,436,436,436,436,436,436,436,436,436,436,436,436,436,436,436,436,436,435,422,404,385,365,348,312,294,276,258,241,212,199,187,173,161,132,122,113,109,105,101,99],"timestamp_mouse":[7,26,48,67,87,107,127,147,167,187,207,227,247,267,287,308,327,347,367,387,407,427,447,468,486,507,527,547,567,588,607,626,646,668,687,707,728,747,766,787,808,827,846,867],"xSR":583.2000122070312,"ySR":401.440023803711,"xT1":329.9200073242187,"yT1":0,"xT2":836.4800170898437,"yT2":0,"toosoon":0,"cond_shown":"equaldotanddens","ratio_trial":500,"smaller_num":"3","larger_num":"6","correct_side":2,"subjID":"nathaliamendezrueda27","gender":"1","age":"12","school":"6"},{"start_time":1551881817409,"click_time":1551881818740,"finger_time":1551881818479,"fix_duration":947.7694382278042,"trial":57,"RT":1070,"MT":261,"sideResp":1,"stimulus":"img/750/equaldotsize/L/10_Ratio_750_L_4_R_3.png","xmouse":[658,658,658,658,658,658,658,658,658,658,658,658,658,658,658,658,658,658,658,658,658,658,658,658,658,658,658,658,658,658,658,658,658,658,658,658,658,658,658,658,658,658,658,658,658,658,658,658,658,658,658,656,652,628,607,578,544,510,464,452,446,443,440,435,434,432,429],"ymouse":[424,424,424,424,424,424,424,424,424,424,424,424,424,424,424,424,424,424,424,424,424,424,424,424,424,424,424,424,424,424,424,424,424,424,424,424,424,424,424,424,424,424,424,424,424,424,424,424,424,424,424,424,418,388,364,333,298,256,199,176,161,150,138,120,112,101,86],"timestamp_mouse":[11,31,52,72,92,112,132,151,170,192,210,232,252,271,292,311,332,352,371,391,412,430,452,471,492,511,531,551,571,591,612,632,651,672,690,712,730,751,771,791,811,831,850,871,891,911,932,950,971,991,1011,1030,1051,1070,1091,1111,1131,1151,1170,1191,1212,1232,1250,1270,1290,1311,1331],"xSR":583.2000122070312,"ySR":401.440023803711,"xT1":329.9200073242187,"yT1":0,"xT2":836.4800170898437,"yT2":0,"toosoon":0,"cond_shown":"equaldotsize","ratio_trial":750,"smaller_num":"3","larger_num":"4","correct_side":1,"subjID":"nathaliamendezrueda27","gender":"1","age":"12","school":"6"},{"start_time":1551881827392,"click_time":1551881828481,"finger_time":1551881828039,"fix_duration":250,"trial":58,"RT":647,"MT":442,"sideResp":1,"stimulus":"img/250/equaldotsize/L/3_Ratio_250_L_8_R_2.png","xmouse":[600,600,600,600,600,600,600,600,600,600,600,600,600,600,600,600,600,600,600,600,600,600,600,600,600,600,600,600,600,600,600,596,589,584,570,568,567,566,566,565,560,554,548,543,533,533,532,529,521,504,485,473,457,441,403],"ymouse":[487,487,487,487,487,487,487,487,487,487,487,487,487,487,487,487,487,487,487,487,487,487,487,487,487,487,487,487,487,477,452,410,368,321,225,208,200,199,199,195,176,162,149,140,128,128,127,123,114,100,93,92,90,90,90],"timestamp_mouse":[9,34,49,69,89,108,128,148,168,188,209,228,249,269,288,308,328,348,368,388,408,428,449,467,488,508,528,548,568,588,609,629,647,667,688,707,729,749,768,787,807,828,849,869,888,908,928,948,969,987,1007,1028,1049,1067,1088],"xSR":583.2000122070312,"ySR":401.440023803711,"xT1":329.9200073242187,"yT1":0,"xT2":836.4800170898437,"yT2":0,"toosoon":0,"cond_shown":"equaldotsize","ratio_trial":250,"smaller_num":"2","larger_num":"8","correct_side":1,"subjID":"nathaliamendezrueda27","gender":"1","age":"12","school":"6"},{"start_time":1551881837731,"click_time":1551881839079,"finger_time":1551881838439,"fix_duration":610.7257519980453,"trial":59,"RT":708,"MT":640,"sideResp":1,"stimulus":"img/750/equaldotanddens/L/6_Ratio_750_L_24_R_18.png","xmouse":[632,632,632,632,632,632,632,632,632,632,632,632,632,632,632,632,632,632,632,632,632,632,632,632,632,632,632,632,632,632,632,632,632,634,636,636,636,610,599,594,592,592,591,590,586,580,572,552,544,540,540,540,516,496,484,473,466,460,460,460,460,460,460,460,460,459,456,426],"ymouse":[465,465,465,465,465,465,465,465,465,465,465,465,465,465,465,465,465,465,465,465,465,465,465,465,465,465,465,465,465,465,465,465,465,452,412,348,260,96,72,64,61,60,58,56,52,46,40,29,25,24,24,24,52,74,88,98,104,107,107,107,107,108,108,108,108,108,108,90],"timestamp_mouse":[9,39,50,69,89,108,130,150,170,190,209,228,249,270,289,310,330,348,370,389,409,