[{"start_time":1551794814939,"click_time":1551794817349,"finger_time":1551794816748,"fix_duration":690.5865925839036,"trial":0,"RT":1809,"MT":601,"sideResp":2,"stimulus":"img/900/equaldotsize/R/7_Ratio_900_L_9_R_10.png","xmouse":[784,784,784,784,784,784,784,784,784,784,784,784,784,784,784,784,784,784,784,784,784,784,784,784,784,784,784,784,784,784,784,784,784,784,784,784,784,784,784,784,784,784,784,784,784,784,784,784,784,784,784,784,784,784,784,784,784,784,784,784,784,784,784,784,784,784,784,784,784,784,784,784,784,784,784,784,784,784,784,785,794,798,800,800,800,800,800,800,800,802,847,885,958,983,988,990,996,1008,1022,1031,1043,1049,1057,1068,1079,1104,1111,1114,1113,1113,1113,1113,1114,1115,1116,1116,1117,1114,1112,1110,1107],"ymouse":[491,491,491,491,491,491,491,491,491,491,491,491,491,491,491,491,491,491,491,491,491,491,491,491,491,491,491,491,491,491,491,491,491,491,491,491,491,491,491,491,491,491,491,491,491,491,491,491,491,491,491,491,491,491,491,491,491,491,491,491,491,491,491,491,491,491,491,491,491,491,491,491,491,491,491,491,491,491,491,489,489,489,490,490,490,490,490,490,490,490,467,442,412,392,376,344,304,281,266,257,239,230,216,204,192,167,156,138,129,128,126,125,124,123,121,120,116,107,104,101,96],"timestamp_mouse":[12,29,50,69,90,109,130,151,170,189,209,231,249,270,290,309,331,350,369,390,409,429,450,469,489,510,530,549,569,589,610,629,650,671,689,709,730,750,770,790,810,830,849,869,889,909,930,949,969,989,1010,1030,1049,1071,1089,1109,1129,1150,1169,1189,1210,1230,1250,1270,1290,1309,1329,1350,1369,1391,1410,1429,1450,1469,1489,1510,1530,1549,1570,1589,1609,1629,1649,1669,1689,1709,1729,1750,1769,1790,1809,1829,1850,1869,1889,1909,1929,1949,1970,1989,2009,2030,2049,2070,2091,2109,2129,2149,2170,2190,2210,2230,2250,2270,2290,2309,2329,2349,2369,2390,2410],"xSR":741.5,"ySR":469.95,"xT1":424.9,"yT1":0,"xT2":1058.1,"yT2":0,"toosoon":0,"cond_shown":"equaldotsize","ratio_trial":900,"smaller_num":"9","larger_num":"10","correct_side":2,"subjID":"NicolásGonzalezGarcía20","gender":"0","age":"12","school":"6","test":{"fix_dur":[250,1500],"timestim":300,"targets_dim":[100,100],"targets_relative_coord":[0.3,0.7],"size_stim":[880,420],"start_dim":[100,100],"size_start":[300,300],"size_fix":60,"samplingrate":20,"img_types":["equaldotsize","equaldotanddens","randomdotsizeEA"],"ratios":[250,500,750,900],"rep_conds":9,"nTrials":120,"trials_to_rest":500,"Trials_order":[93,37,14,108,27,114,5,71,50,18,102,73,100,85,58,42,54,33,96,11,83,118,2,57,36,19,51,23,92,10,0,31,12,29,16,82,40,89,3,69,112,107,56,81,98,6,86,113,94,78,38,68,63,53,15,75,101,106,13,88,8,45,59,110,35,76,84,117,67,30,80,74,44,1,104,32,26,77,24,105,87,47,61,111,91,4,103,43,95,79,70,66,55,62,52,22,20,9,64,97,116,41,48,49,46,25,34,17,99,115,7,72,28,60,65,109,39,21,119,90],"cond_shown":["equaldotsize","equaldotanddens","randomdotsizeEA","equaldotsize","equaldotsize","equaldotsize","randomdotsizeEA","randomdotsizeEA","randomdotsizeEA","equaldotsize","equaldotsize","equaldotanddens","equaldotanddens","equaldotanddens","equaldotanddens","equaldotsize","equaldotsize","equaldotsize","equaldotsize","randomdotsizeEA","randomdotsizeEA","equaldotanddens","randomdotsizeEA","equaldotsize","equaldotsize","equaldotanddens","equaldotsize","randomdotsizeEA","randomdotsizeEA","equaldotanddens","equaldotsize","equaldotanddens","equaldotsize","randomdotsizeEA","equaldotanddens","equaldotanddens","equaldotanddens","randomdotsizeEA","equaldotsize","equaldotsize","equaldotanddens","randomdotsizeEA","randomdotsizeEA","equaldotsize","randomdotsizeEA","equaldotsize","randomdotsizeEA","randomdotsizeEA","equaldotanddens","equaldotsize","randomdotsizeEA","randomdotsizeEA","equaldotsize","randomdotsizeEA","equaldotsize","equaldotsize","randomdotsizeEA","equaldotanddens","equaldotanddens","equaldotanddens","randomdotsizeEA","equaldotsize","randomdotsizeEA","randomdotsizeEA","randomdotsizeEA","equaldotanddens","equaldotsize","equaldotsize","equaldotanddens","equaldotsize","randomdotsizeEA","randomdotsizeEA","randomdotsizeEA","equaldotanddens","randomdotsizeEA","randomdotsizeEA","randomdotsizeEA","randomdotsizeEA","equaldotsize","equaldotsize","equaldotsize","randomdotsizeEA","equaldotanddens","equaldotsize","equaldotanddens","equaldotanddens","equaldotanddens","equaldotanddens","randomdotsizeEA","equaldotanddens","equaldotanddens","equaldotsize","equaldotanddens","randomdotsizeEA","equaldotanddens","equaldotanddens","randomdotsizeEA","equaldotsize","equaldotanddens","equaldotanddens","randomdotsizeEA","randomdotsizeEA","equaldotsize","equaldotanddens","equaldotanddens","equaldotanddens","equaldotanddens","randomdotsizeEA","equaldotsize","equaldotanddens","equaldotanddens","equaldotsize","equaldotanddens","equaldotsize","randomdotsizeEA","equaldotanddens","equaldotsize","equaldotsize","randomdotsizeEA","equaldotsize"],"ratio_trial":[900,250,250,250,500,750,500,900,250,750,750,250,500,250,900,750,750,900,250,900,900,900,250,900,250,750,500,900,750,900,250,750,250,500,500,900,500,500,500,900,500,900,750,900,250,750,250,500,900,750,250,750,500,500,500,500,500,900,250,500,750,900,900,250,900,500,250,900,750,750,750,250,750,250,750,750,250,500,250,900,500,900,250,500,750,500,750,750,900,750,900,750,750,250,500,900,750,900,500,250,750,500,250,250,900,250,900,500,500,750,750,250,500,250,500,250,500,900,900,750],"smaller_num":["9","2","2","2","1","3","9","18","3","15","12","3","1","3","18","9","15","9","4","9","18","18","3","18","1","3","10","9","6","18","3","6","3","6","9","9","4","10","5","18","5","9","3","18","2","3","6","2","9","15","2","15","2","6","10","2","10","18","6","2","6","9","9","2","18","2","3","9","15","15","9","2","9","2","15","6","2","6","4","18","9","18","2","2","15","6","6","15","18","3","9","9","3","5","2","18","6","18","1","2","6","4","2","3","9","4","18","9","9","3","12","3","2","3","2","3","2","18","9","15"],"larger_num":["10","8","8","8","2","4","18","20","12","20","16","12","2","12","20","12","20","10","16","10","20","20","12","20","4","4","20","10","8","20","12","8","12","12","18","10","8","20","10","20","10","10","4","20","8","4","24","4","10","20","8","20","4","12","20","4","20","20","24","4","8","10","10","8","20","4","12","10","20","20","12","8","12","8","20","8","8","12","16","20","18","20","8","4","20","12","8","20","20","4","10","12","4","20","4","20","8","20","2","8","8","8","8","12","10","16","20","18","18","4","16","12","4","12","4","12","4","20","10","20"],"correct_side":[2,2,2,1,2,1,1,2,2,2,2,2,2,2,2,2,2,2,2,2,1,1,1,2,2,1,2,1,1,2,1,1,1,1,2,2,1,2,1,2,2,1,1,1,1,1,1,1,2,1,1,1,2,1,2,1,2,1,1,1,2,1,2,1,1,2,2,2,1,2,2,1,2,1,2,1,1,1,2,1,1,1,1,1,2,1,2,2,1,1,1,2,1,2,1,2,1,1,2,1,1,1,1,2,2,2,1,2,2,1,2,1,2,2,2,2,1,1,1,2],"img_shown":["img/900/equaldotsize/R/7_Ratio_900_L_9_R_10.png","img/250/equaldotanddens/R/13_Ratio_250_L_2_R_8.png","img/250/randomdotsizeEA/R/13_Ratio_250_L_2_R_8.png","img/250/equaldotsize/L/7_Ratio_250_L_8_R_2.png","img/500/equaldotsize/R/15_Ratio_500_L_1_R_2.png","img/750/equaldotsize/L/8_Ratio_750_L_4_R_3.png","img/500/randomdotsizeEA/L/4_Ratio_500_L_18_R_9.png","img/900/randomdotsizeEA/R/14_Ratio_900_L_18_R_20.png","img/250/randomdotsizeEA/R/11_Ratio_250_L_3_R_12.png","img/750/equaldotsize/R/5_Ratio_750_L_15_R_20.png","img/750/equaldotsize/R/11_Ratio_750_L_12_R_16.png","img/250/equaldotanddens/R/4_Ratio_250_L_3_R_12.png","img/500/equaldotanddens/R/15_Ratio_500_L_1_R_2.png","img/250/equaldotanddens/R/4_Ratio_250_L_3_R_12.png","img/900/equaldotanddens/R/12_Ratio_900_L_18_R_20.png","img/750/equaldotsize/R/15_Ratio_750_L_9_R_12.png","img/750/equaldotsize/R/3_Ratio_750_L_15_R_20.png","img/900/equaldotsize/R/5_Ratio_900_L_9_R_10.png","img/250/equaldotsize/R/10_Ratio_250_L_4_R_16.png","img/900/randomdotsizeEA/R/3_Ratio_900_L_9_R_10.png","img/900/randomdotsizeEA/L/8_Ratio_900_L_20_R_18.png","img/900/equaldotanddens/L/8_Ratio_900_L_20_R_18.png","img/250/randomdotsizeEA/L/15_Ratio_250_L_12_R_3.png","img/900/equaldotsize/R/11_Ratio_900_L_18_R_20.png","img/250/equaldotsize/R/8_Ratio_250_L_1_R_4.png","img/750/equaldotanddens/L/8_Ratio_750_L_4_R_3.png","img/500/equaldotsize/R/3_Ratio_500_L_10_R_20.png","img/900/randomdotsizeEA/L/1_Ratio_900_L_10_R_9.png","img/750/randomdotsizeEA/L/14_Ratio_750_L_8_R_6.png","img/900/equaldotanddens/R/13_Ratio_900_L_18_R_20.png","img/250/equaldotsize/L/15_Ratio_250_L_12_R_3.png","img/750/equaldotanddens/L/14_Ratio_750_L_8_R_6.png","img/250/equaldotsize/L/14_Ratio_250_L_12_R_3.png","img/500/randomdotsizeEA/L/13_Ratio_500_L_12_R_6.png","img/500/equaldotanddens/R/6_Ratio_500_L_9_R_18.png","img/900/equaldotanddens/R/6_Ratio_900_L_9_R_10.png","img/500/equaldotanddens/L/8_Ratio_500_L_8_R_4.png","img/500/randomdotsizeEA/R/3_Ratio_500_L_10_R_20.png","img/500/equaldotsize/L/7_Ratio_500_L_10_R_5.png","img/900/equaldotsize/R/9_Ratio_900_L_18_R_20.png","img/500/equaldotanddens/R/14_Ratio_500_L_5_R_10.png","img/900/randomdotsizeEA/L/1_Ratio_900_L_10_R_9.png","img/750/randomdotsizeEA/L/9_Ratio_750_L_4_R_3.png","img/900/equaldotsize/L/8_Ratio_900_L_20_R_18.png","img/250/randomdotsizeEA/L/7_Ratio_250_L_8_R_2.png","img/750/equaldotsize/L/9_Ratio_750_L_4_R_3.png","img/250/randomdotsizeEA/L/5_Ratio_250_L_24_R_6.png","img/500/randomdotsizeEA/L/10_Ratio_500_L_4_R_2.png","img/900/equaldotanddens/R/15_Ratio_900_L_9_R_10.png","img/750/equaldotsize/L/1_Ratio_750_L_20_R_15.png","img/250/randomdotsizeEA/L/1_Ratio_250_L_8_R_2.png","img/750/randomdotsizeEA/L/1_Ratio_750_L_20_R_15.png","img/500/equaldotsize/R/9_Ratio_500_L_2_R_4.png","img/500/randomdotsizeEA/L/13_Ratio_500_L_12_R_6.png","img/500/equaldotsize/R/3_Ratio_500_L_10_R_20.png","img/500/equaldotsize/L/5_Ratio_500_L_4_R_2.png","img/500/randomdotsizeEA/R/3_Ratio_500_L_10_R_20.png","img/900/equaldotanddens/L/2_Ratio_900_L_20_R_18.png","img/250/equaldotanddens/L/5_Ratio_250_L_24_R_6.png","img/500/equaldotanddens/L/10_Ratio_500_L_4_R_2.png","img/750/randomdotsizeEA/R/2_Ratio_750_L_6_R_8.png","img/900/equaldotsize/L/1_Ratio_900_L_10_R_9.png","img/900/randomdotsizeEA/R/15_Ratio_900_L_9_R_10.png","img/250/randomdotsizeEA/L/1_Ratio_250_L_8_R_2.png","img/900/randomdotsizeEA/L/4_Ratio_900_L_20_R_18.png","img/500/equaldotanddens/R/9_Ratio_500_L_2_R_4.png","img/250/equaldotsize/R/11_Ratio_250_L_3_R_12.png","img/900/equaldotsize/R/3_Ratio_900_L_9_R_10.png","img/750/equaldotanddens/L/1_Ratio_750_L_20_R_15.png","img/750/equaldotsize/R/4_Ratio_750_L_15_R_20.png","img/750/randomdotsizeEA/R/15_Ratio_750_L_9_R_12.png","img/250/randomdotsizeEA/L/1_Ratio_250_L_8_R_2.png","img/750/randomdotsizeEA/R/15_Ratio_750_L_9_R_12.png","img/250/equaldotanddens/L/1_Ratio_250_L_8_R_2.png","img/750/randomdotsizeEA/R/4_Ratio_750_L_15_R_20.png","img/750/randomdotsizeEA/L/13_Ratio_750_L_8_R_6.png","img/250/randomdotsizeEA/L/3_Ratio_250_L_8_R_2.png","img/500/randomdotsizeEA/L/13_Ratio_500_L_12_R_6.png","img/250/equaldotsize/R/10_Ratio_250_L_4_R_16.png","img/900/equaldotsize/L/10_Ratio_900_L_20_R_18.png","img/500/equaldotsize/L/4_Ratio_500_L_18_R_9.png","img/900/randomdotsizeEA/L/10_Ratio_900_L_20_R_18.png","img/250/equaldotanddens/L/7_Ratio_250_L_8_R_2.png","img/500/equaldotsize/L/5_Ratio_500_L_4_R_2.png","img/750/equaldotanddens/R/5_Ratio_750_L_15_R_20.png","img/500/equaldotanddens/L/13_Ratio_500_L_12_R_6.png","img/750/equaldotanddens/R/2_Ratio_750_L_6_R_8.png","img/750/equaldotanddens/R/5_Ratio_750_L_15_R_20.png","img/900/randomdotsizeEA/L/4_Ratio_900_L_20_R_18.png","img/750/equaldotanddens/L/9_Ratio_750_L_4_R_3.png","img/900/equaldotanddens/L/1_Ratio_900_L_10_R_9.png","img/750/equaldotsize/R/15_Ratio_750_L_9_R_12.png","img/750/equaldotanddens/L/9_Ratio_750_L_4_R_3.png","img/250/randomdotsizeEA/R/12_Ratio_250_L_5_R_20.png","img/500/equaldotanddens/L/5_Ratio_500_L_4_R_2.png","img/900/equaldotanddens/R/12_Ratio_900_L_18_R_20.png","img/750/randomdotsizeEA/L/13_Ratio_750_L_8_R_6.png","img/900/equaldotsize/L/4_Ratio_900_L_20_R_18.png","img/500/equaldotanddens/R/15_Ratio_500_L_1_R_2.png","img/250/equaldotanddens/L/1_Ratio_250_L_8_R_2.png","img/750/randomdotsizeEA/L/14_Ratio_750_L_8_R_6.png","img/500/randomdotsizeEA/L/8_Ratio_500_L_8_R_4.png","img/250/equaldotsize/L/1_Ratio_250_L_8_R_2.png","img/250/equaldotanddens/R/4_Ratio_250_L_3_R_12.png","img/900/equaldotanddens/R/3_Ratio_900_L_9_R_10.png","img/250/equaldotanddens/R/10_Ratio_250_L_4_R_16.png","img/900/equaldotanddens/L/4_Ratio_900_L_20_R_18.png","img/500/randomdotsizeEA/R/1_Ratio_500_L_9_R_18.png","img/500/equaldotsize/R/6_Ratio_500_L_9_R_18.png","img/750/equaldotanddens/L/8_Ratio_750_L_4_R_3.png","img/750/equaldotanddens/R/11_Ratio_750_L_12_R_16.png","img/250/equaldotsize/L/15_Ratio_250_L_12_R_3.png","img/500/equaldotanddens/R/9_Ratio_500_L_2_R_4.png","img/250/equaldotsize/R/4_Ratio_250_L_3_R_12.png","img/500/randomdotsizeEA/R/9_Ratio_500_L_2_R_4.png","img/250/equaldotanddens/R/11_Ratio_250_L_3_R_12.png","img/500/equaldotsize/L/5_Ratio_500_L_4_R_2.png","img/900/equaldotsize/L/4_Ratio_900_L_20_R_18.png","img/900/randomdotsizeEA/L/1_Ratio_900_L_10_R_9.png","img/750/equaldotsize/R/4_Ratio_750_L_15_R_20.png"],"Rat0":[["12_Ratio_0_L_9_R_0.png","13_Ratio_0_L_6_R_0.png","5_Ratio_0_L_2_R_0.png","6_Ratio_0_L_4_R_0.png","8_Ratio_0_L_6_R_0.png"],["1_Ratio_0_L_0_R_17.png","10_Ratio_0_L_0_R_22.png","11_Ratio_0_L_0_R_1.png","14_Ratio_0_L_0_R_24.png","15_Ratio_0_L_0_R_4.png","2_Ratio_0_L_0_R_5.png","3_Ratio_0_L_0_R_17.png","4_Ratio_0_L_0_R_7.png","7_Ratio_0_L_0_R_19.png","9_Ratio_0_L_0_R_15.png"]],"Rat250":[["1_Ratio_250_L_8_R_2.png","14_Ratio_250_L_12_R_3.png","15_Ratio_250_L_12_R_3.png","2_Ratio_250_L_16_R_4.png","3_Ratio_250_L_8_R_2.png","5_Ratio_250_L_24_R_6.png","7_Ratio_250_L_8_R_2.png"],["10_Ratio_250_L_4_R_16.png","11_Ratio_250_L_3_R_12.png","12_Ratio_250_L_5_R_20.png","13_Ratio_250_L_2_R_8.png","4_Ratio_250_L_3_R_12.png","6_Ratio_250_L_6_R_24.png","8_Ratio_250_L_1_R_4.png","9_Ratio_250_L_3_R_12.png"]],"Rat500":[["10_Ratio_500_L_4_R_2.png","11_Ratio_500_L_12_R_6.png","13_Ratio_500_L_12_R_6.png","4_Ratio_500_L_18_R_9.png","5_Ratio_500_L_4_R_2.png","7_Ratio_500_L_10_R_5.png","8_Ratio_500_L_8_R_4.png"],["1_Ratio_500_L_9_R_18.png","12_Ratio_500_L_1_R_2.png","14_Ratio_500_L_5_R_10.png","15_Ratio_500_L_1_R_2.png","2_Ratio_500_L_3_R_6.png","3_Ratio_500_L_10_R_20.png","6_Ratio_500_L_9_R_18.png","9_Ratio_500_L_2_R_4.png"]],"Rat750":[["1_Ratio_750_L_20_R_15.png","10_Ratio_750_L_4_R_3.png","13_Ratio_750_L_8_R_6.png","14_Ratio_750_L_8_R_6.png","6_Ratio_750_L_24_R_18.png","8_Ratio_750_L_4_R_3.png","9_Ratio_750_L_4_R_3.png"],["11_Ratio_750_L_12_R_16.png","12_Ratio_750_L_3_R_4.png","15_Ratio_750_L_9_R_12.png","2_Ratio_750_L_6_R_8.png","3_Ratio_750_L_15_R_20.png","4_Ratio_750_L_15_R_20.png","5_Ratio_750_L_15_R_20.png","7_Ratio_750_L_3_R_4.png"]],"Rat900":[["1_Ratio_900_L_10_R_9.png","10_Ratio_900_L_20_R_18.png","2_Ratio_900_L_20_R_18.png","4_Ratio_900_L_20_R_18.png","8_Ratio_900_L_20_R_18.png"],["11_Ratio_900_L_18_R_20.png","12_Ratio_900_L_18_R_20.png","13_Ratio_900_L_18_R_20.png","14_Ratio_900_L_18_R_20.png","15_Ratio_900_L_9_R_10.png","3_Ratio_900_L_9_R_10.png","5_Ratio_900_L_9_R_10.png","6_Ratio_900_L_9_R_10.png","7_Ratio_900_L_9_R_10.png","9_Ratio_900_L_18_R_20.png"]],"Rat1000":[["10_Ratio_1000_L_16_R_16.png","11_Ratio_1000_L_6_R_6.png","12_Ratio_1000_L_14_R_14.png","13_Ratio_1000_L_20_R_20.png","15_Ratio_1000_L_15_R_15.png","2_Ratio_1000_L_17_R_17.png","4_Ratio_1000_L_9_R_9.png","5_Ratio_1000_L_6_R_6.png","6_Ratio_1000_L_19_R_19.png","8_Ratio_1000_L_14_R_14.png","9_Ratio_1000_L_25_R_25.png"],["1_Ratio_1000_L_1_R_1.png","14_Ratio_1000_L_17_R_17.png","3_Ratio_1000_L_17_R_17.png","7_Ratio_1000_L_6_R_6.png"]]}},{"start_time":1551794819194,"click_time":1551794820270,"finger_time":1551794819868,"fix_duration":1062.3390182729572,"trial":1,"RT":674,"MT":402,"sideResp":2,"stimulus":"img/250/equaldotanddens/R/13_Ratio_250_L_2_R_8.png","xmouse":[833,833,833,833,833,833,833,833,833,833,833,833,833,833,833,833,833,833,833,833,833,833,833,833,833,833,833,833,833,833,833,832,836,967,1028,1070,1097,1145,1166,1188,1206,1223,1245,1246,1246,1246,1246,1236,1227,1219,1212,1205,1174,1127],"ymouse":[531,531,531,531,531,531,531,531,531,531,531,531,531,531,531,531,531,531,531,531,531,531,531,531,531,531,531,531,531,531,531,530,522,340,268,217,194,161,145,132,122,108,64,52,46,44,44,43,43,43,43,43,51,71],"timestamp_mouse":[15,36,55,74,95,115,135,154,176,195,215,234,255,276,295,314,335,354,376,394,416,435,454,475,495,514,536,556,575,595,615,634,654,674,695,715,735,755,776,794,814,835,854,875,894,914,936,955,975,994,1015,1036,1054,1075],"xSR":741.5,"ySR":469.95,"xT1":424.9,"yT1":0,"xT2":1058.1,"yT2":0,"toosoon":0,"cond_shown":"equaldotanddens","ratio_trial":250,"smaller_num":"2","larger_num":"8","correct_side":2,"subjID":"NicolásGonzalezGarcía20","gender":"0","age":"12","school":"6"},{"start_time":1551794821835,"click_time":1551794823848,"finger_time":1551794823550,"fix_duration":685.4379245154569,"trial":2,"RT":1715,"MT":298,"sideResp":1,"stimulus":"img/250/randomdotsizeEA/R/13_Ratio_250_L_2_R_8.png","xmouse":[765,765,765,765,765,765,765,765,765,765,765,765,765,765,765,765,765,765,765,765,765,765,765,765,765,765,765,765,765,765,765,765,765,765,765,765,765,765,765,765,765,765,765,765,765,765,765,765,765,765,765,765,765,765,765,765,765,765,765,765,765,765,765,765,765,765,765,765,765,765,765,765,765,765,765,765,765,765,765,765,765,765,760,755,743,706,666,614,589,579,575,574,570,561,548,535,526,524,524,522,495],"ymouse":[522,522,522,522,522,522,522,522,522,522,522,522,522,522,522,522,522,522,522,522,522,522,522,522,522,522,522,522,522,522,522,522,522,522,522,522,522,522,522,522,522,522,522,522,522,522,522,522,522,522,522,522,522,522,522,522,522,522,522,522,522,522,522,522,522,522,522,522,522,522,522,522,522,522,522,522,522,522,522,522,522,522,519,508,481,403,333,264,238,228,225,223,219,207,189,171,154,150,149,144,97],"timestamp_mouse":[16,35,53,74,94,114,134,154,174,193,215,235,253,274,295,314,333,355,374,394,413,433,453,474,494,513,533,555,574,594,615,634,654,675,695,713,733,753,775,795,813,834,854,873,895,914,935,953,975,994,1013,1034,1054,1074,1094,1113,1135,1155,1175,1194,1214,1234,1254,1274,1295,1314,1333,1355,1374,1395,1414,1433,1455,1474,1493,1513,1534,1554,1575,1594,1615,1634,1653,1674,1694,1715,1733,1755,1773,1794,1814,1834,1854,1875,1894,1913,1933,1954,1974,1994,2013],"xSR":741.5,"ySR":469.95,"xT1":424.9,"yT1":0,"xT2":1058.1,"yT2":0,"toosoon":0,"cond_shown":"randomdotsizeEA","ratio_trial":250,"smaller_num":"2","larger_num":"8","correct_side":2,"subjID":"NicolásGonzalezGarcía20","gender":"0","age":"12","school":"6"},{"start_time":1551794826971,"click_time":1551794828290,"finger_time":1551794827949,"fix_duration":822.354234509541,"trial":3,"RT":978,"MT":341,"sideResp":1,"stimulus":"img/250/equaldotsize/L/7_Ratio_250_L_8_R_2.png","xmouse":[799,799,799,799,799,799,799,799,799,799,799,799,799,799,799,799,799,799,799,799,799,799,799,799,799,799,799,799,799,799,799,799,799,799,799,799,799,799,799,799,799,799,799,799,799,799,799,795,745,687,632,584,578,578,578,577,570,557,527,526,526,526,526,521,511,508],"ymouse":[505,505,505,505,505,505,505,505,505,505,505,505,505,505,505,505,505,505,505,505,505,505,505,505,505,505,505,505,505,505,505,505,505,505,505,505,505,505,505,505,505,505,505,505,505,505,505,497,421,354,301,259,253,253,253,243,219,191,138,136,136,136,136,125,103,94],"timestamp_mouse":[18,38,58,79,99,118,137,158,178,198,218,238,258,277,299,318,338,359,378,398,418,438,457,479,498,517,539,558,578,599,618,638,658,678,698,718,738,757,779,798,817,839,858,878,897,917,939,958,978,999,1018,1037,1058,1078,1099,1117,1138,1158,1178,1197,1218,1238,1257,1277,1298,1319],"xSR":741.5,"ySR":469.95,"xT1":424.9,"yT1":0,"xT2":1058.1,"yT2":0,"toosoon":0,"cond_shown":"equaldotsize","ratio_trial":250,"smaller_num":"2","larger_num":"8","correct_side":1,"subjID":"NicolásGonzalezGarcía20","gender":"0","age":"12","school":"6"},{"start_time":1551794831540,"click_time":1551794832509,"finger_time":1551794832349,"fix_duration":670.52023800002,"trial":4,"RT":809,"MT":160,"sideResp":2,"stimulus":"img/500/equaldotsize/R/15_Ratio_500_L_1_R_2.png","xmouse":[788,788,788,788,788,788,788,788,788,788,788,788,788,788,788,788,788,788,788,788,788,788,788,788,788,788,788,788,788,788,788,788,788,788,788,788,788,788,792,801,833,871,912,941,974,1011,1027,1043,1071],"ymouse":[522,522,522,522,522,522,522,522,522,522,522,522,522,522,522,522,522,522,522,522,522,522,522,522,522,522,522,522,522,522,522,522,522,522,522,522,522,520,513,501,461,394,302,199,141,104,95,86,68],"timestamp_mouse":[10,29,48,68,89,108,130,149,169,189,209,229,249,269,289,308,330,350,370,389,409,429,448,470,489,509,528,549,570,588,608,630,648,670,689,708,730,749,768,788,809,830,849,868,889,909,929,948,969],"xSR":741.5,"ySR":469.95,"xT1":424.9,"yT1":0,"xT2":1058.1,"yT2":0,"toosoon":0,"cond_shown":"equaldotsize","ratio_trial":500,"smaller_num":"1","larger_num":"2","correct_side":2,"subjID":"NicolásGonzalezGarcía20","gender":"0","age":"12","school":"6"},{"start_time":1551794836328,"click_time":1551794837468,"finger_time":1551794837168,"fix_duration":1378.187337360025,"trial":5,"RT":840,"MT":300,"sideResp":1,"stimulus":"img/750/equaldotsize/L/8_Ratio_750_L_4_R_3.png","xmouse":[777,777,778,778,778,778,778,778,778,778,778,778,778,778,778,778,778,778,778,778,778,778,778,778,778,778,778,778,778,778,778,778,778,778,778,778,778,778,778,778,778,762,709,639,588,569,568,570,572,566,543,520,519,519,517,508,491,480],"ymouse":[530,530,530,530,530,530,530,530,530,530,530,530,530,530,530,530,530,530,530,530,530,530,530,530,530,530,530,530,530,530,530,530,530,530,530,530,530,530,530,530,528,500,436,378,331,310,296,290,274,253,221,188,188,186,175,153,118,95],"timestamp_mouse":[1,24,40,61,81,101,121,141,160,182,200,221,240,261,281,300,321,340,360,381,400,420,441,460,481,500,521,541,560,581,601,621,642,660,680,701,721,741,760,782,801,821,840,861,880,901,920,940,960,980,1000,1021,1040,1060,1081,1100,1120,1140],"xSR":741.5,"ySR":469.95,"xT1":424.9,"yT1":0,"xT2":1058.1,"yT2":0,"toosoon":0,"cond_shown":"equaldotsize","ratio_trial":750,"smaller_num":"3","larger_num":"4","correct_side":1,"subjID":"NicolásGonzalezGarcía20","gender":"0","age":"12","school":"6"},{"start_time":1551794838807,"click_time":1551794840569,"finger_time":1551794840449,"fix_duration":615.4264521473503,"trial":6,"RT":1642,"MT":120,"sideResp":2,"stimulus":"img/500/randomdotsizeEA/L/4_Ratio_500_L_18_R_9.png","xmouse":[793,793,793,793,793,793,793,793,793,793,793,793,793,793,793,793,793,793,793,793,793,793,793,793,793,793,793,793,793,793,793,793,793,793,793,793,793,793,793,793,793,793,793,793,793,793,793,793,793,793,793,793,793,793,793,793,793,793,793,793,793,793,793,793,793,793,793,793,793,793,793,793,793,793,793,793,793,793,793,793,793,797,868,967,1012,1029,1036,1053,1072],"ymouse":[491,491,491,491,491,491,491,491,491,491,491,491,491,491,491,491,491,491,491,491,491,491,491,491,491,491,491,491,491,491,491,491,491,491,491,491,491,491,491,491,491,491,491,491,491,491,491,491,491,491,491,491,491,491,491,491,491,491,491,491,491,491,491,491,491,491,491,491,491,491,491,491,491,491,491,491,491,491,491,491,489,482,386,262,185,147,130,105,87],"timestamp_mouse":[3,22,42,62,83,102,123,142,163,183,202,221,243,262,282,301,322,343,361,381,402,422,442,461,482,503,521,542,562,581,601,622,642,661,682,702,722,742,762,781,801,822,843,862,881,902,922,941,962,982,1001,1022,1042,1062,1083,1102,1123,1142,1162,1182,1201,1222,1242,1262,1282,1303,1321,1341,1362,1382,1401,1422,1441,1462,1482,1501,1523,1542,1562,1582,1602,1621,1642,1662,1682,1702,1721,1742,1762],"xSR":741.5,"ySR":469.95,"xT1":424.9,"yT1":0,"xT2":1058.1,"yT2":0,"toosoon":0,"cond_shown":"randomdotsizeEA","ratio_trial":500,"smaller_num":"9","larger_num":"18","correct_side":1,"subjID":"NicolásGonzalezGarcía20","gender":"0","age":"12","school":"6"},{"start_time":1551794842164,"click_time":1551794843348,"finger_time":1551794843048,"fix_duration":874.542491151897,"trial":7,"RT":884,"MT":300,"sideResp":1,"stimulus":"img/900/randomdotsizeEA/R/14_Ratio_900_L_18_R_20.png","xmouse":[824,823,822,822,822,822,822,822,822,822,822,822,822,822,822,822,822,822,821,821,821,821,821,821,821,821,821,821,821,821,821,821,821,821,821,821,821,821,821,821,821,821,821,817,749,693,644,618,601,574,569,566,565,565,558,550,533,522,512,486],"ymouse":[476,476,476,476,476,476,476,476,476,476,476,476,476,476,476,476,476,476,476,476,476,476,476,476,476,476,476,476,476,476,476,476,476,476,476,476,476,476,476,476,476,476,476,476,413,349,295,267,249,211,199,193,193,193,185,176,151,133,116,72],"timestamp_mouse":[6,26,45,64,85,104,126,145,164,184,204,225,246,265,285,304,325,345,365,385,404,425,445,465,485,505,524,544,565,585,605,625,644,664,685,705,724,744,765,785,804,825,844,866,884,905,925,945,964,984,1004,1026,1044,1066,1084,1104,1124,1144,1164,1184],"xSR":741.5,"ySR":469.95,"xT1":424.9,"yT1":0,"xT2":1058.1,"yT2":0,"toosoon":0,"cond_shown":"randomdotsizeEA","ratio_trial":900,"smaller_num":"18","larger_num":"20","correct_side":2,"subjID":"NicolásGonzalezGarcía20","gender":"0","age":"12","school":"6"},{"start_time":1551794845152,"click_time":1551794846489,"finger_time":1551794846169,"fix_duration":1081.761229440271,"trial":8,"RT":1017,"MT":320,"sideResp":2,"stimulus":"img/250/randomdotsizeEA/R/11_Ratio_250_L_3_R_12.png","xmouse":[795,795,795,795,795,795,795,795,795,795,795,795,795,795,795,795,795,795,795,795,795,795,795,795,795,795,795,795,795,795,795,795,795,795,795,795,795,795,795,795,795,795,795,795,795,795,795,795,801,807,858,910,975,1041,1146,1161,1171,1182,1198,1229,1259,1282,1288,1288,1273,1235,1083],"ymouse":[520,520,520,520,520,520,520,520,520,520,520,520,520,520,520,520,520,520,520,520,520,520,520,520,520,520,520,520,520,520,520,520,520,520,520,520,520,520,520,520,520,520,520,520,520,520,520,520,510,499,428,382,339,303,229,214,201,185,167,131,103,84,75,73,68,63,61],"timestamp_mouse":[17,37,57,76,96,118,137,156,177,198,216,236,256,278,297,316,338,357,377,397,417,437,457,476,498,517,537,557,576,596,616,637,657,678,698,717,738,758,776,797,816,836,856,876,896,916,936,956,977,996,1017,1037,1057,1076,1096,1116,1137,1157,1177,1196,1218,1238,1256,1277,1296,1317,1337],"xSR":741.5,"ySR":469.95,"xT1":424.9,"yT1":0,"xT2":1058.1,"yT2":0,"toosoon":0,"cond_shown":"randomdotsizeEA","ratio_trial":250,"smaller_num":"3","larger_num":"12","correct_side":2,"subjID":"NicolásGonzalezGarcía20","gender":"0","age":"12","school":"6"},{"start_time":1551794848331,"click_time":1551794849369,"finger_time":1551794849089,"fix_duration":1221.213339155095,"trial":9,"RT":758,"MT":280,"sideResp":2,"stimulus":"img/750/equaldotsize/R/5_Ratio_750_L_15_R_20.png","xmouse":[779,779,779,779,779,779,779,779,779,779,779,779,779,779,779,779,779,779,779,779,779,779,779,779,779,779,779,779,779,779,779,779,779,779,779,791,807,863,877,892,931,941,945,954,959,966,969,973,974,983,1074,1112],"ymouse":[522,522,522,522,522,522,522,522,522,522,522,522,522,522,522,522,522,522,522,522,522,522,522,522,522,522,522,522,522,522,522,522,522,522,522,519,503,399,336,283,235,225,216,203,192,181,175,168,164,152,104,86],"timestamp_mouse":[20,38,57,78,99,119,139,158,178,198,218,238,258,278,299,318,337,358,379,398,417,438,459,477,498,518,537,558,578,597,619,638,659,678,698,718,737,758,778,797,818,838,858,877,897,918,938,958,978,997,1018,1038],"xSR":741.5,"ySR":469.95,"xT1":424.9,"yT1":0,"xT2":1058.1,"yT2":0,"toosoon":0,"cond_shown":"equaldotsize","ratio_trial":750,"smaller_num":"15","larger_num":"20","correct_side":2,"subjID":"NicolásGonzalezGarcía20","gender":"0","age":"12","school":"6"},{"start_time":1551794850316,"click_time":1551794851129,"finger_time":1551794850989,"fix_duration":307.482247632203,"trial":10,"RT":673,"MT":140,"sideResp":2,"stimulus":"img/750/equaldotsize/R/11_Ratio_750_L_12_R_16.png","xmouse":[829,829,829,829,829,829,829,829,829,829,829,829,829,829,829,829,829,829,829,829,829,829,829,829,829,829,829,829,829,829,829,829,830,842,911,943,970,977,990,1019,1068],"ymouse":[502,502,502,502,502,502,502,502,502,502,502,502,502,502,502,502,502,502,502,502,502,502,502,502,502,502,502,502,502,502,502,502,502,494,423,367,242,173,127,72,3],"timestamp_mouse":[13,33,54,73,94,112,134,153,172,192,213,233,253,273,293,313,334,352,374,394,413,433,453,473,493,513,532,553,572,594,613,634,653,673,692,713,732,752,773,793,813],"xSR":741.5,"ySR":469.95,"xT1":424.9,"yT1":0,"xT2":1058.1,"yT2":0,"toosoon":0,"cond_shown":"equaldotsize","ratio_trial":750,"smaller_num":"12","larger_num":"16","correct_side":2,"subjID":"NicolásGonzalezGarcía20","gender":"0","age":"12","school":"6"},{"start_time":1551794852280,"click_time":1551794853029,"finger_time":1551794852849,"fix_duration":250,"trial":11,"RT":569,"MT":180,"sideResp":2,"stimulus":"img/250/equaldotanddens/R/4_Ratio_250_L_3_R_12.png","xmouse":[824,824,824,824,824,824,824,824,824,824,824,824,824,824,824,824,824,824,824,824,824,824,824,824,824,826,828,840,903,956,1035,1072,1088,1091,1094,1104,1119,1132],"ymouse":[521,521,521,521,521,521,521,521,521,521,521,521,521,521,521,521,521,521,521,521,521,521,521,521,521,520,517,501,429,355,236,184,165,161,156,140,114,94],"timestamp_mouse":[9,30,49,70,89,109,129,150,169,188,208,230,248,268,288,309,329,348,369,388,409,429,450,468,488,509,528,549,569,590,608,630,649,669,688,709,728,748],"xSR":741.5,"ySR":469.95,"xT1":424.9,"yT1":0,"xT2":1058.1,"yT2":0,"toosoon":0,"cond_shown":"equaldotanddens","ratio_trial":250,"smaller_num":"3","larger_num":"12","correct_side":2,"subjID":"NicolásGonzalezGarcía20","gender":"0","age":"12","school":"6"},{"start_time":1551794858481,"click_time":1551794859388,"finger_time":1551794859189,"fix_duration":250,"trial":12,"RT":708,"MT":199,"sideResp":2,"stimulus":"img/500/equaldotanddens/R/15_Ratio_500_L_1_R_2.png","xmouse":[775,775,775,775,775,775,775,775,775,775,775,775,775,775,775,775,775,775,775,775,775,775,775,775,775,775,775,775,775,775,775,775,775,783,826,887,947,1016,1128,1151,1164,1172,1173,1172,1167,1153],"ymouse":[515,515,515,515,515,515,515,515,515,515,515,515,515,515,515,515,515,515,515,515,515,515,515,515,515,515,515,515,515,515,515,515,515,513,477,431,389,348,242,188,158,125,105,96,88,68],"timestamp_mouse":[8,29,47,69,89,107,128,148,167,188,208,227,248,269,288,307,328,349,368,389,408,428,448,467,488,508,528,548,569,589,607,629,649,668,688,708,728,749,767,788,808,828,847,867,889,907],"xSR":741.5,"ySR":469.95,"xT1":424.9,"yT1":0,"xT2":1058.1,"yT2":0,"toosoon":0,"cond_shown":"equaldotanddens","ratio_trial":500,"smaller_num":"1","larger_num":"2","correct_side":2,"subjID":"NicolásGonzalezGarcía20","gender":"0","age":"12","school":"6"},{"start_time":1551794862858,"click_time":1551794863608,"finger_time":1551794863448,"fix_duration":1408.3494803809256,"trial":13,"RT":590,"MT":160,"sideResp":2,"stimulus":"img/250/equaldotanddens/R/4_Ratio_250_L_3_R_12.png","xmouse":[789,789,789,789,789,789,789,789,789,789,789,789,789,789,789,789,789,789,789,789,789,789,789,789,789,789,789,789,796,860,893,924,952,968,998,1020,1051,1069],"ymouse":[508,508,508,508,508,508,508,508,508,508,508,508,508,508,508,508,508,508,508,508,508,508,508,508,508,508,508,508,503,445,407,365,310,258,164,116,69,38],"timestamp_mouse":[10,32,51,71,92,110,130,151,171,191,211,230,251,270,291,311,331,351,370,391,411,431,451,471,491,511,531,552,571,590,612,631,650,671,691,710,730,750],"xSR":741.5,"ySR":469.95,"xT1":424.9,"yT1":0,"xT2":1058.1,"yT2":0,"toosoon":0,"cond_shown":"equaldotanddens","ratio_trial":250,"smaller_num":"3","larger_num":"12","correct_side":2,"subjID":"NicolásGonzalezGarcía20","gender":"0","age":"12","school":"6"},{"start_time":1551794865099,"click_time":1551794866048,"finger_time":1551794865769,"fix_duration":689.8370390859086,"trial":14,"RT":670,"MT":279,"sideResp":2,"stimulus":"img/900/equaldotanddens/R/12_Ratio_900_L_18_R_20.png","xmouse":[776,776,776,776,776,776,776,776,776,776,776,776,776,776,776,776,776,776,776,776,776,776,776,776,776,776,776,776,776,776,776,779,806,858,910,963,1003,1028,1036,1042,1047,1051,1057,1062,1072,1083,1092,1112],"ymouse":[503,503,503,503,503,503,503,503,503,503,503,503,503,503,503,503,503,503,503,503,503,503,503,503,503,503,503,503,503,503,503,499,482,445,406,367,331,296,267,251,234,212,170,151,132,113,100,70],"timestamp_mouse":[10,30,50,70,90,110,130,150,169,189,211,231,249,270,290,309,330,351,371,389,409,430,450,470,489,510,530,550,570,590,611,630,650,670,691,711,729,749,770,791,809,830,850,870,890,911,929,949],"xSR":741.5,"ySR":469.95,"xT1":424.9,"yT1":0,"xT2":1058.1,"yT2":0,"toosoon":0,"cond_shown":"equaldotanddens","ratio_trial":900,"smaller_num":"18","larger_num":"20","correct_side":2,"subjID":"NicolásGonzalezGarcía20","gender":"0","age":"12","school":"6"},{"start_time":1551794867568,"click_time":1551794868910,"finger_time":1551794868209,"fix_duration":997.2719884206887,"trial":15,"RT":641,"MT":701,"sideResp":2,"stimulus":"img/750/equaldotsize/R/15_Ratio_750_L_9_R_12.png","xmouse":[758,758,758,758,758,758,758,758,758,758,758,758,758,758,758,758,758,758,758,758,758,758,758,758,758,758,758,758,758,758,759,755,730,708,694,693,693,693,688,666,655,646,642,642,642,653,676,701,729,802,826,840,849,855,870,888,928,953,974,1016,1038,1058,1077,1100,1149,1160,1160,1153],"ymouse":[507,507,507,507,507,507,507,507,507,507,507,507,507,507,507,507,507,507,507,507,507,507,507,507,507,507,507,507,507,507,493,480,442,407,357,335,314,304,282,243,229,219,214,213,213,217,230,245,259,291,295,295,291,278,244,225,201,183,167,146,137,131,126,120,106,100,99,94],"timestamp_mouse":[3,21,40,60,80,102,122,140,160,182,202,220,241,262,281,301,321,341,362,381,401,421,440,461,481,501,521,542,561,580,601,621,641,661,680,700,720,740,760,781,800,820,840,861,881,901,922,941,960,981,1000,1020,1040,1062,1080,1101,1120,1141,1160,1181,1200,1220,1241,1260,1280,1301,1321,1342],"xSR":741.5,"ySR":469.95,"xT1":424.9,"yT1":0,"xT2":1058.1,"yT2":0,"toosoon":0,"cond_shown":"equaldotsize","ratio_trial":750,"smaller_num":"9","larger_num":"12","correct_side":2,"subjID":"NicolásGonzalezGarcía20","gender":"0","age":"12","school":"6"},{"start_time":1551794872157,"click_time":1551794873430,"finger_time":1551794873248,"fix_duration":1166.3409970600958,"trial":16,"RT":1091,"MT":182,"sideResp":2,"stimulus":"img/750/equaldotsize/R/3_Ratio_750_L_15_R_20.png","xmouse":[791,791,791,791,791,791,791,791,791,791,791,791,791,791,791,791,791,791,791,791,791,791,791,791,791,791,791,791,791,791,791,791,791,791,791,791,791,791,791,791,791,791,791,791,791,791,791,791,791,791,791,791,808,823,907,998,1049,1073,1076,1077,1086,1102,1112,1120],"ymouse":[532,532,532,532,532,532,532,532,532,532,532,532,532,532,532,532,532,532,532,532,532,532,532,532,532,532,532,532,532,532,532,532,532,532,532,532,532,532,532,532,532,532,532,532,532,532,532,532,532,532,532,532,519,505,405,296,252,225,200,155,136,119,108,96],"timestamp_mouse":[11,32,52,72,91,111,132,153,171,193,213,232,253,272,292,312,331,353,372,391,412,433,453,471,493,512,532,553,571,592,611,631,652,671,693,712,731,752,772,792,813,831,851,872,892,912,932,952,971,991,1012,1032,1052,1072,1091,1113,1131,1151,1172,1192,1211,1232,1252,1273],"xSR":741.5,"ySR":469.95,"xT1":424.9,"yT1":0,"xT2":1058.1,"yT2":0,"toosoon":0,"cond_shown":"equaldotsize","ratio_trial":750,"smaller_num":"15","larger_num":"20","correct_side":2,"subjID":"NicolásGonzalezGarcía20","gender":"0","age":"12","school":"6"},{"start_time":1551794874657,"click_time":1551794875809,"finger_time":1551794875430,"fix_duration":488.255080020159,"trial":17,"RT":773,"MT":379,"sideResp":2,"stimulus":"img/900/equaldotsize/R/5_Ratio_900_L_9_R_10.png","xmouse":[753,753,753,753,753,753,753,753,753,753,753,753,753,753,753,753,753,753,753,753,753,753,753,753,753,753,753,753,753,753,753,753,753,753,753,753,753,753,753,753,753,753,753,753,753,753,753,754,781,895,962,995,1007,1023,1064,1087,1107,1126],"ymouse":[537,537,537,537,537,537,537,537,537,537,537,537,537,537,537,537,537,537,537,537,537,537,537,537,537,537,537,537,537,537,537,537,537,537,536,518,491,470,461,460,460,460,460,460,460,460,460,460,454,411,358,316,280,242,168,137,113,92],"timestamp_mouse":[12,32,52,73,92,111,131,153,172,192,212,233,252,272,292,312,332,352,372,393,412,433,451,472,491,513,533,551,572,593,611,633,653,671,692,711,732,751,773,792,812,833,852,872,892,912,932,952,973,991,1011,1032,1051,1071,1092,1112,1132,1152],"xSR":741.5,"ySR":469.95,"xT1":424.9,"yT1":0,"xT2":1058.1,"yT2":0,"toosoon":0,"cond_shown":"equaldotsize","ratio_trial":900,"smaller_num":"9","larger_num":"10","correct_side":2,"subjID":"NicolásGonzalezGarcía20","gender":"0","age":"12","school":"6"},{"start_time":1551794877893,"click_time":1551794878529,"finger_time":1551794878409,"fix_duration":1121.3629547728551,"trial":18,"RT":516,"MT":120,"sideResp":2,"stimulus":"img/250/equaldotsize/R/10_Ratio_250_L_4_R_16.png","xmouse":[775,775,775,775,775,775,775,775,775,775,775,775,775,775,775,775,775,775,775,775,775,775,775,778,785,819,871,998,1026,1048,1069,1091],"ymouse":[527,527,527,527,527,527,527,527,527,527,527,527,527,527,527,527,527,527,527,527,527,527,527,523,507,450,391,247,201,164,127,88],"timestamp_mouse":[16,37,56,76,97,116,136,156,177,196,217,238,256,276,297,317,336,356,377,396,416,436,456,476,497,516,536,556,577,597,616,636],"xSR":741.5,"ySR":469.95,"xT1":424.9,"yT1":0,"xT2":1058.1,"yT2":0,"toosoon":0,"cond_shown":"equaldotsize","ratio_trial":250,"smaller_num":"4","larger_num":"16","correct_side":2,"subjID":"NicolásGonzalezGarcía20","gender":"0","age":"12","school":"6"},{"start_time":1551794879560,"click_time":1551794881469,"finger_time":1551794881391,"fix_duration":250,"trial":19,"RT":1831,"MT":78,"sideResp":2,"stimulus":"img/900/randomdotsizeEA/R/3_Ratio_900_L_9_R_10.png","xmouse":[783,783,783,783,783,783,783,783,783,783,783,783,783,783,783,783,783,783,783,783,783,783,783,783,783,783,783,783,783,783,783,783,783,783,783,783,783,783,783,783,783,783,783,783,783,783,783,783,783,783,783,783,783,783,783,783,783,783,784,785,785,785,786,786,786,786,786,786,786,786,786,786,786,786,786,786,786,786,786,786,786,786,786,786,786,786,786,786,786,789,799,820,862,925,1039,1114],"ymouse":[501,501,501,501,501,501,501,501,501,501,501,501,501,501,501,501,501,501,501,501,501,501,501,501,501,501,501,501,501,501,501,501,501,501,501,501,501,501,501,501,501,501,501,501,501,501,501,501,501,501,501,501,501,501,501,501,501,501,501,501,500,500,499,499,499,499,499,499,499,499,499,499,499,499,499,499,499,499,499,499,499,499,499,499,499,499,499,499,499,494,478,451,403,344,202,96],"timestamp_mouse":[9,29,50,69,90,109,129,149,170,189,210,229,250,270,290,309,329,349,369,390,409,429,451,469,490,509,529,550,569,590,610,629,649,669,689,710,729,750,770,789,809,829,851,870,889,910,931,949,969,989,1010,1030,1050,1069,1090,1109,1129,1149,1169,1190,1209,1229,1249,1269,1290,1310,1330,1349,1370,1390,1409,1429,1450,1469,1489,1509,1529,1550,1570,1589,1609,1629,1651,1669,1689,1710,1729,1750,1769,1790,1809,1831,1849,1870,1889,1909],"xSR":741.5,"ySR":469.95,"xT1":424.9,"yT1":0,"xT2":1058.1,"yT2":0,"toosoon":0,"cond_shown":"randomdotsizeEA","ratio_trial":900,"smaller_num":"9","larger_num":"10","correct_side":2,"subjID":"NicolásGonzalezGarcía20","gender":"0","age":"12","school":"6"},{"start_time":1551794882700,"click_time":1551794883569,"finger_time":1551794883489,"fix_duration":250,"trial":20,"RT":789,"MT":80,"sideResp":2,"stimulus":"img/900/randomdotsizeEA/L/8_Ratio_900_L_20_R_18.png","xmouse":[801,801,801,801,801,801,801,801,801,801,801,801,801,801,801,801,801,801,801,801,801,801,801,801,801,801,801,801,801,801,801,801,801,801,801,801,794,767,745,741,760,837,1035,1112],"ymouse":[528,528,528,528,528,528,528,528,528,528,528,528,528,528,528,528,528,528,528,528,528,528,528,528,528,528,528,528,528,528,528,528,528,528,528,528,528,525,519,511,481,372,148,84],"timestamp_mouse":[9,30,49,69,90,109,130,150,170,189,209,230,249,270,289,310,330,349,369,390,409,430,449,469,489,510,530,549,569,589,610,630,649,669,689,710,729,750,769,789,809,830,850,869],"xSR":741.5,"ySR":469.95,"xT1":424.9,"yT1":0,"xT2":1058.1,"yT2":0,"toosoon":0,"cond_shown":"randomdotsizeEA","ratio_trial":900,"smaller_num":"18","larger_num":"20","correct_side":1,"subjID":"NicolásGonzalezGarcía20","gender":"0","age":"12","school":"6"},{"start_time":1551794885148,"click_time":1551794886471,"finger_time":1551794885849,"fix_duration":437.3260435497056,"trial":21,"RT":701,"MT":622,"sideResp":2,"stimulus":"img/900/equaldotanddens/L/8_Ratio_900_L_20_R_18.png","xmouse":[760,760,760,760,762,763,763,763,763,763,763,765,765,765,765,765,765,765,765,765,765,765,765,765,765,765,765,765,765,765,765,765,765,765,764,733,724,721,721,719,708,704,695,691,685,682,685,714,765,832,1018,1087,1103,1106,1106,1090,1080,1077,1073,1063,1017,1005,1003,1003,1004,1020,1074],"ymouse":[543,543,543,543,544,544,544,544,544,544,544,546,546,546,546,546,546,546,546,546,546,546,546,545,544,544,544,544,544,544,544,544,544,543,543,553,554,554,554,554,517,501,488,484,482,481,477,452,400,338,240,219,215,212,207,187,176,170,164,154,130,124,124,124,121,103,48],"timestamp_mouse":[5,21,43,61,81,102,122,142,162,182,201,221,241,261,281,301,322,341,361,382,402,422,441,461,481,502,522,541,562,583,601,621,641,661,682,701,722,742,761,781,801,822,841,862,882,901,921,942,961,981,1002,1022,1042,1061,1081,1101,1122,1141,1161,1182,1201,1221,1241,1261,1282,1301,1322],"xSR":741.5,"ySR":469.95,"xT1":424.9,"yT1":0,"xT2":1058.1,"yT2":0,"toosoon":0,"cond_shown":"equaldotanddens","ratio_trial":900,"smaller_num":"18","larger_num":"20","correct_side":1,"subjID":"NicolásGonzalezGarcía20","gender":"0","age":"12","school":"6"},{"start_time":1551794888286,"click_time":1551794889389,"finger_time":1551794889230,"fix_duration":1096.5426394111025,"trial":22,"RT":944,"MT":159,"sideResp":1,"stimulus":"img/250/randomdotsizeEA/L/15_Ratio_250_L_12_R_3.png","xmouse":[769,769,769,769,769,769,769,769,769,769,769,769,769,769,769,769,769,769,769,769,769,769,769,769,769,769,769,769,769,769,769,769,769,769,769,769,769,769,769,769,769,769,769,769,761,755,742,725,641,606,583,573,564,543,526,508],"ymouse":[524,524,524,524,524,524,524,524,524,524,524,524,524,524,524,524,524,524,524,524,524,524,524,524,524,524,524,524,524,524,524,524,524,524,524,524,524,524,524,524,524,524,524,524,518,513,502,476,339,258,151,86,59,36,31,25],"timestamp_mouse":[3,23,43,64,84,103,124,144,163,184,205,223,244,263,283,303,323,343,363,384,403,423,443,463,483,503,524,543,564,583,603,623,643,663,685,704,724,743,763,783,803,824,844,863,883,903,923,944,963,985,1003,1023,1044,1064,1083,1103],"xSR":741.5,"ySR":469.95,"xT1":424.9,"yT1":0,"xT2":1058.1,"yT2":0,"toosoon":0,"cond_shown":"randomdotsizeEA","ratio_trial":250,"smaller_num":"3","larger_num":"12","correct_side":1,"subjID":"NicolásGonzalezGarcía20","gender":"0","age":"12","school":"6"},{"start_time":1551794890421,"click_time":1551794891449,"finger_time":1551794891149,"fix_duration":250,"trial":23,"RT":728,"MT":300,"sideResp":2,"stimulus":"img/900/equaldotsize/R/11_Ratio_900_L_18_R_20.png","xmouse":[799,799,799,799,799,799,799,799,799,799,799,799,799,799,799,799,799,799,799,799,799,799,799,799,799,799,799,799,799,799,799,799,799,799,808,823,843,854,891,1022,1149,1303,1332,1335,1336,1336,1336,1336,1336,1320,1320,1155],"ymouse":[514,514,514,514,514,514,514,514,514,514,514,514,514,514,514,514,514,514,514,514,514,514,514,514,514,514,514,514,514,514,514,514,514,513,498,481,448,429,398,329,266,113,33,9,2,2,2,2,2,3,3,13],"timestamp_mouse":[8,29,48,69,89,109,129,148,168,189,209,228,249,269,288,309,328,349,370,388,408,429,450,469,489,509,529,548,569,588,608,629,649,668,689,708,728,748,769,789,808,828,848,868,888,910,929,948,969,988,1009,1028],"xSR":741.5,"ySR":469.95,"xT1":424.9,"yT1":0,"xT2":1058.1,"yT2":0,"toosoon":0,"cond_shown":"equaldotsize","ratio_trial":900,"smaller_num":"18","larger_num":"20","correct_side":2,"subjID":"NicolásGonzalezGarcía20","gender":"0","age":"12","school":"6"},{"start_time":1551794892704,"click_time":1551794894549,"finger_time":1551794893469,"fix_duration":454.2250914657704,"trial":24,"RT":765,"MT":1080,"sideResp":2,"stimulus":"img/250/equaldotsize/R/8_Ratio_250_L_1_R_4.png","xmouse":[830,830,830,830,830,830,830,830,830,830,830,830,830,830,830,830,830,830,830,830,830,830,830,830,830,830,830,830,830,831,833,833,833,834,834,834,835,841,844,844,844,844,844,844,844,844,844,844,844,844,844,836,781,751,725,712,711,711,711,711,710,711,729,753,778,796,805,832,859,879,906,931,1002,1037,1064,1087,1104,1124,1124,1127,1131,1133,1133,1134,1139,1145,1150,1155,1157,1157,1157,1157,1151],"ymouse":[518,518,518,518,518,518,518,518,518,518,518,518,518,518,518,518,518,518,518,518,518,518,518,518,518,518,518,518,518,518,518,518,518,518,518,518,518,518,518,518,518,518,518,518,518,518,518,518,518,518,518,519,527,531,535,536,536,536,536,536,536,532,492,452,404,361,335,282,252,239,226,214,184,167,155,147,142,138,138,137,137,137,137,136,133,127,119,105,101,101,101,101,98],"timestamp_mouse":[5,25,46,65,85,106,125,146,165,186,206,225,245,265,286,307,325,346,365,385,406,425,445,465,486,506,525,545,566,585,607,625,645,666,685,707,726,745,765,785,807,825,845,865,886,905,926,946,966,985,1005,1025,1045,1065,1085,1105,1125,1145,1165,1186,1205,1225,1245,1266,1286,1305,1325,1345,1365,1385,1405,1425,1446,1465,1486,1505,1526,1546,1565,1585,1606,1625,1645,1666,1685,1705,1725,1745,1766,1785,1805,1825,1845],"xSR":741.5,"ySR":469.95,"xT1":424.9,"yT1":0,"xT2":1058.1,"yT2":0,"toosoon":0,"cond_shown":"equaldotsize","ratio_trial":250,"smaller_num":"1","larger_num":"4","correct_side":2,"subjID":"NicolásGonzalezGarcía20","gender":"0","age":"12","school":"6"},{"start_time":1551794898076,"click_time":1551794899049,"finger_time":1551794898689,"fix_duration":1246.8723248195147,"trial":25,"RT":613,"MT":360,"sideResp":2,"stimulus":"img/750/equaldotanddens/L/8_Ratio_750_L_4_R_3.png","xmouse":[804,804,804,804,804,804,804,804,804,804,804,804,804,804,804,804,804,804,804,804,804,804,804,804,804,804,804,804,804,819,834,855,876,902,905,913,924,936,976,986,1005,1009,1013,1031,1054,1079,1101,1115,1139],"ymouse":[520,520,520,520,520,520,520,520,520,520,520,520,520,520,520,520,520,520,520,520,520,520,520,520,520,520,520,520,518,492,467,426,380,313,293,269,248,229,192,186,173,167,164,154,144,134,123,113,64],"timestamp_mouse":[13,33,53,73,94,113,134,154,174,193,215,234,253,274,293,315,334,353,373,393,414,434,453,474,493,513,534,553,573,593,613,634,653,674,693,713,733,753,773,793,813,834,853,873,894,913,933,954,973],"xSR":741.5,"ySR":469.95,"xT1":424.9,"yT1":0,"xT2":1058.1,"yT2":0,"toosoon":0,"cond_shown":"equaldotanddens","ratio_trial":750,"smaller_num":"3","larger_num":"4","correct_side":1,"subjID":"NicolásGonzalezGarcía20","gender":"0","age":"12","school":"6"},{"start_time":1551794900121,"click_time":1551794901089,"finger_time":1551794900910,"fix_duration":250,"trial":26,"RT":789,"MT":179,"sideResp":2,"stimulus":"img/500/equaldotsize/R/3_Ratio_500_L_10_R_20.png","xmouse":[795,795,795,795,795,795,795,795,795,795,795,795,795,795,795,795,795,795,794,794,794,794,794,794,794,794,794,794,794,794,791,789,789,789,790,793,806,819,826,831,857,890,893,896,902,925,984,1032,1116],"ymouse":[533,533,533,533,533,533,533,533,533,533,533,533,533,533,533,533,533,533,534,535,535,535,535,535,535,535,535,535,535,535,536,538,538,538,536,532,515,497,485,469,426,378,371,365,358,315,219,160,88],"timestamp_mouse":[8,29,48,68,88,108,129,149,169,188,208,229,250,268,288,309,328,348,368,389,409,429,448,470,488,509,529,549,569,588,608,629,649,668,690,708,728,748,769,789,808,828,848,868,888,908,929,948,968],"xSR":741.5,"ySR":469.95,"xT1":424.9,"yT1":0,"xT2":1058.1,"yT2":0,"toosoon":0,"cond_shown":"equaldotsize","ratio_trial":500,"smaller_num":"10","larger_num":"20","correct_side":2,"subjID":"NicolásGonzalezGarcía20","gender":"0","age":"12","school":"6"},{"start_time":1551794903402,"click_time":1551794904769,"finger_time":1551794904350,"fix_duration":1232.7765426913895,"trial":27,"RT":948,"MT":419,"sideResp":2,"stimulus":"img/900/randomdotsizeEA/L/1_Ratio_900_L_10_R_9.png","xmouse":[788,788,788,788,788,788,788,788,788,788,788,788,788,788,788,788,788,788,788,788,788,788,788,788,788,788,788,788,788,788,788,788,792,795,799,799,799,799,799,799,799,800,800,799,799,799,796,776,758,746,739,739,740,740,740,740,740,748,768,792,826,860,932,942,976,990,1008,1051,1121],"ymouse":[518,518,518,518,518,518,518,518,518,518,518,518,518,518,518,518,518,518,518,518,518,518,518,518,518,518,518,518,518,518,518,518,514,506,503,502,502,502,502,502,502,502,498,495,493,490,484,451,426,409,396,393,389,388,386,381,380,368,356,337,304,263,182,173,146,137,122,89,29],"timestamp_mouse":[7,27,48,67,87,107,127,148,167,188,207,227,248,268,288,307,328,348,368,387,408,427,448,468,487,507,528,547,567,587,608,627,647,667,687,707,727,747,769,788,809,828,848,867,887,908,927,948,968,987,1007,1027,1047,1067,1088,1109,1127,1147,1167,1187,1207,1228,1247,1267,1287,1307,1328,1347,1367],"xSR":741.5,"ySR":469.95,"xT1":424.9,"yT1":0,"xT2":1058.1,"yT2":0,"toosoon":0,"cond_shown":"randomdotsizeEA","ratio_trial":900,"smaller_num":"9","larger_num":"10","correct_side":1,"subjID":"NicolásGonzalezGarcía20","gender":"0","age":"12","school":"6"},{"start_time":1551794905880,"click_time":1551794907331,"finger_time":1551794907089,"fix_duration":250,"trial":28,"RT":1209,"MT":242,"sideResp":1,"stimulus":"img/750/randomdotsizeEA/L/14_Ratio_750_L_8_R_6.png","xmouse":[782,782,782,782,782,782,782,782,782,782,783,783,784,784,784,784,785,785,785,785,785,785,785,785,786,786,786,786,787,787,787,788,788,788,788,788,787,787,787,787,787,786,786,786,785,785,785,785,784,783,782,780,780,780,779,778,777,775,774,773,772,771,766,720,674,618,574,561,559,554,540,525,523],"ymouse":[497,497,497,497,497,497,497,497,498,498,498,498,497,497,497,497,497,497,497,497,497,497,496,495,493,492,491,490,490,490,489,488,488,487,487,487,486,484,482,482,482,481,481,481,481,481,481,481,481,480,480,479,478,478,478,478,478,477,475,471,466,458,441,373,308,226,166,143,135,129,113,94,88],"timestamp_mouse":[9,29,50,70,89,110,130,150,169,190,209,229,250,269,290,309,331,349,369,389,409,429,450,469,489,510,529,551,570,590,609,630,649,669,689,709,730,750,770,789,809,830,850,870,889,909,930,949,969,989,1009,1030,1049,1070,1089,1110,1130,1150,1169,1189,1209,1229,1249,1269,1289,1309,1329,1350,1369,1389,1409,1429,1450],"xSR":741.5,"ySR":469.95,"xT1":424.9,"yT1":0,"xT2":1058.1,"yT2":0,"toosoon":0,"cond_shown":"randomdotsizeEA","ratio_trial":750,"smaller_num":"6","larger_num":"8","correct_side":1,"subjID":"NicolásGonzalezGarcía20","gender":"0","age":"12","school":"6"},{"start_time":1551794909980,"click_time":1551794911229,"finger_time":1551794910869,"fix_duration":250,"trial":29,"RT":889,"MT":360,"sideResp":2,"stimulus":"img/900/equaldotanddens/R/13_Ratio_900_L_18_R_20.png","xmouse":[798,798,798,798,798,798,798,798,798,798,798,798,798,798,798,798,798,798,798,798,798,798,798,798,798,798,798,798,798,798,798,798,798,798,798,798,798,798,798,798,798,799,799,805,811,821,835,854,913,939,964,986,1010,1073,1079,1087,1088,1088,1088,1088,1092,1095,1096],"ymouse":[485,485,485,485,485,485,485,485,485,485,485,485,485,485,485,485,485,485,485,485,485,485,485,485,485,485,485,485,485,485,485,485,485,485,485,485,485,485,485,485,485,484,483,473,462,446,429,415,378,364,346,326,310,259,248,223,213,209,187,166,138,109,89],"timestamp_mouse":[11,30,49,70,89,109,130,149,169,189,209,229,249,270,289,309,329,349,370,389,410,429,449,470,490,510,530,549,569,589,609,629,649,670,689,709,730,750,769,789,809,831,849,869,889,910,929,951,970,989,1010,1029,1049,1069,1090,1109,1131,1151,1170,1189,1209,1229,1249],"xSR":741.5,"ySR":469.95,"xT1":424.9,"yT1":0,"xT2":1058.1,"yT2":0,"toosoon":0,"cond_shown":"equaldotanddens","ratio_trial":900,"smaller_num":"18","larger_num":"20","correct_side":2,"subjID":"NicolásGonzalezGarcía20","gender":"0","age":"12","school":"6"},{"start_time":1551794912887,"click_time":1551794913890,"finger_time":1551794913631,"fix_duration":956.972590059727,"trial":30,"RT":744,"MT":259,"sideResp":1,"stimulus":"img/250/equaldotsize/L/15_Ratio_250_L_12_R_3.png","xmouse":[804,804,804,804,804,804,804,804,804,804,804,804,804,804,804,804,804,804,804,804,804,804,804,804,804,804,804,804,804,804,804,804,804,804,804,801,795,769,691,643,622,610,609,609,607,598,581,557,523,520,518],"ymouse":[514,514,514,514,514,514,514,514,514,514,514,514,514,514,514,514,514,514,514,514,514,514,514,514,514,514,514,514,514,514,514,514,514,514,514,505,493,466,389,323,286,246,222,186,169,150,132,118,103,101,99],"timestamp_mouse":[5,22,43,63,82,102,122,143,162,182,202,222,242,262,282,302,322,342,363,382,402,422,442,463,483,503,522,543,562,582,602,623,642,662,682,702,722,744,763,783,802,823,842,862,883,902,922,942,962,982,1003],"xSR":741.5,"ySR":469.95,"xT1":424.9,"yT1":0,"xT2":1058.1,"yT2":0,"toosoon":0,"cond_shown":"equaldotsize","ratio_trial":250,"smaller_num":"3","larger_num":"12","correct_side":1,"subjID":"NicolásGonzalezGarcía20","gender":"0","age":"12","school":"6"},{"start_time":1551794916298,"click_time":1551794917349,"finger_time":1551794917049,"fix_duration":286.4921600245239,"trial":31,"RT":751,"MT":300,"sideResp":1,"stimulus":"img/750/equaldotanddens/L/14_Ratio_750_L_8_R_6.png","xmouse":[783,783,783,783,783,783,783,783,783,783,783,783,783,783,783,783,783,783,783,783,783,783,783,783,783,783,783,783,783,784,784,787,788,788,789,789,789,809,866,948,1022,1058,1070,1070,1070,1067,1064,1037,996,894,793,656,449],"ymouse":[527,527,527,527,527,527,527,527,527,527,527,527,527,527,527,527,527,527,527,527,527,527,527,527,527,527,527,527,527,527,521,509,501,498,497,496,495,468,417,361,306,263,219,208,203,198,193,173,154,119,101,82,74],"timestamp_mouse":[11,32,51,72,91,112,131,151,172,191,212,231,252,272,291,311,332,351,372,393,411,432,451,471,491,512,531,552,572,591,611,632,651,671,691,711,731,751,772,791,813,833,852,871,891,911,933,952,971,991,1012,1031,1051],"xSR":741.5,"ySR":469.95,"xT1":424.9,"yT1":0,"xT2":1058.1,"yT2":0,"toosoon":0,"cond_shown":"equaldotanddens","ratio_trial":750,"smaller_num":"6","larger_num":"8","correct_side":1,"subjID":"NicolásGonzalezGarcía20","gender":"0","age":"12","school":"6"},{"start_time":1551794918721,"click_time":1551794919649,"finger_time":1551794919270,"fix_duration":671.8113897941851,"trial":32,"RT":549,"MT":379,"sideResp":1,"stimulus":"img/250/equaldotsize/L/14_Ratio_250_L_12_R_3.png","xmouse":[796,796,796,796,796,796,796,796,796,796,796,796,796,796,796,796,796,796,796,796,796,796,796,796,796,796,796,796,780,739,683,592,575,569,564,560,550,540,538,537,537,537,537,537,535,534,504],"ymouse":[473,473,473,473,473,473,473,473,473,473,473,473,473,473,473,473,473,473,473,473,473,473,473,473,473,473,473,468,441,388,321,188,143,119,106,96,84,81,80,80,80,80,80,80,80,84,98],"timestamp_mouse":[9,28,48,68,88,108,128,148,170,188,209,228,248,268,288,308,329,348,370,388,408,429,450,468,488,508,529,549,569,589,609,628,648,669,688,708,729,749,769,788,808,829,849,869,888,908,928],"xSR":741.5,"ySR":469.95,"xT1":424.9,"yT1":0,"xT2":1058.1,"yT2":0,"toosoon":0,"cond_shown":"equaldotsize","ratio_trial":250,"smaller_num":"3","larger_num":"12","correct_side":1,"subjID":"NicolásGonzalezGarcía20","gender":"0","age":"12","school":"6"},{"start_time":1551794920681,"click_time":1551794921649,"finger_time":1551794921409,"fix_duration":250,"trial":33,"RT":728,"MT":240,"sideResp":1,"stimulus":"img/500/randomdotsizeEA/L/13_Ratio_500_L_12_R_6.png","xmouse":[792,792,792,792,792,792,792,792,792,792,791,791,791,791,791,791,791,791,791,791,791,791,791,791,791,790,784,779,762,760,763,769,775,778,778,776,741,663,480,418,416,423,431,438,439,434,422,418,478],"ymouse":[557,557,557,557,557,557,557,557,557,557,557,557,557,557,557,557,557,557,557,557,557,557,557,557,557,555,549,544,525,519,516,513,510,506,503,486,444,374,220,154,141,133,129,128,126,113,95,76,41],"timestamp_mouse":[9,29,48,68,88,108,128,149,168,189,208,228,248,269,289,308,329,349,369,388,408,428,448,468,490,509,528,549,569,590,608,629,648,668,689,709,728,749,768,788,808,828,849,868,888,910,928,948,968],"xSR":741.5,"ySR":469.95,"xT1":424.9,"yT1":0,"xT2":1058.1,"yT2":0,"toosoon":0,"cond_shown":"randomdotsizeEA","ratio_trial":500,"smaller_num":"6","larger_num":"12","correct_side":1,"subjID":"NicolásGonzalezGarcía20","gender":"0","age":"12","school":"6"},{"start_time":1551794923045,"click_time":1551794923789,"finger_time":1551794923110,"fix_duration":595.7892715936471,"trial":34,"RT":65,"MT":679,"sideResp":2,"stimulus":"img/500/equaldotanddens/R/6_Ratio_500_L_9_R_18.png","xmouse":[799,808,831,873,944,999,994,984,972,962,961,961,960,958,954,952,948,933,907,887,878,878,878,877,873,862,847,839,837,837,842,851,860,875,909,1013,1049,1070],"ymouse":[480,478,477,477,478,502,515,526,533,535,535,535,535,535,535,535,534,529,518,510,509,509,509,509,509,508,501,497,496,495,488,477,455,418,352,178,89,26],"timestamp_mouse":[9,25,44,65,85,105,125,144,164,184,205,224,244,264,286,304,324,345,365,385,405,424,444,465,485,504,525,545,566,584,604,625,645,665,684,704,725,744],"xSR":741.5,"ySR":469.95,"xT1":424.9,"yT1":0,"xT2":1058.1,"yT2":0,"toosoon":0,"cond_shown":"equaldotanddens","ratio_trial":500,"smaller_num":"9","larger_num":"18","correct_side":2,"subjID":"NicolásGonzalezGarcía20","gender":"0","age":"12","school":"6"},{"start_time":1551794925008,"click_time":1551794925910,"finger_time":1551794925610,"fix_duration":377.1824543696255,"trial":35,"RT":602,"MT":300,"sideResp":2,"stimulus":"img/900/equaldotanddens/R/6_Ratio_900_L_9_R_10.png","xmouse":[826,826,826,826,826,826,826,826,826,826,826,826,826,826,826,826,826,826,826,826,826,826,826,826,826,826,826,826,826,836,845,876,960,998,1013,1023,1026,1026,1026,1026,1026,1028,1039,1051,1056,1059],"ymouse":[487,487,487,487,487,487,487,487,487,487,487,487,487,487,487,487,487,487,487,487,487,487,487,487,487,487,487,487,487,473,458,397,260,194,175,159,149,142,139,137,135,130,114,101,98,97],"timestamp_mouse":[2,21,41,61,81,102,121,141,161,181,201,222,242,262,282,302,321,342,361,382,402,421,441,463,481,502,521,541,562,581,602,622,641,662,682,701,722,741,761,781,801,822,841,862,882,902],"xSR":741.5,"ySR":469.95,"xT1":424.9,"yT1":0,"xT2":1058.1,"yT2":0,"toosoon":0,"cond_shown":"equaldotanddens","ratio_trial":900,"smaller_num":"9","larger_num":"10","correct_side":2,"subjID":"NicolásGonzalezGarcía20","gender":"0","age":"12","school":"6"},{"start_time":1551794926881,"click_time":1551794927949,"finger_time":1551794927489,"fix_duration":250,"trial":36,"RT":608,"MT":460,"sideResp":1,"stimulus":"img/500/equaldotanddens/L/8_Ratio_500_L_8_R_4.png","xmouse":[782,782,782,783,787,791,791,791,791,791,791,791,791,791,791,791,791,791,791,791,791,791,791,791,791,791,791,791,789,753,725,693,675,667,663,663,663,663,663,663,663,662,646,580,563,559,557,557,557,552,545,532,521,513],"ymouse":[528,528,527,526,523,521,521,521,520,520,520,520,520,520,520,520,520,520,520,520,520,520,520,520,520,520,520,519,517,500,482,458,437,418,409,409,409,409,409,409,406,390,357,252,218,201,184,171,156,144,133,120,108,92],"timestamp_mouse":[10,29,49,69,88,109,129,148,169,189,208,228,250,268,289,308,330,348,368,388,408,428,448,469,489,508,529,549,568,589,608,629,649,668,688,709,728,749,768,788,808,830,848,868,889,909,928,948,969,989,1008,1030,1049,1068],"xSR":741.5,"ySR":469.95,"xT1":424.9,"yT1":0,"xT2":1058.1,"yT2":0,"toosoon":0,"cond_shown":"equaldotanddens","ratio_trial":500,"smaller_num":"4","larger_num":"8","correct_side":1,"subjID":"NicolásGonzalezGarcía20","gender":"0","age":"12","school":"6"},{"start_time":1551794929971,"click_time":1551794931089,"finger_time":1551794930889,"fix_duration":1360.0987925882284,"trial":37,"RT":918,"MT":200,"sideResp":2,"stimulus":"img/500/randomdotsizeEA/R/3_Ratio_500_L_10_R_20.png","xmouse":[811,811,811,811,811,811,811,811,811,811,811,811,811,811,811,811,811,811,811,811,811,811,811,811,811,811,811,811,811,811,811,812,812,813,813,813,813,813,813,813,813,813,814,817,834,851,881,923,1012,1022,1022,1022,1022,1051,1075,1101],"ymouse":[513,512,512,512,512,512,512,512,512,512,512,512,512,512,512,512,512,512,512,512,512,512,512,512,512,512,512,512,512,512,512,510,509,508,508,507,507,507,507,507,507,507,506,500,480,462,437,395,272,245,223,206,192,138,104,74],"timestamp_mouse":[19,38,58,79,99,118,138,159,179,198,218,238,258,279,299,319,338,359,379,399,420,439,458,478,499,518,539,558,579,599,619,638,659,679,698,718,739,758,779,798,818,838,858,878,898,918,939,959,978,999,1019,1038,1059,1078,1099,1118],"xSR":741.5,"ySR":469.95,"xT1":424.9,"yT1":0,"xT2":1058.1,"yT2":0,"toosoon":0,"cond_shown":"randomdotsizeEA","ratio_trial":500,"smaller_num":"10","larger_num":"20","correct_side":2,"subjID":"NicolásGonzalezGarcía20","gender":"0","age":"12","school":"6"},{"start_time":1551794933063,"click_time":1551794933689,"finger_time":1551794933631,"fix_duration":1191.1524320651474,"trial":38,"RT":568,"MT":58,"sideResp":1,"stimulus":"img/500/equaldotsize/L/7_Ratio_500_L_10_R_5.png","xmouse":[801,801,801,801,801,801,801,801,801,801,801,801,801,801,801,801,801,801,801,801,801,801,801,801,800,796,791,781,751,607,499,475],"ymouse":[500,500,500,500,500,500,500,500,500,500,500,500,500,500,500,500,500,500,500,500,500,500,500,500,500,498,491,476,434,263,128,84],"timestamp_mouse":[6,27,47,67,86,108,126,146,166,186,206,226,247,266,287,306,326,346,367,386,406,426,447,466,487,506,527,548,568,587,607,626],"xSR":741.5,"ySR":469.95,"xT1":424.9,"yT1":0,"xT2":1058.1,"yT2":0,"toosoon":0,"cond_shown":"equaldotsize","ratio_trial":500,"smaller_num":"5","larger_num":"10","correct_side":1,"subjID":"NicolásGonzalezGarcía20","gender":"0","age":"12","school":"6"},{"start_time":1551794935106,"click_time":1551794936009,"finger_time":1551794935671,"fix_duration":496.52239115174666,"trial":39,"RT":565,"MT":338,"sideResp":2,"stimulus":"img/900/equaldotsize/R/9_Ratio_900_L_18_R_20.png","xmouse":[784,784,784,784,784,784,784,784,784,784,784,784,784,784,784,784,784,784,784,784,784,784,784,784,784,784,784,804,852,929,1005,1073,1144,1152,1153,1151,1149,1154,1162,1171,1169,1165,1161,1160,1159,1155],"ymouse":[494,494,494,494,494,494,494,494,494,494,494,494,494,494,494,494,494,494,494,494,494,494,494,494,494,494,493,475,461,434,397,351,259,224,199,184,175,135,110,46,27,22,21,22,22,26],"timestamp_mouse":[4,23,43,63,83,103,123,143,163,183,203,223,243,264,283,304,324,344,364,383,404,423,444,464,483,504,523,543,565,583,603,623,643,663,684,703,724,743,765,783,803,823,843,863,884,903],"xSR":741.5,"ySR":469.95,"xT1":424.9,"yT1":0,"xT2":1058.1,"yT2":0,"toosoon":0,"cond_shown":"equaldotsize","ratio_trial":900,"smaller_num":"18","larger_num":"20","correct_side":2,"subjID":"NicolásGonzalezGarcía20","gender":"0","age":"12","school":"6"},{"start_time":1551794937002,"click_time":1551794937849,"finger_time":1551794937549,"fix_duration":250,"trial":40,"RT":547,"MT":300,"sideResp":2,"stimulus":"img/500/equaldotanddens/R/14_Ratio_500_L_5_R_10.png","xmouse":[830,830,830,830,830,828,828,828,828,828,828,828,828,828,828,828,829,829,829,829,829,829,829,829,829,829,831,847,869,893,906,912,976,1005,1037,1061,1077,1087,1089,1092,1097,1113,1134],"ymouse":[524,524,524,524,524,524,524,524,524,524,524,524,524,524,524,524,524,524,524,524,524,524,524,524,524,524,524,512,490,464,439,414,287,252,231,218,212,205,200,186,167,133,81],"timestamp_mouse":[8,27,47,67,88,107,127,148,167,188,207,227,247,267,289,308,328,348,368,387,407,428,447,469,487,508,527,547,567,587,607,627,647,667,687,707,727,747,768,788,807,828,847],"xSR":741.5,"ySR":469.95,"xT1":424.9,"yT1":0,"xT2":1058.1,"yT2":0,"toosoon":0,"cond_shown":"equaldotanddens","ratio_trial":500,"smaller_num":"5","larger_num":"10","correct_side":2,"subjID":"NicolásGonzalezGarcía20","gender":"0","age":"12","school":"6"},{"start_time":1551794939625,"click_time":1551794940910,"finger_time":1551794940452,"fix_duration":1074.0664475981207,"trial":41,"RT":827,"MT":458,"sideResp":2,"stimulus":"img/900/randomdotsizeEA/L/1_Ratio_900_L_10_R_9.png","xmouse":[757,757,757,757,757,757,757,757,757,757,757,757,757,757,757,757,757,757,757,757,757,757,757,757,757,757,757,757,757,757,757,757,757,757,757,757,757,757,758,763,770,780,781,781,781,781,781,782,789,812,848,946,980,982,982,982,988,992,999,1005,1032,1056,1058,1058,1059],"ymouse":[530,530,530,530,530,530,530,530,530,530,530,530,530,530,530,530,530,530,530,530,530,530,530,530,530,529,529,528,528,528,528,528,528,528,528,528,528,523,516,497,476,455,455,455,455,455,455,452,444,423,391,287,253,253,251,246,229,219,206,191,153,83,80,80,78],"timestamp_mouse":[6,25,47,66,85,105,125,145,165,185,205,225,246,265,285,305,325,346,365,386,406,426,445,465,486,505,525,546,565,585,605,626,645,665,685,706,725,745,766,786,806,827,845,866,885,906,926,946,966,986,1005,1025,1045,1066,1086,1105,1125,1147,1166,1185,1205,1225,1246,1265,1285],"xSR":741.5,"ySR":469.95,"xT1":424.9,"yT1":0,"xT2":1058.1,"yT2":0,"toosoon":0,"cond_shown":"randomdotsizeEA","ratio_trial":900,"smaller_num":"9","larger_num":"10","correct_side":1,"subjID":"NicolásGonzalezGarcía20","gender":"0","age":"12","school":"6"},{"start_time":1551794942325,"click_time":1551794943250,"finger_time":1551794942950,"fix_duration":493.71563196957504,"trial":42,"RT":625,"MT":300,"sideResp":2,"stimulus":"img/750/randomdotsizeEA/L/9_Ratio_750_L_4_R_3.png","xmouse":[757,757,757,757,757,757,757,757,757,757,757,757,757,757,757,757,757,757,757,757,757,757,757,757,763,771,786,786,786,786,792,849,917,1011,1104,1179,1226,1226,1217,1194,1177,1144,1119,1083,1056,1051,1070],"ymouse":[525,525,525,525,525,525,525,525,525,525,526,526,526,526,526,526,526,526,526,526,526,526,526,526,526,523,516,516,513,509,490,398,340,280,228,197,181,181,178,168,159,139,128,113,101,97,84],"timestamp_mouse":[6,25,45,66,86,105,125,146,166,186,205,225,245,265,285,305,325,345,365,387,405,425,445,465,487,505,526,546,566,586,605,625,647,666,687,706,725,746,766,786,806,825,846,865,885,905,925],"xSR":741.5,"ySR":469.95,"xT1":424.9,"yT1":0,"xT2":1058.1,"yT2":0,"toosoon":0,"cond_shown":"randomdotsizeEA","ratio_trial":750,"smaller_num":"3","larger_num":"4","correct_side":1,"subjID":"NicolásGonzalezGarcía20","gender":"0","age":"12","school":"6"},{"start_time":1551794944306,"click_time":1551794945170,"finger_time":1551794944930,"fix_duration":334.5728251742854,"trial":43,"RT":624,"MT":240,"sideResp":2,"stimulus":"img/900/equaldotsize/L/8_Ratio_900_L_20_R_18.png","xmouse":[770,770,770,770,770,770,770,770,770,770,770,770,770,770,770,770,770,770,770,770,770,770,770,772,773,775,775,775,775,784,800,886,1087,1164,1186,1189,1189,1188,1190,1189,1183,1174,1161,1156],"ymouse":[506,506,506,506,506,506,506,506,506,506,506,506,506,506,506,506,506,506,506,506,506,506,506,506,506,507,507,507,507,502,490,431,289,250,228,206,183,143,117,104,93,79,57,50],"timestamp_mouse":[4,24,44,65,86,106,125,144,166,184,204,224,244,264,284,305,324,344,365,385,405,425,445,464,485,505,525,544,564,584,606,624,644,665,684,706,724,744,766,784,804,824,844,864],"xSR":741.5,"ySR":469.95,"xT1":424.9,"yT1":0,"xT2":1058.1,"yT2":0,"toosoon":0,"cond_shown":"equaldotsize","ratio_trial":900,"smaller_num":"18","larger_num":"20","correct_side":1,"subjID":"NicolásGonzalezGarcía20","gender":"0","age":"12","school":"6"},{"start_time":1551794946297,"click_time":1551794947292,"finger_time":1551794947150,"fix_duration":266.1645860998506,"trial":44,"RT":853,"MT":142,"sideResp":1,"stimulus":"img/250/randomdotsizeEA/L/7_Ratio_250_L_8_R_2.png","xmouse":[784,784,784,784,784,784,784,784,784,782,782,781,781,781,781,781,781,781,781,781,781,781,781,781,781,781,781,781,781,781,781,781,781,781,781,781,781,781,781,780,778,766,704,642,587,558,550,549,541,519],"ymouse":[514,514,514,514,514,514,514,514,514,512,512,511,511,511,511,511,511,511,511,511,511,511,511,511,511,511,511,511,511,511,511,511,511,511,511,511,511,511,511,509,502,475,347,269,207,177,158,96,62,25],"timestamp_mouse":[14,34,54,73,93,113,133,154,174,193,213,234,254,273,293,313,334,353,373,393,413,434,454,474,493,513,533,554,573,593,613,633,653,674,693,713,733,754,775,793,813,834,853,873,893,913,933,953,974,995],"xSR":741.5,"ySR":469.95,"xT1":424.9,"yT1":0,"xT2":1058.1,"yT2":0,"toosoon":0,"cond_shown":"randomdotsizeEA","ratio_trial":250,"smaller_num":"2","larger_num":"8","correct_side":1,"subjID":"NicolásGonzalezGarcía20","gender":"0","age":"12","school":"6"},{"start_time":1551794948959,"click_time":1551794949850,"finger_time":1551794949550,"fix_duration":928.6030303140726,"trial":45,"RT":591,"MT":300,"sideResp":2,"stimulus":"img/750/equaldotsize/L/9_Ratio_750_L_4_R_3.png","xmouse":[805,805,808,808,808,808,808,808,808,808,808,808,808,808,808,808,808,808,808,808,808,808,808,808,808,809,812,815,821,854,884,924,966,1020,1126,1154,1157,1157,1157,1157,1157,1157,1155,1146,1122],"ymouse":[531,531,531,531,531,531,531,531,531,531,531,532,534,535,535,535,535,535,535,535,535,535,535,535,535,535,530,524,508,439,374,307,256,221,184,165,156,148,143,141,141,140,138,124,87],"timestamp_mouse":[12,31,51,71,91,111,131,151,171,191,211,232,252,271,291,312,331,351,373,392,411,433,452,471,491,511,531,551,572,591,611,632,651,671,691,712,731,752,771,791,811,831,852,871,891],"xSR":741.5,"ySR":469.95,"xT1":424.9,"yT1":0,"xT2":1058.1,"yT2":0,"toosoon":0,"cond_shown":"equaldotsize","ratio_trial":750,"smaller_num":"3","larger_num":"4","correct_side":1,"subjID":"NicolásGonzalezGarcía20","gender":"0","age":"12","school":"6"},{"start_time":1551794951061,"click_time":1551794951871,"finger_time":1551794951671,"fix_duration":250,"trial":46,"RT":610,"MT":200,"sideResp":1,"stimulus":"img/250/randomdotsizeEA/L/5_Ratio_250_L_24_R_6.png","xmouse":[806,804,804,804,804,804,804,804,804,804,804,804,804,804,804,804,804,804,804,804,804,804,804,804,804,804,804,803,801,794,764,729,688,651,616,605,599,594,586,543,523],"ymouse":[512,512,512,512,512,512,512,512,512,512,512,512,512,512,512,512,512,512,512,512,512,512,512,512,512,512,512,512,511,505,468,409,335,273,199,185,177,173,162,87,53],"timestamp_mouse":[10,30,50,69,89,110,130,149,169,189,209,229,250,270,289,309,329,349,370,389,409,429,449,469,490,509,530,549,570,590,610,629,649,669,689,709,729,749,769,789,810],"xSR":741.5,"ySR":469.95,"xT1":424.9,"yT1":0,"xT2":1058.1,"yT2":0,"toosoon":0,"cond_shown":"randomdotsizeEA","ratio_trial":250,"smaller_num":"6","larger_num":"24","correct_side":1,"subjID":"NicolásGonzalezGarcía20","gender":"0","age":"12","school":"6"},{"start_time":1551794953509,"click_time":1551794954610,"finger_time":1551794954530,"fix_duration":758.1542831650664,"trial":47,"RT":1021,"MT":80,"sideResp":1,"stimulus":"img/500/randomdotsizeEA/L/10_Ratio_500_L_4_R_2.png","xmouse":[815,815,815,815,815,815,815,815,815,815,815,815,815,815,815,815,815,815,815,815,815,815,815,815,815,815,815,815,815,815,815,815,815,815,815,815,815,815,815,815,815,815,815,814,813,812,811,807,805,803,800,784,719,661,579,496],"ymouse":[501,501,501,501,501,501,501,501,501,501,501,501,501,501,501,501,501,501,501,501,501,501,501,501,501,501,501,501,501,501,501,501,501,501,501,501,501,501,501,501,501,501,501,501,501,501,501,501,501,501,485,425,267,200,139,89],"timestamp_mouse":[4,21,41,61,81,102,122,142,162,181,201,222,242,261,281,301,321,341,362,382,401,421,443,461,481,501,521,541,563,581,601,622,641,662,682,701,722,742,762,781,801,821,842,861,881,902,922,942,961,981,1003,1021,1042,1063,1081,1101],"xSR":741.5,"ySR":469.95,"xT1":424.9,"yT1":0,"xT2":1058.1,"yT2":0,"toosoon":0,"cond_shown":"randomdotsizeEA","ratio_trial":500,"smaller_num":"2","larger_num":"4","correct_side":1,"subjID":"NicolásGonzalezGarcía20","gender":"0","age":"12","school":"6"},{"start_time":1551794956380,"click_time":1551794957250,"finger_time":1551794957051,"fix_duration":909.0297901081541,"trial":48,"RT":671,"MT":199,"sideResp":2,"stimulus":"img/900/equaldotanddens/R/15_Ratio_900_L_9_R_10.png","xmouse":[833,833,833,833,833,833,833,833,833,833,833,833,833,833,833,833,833,833,833,833,833,833,833,833,833,833,833,833,833,833,833,833,833,855,941,1031,1093,1123,1146,1146,1142,1135,1129,1125],"ymouse":[520,520,520,520,520,520,520,520,520,520,520,520,520,520,520,520,520,520,520,520,520,520,520,520,520,520,520,520,520,520,520,520,520,499,406,319,253,214,169,148,129,113,101,65],"timestamp_mouse":[11,30,50,71,90,111,130,151,170,190,210,231,250,271,290,310,331,350,370,392,410,430,450,471,491,510,531,550,571,590,610,630,651,671,691,711,731,751,771,790,810,830,850,870],"xSR":741.5,"ySR":469.95,"xT1":424.9,"yT1":0,"xT2":1058.1,"yT2":0,"toosoon":0,"cond_shown":"equaldotanddens","ratio_trial":900,"smaller_num":"9","larger_num":"10","correct_side":2,"subjID":"NicolásGonzalezGarcía20","gender":"0","age":"12","school":"6"},{"start_time":1551794960630,"click_time":1551794961471,"finger_time":1551794961250,"fix_duration":1317.3469035561225,"trial":49,"RT":620,"MT":221,"sideResp":2,"stimulus":"img/750/equaldotsize/L/1_Ratio_750_L_20_R_15.png","xmouse":[808,808,808,808,808,808,808,808,808,808,808,808,808,808,808,808,808,808,808,808,808,808,808,808,808,808,808,808,812,815,825,855,881,929,994,1061,1161,1177,1178,1178,1175,1163,1135],"ymouse":[539,539,539,539,539,539,539,539,539,539,539,539,539,539,539,539,539,539,539,539,539,539,539,539,539,539,539,539,539,539,539,497,441,353,258,175,83,63,52,47,43,41,39],"timestamp_mouse":[4,22,40,61,81,100,121,140,160,180,200,220,240,261,280,300,320,340,360,380,401,420,440,462,480,500,521,540,560,580,600,620,640,660,681,700,720,740,762,781,800,820,840],"xSR":741.5,"ySR":469.95,"xT1":424.9,"yT1":0,"xT2":1058.1,"yT2":0,"toosoon":0,"cond_shown":"equaldotsize","ratio_trial":750,"smaller_num":"15","larger_num":"20","correct_side":1,"subjID":"NicolásGonzalezGarcía20","gender":"0","age":"12","school":"6"},{"start_time":1551794964936,"click_time":1551794965930,"finger_time":1551794965650,"fix_duration":1065.659610555583,"trial":50,"RT":714,"MT":280,"sideResp":1,"stimulus":"img/250/randomdotsizeEA/L/1_Ratio_250_L_8_R_2.png","xmouse":[762,762,762,762,762,762,762,762,762,762,762,762,762,762,762,762,762,762,762,762,762,762,762,762,762,762,762,762,762,762,762,763,763,761,753,682,552,454,366,326,317,330,343,350,351,356,359,371,402,450],"ymouse":[525,525,525,525,525,525,525,525,525,525,525,525,525,525,525,525,525,525,525,525,525,525,525,525,525,525,525,525,525,525,525,525,525,522,514,455,345,247,142,92,69,65,61,56,51,31,22,14,10,12],"timestamp_mouse":[16,34,54,74,94,114,135,156,174,194,215,235,255,275,294,314,335,355,374,395,414,435,456,475,494,516,535,555,574,595,614,634,654,674,695,714,734,756,775,794,815,834,855,876,895,914,935,954,974,994],"xSR":741.5,"ySR":469.95,"xT1":424.9,"yT1":0,"xT2":1058.1,"yT2":0,"toosoon":0,"cond_shown":"randomdotsizeEA","ratio_trial":250,"smaller_num":"2","larger_num":"8","correct_side":1,"subjID":"NicolásGonzalezGarcía20","gender":"0","age":"12","school":"6"},{"start_time":1551794967445,"click_time":1551794968931,"finger_time":1551794968651,"fix_duration":773.6245572263158,"trial":51,"RT":1206,"MT":280,"sideResp":1,"stimulus":"img/750/randomdotsizeEA/L/1_Ratio_750_L_20_R_15.png","xmouse":[781,781,781,781,781,781,781,781,781,781,781,781,781,781,781,781,781,781,781,781,781,781,781,781,781,781,781,781,781,781,781,781,781,781,781,781,781,781,781,781,781,781,782,783,782,781,781,781,781,781,781,781,781,783,785,788,788,788,785,766,671,558,473,384,320,310,315,316,318,321,355,373,393,416,436],"ymouse":[534,534,534,534,534,534,534,534,534,534,534,534,534,534,534,534,534,534,534,534,534,534,534,534,534,534,534,534,534,534,534,534,534,534,534,534,534,534,534,534,534,534,534,532,527,525,525,525,525,525,525,525,524,521,516,504,501,500,495,482,400,293,211,128,64,41,36,35,34,30,11,9,9,11,17],"timestamp_mouse":[7,27,45,65,85,106,126,146,167,185,205,225,246,266,286,306,325,346,367,385,405,425,445,466,486,506,525,545,565,585,606,626,645,667,686,705,726,746,765,785,806,825,845,865,886,906,925,945,965,986,1005,1025,1045,1067,1085,1106,1125,1147,1165,1185,1206,1226,1245,1265,1285,1305,1326,1345,1365,1385,1406,1426,1446,1466,1486],"xSR":741.5,"ySR":469.95,"xT1":424.9,"yT1":0,"xT2":1058.1,"yT2":0,"toosoon":0,"cond_shown":"randomdotsizeEA","ratio_trial":750,"smaller_num":"15","larger_num":"20","correct_side":1,"subjID":"NicolásGonzalezGarcía20","gender":"0","age":"12","school":"6"},{"start_time":1551794970123,"click_time":1551794971130,"finger_time":1551794970751,"fix_duration":250,"trial":52,"RT":628,"MT":379,"sideResp":2,"stimulus":"img/500/equaldotsize/R/9_Ratio_500_L_2_R_4.png","xmouse":[791,791,791,791,791,791,791,791,791,791,791,791,791,791,791,791,791,791,792,796,797,797,797,797,797,797,797,797,799,803,823,892,908,920,946,972,1056,1165,1211,1240,1253,1256,1256,1256,1256,1256,1254,1240,1206,1159,1094],"ymouse":[490,490,490,490,490,490,490,490,490,490,490,490,490,490,490,490,490,490,486,478,478,478,478,478,478,478,478,478,478,478,475,449,431,403,344,298,223,146,103,70,44,17,12,11,11,11,10,12,23,40,66],"timestamp_mouse":[8,27,48,68,87,107,127,148,167,188,207,227,247,268,287,309,327,347,369,387,408,428,448,468,487,509,528,547,567,587,608,628,647,667,687,707,727,748,769,787,808,827,847,867,889,909,927,947,967,987,1007],"xSR":741.5,"ySR":469.95,"xT1":424.9,"yT1":0,"xT2":1058.1,"yT2":0,"toosoon":0,"cond_shown":"equaldotsize","ratio_trial":500,"smaller_num":"2","larger_num":"4","correct_side":2,"subjID":"NicolásGonzalezGarcía20","gender":"0","age":"12","school":"6"},{"start_time":1551794973016,"click_time":1551794973851,"finger_time":1551794973750,"fix_duration":1264.0863643175262,"trial":53,"RT":734,"MT":101,"sideResp":1,"stimulus":"img/500/randomdotsizeEA/L/13_Ratio_500_L_12_R_6.png","xmouse":[831,831,831,831,831,831,831,831,831,831,831,831,831,831,831,831,831,831,831,831,831,831,831,831,831,831,831,831,831,831,831,831,829,823,818,810,770,710,635,550,486,462],"ymouse":[532,532,532,532,532,532,532,532,532,532,532,532,532,532,532,532,532,532,532,532,532,532,532,532,532,532,532,532,532,532,532,532,532,532,528,519,459,382,301,216,150,68],"timestamp_mouse":[14,34,55,74,94,115,134,155,175,194,214,234,255,274,294,314,335,354,375,394,415,434,454,474,496,514,534,555,574,594,614,634,655,674,694,714,734,756,775,794,816,835],"xSR":741.5,"ySR":469.95,"xT1":424.9,"yT1":0,"xT2":1058.1,"yT2":0,"toosoon":0,"cond_shown":"randomdotsizeEA","ratio_trial":500,"smaller_num":"6","larger_num":"12","correct_side":1,"subjID":"NicolásGonzalezGarcía20","gender":"0","age":"12","school":"6"},{"start_time":1551794976742,"click_time":1551794977630,"finger_time":1551794977370,"fix_duration":771.1387081799413,"trial":54,"RT":628,"MT":260,"sideResp":2,"stimulus":"img/500/equaldotsize/R/3_Ratio_500_L_10_R_20.png","xmouse":[809,809,809,809,809,809,809,809,809,809,809,809,809,809,809,809,809,809,809,809,809,809,809,809,809,809,809,809,809,809,821,864,937,1017,1080,1127,1140,1155,1178,1199,1202,1194,1178,1164,1156],"ymouse":[565,565,565,565,565,565,565,565,565,565,565,565,565,565,565,565,565,565,565,565,565,565,565,565,565,565,565,565,565,565,549,500,419,340,293,257,234,202,160,121,83,68,53,46,45],"timestamp_mouse":[10,28,49,70,89,109,128,148,169,189,208,228,249,268,289,308,328,348,368,389,408,428,449,468,488,509,529,548,568,588,609,628,648,669,688,708,728,748,768,789,808,829,848,868,888],"xSR":741.5,"ySR":469.95,"xT1":424.9,"yT1":0,"xT2":1058.1,"yT2":0,"toosoon":0,"cond_shown":"equaldotsize","ratio_trial":500,"smaller_num":"10","larger_num":"20","correct_side":2,"subjID":"NicolásGonzalezGarcía20","gender":"0","age":"12","school":"6"},{"start_time":1551794979510,"click_time":1551794980250,"finger_time":1551794980131,"fix_duration":1077.8843787672472,"trial":55,"RT":621,"MT":119,"sideResp":1,"stimulus":"img/500/equaldotsize/L/5_Ratio_500_L_4_R_2.png","xmouse":[803,803,803,803,803,803,803,803,803,803,803,803,803,803,803,803,803,803,803,803,803,803,803,803,803,803,803,803,803,799,790,756,630,569,526,514,510,508],"ymouse":[530,530,530,530,530,530,530,530,530,530,530,530,530,530,530,530,530,530,530,530,530,530,530,530,530,530,530,530,530,522,504,443,256,174,128,110,102,97],"timestamp_mouse":[3,21,41,60,80,100,120,140,160,180,201,221,240,260,281,300,320,340,360,380,400,421,441,460,480,500,521,540,561,580,600,621,641,660,681,700,720,740],"xSR":741.5,"ySR":469.95,"xT1":424.9,"yT1":0,"xT2":1058.1,"yT2":0,"toosoon":0,"cond_shown":"equaldotsize","ratio_trial":500,"smaller_num":"2","larger_num":"4","correct_side":1,"subjID":"NicolásGonzalezGarcía20","gender":"0","age":"12","school":"6"},{"start_time":1551794982220,"click_time":1551794983111,"finger_time":1551794983010,"fix_duration":1210.0696528203637,"trial":56,"RT":790,"MT":101,"sideResp":2,"stimulus":"img/500/randomdotsizeEA/R/3_Ratio_500_L_10_R_20.png","xmouse":[780,780,780,780,780,780,780,780,780,780,780,780,780,780,780,780,780,780,780,780,780,780,780,780,780,780,780,780,780,780,780,780,780,780,780,780,780,786,796,837,892,1035,1084,1122,1147],"ymouse":[513,513,513,513,513,513,513,513,513,513,513,513,513,513,513,513,513,513,513,513,513,513,513,513,513,513,513,513,513,513,513,513,513,513,513,513,513,508,494,439,365,190,144,111,92],"timestamp_mouse":[10,30,51,70,91,110,130,150,172,190,210,230,252,271,291,311,331,350,371,391,411,430,451,470,491,511,530,550,570,591,610,630,652,670,690,711,731,750,771,790,810,830,851,870,891],"xSR":741.5,"ySR":469.95,"xT1":424.9,"yT1":0,"xT2":1058.1,"yT2":0,"toosoon":0,"cond_shown":"randomdotsizeEA","ratio_trial":500,"smaller_num":"10","larger_num":"20","correct_side":2,"subjID":"NicolásGonzalezGarcía20","gender":"0","age":"12","school":"6"},{"start_time":1551794984101,"click_time":1551794984950,"finger_time":1551794984871,"fix_duration":250,"trial":57,"RT":770,"MT":79,"sideResp":2,"stimulus":"img/900/equaldotanddens/L/2_Ratio_900_L_20_R_18.png","xmouse":[780,780,780,780,780,780,780,780,780,780,780,780,780,780,780,780,780,780,780,780,780,780,780,780,780,780,780,780,780,780,780,780,780,780,780,780,780,797,841,897,956,1006,1061],"ymouse":[538,538,538,538,538,538,538,538,538,538,538,538,538,538,538,538,538,538,538,538,538,538,538,538,538,538,538,538,538,538,538,538,538,538,538,538,538,515,456,387,300,210,86],"timestamp_mouse":[9,29,49,70,89,109,129,150,169,190,209,229,249,269,290,309,329,349,369,389,410,430,449,469,489,509,530,549,570,590,610,629,650,669,690,709,730,749,770,790,810,829,849],"xSR":741.5,"ySR":469.95,"xT1":424.9,"yT1":0,"xT2":1058.1,"yT2":0,"toosoon":0,"cond_shown":"equaldotanddens","ratio_trial":900,"smaller_num":"18","larger_num":"20","correct_side":1,"subjID":"NicolásGonzalezGarcía20","gender":"0","age":"12","school":"6"},{"start_time":1551794986056,"click_time":1551794987150,"finger_time":1551794986770,"fix_duration":383.29600435118994,"trial":58,"RT":714,"MT":380,"sideResp":1,"stimulus":"img/250/equaldotanddens/L/5_Ratio_250_L_24_R_6.png","xmouse":[785,785,785,785,785,785,785,785,785,785,785,785,785,785,785,785,785,785,785,785,785,785,785,785,785,785,785,785,785,785,785,785,785,785,767,730,710,677,629,522,453,417,399,390,392,400,405,411,415,417,417,418,418,418,485],"ymouse":[516,516,516,516,516,516,516,516,516,516,516,516,516,516,516,516,516,516,516,516,516,516,516,516,516,516,516,516,516,516,516,516,516,516,506,478,454,413,357,255,205,179,158,135,95,81,73,58,48,42,42,42,42,42,66],"timestamp_mouse":[14,34,54,74,94,114,134,156,174,194,214,234,254,275,294,314,334,355,375,395,414,435,454,474,495,514,534,555,574,594,614,634,656,675,694,714,734,754,775,794,814,834,854,874,894,914,935,954,974,994,1014,1034,1055,1075,1094],"xSR":741.5,"ySR":469.95,"xT1":424.9,"yT1":0,"xT2":1058.1,"yT2":0,"toosoon":0,"cond_shown":"equaldotanddens","ratio_trial":250,"smaller_num":"6","larger_num":"24","correct_side":1,"subjID":"NicolásGonzalezGarcía20","gender":"0","age":"12","school":"6"},{"start_time":1551794988293,"click_time":1551794989350,"finger_time":1551794989051,"fix_duration":301.8474677440954,"trial":59,"RT":758,"MT":299,"sideResp":1,"stimulus":"img/500/equaldotanddens/L/10_Ratio_500_L_4_R_2.png","xmouse":[811,811,811,811,811,811,811,811,811,811,811,811,811,811,811,811,811,811,811,811,811,811,811,811,811,811,811,811,811,811,811,811,811,811,811,809,802,740,639,571,520,486,477,477,475,473,468,461,461,461,461,462,465],"ymouse":[507,507,507,507,507,507,507,507,507,507,507,507,507,507,507,507,507,507,507,507,507,507,507,507,507,507,507,507,507,507,507,507,507,507,507,506,493,406,316,270,239,220,213,203,185,170,157,141,139,135,129,121,91],"timestamp_mouse":[17,37,58,78,98,117,139,157,177,198,218,238,257,277,297,317,338,358,377,397,417,437,458,478,497,517,537,558,577,598,617,637,657,677,697,717,738,758,777,797,817,837,857,878,897,917,938,957,979,998,1019,1037,1057],"xSR":741.5,"ySR":469.95,"xT1":424.9,"yT1":0,"xT2":1058.1,"yT2":0,"toosoon":0,"cond_shown":"equaldotanddens","ratio_trial":500,"smaller_num":"2","larger_num":"4","correct_side":1,"subjID":"NicolásGonzalezGarcía20","gender":"0","age":"12","school":"6"},{"start_time":1551794991894,"click_time":1551794992971,"finger_time":1551794992670,"fix_duration":423.7954252454858,"trial":60,"RT":776,"MT":301,"sideResp":2,"stimulus":"img/750/randomdotsizeEA/R/2_Ratio_750_L_6_R_8.png","xmouse":[813,813,813,813,813,813,813,813,813,813,813,813,813,813,812,814,828,837,837,837,837,837,837,837,837,837,837,837,837,837,837,837,837,837,837,837,837,840,843,848,855,871,928,955,976,995,1014,1030,1032,1033,1034,1035,1049,1061],"ymouse":[535,535,535,535,535,535,535,535,535,535,535,535,535,535,534,530,521,513,512,512,512,512,512,512,512,512,512,512,512,512,512,512,512,512,512,512,512,507,488,461,434,396,291,248,211,181,155,130,125,123,121,118,95,73],"timestamp_mouse":[16,36,56,77,96,117,137,157,177,196,216,237,256,277,297,317,337,358,376,396,416,436,456,476,496,516,537,556,576,596,616,636,656,677,696,716,736,756,776,796,816,836,857,876,896,916,937,956,976,997,1017,1037,1057,1077],"xSR":741.5,"ySR":469.95,"xT1":424.9,"yT1":0,"xT2":1058.1,"yT2":0,"toosoon":0,"cond_shown":"randomdotsizeEA","ratio_trial":750,"smaller_num":"6","larger_num":"8","correct_side":2,"subjID":"NicolásGonzalezGarcía20","gender":"0","age":"12","school":"6"},{"start_time":1551794993998,"click_time":1551794995010,"finger_time":1551794994850,"fix_duration":406.80737597435245,"trial":61,"RT":852,"MT":160,"sideResp":2,"stimulus":"img/900/equaldotsize/L/1_Ratio_900_L_10_R_9.png","xmouse":[834,834,834,834,834,834,834,834,834,834,834,834,834,834,834,834,834,834,834,834,834,834,834,834,834,834,834,834,834,834,834,834,834,834,834,834,834,834,834,834,834,834,843,893,992,1089,1131,1137,1126,1111,1096],"ymouse":[550,550,550,550,550,550,550,550,550,550,550,550,550,550,550,550,550,550,550,550,550,550,550,550,550,550,550,550,550,550,550,550,550,550,550,550,550,550,550,550,550,550,549,523,460,382,312,204,163,114,74],"timestamp_mouse":[13,32,53,73,92,112,133,152,172,193,213,232,253,272,293,313,333,353,373,393,413,433,453,473,493,512,532,553,572,592,612,632,652,672,693,713,732,752,773,792,813,833,852,872,892,913,932,952,973,992,1012],"xSR":741.5,"ySR":469.95,"xT1":424.9,"yT1":0,"xT2":1058.1,"yT2":0,"toosoon":0,"cond_shown":"equaldotsize","ratio_trial":900,"smaller_num":"9","larger_num":"10","correct_side":1,"subjID":"NicolásGonzalezGarcía20","gender":"0","age":"12","school":"6"},{"start_time":1551794996561,"click_time":1551794997710,"finger_time":1551794997550,"fix_duration":809.1683735747218,"trial":62,"RT":989,"MT":160,"sideResp":1,"stimulus":"img/900/randomdotsizeEA/R/15_Ratio_900_L_9_R_10.png","xmouse":[766,766,766,766,766,766,766,766,766,766,769,769,769,769,770,772,772,772,772,772,772,772,772,772,777,781,781,781,781,781,781,781,781,781,781,781,781,781,781,781,781,781,781,781,781,780,773,767,760,703,658,613,582,550,528,483,463,439],"ymouse":[555,555,555,555,555,555,555,555,555,555,554,552,551,551,546,537,535,533,529,527,527,527,526,524,512,508,508,508,507,507,507,507,507,507,507,507,507,507,507,507,507,507,507,507,507,507,500,490,470,380,326,279,256,236,219,159,122,82],"timestamp_mouse":[9,30,49,69,89,109,130,150,169,190,209,230,250,270,289,310,329,351,369,389,409,429,451,470,489,510,529,549,569,589,610,629,649,669,689,710,730,750,769,789,810,829,849,869,889,910,929,950,969,989,1009,1030,1051,1071,1089,1110,1129,1149],"xSR":741.5,"ySR":469.95,"xT1":424.9,"yT1":0,"xT2":1058.1,"yT2":0,"toosoon":0,"cond_shown":"randomdotsizeEA","ratio_trial":900,"smaller_num":"9","larger_num":"10","correct_side":2,"subjID":"NicolásGonzalezGarcía20","gender":"0","age":"12","school":"6"},{"start_time":1551794998801,"click_time":1551794999892,"finger_time":1551794999550,"fix_duration":250,"trial":63,"RT":749,"MT":342,"sideResp":1,"stimulus":"img/250/randomdotsizeEA/L/1_Ratio_250_L_8_R_2.png","xmouse":[760,760,760,760,760,760,760,760,760,760,760,760,760,760,760,760,760,760,760,760,760,760,760,760,760,760,760,760,760,760,760,760,760,758,755,755,754,679,559,435,346,316,316,316,326,333,341,350,354,357,363,368,378,401,428],"ymouse":[479,479,479,479,479,479,479,479,479,479,479,479,479,479,479,479,479,479,479,479,479,479,479,479,479,479,479,479,479,479,479,479,479,479,486,499,497,402,282,171,94,76,76,76,79,82,83,79,75,72,69,68,66,63,59],"timestamp_mouse":[9,31,50,69,89,110,129,149,169,189,209,229,249,269,289,309,329,350,369,391,409,429,449,469,489,509,530,549,570,589,610,630,649,670,691,710,730,749,771,789,810,831,851,871,892,910,930,950,970,990,1010,1031,1050,1070,1090],"xSR":741.5,"ySR":469.95,"xT1":424.9,"yT1":0,"xT2":1058.1,"yT2":0,"toosoon":0,"cond_shown":"randomdotsizeEA","ratio_trial":250,"smaller_num":"2","larger_num":"8","correct_side":1,"subjID":"NicolásGonzalezGarcía20","gender":"0","age":"12","school":"6"},{"start_time":1551795002025,"click_time":1551795003032,"finger_time":1551795002752,"fix_duration":1291.52357991106,"trial":64,"RT":727,"MT":280,"sideResp":2,"stimulus":"img/900/randomdotsizeEA/L/4_Ratio_900_L_20_R_18.png","xmouse":[759,759,759,759,759,759,759,759,759,759,759,759,759,759,759,759,759,759,759,759,759,759,759,759,759,759,759,759,759,759,759,759,759,759,759,764,818,852,879,914,951,1031,1040,1044,1045,1043,1036,1036,1040,1048,1059],"ymouse":[488,488,488,488,488,488,488,488,488,488,488,488,488,488,488,488,488,488,488,488,488,488,488,488,488,488,488,488,488,488,488,488,488,488,488,481,403,356,320,284,245,171,159,148,137,125,98,90,75,54,34],"timestamp_mouse":[6,26,48,67,86,106,126,148,166,186,207,226,247,266,286,307,327,347,367,387,406,426,448,468,487,507,527,547,567,587,607,626,646,667,688,707,727,746,767,787,807,827,846,866,887,907,926,946,966,987,1007],"xSR":741.5,"ySR":469.95,"xT1":424.9,"yT1":0,"xT2":1058.1,"yT2":0,"toosoon":0,"cond_shown":"randomdotsizeEA","ratio_trial":900,"smaller_num":"18","larger_num":"20","correct_side":1,"subjID":"NicolásGonzalezGarcía20","gender":"0","age":"12","school":"6"},{"start_time":1551795004290,"click_time":1551795005771,"finger_time":1551795005552,"fix_duration":537.276245598866,"trial":65,"RT":1262,"MT":219,"sideResp":2,"stimulus":"img/500/equaldotanddens/R/9_Ratio_500_L_2_R_4.png","xmouse":[773,773,773,773,773,773,773,773,773,773,773,773,773,773,773,773,773,773,773,773,773,773,773,773,773,773,773,773,773,773,773,773,773,773,773,773,773,773,773,773,773,773,773,773,773,773,773,773,773,773,773,773,773,773,773,773,773,773,773,773,773,773,776,802,823,845,868,899,977,1024,1044,1057,1063,1072,1076],"ymouse":[496,496,496,496,496,496,496,496,496,496,496,496,496,496,496,496,496,496,496,496,496,496,496,496,496,496,496,496,496,496,496,496,496,496,496,496,496,496,496,496,496,496,496,496,496,496,496,496,496,496,496,496,496,496,496,496,496,496,496,496,496,496,493,459,422,383,341,287,182,140,126,117,110,100,95],"timestamp_mouse":[7,21,41,61,82,102,122,141,162,182,202,222,242,261,282,302,322,341,361,382,401,421,441,462,481,503,521,541,562,582,603,621,641,662,682,701,723,741,761,782,803,821,841,861,882,901,922,942,963,981,1001,1021,1042,1061,1081,1103,1121,1141,1161,1181,1201,1223,1242,1262,1282,1301,1321,1342,1361,1382,1402,1421,1443,1461,1481],"xSR":741.5,"ySR":469.95,"xT1":424.9,"yT1":0,"xT2":1058.1,"yT2":0,"toosoon":0,"cond_shown":"equaldotanddens","ratio_trial":500,"smaller_num":"2","larger_num":"4","correct_side":2,"subjID":"NicolásGonzalezGarcía20","gender":"0","age":"12","school":"6"},{"start_time":1551795007147,"click_time":1551795008151,"finger_time":1551795007772,"fix_duration":593.8537510917597,"trial":66,"RT":625,"MT":379,"sideResp":2,"stimulus":"img/250/equaldotsize/R/11_Ratio_250_L_3_R_12.png","xmouse":[817,817,817,817,817,817,817,817,817,817,817,817,815,813,811,811,811,811,811,811,811,811,811,811,811,811,811,811,811,811,837,884,975,1088,1191,1312,1312,1312,1312,1312,1312,1312,1312,1312,1312,1312,1312,1198,1180,1160,1133],"ymouse":[526,526,526,526,526,526,526,526,526,526,526,526,525,525,524,524,524,524,524,524,524,524,524,524,524,524,524,524,524,522,506,472,399,299,185,0,0,0,0,0,0,0,0,0,0,0,0,18,38,55,72],"timestamp_mouse":[5,24,44,64,84,104,124,144,165,185,204,224,244,265,285,304,325,345,364,384,404,425,444,465,484,504,525,545,565,584,605,625,645,664,684,704,724,744,765,785,806,824,845,864,884,905,925,945,965,984,1004],"xSR":741.5,"ySR":469.95,"xT1":424.9,"yT1":0,"xT2":1058.1,"yT2":0,"toosoon":0,"cond_shown":"equaldotsize","ratio_trial":250,"smaller_num":"3","larger_num":"12","correct_side":2,"subjID":"NicolásGonzalezGarcía20","gender":"0","age":"12","school":"6"},{"start_time":1551795009064,"click_time":1551795009951,"finger_time":1551795009631,"fix_duration":250,"trial":67,"RT":567,"MT":320,"sideResp":2,"stimulus":"img/900/equaldotsize/R/3_Ratio_900_L_9_R_10.png","xmouse":[810,810,810,810,810,810,810,810,810,810,810,810,810,810,810,810,810,810,810,813,817,817,817,817,814,813,813,819,843,901,934,983,1009,1009,1009,1009,1009,1009,1009,1009,1009,1206,1200,1189,1149],"ymouse":[504,504,504,504,504,504,504,504,504,504,504,504,504,504,504,504,504,504,504,504,504,504,504,504,504,504,503,492,425,207,114,28,0,0,0,0,0,0,0,0,0,18,37,58,93],"timestamp_mouse":[7,28,48,69,88,107,127,147,167,187,207,229,247,268,287,308,328,347,367,387,407,427,448,467,488,508,528,549,567,588,609,627,647,668,689,708,727,747,768,788,807,827,848,867,887],"xSR":741.5,"ySR":469.95,"xT1":424.9,"yT1":0,"xT2":1058.1,"yT2":0,"toosoon":0,"cond_shown":"equaldotsize","ratio_trial":900,"smaller_num":"9","larger_num":"10","correct_side":2,"subjID":"NicolásGonzalezGarcía20","gender":"0","age":"12","school":"6"},{"start_time":1551795011464,"click_time":1551795012432,"finger_time":1551795012152,"fix_duration":772.4030568476272,"trial":68,"RT":688,"MT":280,"sideResp":2,"stimulus":"img/750/equaldotanddens/L/1_Ratio_750_L_20_R_15.png","xmouse":[771,771,771,771,771,771,771,771,771,771,771,771,771,771,771,771,771,771,771,771,771,771,771,771,771,771,771,771,771,771,771,785,795,820,890,947,999,1035,1062,1077,1079,1081,1085,1090,1109,1115,1116,1115,1108],"ymouse":[554,554,554,554,554,554,554,554,554,554,554,554,554,554,554,554,554,554,554,554,554,554,554,554,554,554,554,554,554,554,554,544,539,526,483,433,383,348,327,309,300,284,263,242,181,153,130,109,91],"timestamp_mouse":[8,27,47,69,87,107,128,147,167,188,207,227,247,268,288,307,327,349,367,388,407,428,447,467,487,508,528,549,567,588,607,627,648,667,688,708,727,747,768,788,807,827,847,868,887,907,927,947,968],"xSR":741.5,"ySR":469.95,"xT1":424.9,"yT1":0,"xT2":1058.1,"yT2":0,"toosoon":0,"cond_shown":"equaldotanddens","ratio_trial":750,"smaller_num":"15","larger_num":"20","correct_side":1,"subjID":"NicolásGonzalezGarcía20","gender":"0","age":"12","school":"6"},{"start_time":1551795013904,"click_time":1551795014671,"finger_time":1551795014571,"fix_duration":752.6083786562309,"trial":69,"RT":667,"MT":100,"sideResp":2,"stimulus":"img/750/equaldotsize/R/4_Ratio_750_L_15_R_20.png","xmouse":[778,778,778,778,778,778,778,778,778,778,778,778,778,778,778,778,778,778,778,778,778,778,778,778,778,778,778,778,778,778,778,778,795,844,906,961,994,1049,1075],"ymouse":[545,545,545,545,545,545,545,545,545,545,545,545,545,545,545,545,545,545,545,545,545,545,545,545,545,545,545,545,545,545,545,545,511,416,324,252,208,130,94],"timestamp_mouse":[8,28,48,69,87,108,127,148,167,188,208,228,247,267,289,307,328,347,367,387,408,427,447,468,487,507,528,547,568,589,607,627,647,667,687,708,728,748,767],"xSR":741.5,"ySR":469.95,"xT1":424.9,"yT1":0,"xT2":1058.1,"yT2":0,"toosoon":0,"cond_shown":"equaldotsize","ratio_trial":750,"smaller_num":"15","larger_num":"20","correct_side":2,"subjID":"NicolásGonzalezGarcía20","gender":"0","age":"12","school":"6"},{"start_time":1551795015696,"click_time":1551795016692,"finger_time":1551795016571,"fix_duration":424.52024748670414,"trial":70,"RT":875,"MT":121,"sideResp":2,"stimulus":"img/750/randomdotsizeEA/R/15_Ratio_750_L_9_R_12.png","xmouse":[831,831,831,831,831,831,831,831,831,831,831,831,831,831,831,831,831,831,831,831,831,832,832,832,832,832,832,832,832,832,832,832,832,832,832,832,832,832,832,832,832,832,838,850,875,903,941,1021,1049,1059],"ymouse":[538,538,538,538,538,538,538,538,538,538,538,538,538,538,538,538,538,538,538,538,538,538,538,538,538,538,538,538,538,538,538,538,538,538,538,538,538,538,538,538,538,537,523,492,447,385,314,165,97,70],"timestamp_mouse":[15,36,55,75,95,116,136,155,176,196,216,236,256,275,295,316,335,356,376,396,415,436,455,476,495,515,535,555,575,597,615,635,655,677,696,715,735,755,776,797,815,835,856,875,895,916,936,955,975,996],"xSR":741.5,"ySR":469.95,"xT1":424.9,"yT1":0,"xT2":1058.1,"yT2":0,"toosoon":0,"cond_shown":"randomdotsizeEA","ratio_trial":750,"smaller_num":"9","larger_num":"12","correct_side":2,"subjID":"NicolásGonzalezGarcía20","gender":"0","age":"12","school":"6"},{"start_time":1551795018563,"click_time":1551795019473,"finger_time":1551795019211,"fix_duration":1070.9630540361657,"trial":71,"RT":648,"MT":262,"sideResp":1,"stimulus":"img/250/randomdotsizeEA/L/1_Ratio_250_L_8_R_2.png","xmouse":[835,835,835,835,835,835,835,835,835,835,835,835,835,835,835,835,835,835,835,835,835,835,835,835,835,835,835,835,835,835,834,805,716,617,540,537,534,523,507,469,466,466,466,466,466,467],"ymouse":[506,506,506,506,506,506,506,506,506,506,506,506,506,506,506,506,506,506,506,506,506,506,506,506,506,506,506,506,506,506,503,484,421,345,276,256,239,213,184,120,113,111,109,106,100,95],"timestamp_mouse":[8,28,50,68,88,110,129,148,169,188,210,228,249,269,288,308,328,348,368,389,409,430,448,469,489,510,528,548,568,589,608,629,648,669,688,710,728,748,769,788,808,830,848,869,888,910],"xSR":741.5,"ySR":469.95,"xT1":424.9,"yT1":0,"xT2":1058.1,"yT2":0,"toosoon":0,"cond_shown":"randomdotsizeEA","ratio_trial":250,"smaller_num":"2","larger_num":"8","correct_side":1,"subjID":"NicolásGonzalezGarcía20","gender":"0","age":"12","school":"6"},{"start_time":1551795021465,"click_time":1551795022691,"finger_time":1551795022092,"fix_duration":1251.2941662383307,"trial":72,"RT":627,"MT":599,"sideResp":2,"stimulus":"img/750/randomdotsizeEA/R/15_Ratio_750_L_9_R_12.png","xmouse":[818,818,818,818,818,818,818,818,818,818,818,818,818,818,818,818,818,818,818,818,818,818,818,818,818,818,818,818,818,818,826,838,859,889,941,955,963,969,973,997,1035,1068,1100,1116,1119,1119,1119,1119,1119,1119,1106,1086,1059,1033,1018,1018,1018,1030,1048,1089,1100,1102],"ymouse":[488,488,488,488,488,488,488,488,488,488,488,488,488,488,488,488,488,488,488,488,488,488,488,488,488,488,488,488,488,487,470,452,426,387,317,297,281,264,250,199,151,125,112,107,106,106,106,106,106,106,110,129,168,211,237,237,234,212,187,125,103,96],"timestamp_mouse":[6,26,47,67,87,106,128,147,167,186,207,226,247,266,287,306,328,346,366,387,407,427,446,466,487,506,526,546,566,587,608,627,646,666,686,707,726,747,767,786,807,826,847,867,886,906,927,946,967,987,1007,1027,1047,1068,1087,1106,1127,1146,1168,1186,1206,1226],"xSR":741.5,"ySR":469.95,"xT1":424.9,"yT1":0,"xT2":1058.1,"yT2":0,"toosoon":0,"cond_shown":"randomdotsizeEA","ratio_trial":750,"smaller_num":"9","larger_num":"12","correct_side":2,"subjID":"NicolásGonzalezGarcía20","gender":"0","age":"12","school":"6"},{"start_time":1551795023802,"click_time":1551795024911,"finger_time":1551795024471,"fix_duration":250,"trial":73,"RT":669,"MT":440,"sideResp":1,"stimulus":"img/250/equaldotanddens/L/1_Ratio_250_L_8_R_2.png","xmouse":[768,768,768,768,768,768,768,768,768,768,768,768,768,768,768,768,768,768,768,768,768,768,768,768,768,768,768,768,768,768,768,768,750,676,639,607,587,570,564,559,559,559,559,559,559,559,559,551,545,537,533,527,526,526,525,523],"ymouse":[508,508,508,508,508,508,508,508,508,508,508,508,508,508,508,508,508,508,508,508,508,508,508,508,508,508,508,508,508,508,508,508,479,351,258,180,132,71,48,28,14,6,0,0,0,0,0,10,17,23,25,26,26,26,26,28],"timestamp_mouse":[9,29,50,70,91,109,129,150,171,190,209,230,249,269,290,310,330,351,370,390,409,429,450,469,490,510,529,549,569,590,610,630,649,669,691,710,730,749,770,789,809,830,850,869,890,910,931,949,970,989,1009,1030,1050,1071,1089,11