[{"start_time":1551793952268,"click_time":1551793954134,"finger_time":1551793953894,"fix_duration":951.936550273044,"trial":0,"RT":1626,"MT":240,"sideResp":2,"stimulus":[],"xmouse":[826,826,826,826,826,826,826,826,826,826,826,826,826,826,826,826,826,826,826,826,826,826,826,826,826,826,826,826,826,826,826,826,826,826,826,826,826,826,826,826,826,826,826,826,826,826,826,826,826,826,826,826,826,826,826,826,826,826,826,826,826,826,826,826,826,826,826,826,826,826,826,827,827,827,827,827,827,827,827,827,839,881,1055,1149,1219,1235,1237,1197,1178,1176,1176,1176,1163,1158],"ymouse":[528,528,528,528,528,528,528,528,528,528,528,528,528,528,528,528,528,528,528,528,528,528,528,528,528,528,528,528,528,528,528,528,528,528,528,528,528,528,528,528,528,528,528,528,528,528,528,528,528,528,528,528,528,528,528,528,528,528,528,528,528,528,528,528,528,528,528,528,528,528,526,526,526,526,526,526,526,526,526,526,513,485,362,300,258,246,233,116,72,60,53,47,21,16],"timestamp_mouse":[7,26,46,65,86,106,126,145,166,187,205,225,246,266,286,306,325,345,366,385,406,426,445,466,487,506,526,546,566,586,606,626,646,665,687,705,725,746,766,786,805,826,846,865,885,905,927,946,965,985,1006,1026,1045,1066,1085,1105,1126,1146,1165,1185,1206,1226,1246,1266,1285,1307,1325,1345,1367,1385,1405,1426,1446,1466,1486,1506,1526,1546,1566,1585,1606,1626,1646,1666,1686,1706,1727,1746,1766,1786,1807,1826,1846,1866],"xSR":741.5,"ySR":469.95,"xT1":424.9,"yT1":0,"xT2":1058.1,"yT2":0,"toosoon":0,"cond_shown":"Congruent","ratio_trial":300,"L_num":18,"L_den":20,"R_num":9,"R_den":15,"correct_side":1,"subjID":"NicolásGonzalezGarcía20","gender":"0","age":"12","school":"6","test":{"fix_dur":[250,1500],"timestim":1000,"targets_dim":[100,100],"targets_relative_coord":[0.3,0.7],"size_stim":[880,420],"start_dim":[100,100],"size_start":[300,300],"size_fix":60,"samplingrate":20,"img_types":["Congruent","Incongruent"],"ratios":[100,200,300],"rep_conds":19,"nTrials":120,"trials_to_rest":500,"Trials_order":[16,84,55,0,88,113,60,34,77,43,111,104,56,115,114,8,11,59,98,61,112,74,90,20,87,63,89,14,105,73,31,72,80,50,33,108,32,76,25,45,81,26,36,110,97,57,41,2,7,101,13,117,24,65,15,100,79,44,38,17,82,85,53,27,29,52,28,39,109,42,18,106,23,107,116,12,40,75,83,5,19,119,22,94,69,103,47,70,37,96,92,95,4,54,66,58,67,51,102,35,86,9,91,62,21,6,78,3,49,46,93,99,48,68,10,30,64,71,1,118],"cond_shown":["Congruent","Congruent","Incongruent","Congruent","Congruent","Incongruent","Congruent","Congruent","Incongruent","Incongruent","Incongruent","Congruent","Congruent","Incongruent","Congruent","Congruent","Incongruent","Incongruent","Congruent","Incongruent","Congruent","Congruent","Congruent","Congruent","Incongruent","Incongruent","Incongruent","Congruent","Incongruent","Incongruent","Incongruent","Congruent","Congruent","Congruent","Incongruent","Congruent","Congruent","Congruent","Incongruent","Incongruent","Incongruent","Congruent","Congruent","Congruent","Incongruent","Incongruent","Incongruent","Congruent","Incongruent","Incongruent","Incongruent","Incongruent","Congruent","Incongruent","Incongruent","Congruent","Incongruent","Congruent","Congruent","Incongruent","Congruent","Incongruent","Incongruent","Incongruent","Incongruent","Congruent","Congruent","Incongruent","Incongruent","Congruent","Congruent","Congruent","Incongruent","Incongruent","Congruent","Congruent","Congruent","Incongruent","Incongruent","Incongruent","Incongruent","Incongruent","Congruent","Congruent","Incongruent","Incongruent","Incongruent","Congruent","Incongruent","Congruent","Congruent","Incongruent","Congruent","Congruent","Congruent","Congruent","Incongruent","Incongruent","Congruent","Incongruent","Congruent","Incongruent","Incongruent","Congruent","Incongruent","Congruent","Congruent","Incongruent","Incongruent","Congruent","Incongruent","Incongruent","Congruent","Congruent","Congruent","Congruent","Congruent","Incongruent","Incongruent","Congruent"],"ratio_trial":[300,100,100,100,300,300,100,300,300,100,200,200,200,100,100,200,300,300,200,100,300,200,100,200,200,200,300,200,200,100,100,100,200,200,200,100,200,300,100,200,200,200,100,200,100,200,300,200,100,300,100,200,100,300,200,300,100,200,200,300,300,100,300,200,300,300,300,200,100,100,100,300,300,300,200,100,300,200,300,300,100,300,300,300,200,100,300,300,100,100,200,300,300,100,100,300,100,200,100,300,200,200,100,200,200,100,100,200,100,300,200,200,100,200,300,100,300,300,100,300],"left_num":[18,7,6,9,3,13,1,20,7,12,1,11,8,11,15,12,13,4,6,3,20,3,8,15,4,11,4,5,1,10,13,7,12,4,3,6,8,1,9,14,4,5,10,9,12,4,13,3,3,3,8,9,12,13,6,1,9,13,16,1,1,6,4,6,8,4,11,1,8,8,7,20,4,13,3,2,3,1,8,4,3,7,11,3,4,3,13,7,6,7,15,8,1,6,3,5,8,7,9,4,3,6,3,6,7,10,11,1,11,1,3,11,4,4,8,6,18,13,13,24],"right_num":[9,9,13,8,4,12,3,14,8,2,2,3,2,9,13,6,12,2,7,7,5,7,2,4,6,3,2,14,3,9,6,9,6,3,1,15,7,3,14,6,6,14,3,13,2,6,12,7,4,4,1,8,13,12,3,19,20,14,9,3,3,7,2,3,14,1,2,3,6,2,15,9,2,12,14,6,2,2,9,2,8,8,2,11,14,8,12,20,7,9,4,14,6,5,4,6,6,12,8,2,14,3,4,7,4,3,6,2,9,6,1,3,15,3,10,5,9,12,12,8],"left_den":[20,14,10,15,6,26,2,25,10,30,3,22,15,22,25,20,26,20,12,9,25,10,16,25,5,20,20,10,2,25,26,14,15,10,10,12,15,5,15,30,5,10,25,30,30,5,26,10,6,6,20,15,30,26,20,3,10,26,30,2,5,10,20,20,10,10,22,2,16,16,14,25,20,26,10,5,6,3,10,20,5,10,22,12,6,5,26,14,10,14,25,10,5,20,20,25,16,10,15,20,6,20,6,12,15,25,22,3,22,5,10,20,10,10,15,20,20,26,26,30],"right_den":[15,15,26,16,5,15,5,28,20,4,15,10,6,15,26,15,15,4,10,30,10,14,5,10,10,4,4,20,10,18,10,15,10,15,2,25,21,6,28,9,10,20,10,26,4,10,15,14,10,20,2,10,26,15,6,30,25,20,27,15,6,14,4,6,28,10,10,10,10,5,25,18,4,15,28,12,10,15,18,4,16,20,10,20,30,16,15,25,14,15,10,28,12,25,16,12,10,24,16,4,20,6,10,10,6,10,15,15,15,12,2,4,30,15,12,25,15,15,20,16],"correct_side":[1,2,1,1,2,2,2,1,1,2,1,1,1,2,1,1,2,2,2,1,1,2,1,1,1,2,2,2,1,2,2,2,1,1,2,2,1,2,1,2,1,2,1,2,2,1,2,2,1,1,2,2,2,2,2,2,1,2,1,1,2,1,2,2,1,1,1,1,2,1,2,1,2,2,2,2,1,1,1,2,1,1,1,2,1,1,2,2,1,2,1,1,2,1,2,2,2,1,1,2,2,2,1,2,2,1,1,1,2,2,2,2,2,1,2,1,1,2,2,1],"img_shown":["img2/300/Congruent/L/C_Dist_300_LN_18_LD_20_RN_9_RD_15_0.png","img2/100/Congruent/R/C_Dist_100_LN_7_LD_14_RN_9_RD_15_1.png","img2/100/Incongruent/L/I_Dist_100_LN_6_LD_10_RN_13_RD_26_0.png","img2/100/Congruent/L/C_Dist_100_LN_9_LD_15_RN_8_RD_16_0.png","img2/300/Congruent/R/C_Dist_300_LN_3_LD_6_RN_4_RD_5_1.png","img2/300/Incongruent/R/I_Dist_300_LN_13_LD_26_RN_12_RD_15_1.png","img2/100/Congruent/R/C_Dist_100_LN_1_LD_2_RN_3_RD_5_1.png","img2/300/Congruent/L/C_Dist_300_LN_20_LD_25_RN_14_RD_28_0.png","img2/300/Incongruent/L/I_Dist_300_LN_7_LD_10_RN_8_RD_20_0.png","img2/100/Incongruent/R/I_Dist_100_LN_12_LD_30_RN_2_RD_4_1.png","img2/200/Incongruent/L/I_Dist_200_LN_1_LD_3_RN_2_RD_15_0.png","img2/200/Congruent/L/C_Dist_200_LN_11_LD_22_RN_3_RD_10_0.png","img2/200/Congruent/L/C_Dist_200_LN_8_LD_15_RN_2_RD_6_0.png","img2/100/Incongruent/R/I_Dist_100_LN_11_LD_22_RN_9_RD_15_1.png","img2/100/Congruent/L/C_Dist_100_LN_15_LD_25_RN_13_RD_26_0.png","img2/200/Congruent/L/C_Dist_200_LN_12_LD_20_RN_6_RD_15_0.png","img2/300/Incongruent/R/I_Dist_300_LN_13_LD_26_RN_12_RD_15_1.png","img2/300/Incongruent/R/I_Dist_300_LN_4_LD_20_RN_2_RD_4_1.png","img2/200/Congruent/R/C_Dist_200_LN_6_LD_12_RN_7_RD_10_1.png","img2/100/Incongruent/L/I_Dist_100_LN_3_LD_9_RN_7_RD_30_0.png","img2/300/Congruent/L/C_Dist_300_LN_20_LD_25_RN_5_RD_10_0.png","img2/200/Congruent/R/C_Dist_200_LN_3_LD_10_RN_7_RD_14_1.png","img2/100/Congruent/L/C_Dist_100_LN_8_LD_16_RN_2_RD_5_0.png","img2/200/Congruent/L/C_Dist_200_LN_15_LD_25_RN_4_RD_10_0.png","img2/200/Incongruent/L/I_Dist_200_LN_4_LD_5_RN_6_RD_10_0.png","img2/200/Incongruent/R/I_Dist_200_LN_11_LD_20_RN_3_RD_4_1.png","img2/300/Incongruent/R/I_Dist_300_LN_4_LD_20_RN_2_RD_4_1.png","img2/200/Congruent/R/C_Dist_200_LN_5_LD_10_RN_14_RD_20_1.png","img2/200/Incongruent/L/I_Dist_200_LN_1_LD_2_RN_3_RD_10_0.png","img2/100/Incongruent/R/I_Dist_100_LN_10_LD_25_RN_9_RD_18_1.png","img2/100/Incongruent/R/I_Dist_100_LN_13_LD_26_RN_6_RD_10_1.png","img2/100/Congruent/R/C_Dist_100_LN_7_LD_14_RN_9_RD_15_1.png","img2/200/Congruent/L/C_Dist_200_LN_12_LD_15_RN_6_RD_10_0.png","img2/200/Congruent/L/C_Dist_200_LN_4_LD_10_RN_3_RD_15_0.png","img2/200/Incongruent/R/I_Dist_200_LN_3_LD_10_RN_1_RD_2_1.png","img2/100/Congruent/R/C_Dist_100_LN_6_LD_12_RN_15_RD_25_1.png","img2/200/Congruent/L/C_Dist_200_LN_8_LD_15_RN_7_RD_21_0.png","img2/300/Congruent/R/C_Dist_300_LN_1_LD_5_RN_3_RD_6_1.png","img2/100/Incongruent/L/I_Dist_100_LN_9_LD_15_RN_14_RD_28_0.png","img2/200/Incongruent/R/I_Dist_200_LN_14_LD_30_RN_6_RD_9_1.png","img2/200/Incongruent/L/I_Dist_200_LN_4_LD_5_RN_6_RD_10_0.png","img2/200/Congruent/R/C_Dist_200_LN_5_LD_10_RN_14_RD_20_1.png","img2/100/Congruent/L/C_Dist_100_LN_10_LD_25_RN_3_RD_10_0.png","img2/200/Congruent/R/C_Dist_200_LN_9_LD_30_RN_13_RD_26_1.png","img2/100/Incongruent/R/I_Dist_100_LN_12_LD_30_RN_2_RD_4_1.png","img2/200/Incongruent/L/I_Dist_200_LN_4_LD_5_RN_6_RD_10_0.png","img2/300/Incongruent/R/I_Dist_300_LN_13_LD_26_RN_12_RD_15_1.png","img2/200/Congruent/R/C_Dist_200_LN_3_LD_10_RN_7_RD_14_1.png","img2/100/Incongruent/L/I_Dist_100_LN_3_LD_6_RN_4_RD_10_0.png","img2/300/Incongruent/L/I_Dist_300_LN_3_LD_6_RN_4_RD_20_0.png","img2/100/Incongruent/R/I_Dist_100_LN_8_LD_20_RN_1_RD_2_1.png","img2/200/Incongruent/R/I_Dist_200_LN_9_LD_15_RN_8_RD_10_1.png","img2/100/Congruent/R/C_Dist_100_LN_12_LD_30_RN_13_RD_26_1.png","img2/300/Incongruent/R/I_Dist_300_LN_13_LD_26_RN_12_RD_15_1.png","img2/200/Incongruent/R/I_Dist_200_LN_6_LD_20_RN_3_RD_6_1.png","img2/300/Congruent/R/C_Dist_300_LN_1_LD_3_RN_19_RD_30_1.png","img2/100/Incongruent/L/I_Dist_100_LN_9_LD_10_RN_20_RD_25_0.png","img2/200/Congruent/R/C_Dist_200_LN_13_LD_26_RN_14_RD_20_1.png","img2/200/Congruent/L/C_Dist_200_LN_16_LD_30_RN_9_RD_27_0.png","img2/300/Incongruent/L/I_Dist_300_LN_1_LD_2_RN_3_RD_15_0.png","img2/300/Congruent/R/C_Dist_300_LN_1_LD_5_RN_3_RD_6_1.png","img2/100/Incongruent/L/I_Dist_100_LN_6_LD_10_RN_7_RD_14_0.png","img2/300/Incongruent/R/I_Dist_300_LN_4_LD_20_RN_2_RD_4_1.png","img2/200/Incongruent/R/I_Dist_200_LN_6_LD_20_RN_3_RD_6_1.png","img2/300/Incongruent/L/I_Dist_300_LN_8_LD_10_RN_14_RD_28_0.png","img2/300/Congruent/L/C_Dist_300_LN_4_LD_10_RN_1_RD_10_0.png","img2/300/Congruent/L/C_Dist_300_LN_11_LD_22_RN_2_RD_10_0.png","img2/200/Incongruent/L/I_Dist_200_LN_1_LD_2_RN_3_RD_10_0.png","img2/100/Incongruent/R/I_Dist_100_LN_8_LD_16_RN_6_RD_10_1.png","img2/100/Congruent/L/C_Dist_100_LN_8_LD_16_RN_2_RD_5_0.png","img2/100/Congruent/R/C_Dist_100_LN_7_LD_14_RN_15_RD_25_1.png","img2/300/Congruent/L/C_Dist_300_LN_20_LD_25_RN_9_RD_18_0.png","img2/300/Incongruent/R/I_Dist_300_LN_4_LD_20_RN_2_RD_4_1.png","img2/300/Incongruent/R/I_Dist_300_LN_13_LD_26_RN_12_RD_15_1.png","img2/200/Congruent/R/C_Dist_200_LN_3_LD_10_RN_14_RD_28_1.png","img2/100/Congruent/R/C_Dist_100_LN_2_LD_5_RN_6_RD_12_1.png","img2/300/Congruent/L/C_Dist_300_LN_3_LD_6_RN_2_RD_10_0.png","img2/200/Incongruent/L/I_Dist_200_LN_1_LD_3_RN_2_RD_15_0.png","img2/300/Incongruent/L/I_Dist_300_LN_8_LD_10_RN_9_RD_18_0.png","img2/300/Incongruent/R/I_Dist_300_LN_4_LD_20_RN_2_RD_4_1.png","img2/100/Incongruent/L/I_Dist_100_LN_3_LD_5_RN_8_RD_16_0.png","img2/300/Incongruent/L/I_Dist_300_LN_7_LD_10_RN_8_RD_20_0.png","img2/300/Congruent/L/C_Dist_300_LN_11_LD_22_RN_2_RD_10_0.png","img2/300/Congruent/R/C_Dist_300_LN_3_LD_12_RN_11_RD_20_1.png","img2/200/Incongruent/L/I_Dist_200_LN_4_LD_6_RN_14_RD_30_0.png","img2/100/Incongruent/L/I_Dist_100_LN_3_LD_5_RN_8_RD_16_0.png","img2/300/Incongruent/R/I_Dist_300_LN_13_LD_26_RN_12_RD_15_1.png","img2/300/Congruent/R/C_Dist_300_LN_7_LD_14_RN_20_RD_25_1.png","img2/100/Incongruent/L/I_Dist_100_LN_6_LD_10_RN_7_RD_14_0.png","img2/100/Congruent/R/C_Dist_100_LN_7_LD_14_RN_9_RD_15_1.png","img2/200/Congruent/L/C_Dist_200_LN_15_LD_25_RN_4_RD_10_0.png","img2/300/Incongruent/L/I_Dist_300_LN_8_LD_10_RN_14_RD_28_0.png","img2/300/Congruent/R/C_Dist_300_LN_1_LD_5_RN_6_RD_12_1.png","img2/100/Congruent/L/C_Dist_100_LN_6_LD_20_RN_5_RD_25_0.png","img2/100/Congruent/R/C_Dist_100_LN_3_LD_20_RN_4_RD_16_1.png","img2/300/Congruent/R/C_Dist_300_LN_5_LD_25_RN_6_RD_12_1.png","img2/100/Incongruent/R/I_Dist_100_LN_8_LD_16_RN_6_RD_10_1.png","img2/200/Incongruent/L/I_Dist_200_LN_7_LD_10_RN_12_RD_24_0.png","img2/100/Congruent/L/C_Dist_100_LN_9_LD_15_RN_8_RD_16_0.png","img2/300/Incongruent/R/I_Dist_300_LN_4_LD_20_RN_2_RD_4_1.png","img2/200/Congruent/R/C_Dist_200_LN_3_LD_6_RN_14_RD_20_1.png","img2/200/Incongruent/R/I_Dist_200_LN_6_LD_20_RN_3_RD_6_1.png","img2/100/Incongruent/L/I_Dist_100_LN_3_LD_6_RN_4_RD_10_0.png","img2/200/Congruent/R/C_Dist_200_LN_6_LD_12_RN_7_RD_10_1.png","img2/200/Incongruent/R/I_Dist_200_LN_7_LD_15_RN_4_RD_6_1.png","img2/100/Congruent/L/C_Dist_100_LN_10_LD_25_RN_3_RD_10_0.png","img2/100/Congruent/L/C_Dist_100_LN_11_LD_22_RN_6_RD_15_0.png","img2/200/Incongruent/L/I_Dist_200_LN_1_LD_3_RN_2_RD_15_0.png","img2/100/Incongruent/R/I_Dist_100_LN_11_LD_22_RN_9_RD_15_1.png","img2/300/Congruent/R/C_Dist_300_LN_1_LD_5_RN_6_RD_12_1.png","img2/200/Incongruent/R/I_Dist_200_LN_3_LD_10_RN_1_RD_2_1.png","img2/200/Incongruent/R/I_Dist_200_LN_11_LD_20_RN_3_RD_4_1.png","img2/100/Congruent/R/C_Dist_100_LN_4_LD_10_RN_15_RD_30_1.png","img2/200/Congruent/L/C_Dist_200_LN_4_LD_10_RN_3_RD_15_0.png","img2/300/Congruent/R/C_Dist_300_LN_8_LD_15_RN_10_RD_12_1.png","img2/100/Congruent/L/C_Dist_100_LN_6_LD_20_RN_5_RD_25_0.png","img2/300/Congruent/L/C_Dist_300_LN_18_LD_20_RN_9_RD_15_0.png","img2/300/Incongruent/R/I_Dist_300_LN_13_LD_26_RN_12_RD_15_1.png","img2/100/Incongruent/R/I_Dist_100_LN_13_LD_26_RN_12_RD_20_1.png","img2/300/Congruent/L/C_Dist_300_LN_24_LD_30_RN_8_RD_16_0.png"],"dist100_C":[["C_Dist_100_LN_10_LD_25_RN_3_RD_10_0.png","C_Dist_100_LN_11_LD_22_RN_4_RD_10_0.png","C_Dist_100_LN_11_LD_22_RN_6_RD_15_0.png","C_Dist_100_LN_15_LD_25_RN_13_RD_26_0.png","C_Dist_100_LN_3_LD_6_RN_2_RD_5_0.png","C_Dist_100_LN_6_LD_20_RN_5_RD_25_0.png","C_Dist_100_LN_8_LD_16_RN_2_RD_5_0.png","C_Dist_100_LN_9_LD_15_RN_8_RD_16_0.png"],["C_Dist_100_LN_1_LD_2_RN_18_RD_30_1.png","C_Dist_100_LN_1_LD_2_RN_3_RD_5_1.png","C_Dist_100_LN_12_LD_30_RN_13_RD_26_1.png","C_Dist_100_LN_2_LD_5_RN_11_RD_22_1.png","C_Dist_100_LN_2_LD_5_RN_6_RD_12_1.png","C_Dist_100_LN_3_LD_20_RN_4_RD_16_1.png","C_Dist_100_LN_4_LD_10_RN_15_RD_30_1.png","C_Dist_100_LN_4_LD_8_RN_6_RD_10_1.png","C_Dist_100_LN_6_LD_12_RN_15_RD_25_1.png","C_Dist_100_LN_7_LD_14_RN_15_RD_25_1.png","C_Dist_100_LN_7_LD_14_RN_9_RD_15_1.png"]],"dist100_I":[["I_Dist_100_LN_1_LD_2_RN_8_RD_20_0.png","I_Dist_100_LN_2_LD_4_RN_6_RD_15_0.png","I_Dist_100_LN_2_LD_4_RN_8_RD_20_0.png","I_Dist_100_LN_3_LD_5_RN_11_RD_22_0.png","I_Dist_100_LN_3_LD_5_RN_8_RD_16_0.png","I_Dist_100_LN_3_LD_6_RN_4_RD_10_0.png","I_Dist_100_LN_3_LD_9_RN_7_RD_30_0.png","I_Dist_100_LN_4_LD_8_RN_8_RD_20_0.png","I_Dist_100_LN_6_LD_10_RN_11_RD_22_0.png","I_Dist_100_LN_6_LD_10_RN_13_RD_26_0.png","I_Dist_100_LN_6_LD_10_RN_7_RD_14_0.png","I_Dist_100_LN_9_LD_10_RN_20_RD_25_0.png","I_Dist_100_LN_9_LD_15_RN_13_RD_26_0.png","I_Dist_100_LN_9_LD_15_RN_14_RD_28_0.png"],["I_Dist_100_LN_10_LD_25_RN_8_RD_16_1.png","I_Dist_100_LN_10_LD_25_RN_9_RD_18_1.png","I_Dist_100_LN_11_LD_22_RN_9_RD_15_1.png","I_Dist_100_LN_12_LD_24_RN_9_RD_15_1.png","I_Dist_100_LN_12_LD_30_RN_2_RD_4_1.png","I_Dist_100_LN_13_LD_26_RN_12_RD_20_1.png","I_Dist_100_LN_13_LD_26_RN_6_RD_10_1.png","I_Dist_100_LN_17_LD_30_RN_10_RD_15_1.png","I_Dist_100_LN_6_LD_12_RN_3_RD_5_1.png","I_Dist_100_LN_8_LD_16_RN_6_RD_10_1.png","I_Dist_100_LN_8_LD_20_RN_1_RD_2_1.png","I_Dist_100_LN_9_LD_18_RN_6_RD_10_1.png"]],"dist100_S":[["E_Dist_100_LN_2_LD_12_RN_2_RD_30_0.png","E_Dist_100_LN_6_LD_10_RN_6_RD_12_0.png"],["E_Dist_100_LN_6_LD_12_RN_6_RD_10_1.png"]],"dist200_C":[["C_Dist_200_LN_11_LD_22_RN_3_RD_10_0.png","C_Dist_200_LN_12_LD_15_RN_6_RD_10_0.png","C_Dist_200_LN_12_LD_20_RN_6_RD_15_0.png","C_Dist_200_LN_14_LD_28_RN_6_RD_20_0.png","C_Dist_200_LN_15_LD_25_RN_4_RD_10_0.png","C_Dist_200_LN_16_LD_20_RN_12_RD_20_0.png","C_Dist_200_LN_16_LD_30_RN_9_RD_27_0.png","C_Dist_200_LN_20_LD_25_RN_9_RD_15_0.png","C_Dist_200_LN_21_LD_30_RN_2_RD_4_0.png","C_Dist_200_LN_4_LD_10_RN_3_RD_15_0.png","C_Dist_200_LN_4_LD_8_RN_3_RD_10_0.png","C_Dist_200_LN_6_LD_15_RN_3_RD_15_0.png","C_Dist_200_LN_7_LD_21_RN_2_RD_15_0.png","C_Dist_200_LN_8_LD_15_RN_2_RD_6_0.png","C_Dist_200_LN_8_LD_15_RN_3_RD_9_0.png","C_Dist_200_LN_8_LD_15_RN_7_RD_21_0.png","C_Dist_200_LN_9_LD_20_RN_4_RD_16_0.png"],["C_Dist_200_LN_1_LD_2_RN_21_RD_30_1.png","C_Dist_200_LN_13_LD_26_RN_14_RD_20_1.png","C_Dist_200_LN_3_LD_10_RN_11_RD_22_1.png","C_Dist_200_LN_3_LD_10_RN_14_RD_28_1.png","C_Dist_200_LN_3_LD_10_RN_7_RD_14_1.png","C_Dist_200_LN_3_LD_12_RN_9_RD_20_1.png","C_Dist_200_LN_3_LD_6_RN_14_RD_20_1.png","C_Dist_200_LN_5_LD_10_RN_14_RD_20_1.png","C_Dist_200_LN_6_LD_12_RN_7_RD_10_1.png","C_Dist_200_LN_6_LD_20_RN_11_RD_22_1.png","C_Dist_200_LN_7_LD_15_RN_18_RD_27_1.png","C_Dist_200_LN_9_LD_30_RN_13_RD_26_1.png"]],"dist200_I":[["I_Dist_200_LN_1_LD_2_RN_3_RD_10_0.png","I_Dist_200_LN_1_LD_3_RN_2_RD_15_0.png","I_Dist_200_LN_3_LD_4_RN_11_RD_20_0.png","I_Dist_200_LN_4_LD_5_RN_6_RD_10_0.png","I_Dist_200_LN_4_LD_6_RN_14_RD_30_0.png","I_Dist_200_LN_7_LD_10_RN_12_RD_24_0.png","I_Dist_200_LN_7_LD_10_RN_14_RD_28_0.png","I_Dist_200_LN_7_LD_10_RN_8_RD_16_0.png"],["I_Dist_200_LN_11_LD_20_RN_3_RD_4_1.png","I_Dist_200_LN_14_LD_30_RN_12_RD_18_1.png","I_Dist_200_LN_14_LD_30_RN_6_RD_9_1.png","I_Dist_200_LN_3_LD_10_RN_1_RD_2_1.png","I_Dist_200_LN_4_LD_30_RN_1_RD_3_1.png","I_Dist_200_LN_6_LD_20_RN_3_RD_6_1.png","I_Dist_200_LN_7_LD_15_RN_4_RD_6_1.png","I_Dist_200_LN_7_LD_15_RN_6_RD_9_1.png","I_Dist_200_LN_9_LD_15_RN_8_RD_10_1.png"]],"dist200_S":[["E_Dist_200_LN_3_LD_6_RN_3_RD_10_0.png"],["E_Dist_200_LN_3_LD_10_RN_3_RD_6_1.png"]],"dist300_C":[["C_Dist_300_LN_11_LD_22_RN_1_RD_5_0.png","C_Dist_300_LN_11_LD_22_RN_2_RD_10_0.png","C_Dist_300_LN_11_LD_22_RN_4_RD_20_0.png","C_Dist_300_LN_12_LD_24_RN_2_RD_10_0.png","C_Dist_300_LN_18_LD_20_RN_9_RD_15_0.png","C_Dist_300_LN_20_LD_25_RN_13_RD_26_0.png","C_Dist_300_LN_20_LD_25_RN_14_RD_28_0.png","C_Dist_300_LN_20_LD_25_RN_5_RD_10_0.png","C_Dist_300_LN_20_LD_25_RN_8_RD_16_0.png","C_Dist_300_LN_20_LD_25_RN_9_RD_18_0.png","C_Dist_300_LN_24_LD_30_RN_2_RD_4_0.png","C_Dist_300_LN_24_LD_30_RN_8_RD_16_0.png","C_Dist_300_LN_3_LD_6_RN_2_RD_10_0.png","C_Dist_300_LN_4_LD_10_RN_1_RD_10_0.png","C_Dist_300_LN_4_LD_5_RN_2_RD_4_0.png","C_Dist_300_LN_8_LD_16_RN_1_RD_5_0.png","C_Dist_300_LN_9_LD_10_RN_3_RD_5_0.png"],["C_Dist_300_LN_1_LD_20_RN_7_RD_20_1.png","C_Dist_300_LN_1_LD_3_RN_19_RD_30_1.png","C_Dist_300_LN_1_LD_30_RN_8_RD_24_1.png","C_Dist_300_LN_1_LD_5_RN_11_RD_22_1.png","C_Dist_300_LN_1_LD_5_RN_3_RD_6_1.png","C_Dist_300_LN_1_LD_5_RN_6_RD_12_1.png","C_Dist_300_LN_2_LD_10_RN_12_RD_24_1.png","C_Dist_300_LN_2_LD_20_RN_10_RD_25_1.png","C_Dist_300_LN_3_LD_12_RN_11_RD_20_1.png","C_Dist_300_LN_3_LD_6_RN_4_RD_5_1.png","C_Dist_300_LN_4_LD_20_RN_13_RD_26_1.png","C_Dist_300_LN_5_LD_25_RN_6_RD_12_1.png","C_Dist_300_LN_5_LD_25_RN_7_RD_14_1.png","C_Dist_300_LN_7_LD_14_RN_20_RD_25_1.png","C_Dist_300_LN_8_LD_15_RN_10_RD_12_1.png"]],"dist300_I":[["I_Dist_300_LN_1_LD_2_RN_2_RD_10_0.png","I_Dist_300_LN_1_LD_2_RN_3_RD_15_0.png","I_Dist_300_LN_2_LD_4_RN_6_RD_30_0.png","I_Dist_300_LN_3_LD_6_RN_4_RD_20_0.png","I_Dist_300_LN_4_LD_5_RN_6_RD_12_0.png","I_Dist_300_LN_4_LD_5_RN_8_RD_16_0.png","I_Dist_300_LN_7_LD_10_RN_8_RD_20_0.png","I_Dist_300_LN_8_LD_10_RN_14_RD_28_0.png","I_Dist_300_LN_8_LD_10_RN_9_RD_18_0.png"],["I_Dist_300_LN_13_LD_26_RN_12_RD_15_1.png","I_Dist_300_LN_4_LD_20_RN_2_RD_4_1.png"]],"dist300_S":[["E_Dist_300_LN_9_LD_12_RN_9_RD_20_0.png"],["E_Dist_300_LN_18_LD_30_RN_18_RD_20_1.png","E_Dist_300_LN_3_LD_10_RN_3_RD_5_1.png","E_Dist_300_LN_9_LD_20_RN_9_RD_12_1.png"]],"dist500_C":[["C_Dist_500_LN_10_LD_13_RN_7_RD_26_0.png","C_Dist_500_LN_10_LD_15_RN_4_RD_24_0.png","C_Dist_500_LN_12_LD_16_RN_3_RD_12_0.png","C_Dist_500_LN_12_LD_18_RN_4_RD_24_0.png","C_Dist_500_LN_15_LD_18_RN_5_RD_15_0.png","C_Dist_500_LN_15_LD_20_RN_1_RD_4_0.png","C_Dist_500_LN_18_LD_27_RN_1_RD_6_0.png","C_Dist_500_LN_20_LD_24_RN_1_RD_3_0.png","C_Dist_500_LN_20_LD_24_RN_3_RD_9_0.png","C_Dist_500_LN_20_LD_24_RN_7_RD_21_0.png","C_Dist_500_LN_20_LD_28_RN_3_RD_14_0.png","C_Dist_500_LN_21_LD_28_RN_6_RD_24_0.png","C_Dist_500_LN_22_LD_28_RN_2_RD_7_0.png","C_Dist_500_LN_25_LD_30_RN_9_RD_27_0.png","C_Dist_500_LN_4_LD_6_RN_1_RD_6_0.png","C_Dist_500_LN_5_LD_6_RN_2_RD_6_0.png","C_Dist_500_LN_6_LD_9_RN_1_RD_6_0.png","C_Dist_500_LN_7_LD_10_RN_1_RD_5_0.png","C_Dist_500_LN_8_LD_12_RN_1_RD_6_0.png","C_Dist_500_LN_8_LD_12_RN_4_RD_24_0.png"],["C_Dist_500_LN_1_LD_4_RN_12_RD_16_1.png","C_Dist_500_LN_1_LD_4_RN_9_RD_12_1.png","C_Dist_500_LN_1_LD_9_RN_11_RD_18_1.png","C_Dist_500_LN_10_LD_24_RN_22_RD_24_1.png","C_Dist_500_LN_2_LD_12_RN_10_RD_15_1.png","C_Dist_500_LN_2_LD_12_RN_12_RD_18_1.png","C_Dist_500_LN_2_LD_12_RN_4_RD_6_1.png","C_Dist_500_LN_2_LD_24_RN_7_RD_12_1.png","C_Dist_500_LN_2_LD_5_RN_18_RD_20_1.png","C_Dist_500_LN_2_LD_5_RN_9_RD_10_1.png","C_Dist_500_LN_2_LD_8_RN_12_RD_16_1.png","C_Dist_500_LN_2_LD_8_RN_21_RD_28_1.png","C_Dist_500_LN_3_LD_10_RN_4_RD_5_1.png","C_Dist_500_LN_3_LD_12_RN_15_RD_20_1.png","C_Dist_500_LN_3_LD_30_RN_6_RD_10_1.png","C_Dist_500_LN_3_LD_8_RN_14_RD_16_1.png","C_Dist_500_LN_4_LD_16_RN_15_RD_20_1.png","C_Dist_500_LN_4_LD_24_RN_12_RD_18_1.png","C_Dist_500_LN_5_LD_14_RN_6_RD_7_1.png","C_Dist_500_LN_7_LD_21_RN_20_RD_24_1.png","C_Dist_500_LN_7_LD_28_RN_12_RD_16_1.png","C_Dist_500_LN_7_LD_28_RN_9_RD_12_1.png","C_Dist_500_LN_9_LD_27_RN_20_RD_24_1.png"]],"dist500_I":[["I_Dist_500_LN_2_LD_3_RN_4_RD_24_0.png","I_Dist_500_LN_5_LD_6_RN_6_RD_18_0.png","I_Dist_500_LN_7_LD_8_RN_9_RD_24_0.png"],["I_Dist_500_LN_7_LD_21_RN_5_RD_6_1.png"]],"dist500_S":[["E_Dist_500_LN_6_LD_8_RN_6_RD_24_0.png"],["E_Dist_500_LN_2_LD_12_RN_2_RD_3_1.png","E_Dist_500_LN_6_LD_24_RN_6_RD_8_1.png"]]}},{"start_time":1551793955867,"click_time":1551793957654,"finger_time":1551793957414,"fix_duration":532.7862139347642,"trial":1,"RT":1547,"MT":240,"sideResp":2,"stimulus":[],"xmouse":[815,814,814,814,814,814,814,814,814,814,814,814,814,814,814,814,814,814,814,814,814,814,814,814,814,814,814,814,814,814,814,814,814,814,814,814,814,814,814,814,814,814,814,814,814,814,814,814,814,814,814,814,814,814,814,814,814,814,814,814,814,814,814,814,814,814,814,814,814,814,814,816,820,820,820,820,837,947,1063,1153,1194,1199,1198,1192,1186,1184,1181,1174,1169,1157],"ymouse":[516,515,515,515,515,515,515,515,515,515,515,515,515,515,515,515,515,515,515,515,515,515,515,515,515,515,515,515,515,515,515,515,515,515,515,515,515,515,515,515,515,515,515,515,515,515,515,515,515,515,515,515,515,515,515,515,515,515,515,515,515,515,515,515,515,515,515,515,515,515,515,512,510,510,510,510,505,422,315,200,114,78,64,58,53,49,45,38,38,46],"timestamp_mouse":[7,27,46,66,87,107,126,146,168,188,206,226,248,268,288,308,327,347,367,388,408,426,447,468,487,507,528,546,568,588,607,627,647,666,688,708,727,746,767,787,808,827,847,866,887,908,927,947,966,987,1007,1028,1046,1068,1086,1108,1128,1147,1167,1187,1206,1227,1247,1267,1286,1308,1328,1347,1366,1387,1407,1427,1447,1467,1487,1508,1528,1547,1566,1587,1607,1628,1647,1667,1687,1707,1728,1747,1767,1786],"xSR":741.5,"ySR":469.95,"xT1":424.9,"yT1":0,"xT2":1058.1,"yT2":0,"toosoon":0,"cond_shown":"Congruent","ratio_trial":100,"L_num":7,"L_den":14,"R_num":9,"R_den":15,"correct_side":2,"subjID":"NicolásGonzalezGarcía20","gender":"0","school":"6","age":"12"},{"start_time":1551793959877,"click_time":1551793961534,"finger_time":1551793961474,"fix_duration":1362.4928109871614,"trial":2,"RT":1597,"MT":60,"sideResp":2,"stimulus":[],"xmouse":[816,816,816,816,816,816,816,816,816,816,816,816,816,816,816,816,816,816,816,816,816,816,816,816,816,816,816,816,816,816,816,816,816,816,816,816,816,816,816,816,816,816,816,816,816,816,816,816,816,816,816,816,816,816,816,816,816,816,816,816,816,816,816,816,816,816,816,816,816,816,816,816,816,816,816,816,807,806,816,853,922,1020,1067],"ymouse":[538,538,538,538,538,538,538,538,538,538,538,538,538,538,538,538,538,538,538,538,538,538,538,538,538,538,538,538,538,538,538,538,538,538,538,538,538,538,538,538,538,538,538,538,538,538,538,538,538,538,538,538,538,538,538,538,538,538,538,538,538,538,538,538,538,538,538,538,538,538,538,538,538,538,538,538,524,504,474,422,314,151,95],"timestamp_mouse":[18,37,57,77,96,116,137,157,177,196,217,238,256,277,297,317,337,356,377,397,417,436,457,477,496,516,537,557,576,596,618,637,656,677,697,716,738,756,778,798,817,837,858,878,896,916,937,957,976,996,1018,1038,1057,1078,1097,1117,1137,1158,1176,1197,1217,1236,1257,1278,1297,1316,1336,1358,1377,1396,1418,1437,1457,1477,1497,1516,1538,1558,1577,1597,1616,1637,1657],"xSR":741.5,"ySR":469.95,"xT1":424.9,"yT1":0,"xT2":1058.1,"yT2":0,"toosoon":0,"cond_shown":"Incongruent","ratio_trial":100,"L_num":6,"L_den":10,"R_num":13,"R_den":26,"correct_side":1,"subjID":"NicolásGonzalezGarcía20","gender":"0","school":"6","age":"12"},{"start_time":1551793963698,"click_time":1551793965734,"finger_time":1551793965334,"fix_duration":522.1425747551798,"trial":3,"RT":1636,"MT":400,"sideResp":2,"stimulus":[],"xmouse":[781,781,781,781,781,781,781,781,781,781,781,781,781,781,781,781,781,781,781,781,781,781,781,781,781,781,781,781,781,781,781,781,781,781,781,781,781,781,781,781,781,781,781,781,781,781,781,781,781,781,781,781,781,781,781,781,781,781,781,781,780,780,779,779,779,779,779,779,779,779,779,779,779,779,779,779,779,779,779,779,779,787,816,850,869,917,948,967,967,967,967,967,967,967,967,967,967,967,967,967,967,1093],"ymouse":[485,485,485,485,485,485,485,485,485,485,485,485,485,485,485,485,485,485,485,485,485,485,485,485,485,485,485,485,485,485,485,485,485,485,485,485,485,485,485,485,485,485,485,485,485,485,485,485,485,485,485,485,485,485,485,485,485,485,485,485,485,485,485,485,485,485,485,485,485,485,485,485,485,485,485,485,485,485,485,485,485,467,437,403,369,228,109,47,47,47,47,47,47,47,47,47,47,47,47,47,47,27],"timestamp_mouse":[21,36,56,77,96,115,136,156,176,197,215,237,255,276,295,316,336,355,375,396,416,436,456,477,496,516,535,555,577,596,615,637,656,676,696,717,735,757,776,796,817,837,855,877,896,915,935,955,975,996,1016,1036,1056,1075,1097,1116,1135,1155,1177,1196,1216,1236,1257,1276,1296,1316,1336,1356,1375,1396,1417,1437,1456,1475,1496,1516,1535,1556,1577,1595,1617,1636,1656,1676,1697,1716,1737,1755,1777,1796,1816,1837,1856,1875,1896,1916,1936,1956,1977,1995,2015,2036],"xSR":741.5,"ySR":469.95,"xT1":424.9,"yT1":0,"xT2":1058.1,"yT2":0,"toosoon":0,"cond_shown":"Congruent","ratio_trial":100,"L_num":9,"L_den":15,"R_num":8,"R_den":16,"correct_side":1,"subjID":"NicolásGonzalezGarcía20","gender":"0","school":"6","age":"12"},{"start_time":1551793968516,"click_time":1551793970514,"finger_time":1551793969873,"fix_duration":520.9619093193043,"trial":4,"RT":1357,"MT":641,"sideResp":2,"stimulus":[],"xmouse":[793,793,793,793,793,793,793,793,793,793,793,793,793,793,793,793,793,793,793,793,793,793,793,793,793,793,793,793,793,793,793,793,793,793,793,793,793,793,793,793,793,793,793,793,793,793,793,793,793,793,793,793,793,793,792,792,792,792,792,792,792,792,792,792,792,799,813,835,893,961,974,981,985,987,996,1002,1008,1020,1031,1046,1049,1052,1055,1057,1072,1073,1073,1068,1057,1056,1056,1056,1056,1056,1056,1056,1056,1056,1058,1081],"ymouse":[526,526,526,526,526,526,526,526,526,526,526,526,526,526,526,526,526,526,526,526,526,526,526,526,526,526,526,526,526,526,526,526,526,526,526,526,526,526,526,526,526,526,526,526,526,526,526,526,526,526,526,526,527,529,534,534,534,534,534,534,534,534,534,534,535,521,493,461,398,360,351,346,343,338,318,305,295,282,272,243,231,220,204,185,141,131,123,113,108,108,108,108,108,108,108,108,108,105,103,87],"timestamp_mouse":[18,37,59,78,98,118,137,158,178,197,218,237,259,278,298,318,338,357,379,398,418,438,458,479,499,517,539,559,578,599,619,637,659,678,697,718,738,758,778,798,817,839,859,877,899,919,939,958,979,999,1018,1037,1058,1078,1099,1119,1137,1159,1179,1198,1218,1238,1259,1277,1299,1318,1338,1357,1379,1397,1417,1438,1459,1479,1498,1518,1538,1558,1579,1598,1617,1637,1659,1678,1698,1718,1739,1758,1778,1798,1817,1838,1857,1878,1898,1917,1938,1958,1978,1998],"xSR":741.5,"ySR":469.95,"xT1":424.9,"yT1":0,"xT2":1058.1,"yT2":0,"toosoon":0,"cond_shown":"Congruent","ratio_trial":300,"L_num":3,"L_den":6,"R_num":4,"R_den":5,"correct_side":2,"subjID":"NicolásGonzalezGarcía20","gender":"0","school":"6","age":"12"},{"start_time":1551793972715,"click_time":1551793975594,"finger_time":1551793975234,"fix_duration":1300.4505644158348,"trial":5,"RT":2519,"MT":360,"sideResp":2,"stimulus":[],"xmouse":[809,809,809,809,809,809,809,809,809,809,809,809,809,809,809,809,809,809,809,809,809,809,809,809,809,809,809,809,809,809,809,809,809,809,809,809,809,809,809,809,809,809,809,809,809,809,809,809,809,809,809,809,809,809,809,809,809,809,809,809,809,809,809,809,809,809,809,809,809,809,809,809,809,809,809,809,809,809,809,809,809,809,809,809,809,809,809,809,809,809,809,809,809,809,809,809,809,809,809,809,809,809,809,809,809,809,809,809,809,809,809,809,809,809,809,809,809,809,809,809,809,809,809,810,815,866,916,970,1027,1099,1141,1149,1159,1171,1194,1200,1201,1201,1199,1189,1181,1170,1160,1158],"ymouse":[524,524,524,524,524,524,524,524,524,524,524,524,524,524,524,524,524,524,524,524,524,524,524,524,524,524,524,524,524,524,524,524,524,524,524,524,524,524,524,524,524,524,524,524,524,524,524,524,524,524,524,524,524,524,524,524,524,524,524,524,524,524,524,524,524,524,524,524,524,524,524,524,524,524,524,524,524,524,524,524,524,524,524,524,524,524,524,524,524,524,524,524,524,524,524,524,524,524,524,524,524,524,524,524,524,524,524,524,524,524,524,524,524,524,524,524,524,524,524,524,524,524,524,523,516,436,368,319,283,248,221,207,191,170,135,126,121,114,107,95,85,72,63,62],"timestamp_mouse":[20,38,59,78,99,119,140,158,180,199,218,239,259,278,300,320,338,359,380,398,420,440,458,478,500,519,539,558,580,599,618,638,659,680,698,720,740,759,779,800,820,840,858,879,899,919,938,960,978,998,1020,1040,1059,1078,1099,1120,1138,1160,1179,1199,1220,1240,1259,1278,1298,1319,1339,1359,1379,1399,1419,1440,1459,1479,1499,1518,1539,1558,1580,1598,1619,1640,1659,1680,1700,1718,1739,1760,1779,1799,1820,1840,1859,1879,1899,1920,1939,1960,1978,1999,2020,2038,2060,2079,2098,2118,2139,2160,2180,2199,2220,2239,2259,2280,2299,2318,2339,2359,2380,2399,2419,2439,2460,2480,2499,2519,2539,2558,2580,2599,2619,2639,2660,2679,2699,2719,2739,2759,2779,2799,2819,2839,2859,2879],"xSR":741.5,"ySR":469.95,"xT1":424.9,"yT1":0,"xT2":1058.1,"yT2":0,"toosoon":0,"cond_shown":"Incongruent","ratio_trial":300,"L_num":13,"L_den":26,"R_num":12,"R_den":15,"correct_side":2,"subjID":"NicolásGonzalezGarcía20","gender":"0","school":"6","age":"12"},{"start_time":1551793977868,"click_time":1551793979514,"finger_time":1551793979275,"fix_duration":1354.8133462617936,"trial":6,"RT":1407,"MT":239,"sideResp":2,"stimulus":[],"xmouse":[810,810,810,810,810,810,810,810,810,810,810,810,810,810,810,810,810,810,810,810,810,810,810,810,810,810,810,810,810,810,810,810,810,810,810,810,810,810,810,810,810,810,810,810,810,810,810,810,810,810,810,810,810,810,810,810,810,810,810,810,810,810,810,810,810,810,810,809,810,810,816,833,936,984,1015,1026,1026,1022,1022,1022,1026,1036,1087],"ymouse":[518,518,518,518,518,518,518,518,518,518,518,518,518,518,518,518,518,518,518,518,518,518,518,518,518,518,518,518,518,518,518,518,518,518,518,518,518,518,518,518,518,518,518,518,518,518,518,518,518,518,518,518,518,518,518,518,518,518,518,518,518,518,518,518,518,518,518,503,493,478,461,435,334,275,217,161,130,99,94,91,85,76,34],"timestamp_mouse":[6,26,46,66,86,106,125,145,167,187,207,226,246,266,285,306,326,347,367,386,406,426,446,465,486,506,526,546,566,586,606,625,646,665,685,706,726,745,765,786,805,826,847,865,886,905,925,946,966,985,1007,1026,1046,1065,1086,1107,1126,1146,1167,1185,1206,1226,1246,1267,1287,1305,1327,1346,1365,1386,1407,1427,1446,1466,1485,1507,1527,1546,1566,1586,1606,1627,1646],"xSR":741.5,"ySR":469.95,"xT1":424.9,"yT1":0,"xT2":1058.1,"yT2":0,"toosoon":0,"cond_shown":"Congruent","ratio_trial":100,"L_num":1,"L_den":2,"R_num":3,"R_den":5,"correct_side":2,"subjID":"NicolásGonzalezGarcía20","gender":"0","school":"6","age":"12"},{"start_time":1551793983091,"click_time":1551793984714,"finger_time":1551793984434,"fix_duration":676.4767294831586,"trial":7,"RT":1343,"MT":280,"sideResp":1,"stimulus":[],"xmouse":[815,815,809,808,808,808,808,808,808,808,808,808,808,808,808,807,807,807,807,807,807,807,807,807,807,807,807,807,807,807,807,807,807,807,807,807,807,807,807,807,807,807,807,807,807,807,807,807,807,807,807,807,807,807,807,807,807,807,807,807,807,807,807,807,807,807,805,797,715,669,552,445,415,409,409,409,415,418,422,427,438,460],"ymouse":[478,478,476,476,476,476,476,476,476,476,476,476,476,476,476,478,479,480,480,480,480,480,480,480,480,480,480,480,480,480,480,480,480,480,480,480,480,480,480,480,480,480,480,480,480,480,480,480,480,480,480,480,480,480,480,480,480,480,480,480,480,480,480,480,480,480,480,461,371,339,257,171,144,137,137,137,128,124,119,115,106,94],"timestamp_mouse":[3,23,43,63,83,102,123,144,164,183,204,222,243,262,282,304,324,343,362,384,402,423,443,464,482,503,523,543,562,583,603,623,644,662,684,704,722,743,763,782,804,823,842,862,884,903,923,943,963,983,1003,1023,1043,1064,1083,1102,1124,1143,1162,1183,1203,1223,1243,1263,1283,1303,1323,1343,1363,1383,1403,1423,1443,1463,1483,1503,1523,1543,1563,1582,1603,1623],"xSR":741.5,"ySR":469.95,"xT1":424.9,"yT1":0,"xT2":1058.1,"yT2":0,"toosoon":0,"cond_shown":"Congruent","ratio_trial":300,"L_num":20,"L_den":25,"R_num":14,"R_den":28,"correct_side":1,"subjID":"NicolásGonzalezGarcía20","gender":"0","school":"6","age":"12"},{"start_time":1551793987286,"click_time":1551793989214,"finger_time":1551793988615,"fix_duration":250,"trial":8,"RT":1329,"MT":599,"sideResp":2,"stimulus":[],"xmouse":[788,788,788,788,788,788,788,788,788,788,788,788,788,788,788,788,788,788,788,788,788,788,788,788,788,788,788,788,788,788,788,788,788,788,788,788,788,788,788,788,788,788,788,788,788,788,788,788,788,788,788,788,788,788,788,788,788,788,788,788,788,788,788,788,802,815,884,926,959,970,970,970,970,979,990,997,1015,1022,1028,1040,1067,1212,1257,1268,1268,1268,1268,1268,1268,1265,1261,1222,1201,1188,1179,1168,1151],"ymouse":[513,513,513,513,513,513,513,513,513,513,513,513,513,513,513,513,513,513,513,513,513,513,513,513,513,513,513,513,513,513,513,513,513,513,513,513,513,513,513,513,513,513,513,513,513,513,513,513,513,513,513,513,513,513,513,513,513,513,513,513,513,513,513,513,505,492,398,342,304,290,280,260,251,234,220,211,186,173,164,152,131,68,52,46,46,46,46,46,46,47,49,61,61,58,52,46,38],"timestamp_mouse":[8,28,49,67,87,108,129,148,169,189,209,228,248,269,289,307,329,347,367,388,408,427,448,467,489,507,529,549,567,588,607,628,647,667,689,707,729,748,768,789,807,829,848,869,888,909,929,947,968,987,1009,1027,1049,1069,1087,1108,1128,1149,1168,1187,1207,1229,1249,1268,1287,1308,1329,1348,1367,1389,1409,1428,1448,1468,1487,1509,1528,1548,1568,1588,1608,1627,1648,1669,1689,1709,1728,1748,1768,1788,1808,1828,1847,1867,1888,1909,1928],"xSR":741.5,"ySR":469.95,"xT1":424.9,"yT1":0,"xT2":1058.1,"yT2":0,"toosoon":0,"cond_shown":"Incongruent","ratio_trial":300,"L_num":7,"L_den":10,"R_num":8,"R_den":20,"correct_side":1,"subjID":"NicolásGonzalezGarcía20","gender":"0","school":"6","age":"12"},{"start_time":1551793990647,"click_time":1551793993654,"finger_time":1551793992234,"fix_duration":512.34969191884,"trial":9,"RT":1587,"MT":1420,"sideResp":1,"stimulus":[],"xmouse":[829,829,829,829,829,829,829,829,829,829,829,829,829,829,829,829,829,829,829,829,829,829,829,829,829,829,829,829,829,829,829,829,829,829,829,829,829,829,829,829,829,829,829,829,829,829,829,829,829,829,829,829,829,829,829,829,829,829,829,829,829,829,829,829,829,829,829,829,829,829,829,829,829,829,829,829,830,833,837,849,857,860,860,860,860,860,860,860,860,860,860,860,860,843,828,816,810,810,810,810,809,810,811,811,811,811,811,811,811,811,811,811,811,811,811,811,811,809,773,732,692,675,667,670,675,676,676,674,671,665,658,658,658,658,658,658,658,658,658,658,651,641,630,592,584,578,571,567,536,513,496],"ymouse":[485,485,485,485,485,485,485,485,485,485,485,485,485,485,485,485,485,485,485,485,485,485,485,485,485,485,485,485,485,485,485,485,485,485,485,485,485,485,485,485,485,485,485,485,485,485,485,485,485,485,485,485,485,485,485,485,485,485,485,485,485,485,485,485,485,485,485,485,485,485,485,485,485,485,485,484,483,483,482,482,482,482,482,482,482,482,482,482,482,482,482,482,482,495,504,509,510,510,510,510,509,507,505,505,505,505,505,505,505,505,505,505,505,505,505,505,503,501,476,445,415,398,385,352,339,325,316,308,302,297,295,295,295,295,295,295,295,295,295,295,287,279,268,220,207,195,183,173,131,100,81],"timestamp_mouse":[8,27,46,68,87,107,127,147,166,187,207,227,247,267,286,307,327,346,367,387,407,426,447,467,487,506,528,547,568,586,606,627,646,667,686,706,728,747,766,788,807,826,848,867,886,906,927,948,966,986,1008,1027,1047,1067,1086,1107,1127,1146,1167,1187,1208,1228,1248,1268,1287,1307,1326,1348,1368,1387,1408,1428,1448,1467,1486,1507,1528,1548,1567,1587,1608,1626,1647,1667,1687,1707,1727,1746,1767,1787,1807,1827,1847,1867,1887,1907,1926,1947,1967,1988,2007,2026,2047,2066,2087,2108,2126,2147,2168,2186,2206,2227,2247,2268,2286,2307,2327,2347,2366,2388,2407,2427,2447,2467,2488,2507,2527,2548,2566,2587,2607,2627,2648,2667,2688,2706,2728,2747,2767,2787,2806,2827,2848,2867,2888,2908,2927,2948,2967,2986,3007],"xSR":741.5,"ySR":469.95,"xT1":424.9,"yT1":0,"xT2":1058.1,"yT2":0,"toosoon":0,"cond_shown":"Incongruent","ratio_trial":100,"L_num":12,"L_den":30,"R_num":2,"R_den":4,"correct_side":2,"subjID":"NicolásGonzalezGarcía20","gender":"0","school":"6","age":"12"},{"start_time":1551793997465,"click_time":1551793999235,"finger_time":1551793998814,"fix_duration":1289.7822752345608,"trial":10,"RT":1349,"MT":421,"sideResp":1,"stimulus":[],"xmouse":[812,812,812,812,812,812,812,812,812,812,812,812,812,812,812,812,812,812,812,812,812,812,812,812,812,812,812,812,812,812,812,812,812,812,812,812,812,812,812,812,812,812,812,812,812,812,812,812,812,812,812,812,812,812,812,812,812,812,812,812,812,812,812,812,812,807,790,739,699,655,614,567,539,538,538,538,538,538,538,539,539,539,516,505,498,495,494,491,465],"ymouse":[489,489,489,489,489,489,489,489,489,489,489,489,489,489,489,489,489,489,489,489,489,489,489,489,489,489,489,489,489,489,489,489,489,489,489,489,489,489,489,489,489,489,489,489,489,489,489,489,489,489,489,489,489,489,489,489,489,489,489,489,489,489,489,489,489,486,473,444,422,399,374,320,249,240,232,226,223,217,212,207,197,193,157,144,134,129,124,114,53],"timestamp_mouse":[9,29,48,70,89,108,130,149,170,189,209,230,248,269,289,309,329,350,369,390,408,429,449,468,488,510,529,550,569,589,608,629,648,669,688,708,729,749,769,789,809,828,849,869,888,908,929,950,968,988,1009,1030,1050,1069,1089,1108,1129,1149,1169,1188,1209,1229,1249,1269,1289,1309,1329,1349,1370,1389,1409,1430,1449,1469,1488,1509,1529,1549,1568,1589,1609,1629,1648,1669,1689,1708,1730,1749,1770],"xSR":741.5,"ySR":469.95,"xT1":424.9,"yT1":0,"xT2":1058.1,"yT2":0,"toosoon":0,"cond_shown":"Incongruent","ratio_trial":200,"L_num":1,"L_den":3,"R_num":2,"R_den":15,"correct_side":1,"subjID":"NicolásGonzalezGarcía20","gender":"0","school":"6","age":"12"},{"start_time":1551794001001,"click_time":1551794002614,"finger_time":1551794002434,"fix_duration":906.673111649362,"trial":11,"RT":1433,"MT":180,"sideResp":1,"stimulus":[],"xmouse":[783,783,783,783,783,783,783,783,783,783,783,783,783,783,783,783,783,783,783,783,783,783,783,783,783,783,783,783,783,783,783,783,783,783,783,783,783,783,783,783,783,783,783,783,783,783,783,783,783,783,783,783,783,783,783,783,783,783,783,783,783,783,783,783,783,783,783,783,783,783,783,783,773,758,735,686,660,633,604,569,510],"ymouse":[507,507,507,507,507,507,507,507,507,507,507,507,507,507,507,507,507,507,507,507,507,507,507,507,507,507,507,507,507,507,507,507,507,507,507,507,507,507,507,507,507,507,507,507,507,507,507,507,507,507,507,507,507,507,507,507,507,507,507,507,507,507,507,507,507,507,507,507,507,502,473,458,436,403,368,298,255,207,166,117,42],"timestamp_mouse":[17,32,53,74,94,113,132,154,173,193,213,233,254,274,294,314,333,352,374,392,414,434,452,474,493,514,534,552,574,593,614,634,654,672,692,713,733,752,772,794,813,833,853,873,893,914,934,954,972,993,1013,1032,1052,1073,1094,1113,1132,1154,1174,1193,1214,1233,1254,1273,1292,1313,1334,1353,1373,1394,1414,1433,1453,1473,1493,1513,1532,1552,1573,1594,1612],"xSR":741.5,"ySR":469.95,"xT1":424.9,"yT1":0,"xT2":1058.1,"yT2":0,"toosoon":0,"cond_shown":"Congruent","ratio_trial":200,"L_num":11,"L_den":22,"R_num":3,"R_den":10,"correct_side":1,"subjID":"NicolásGonzalezGarcía20","gender":"0","school":"6","age":"12"},{"start_time":1551794004650,"click_time":1551794009055,"finger_time":1551794007094,"fix_duration":1056.0935046208367,"trial":12,"RT":2444,"MT":1961,"sideResp":2,"stimulus":[],"xmouse":[777,777,777,777,777,777,777,777,777,777,777,777,777,777,777,777,777,777,777,777,777,777,777,777,777,777,777,777,777,777,777,777,777,777,777,777,777,777,777,777,777,777,777,777,777,777,777,777,777,777,777,777,777,777,777,777,777,777,777,777,777,777,777,777,777,777,777,777,777,777,777,777,777,777,777,777,777,777,777,777,777,777,777,777,777,777,777,777,777,777,777,777,777,777,777,777,777,777,777,777,777,777,777,777,777,777,777,777,777,777,777,777,777,777,777,777,777,777,777,784,817,829,853,896,901,902,907,914,921,939,951,960,970,975,989,993,996,1001,1006,1017,1019,1021,1021,1022,1022,1023,1024,1025,1030,1032,1036,1039,1042,1050,1056,1060,1063,1066,1069,1069,1069,1069,1069,1069,1069,1069,1069,1069,1069,1070,1070,1070,1070,1070,1070,1070,1070,1070,1070,1070,1070,1070,1070,1071,1071,1072,1072,1072,1072,1072,1072,1072,1072,1072,1072,1072,1072,1072,1072,1072,1072,1072,1072,1072,1072,1072,1072,1072,1072,1072,1072,1072,1072,1072,1072,1072,1072,1072,1072,1073,1073],"ymouse":[547,547,547,547,547,547,547,547,547,547,547,547,547,547,547,547,547,547,547,547,547,547,547,547,547,547,547,547,547,547,547,547,547,547,547,547,547,547,547,547,547,547,547,547,547,547,547,547,547,547,547,547,547,547,547,547,547,547,547,547,547,547,547,547,547,547,547,547,547,547,547,547,547,547,547,547,547,547,547,547,547,547,547,547,547,547,547,547,547,547,547,547,547,547,547,547,547,547,547,547,547,547,547,547,547,547,547,547,547,547,547,547,547,547,547,547,547,547,547,537,505,496,478,446,441,437,428,415,402,370,353,340,322,311,288,281,274,260,247,223,218,215,211,210,208,205,204,201,194,190,185,179,174,159,150,142,137,132,126,125,125,125,125,125,125,125,125,125,125,122,119,118,118,118,118,118,118,118,118,118,118,118,118,116,113,112,111,111,111,111,111,111,111,111,111,111,111,111,111,111,111,111,111,111,111,111,111,111,111,111,111,110,108,106,106,105,104,104,102,101,98],"timestamp_mouse":[6,24,43,63,83,105,123,144,165,184,205,225,243,265,284,303,324,345,363,385,405,423,444,464,483,505,524,545,565,583,603,624,644,663,684,704,725,743,765,784,804,824,845,865,884,903,924,944,963,984,1004,1025,1043,1063,1084,1103,1124,1145,1164,1183,1204,1223,1245,1265,1285,1305,1324,1344,1364,1383,1404,1424,1444,1464,1484,1505,1524,1544,1564,1583,1603,1623,1645,1665,1683,1704,1725,1743,1763,1784,1805,1825,1844,1865,1885,1904,1924,1944,1964,1984,2003,2024,2044,2064,2083,2105,2123,2145,2164,2184,2204,2225,2243,2264,2285,2303,2325,2344,2365,2385,2404,2423,2444,2464,2485,2504,2523,2543,2563,2584,2604,2624,2643,2664,2684,2704,2724,2743,2763,2784,2804,2824,2843,2863,2884,2904,2924,2944,2964,2984,3003,3024,3044,3064,3084,3104,3124,3144,3164,3185,3205,3223,3243,3264,3285,3304,3325,3344,3363,3384,3405,3424,3443,3464,3484,3503,3523,3544,3564,3584,3604,3623,3644,3663,3683,3704,3725,3744,3764,3783,3805,3824,3844,3864,3884,3904,3924,3945,3964,3984,4003,4024,4044,4064,4083,4105,4124,4145,4164,4184,4203,4223,4244,4264,4284,4304,4324,4345,4363,4383,4405],"xSR":741.5,"ySR":469.95,"xT1":424.9,"yT1":0,"xT2":1058.1,"yT2":0,"toosoon":0,"cond_shown":"Congruent","ratio_trial":200,"L_num":8,"L_den":15,"R_num":2,"R_den":6,"correct_side":1,"subjID":"NicolásGonzalezGarcía20","gender":"0","school":"6","age":"12"},{"start_time":1551794010941,"click_time":1551794012596,"finger_time":1551794012314,"fix_duration":504.2848833131978,"trial":13,"RT":1373,"MT":282,"sideResp":2,"stimulus":[],"xmouse":[827,827,827,827,827,827,827,827,827,827,827,827,827,827,827,827,827,827,827,827,827,827,827,827,827,827,827,827,827,827,827,827,827,827,827,827,827,827,827,827,827,827,827,827,827,827,827,827,827,827,827,827,827,827,827,827,827,827,827,827,827,827,827,827,827,827,827,827,842,871,934,998,1049,1087,1093,1097,1103,1118,1131,1132,1133,1133,1133],"ymouse":[508,508,508,508,508,508,508,508,508,508,508,508,508,508,508,508,508,508,508,508,508,508,508,508,508,508,508,508,508,508,508,508,508,508,508,508,508,508,508,508,508,508,508,508,508,508,508,508,508,508,508,508,508,508,508,508,508,508,508,508,508,508,508,508,508,508,508,508,497,465,395,317,256,184,164,147,132,117,107,104,102,101,99],"timestamp_mouse":[14,34,53,73,94,114,133,155,173,194,215,235,253,275,294,314,333,354,375,395,413,434,454,474,495,513,533,554,575,593,615,634,653,675,694,714,735,755,774,793,814,835,854,873,895,914,933,955,975,995,1014,1034,1054,1075,1095,1115,1135,1154,1174,1193,1213,1234,1255,1273,1295,1314,1334,1354,1373,1394,1414,1435,1455,1473,1494,1515,1534,1554,1573,1593,1615,1635,1655],"xSR":741.5,"ySR":469.95,"xT1":424.9,"yT1":0,"xT2":1058.1,"yT2":0,"toosoon":0,"cond_shown":"Incongruent","ratio_trial":100,"L_num":11,"L_den":22,"R_num":9,"R_den":15,"correct_side":2,"subjID":"NicolásGonzalezGarcía20","gender":"0","school":"6","age":"12"},{"start_time":1551794015139,"click_time":1551794017255,"finger_time":1551794016916,"fix_duration":402.14155078058786,"trial":14,"RT":1777,"MT":339,"sideResp":1,"stimulus":[],"xmouse":[828,828,828,828,828,828,828,828,828,828,828,828,828,828,828,828,828,828,828,828,828,828,828,828,828,828,828,828,828,828,828,828,828,828,828,828,828,828,828,828,828,828,828,828,828,828,828,828,828,828,828,828,828,828,828,828,828,828,828,828,828,828,828,828,828,828,828,828,824,814,812,811,811,811,811,811,811,811,811,811,810,809,807,806,806,806,804,797,778,765,746,719,687,628,615,604,596,590,574,564,561,561,561,553,535,509],"ymouse":[535,535,535,535,535,535,535,535,535,535,535,535,535,535,535,535,535,535,535,535,535,535,535,535,535,535,535,535,535,535,535,535,535,535,535,535,535,535,535,535,535,535,535,535,535,535,535,535,535,535,535,535,535,535,535,535,535,535,535,535,535,535,535,535,535,535,535,535,548,562,563,564,564,564,564,564,564,564,564,564,564,559,547,535,530,527,515,491,441,416,363,300,235,134,108,87,70,56,28,18,16,16,16,18,29,41],"timestamp_mouse":[15,37,57,75,95,116,137,155,175,195,217,236,256,277,295,315,337,355,377,396,416,436,457,476,495,515,536,556,576,596,616,636,655,676,697,715,735,755,776,795,817,836,856,876,896,916,936,956,977,996,1017,1036,1056,1076,1096,1116,1137,1156,1176,1197,1215,1237,1256,1275,1296,1316,1335,1356,1377,1396,1416,1436,1456,1475,1495,1516,1537,1556,1576,1596,1616,1636,1656,1676,1697,1716,1735,1757,1777,1795,1816,1836,1857,1876,1895,1916,1936,1956,1976,1996,2016,2036,2057,2076,2096,2116],"xSR":741.5,"ySR":469.95,"xT1":424.9,"yT1":0,"xT2":1058.1,"yT2":0,"toosoon":0,"cond_shown":"Congruent","ratio_trial":100,"L_num":15,"L_den":25,"R_num":13,"R_den":26,"correct_side":1,"subjID":"NicolásGonzalezGarcía20","gender":"0","school":"6","age":"12"},{"start_time":1551794018545,"click_time":1551794020015,"finger_time":1551794019915,"fix_duration":389.0171529438621,"trial":15,"RT":1370,"MT":100,"sideResp":1,"stimulus":[],"xmouse":[806,806,806,806,806,806,806,806,806,806,806,806,806,806,806,806,806,806,806,806,806,806,806,806,806,806,806,806,806,806,806,806,806,806,806,806,806,806,806,806,806,806,806,806,806,806,806,806,806,806,806,806,806,806,806,806,806,806,806,806,806,806,806,806,806,806,806,804,765,709,634,570,542,517],"ymouse":[525,525,525,525,525,525,525,525,525,525,525,525,525,525,525,525,525,525,525,525,525,525,525,525,525,525,525,525,525,525,525,525,525,525,525,525,525,525,525,525,525,525,525,525,525,525,525,525,525,525,525,525,525,525,525,525,525,525,525,525,525,525,525,525,525,525,525,509,375,281,187,112,79,39],"timestamp_mouse":[10,31,51,70,90,110,131,149,170,189,211,231,251,271,291,310,329,350,369,391,411,430,451,470,490,510,531,550,571,589,610,631,650,670,690,710,729,751,770,789,810,831,851,869,891,910,929,951,970,991,1010,1030,1049,1071,1091,1109,1129,1150,1170,1190,1211,1229,1251,1269,1291,1310,1329,1351,1370,1389,1413,1432,1451,1470],"xSR":741.5,"ySR":469.95,"xT1":424.9,"yT1":0,"xT2":1058.1,"yT2":0,"toosoon":0,"cond_shown":"Congruent","ratio_trial":200,"L_num":12,"L_den":20,"R_num":6,"R_den":15,"correct_side":1,"subjID":"NicolásGonzalezGarcía20","gender":"0","school":"6","age":"12"},{"start_time":1551794021390,"click_time":1551794022575,"finger_time":1551794022216,"fix_duration":673.0440926604304,"trial":16,"RT":826,"MT":359,"sideResp":2,"stimulus":[],"xmouse":[784,784,784,784,784,784,784,784,784,784,784,784,784,784,784,784,784,784,784,784,784,784,784,784,784,784,784,784,784,784,784,784,784,784,784,784,784,784,784,784,785,814,856,895,915,923,929,951,971,990,1008,1027,1032,1036,1039,1046,1058,1066,1074,1082],"ymouse":[488,488,488,488,488,488,488,488,488,488,488,488,488,488,488,488,488,488,488,488,488,488,488,488,488,488,488,488,488,488,488,488,488,488,488,488,488,488,488,488,488,456,424,395,372,357,343,281,251,228,202,169,159,153,150,145,136,119,102,89],"timestamp_mouse":[6,26,44,64,85,105,125,145,166,186,205,224,245,265,285,305,325,345,365,385,404,424,444,465,485,506,525,545,565,584,604,625,645,665,685,705,724,745,766,785,805,826,845,865,884,904,924,944,964,985,1005,1025,1044,1065,1085,1105,1124,1146,1165,1185],"xSR":741.5,"ySR":469.95,"xT1":424.9,"yT1":0,"xT2":1058.1,"yT2":0,"toosoon":0,"cond_shown":"Incongruent","ratio_trial":300,"L_num":13,"L_den":26,"R_num":12,"R_den":15,"correct_side":2,"subjID":"NicolásGonzalezGarcía20","gender":"0","school":"6","age":"12"},{"start_time":1551794026067,"click_time":1551794027735,"finger_time":1551794027415,"fix_duration":1071.3711525751028,"trial":17,"RT":1348,"MT":320,"sideResp":2,"stimulus":[],"xmouse":[792,792,792,792,792,792,792,792,792,792,792,792,792,792,792,792,792,792,792,792,792,792,792,792,792,792,792,792,792,792,792,792,792,792,792,792,792,792,792,792,792,792,792,792,792,792,792,792,792,792,792,792,792,792,792,792,792,792,792,792,792,792,792,792,792,792,791,803,828,846,857,866,905,964,1030,1080,1105,1122,1124,1125,1130,1139,1149,1149],"ymouse":[503,503,503,503,503,503,503,503,503,503,503,503,503,503,503,503,503,503,503,503,503,503,503,503,503,503,503,503,503,503,503,503,503,503,503,503,503,503,503,503,503,503,503,503,503,503,503,503,503,503,503,503,503,503,503,503,503,503,503,503,503,503,503,503,503,503,500,457,388,343,309,282,251,227,214,206,202,195,192,181,164,134,106,96],"timestamp_mouse":[8,29,48,67,87,107,128,148,167,187,208,228,248,269,288,308,327,348,368,388,408,428,447,468,488,508,528,547,568,588,608,628,648,668,689,707,729,748,768,789,808,827,849,868,888,909,928,947,968,988,1007,1027,1048,1068,1088,1108,1128,1149,1169,1187,1208,1228,1248,1269,1288,1308,1329,1348,1368,1389,1408,1428,1447,1468,1488,1508,1528,1547,1568,1588,1609,1628,1647,1667],"xSR":741.5,"ySR":469.95,"xT1":424.9,"yT1":0,"xT2":1058.1,"yT2":0,"toosoon":0,"cond_shown":"Incongruent","ratio_trial":300,"L_num":4,"L_den":20,"R_num":2,"R_den":4,"correct_side":2,"subjID":"NicolásGonzalezGarcía20","gender":"0","school":"6","age":"12"},{"start_time":1551794030550,"click_time":1551794037315,"finger_time":1551794036955,"fix_duration":434.11585268029694,"trial":18,"RT":6405,"MT":360,"sideResp":2,"stimulus":[],"xmouse":[824,824,824,824,824,824,824,824,824,824,824,824,824,824,824,824,824,824,824,824,824,824,824,823,822,822,822,822,822,822,822,822,822,822,822,822,822,822,822,822,822,822,822,822,822,822,822,822,822,822,822,822,822,822,822,822,822,822,822,822,822,822,822,822,822,822,822,822,822,822,822,822,822,822,822,822,822,822,822,822,822,822,822,822,822,822,822,822,822,822,822,822,822,822,822,822,822,822,822,822,822,822,822,822,822,822,822,822,822,822,822,822,822,822,822,822,822,822,822,822,822,822,822,822,822,822,822,822,822,822,822,822,822,822,822,822,822,822,822,822,822,822,822,822,822,822,822,822,822,822,822,822,822,822,822,822,822,822,822,822,822,822,822,822,822,822,822,822,822,822,822,822,822,822,822,822,822,822,822,822,822,822,822,822,822,822,822,822,822,822,822,822,822,822,822,822,822,822,822,822,822,822,822,822,822,822,822,822,822,822,822,822,822,822,822,822,822,822,822,822,822,822,822,822,822,822,822,822,822,822,822,822,822,822,822,822,822,822,822,822,822,822,822,822,822,822,822,822,822,822,822,822,822,822,822,822,822,822,822,822,822,822,822,822,822,822,822,822,822,822,822,822,822,822,822,822,822,822,822,822,822,822,822,822,822,822,822,822,822,822,822,822,822,822,822,822,822,822,822,822,822,822,822,822,822,822,822,822,822,822,822,822,822,822,822,822,822,822,822,827,884,960,977,986,988,988,988,988,988,988,988,988,988,988,988,988,988,988,1097],"ymouse":[505,505,505,505,505,505,505,505,505,505,505,505,505,505,505,505,505,505,505,505,505,505,505,506,507,507,507,507,507,507,507,507,507,507,507,507,507,507,507,507,507,507,507,507,507,507,507,507,507,507,507,507,507,507,507,507,507,507,507,507,507,507,507,507,507,507,507,507,507,507,507,507,507,507,507,507,507,507,507,507,507,507,507,507,507,507,507,507,507,507,507,507,507,507,507,507,507,507,507,507,507,507,507,507,507,507,507,507,507,507,507,507,507,507,507,507,507,507,507,507,507,507,507,507,507,507,507,507,507,507,507,507,507,507,507,507,507,507,507,507,507,507,507,507,507,507,507,507,507,507,507,507,507,507,507,507,507,507,507,507,507,507,507,507,507,507,507,507,507,507,507,507,507,507,507,507,507,507,507,507,507,507,507,507,507,507,507,507,507,507,507,507,507,507,507,507,507,507,507,507,507,507,507,507,507,507,507,507,507,507,507,507,507,507,507,507,507,507,507,507,507,507,507,507,507,507,507,507,507,507,507,507,507,507,507,507,507,507,507,507,507,507,507,507,507,507,507,507,507,507,507,507,507,507,507,507,507,507,507,507,507,507,507,507,507,507,507,507,507,507,507,507,507,507,507,507,507,507,507,507,507,507,507,507,507,507,507,507,507,507,507,507,507,507,507,507,507,507,507,507,507,507,507,507,507,507,507,507,507,507,507,507,507,507,507,507,507,507,507,507,487,436,374,153,36,36,36,36,36,36,36,36,36,36,36,36,36,36,15],"timestamp_mouse":[6,26,45,65,85,105,126,144,166,186,205,224,244,266,286,305,325,345,366,385,406,425,445,465,485,505,525,546,566,586,605,625,644,665,685,704,725,745,766,785,806,826,844,864,885,905,925,946,966,984,1005,1025,1044,1066,1086,1106,1126,1144,1166,1185,1204,1226,1244,1266,1286,1305,1324,1344,1366,1386,1405,1425,1446,1465,1484,1505,1524,1544,1564,1585,1604,1625,1645,1664,1685,1705,1724,1744,1766,1785,1805,1824,1845,1865,1886,1904,1925,1946,1966,1984,2005,2025,2044,2066,2085,2104,2124,2145,2165,2185,2206,2226,2244,2264,2286,2306,2324,2346,2365,2385,2406,2424,2445,2465,2484,2506,2526,2544,2565,2585,2604,2626,2646,2664,2685,2705,2726,2746,2765,2785,2806,2824,2846,2865,2886,2906,2925,2944,2965,2985,3005,3024,3044,3064,3086,3105,3125,3144,3166,3184,3205,3225,3245,3265,3286,3304,3325,3345,3366,3385,3406,3425,3446,3465,3485,3506,3526,3544,3564,3586,3605,3625,3645,3666,3685,3704,3726,3745,3764,3785,3805,3826,3844,3864,3886,3905,3925,3945,3966,3986,4004,4026,4044,4066,4086,4104,4124,4145,4165,4184,4206,4224,4244,4265,4284,4305,4325,4345,4365,4384,4405,4426,4444,4464,4485,4505,4525,4544,4565,4586,4605,4625,4645,4664,4684,4705,4725,4745,4764,4785,4804,4825,4845,4864,4886,4906,4925,4944,4966,4984,5004,5026,5046,5064,5084,5105,5125,5145,5166,5186,5206,5224,5246,5265,5285,5304,5326,5344,5365,5386,5404,5426,5446,5465,5486,5506,5526,5545,5565,5585,5604,5626,5645,5664,5685,5705,5725,5745,5764,5784,5805,5825,5845,5864,5886,5906,5925,5946,5965,5985,6005,6026,6044,6064,6085,6105,6126,6145,6165,6185,6205,6225,6244,6265,6284,6304,6325,6345,6364,6386,6405,6424,6445,6464,6485,6506,6525,6546,6565,6586,6605,6625,6644,6665,6685,6705,6726,6746,6765],"xSR":741.5,"ySR":469.95,"xT1":424.9,"yT1":0,"xT2":1058.1,"yT2":0,"toosoon":0,"cond_shown":"Congruent","ratio_trial":200,"L_num":6,"L_den":12,"R_num":7,"R_den":10,"correct_side":2,"subjID":"NicolásGonzalezGarcía20","gender":"0","school":"6","age":"12"},{"start_time":1551794040790,"click_time":1551794042515,"finger_time":1551794042215,"fix_duration":1373.502836567016,"trial":19,"RT":1425,"MT":300,"sideResp":1,"stimulus":[],"xmouse":[785,785,785,785,786,786,790,790,790,790,790,790,790,790,790,790,790,790,790,790,790,790,790,790,790,790,790,790,790,790,790,790,790,790,790,790,790,790,790,790,790,790,790,790,790,790,790,790,790,790,790,790,790,790,790,790,790,790,790,790,790,790,790,790,790,790,790,790,790,790,790,736,693,653,614,602,585,581,571,564,546,532,524,522,522,522,517],"ymouse":[549,549,549,549,548,546,540,539,539,539,539,539,539,539,539,539,539,539,539,539,539,539,539,539,539,539,539,539,539,539,539,539,539,539,539,539,539,539,539,539,539,539,539,539,539,539,539,539,539,539,539,539,539,539,539,539,539,539,539,539,539,539,539,539,539,539,539,539,539,539,526,426,352,285,216,197,155,150,141,137,129,119,112,111,111,111,86],"timestamp_mouse":[6,25,45,66,85,104,126,144,165,185,204,226,245,265,285,304,324,346,364,386,405,425,445,464,485,505,525,546,564,584,605,624,645,666,684,704,725,744,765,786,805,825,845,865,885,904,926,945,964,985,1006,1024,1044,1064,1085,1104,1125,1145,1165,1185,1205,1224,1246,1264,1284,1305,1324,1345,1364,1385,1406,1425,1445,1464,1484,1506,1524,1545,1564,1585,1604,1625,1646,1665,1685,1705,1725],"xSR":741.5,"ySR":469.95,"xT1":424.9,"yT1":0,"xT2":1058.1,"yT2":0,"toosoon":0,"cond_shown":"Incongruent","ratio_trial":100,"L_num":3,"L_den":9,"R_num":7,"R_den":30,"correct_side":1,"subjID":"NicolásGonzalezGarcía20","gender":"0","school":"6","age":"12"},{"start_time":1551794045918,"click_time":1551794047735,"finger_time":1551794047236,"fix_duration":1062.0937582029328,"trial":20,"RT":1318,"MT":499,"sideResp":1,"stimulus":[],"xmouse":[797,797,796,795,793,792,792,792,792,792,792,792,792,792,792,792,792,792,792,792,792,792,792,792,792,792,792,792,792,792,792,792,792,792,792,792,792,792,792,792,792,792,792,792,792,792,792,792,792,792,792,792,792,792,792,792,792,792,792,792,792,792,792,792,792,785,768,743,710,688,665,665,665,672,682,683,678,659,618,449,411,402,402,402,402,402,402,404,410,417,434],"ymouse":[493,492,492,492,491,490,490,490,490,490,490,490,490,490,490,490,490,490,490,490,490,490,490,490,490,490,490,490,490,490,490,490,490,490,490,490,490,490,490,490,490,490,490,490,490,490,490,490,490,490,490,490,485,480,474,474,474,474,474,474,474,474,474,474,471,459,438,407,375,360,344,339,332,323,304,293,278,257,230,167,157,153,153,153,148,142,136,131,119,107,81],"timestamp_mouse":[16,38,57,77,97,117,136,157,178,197,217,236,258,276,296,316,338,357,377,396,417,438,457,477,497,517,536,557,577,597,616,637,658,678,697,718,737,756,777,797,817,838,857,878,898,918,937,958,976,997,1017,1037,1058,1078,1096,1118,1137,1157,1176,1198,1217,1238,1257,1277,1297,1318,1337,1357,1376,1397,1417,1437,1456,1477,1496,1517,1537,1556,1577,1597,1617,1637,1656,1677,1697,1717,1737,1757,1776,1797,1817],"xSR":741.5,"ySR":469.95,"xT1":424.9,"yT1":0,"xT2":1058.1,"yT2":0,"toosoon":0,"cond_shown":"Congruent","ratio_trial":300,"L_num":20,"L_den":25,"R_num":5,"R_den":10,"correct_side":1,"subjID":"NicolásGonzalezGarcía20","gender":"0","school":"6","age":"12"},{"start_time":1551794048912,"click_time":1551794051314,"finger_time":1551794050295,"fix_duration":456.44463678297853,"trial":21,"RT":1383,"MT":1019,"sideResp":2,"stimulus":[],"xmouse":[811,811,811,811,810,808,807,807,807,807,807,807,809,810,810,810,810,810,810,810,810,810,810,810,810,810,810,810,810,810,810,810,810,810,810,810,810,810,810,810,810,810,810,810,810,810,810,810,810,810,810,810,810,810,810,810,810,810,810,810,810,810,810,810,810,810,810,810,805,795,794,794,794,794,794,794,796,796,797,797,797,797,798,798,799,800,800,800,800,800,810,812,817,822,828,835,849,858,859,865,874,909,968,1026,1065,1090,1115,1118,1124,1129,1132,1133,1132,1129,1129,1128,1126,1124,1122,1121,1127],"ymouse":[515,515,515,515,515,515,515,515,515,515,515,515,515,515,514,514,514,514,514,514,514,514,514,514,514,514,514,514,514,514,514,514,514,514,514,514,514,514,514,514,514,514,514,514,514,514,514,514,514,514,514,514,514,514,514,514,514,514,514,514,514,514,514,514,514,514,498,488,475,457,453,453,453,452,452,452,452,452,452,452,454,455,456,456,457,459,459,459,459,459,447,443,432,418,401,385,363,347,342,317,301,282,265,257,251,246,240,237,230,219,204,167,155,145,144,141,136,127,117,106,51],"timestamp_mouse":[3,24,44,63,82,103,123,142,162,183,203,223,242,263,284,304,322,342,363,383,404,422,444,462,483,503,523,542,564,583,602,623,643,663,684,704,724,742,763,783,804,823,843,863,883,902,924,944,964,984,1003,1024,1043,1062,1084,1104,1123,1143,1162,1183,1202,1223,1242,1263,1283,1302,1323,1344,1362,1383,1403,1424,1443,1462,1482,1503,1523,1543,1562,1583,1603,1623,1642,1662,1683,1703,1723,1744,1763,1783,1803,1822,1844,1863,1883,1903,1923,1943,1963,1982,2003,2024,2043,2063,2082,2102,2123,2144,2163,2183,2203,2223,2243,2263,2284,2303,2323,2342,2362,2383,2402],"xSR":741.5,"ySR":469.95,"xT1":424.9,"yT1":0,"xT2":1058.1,"yT2":0,"toosoon":0,"cond_shown":"Congruent","ratio_trial":200,"L_num":3,"L_den":10,"R_num":7,"R_den":14,"correct_side":2,"subjID":"NicolásGonzalezGarcía20","gender":"0","school":"6","age":"12"},{"start_time":1551794052828,"click_time":1551794054855,"finger_time":1551794054375,"fix_duration":691.8996973114708,"trial":22,"RT":1547,"MT":480,"sideResp":1,"stimulus":[],"xmouse":[787,787,787,787,787,787,787,787,787,787,787,787,787,787,787,787,787,787,787,787,787,787,787,787,787,787,787,787,787,787,787,787,787,787,786,785,784,782,781,780,780,780,780,780,780,780,780,780,780,780,780,780,780,780,780,780,780,780,780,780,780,780,780,780,780,780,780,780,780,780,780,780,780,780,780,782,792,803,806,807,807,807,807,807,807,807,807,807,807,807,807,807,807,807,807,807,796,764,699,554,493,459],"ymouse":[509,509,509,509,509,509,509,509,509,509,509,509,509,509,509,509,509,509,509,509,509,509,509,509,509,509,509,509,509,509,509,509,509,509,511,511,512,513,514,516,516,516,516,516,516,516,516,516,516,516,516,516,516,516,516,516,516,516,516,516,516,516,516,516,516,516,516,516,516,516,516,516,516,516,516,507,479,466,462,462,462,462,462,462,462,462,462,462,462,462,462,462,462,462,462,462,453,433,391,267,180,99],"timestamp_mouse":[6,26,46,67,87,108,126,146,167,187,207,227,247,267,288,307,326,348,368,387,407,427,446,468,487,508,527,547,567,586,607,627,647,667,687,707,727,747,768,786,807,827,846,867,888,908,927,947,968,986,1006,1027,1047,1066,1086,1107,1127,1147,1167,1186,1208,1227,1247,1268,1288,1308,1326,1348,1367,1387,1407,1427,1446,1468,1487,1507,1526,1547,1567,1587,1607,1627,1647,1667,1687,1707,1726,1747,1768,1787,1807,1826,1846,1866,1888,1907,1928,1947,1966,1986,2007,2027],"xSR":741.5,"ySR":469.95,"xT1":424.9,"yT1":0,"xT2":1058.1,"yT2":0,"toosoon":0,"cond_shown":"Congruent","ratio_trial":100,"L_num":8,"L_den":16,"R_num":2,"R_den":5,"correct_side":1,"subjID":"NicolásGonzalezGarcía20","gender":"0","school":"6","age":"12"},{"start_time":1551794058241,"click_time":1551794059675,"finger_time":1551794059436,"fix_duration":866.3820482077658,"trial":23,"RT":1195,"MT":239,"sideResp":1,"stimulus":[],"xmouse":[825,825,825,825,824,822,820,819,819,819,819,818,818,817,816,815,814,814,814,814,814,814,814,814,814,814,814,814,814,814,814,814,814,814,814,814,814,814,814,814,814,814,814,814,814,814,814,814,814,814,814,814,814,814,814,814,814,812,797,776,689,656,567,529,522,528,533,533,532,523,500,462],"ymouse":[508,506,506,506,502,499,497,495,495,495,494,494,494,494,495,496,500,502,502,503,503,503,503,503,503,503,503,503,503,503,503,503,503,503,503,503,503,503,503,503,503,503,503,503,503,503,503,503,503,503,503,503,503,503,503,503,503,503,487,467,406,382,297,249,201,189,182,179,172,159,127,90],"timestamp_mouse":[14,33,54,75,95,114,134,154,174,194,213,234,254,274,293,314,335,353,373,394,414,435,453,475,494,515,534,553,573,595,614,633,654,675,694,715,734,754,774,794,815,833,853,874,895,913,935,953,974,994,1014,1034,1054,1074,1093,1114,1135,1154,1174,1195,1215,1233,1254,1274,1294,1313,1334,1354,1374,1394,1413,1433],"xSR":741.5,"ySR":469.95,"xT1":424.9,"yT1":0,"xT2":1058.1,"yT2":0,"toosoon":0,"cond_shown":"Congruent","ratio_trial":200,"L_num":15,"L_den":25,"R_num":4,"R_den":10,"correct_side":1,"subjID":"NicolásGonzalezGarcía20","gender":"0","school":"6","age":"12"},{"start_time":1551794062316,"click_time":1551794063635,"finger_time":1551794062615,"fix_duration":479.53442810392323,"trial":24,"RT":299,"MT":1020,"sideResp":1,"stimulus":[],"xmouse":[799,799,799,799,799,799,799,799,799,799,799,799,793,785,740,737,737,737,737,737,737,737,737,737,737,737,737,737,737,744,748,756,764,772,775,776,776,776,778,779,779,779,779,779,779,779,779,779,779,779,779,779,779,779,779,779,775,774,754,677,636,600,566,524,465,457],"ymouse":[509,509,509,509,509,509,509,509,509,509,509,509,508,506,488,486,486,486,486,486,486,486,486,486,486,486,486,486,486,486,488,492,497,501,503,503,503,503,503,503,503,503,503,503,503,503,503,503,503,503,503,503,503,503,503,503,503,503,494,444,415,377,327,263,123,66],"timestamp_mouse":[18,39,58,78,100,120,138,159,179,198,220,239,259,279,299,319,340,359,379,400,419,439,459,479,499,518,540,559,578,599,619,639,659,679,699,720,738,759,780,799,818,838,859,879,899,918,938,959,979,999,1020,1040,1058,1078,1100,1118,1138,1159,1180,1199,1219,1238,1259,1280,1298,1319],"xSR":741.5,"ySR":469.95,"xT1":424.9,"yT1":0,"xT2":1058.1,"yT2":0,"toosoon":0,"cond_shown":"Incongruent","ratio_trial":200,"L_num":4,"L_den":5,"R_num":6,"R_den":10,"correct_side":1,"subjID":"NicolásGonzalezGarcía20","gender":"0","school":"6","age":"12"},{"start_time":1551794065778,"click_time":1551794067596,"finger_time":1551794066335,"fix_duration":1161.2845109367156,"trial":25,"RT":557,"MT":1261,"sideResp":1,"stimulus":[],"xmouse":[811,811,811,811,809,808,806,806,806,806,806,806,806,806,806,806,806,806,806,804,803,793,788,776,771,770,753,709,655,623,616,616,616,616,616,616,617,620,622,626,632,668,693,717,738,745,748,755,762,769,772,773,773,773,773,773,773,773,773,773,773,773,773,773,773,773,773,773,773,773,773,773,771,766,757,741,694,657,648,642,639,628,611,597,594,592,583,576,558,522,487],"ymouse":[524,524,524,524,523,523,522,521,521,521,521,521,521,521,521,521,521,521,521,521,521,515,513,509,508,508,504,494,478,469,467,467,467,467,467,467,467,467,468,468,470,475,480,484,489,491,492,495,498,502,503,503,503,503,503,503,503,503,503,503,503,503,503,503,503,503,503,503,503,503,503,503,497,479,451,411,319,242,221,207,201,180,161,144,139,136,129,126,122,112,97],"timestamp_mouse":[18,38,57,76,97,117,138,158,177,196,217,237,257,276,297,316,336,356,377,398,417,437,457,477,497,518,537,557,576,596,617,637,656,678,697,717,737,758,777,796,817,836,857,877,897,917,937,957,978,998,1018,1036,1056,1078,1096,1116,1138,1157,1178,1198,1216,1236,1258,1277,1296,1317,1337,1357,1377,1396,1418,1437,1457,1477,1496,1516,1536,1557,1576,1597,1616,1637,1657,1676,1697,1718,1737,1756,1777,1796,1818],"xSR":741.5,"ySR":469.95,"xT1":424.9,"yT1":0,"xT2":1058.1,"yT2":0,"toosoon":0,"cond_shown":"Incongruent","ratio_trial":200,"L_num":11,"L_den":20,"R_num":3,"R_den":4,"correct_side":2,"subjID":"NicolásGonzalezGarcía20","gender":"0","school":"6","age":"12"},{"start_time":1551794068666,"click_time":1551794070154,"finger_time":1551794069994,"fix_duration":250,"trial":26,"RT":1328,"MT":160,"sideResp":2,"stimulus":[],"xmouse":[807,807,807,807,807,807,805,800,794,786,768,759,758,758,758,758,758,758,758,758,758,758,758,758,758,758,758,758,758,758,758,758,758,758,758,758,758,758,758,758,758,758,758,758,758,758,758,758,758,758,758,758,758,758,758,758,758,758,758,758,758,758,758,778,800,815,836,895,910,920,942,976,1028,1051,1068],"ymouse":[536,536,536,536,536,536,533,526,519,510,496,493,492,492,492,492,492,492,492,492,492,492,492,492,492,492,492,492,492,492,492,492,492,492,492,492,492,492,492,492,492,492,492,492,492,492,492,492,492,492,492,492,492,492,492,492,492,492,492,492,492,492,492,489,482,471,451,377,354,331,275,189,111,99,92],"timestamp_mouse":[9,30,49,68,89,109,129,149,169,189,209,229,250,268,289,309,328,348,369,390,410,428,449,469,488,510,529,550,570,590,608,630,649,670,689,710,729,748,770,788,809,829,849,868,890,910,928,949,968,989,1009,1030,1049,1068,1089,1110,1130,1148,1169,1190,1209,1230,1248,1269,1289,1309,1328,1349,1370,1390,1410,1428,1448,1470,1488],"xSR":741.5,"ySR":469.95,"xT1":424.9,"yT1":0,"xT2":1058.1,"yT2":0,"toosoon":0,"cond_shown":"Incongruent","ratio_trial":300,"L_num":4,"L_den":20,"R_num":2,"R_den":4,"correct_side":2,"subjID":"NicolásGonzalezGarcía20","gender":"0","school":"6","age":"12"},{"start_time":1551794071392,"click_time":1551794073056,"finger_time":1551794072715,"fix_duration":516.3913129644366,"trial":27,"RT":1323,"MT":341,"sideResp":2,"stimulus":[],"xmouse":[758,758,758,758,758,758,758,758,758,758,758,758,758,758,758,758,758,758,758,758,758,758,758,758,758,758,758,758,758,758,758,759,761,763,764,764,764,764,764,764,763,760,759,758,758,758,758,758,758,758,758,758,758,758,758,758,758,758,758,758,758,758,758,758,758,762,779,820,891,961,1029,1089,1212,1262,1285,1295,1298,1297,1290,1285,1271,1200,1165,1133],"ymouse":[504,504,504,503,503,503,503,503,503,503,503,503,503,503,503,503,503,503,503,503,503,503,503,503,503,503,503,503,503,503,503,500,487,483,482,482,482,482,482,482,482,484,486,487,488,489,489,489,489,489,489,489,489,489,489,489,489,489,489,489,489,489,489,489,489,487,468,418,353,295,247,214,189,186,183,178,176,174,168,164,152,113,97,80],"timestamp_mouse":[6,23,45,63,84,104,124,144,164,183,203,224,243,265,284,303,324,345,363,384,403,424,443,463,483,504,523,543,563,583,604,624,644,664,684,703,723,743,765,783,803,824,844,863,884,905,924,944,963,983,1004,1023,1044,1064,1084,1104,1124,1143,1163,1185,1204,1224,1244,1264,1285,1303,1323,1344,1363,1383,1403,1423,1445,1463,1483,1503,1524,1544,1563,1583,1604,1623,1643,1664],"xSR":741.5,"ySR":469.95,"xT1":424.9,"yT1":0,"xT2":1058.1,"yT2":0,"toosoon":0,"cond_shown":"Congruent","ratio_trial":200,"L_num":5,"L_den":10,"R_num":14,"R_den":20,"correct_side":2,"subjID":"NicolásGonzalezGarcía20","gender":"0","school":"6","age":"12"},{"start_time":1551794074814,"click_time":1551794076356,"finger_time":1551794076115,"fix_duration":938.1853815521193,"trial":28,"RT":1301,"MT":241,"sideResp":1,"stimulus":[],"xmouse":[794,794,794,794,794,794,794,794,794,794,794,794,794,794,794,794,794,794,794,794,794,794,794,794,794,794,794,794,794,794,794,794,794,794,794,794,794,794,794,794,794,794,794,794,794,794,794,794,794,794,794,794,794,794,794,794,794,794,794,794,794,794,794,794,793,785,776,753,714,686,649,620,597,588,586,576,556,517],"ymouse":[509,509,509,509,509,509,509,509,509,509,509,509,509,509,509,509,509,509,509,509,509,509,509,509,509,509,509,509,509,509,509,509,509,509,509,509,509,509,509,509,509,509,509,509,509,509,509,509,509,509,509,509,509,509,509,509,509,509,509,509,509,509,509,504,499,449,399,313,239,199,150,128,116,112,111,94,77,61],"timestamp_mouse":[4,21,42,61,81,101,123,141,161,183,201,222,242,262,281,302,322,343,362,381,402,421,441,461,483,501,523,542,561,581,602,622,642,661,681,701,722,743,761,781,801,823,841,863,881,902,922,941,961,981,1002,1021,1042,1062,1081,1102,1121,1141,1162,1182,1201,1221,1241,1261,1282,1301,1322,1342,1362,1381,1401,1423,1442,1462,1482,1502,1521,1542],"xSR":741.5,"ySR":469.95,"xT1":424.9,"yT1":0,"xT2":1058.1,"yT2":0,"toosoon":0,"cond_shown":"Incongruent","ratio_trial":200,"L_num":1,"L_den":2,"R_num":3,"R_den":10,"correct_side":1,"subjID":"NicolásGonzalezGarcía20","gender":"0","school":"6","age":"12"},{"start_time":1551794077769,"click_time":1551794080316,"finger_time":1551794079456,"fix_duration":250,"trial":29,"RT":1687,"MT":860,"sideResp":1,"stimulus":[],"xmouse":[838,838,837,827,797,774,762,761,761,765,767,768,768,768,768,768,768,768,768,768,768,768,768,768,768,768,768,768,768,768,768,768,768,767,767,762,759,757,757,757,757,757,757,757,757,757,757,757,757,757,757,757,757,757,757,757,757,757,757,757,757,757,757,757,757,757,757,751,752,753,753,753,753,753,753,753,753,753,753,753,753,753,753,753,752,744,740,736,736,736,736,736,736,736,735,726,722,689,676,666,660,657,652,646,635,625,620,610,603,600,598,594,590,586,585,585,585,584,582,580,579,578,574,570,569,563,552,461],"ymouse":[522,522,522,522,522,522,519,518,517,516,515,515,515,515,515,515,515,515,515,515,515,515,515,515,515,515,515,515,515,514,514,514,514,513,513,512,512,510,510,510,510,510,510,510,510,510,510,510,510,510,510,510,510,510,510,510,510,510,510,510,510,510,510,510,510,509,505,481,475,475,475,475,475,475,475,475,475,475,475,475,475,475,475,470,457,438,431,422,422,417,414,410,404,397,383,357,346,286,268,251,239,231,221,206,188,171,161,145,136,133,130,126,123,118,117,117,117,116,114,111,110,109,103,100,98,93,86,40],"timestamp_mouse":[6,27,46,66,87,107,126,147,168,186,206,227,246,266,286,306,327,347,366,388,408,426,448,467,486,506,526,546,566,587,607,626,646,666,688,707,727,747,767,787,806,827,846,866,887,906,926,946,968,988,1006,1026,1047,1067,1086,1106,1127,1147,1166,1187,1207,1226,1246,1267,1286,1306,1326,1347,1367,1386,1406,1427,1446,1467,1488,1507,1526,1547,1567,1586,1608,1626,1647,1667,1687,1706,1726,1746,1766,1786,1806,1826,1847,1866,1886,1906,1927,1947,1968,1987,2006,2026,2046,2067,2087,2107,2127,2147,2166,2186,2206,2226,2246,2266,2286,2307,2327,2347,2366,2387,2406,2426,2446,2467,2486,2506,2528,2547],"xSR":741.5,"ySR":469.95,"xT1":424.9,"yT1":0,"xT2":1058.1,"yT2":0,"toosoon":0,"cond_shown":"Incongruent","ratio_trial":100,"L_num":10,"L_den":25,"R_num":9,"R_den":18,"correct_side":2,"subjID":"NicolásGonzalezGarcía20","gender":"0","school":"6","age":"12"},{"start_time":1551794083291,"click_time":1551794085016,"finger_time":1551794084616,"fix_duration":393.6974355427717,"trial":30,"RT":1325,"MT":400,"sideResp":2,"stimulus":[],"xmouse":[816,816,816,816,816,816,816,816,816,816,816,816,816,816,816,816,816,816,816,816,816,816,816,816,816,816,816,816,816,816,816,816,816,816,816,816,816,816,816,816,816,816,816,816,816,816,816,816,816,816,816,816,816,816,816,816,816,816,816,816,816,816,816,816,818,822,857,893,916,932,947,991,1012,1034,1054,1086,1111,1111,1111,1111,1111,1118,1121,1124,1125,1126,1122],"ymouse":[544,544,544,544,544,544,544,544,544,544,544,544,544,544,544,544,544,544,544,544,544,544,544,544,544,544,544,544,544,544,544,544,544,544,544,544,544,544,544,544,544,544,544,544,544,544,544,544,544,544,544,544,544,544,544,544,544,544,544,544,544,544,544,544,526,518,470,432,405,388,373,331,311,283,254,208,175,171,169,169,167,156,147,136,125,115,95],"timestamp_mouse":[5,25,44,64,86,105,124,144,165,186,204,224,245,265,285,304,324,345,365,385,405,425,444,464,484,504,526,545,564,585,604,625,644,666,684,704,724,746,764,785,805,824,845,864,884,904,926,945,966,984,1004,1025,1045,1065,1084,1104,1124,1145,1164,1184,1204,1226,1244,1264,1284,1305,1325,1345,1364,1384,1404,1425,1444,1465,1484,1504,1524,1545,1564,1585,1604,1624,1644,1664,1684,1704,1724],"xSR":741.5,"ySR":469.95,"xT1":424.9,"yT1":0,"xT2":1058.1,"yT2":0,"toosoon":0,"cond_shown":"Incongruent","ratio_trial":100,"L_num":13,"L_den":26,"R_num":6,"R_den":10,"correct_side":2,"subjID":"NicolásGonzalezGarcía20","gender":"0","school":"6","age":"12"},{"start_time":1551794088617,"click_time":1551794089815,"finger_time":1551794089316,"fix_duration":1418.9631661539704,"trial":31,"RT":699,"MT":499,"sideResp":2,"stimulus":[],"xmouse":[823,823,823,823,823,823,823,823,823,823,823,823,823,823,823,823,823,823,823,823,823,823,823,823,823,823,823,823,823,823,823,823,823,831,837,897,923,954,999,1066,1141,1230,1233,1231,1220,1205,1204,1204,1204,1204,1199,1155,1131,1125,1117,1117,1123,1127,1128,1128,1128],"ymouse":[532,532,532,532,532,532,532,532,532,532,532,532,532,532,532,532,532,532,532,532,532,532,532,532,532,532,532,532,532,532,532,532,532,524,518,482,466,449,431,405,385,350,334,305,273,228,223,220,220,219,214,195,181,176,167,163,149,139,122,106,61],"timestamp_mouse":[1,19,38,59,78,99,118,139,158,179,198,220,238,258,279,299,320,338,358,380,399,418,439,459,479,499,518,538,558,578,598,618,639,658,678,699,718,738,758,778,798,818,838,858,879,898,918,939,960,978,998,1018,1038,1058,1078,1098,1118,1138,1158,1178,1198],"xSR":741.5,"ySR":469.95,"xT1":424.9,"yT1":0,"xT2":1058.1,"yT2":0,"toosoon":0,"cond_shown":"Congruent","ratio_trial":100,"L_num":7,"L_den":14,"R_num":9,"R_den":15,"correct_side":2,"subjID":"NicolásGonzalezGarcía20","gender":"0","school":"6","age":"12"},{"start_time":1551794091056,"click_time":1551794092536,"finger_time":1551794092355,"fix_duration":459.941469703655,"trial":32,"RT":1299,"MT":181,"sideResp":1,"stimulus":[],"xmouse":[798,798,798,798,798,798,798,798,798,798,798,798,798,798,798,798,798,798,798,798,798,798,798,798,798,798,798,798,798,798,798,798,798,798,798,798,798,798,798,798,798,798,798,798,798,798,798,798,796,791,787,787,786,784,784,782,780,778,777,777,777,777,777,776,768,746,697,601,391,357,356,357,370,405,435],"ymouse":[515,515,515,515,515,515,515,515,515,515,515,515,515,515,515,515,515,515,515,515,515,515,515,515,515,515,515,515,515,515,515,515,515,515,515,515,515,515,515,515,515,515,515,515,515,515,515,515,515,513,510,510,510,509,509,508,507,507,506,506,506,506,506,505,496,466,400,290,77,43,39,38,37,34,22],"timestamp_mouse":[0,20,39,59,79,101,120,140,161,179,200,221,239,259,280,300,320,340,359,379,400,421,440,459,479,500,521,541,560,580,600,621,639,660,681,699,719,739,761,781,799,819,840,859,879,901,920,939,959,980,1000,1020,1039,1060,1079,1100,1119,1139,1161,1180,1199,1220,1240,1260,1280,1299,1320,1340,1359,1380,1399,1419,1439,1459,1480],"xSR":741.5,"ySR":469.95,"xT1":424.9,"yT1":0,"xT2":1058.1,"yT2":0,"toosoon":0,"cond_shown":"Congruent","ratio_trial":200,"L_num":12,"L_den":15,"R_num":6,"R_den":10,"correct_side":1,"subjID":"NicolásGonzalezGarcía20","gender":"0","school":"6","age":"12"},{"start_time":1551794095367,"click_time":1551794096475,"finger_time":1551794096297,"fix_duration":250,"trial":33,"RT":930,"MT":178,"sideResp":2,"stimulus":[],"xmouse":[823,823,823,823,823,823,823,823,823,823,823,823,823,823,823,823,823,823,823,823,823,823,823,823,823,823,823,823,823,823,823,823,823,823,823,823,823,823,823,823,823,823,823,823,823,827,855,900,912,917,926,937,958,1019,1053,1085],"ymouse":[537,537,537,537,537,537,537,537,537,537,537,537,537,537,537,537,537,537,537,537,537,537,537,537,537,537,537,537,537,537,537,537,537,537,537,537,537,537,537,537,537,537,537,537,535,528,510,475,461,451,431,404,353,190,144,99],"timestamp_mouse":[8,28,49,68,90,109,128,148,168,188,208,229,249,269,290,308,328,349,368,389,410,428,448,469,490,508,528,549,570,588,608,628,648,668,688,708,728,748,768,788,808,828,848,868,888,910,930,948,968,989,1008,1029,1048,1068,1089,1108],"xSR":741.5,"ySR":469.95,"xT1":424.9,"yT1":0,"xT2":1058.1,"yT2":0,"toosoon":0,"cond_shown":"Congruent","ratio_trial":200,"L_num":4,"L_den":10,"R_num":3,"R_den":15,"correct_side":1,"subjID":"NicolásGonzalezGarcía20","gender":"0","school":"6","age":"12"},{"start_time":1551794098334,"click_time":1551794100155,"finger_time":1551794099696,"fix_duration":977.9662659151684,"trial":34,"RT":1362,"MT":459,"sideResp":2,"stimulus":[],"xmouse":[768,768,768,768,768,768,768,768,768,768,768,768,768,768,768,768,768,768,768,768,768,768,768,768,768,768,768,768,768,768,768,768,768,768,768,768,768,768,768,768,768,768,768,768,768,768,768,768,768,768,768,768,768,768,768,768,768,768,768,768,768,768,768,768,773,787,805,819,826,862,942,1057,1190,1326,1448,1452,1452,1452,1452,1452,1437,1405,1343,1292,1253,1240,1232,1228,1222,1192,1174,1153],"ymouse":[513,513,513,513,513,513,513,513,513,513,513,513,513,513,513,513,513,513,513,513,513,513,513,513,513,513,513,513,513,513,513,513,513,513,513,513,513,513,513,513,513,513,513,513,513,513,513,513,513,513,513,513,513,513,513,513,513,513,513,513,513,513,513,513,513,502,490,471,455,404,340,271,205,129,76,75,75,75,75,74,69,56,40,17,9,10,12,15,17,27,31,38],"timestamp_mouse":[4,23,41,61,81,102,122,141,162,181,202,221,243,262,282,301,321,341,361,381,401,421,441,461,481,502,521,541,562,582,601,622,641,662,682,701,721,742,761,781,801,822,841,861,882,902,921,943,961,982,1001,1021,1042,1062,1082,1102,1123,1142,1162,1182,1202,1221,1241,1263,1282,1302,1321,1341,1362,1382,1401,1421,1442,1461,1481,1502,1522,1541,1562,1581,1601,1621,1642,1662,1681,1701,1721,1742,1761,1782,1802,1821],"xSR":741.5,"ySR":469.95,"xT1":424.9,"yT1":0,"xT2":1058.1,"yT2":0,"toosoon":0,"cond_shown":"Incongruent","ratio_trial":200,"L_num":3,"L_den":10,"R_num":1,"R_den":2,"correct_side":2,"subjID":"NicolásGonzalezGarcía20","gender":"0","school":"6","age":"12"},{"start_time":1551794101635,"click_time":1551794103336,"finger_time":1551794103016,"fix_duration":359.7996745189382,"trial":35,"RT":1381,"MT":320,"sideResp":2,"stimulus":[],"xmouse":[796,796,796,796,796,796,796,797,797,797,797,797,797,797,797,797,797,797,797,797,797,797,797,797,797,797,797,797,797,797,797,797,797,797,797,797,797,797,797,797,797,797,797,797,797,797,797,797,797,797,797,797,797,797,797,797,797,797,797,797,797,797,797,797,797,797,797,803,816,874,934,1000,1157,1193,1262,1265,1265,1264,1262,1261,1246,1216,1188,1170,1161,1158],"ymouse":[519,519,519,519,519,519,519,519,517,515,514,513,513,513,513,513,513,513,513,513,513,513,513,513,513,513,513,513,513,513,513,513,513,513,513,513,513,513,513,513,513,513,513,513,513,513,513,513,513,513,513,513,513,513,513,513,513,513,513,513,513,513,513,513,513,513,508,501,487,450,432,400,264,231,150,133,121,114,110,109,102,88,74,66,65,69],"timestamp_mouse":[3,21,41,60,80,101,120,140,160,180,201,222,241,260,281,300,321,340,361,380,400,422,440,460,482,500,521,541,560,580,601,620,641,660,681,701,720,742,761,781,800,821,840,860,880,901,922,940,961,981,1001,1022,1041,1060,1080,1100,1120,1141,1160,1180,1202,1220,1241,1260,1281,1300,1321,1341,1362,1381,1400,1421,1440,1460,1480,1500,1520,1540,1560,1580,1600,1621,1640,1660,1681,1701],"xSR":741.5,"ySR":469.95,"xT1":424.9,"yT1":0,"xT2":1058.1,"yT2":0,"toosoon":0,"cond_shown":"Congruent","ratio_trial":100,"L_num":6,"L_den":12,"R_num":15,"R_den":25,"correct_side":2,"subjID":"NicolásGonzalezGarcía20","gender":"0","school":"6","age":"12"},{"start_time":1551794104894,"click_time":1551794106715,"finger_time":1551794106316,"fix_duration":438.9738711198434,"trial":36,"RT":1422,"MT":399,"sideResp":1,"stimulus":[],"xmouse":[829,829,829,829,829,829,829,829,829,829,829,829,829,829,829,829,829,829,829,829,829,829,829,829,829,829,829,829,829,829,829,829,829,829,829,829,829,829,829,829,829,829,829,828,824,820,805,801,795,794,794,794,794,794,794,794,794,794,794,794,794,794,794,794,797,799,799,797,794,790,777,727,712,701,696,693,681,670,655,631,599,573,564,558,556,556,556,550,540,528,519,509],"ymouse":[539,539,539,539,539,539,539,539,539,539,539,539,539,539,539,539,539,539,539,539,539,539,539,539,539,539,539,539,539,539,539,539,539,539,539,539,539,539,539,539,539,539,539,538,538,537,536,535,535,535,535,535,535,535,535,535,535,535,535,535,535,535,535,535,544,550,552,553,553,552,532,418,381,355,340,328,296,281,259,229,196,174,167,161,159,158,158,147,133,118,106,90],"timestamp_mouse":[4,24,43,61,81,102,122,141,161,182,201,221,242,261,282,302,322,342,362,383,401,421,442,462,481,501,521,541,561,581,601,621,642,661,681,701,722,742,762,782,802,821,842,861,881,901,922,942,961,983,1001,1022,1041,1061,1082,1101,1121,1142,1163,1181,1202,1222,1241,1261,1282,1302,1322,1341,1361,1382,1401,1422,1441,1461,1481,1501,1521,1542,1562,1583,1601,1621,1641,1661,1681,1701,1721,1741,1761,1781,1801,1821],"xSR":741.5,"ySR":469.95,"xT1":424.9,"yT1":0,"xT2":1058.1,"yT2":0,"toosoon":0,"cond_shown":"Congruent","ratio_trial":200,"L_num":8,"L_den":15,"R_num":7,"R_den":21,"correct_side":1,"subjID":"NicolásGonzalezGarcía20","gender":"0","school":"6","age":"12"},{"start_time":1551794108385,"click_time":1551794110116,"finger_time":1551794109855,"fix_duration":1088.1020675274813,"trial":37,"RT":1470,"MT":261,"sideResp":2,"stimulus":[],"xmouse":[792,792,792,792,792,792,792,792,792,792,792,792,792,792,792,792,792,792,792,792,792,792,792,792,792,792,792,792,792,792,792,792,792,792,792,792,792,792,792,792,792,792,792,792,792,792,792,792,792,792,792,792,792,792,792,792,792,792,792,792,792,792,792,792,792,792,792,792,792,792,794,810,829,867,954,990,1157,1197,1221,1235,1243,1251,1263,1265,1261,1234,1068],"ymouse":[529,529,529,529,529,529,529,529,529,529,529,529,529,529,529,529,529,529,529,529,529,529,529,529,529,529,529,529,529,529,529,529,529,529,529,529,529,529,529,529,529,529,529,529,529,529,529,529,529,529,529,529,529,529,529,529,529,529,529,529,529,529,529,529,529,529,529,529,529,529,527,513,500,472,399,371,261,239,228,220,214,200,165,150,130,105,28],"timestamp_mouse":[11,31,50,70,90,111,131,151,170,190,211,232,250,270,291,311,331,351,370,392,410,430,450,470,490,510,530,551,571,591,610,631,650,670,691,711,730,752,770,791,810,830,852,870,891,910,931,951,971,990,1010,1031,1052,1070,1090,1110,1130,1150,1172,1190,1212,1230,1251,1270,1291,1310,1332,1351,1370,1391,1411,1431,1450,1470,1490,1510,1530,1550,1571,1590,1611,1630,1651,1670,1690,1710,1730],"xSR":741.5,"ySR":469.95,"xT1":424.9,"yT1":0,"xT2":1058.1,"yT2":0,"toosoon":0,"cond_shown":"Congruent","ratio_trial":300,"L_num":1,"L_den":5,"R_num":3,"R_den":6,"correct_side":2,"subjID":"NicolásGonzalezGarcía20","gender":"0","school":"6","age":"12"},{"start_time":1551794112127,"click_time":1551794113336,"finger_time":1551794112855,"fix_duration":1150.2553609388763,"trial":38,"RT":728,"MT":481,"sideResp":2,"stimulus":[],"xmouse":[762,762,762,762,762,762,762,762,762,762,762,762,762,762,762,762,762,762,762,762,762,762,762,762,762,762,762,762,762,762,762,762,762,762,762,766,770,782,792,814,849,868,894,946,998,999,999,999,1001,1003,1011,1029,1048,1070,1098,1100,1102,1104,1106,1111,1116],"ymouse":[486,486,486,486,486,486,486,486,486,486,486,486,486,486,486,486,486,486,486,486,486,486,486,486,486,486,486,486,486,486,486,486,486,486,486,475,466,444,426,394,354,333,310,262,181,175,174,168,164,161,157,152,141,128,109,108,106,106,105,103,99],"timestamp_mouse":[9,29,48,68,89,109,129,148,169,188,208,228,249,269,289,309,329,348,369,388,408,428,448,468,488,509,529,548,568,588,609,629,650,668,688,708,728,748,768,788,808,828,848,868,888,909,929,949,968,988,1008,1028,1048,1068,1088,1109,1129,1149,1168,1188,1209],"xSR":741.5,"ySR":469.95,"xT1":424.9,"yT1":0,"xT2":1058.1,"yT2":0,"toosoon":0,"cond_shown":"Incongruent","ratio_trial":100,"L_num":9,"L_den":15,"R_num":14,"R_den":28,"correct_side":1,"subjID":"NicolásGonzalezGarcía20","gender":"0","school":"6","age":"12"},{"start_time":1551794115927,"click_time":1551794117196,"finger_time":1551794116795,"fix_duration":250,"trial":39,"RT":868,"MT":401,"sideResp":2,"stimulus":[],"xmouse":[804,804,804,804,804,804,804,804,804,804,804,804,804,804,804,804,804,804,804,804,804,804,804,804,804,804,804,804,804,804,804,804,804,804,804,804,804,804,804,804,806,813,820,828,845,856,864,870,882,926,970,1035,1081,1118,1175,1185,1189,1191,1191,1191,1191,1188,1172,1154],"ymouse":[509,509,509,509,509,509,509,509,509,509,509,509,509,509,509,509,509,509,509,509,509,509,509,509,509,509,509,509,509,509,509,509,509,509,509,509,509,509,509,509,507,496,483,468,437,420,404,394,380,340,302,246,207,169,106,92,83,78,76,76,76,73,67,62],"timestamp_mouse":[11,29,49,70,89,108,129,149,169,188,209,229,249,269,288,308,329,348,369,388,409,428,448,469,489,508,529,548,569,589,609,629,648,668,688,708,730,749,768,790,808,828,848,868,888,908,929,948,968,988,1008,1029,1048,1069,1089,1109,1128,1148,1169,1189,1209,1228,1248,1269],"xSR":741.5,"ySR":469.95,"xT1":424.9,"yT1":0,"xT2":1058.1,"yT2":0,"toosoon":0,"cond_shown":"Incongruent","ratio_trial":200,"L_num":14,"L_den":30,"R_num":6,"R_den":9,"correct_side":2,"subjID":"NicolásGonzalezGarcía20","gender":"0","school":"6","age":"12"},{"start_time":1551794118608,"click_time":1551794120076,"finger_time":1551794119616,"fix_duration":412.2250190540937,"trial":40,"RT":1008,"MT":460,"sideResp":1,"stimulus":[],"xmouse":[788,788,788,788,788,788,788,788,788,788,788,788,788,788,788,788,785,784,782,782,779,771,767,766,765,765,765,765,765,765,765,765,765,765,765,764,764,764,764,764,764,764,763,760,753,752,750,749,748,747,740,728,695,678,635,550,543,543,544,550,560,565,567,568,569,569,566,560,546,529,504,493,486,485],"ymouse":[510,510,510,510,510,510,510,510,510,510,510,510,510,510,510,510,510,510,510,510,510,511,511,511,511,511,511,511,511,511,511,511,511,511,511,511,511,511,511,511,511,511,511,511,511,511,511,511,511,511,508,496,461,446,410,316,295,277,260,246,230,222,214,209,200,188,179,166,151,138,120,111,103,98],"timestamp_mouse":[12,27,47,67,88,107,127,148,168,187,208,229,247,268,287,309,327,347,368,388,408,429,449,467,487,509,528,547,568,588,608,627,648,667,688,707,728,748,769,787,807,827,849,869,887,909,927,947,967,988,1008,1027,1047,1068,1087,1107,1128,1148,1169,1188,1207,1228,1249,1268,1288,1308,1327,1347,1368,1387,1407,1427,1448,1468],"xSR":741.5,"ySR":469.95,"xT1":424.9,"yT1":0,"xT2":1058.1,"yT2":0,"toosoon":0,"cond_shown":"Incongruent","ratio_trial":200,"L_num":4,"L_den":5,"R_num":6,"R_den":10,"correct_side":1,"subjID":"NicolásGonzalezGarcía20","gender":"0","school":"6","age":"12"},{"start_time":1551794121929,"click_time":1551794123856,"finger_time":1551794123516,"fix_duration":933.986841773527,"trial":41,"RT":1587,"MT":340,"sideResp":1,"stimulus":[],"xmouse":[779,779,779,779,779,779,779,779,779,779,779,779,779,779,779,779,779,779,779,779,779,779,779,779,779,779,779,777,777,777,777,777,777,777,777,777,777,777,777,777,777,777,777,777,777,777,777,777,777,777,777,777,776,777,786,788,788,788,788,788,788,788,788,788,789,802,822,832,833,833,833,833,825,822,821,821,821,820,817,721,620,526,448,404,404,404,404,404,404,404,404,404,404,404,404,404,510],"ymouse":[520,520,520,520,520,520,520,520,520,520,520,520,520,520,520,520,520,520,520,520,520,520,520,520,520,520,520,520,520,520,520,520,520,520,520,520,520,520,520,520,520,520,520,520,520,520,520,520,520,520,520,520,520,518,514,513,513,513,513,513,513,513,513,513,513,506,495,491,491,491,491,491,491,491,491,491,491,490,488,397,323,237,141,38,38,38,38,38,38,38,38,38,38,38,38,38,12],"timestamp_mouse":[7,26,46,67,86,106,126,147,166,186,206,227,247,267,287,307,327,348,366,386,407,427,446,468,487,507,527,547,567,586,607,627,646,667,686,706,726,746,767,786,807,827,847,866,887,908,926,946,967,987,1006,1027,1047,1066,1086,1106,1126,1147,1166,1187,1207,1228,1247,1266,1286,1306,1328,1346,1366,1387,1408,1426,1446,1466,1486,1508,1526,1546,1566,1587,1606,1626,1646,1666,1687,1706,1727,1746,1766,1787,1807,1827,1847,1866,1887,1906,1927],"xSR":741.5,"ySR":469.95,"xT1":424.9,"yT1":0,"xT2":1058.1,"yT2":0,"toosoon":0,"cond_shown":"Congruent","ratio_trial":200,"L_num":5,"L_den":10,"R_num":14,"R_den":20,"correct_side":2,"subjID":"NicolásGonzalezGarcía20","gender":"0","school":"6","age":"12"},{"start_time":1551794127953,"click_time":1551794129615,"finger_time":1551794129175,"fix_duration":836.3433308663991,"trial":42,"RT":1222,"MT":440,"sideResp":2,"stimulus":[],"xmouse":[822,822,822,823,823,823,823,823,823,817,813,808,808,809,811,811,811,811,811,811,811,811,811,810,810,810,810,809,809,808,808,808,808,807,806,805,805,805,805,806,810,812,815,816,816,816,816,816,816,816,823,824,826,826,826,826,826,826,827,827,827,834,859,891,933,953,975,987,1005,1028,1063,1086,1090,1090,1090,1091,1093,1097,1100,1100,1100,1097,1085,1066],"ymouse":[512,512,512,511,511,511,511,511,511,509,507,503,501,499,497,496,495,495,494,494,493,493,493,493,493,493,493,493,493,493,493,493,492,488,486,485,485,485,485,485,485,485,485,485,485,485,485,485,485,485,480,479,478,478,478,477,477,477,477,477,476,469,456,432,389,360,318,290,260,242,211,188,178,172,170,170,168,158,140,131,125,119,108,92],"timestamp_mouse":[6,23,43,63,83,102,123,144,162,182,202,222,242,262,284,303,323,343,363,382,403,423,444,462,482,502,522,542,564,582,602,622,643,662,682,702,723,743,763,782,802,822,842,862,883,902,924,943,962,982,1003,1022,1042,1064,1083,1104,1122,1143,1163,1182,1202,1222,1242,1262,1283,1302,1322,1342,1362,1382,1402,1422,1442,1462,1482,1502,1523,1542,1563,1583,1603,1622,1643,1662],"xSR":741.5,"ySR":469.95,"xT1":424.9,"yT1":0,"xT2":1058.1,"yT2":0,"toosoon":0,"cond_shown":"Congruent","ratio_trial":100,"L_num":10,"L_den":25,"R_num":3,"R_den":10,"correct_side":1,"subjID":"NicolásGonzalezGarcía20","gender":"0","school":"6","age":"12"},{"start_time":1551794131301,"click_time":1551794133316,"finger_time":1551794132896,"fix_duration":765.8187710207853,"trial":43,"RT":1595,"MT":420,"sideResp":2,"stimulus":[],"xmouse":[781,779,778,778,778,778,778,778,778,778,778,778,778,778,778,778,778,778,778,778,778,778,778,778,778,778,778,778,777,777,778,778,778,778,778,778,778,778,778,778,778,778,778,778,778,778,778,778,778,778,779,779,779,779,779,779,779,779,779,779,779,779,779,779,779,779,778,778,778,778,778,778,778,778,778,778,778,778,781,790,821,856,889,922,957,1001,1012,1017,1023,1047,1072,1082,1094,1099,1110,1119,1119,1119,1117,1105,1091],"ymouse":[496,496,496,496,496,496,496,496,496,496,496,496,496,496,496,496,496,496,496,496,496,496,496,496,496,496,496,496,496,495,494,493,493,493,493,493,493,493,493,493,493,493,493,493,493,493,493,493,493,493,492,492,492,492,492,492,492,492,492,492,492,491,491,491,490,489,487,487,487,487,487,487,487,487,487,487,486,485,477,460,413,382,358,344,329,308,299,287,277,248,238,235,230,226,218,193,177,158,131,103,85],"timestamp_mouse":[21,34,54,76,96,115,137,156,176,195,216,236,256,275,296,315,336,357,375,396,416,436,455,476,496,516,535,556,576,596,616,636,655,675,697,715,736,756,775,795,815,836,856,876,895,915,937,955,975,995,1016,1035,1055,1075,1095,1115,1135,1156,1175,1195,1215,1235,1255,1277,1295,1315,1336,1355,1375,1396,1416,1435,1455,1475,1496,1515,1536,1555,1575,1595,1615,1635,1655,1675,1695,1715,1735,1756,1775,1795,1815,1835,1855,1875,1895,1916,1935,1955,1975,1995,2015],"xSR":741.5,"ySR":469.95,"xT1":424.9,"yT1":0,"xT2":1058.1,"yT2":0,"toosoon":0,"cond_shown":"Congruent","ratio_trial":200,"L_num":9,"L_den":30,"R_num":13,"R_den":26,"correct_side":2,"subjID":"NicolásGonzalezGarcía20","gender":"0","school":"6","age":"12"},{"start_time":1551794136659,"click_time":1551794138596,"finger_time":1551794138316,"fix_duration":622.7656804757016,"trial":44,"RT":1657,"MT":280,"sideResp":2,"stimulus":[],"xmouse":[820,820,819,819,819,819,819,819,819,819,818,818,818,818,818,818,818,818,818,817,816,815,814,814,814,814,814,814,814,814,814,814,813,811,810,810,810,809,808,808,808,808,808,808,808,808,808,808,808,808,808,808,808,808,808,808,808,808,808,808,808,808,808,808,808,807,806,805,805,805,805,805,805,805,805,805,805,805,805,805,805,815,922,1015,1097,1158,1193,1218,1220,1219,1217,1217,1217,1217,1209,1182,1138],"ymouse":[532,533,534,534,534,534,534,534,534,534,534,534,534,534,534,534,534,534,534,534,534,534,534,534,534,534,534,534,534,534,534,534,534,534,535,536,537,540,541,541,541,541,541,541,541,541,541,541,541,541,541,541,541,541,541,541,541,541,541,541,541,541,541,541,541,542,543,543,543,543,543,543,543,543,543,543,543,543,543,543,543,539,488,436,382,334,298,225,193,156,139,130,116,105,92,74,52],"timestamp_mouse":[17,37,59,78,98,118,137,157,178,198,219,237,257,277,297,319,337,357,377,397,417,437,459,478,497,518,539,557,577,599,617,638,657,677,697,717,737,758,778,798,817,837,857,877,899,917,938,957,978,997,1017,1037,1057,1077,1098,1117,1137,1157,1177,1197,1217,1237,1257,1277,1297,1318,1337,1357,1378,1397,1417,1438,1457,1478,1498,1517,1539,1558,1577,1599,1618,1637,1657,1678,1697,1717,1739,1757,1778,1797,1818,1838,1858,1877,1899,1917,1937],"xSR":741.5,"ySR":469.95,"xT1":424.9,"yT1":0,"xT2":1058.1,"yT2":0,"toosoon":0,"cond_shown":"Incongruent","ratio_trial":100,"L_num":12,"L_den":30,"R_num":2,"R_den":4,"correct_side":2,"subjID":"NicolásGonzalezGarcía20","gender":"0","school":"6","age":"12"},{"start_time":1551794139959,"click_time":1551794141276,"finger_time":1551794140976,"fix_duration":561.693326708459,"trial":45,"RT":1017,"MT":300,"sideResp":1,"stimulus":[],"xmouse":[831,832,832,832,832,832,832,829,827,826,825,824,824,824,824,824,824,824,824,824,824,823,823,822,822,821,827,830,831,831,831,831,831,828,828,828,827,827,827,827,825,823,817,808,803,796,793,785,774,757,736,697,656,584,560,548,546,548,548,548,548,547,546,540,532,521],"ymouse":[518,518,518,518,518,518,519,521,521,521,522,522,522,522,522,522,522,522,522,522,522,523,523,523,523,522,520,519,519,519,519,519,519,519,519,519,519,519,519,519,519,519,515,509,506,503,501,496,487,472,456,421,377,271,224,191,166,136,126,119,112,107,101,84,72,61],"timestamp_mouse":[17,38,57,77,99,117,138,158,178,198,218,237,257,278,297,317,338,357,378,397,418,437,458,478,497,518,537,557,577,597,618,637,658,677,697,717,738,757,777,797,817,838,857,878,898,917,937,957,977,997,1017,1037,1057,1078,1098,1118,1137,1157,1177,1197,1218,1238,1257,1277,1298,1317],"xSR":741.5,"ySR":469.95,"xT1":424.9,"yT1":0,"xT2":1058.1,"yT2":0,"toosoon":0,"cond_shown":"Incongruent","ratio_trial":200,"L_num":4,"L_den":5,"R_num":6,"R_den":10,"correct_side":1,"subjID":"NicolásGonzalezGarcía20","gender":"0","school":"6","age":"12"},{"start_time":1551794142776,"click_time":1551794143636,"finger_time":1551794143517,"fix_duration":658.4417711403664,"trial":46,"RT":741,"MT":119,"sideResp":2,"stimulus":[],"xmouse":[808,808,808,808,808,808,808,808,808,808,808,808,808,808,808,808,808,808,808,808,808,808,808,803,796,794,793,793,792,792,792,792,792,792,792,798,828,944,991,1036,1064,1080,1083,1066],"ymouse":[523,523,523,523,523,523,523,523,523,523,523,523,523,523,523,523,523,523,523,523,523,523,523,523,523,523,523,523,522,522,522,522,522,522,521,514,498,448,421,389,350,293,211,40],"timestamp_mouse":[1,20,40,62,80,100,120,141,162,181,200,221,241,261,281,301,321,340,361,381,400,420,440,462,480,500,521,541,560,581,601,621,640,660,680,700,721,741,760,780,800,821,840,860],"xSR":741.5,"ySR":469.95,"xT1":424.9,"yT1":0,"xT2":1058.1,"yT2":0,"toosoon":0,"cond_shown":"Incongruent","ratio_trial":300,"L_num":13,"L_den":26,"R_num":12,"R_den":15,"correct_side":2,"subjID":"NicolásGonzalezGarcía20","gender":"0","school":"6","age":"12"},{"start_time":1551794145641,"click_time":1551794147416,"finger_time":1551794147096,"fix_duration":783.3086844811792,"trial":47,"RT":1455,"MT":320,"sideResp":2,"stimulus":[],"xmouse":[764,764,764,764,764,764,764,764,764,764,764,764,764,764,764,764,764,764,764,764,764,764,765,771,778,779,780,781,781,781,782,784,784,784,784,783,782,781,781,781,781,781,781,781,780,780,779,778,778,778,778,778,777,777,777,777,777,777,777,777,777,777,777,777,777,777,777,777,777,786,797,821,850,874,886,896,907,924,949,955,958,958,958,960,967,986,1008,1030,1072],"ymouse":[509,509,509,509,509,509,509,509,509,509,509,509,509,509,509,509,509,509,509,509,509,508,507,500,494,493,492,492,492,491,490,488,488,488,488,487,487,487,487,487,487,487,487,487,487,487,487,487,487,487,487,487,488,488,488,488,488,488,488,488,488,488,488,488,488,488,488,488,488,484,481,471,457,443,427,403,365,303,200,182,173,172,171,170,162,147,124,100,62],"timestamp_mouse":[15,35,56,77,95,115,135,155,176,196,215,236,256,275,295,315,336,355,375,395,415,435,456,475,495,515,535,555,576,596,615,635,655,675,696,716,735,755,776,796,816,836,856,876,896,916,936,956,976,996,1015,1035,1056,1076,1096,1115,1136,1157,1175,1196,1215,1235,1256,1275,1295,1316,1335,1356,1375,1396,1415,1435,1455,1475,1496,1515,1535,1556,1575,1595,1615,1635,1655,1675,1695,1717,1735,1755,1775],"xSR":741.5,"ySR":469.95,"xT1":424.9,"yT1":0,"xT2":1058.1,"yT2":0,"toosoon":0,"cond_shown":"Congruent","ratio_trial":200,"L_num":3,"L_den":10,"R_num":7,"R_den":14,"correct_side":2,"subjID":"NicolásGonzalezGarcía20","gender":"0","school":"6","age":"12"},{"start_time":1551794150014,"click_time":1551794151276,"finger_time":1551794150777,"fix_duration":1396.214981370852,"trial":48,"RT":763,"MT":499,"sideResp":1,"stimulus":[],"xmouse":[826,826,826,826,826,826,826,826,826,826,826,826,826,826,826,826,826,826,826,826,826,826,826,826,826,826,826,826,826,826,826,826,826,826,826,812,796,773,727,672,625,570,569,572,580,584,579,567,555,546,518,499,486,475,472,472,472,470,470,470,469,469,469,469],"ymouse":[524,524,524,524,524,524,524,524,524,524,524,524,524,524,524,524,524,524,524