[{"start_time":1551899635861,"click_time":1551899638748,"finger_time":1551899638647,"fix_duration":1449.0903242956108,"trial":0,"RT":2786,"MT":101,"sideResp":2,"stimulus":[],"xmouse":[767,767,767,767,767,767,767,767,767,767,767,767,767,767,767,767,767,767,767,767,767,767,767,767,767,767,767,767,767,767,767,767,767,767,767,767,767,767,767,767,767,767,767,767,767,767,767,767,767,767,767,767,767,767,767,767,767,767,767,767,767,767,767,767,767,767,767,767,767,767,767,767,767,767,767,767,767,767,767,767,767,767,767,767,767,767,767,767,767,767,767,767,767,767,767,767,767,767,767,767,767,767,767,767,767,767,767,767,767,767,767,767,767,767,767,767,767,767,767,767,767,767,767,767,767,767,767,767,767,767,767,767,767,767,767,767,775,794,856,971,1035,1080,1117,1136],"ymouse":[546,546,546,546,546,546,546,546,546,546,546,546,546,546,546,546,546,546,546,546,546,546,546,546,546,546,546,546,546,546,546,546,546,546,546,546,546,546,546,546,546,546,546,546,546,546,546,546,546,546,546,546,546,546,546,546,546,546,546,546,546,546,546,546,546,546,546,546,546,546,546,546,546,546,546,546,546,546,546,546,546,546,546,546,546,546,546,546,546,546,546,546,546,546,546,546,546,546,546,546,546,546,546,546,546,546,546,546,546,546,546,546,546,546,546,546,546,546,546,546,546,546,546,546,546,546,546,546,546,546,546,546,546,546,546,546,541,536,519,442,367,259,132,44],"timestamp_mouse":[10,48,66,87,108,127,146,167,188,206,227,247,267,286,306,327,347,367,387,407,427,447,467,487,508,527,546,567,587,607,626,648,667,687,707,727,747,767,787,807,827,847,867,886,906,926,947,966,986,1007,1027,1047,1067,1087,1107,1127,1147,1167,1186,1206,1228,1247,1267,1286,1306,1327,1347,1367,1387,1407,1426,1446,1466,1488,1506,1526,1547,1567,1587,1607,1627,1647,1667,1687,1706,1727,1747,1768,1787,1808,1827,1847,1867,1887,1907,1927,1947,1966,1986,2006,2026,2047,2067,2086,2108,2126,2147,2167,2186,2206,2226,2247,2267,2287,2307,2326,2347,2367,2386,2406,2426,2447,2467,2487,2506,2527,2547,2566,2586,2606,2627,2646,2667,2687,2707,2727,2748,2767,2786,2807,2827,2847,2867,2887],"xSR":741.5,"ySR":501.8,"xT1":424.9,"yT1":0,"xT2":1058.1,"yT2":0,"toosoon":0,"cond_shown":"Incongruent","ratio_trial":100,"L_num":8,"L_den":20,"R_num":1,"R_den":2,"correct_side":2,"subjID":"nicolasgonzalez14","gender":"0","age":"11","school":" 6","test":{"fix_dur":[250,1500],"timestim":1000,"targets_dim":[100,100],"targets_relative_coord":[0.3,0.7],"size_stim":[880,420],"start_dim":[100,100],"size_start":[300,300],"size_fix":60,"samplingrate":20,"img_types":["Congruent","Incongruent"],"ratios":[100,200,300],"rep_conds":19,"nTrials":120,"trials_to_rest":500,"Trials_order":[79,89,8,12,80,92,66,72,105,29,19,53,47,16,94,68,118,70,74,14,110,98,67,99,11,76,24,1,108,104,15,49,103,27,81,95,25,7,21,50,87,55,4,117,10,61,90,114,84,43,30,45,85,42,2,64,109,39,97,9,107,102,63,65,46,13,38,33,59,78,91,71,6,44,69,3,54,36,22,82,48,96,116,115,119,26,20,77,56,106,51,5,100,32,28,0,23,58,83,75,37,35,86,88,41,18,31,113,17,111,101,73,40,57,52,60,112,62,93,34],"cond_shown":["Incongruent","Incongruent","Congruent","Congruent","Congruent","Congruent","Congruent","Congruent","Incongruent","Incongruent","Incongruent","Incongruent","Incongruent","Congruent","Congruent","Congruent","Congruent","Congruent","Congruent","Congruent","Congruent","Congruent","Incongruent","Incongruent","Incongruent","Congruent","Congruent","Incongruent","Congruent","Congruent","Incongruent","Incongruent","Incongruent","Incongruent","Incongruent","Incongruent","Incongruent","Incongruent","Incongruent","Congruent","Incongruent","Incongruent","Congruent","Incongruent","Congruent","Incongruent","Congruent","Congruent","Congruent","Incongruent","Congruent","Incongruent","Incongruent","Congruent","Congruent","Congruent","Incongruent","Incongruent","Incongruent","Incongruent","Incongruent","Congruent","Incongruent","Incongruent","Congruent","Incongruent","Congruent","Incongruent","Incongruent","Congruent","Incongruent","Incongruent","Congruent","Congruent","Incongruent","Incongruent","Congruent","Congruent","Congruent","Congruent","Congruent","Congruent","Congruent","Incongruent","Incongruent","Congruent","Congruent","Incongruent","Congruent","Congruent","Incongruent","Incongruent","Congruent","Congruent","Congruent","Congruent","Incongruent","Congruent","Incongruent","Incongruent","Incongruent","Incongruent","Congruent","Congruent","Incongruent","Congruent","Incongruent","Incongruent","Incongruent","Incongruent","Incongruent","Incongruent","Congruent","Incongruent","Congruent","Congruent","Congruent","Congruent","Incongruent","Congruent"],"ratio_trial":[100,300,200,100,200,200,100,100,200,300,100,300,300,300,300,200,300,300,200,200,200,200,100,200,300,300,100,100,100,200,200,100,100,200,200,300,100,100,200,200,200,100,300,200,300,100,100,100,100,100,100,200,100,100,200,300,100,200,100,200,300,100,200,300,300,100,200,200,300,100,100,300,100,200,200,200,100,100,300,300,100,100,200,100,300,200,200,300,200,300,200,300,300,200,300,100,300,300,300,200,100,300,200,300,300,100,100,300,300,200,300,100,300,200,300,100,300,200,200,300],"left_num":[8,13,8,3,6,6,8,2,9,13,13,8,2,20,1,3,24,4,3,13,3,13,3,3,7,11,1,3,3,16,4,17,9,1,9,2,3,12,7,3,7,8,18,6,8,17,11,11,4,2,12,11,3,11,16,11,11,4,6,14,2,3,4,4,20,11,14,14,4,6,17,13,2,6,9,9,8,3,20,20,9,11,15,6,3,3,14,7,3,3,14,13,8,4,2,1,4,4,4,7,3,13,11,24,7,9,10,4,13,1,8,17,1,7,24,15,5,14,14,3],"right_num":[1,12,2,4,11,11,2,6,8,12,6,14,6,9,6,11,2,1,11,14,7,14,7,11,8,1,18,4,2,12,1,10,20,2,8,6,4,9,12,7,4,1,9,3,1,10,6,6,15,8,13,3,4,6,12,1,9,6,3,6,6,2,6,2,14,9,6,6,2,15,10,12,6,7,8,8,2,2,9,13,8,4,4,3,4,9,6,8,11,11,6,12,1,3,10,18,2,2,2,14,4,12,3,2,8,8,8,6,12,3,14,10,19,8,8,13,6,6,12,2],"left_den":[20,26,15,20,20,20,16,5,15,26,26,10,4,25,5,10,30,10,10,26,10,26,9,4,10,22,2,6,6,20,30,30,10,3,15,4,6,24,10,10,15,20,20,20,16,30,22,22,10,4,30,20,6,22,20,22,22,5,12,30,4,6,5,20,25,22,28,30,20,12,30,26,5,12,15,15,16,6,25,25,15,22,25,12,6,12,28,10,10,12,30,26,16,10,20,2,20,5,20,10,6,26,22,30,10,15,25,5,26,2,10,30,3,10,30,25,25,28,30,6],"right_den":[2,15,6,16,22,22,5,12,10,15,10,28,30,18,12,22,4,10,22,20,14,20,30,20,20,5,30,10,5,20,3,15,25,15,10,30,10,15,24,14,6,2,15,6,5,15,15,15,30,20,26,4,10,15,20,5,15,10,5,9,30,5,10,4,28,15,20,9,4,25,15,15,12,10,10,10,5,5,18,26,16,10,10,5,20,20,20,20,22,20,9,15,5,15,25,30,4,4,4,28,10,15,10,4,20,16,16,12,15,10,28,15,30,16,16,26,12,20,18,10],"correct_side":[2,2,1,2,2,2,1,2,2,2,2,1,1,1,2,2,1,1,2,2,2,2,1,1,1,1,2,1,1,1,2,2,1,1,2,1,1,2,1,2,2,2,1,2,1,2,1,1,2,1,2,2,1,1,1,1,2,1,2,2,1,1,1,2,1,2,1,2,2,2,2,2,2,2,2,2,1,1,1,1,1,1,1,2,1,2,1,1,2,2,2,2,1,1,2,2,2,1,2,1,1,2,1,1,1,1,2,1,2,1,1,2,2,1,1,1,2,1,2,1],"img_shown":["img2/100/Incongruent/R/I_Dist_100_LN_8_LD_20_RN_1_RD_2_1.png","img2/300/Incongruent/R/I_Dist_300_LN_13_LD_26_RN_12_RD_15_1.png","img2/200/Congruent/L/C_Dist_200_LN_8_LD_15_RN_2_RD_6_0.png","img2/100/Congruent/R/C_Dist_100_LN_3_LD_20_RN_4_RD_16_1.png","img2/200/Congruent/R/C_Dist_200_LN_6_LD_20_RN_11_RD_22_1.png","img2/200/Congruent/R/C_Dist_200_LN_6_LD_20_RN_11_RD_22_1.png","img2/100/Congruent/L/C_Dist_100_LN_8_LD_16_RN_2_RD_5_0.png","img2/100/Congruent/R/C_Dist_100_LN_2_LD_5_RN_6_RD_12_1.png","img2/200/Incongruent/R/I_Dist_200_LN_9_LD_15_RN_8_RD_10_1.png","img2/300/Incongruent/R/I_Dist_300_LN_13_LD_26_RN_12_RD_15_1.png","img2/100/Incongruent/R/I_Dist_100_LN_13_LD_26_RN_6_RD_10_1.png","img2/300/Incongruent/L/I_Dist_300_LN_8_LD_10_RN_14_RD_28_0.png","img2/300/Incongruent/L/I_Dist_300_LN_2_LD_4_RN_6_RD_30_0.png","img2/300/Congruent/L/C_Dist_300_LN_20_LD_25_RN_9_RD_18_0.png","img2/300/Congruent/R/C_Dist_300_LN_1_LD_5_RN_6_RD_12_1.png","img2/200/Congruent/R/C_Dist_200_LN_3_LD_10_RN_11_RD_22_1.png","img2/300/Congruent/L/C_Dist_300_LN_24_LD_30_RN_2_RD_4_0.png","img2/300/Congruent/L/C_Dist_300_LN_4_LD_10_RN_1_RD_10_0.png","img2/200/Congruent/R/C_Dist_200_LN_3_LD_10_RN_11_RD_22_1.png","img2/200/Congruent/R/C_Dist_200_LN_13_LD_26_RN_14_RD_20_1.png","img2/200/Congruent/R/C_Dist_200_LN_3_LD_10_RN_7_RD_14_1.png","img2/200/Congruent/R/C_Dist_200_LN_13_LD_26_RN_14_RD_20_1.png","img2/100/Incongruent/L/I_Dist_100_LN_3_LD_9_RN_7_RD_30_0.png","img2/200/Incongruent/L/I_Dist_200_LN_3_LD_4_RN_11_RD_20_0.png","img2/300/Incongruent/L/I_Dist_300_LN_7_LD_10_RN_8_RD_20_0.png","img2/300/Congruent/L/C_Dist_300_LN_11_LD_22_RN_1_RD_5_0.png","img2/100/Congruent/R/C_Dist_100_LN_1_LD_2_RN_18_RD_30_1.png","img2/100/Incongruent/L/I_Dist_100_LN_3_LD_6_RN_4_RD_10_0.png","img2/100/Congruent/L/C_Dist_100_LN_3_LD_6_RN_2_RD_5_0.png","img2/200/Congruent/L/C_Dist_200_LN_16_LD_20_RN_12_RD_20_0.png","img2/200/Incongruent/R/I_Dist_200_LN_4_LD_30_RN_1_RD_3_1.png","img2/100/Incongruent/R/I_Dist_100_LN_17_LD_30_RN_10_RD_15_1.png","img2/100/Incongruent/L/I_Dist_100_LN_9_LD_10_RN_20_RD_25_0.png","img2/200/Incongruent/L/I_Dist_200_LN_1_LD_3_RN_2_RD_15_0.png","img2/200/Incongruent/R/I_Dist_200_LN_9_LD_15_RN_8_RD_10_1.png","img2/300/Incongruent/L/I_Dist_300_LN_2_LD_4_RN_6_RD_30_0.png","img2/100/Incongruent/L/I_Dist_100_LN_3_LD_6_RN_4_RD_10_0.png","img2/100/Incongruent/R/I_Dist_100_LN_12_LD_24_RN_9_RD_15_1.png","img2/200/Incongruent/L/I_Dist_200_LN_7_LD_10_RN_12_RD_24_0.png","img2/200/Congruent/R/C_Dist_200_LN_3_LD_10_RN_7_RD_14_1.png","img2/200/Incongruent/R/I_Dist_200_LN_7_LD_15_RN_4_RD_6_1.png","img2/100/Incongruent/R/I_Dist_100_LN_8_LD_20_RN_1_RD_2_1.png","img2/300/Congruent/L/C_Dist_300_LN_18_LD_20_RN_9_RD_15_0.png","img2/200/Incongruent/R/I_Dist_200_LN_6_LD_20_RN_3_RD_6_1.png","img2/300/Congruent/L/C_Dist_300_LN_8_LD_16_RN_1_RD_5_0.png","img2/100/Incongruent/R/I_Dist_100_LN_17_LD_30_RN_10_RD_15_1.png","img2/100/Congruent/L/C_Dist_100_LN_11_LD_22_RN_6_RD_15_0.png","img2/100/Congruent/L/C_Dist_100_LN_11_LD_22_RN_6_RD_15_0.png","img2/100/Congruent/R/C_Dist_100_LN_4_LD_10_RN_15_RD_30_1.png","img2/100/Incongruent/L/I_Dist_100_LN_2_LD_4_RN_8_RD_20_0.png","img2/100/Congruent/R/C_Dist_100_LN_12_LD_30_RN_13_RD_26_1.png","img2/200/Incongruent/R/I_Dist_200_LN_11_LD_20_RN_3_RD_4_1.png","img2/100/Incongruent/L/I_Dist_100_LN_3_LD_6_RN_4_RD_10_0.png","img2/100/Congruent/L/C_Dist_100_LN_11_LD_22_RN_6_RD_15_0.png","img2/200/Congruent/L/C_Dist_200_LN_16_LD_20_RN_12_RD_20_0.png","img2/300/Congruent/L/C_Dist_300_LN_11_LD_22_RN_1_RD_5_0.png","img2/100/Incongruent/R/I_Dist_100_LN_11_LD_22_RN_9_RD_15_1.png","img2/200/Incongruent/L/I_Dist_200_LN_4_LD_5_RN_6_RD_10_0.png","img2/100/Incongruent/R/I_Dist_100_LN_6_LD_12_RN_3_RD_5_1.png","img2/200/Incongruent/R/I_Dist_200_LN_14_LD_30_RN_6_RD_9_1.png","img2/300/Incongruent/L/I_Dist_300_LN_2_LD_4_RN_6_RD_30_0.png","img2/100/Congruent/L/C_Dist_100_LN_3_LD_6_RN_2_RD_5_0.png","img2/200/Incongruent/L/I_Dist_200_LN_4_LD_5_RN_6_RD_10_0.png","img2/300/Incongruent/R/I_Dist_300_LN_4_LD_20_RN_2_RD_4_1.png","img2/300/Congruent/L/C_Dist_300_LN_20_LD_25_RN_14_RD_28_0.png","img2/100/Incongruent/R/I_Dist_100_LN_11_LD_22_RN_9_RD_15_1.png","img2/200/Congruent/L/C_Dist_200_LN_14_LD_28_RN_6_RD_20_0.png","img2/200/Incongruent/R/I_Dist_200_LN_14_LD_30_RN_6_RD_9_1.png","img2/300/Incongruent/R/I_Dist_300_LN_4_LD_20_RN_2_RD_4_1.png","img2/100/Congruent/R/C_Dist_100_LN_6_LD_12_RN_15_RD_25_1.png","img2/100/Incongruent/R/I_Dist_100_LN_17_LD_30_RN_10_RD_15_1.png","img2/300/Incongruent/R/I_Dist_300_LN_13_LD_26_RN_12_RD_15_1.png","img2/100/Congruent/R/C_Dist_100_LN_2_LD_5_RN_6_RD_12_1.png","img2/200/Congruent/R/C_Dist_200_LN_6_LD_12_RN_7_RD_10_1.png","img2/200/Incongruent/R/I_Dist_200_LN_9_LD_15_RN_8_RD_10_1.png","img2/200/Incongruent/R/I_Dist_200_LN_9_LD_15_RN_8_RD_10_1.png","img2/100/Congruent/L/C_Dist_100_LN_8_LD_16_RN_2_RD_5_0.png","img2/100/Congruent/L/C_Dist_100_LN_3_LD_6_RN_2_RD_5_0.png","img2/300/Congruent/L/C_Dist_300_LN_20_LD_25_RN_9_RD_18_0.png","img2/300/Congruent/L/C_Dist_300_LN_20_LD_25_RN_13_RD_26_0.png","img2/100/Congruent/L/C_Dist_100_LN_9_LD_15_RN_8_RD_16_0.png","img2/100/Congruent/L/C_Dist_100_LN_11_LD_22_RN_4_RD_10_0.png","img2/200/Congruent/L/C_Dist_200_LN_15_LD_25_RN_4_RD_10_0.png","img2/100/Incongruent/R/I_Dist_100_LN_6_LD_12_RN_3_RD_5_1.png","img2/300/Incongruent/L/I_Dist_300_LN_3_LD_6_RN_4_RD_20_0.png","img2/200/Congruent/R/C_Dist_200_LN_3_LD_12_RN_9_RD_20_1.png","img2/200/Congruent/L/C_Dist_200_LN_14_LD_28_RN_6_RD_20_0.png","img2/300/Incongruent/L/I_Dist_300_LN_7_LD_10_RN_8_RD_20_0.png","img2/200/Congruent/R/C_Dist_200_LN_3_LD_10_RN_11_RD_22_1.png","img2/300/Congruent/R/C_Dist_300_LN_3_LD_12_RN_11_RD_20_1.png","img2/200/Incongruent/R/I_Dist_200_LN_14_LD_30_RN_6_RD_9_1.png","img2/300/Incongruent/R/I_Dist_300_LN_13_LD_26_RN_12_RD_15_1.png","img2/300/Congruent/L/C_Dist_300_LN_8_LD_16_RN_1_RD_5_0.png","img2/200/Congruent/L/C_Dist_200_LN_4_LD_10_RN_3_RD_15_0.png","img2/300/Congruent/R/C_Dist_300_LN_2_LD_20_RN_10_RD_25_1.png","img2/100/Congruent/R/C_Dist_100_LN_1_LD_2_RN_18_RD_30_1.png","img2/300/Incongruent/R/I_Dist_300_LN_4_LD_20_RN_2_RD_4_1.png","img2/300/Congruent/L/C_Dist_300_LN_4_LD_5_RN_2_RD_4_0.png","img2/300/Incongruent/R/I_Dist_300_LN_4_LD_20_RN_2_RD_4_1.png","img2/200/Incongruent/L/I_Dist_200_LN_7_LD_10_RN_14_RD_28_0.png","img2/100/Incongruent/L/I_Dist_100_LN_3_LD_6_RN_4_RD_10_0.png","img2/300/Incongruent/R/I_Dist_300_LN_13_LD_26_RN_12_RD_15_1.png","img2/200/Congruent/L/C_Dist_200_LN_11_LD_22_RN_3_RD_10_0.png","img2/300/Congruent/L/C_Dist_300_LN_24_LD_30_RN_2_RD_4_0.png","img2/300/Incongruent/L/I_Dist_300_LN_7_LD_10_RN_8_RD_20_0.png","img2/100/Congruent/L/C_Dist_100_LN_9_LD_15_RN_8_RD_16_0.png","img2/100/Incongruent/R/I_Dist_100_LN_10_LD_25_RN_8_RD_16_1.png","img2/300/Incongruent/L/I_Dist_300_LN_4_LD_5_RN_6_RD_12_0.png","img2/300/Incongruent/R/I_Dist_300_LN_13_LD_26_RN_12_RD_15_1.png","img2/200/Incongruent/L/I_Dist_200_LN_1_LD_2_RN_3_RD_10_0.png","img2/300/Incongruent/L/I_Dist_300_LN_8_LD_10_RN_14_RD_28_0.png","img2/100/Incongruent/R/I_Dist_100_LN_17_LD_30_RN_10_RD_15_1.png","img2/300/Congruent/R/C_Dist_300_LN_1_LD_3_RN_19_RD_30_1.png","img2/200/Incongruent/L/I_Dist_200_LN_7_LD_10_RN_8_RD_16_0.png","img2/300/Congruent/L/C_Dist_300_LN_24_LD_30_RN_8_RD_16_0.png","img2/100/Congruent/L/C_Dist_100_LN_15_LD_25_RN_13_RD_26_0.png","img2/300/Congruent/R/C_Dist_300_LN_5_LD_25_RN_6_RD_12_1.png","img2/200/Congruent/L/C_Dist_200_LN_14_LD_28_RN_6_RD_20_0.png","img2/200/Incongruent/R/I_Dist_200_LN_14_LD_30_RN_12_RD_18_1.png","img2/300/Congruent/L/C_Dist_300_LN_3_LD_6_RN_2_RD_10_0.png"],"dist100_C":[["C_Dist_100_LN_10_LD_25_RN_3_RD_10_0.png","C_Dist_100_LN_11_LD_22_RN_4_RD_10_0.png","C_Dist_100_LN_11_LD_22_RN_6_RD_15_0.png","C_Dist_100_LN_15_LD_25_RN_13_RD_26_0.png","C_Dist_100_LN_3_LD_6_RN_2_RD_5_0.png","C_Dist_100_LN_6_LD_20_RN_5_RD_25_0.png","C_Dist_100_LN_8_LD_16_RN_2_RD_5_0.png","C_Dist_100_LN_9_LD_15_RN_8_RD_16_0.png"],["C_Dist_100_LN_1_LD_2_RN_18_RD_30_1.png","C_Dist_100_LN_1_LD_2_RN_3_RD_5_1.png","C_Dist_100_LN_12_LD_30_RN_13_RD_26_1.png","C_Dist_100_LN_2_LD_5_RN_11_RD_22_1.png","C_Dist_100_LN_2_LD_5_RN_6_RD_12_1.png","C_Dist_100_LN_3_LD_20_RN_4_RD_16_1.png","C_Dist_100_LN_4_LD_10_RN_15_RD_30_1.png","C_Dist_100_LN_4_LD_8_RN_6_RD_10_1.png","C_Dist_100_LN_6_LD_12_RN_15_RD_25_1.png","C_Dist_100_LN_7_LD_14_RN_15_RD_25_1.png","C_Dist_100_LN_7_LD_14_RN_9_RD_15_1.png"]],"dist100_I":[["I_Dist_100_LN_1_LD_2_RN_8_RD_20_0.png","I_Dist_100_LN_2_LD_4_RN_6_RD_15_0.png","I_Dist_100_LN_2_LD_4_RN_8_RD_20_0.png","I_Dist_100_LN_3_LD_5_RN_11_RD_22_0.png","I_Dist_100_LN_3_LD_5_RN_8_RD_16_0.png","I_Dist_100_LN_3_LD_6_RN_4_RD_10_0.png","I_Dist_100_LN_3_LD_9_RN_7_RD_30_0.png","I_Dist_100_LN_4_LD_8_RN_8_RD_20_0.png","I_Dist_100_LN_6_LD_10_RN_11_RD_22_0.png","I_Dist_100_LN_6_LD_10_RN_13_RD_26_0.png","I_Dist_100_LN_6_LD_10_RN_7_RD_14_0.png","I_Dist_100_LN_9_LD_10_RN_20_RD_25_0.png","I_Dist_100_LN_9_LD_15_RN_13_RD_26_0.png","I_Dist_100_LN_9_LD_15_RN_14_RD_28_0.png"],["I_Dist_100_LN_10_LD_25_RN_8_RD_16_1.png","I_Dist_100_LN_10_LD_25_RN_9_RD_18_1.png","I_Dist_100_LN_11_LD_22_RN_9_RD_15_1.png","I_Dist_100_LN_12_LD_24_RN_9_RD_15_1.png","I_Dist_100_LN_12_LD_30_RN_2_RD_4_1.png","I_Dist_100_LN_13_LD_26_RN_12_RD_20_1.png","I_Dist_100_LN_13_LD_26_RN_6_RD_10_1.png","I_Dist_100_LN_17_LD_30_RN_10_RD_15_1.png","I_Dist_100_LN_6_LD_12_RN_3_RD_5_1.png","I_Dist_100_LN_8_LD_16_RN_6_RD_10_1.png","I_Dist_100_LN_8_LD_20_RN_1_RD_2_1.png","I_Dist_100_LN_9_LD_18_RN_6_RD_10_1.png"]],"dist100_S":[["E_Dist_100_LN_2_LD_12_RN_2_RD_30_0.png","E_Dist_100_LN_6_LD_10_RN_6_RD_12_0.png"],["E_Dist_100_LN_6_LD_12_RN_6_RD_10_1.png"]],"dist200_C":[["C_Dist_200_LN_11_LD_22_RN_3_RD_10_0.png","C_Dist_200_LN_12_LD_15_RN_6_RD_10_0.png","C_Dist_200_LN_12_LD_20_RN_6_RD_15_0.png","C_Dist_200_LN_14_LD_28_RN_6_RD_20_0.png","C_Dist_200_LN_15_LD_25_RN_4_RD_10_0.png","C_Dist_200_LN_16_LD_20_RN_12_RD_20_0.png","C_Dist_200_LN_16_LD_30_RN_9_RD_27_0.png","C_Dist_200_LN_20_LD_25_RN_9_RD_15_0.png","C_Dist_200_LN_21_LD_30_RN_2_RD_4_0.png","C_Dist_200_LN_4_LD_10_RN_3_RD_15_0.png","C_Dist_200_LN_4_LD_8_RN_3_RD_10_0.png","C_Dist_200_LN_6_LD_15_RN_3_RD_15_0.png","C_Dist_200_LN_7_LD_21_RN_2_RD_15_0.png","C_Dist_200_LN_8_LD_15_RN_2_RD_6_0.png","C_Dist_200_LN_8_LD_15_RN_3_RD_9_0.png","C_Dist_200_LN_8_LD_15_RN_7_RD_21_0.png","C_Dist_200_LN_9_LD_20_RN_4_RD_16_0.png"],["C_Dist_200_LN_1_LD_2_RN_21_RD_30_1.png","C_Dist_200_LN_13_LD_26_RN_14_RD_20_1.png","C_Dist_200_LN_3_LD_10_RN_11_RD_22_1.png","C_Dist_200_LN_3_LD_10_RN_14_RD_28_1.png","C_Dist_200_LN_3_LD_10_RN_7_RD_14_1.png","C_Dist_200_LN_3_LD_12_RN_9_RD_20_1.png","C_Dist_200_LN_3_LD_6_RN_14_RD_20_1.png","C_Dist_200_LN_5_LD_10_RN_14_RD_20_1.png","C_Dist_200_LN_6_LD_12_RN_7_RD_10_1.png","C_Dist_200_LN_6_LD_20_RN_11_RD_22_1.png","C_Dist_200_LN_7_LD_15_RN_18_RD_27_1.png","C_Dist_200_LN_9_LD_30_RN_13_RD_26_1.png"]],"dist200_I":[["I_Dist_200_LN_1_LD_2_RN_3_RD_10_0.png","I_Dist_200_LN_1_LD_3_RN_2_RD_15_0.png","I_Dist_200_LN_3_LD_4_RN_11_RD_20_0.png","I_Dist_200_LN_4_LD_5_RN_6_RD_10_0.png","I_Dist_200_LN_4_LD_6_RN_14_RD_30_0.png","I_Dist_200_LN_7_LD_10_RN_12_RD_24_0.png","I_Dist_200_LN_7_LD_10_RN_14_RD_28_0.png","I_Dist_200_LN_7_LD_10_RN_8_RD_16_0.png"],["I_Dist_200_LN_11_LD_20_RN_3_RD_4_1.png","I_Dist_200_LN_14_LD_30_RN_12_RD_18_1.png","I_Dist_200_LN_14_LD_30_RN_6_RD_9_1.png","I_Dist_200_LN_3_LD_10_RN_1_RD_2_1.png","I_Dist_200_LN_4_LD_30_RN_1_RD_3_1.png","I_Dist_200_LN_6_LD_20_RN_3_RD_6_1.png","I_Dist_200_LN_7_LD_15_RN_4_RD_6_1.png","I_Dist_200_LN_7_LD_15_RN_6_RD_9_1.png","I_Dist_200_LN_9_LD_15_RN_8_RD_10_1.png"]],"dist200_S":[["E_Dist_200_LN_3_LD_6_RN_3_RD_10_0.png"],["E_Dist_200_LN_3_LD_10_RN_3_RD_6_1.png"]],"dist300_C":[["C_Dist_300_LN_11_LD_22_RN_1_RD_5_0.png","C_Dist_300_LN_11_LD_22_RN_2_RD_10_0.png","C_Dist_300_LN_11_LD_22_RN_4_RD_20_0.png","C_Dist_300_LN_12_LD_24_RN_2_RD_10_0.png","C_Dist_300_LN_18_LD_20_RN_9_RD_15_0.png","C_Dist_300_LN_20_LD_25_RN_13_RD_26_0.png","C_Dist_300_LN_20_LD_25_RN_14_RD_28_0.png","C_Dist_300_LN_20_LD_25_RN_5_RD_10_0.png","C_Dist_300_LN_20_LD_25_RN_8_RD_16_0.png","C_Dist_300_LN_20_LD_25_RN_9_RD_18_0.png","C_Dist_300_LN_24_LD_30_RN_2_RD_4_0.png","C_Dist_300_LN_24_LD_30_RN_8_RD_16_0.png","C_Dist_300_LN_3_LD_6_RN_2_RD_10_0.png","C_Dist_300_LN_4_LD_10_RN_1_RD_10_0.png","C_Dist_300_LN_4_LD_5_RN_2_RD_4_0.png","C_Dist_300_LN_8_LD_16_RN_1_RD_5_0.png","C_Dist_300_LN_9_LD_10_RN_3_RD_5_0.png"],["C_Dist_300_LN_1_LD_20_RN_7_RD_20_1.png","C_Dist_300_LN_1_LD_3_RN_19_RD_30_1.png","C_Dist_300_LN_1_LD_30_RN_8_RD_24_1.png","C_Dist_300_LN_1_LD_5_RN_11_RD_22_1.png","C_Dist_300_LN_1_LD_5_RN_3_RD_6_1.png","C_Dist_300_LN_1_LD_5_RN_6_RD_12_1.png","C_Dist_300_LN_2_LD_10_RN_12_RD_24_1.png","C_Dist_300_LN_2_LD_20_RN_10_RD_25_1.png","C_Dist_300_LN_3_LD_12_RN_11_RD_20_1.png","C_Dist_300_LN_3_LD_6_RN_4_RD_5_1.png","C_Dist_300_LN_4_LD_20_RN_13_RD_26_1.png","C_Dist_300_LN_5_LD_25_RN_6_RD_12_1.png","C_Dist_300_LN_5_LD_25_RN_7_RD_14_1.png","C_Dist_300_LN_7_LD_14_RN_20_RD_25_1.png","C_Dist_300_LN_8_LD_15_RN_10_RD_12_1.png"]],"dist300_I":[["I_Dist_300_LN_1_LD_2_RN_2_RD_10_0.png","I_Dist_300_LN_1_LD_2_RN_3_RD_15_0.png","I_Dist_300_LN_2_LD_4_RN_6_RD_30_0.png","I_Dist_300_LN_3_LD_6_RN_4_RD_20_0.png","I_Dist_300_LN_4_LD_5_RN_6_RD_12_0.png","I_Dist_300_LN_4_LD_5_RN_8_RD_16_0.png","I_Dist_300_LN_7_LD_10_RN_8_RD_20_0.png","I_Dist_300_LN_8_LD_10_RN_14_RD_28_0.png","I_Dist_300_LN_8_LD_10_RN_9_RD_18_0.png"],["I_Dist_300_LN_13_LD_26_RN_12_RD_15_1.png","I_Dist_300_LN_4_LD_20_RN_2_RD_4_1.png"]],"dist300_S":[["E_Dist_300_LN_9_LD_12_RN_9_RD_20_0.png"],["E_Dist_300_LN_18_LD_30_RN_18_RD_20_1.png","E_Dist_300_LN_3_LD_10_RN_3_RD_5_1.png","E_Dist_300_LN_9_LD_20_RN_9_RD_12_1.png"]],"dist500_C":[["C_Dist_500_LN_10_LD_13_RN_7_RD_26_0.png","C_Dist_500_LN_10_LD_15_RN_4_RD_24_0.png","C_Dist_500_LN_12_LD_16_RN_3_RD_12_0.png","C_Dist_500_LN_12_LD_18_RN_4_RD_24_0.png","C_Dist_500_LN_15_LD_18_RN_5_RD_15_0.png","C_Dist_500_LN_15_LD_20_RN_1_RD_4_0.png","C_Dist_500_LN_18_LD_27_RN_1_RD_6_0.png","C_Dist_500_LN_20_LD_24_RN_1_RD_3_0.png","C_Dist_500_LN_20_LD_24_RN_3_RD_9_0.png","C_Dist_500_LN_20_LD_24_RN_7_RD_21_0.png","C_Dist_500_LN_20_LD_28_RN_3_RD_14_0.png","C_Dist_500_LN_21_LD_28_RN_6_RD_24_0.png","C_Dist_500_LN_22_LD_28_RN_2_RD_7_0.png","C_Dist_500_LN_25_LD_30_RN_9_RD_27_0.png","C_Dist_500_LN_4_LD_6_RN_1_RD_6_0.png","C_Dist_500_LN_5_LD_6_RN_2_RD_6_0.png","C_Dist_500_LN_6_LD_9_RN_1_RD_6_0.png","C_Dist_500_LN_7_LD_10_RN_1_RD_5_0.png","C_Dist_500_LN_8_LD_12_RN_1_RD_6_0.png","C_Dist_500_LN_8_LD_12_RN_4_RD_24_0.png"],["C_Dist_500_LN_1_LD_4_RN_12_RD_16_1.png","C_Dist_500_LN_1_LD_4_RN_9_RD_12_1.png","C_Dist_500_LN_1_LD_9_RN_11_RD_18_1.png","C_Dist_500_LN_10_LD_24_RN_22_RD_24_1.png","C_Dist_500_LN_2_LD_12_RN_10_RD_15_1.png","C_Dist_500_LN_2_LD_12_RN_12_RD_18_1.png","C_Dist_500_LN_2_LD_12_RN_4_RD_6_1.png","C_Dist_500_LN_2_LD_24_RN_7_RD_12_1.png","C_Dist_500_LN_2_LD_5_RN_18_RD_20_1.png","C_Dist_500_LN_2_LD_5_RN_9_RD_10_1.png","C_Dist_500_LN_2_LD_8_RN_12_RD_16_1.png","C_Dist_500_LN_2_LD_8_RN_21_RD_28_1.png","C_Dist_500_LN_3_LD_10_RN_4_RD_5_1.png","C_Dist_500_LN_3_LD_12_RN_15_RD_20_1.png","C_Dist_500_LN_3_LD_30_RN_6_RD_10_1.png","C_Dist_500_LN_3_LD_8_RN_14_RD_16_1.png","C_Dist_500_LN_4_LD_16_RN_15_RD_20_1.png","C_Dist_500_LN_4_LD_24_RN_12_RD_18_1.png","C_Dist_500_LN_5_LD_14_RN_6_RD_7_1.png","C_Dist_500_LN_7_LD_21_RN_20_RD_24_1.png","C_Dist_500_LN_7_LD_28_RN_12_RD_16_1.png","C_Dist_500_LN_7_LD_28_RN_9_RD_12_1.png","C_Dist_500_LN_9_LD_27_RN_20_RD_24_1.png"]],"dist500_I":[["I_Dist_500_LN_2_LD_3_RN_4_RD_24_0.png","I_Dist_500_LN_5_LD_6_RN_6_RD_18_0.png","I_Dist_500_LN_7_LD_8_RN_9_RD_24_0.png"],["I_Dist_500_LN_7_LD_21_RN_5_RD_6_1.png"]],"dist500_S":[["E_Dist_500_LN_6_LD_8_RN_6_RD_24_0.png"],["E_Dist_500_LN_2_LD_12_RN_2_RD_3_1.png","E_Dist_500_LN_6_LD_24_RN_6_RD_8_1.png"]]}},{"start_time":1551899641568,"click_time":1551899643628,"finger_time":1551899643067,"fix_duration":1458.8363623900896,"trial":1,"RT":1499,"MT":561,"sideResp":2,"stimulus":[],"xmouse":[792,792,792,792,792,792,792,792,792,792,792,792,792,792,792,792,792,792,792,792,792,792,792,792,792,792,792,792,792,792,792,792,792,792,792,792,792,792,792,792,792,792,792,792,792,792,792,792,792,792,792,792,792,792,792,792,792,792,792,792,792,792,792,792,792,792,792,792,792,792,792,792,792,810,822,847,882,895,925,941,947,963,965,975,991,955,912,906,903,900,900,900,900,900,900,900,900,900,900,900,900,1032,1048,1059],"ymouse":[548,548,548,548,548,548,548,548,548,548,548,548,548,548,548,548,548,548,548,548,548,548,548,548,548,548,548,548,548,548,548,548,548,548,548,548,548,548,548,548,548,548,548,548,548,548,548,548,548,548,548,548,548,548,548,548,548,548,548,548,548,548,548,548,548,548,548,548,548,548,548,548,547,549,553,556,555,549,537,529,524,479,446,388,334,160,62,43,25,3,3,3,3,3,3,3,3,3,3,3,3,16,31,40],"timestamp_mouse":[1,20,41,59,79,100,120,140,159,180,199,219,239,260,280,300,321,340,359,380,400,420,440,460,480,500,520,540,560,581,599,619,639,660,679,699,720,740,759,781,799,819,840,860,879,900,920,940,959,980,999,1020,1040,1061,1080,1099,1120,1139,1159,1180,1200,1220,1240,1260,1281,1300,1321,1340,1360,1379,1400,1420,1440,1460,1480,1499,1519,1540,1560,1580,1600,1620,1639,1661,1680,1701,1719,1739,1760,1780,1800,1820,1839,1861,1880,1900,1919,1940,1959,1980,2000,2019,2040,2059],"xSR":741.5,"ySR":501.8,"xT1":424.9,"yT1":0,"xT2":1058.1,"yT2":0,"toosoon":0,"cond_shown":"Incongruent","ratio_trial":300,"L_num":13,"L_den":26,"R_num":12,"R_den":15,"correct_side":2,"subjID":"nicolasgonzalez14","gender":"0","school":" 6","age":"11"},{"start_time":1551899645394,"click_time":1551899647727,"finger_time":1551899647388,"fix_duration":344.9893370313633,"trial":2,"RT":1994,"MT":339,"sideResp":1,"stimulus":[],"xmouse":[772,772,772,772,772,772,772,772,772,772,772,772,772,772,772,772,772,772,772,772,772,772,772,772,772,772,772,772,772,772,772,772,772,772,772,772,772,772,772,772,772,772,772,772,772,772,772,772,772,772,772,772,772,772,772,772,772,772,772,772,772,772,772,772,772,772,772,772,772,772,772,772,772,772,772,772,772,772,772,772,772,772,772,772,772,772,772,772,772,772,772,772,772,772,772,772,772,772,769,730,706,671,629,590,590,590,590,590,590,590,590,590,590,590,590,590,473],"ymouse":[527,527,527,527,527,527,527,527,527,527,527,527,527,527,527,527,527,527,527,527,527,527,527,527,527,527,527,527,527,527,527,527,527,527,527,527,527,527,527,527,527,527,527,527,527,527,527,527,527,527,527,527,527,527,527,527,527,527,527,527,527,527,527,527,527,527,527,527,527,527,527,527,527,527,527,527,527,527,527,527,527,527,527,527,527,527,527,527,527,527,527,527,527,527,527,527,527,528,528,487,398,271,141,26,26,26,26,26,26,26,26,26,26,26,26,26,11],"timestamp_mouse":[13,41,54,74,94,114,134,154,174,194,214,234,253,274,293,314,334,353,374,394,414,433,453,474,494,515,533,554,574,594,613,634,654,674,693,714,734,753,774,793,814,834,853,874,894,914,934,954,974,993,1014,1033,1053,1073,1093,1113,1133,1154,1174,1194,1214,1234,1254,1274,1294,1315,1334,1353,1374,1394,1413,1433,1453,1474,1494,1514,1533,1553,1575,1594,1613,1633,1653,1674,1694,1714,1735,1754,1774,1793,1813,1834,1854,1874,1893,1914,1934,1954,1973,1994,2014,2035,2054,2074,2095,2114,2135,2154,2174,2194,2213,2234,2253,2275,2295,2314,2333],"xSR":741.5,"ySR":501.8,"xT1":424.9,"yT1":0,"xT2":1058.1,"yT2":0,"toosoon":0,"cond_shown":"Congruent","ratio_trial":200,"L_num":8,"L_den":15,"R_num":2,"R_den":6,"correct_side":1,"subjID":"nicolasgonzalez14","gender":"0","school":" 6","age":"11"},{"start_time":1551899650290,"click_time":1551899652669,"finger_time":1551899652507,"fix_duration":1421.4640598553906,"trial":3,"RT":2217,"MT":162,"sideResp":2,"stimulus":[],"xmouse":[820,820,820,820,820,820,820,820,820,820,820,820,820,820,820,820,820,820,820,820,820,820,820,820,820,820,820,820,820,820,820,820,820,820,820,820,820,820,820,820,820,820,820,820,820,820,820,820,820,820,820,820,820,820,820,820,820,820,820,820,820,820,820,820,820,820,820,820,820,820,820,820,820,820,820,820,820,820,820,820,820,820,820,820,820,820,820,820,820,820,820,820,820,820,820,820,820,820,820,820,820,820,820,820,820,820,820,820,820,835,852,870,897,955,990,1033,1060,1073,1085],"ymouse":[533,533,533,533,533,533,533,533,533,533,533,533,533,533,533,533,533,533,533,533,533,533,533,533,533,533,533,533,533,533,533,533,533,533,533,533,533,533,533,533,533,533,533,533,533,533,533,533,533,533,533,533,533,533,533,533,533,533,533,533,533,533,533,533,533,533,533,533,533,533,533,533,533,533,533,533,533,533,533,533,533,533,533,533,533,533,533,533,533,533,533,533,533,533,533,533,533,533,533,533,533,533,533,533,533,535,539,541,541,527,509,486,442,337,273,203,146,118,96],"timestamp_mouse":[19,40,57,77,97,117,138,158,178,198,218,238,258,277,298,318,338,358,379,399,418,438,457,478,497,517,537,557,579,598,618,638,658,677,698,717,738,758,777,797,817,837,858,878,898,918,938,958,978,998,1018,1038,1058,1078,1098,1118,1138,1158,1178,1198,1218,1237,1257,1277,1299,1318,1337,1357,1379,1398,1418,1438,1457,1478,1498,1519,1538,1557,1577,1598,1618,1638,1659,1678,1698,1718,1738,1758,1777,1798,1818,1838,1858,1878,1898,1918,1939,1958,1977,1997,2018,2037,2058,2078,2098,2118,2138,2157,2178,2198,2217,2238,2257,2278,2297,2319,2338,2358,2378],"xSR":741.5,"ySR":501.8,"xT1":424.9,"yT1":0,"xT2":1058.1,"yT2":0,"toosoon":0,"cond_shown":"Congruent","ratio_trial":100,"L_num":3,"L_den":20,"R_num":4,"R_den":16,"correct_side":2,"subjID":"nicolasgonzalez14","gender":"0","school":" 6","age":"11"},{"start_time":1551899656395,"click_time":1551899659028,"finger_time":1551899657868,"fix_duration":926.8383198369754,"trial":4,"RT":1473,"MT":1160,"sideResp":1,"stimulus":[],"xmouse":[819,819,819,819,819,819,819,819,819,819,819,819,819,819,819,819,819,819,819,819,819,819,819,819,819,819,819,819,819,819,819,819,819,819,819,819,819,819,819,819,819,819,819,819,819,819,819,819,819,819,819,819,819,819,819,819,819,819,819,819,819,819,819,819,819,819,819,819,819,819,819,819,835,847,943,1000,1070,1137,1222,1237,1240,1242,1244,1250,1256,1257,1257,1257,1257,1257,1221,1120,994,903,732,699,681,676,676,676,676,676,683,763,1007,1208,1408,1582,1582,1582,1582,1582,1582,1582,1564,1453,1267,1040,1040,1040,1040,1040,1040,1040,1040,1040,1040,1040,1040,1040,1040,462],"ymouse":[571,571,571,571,571,571,571,571,571,571,571,571,571,571,571,571,571,571,571,571,571,571,571,571,571,571,571,571,571,571,571,571,571,571,571,571,571,571,571,571,571,571,571,571,571,571,571,571,571,571,571,571,571,571,571,571,571,571,571,571,571,571,571,571,571,571,571,571,571,571,571,571,558,546,463,409,347,289,221,211,208,206,204,194,183,180,179,179,179,179,194,230,278,334,411,425,434,436,436,436,436,436,429,382,264,189,132,95,95,95,95,95,95,95,78,78,54,20,20,20,20,20,20,20,20,20,20,20,20,20,20,54],"timestamp_mouse":[13,39,54,73,92,113,133,153,174,194,213,232,252,273,292,313,333,353,372,392,413,432,453,473,493,512,532,552,573,593,612,633,654,673,693,713,733,753,772,793,813,832,853,872,892,914,933,953,972,992,1013,1033,1053,1073,1092,1112,1132,1152,1172,1192,1212,1233,1252,1272,1293,1313,1332,1353,1374,1393,1413,1433,1453,1473,1493,1513,1532,1553,1573,1593,1612,1634,1653,1674,1692,1712,1732,1753,1773,1793,1813,1833,1853,1873,1893,1913,1932,1953,1973,1992,2012,2032,2052,2074,2092,2113,2133,2153,2173,2193,2212,2233,2252,2273,2292,2313,2333,2353,2373,2393,2413,2434,2452,2472,2492,2512,2532,2552,2573,2594,2613,2632],"xSR":741.5,"ySR":501.8,"xT1":424.9,"yT1":0,"xT2":1058.1,"yT2":0,"toosoon":0,"cond_shown":"Congruent","ratio_trial":200,"L_num":6,"L_den":20,"R_num":11,"R_den":22,"correct_side":2,"subjID":"nicolasgonzalez14","gender":"0","school":" 6","age":"11"},{"start_time":1551899667056,"click_time":1551899669508,"finger_time":1551899668488,"fix_duration":1467.0774476388658,"trial":5,"RT":1432,"MT":1020,"sideResp":2,"stimulus":[],"xmouse":[811,811,811,811,811,811,811,811,811,811,811,811,811,811,811,811,811,811,811,811,811,811,811,811,811,811,811,811,811,811,811,811,811,811,811,811,811,811,811,811,811,811,811,811,811,811,811,811,811,811,811,811,811,811,811,811,811,811,811,811,811,811,811,811,811,811,811,811,818,823,841,896,913,926,939,953,953,955,956,959,972,984,994,1003,1010,1021,1024,1024,1024,1024,1030,1033,1035,1036,1037,1037,1038,1041,1043,1044,1045,1045,1045,1045,1045,1049,1049,1049,1049,1049,1051,1051,1051,1051,1051,1051,1051,1051,1051,1051,1053,1058,1061],"ymouse":[551,551,551,551,551,551,551,551,551,551,551,551,551,551,551,551,551,551,551,551,551,551,551,551,551,551,551,551,551,551,551,551,551,551,551,551,551,551,551,551,551,551,551,551,551,551,551,551,551,551,551,551,551,551,551,551,551,551,551,551,551,551,551,551,551,551,551,551,541,533,508,430,403,377,351,309,296,280,265,252,227,208,192,174,159,132,124,124,124,122,81,57,46,39,33,31,25,19,14,13,12,12,12,12,12,23,23,23,23,23,25,25,25,25,25,25,25,25,25,25,25,27,27],"timestamp_mouse":[12,33,52,73,92,111,131,151,172,192,212,232,253,272,292,311,331,353,371,392,412,432,452,472,492,511,532,552,572,592,612,632,652,671,692,711,731,753,772,791,812,832,852,872,892,911,931,951,972,992,1012,1032,1052,1071,1092,1111,1133,1152,1172,1191,1213,1231,1253,1273,1293,1311,1331,1352,1372,1392,1412,1432,1452,1472,1493,1512,1532,1552,1572,1592,1613,1631,1652,1672,1691,1713,1732,1752,1772,1791,1812,1832,1851,1871,1892,1912,1932,1952,1972,1992,2012,2031,2052,2072,2092,2112,2131,2151,2172,2192,2212,2232,2252,2271,2292,2312,2333,2351,2371,2391,2411,2431,2451],"xSR":741.5,"ySR":501.8,"xT1":424.9,"yT1":0,"xT2":1058.1,"yT2":0,"toosoon":0,"cond_shown":"Congruent","ratio_trial":200,"L_num":6,"L_den":20,"R_num":11,"R_den":22,"correct_side":2,"subjID":"nicolasgonzalez14","gender":"0","school":" 6","age":"11"},{"start_time":1551899670828,"click_time":1551899673528,"finger_time":1551899673167,"fix_duration":377.09437076709395,"trial":6,"RT":2339,"MT":361,"sideResp":1,"stimulus":[],"xmouse":[777,777,777,777,777,777,777,777,777,777,777,777,777,777,777,777,777,777,777,777,777,777,777,777,777,777,777,777,777,777,777,777,777,777,777,777,777,777,777,777,777,777,777,777,777,777,777,777,777,777,777,777,777,777,777,777,777,777,777,777,777,777,777,777,777,777,777,777,777,777,777,777,777,777,777,777,777,777,777,777,777,777,777,777,777,777,777,777,777,777,777,777,777,777,777,777,777,777,777,777,777,777,777,777,777,777,777,777,777,777,777,777,777,777,777,777,773,767,727,698,665,633,582,560,553,549,547,542,541,539,538,537,534,529,526,524],"ymouse":[517,517,517,517,517,517,517,517,517,517,517,517,517,517,517,517,517,517,517,517,517,517,517,517,517,517,517,517,517,517,517,517,517,517,517,517,517,517,517,517,517,517,517,517,517,517,517,517,517,517,517,517,517,517,517,517,517,517,517,517,517,517,517,517,517,517,517,517,517,517,517,517,517,517,517,517,517,517,517,517,517,517,517,517,517,517,517,517,517,517,517,517,517,517,517,517,517,517,517,517,517,517,517,517,517,517,517,517,517,517,517,517,517,517,517,517,512,501,426,375,324,273,197,167,155,149,144,134,129,125,120,114,89,68,59,54],"timestamp_mouse":[1,20,43,60,79,101,120,140,159,180,199,219,240,259,280,299,319,340,360,380,400,419,440,459,479,500,520,540,560,580,599,620,640,659,679,699,719,740,759,780,800,819,839,861,880,900,919,940,960,981,1000,1020,1040,1060,1080,1100,1119,1140,1160,1180,1199,1220,1239,1260,1280,1300,1319,1340,1360,1379,1399,1419,1440,1461,1479,1500,1520,1539,1560,1579,1600,1620,1640,1660,1681,1700,1720,1739,1764,1780,1800,1820,1840,1859,1881,1900,1920,1940,1961,1981,2000,2019,2039,2060,2080,2099,2119,2140,2159,2180,2200,2219,2240,2259,2280,2301,2320,2339,2360,2379,2400,2420,2440,2459,2479,2499,2519,2540,2559,2580,2600,2620,2640,2660,2679,2699],"xSR":741.5,"ySR":501.8,"xT1":424.9,"yT1":0,"xT2":1058.1,"yT2":0,"toosoon":0,"cond_shown":"Congruent","ratio_trial":100,"L_num":8,"L_den":16,"R_num":2,"R_den":5,"correct_side":1,"subjID":"nicolasgonzalez14","gender":"0","school":" 6","age":"11"},{"start_time":1551899675617,"click_time":1551899679788,"finger_time":1551899678768,"fix_duration":1029.5310767069466,"trial":7,"RT":3151,"MT":1020,"sideResp":1,"stimulus":[],"xmouse":[766,766,766,766,766,766,766,766,766,766,766,766,766,766,766,766,766,766,766,766,766,766,766,766,766,766,766,766,766,766,766,766,766,766,766,766,766,766,766,766,766,766,766,766,766,766,766,766,766,766,766,766,766,766,766,766,766,766,766,766,766,766,766,766,766,766,766,766,766,766,766,766,766,766,766,766,766,766,766,766,766,766,766,766,766,766,766,766,766,766,766,766,766,766,766,766,766,766,766,766,766,766,766,766,766,766,766,766,766,766,766,766,766,766,766,766,766,766,766,766,766,766,766,766,766,766,766,766,766,766,766,766,766,766,766,766,766,766,766,766,766,766,766,766,766,766,766,766,766,766,766,766,766,766,766,766,758,739,738,738,738,738,738,738,738,738,738,738,738,738,738,738,736,736,729,687,621,437,355,320,303,296,296,315,342,363,375,380,380,374,374,374,385,402,407,410,410,410,410,410,411,411,411,411,411,411,411,419,430],"ymouse":[550,550,550,550,550,550,550,550,550,550,550,550,550,550,550,550,550,550,550,550,550,550,550,550,550,550,550,550,550,550,550,550,550,550,550,550,550,550,550,550,550,550,550,550,550,550,550,550,550,550,550,550,550,550,550,550,550,550,550,550,550,550,550,550,550,550,550,550,550,550,550,550,550,550,550,550,550,550,550,550,550,550,550,550,550,550,550,550,550,550,550,550,550,550,550,550,550,550,550,550,550,550,550,550,550,550,550,550,550,550,550,550,550,550,550,550,550,550,550,550,550,550,550,550,550,550,550,550,550,550,550,550,550,550,550,550,550,550,550,550,550,550,550,550,550,550,550,550,550,550,550,550,550,550,550,550,549,539,539,539,539,539,539,539,539,539,539,539,539,539,539,539,538,538,531,503,482,488,498,498,500,501,501,449,359,252,158,114,80,69,65,63,50,37,32,29,29,29,29,29,29,29,29,29,29,29,29,34,38],"timestamp_mouse":[11,32,64,71,91,111,132,151,171,190,211,231,251,270,291,311,331,351,371,391,411,431,450,471,491,511,530,551,571,591,611,631,650,671,691,710,731,751,770,791,812,831,850,871,892,911,932,951,971,992,1011,1031,1050,1071,1091,1110,1131,1151,1170,1190,1210,1231,1251,1271,1292,1310,1331,1351,1370,1391,1410,1431,1450,1471,1490,1512,1530,1552,1572,1591,1612,1631,1651,1671,1690,1711,1731,1751,1770,1790,1810,1831,1851,1870,1891,1911,1930,1950,1971,1991,2011,2031,2052,2070,2091,2110,2131,2151,2171,2191,2210,2231,2251,2271,2290,2310,2331,2351,2372,2390,2410,2432,2451,2471,2492,2510,2530,2550,2571,2591,2611,2630,2651,2671,2690,2711,2731,2751,2771,2790,2810,2830,2850,2870,2891,2911,2931,2952,2971,2992,3010,3030,3050,3070,3090,3111,3131,3151,3170,3191,3211,3232,3251,3272,3291,3312,3331,3350,3371,3392,3411,3430,3451,3471,3491,3511,3530,3552,3571,3591,3611,3631,3651,3671,3690,3710,3731,3751,3771,3790,3811,3830,3851,3870,3891,3911,3930,3951,3970,3990,4011,4031,4051,4071,4091,4110,4131,4152,4170],"xSR":741.5,"ySR":501.8,"xT1":424.9,"yT1":0,"xT2":1058.1,"yT2":0,"toosoon":0,"cond_shown":"Congruent","ratio_trial":100,"L_num":2,"L_den":5,"R_num":6,"R_den":12,"correct_side":2,"subjID":"nicolasgonzalez14","gender":"0","school":" 6","age":"11"},{"start_time":1551899680760,"click_time":1551899682208,"finger_time":1551899681807,"fix_duration":250,"trial":8,"RT":1047,"MT":401,"sideResp":2,"stimulus":[],"xmouse":[790,790,790,790,790,790,790,790,790,790,790,790,790,790,790,790,790,790,790,790,790,790,790,790,790,790,790,790,790,790,790,790,790,790,790,790,790,790,790,790,790,790,790,790,790,790,790,790,790,791,809,829,855,873,892,928,941,949,957,966,984,988,996,1003,1012,1018,1027,1033,1038,1042,1044,1054,1062],"ymouse":[562,562,562,562,562,562,562,562,562,562,562,562,562,562,562,562,562,562,562,562,562,562,562,562,562,562,562,562,562,562,562,562,562,562,562,562,562,562,562,562,562,562,562,562,562,562,562,562,562,562,539,517,495,472,447,412,397,386,375,365,344,340,331,324,312,300,259,216,190,170,152,110,84],"timestamp_mouse":[7,28,53,68,87,108,127,148,168,188,209,228,247,267,287,307,328,349,368,388,407,427,447,468,487,508,527,547,568,588,608,628,647,668,688,708,728,747,769,788,808,828,849,868,888,907,927,948,967,988,1009,1028,1047,1069,1088,1109,1127,1148,1167,1188,1208,1228,1249,1268,1289,1309,1327,1348,1368,1388,1408,1428,1448],"xSR":741.5,"ySR":501.8,"xT1":424.9,"yT1":0,"xT2":1058.1,"yT2":0,"toosoon":0,"cond_shown":"Incongruent","ratio_trial":200,"L_num":9,"L_den":15,"R_num":8,"R_den":10,"correct_side":2,"subjID":"nicolasgonzalez14","gender":"0","school":" 6","age":"11"},{"start_time":1551899685781,"click_time":1551899687028,"finger_time":1551899686587,"fix_duration":1211.3822991131578,"trial":9,"RT":806,"MT":441,"sideResp":2,"stimulus":[],"xmouse":[805,805,805,805,805,805,805,805,805,805,805,805,805,805,805,805,805,805,805,805,805,805,805,805,805,805,805,805,805,805,805,805,805,805,805,805,805,805,806,816,882,919,947,971,989,997,999,1001,1004,1006,1013,1016,1016,1016,1016,1018,1019,1020,1023,1034,1041,1051,1060],"ymouse":[541,541,541,541,541,541,541,541,541,541,541,541,541,541,541,541,541,541,541,541,541,541,541,541,541,541,541,541,541,541,541,541,541,541,541,541,541,540,537,529,447,397,354,305,229,191,178,167,160,154,143,138,135,135,133,127,122,120,117,100,84,71,62],"timestamp_mouse":[12,33,47,67,86,108,127,147,166,186,207,228,247,266,286,306,326,347,367,387,406,427,447,467,486,507,528,547,567,587,608,627,646,666,687,707,727,747,768,786,806,827,848,867,888,906,927,946,967,987,1006,1027,1047,1067,1087,1106,1127,1147,1167,1187,1207,1228,1247],"xSR":741.5,"ySR":501.8,"xT1":424.9,"yT1":0,"xT2":1058.1,"yT2":0,"toosoon":0,"cond_shown":"Incongruent","ratio_trial":300,"L_num":13,"L_den":26,"R_num":12,"R_den":15,"correct_side":2,"subjID":"nicolasgonzalez14","gender":"0","school":" 6","age":"11"},{"start_time":1551899690488,"click_time":1551899691869,"finger_time":1551899691349,"fix_duration":979.8929177234068,"trial":10,"RT":861,"MT":520,"sideResp":1,"stimulus":[],"xmouse":[826,826,826,826,826,826,826,826,826,826,826,826,826,826,826,826,826,826,826,826,826,826,826,826,826,826,826,826,826,826,826,826,826,826,825,813,801,789,784,781,780,770,751,729,695,606,568,534,514,481,472,467,457,445,430,393,381,376,374,374,380,383,386,387,390,390,392,399,417,439],"ymouse":[549,549,549,549,549,549,549,549,549,549,549,549,549,549,549,549,549,549,549,549,549,549,549,549,549,549,549,549,549,549,549,549,549,549,549,554,563,571,575,575,575,570,555,537,512,445,412,387,362,325,310,299,281,257,228,153,123,103,84,57,48,46,44,42,40,40,40,44,49,58],"timestamp_mouse":[2,20,39,60,80,100,120,140,160,179,199,220,240,260,280,300,320,340,359,380,400,421,440,460,480,500,521,540,560,580,599,620,641,660,679,700,721,741,760,779,800,820,840,861,880,900,920,941,960,980,1000,1020,1041,1060,1080,1100,1120,1140,1160,1181,1200,1219,1240,1260,1280,1300,1320,1339,1360,1380],"xSR":741.5,"ySR":501.8,"xT1":424.9,"yT1":0,"xT2":1058.1,"yT2":0,"toosoon":0,"cond_shown":"Incongruent","ratio_trial":100,"L_num":13,"L_den":26,"R_num":6,"R_den":10,"correct_side":2,"subjID":"nicolasgonzalez14","gender":"0","school":" 6","age":"11"},{"start_time":1551899693910,"click_time":1551899695328,"finger_time":1551899695108,"fix_duration":1319.2998123294858,"trial":11,"RT":1198,"MT":220,"sideResp":1,"stimulus":[],"xmouse":[814,814,814,814,814,814,814,814,814,814,814,814,814,814,814,814,814,814,814,814,814,814,814,814,814,814,814,814,814,814,814,814,814,814,814,814,814,814,814,814,814,814,810,810,810,809,809,809,809,809,809,809,809,809,808,804,793,781,745,683,613,544,504,469,465,463,463,463,463,459,453],"ymouse":[564,564,564,564,564,564,564,564,564,564,564,564,564,564,564,564,564,564,564,564,564,564,564,564,564,564,564,564,564,564,564,564,564,564,564,564,564,564,564,564,564,562,559,559,559,558,558,558,558,558,558,558,558,558,558,554,543,530,504,455,407,355,314,260,246,231,214,191,127,102,80],"timestamp_mouse":[18,39,58,77,97,118,138,157,178,198,218,239,258,278,298,318,337,358,378,398,418,437,458,478,498,517,538,559,578,598,618,638,658,678,697,717,738,759,778,798,818,838,858,878,898,917,937,959,978,998,1018,1037,1058,1079,1098,1119,1138,1158,1178,1198,1218,1239,1258,1278,1298,1318,1338,1359,1377,1398,1417],"xSR":741.5,"ySR":501.8,"xT1":424.9,"yT1":0,"xT2":1058.1,"yT2":0,"toosoon":0,"cond_shown":"Incongruent","ratio_trial":300,"L_num":8,"L_den":10,"R_num":14,"R_den":28,"correct_side":1,"subjID":"nicolasgonzalez14","gender":"0","school":" 6","age":"11"},{"start_time":1551899703277,"click_time":1551899706188,"finger_time":1551899705868,"fix_duration":588.4640982612912,"trial":12,"RT":2591,"MT":320,"sideResp":1,"stimulus":[],"xmouse":[780,780,780,780,780,780,780,780,780,780,780,780,780,780,780,780,780,780,780,780,780,780,780,780,780,780,780,780,780,780,780,780,780,780,780,780,780,780,780,780,780,780,780,780,780,780,780,780,780,780,780,780,780,780,780,780,780,780,780,780,780,780,780,780,780,780,780,780,780,780,780,780,780,780,780,780,780,780,780,780,780,780,780,780,780,780,780,780,780,780,780,780,780,780,780,780,780,780,780,780,780,780,780,780,780,780,780,780,780,780,780,780,780,780,780,780,780,780,780,780,780,780,780,780,780,780,780,780,772,657,544,523,523,523,522,499,475,429,388,366,366,366,366,366,404,425],"ymouse":[529,529,529,529,529,529,529,529,529,529,529,529,529,529,529,529,529,529,529,529,529,529,529,529,529,529,529,529,529,529,529,529,529,529,529,529,529,529,529,529,529,529,529,529,529,529,529,529,529,529,529,529,529,529,529,529,529,529,529,529,529,529,529,529,529,529,529,529,529,529,529,529,529,529,529,529,529,529,529,529,529,529,529,529,529,529,529,529,529,529,529,529,529,529,529,529,529,529,529,529,529,529,529,529,529,529,529,529,529,529,529,529,529,529,529,529,529,529,529,529,529,529,529,529,529,529,529,529,529,529,542,551,551,551,550,471,367,241,164,117,117,117,117,116,44,13],"timestamp_mouse":[10,30,51,72,90,111,131,152,171,191,211,231,251,271,291,310,331,351,370,391,411,431,450,470,491,512,531,551,571,591,611,630,651,671,691,711,730,751,771,791,811,832,851,871,892,911,932,951,971,991,1011,1031,1051,1072,1090,1111,1131,1151,1171,1190,1211,1231,1250,1271,1291,1311,1332,1350,1370,1391,1411,1430,1452,1471,1491,1512,1531,1550,1571,1591,1610,1631,1651,1671,1692,1711,1732,1751,1771,1791,1811,1831,1850,1871,1890,1911,1931,1951,1970,1991,2011,2032,2051,2070,2091,2111,2131,2150,2171,2191,2211,2231,2251,2271,2291,2310,2330,2350,2371,2392,2411,2431,2451,2471,2492,2511,2531,2551,2571,2591,2611,2632,2652,2671,2691,2711,2731,2751,2771,2792,2811,2831,2851,2871,2892,2910],"xSR":741.5,"ySR":501.8,"xT1":424.9,"yT1":0,"xT2":1058.1,"yT2":0,"toosoon":0,"cond_shown":"Incongruent","ratio_trial":300,"L_num":2,"L_den":4,"R_num":6,"R_den":30,"correct_side":1,"subjID":"nicolasgonzalez14","gender":"0","school":" 6","age":"11"},{"start_time":1551899734424,"click_time":1551899736008,"finger_time":1551899734948,"fix_duration":714.6844226780412,"trial":13,"RT":524,"MT":1060,"sideResp":1,"stimulus":[],"xmouse":[776,776,776,776,776,776,776,776,776,776,776,776,776,776,776,777,775,761,757,757,757,757,757,758,759,761,763,764,764,764,764,764,764,764,764,764,764,764,764,764,764,764,765,762,748,721,695,667,663,662,661,661,660,630,558,509,491,489,490,492,494,496,501,504,511,517,518,519,519,519,519,519,520,517,517,516,516,515,515,515],"ymouse":[506,506,506,506,506,506,506,506,506,506,506,506,506,506,506,507,511,520,523,523,523,523,523,522,522,515,501,490,475,469,464,462,459,458,458,458,457,457,457,457,457,456,445,412,363,311,275,237,231,229,227,227,226,207,173,150,138,132,130,129,126,122,115,111,107,104,104,104,104,104,104,104,104,103,102,102,102,101,101,96],"timestamp_mouse":[11,24,49,64,84,104,124,144,164,185,204,224,245,264,285,304,324,345,364,384,404,423,444,465,484,504,524,544,564,585,604,624,644,664,685,704,724,744,763,783,804,823,844,864,884,903,925,945,963,985,1004,1024,1044,1063,1084,1104,1124,1144,1163,1184,1205,1224,1245,1264,1284,1304,1324,1344,1364,1384,1404,1424,1444,1464,1484,1503,1523,1544,1564,1584],"xSR":741.5,"ySR":501.8,"xT1":424.9,"yT1":0,"xT2":1058.1,"yT2":0,"toosoon":0,"cond_shown":"Congruent","ratio_trial":300,"L_num":20,"L_den":25,"R_num":9,"R_den":18,"correct_side":1,"subjID":"nicolasgonzalez14","gender":"0","school":" 6","age":"11"},{"start_time":1551899743605,"click_time":1551899745108,"finger_time":1551899743968,"fix_duration":1416.043082075598,"trial":14,"RT":363,"MT":1140,"sideResp":2,"stimulus":[],"xmouse":[827,825,823,821,820,820,820,820,820,820,820,820,820,820,820,820,822,825,826,826,826,826,826,826,826,828,830,830,830,830,832,832,832,832,832,832,832,832,833,835,837,837,837,838,840,844,851,865,881,919,939,953,965,982,987,989,993,996,998,1000,1000,1000,1000,1002,1008,1009,1010,1010,1011,1014,1014,1018,1029,1057,1085,1101],"ymouse":[531,524,519,513,512,512,512,512,512,512,512,512,512,512,512,510,508,503,493,488,484,481,478,477,473,470,467,467,467,467,465,465,465,465,465,465,465,465,464,459,445,424,404,375,363,348,331,315,298,267,253,245,237,225,221,219,216,212,208,206,206,206,206,198,179,175,174,173,173,171,171,168,157,131,104,85],"timestamp_mouse":[4,25,44,63,82,103,123,142,163,183,203,223,243,263,283,302,323,344,363,383,403,423,443,464,483,503,523,544,564,583,603,623,643,663,683,702,724,744,764,783,803,824,843,864,882,902,923,943,963,983,1004,1023,1043,1063,1082,1103,1123,1143,1163,1182,1203,1223,1243,1263,1282,1303,1323,1343,1363,1383,1404,1424,1443,1464,1482,1503],"xSR":741.5,"ySR":501.8,"xT1":424.9,"yT1":0,"xT2":1058.1,"yT2":0,"toosoon":0,"cond_shown":"Congruent","ratio_trial":300,"L_num":1,"L_den":5,"R_num":6,"R_den":12,"correct_side":2,"subjID":"nicolasgonzalez14","gender":"0","school":" 6","age":"11"},{"start_time":1551899748525,"click_time":1551899764968,"finger_time":1551899761447,"fix_duration":1356.105107212986,"trial":15,"RT":12922,"MT":3521,"sideResp":2,"stimulus":[],"xmouse":[804,804,804,804,804,804,804,804,804,804,804,804,804,804,804,804,804,804,804,804,804,804,804,804,804,804,804,804,804,804,804,804,804,804,804,804,804,804,804,804,804,804,804,804,804,804,804,804,804,804,804,804,804,804,804,804,804,804,804,804,804,804,804,804,804,804,804,804,804,804,804,804,804,804,804,804,804,804,804,804,804,804,804,804,804,804,804,804,804,804,804,804,804,804,804,804,804,804,804,804,804,804,804,804,804,804,804,804,804,804,804,804,804,804,804,804,804,804,804,804,804,804,804,804,804,804,804,804,804,804,804,804,804,804,804,804,804,804,804,804,804,804,804,804,804,804,804,804,804,804,804,804,804,804,804,804,804,804,804,804,804,804,804,804,804,804,804,804,804,804,804,804,804,804,804,804,804,804,804,804,804,804,804,804,804,804,804,804,804,804,804,804,804,804,804,804,804,804,804,804,804,804,804,804,804,804,804,804,804,804,804,804,804,804,804,804,804,804,804,804,804,804,804,804,804,804,804,804,804,804,804,804,804,804,804,804,804,804,804,804,804,804,804,804,804,804,804,804,804,804,804,804,804,804,804,804,804,804,804,804,804,804,804,804,804,804,804,804,804,804,804,804,804,804,804,804,804,804,804,804,804,804,804,804,804,804,804,804,804,804,804,804,804,804,804,804,804,804,804,804,804,804,804,804,804,804,804,804,804,804,804,804,804,804,804,804,804,804,804,804,804,804,804,804,804,804,804,804,804,804,804,804,804,804,804,804,804,804,804,804,804,804,804,804,804,804,804,804,804,804,804,804,804,804,804,804,804,804,804,804,804,804,804,804,804,804,804,804,804,804,804,804,804,804,804,804,804,804,804,804,804,804,804,804,804,804,804,804,804,804,804,804,804,804,804,804,804,804,804,804,804,804,804,804,804,804,804,804,804,804,804,804,804,804,804,804,804,804,804,804,804,804,804,804,804,804,804,804,804,804,804,804,804,804,804,804,804,804,804,804,804,804,804,804,804,804,804,804,804,804,804,804,804,804,804,804,804,804,804,804,804,804,804,804,804,804,804,804,804,804,804,804,804,804,804,804,804,804,804,804,804,804,804,804,804,804,804,804,804,804,804,804,804,804,804,804,804,804,804,804,804,804,804,804,804,804,804,804,804,804,804,804,804,804,804,804,804,804,804,804,804,804,804,804,804,804,804,804,804,804,804,804,804,804,804,804,804,804,804,804,804,804,804,804,804,804,804,804,804,804,804,804,804,804,804,804,804,804,804,804,804,804,804,804,804,804,804,804,804,804,804,804,804,804,804,804,804,804,804,804,804,804,804,804,804,804,804,804,804,804,804,804,804,804,804,804,804,804,804,804,804,804,804,804,804,804,804,804,804,804,804,804,804,804,804,804,804,804,804,804,804,804,804,804,804,804,804,804,804,804,804,804,804,804,804,804,804,804,804,804,804,804,804,804,793,766,731,713,707,707,707,707,707,707,707,704,684,576,480,446,432,431,431,431,431,431,431,431,431,431,431,431,431,431,431,431,431,431,431,431,431,431,431,431,431,431,431,431,431,431,431,431,431,431,431,431,431,431,431,431,431,431,431,431,431,431,431,431,431,431,431,431,431,431,431,429,422,375,358,358,358,358,358,359,367,379,397,439,473,497,518,526,532,538,540,542,548,584,663,722,777,803,833,851,870,887,898,902,902,902,902,901,874,858,847,837,836,836,835,834,824,813,805,805,805,805,805,805,805,805,805,805,805,805,805,805,805,805,805,805,805,805,805,803,790,782,781,781,781,781,781,781,781,781,781,781,781,802,959,1102,1232,1267,1267,1267,1267,1267,1267,1267,1267,1267,1267,1267,1199,1171,1153,1144,1142,1142,1142,1142,1142,1142,1142],"ymouse":[562,562,562,562,562,562,562,562,562,562,562,562,562,562,562,562,562,562,562,562,562,562,562,562,562,562,562,562,562,562,562,562,562,562,562,562,562,562,562,562,562,562,562,562,562,562,562,562,562,562,562,562,562,562,562,562,562,562,562,562,562,562,562,562,562,562,562,562,562,562,562,562,562,562,562,562,562,562,562,562,562,562,562,562,562,562,562,562,562,562,562,562,562,562,562,562,562,562,562,562,562,562,562,562,562,562,562,562,562,562,562,562,562,562,562,562,562,562,562,562,562,562,562,562,562,562,562,562,562,562,562,562,562,562,562,562,562,562,562,562,562,562,562,562,562,562,562,562,562,562,562,562,562,562,562,562,562,562,562,562,562,562,562,562,562,562,562,562,562,562,562,562,562,562,562,562,562,562,562,562,562,562,562,562,562,562,562,562,562,562,562,562,562,562,562,562,562,562,562,562,562,562,562,562,562,562,562,562,562,562,562,562,562,562,562,562,562,562,562,562,562,562,562,562,562,562,562,562,562,562,562,562,562,562,562,562,562,562,562,562,562,562,562,562,562,562,562,562,562,562,562,562,562,562,562,562,562,562,562,562,562,562,562,562,562,562,562,562,562,562,562,562,562,562,562,562,562,562,562,562,562,562,562,562,562,562,562,562,562,562,562,562,562,562,562,562,562,562,562,562,562,562,562,562,562,562,562,562,562,562,562,562,562,562,562,562,562,562,562,562,562,562,562,562,562,562,562,562,562,562,562,562,562,562,562,562,562,562,562,562,562,562,562,562,562,562,562,562,562,562,562,562,562,562,562,562,562,562,562,562,562,562,562,562,562,562,562,562,562,562,562,562,562,562,562,562,562,562,562,562,562,562,562,562,562,562,562,562,562,562,562,562,562,562,562,562,562,562,562,562,562,562,562,562,562,562,562,562,562,562,562,562,562,562,562,562,562,562,562,562,562,562,562,562,562,562,562,562,562,562,562,562,562,562,562,562,562,562,562,562,562,562,562,562,562,562,562,562,562,562,562,562,562,562,562,562,562,562,562,562,562,562,562,562,562,562,562,562,562,562,562,562,562,562,562,562,562,562,562,562,562,562,562,562,562,562,562,562,562,562,562,562,562,562,562,562,562,562,562,562,562,562,562,562,562,562,562,562,562,562,562,562,562,562,562,562,562,562,562,562,562,562,562,562,562,562,562,562,562,562,562,562,562,562,562,562,562,562,562,562,562,562,562,562,562,562,562,562,562,562,562,562,562,562,562,562,562,562,562,562,562,562,562,562,562,562,562,562,562,562,562,562,562,562,562,562,562,562,562,562,562,562,562,562,562,562,562,562,562,562,562,562,562,562,562,562,562,562,562,562,562,562,562,562,562,562,562,562,562,562,562,562,562,562,562,562,562,562,562,562,562,562,562,562,562,562,562,562,562,562,562,562,562,562,562,562,562,562,562,562,562,562,562,562,559,551,543,538,537,537,537,537,537,537,537,536,522,462,431,425,423,423,423,423,423,423,423,423,423,423,423,423,423,423,423,423,423,423,423,423,423,423,423,423,423,423,423,423,423,423,423,423,423,423,423,423,423,423,423,423,423,423,423,423,423,423,423,423,423,423,423,423,423,423,423,423,427,543,599,602,602,602,602,602,602,602,602,602,598,592,585,577,573,567,565,563,559,543,536,538,548,556,566,572,581,585,587,588,588,588,588,588,586,585,585,584,583,583,583,582,576,569,565,565,565,565,565,565,565,565,565,565,565,565,565,565,565,565,565,565,565,565,565,563,559,558,558,558,558,558,558,558,558,558,558,558,558,533,373,214,66,17,17,17,17,17,17,17,17,17,17,17,88,129,156,167,170,170,170,170,170,167,71],"timestamp_mouse":[10,23,42,63,83,103,123,142,163,183,203,222,243,263,283,302,323,343,363,383,403,423,442,462,483,503,523,543,564,584,603,623,643,664,684,703,724,743,762,783,803,824,843,863,882,902,923,943,963,984,1003,1022,1043,1063,1083,1103,1122,1143,1163,1183,1202,1223,1243,1264,1283,1303,1323,1344,1364,1383,1403,1424,1443,1463,1483,1502,1523,1543,1563,1583,1603,1622,1643,1663,1684,1703,1723,1743,1762,1782,1803,1824,1843,1862,1883,1902,1923,1942,1964,1983,2003,2023,2043,2062,2082,2103,2124,2144,2163,2183,2202,2222,2243,2262,2283,2302,2322,2342,2362,2383,2403,2422,2443,2462,2482,2502,2522,2542,2562,2582,2603,2623,2642,2662,2683,2702,2723,2742,2762,2783,2802,2822,2842,2862,2882,2903,2922,2943,2962,2982,3003,3023,3043,3062,3083,3102,3122,3142,3162,3182,3202,3222,3243,3263,3282,3302,3322,3342,3362,3382,3403,3422,3442,3462,3482,3502,3522,3542,3562,3582,3603,3623,3642,3662,3683,3704,3722,3742,3762,3783,3803,3822,3842,3862,3883,3902,3922,3942,3964,3982,4003,4022,4042,4062,4083,4103,4123,4142,4164,4182,4202,4223,4243,4262,4282,4302,4322,4342,4362,4382,4402,4422,4442,4462,4482,4502,4523,4543,4562,4582,4602,4623,4642,4662,4683,4703,4722,4742,4762,4783,4803,4823,4842,4862,4883,4902,4922,4942,4962,4983,5002,5022,5042,5063,5082,5103,5122,5142,5162,5182,5203,5222,5242,5263,5283,5302,5322,5343,5362,5382,5403,5423,5443,5462,5482,5503,5524,5543,5562,5582,5602,5622,5642,5664,5682,5702,5723,5742,5762,5783,5803,5822,5842,5862,5882,5902,5922,5942,5963,5983,6003,6022,6042,6062,6083,6102,6123,6143,6162,6183,6202,6222,6242,6262,6282,6302,6322,6342,6362,6382,6402,6422,6443,6462,6482,6502,6522,6542,6562,6584,6603,6622,6642,6662,6682,6703,6722,6742,6762,6782,6802,6822,6843,6864,6882,6902,6922,6942,6962,6982,7002,7022,7042,7062,7082,7102,7122,7143,7162,7182,7202,7222,7242,7262,7283,7304,7322,7342,7362,7382,7402,7422,7442,7463,7482,7502,7522,7543,7562,7583,7602,7624,7642,7662,7682,7702,7722,7743,7762,7782,7802,7822,7843,7862,7882,7902,7922,7943,7963,7982,8002,8022,8042,8064,8083,8104,8122,8143,8162,8182,8202,8222,8242,8262,8282,8302,8322,8342,8363,8382,8402,8422,8443,8463,8483,8503,8523,8543,8563,8582,8602,8622,8642,8663,8682,8703,8726,8742,8762,8782,8802,8823,8842,8862,8883,8903,8922,8942,8962,8983,9002,9023,9042,9062,9082,9102,9122,9142,9162,9182,9202,9222,9242,9262,9282,9304,9323,9342,9362,9382,9404,9423,9442,9462,9482,9502,9522,9543,9562,9583,9603,9622,9642,9662,9682,9702,9722,9743,9762,9782,9802,9822,9842,9863,9882,9902,9923,9943,9963,9982,10002,10023,10042,10062,10082,10103,10122,10142,10162,10182,10202,10222,10242,10262,10283,10302,10322,10342,10363,10382,10402,10422,10442,10463,10482,10502,10522,10542,10562,10583,10603,10622,10642,10662,10682,10702,10722,10742,10763,10782,10802,10822,10842,10863,10882,10902,10923,10943,10964,10982,11002,11022,11043,11062,11082,11102,11122,11142,11163,11182,11203,11222,11242,11263,11282,11302,11322,11343,11363,11382,11402,11423,11442,11462,11483,11503,11522,11542,11563,11583,11603,11623,11642,11662,11683,11702,11722,11743,11762,11782,11802,11822,11843,11863,11882,11902,11922,11942,11964,11983,12002,12022,12043,12062,12082,12102,12122,12142,12162,12182,12202,12224,12242,12262,12283,12302,12322,12342,12362,12382,12403,12423,12442,12462,12482,12502,12523,12542,12563,12582,12602,12623,12643,12662,12682,12702,12722,12742,12763,12782,12802,12822,12842,12862,12882,12902,12922,12942,12962,12982,13003,13022,13043,13062,13082,13102,13122,13143,13162,13182,13202,13223,13243,13263,13284,13302,13322,13343,13362,13382,13402,13422,13442,13462,13482,13503,13522,13543,13562,13582,13602,13622,13642,13662,13683,13702,13722,13744,13764,13782,13802,13822,13843,13862,13882,13902,13922,13942,13963,13983,14003,14023,14043,14062,14082,14102,14122,14143,14162,14182,14202,14223,14243,14264,14283,14302,14322,14342,14362,14383,14403,14422,14443,14462,14482,14502,14522,14542,14562,14582,14602,14622,14642,14662,14682,14703,14723,14743,14762,14782,14803,14822,14842,14862,14882,14903,14922,14943,14963,14983,15002,15022,15043,15062,15082,15102,15123,15142,15162,15182,15204,15223,15243,15263,15282,15302,15322,15343,15362,15382,15402,15423,15442,15462,15482,15503,15522,15543,15562,15582,15602,15623,15642,15662,15683,15703,15723,15742,15762,15782,15802,15822,15842,15862,15884,15902,15922,15942,15962,15982,16002,16023,16043,16063,16083,16103,16122,16142,16162,16183,16202,16222,16243,16262,16283,16302,16323,16342,16362,16382,16402,16422,16443],"xSR":741.5,"ySR":501.8,"xT1":424.9,"yT1":0,"xT2":1058.1,"yT2":0,"toosoon":0,"cond_shown":"Congruent","ratio_trial":200,"L_num":3,"L_den":10,"R_num":11,"R_den":22,"correct_side":2,"subjID":"nicolasgonzalez14","gender":"0","school":" 6","age":"11"},{"start_time":1551899766881,"click_time":1551899768987,"finger_time":1551899768147,"fix_duration":1052.5595509514894,"trial":16,"RT":1266,"MT":840,"sideResp":1,"stimulus":[],"xmouse":[790,790,790,790,790,790,790,790,790,790,790,790,790,790,790,790,790,790,790,790,790,790,790,790,790,790,790,790,790,790,790,790,790,790,790,790,790,790,790,790,790,790,790,790,790,790,790,790,790,790,790,790,790,790,790,790,790,790,790,790,782,774,746,689,610,610,610,610,610,581,579,577,573,570,568,567,566,564,557,546,524,518,515,512,503,500,498,497,496,495,495,495,495,494,492,492,492,492,491,491,491,491,491,491,491,491],"ymouse":[589,589,589,589,589,589,589,589,589,589,589,589,589,589,589,589,589,589,589,589,589,589,589,589,589,589,589,589,589,589,589,589,589,589,589,589,589,589,589,589,589,589,589,589,589,589,589,589,589,589,589,589,589,589,589,589,589,589,589,589,580,565,523,458,356,356,356,356,356,332,330,329,327,323,313,308,302,293,279,260,214,202,197,191,182,179,176,172,168,160,154,147,137,129,119,117,114,111,109,105,103,102,101,101,100,99],"timestamp_mouse":[10,26,46,67,86,106,126,147,167,187,208,226,246,267,286,306,326,346,366,386,407,426,447,466,486,507,527,546,566,586,606,626,646,666,686,707,726,746,766,786,806,826,846,866,886,906,926,947,966,986,1006,1026,1046,1066,1087,1106,1127,1146,1166,1186,1206,1226,1246,1266,1287,1306,1326,1346,1367,1387,1406,1426,1446,1466,1487,1506,1527,1546,1567,1586,1606,1626,1646,1666,1686,1706,1726,1746,1766,1787,1807,1826,1846,1866,1886,1906,1926,1946,1966,1987,2006,2027,2046,2066,2087,2106],"xSR":741.5,"ySR":501.8,"xT1":424.9,"yT1":0,"xT2":1058.1,"yT2":0,"toosoon":0,"cond_shown":"Congruent","ratio_trial":300,"L_num":24,"L_den":30,"R_num":2,"R_den":4,"correct_side":1,"subjID":"nicolasgonzalez14","gender":"0","school":" 6","age":"11"},{"start_time":1551899785533,"click_time":1551899785868,"finger_time":1551899785748,"fix_duration":843.7604156606374,"trial":17,"RT":215,"MT":120,"sideResp":2,"stimulus":[],"xmouse":[786,786,786,786,786,786,786,786,786,799,833,941,998,1053,1085,1098,1100],"ymouse":[529,529,529,529,529,529,529,529,529,513,474,346,272,200,144,112,90],"timestamp_mouse":[15,49,54,74,94,115,134,154,174,195,215,234,254,275,295,314,335],"xSR":741.5,"ySR":501.8,"xT1":424.9,"yT1":0,"xT2":1058.1,"yT2":0,"toosoon":0,"cond_shown":"Congruent","ratio_trial":300,"L_num":4,"L_den":10,"R_num":1,"R_den":10,"correct_side":1,"subjID":"nicolasgonzalez14","gender":"0","school":" 6","age":"11"},{"start_time":1551899787303,"click_time":1551899787847,"finger_time":1551899787607,"fix_duration":594.3431696646445,"trial":18,"RT":304,"MT":240,"sideResp":1,"stimulus":[],"xmouse":[818,818,818,818,818,818,818,816,794,794,794,789,784,777,775,771,766,761,748,732,722,705,679,649,606,583,550,503],"ymouse":[586,586,586,586,586,586,586,586,586,585,578,562,548,521,504,480,447,406,318,253,203,167,131,89,63,59,58,58],"timestamp_mouse":[8,27,44,64,84,105,125,144,164,184,204,224,244,264,284,304,325,346,364,385,404,424,444,465,484,506,524,544],"xSR":741.5,"ySR":501.8,"xT1":424.9,"yT1":0,"xT2":1058.1,"yT2":0,"toosoon":0,"cond_shown":"Congruent","ratio_trial":200,"L_num":3,"L_den":10,"R_num":11,"R_den":22,"correct_side":2,"subjID":"nicolasgonzalez14","gender":"0","school":" 6","age":"11"},{"start_time":1551899789403,"click_time":1551899790048,"finger_time":1551899789687,"fix_duration":514.2173115236046,"trial":19,"RT":284,"MT":361,"sideResp":2,"stimulus":[],"xmouse":[806,806,806,806,806,806,806,806,806,806,806,806,807,835,865,881,892,899,904,904,904,904,903,903,898,898,898,899,926,954,992,1039,1076],"ymouse":[570,570,570,570,570,570,570,570,570,570,570,570,571,546,510,481,443,421,409,407,407,407,408,408,413,413,413,404,313,248,179,116,64],"timestamp_mouse":[10,34,44,64,86,104,124,146,164,185,204,224,244,264,284,304,324,345,364,384,404,424,445,464,484,504,526,545,564,584,604,624,645],"xSR":741.5,"ySR":501.8,"xT1":424.9,"yT1":0,"xT2":1058.1,"yT2":0,"toosoon":0,"cond_shown":"Congruent","ratio_trial":200,"L_num":13,"L_den":26,"R_num":14,"R_den":20,"correct_side":2,"subjID":"nicolasgonzalez14","gender":"0","school":" 6","age":"11"},{"start_time":1551899792919,"click_time":1551899794107,"finger_time":1551899793707,"fix_duration":250,"trial":20,"RT":788,"MT":400,"sideResp":2,"stimulus":[],"xmouse":[830,830,830,830,830,830,830,830,830,830,830,830,830,830,830,830,830,830,830,830,830,830,830,830,830,830,830,830,830,830,830,830,830,830,830,830,830,830,840,850,870,935,1154,1228,1264,1272,1272,1272,1272,1272,1272,1272,1272,1272,1272,1272,1272,1272,1272,1126],"ymouse":[547,547,547,547,547,547,547,547,547,547,547,547,547,547,547,547,547,547,547,547,547,547,547,547,547,547,547,547,547,547,547,547,547,547,547,545,543,540,530,520,497,420,170,84,39,18,4,4,4,4,4,4,4,4,4,4,4,4,4,21],"timestamp_mouse":[9,34,48,69,88,109,128,149,169,188,208,229,248,268,288,308,329,348,368,388,409,429,448,469,489,508,529,548,568,589,608,628,648,668,689,708,728,748,768,788,808,828,849,868,889,908,928,948,968,988,1008,1028,1048,1069,1088,1108,1128,1149,1168,1188],"xSR":741.5,"ySR":501.8,"xT1":424.9,"yT1":0,"xT2":1058.1,"yT2":0,"toosoon":0,"cond_shown":"Congruent","ratio_trial":200,"L_num":3,"L_den":10,"R_num":7,"R_den":14,"correct_side":2,"subjID":"nicolasgonzalez14","gender":"0","school":" 6","age":"11"},{"start_time":1551899796261,"click_time":1551899797468,"finger_time":1551899796848,"fix_duration":1231.212583866728,"trial":21,"RT":587,"MT":620,"sideResp":2,"stimulus":[],"xmouse":[818,818,818,818,818,818,818,818,818,818,818,818,818,818,818,821,821,821,821,822,822,822,822,822,822,822,822,816,798,776,725,707,702,702,702,702,705,710,717,725,752,763,774,800,822,845,853,859,864,873,896,911,919,924,927,936,951,976,1003,1029,1059],"ymouse":[566,566,566,566,566,566,566,566,566,566,566,566,566,566,566,560,558,558,558,558,558,558,558,558,558,558,557,547,524,499,442,415,407,403,401,398,393,386,379,370,336,318,291,251,218,181,167,155,145,129,102,88,82,78,76,67,58,52,47,45,44],"timestamp_mouse":[11,26,48,66,86,106,126,147,166,187,206,227,247,266,286,306,326,347,366,386,406,426,447,466,486,507,526,547,566,586,607,627,646,667,686,706,726,747,766,786,807,828,846,866,886,906,926,946,966,987,1008,1026,1046,1066,1086,1107,1126,1146,1167,1186,1207],"xSR":741.5,"ySR":501.8,"xT1":424.9,"yT1":0,"xT2":1058.1,"yT2":0,"toosoon":0,"cond_shown":"Congruent","ratio_trial":200,"L_num":13,"L_den":26,"R_num":14,"R_den":20,"correct_side":2,"subjID":"nicolasgonzalez14","gender":"0","school":" 6","age":"11"},{"start_time":1551899799504,"click_time":1551899800827,"finger_time":1551899800027,"fix_duration":656.4868799879342,"trial":22,"RT":523,"MT":800,"sideResp":1,"stimulus":[],"xmouse":[821,821,821,821,821,821,821,821,821,821,821,821,821,821,821,821,821,821,821,821,821,821,821,821,830,838,846,850,854,854,854,854,854,854,854,854,854,851,826,802,787,775,771,764,761,757,756,756,752,726,689,640,549,549,549,549,549,549,549,549,549,549,549,549,549,549,466],"ymouse":[542,542,542,542,542,542,542,542,542,542,542,542,542,542,542,542,542,542,542,542,542,542,542,541,533,525,517,513,507,507,507,507,507,507,507,507,506,507,523,535,542,548,552,558,561,562,563,563,561,469,352,224,36,36,36,36,36,36,36,36,36,36,36,36,36,36,4],"timestamp_mouse":[9,38,43,63,83,103,123,143,163,184,204,224,244,264,284,303,323,343,363,383,405,423,443,464,483,503,523,543,564,584,604,623,643,664,684,704,723,743,764,784,803,823,843,863,883,903,923,943,963,983,1003,1023,1044,1063,1084,1104,1124,1143,1163,1184,1203,1223,1244,1264,1283,1303,1323],"xSR":741.5,"ySR":501.8,"xT1":424.9,"yT1":0,"xT2":1058.1,"yT2":0,"toosoon":0,"cond_shown":"Incongruent","ratio_trial":100,"L_num":3,"L_den":9,"R_num":7,"R_den":30,"correct_side":1,"subjID":"nicolasgonzalez14","gender":"0","school":" 6","age":"11"},{"start_time":1551899804059,"click_time":1551899805787,"finger_time":1551899805527,"fix_duration":250,"trial":23,"RT":1468,"MT":260,"sideResp":2,"stimulus":[],"xmouse":[805,805,805,805,805,805,805,805,805,805,805,805,805,805,805,805,805,805,805,805,805,805,805,805,805,805,805,805,805,805,805,805,805,805,805,805,805,805,805,805,805,805,805,805,805,805,805,805,805,805,805,805,805,805,805,805,805,805,805,805,805,805,805,805,805,805,805,805,805,808,817,829,837,848,860,872,892,897,900,905,922,950,974,1001,1022,1058,1068],"ymouse":[570,570,570,570,570,570,570,570,570,570,570,570,570,570,570,570,570,570,570,570,570,570,570,570,570,570,570,570,570,570,570,570,570,570,570,570,570,570,570,570,570,570,570,570,570,570,570,570,570,570,570,570,570,570,570,570,570,570,570,570,570,570,570,570,570,570,570,570,567,564,558,550,544,535,519,496,420,392,365,338,269,212,176,144,118,83,72],"timestamp_mouse":[13,42,49,68,88,108,128,149,168,188,208,228,249,269,289,309,328,348,368,388,408,428,449,469,488,508,528,548,568,588,608,628,649,669,689,708,728,749,768,789,809,829,849,870,889,908,928,949,968,988,1008,1029,1049,1068,1088,1108,1129,1148,1170,1188,1208,1228,1249,1269,1288,1308,1328,1348,1368,1389,1408,1428,1448,1468,1488,1509,1528,1549,1569,1589,1608,1628,1648,1669,1689,1709,1728],"xSR":741.5,"ySR":501.8,"xT1":424.9,"yT1":0,"xT2":1058.1,"yT2":0,"toosoon":0,"cond_shown":"Incongruent","ratio_trial":200,"L_num":3,"L_den":4,"R_num":11,"R_den":20,"correct_side":1,"subjID":"nicolasgonzalez14","gender":"0","school":" 6","age":"11"},{"start_time":1551899807807,"click_time":1551899809408,"finger_time":1551899808927,"fix_duration":1058.8646560858551,"trial":24,"RT":1120,"MT":481,"sideResp":1,"stimulus":[],"xmouse":[772,772,772,772,772,772,772,772,772,772,772,772,772,772,772,772,772,772,772,772,772,772,772,772,772,772,772,772,772,772,772,772,772,772,772,772,772,772,772,772,772,772,772,772,772,772,772,772,772,772,772,772,772,772,771,756,741,728,710,686,680,672,661,626,570,532,495,480,451,434,423,418,415,412,412,412,413,413,416,422,433],"ymouse":[542,542,542,542,542,542,542,542,542,542,542,542,542,542,542,542,542,542,542,542,542,542,542,542,542,542,542,542,542,542,542,542,542,542,542,542,542,542,542,542,542,542,542,542,542,542,542,542,542,542,542,542,542,542,542,536,522,505,485,451,442,433,418,374,322,289,268,249,209,181,160,147,133,107,61,60,59,59,59,59,61],"timestamp_mouse":[9,21,42,60,80,100,121,140,161,180,200,220,241,260,280,301,320,340,361,382,401,420,440,461,481,501,520,540,560,580,601,620,640,660,680,701,721,740,760,780,801,821,840,860,880,900,921,940,960,980,1001,1020,1040,1060,1080,1100,1120,1140,1160,1180,1201,1220,1241,1260,1281,1300,1321,1340,1361,1380,1400,1420,1441,1460,1481,1500,1520,1540,1560,1580,1601],"xSR":741.5,"ySR":501.8,"xT1":424.9,"yT1":0,"xT2":1058.1,"yT2":0,"toosoon":0,"cond_shown":"Incongruent","ratio_trial":300,"L_num":7,"L_den":10,"R_num":8,"R_den":20,"correct_side":1,"subjID":"nicolasgonzalez14","gender":"0","school":" 6","age":"11"},{"start_time":1551899811778,"click_time":1551899813068,"finger_time":1551899812967,"fix_duration":250,"trial":25,"RT":1189,"MT":101,"sideResp":1,"stimulus":[],"xmouse":[773,773,773,773,769,769,769,769,769,769,769,769,769,769,769,769,769,769,769,769,769,769,769,769,769,769,769,769,769,769,769,769,769,769,769,769,769,769,769,769,769,769,769,769,769,769,769,769,769,769,769,769,769,769,769,769,767,760,745,680,627,564,513,484,471],"ymouse":[530,530,530,530,530,530,530,530,530,530,530,530,530,530,530,530,530,530,530,530,530,530,530,530,530,530,530,530,530,530,530,530,530,530,530,530,530,530,530,530,530,530,530,530,530,530,530,530,530,530,530,530,530,530,530,530,530,529,524,450,364,277,206,144,77],"timestamp_mouse":[12,30,49,69,89,108,129,149,168,189,209,228,249,270,289,309,330,349,369,389,409,428,450,470,489,510,529,549,569,589,608,630,648,669,689,709,729,750,769,789,809,829,850,869,888,909,929,949,968,990,1010,1029,1049,1068,1089,1109,1128,1149,1169,1189,1208,1229,1250,1269,1289],"xSR":741.5,"ySR":501.8,"xT1":424.9,"yT1":0,"xT2":1058.1,"yT2":0,"toosoon":0,"cond_shown":"Congruent","ratio_trial":300,"L_num":11,"L_den":22,"R_num":1,"R_den":5,"correct_side":1,"subjID":"nicolasgonzalez14","gender":"0","school":" 6","age":"11"},{"start_time":1551899814713,"click_time":1551899816307,"finger_time":1551899815966,"fix_duration":525.6455286324252,"trial":26,"RT":1253,"MT":341,"sideResp":1,"stimulus":[],"xmouse":[771,771,771,771,771,771,771,771,771,771,771,771,771,771,771,771,771,771,771,771,771,771,771,771,771,771,771,771,771,771,771,771,771,771,771,771,771,771,771,771,771,771,771,771,771,771,771,771,771,771,771,771,771,771,771,771,771,771,771,771,764,756,749,736,731,725,718,712,676,658,644,628,608,600,591,582,574,560,538,522],"ymouse":[525,525,525,525,525,525,525,525,525,525,525,525,525,525,525,525,525,525,525,525,525,525,525,525,525,525,525,525,525,525,525,525,525,525,525,525,525,525,525,525,525,525,525,525,525,525,525,525,525,525,525,525,525,525,525,525,525,525,525,525,519,507,496,481,471,458,440,417,333,303,279,256,217,197,178,162,152,134,112,98],"timestamp_mouse":[14,37,55,74,94,115,133,154,174,194,214,234,253,274,294,314,335,353,374,394,414,433,453,474,495,514,534,554,574,594,615,634,654,674,694,713,734,754,773,795,815,833,853,874,893,914,934,954,974,994,1014,1034,1055,1074,1094,1115,1134,1154,1175,1193,1214,1234,1253,1273,1294,1314,1334,1354,1375,1394,1414,1434,1454,1473,1495,1514,1534,1553,1574,1593],"xSR":741.5,"ySR":501.8,"xT1":424.9,"yT1":0,"xT2":1058.1,"yT2":0,"toosoon":0,"cond_shown":"Congruent","ratio_trial":100,"L_num":1,"L_den":2,"R_num":18,"R_den":30,"correct_side":2,"subjID":"nicolasgonzalez14","gender":"0","school":" 6","age":"11"},{"start_time":1551899817418,"click_time":1551899819307,"finger_time":1551899819006,"fix_duration":250,"trial":27,"RT":1588,"MT":301,"sideResp":1,"stimulus":[],"xmouse":[785,785,785,785,785,785,785,785,785,785,785,785,785,785,785,785,785,785,785,785,785,785,785,785,785,785,785,785,785,785,785,785,785,785,785,785,785,785,785,785,785,785,785,785,785,785,785,785,785,785,785,785,785,785,785,785,785,785,785,785,785,785,785,785,785,785,785,785,785,785,785,785,785,785,785,785,785,778,761,750,743,739,735,735,735,735,733,730,717,705,689,662,601,542,508],"ymouse":[546,546,546,546,546,546,546,546,546,546,546,546,546,546,546,546,546,546,546,546,546,546,546,546,546,546,546,546,546,546,546,546,546,546,546,546,546,546,546,546,546,546,546,546,546,546,546,546,546,546,546,546,546,546,546,546,546,546,546,546,546,546,546,546,546,546,546,546,546,546,546,546,546,546,546,546,546,535,514,501,493,488,482,482,481,480,477,472,442,417,379,324,181,75,26],"timestamp_mouse":[9,36,48,69,89,110,128,149,169,188,209,229,249,269,289,309,328,350,369,389,409,430,449,468,488,508,528,549,568,588,608,629,649,669,688,709,728,748,768,789,809,828,849,869,889,909,929,948,969,989,1010,1028,1049,1069,1088,1109,1129,1149,1169,1189,1209,1229,1248,1269,1289,1309,1328,1350,1369,1388,1408,1428,1449,1469,1489,1509,1529,1549,1568,1588,1609,1630,1649,1669,1689,1709,1729,1749,1768,1790,1809,1828,1849,1869,1889],"xSR":741.5,"ySR":501.8,"xT1":424.9,"yT1":0,"xT2":1058.1,"yT2":0,"toosoon":0,"cond_shown":"Incongruent","ratio_trial":100,"L_num":3,"L_den":6,"R_num":4,"R_den":10,"correct_side":1,"subjID":"nicolasgonzalez14","gender":"0","school":" 6","age":"11"},{"start_time":1551899821833,"click_time":1551899823767,"finger_time":1551899823288,"fix_duration":1444.4157825932894,"trial":28,"RT":1455,"MT":479,"sideResp":1,"stimulus":[],"xmouse":[793,793,793,793,793,793,793,793,793,793,793,793,793,793,793,793,793,793,793,793,793,793,793,793,793,793,793,791,788,787,786,786,786,786,786,786,786,786,786,786,786,786,786,786,786,786,786,786,786,786,786,786,786,786,786,786,786,786,786,786,786,786,786,786,786,786,786,786,786,786,784,777,705,677,649,623,602,599,598,598,596,593,577,569,561,559,558,558,558,558,558,556,555,551,544,538,524],"ymouse":[542,542,542,542,542,542,542,542,542,542,542,542,542,542,542,542,542,542,542,542,542,542,542,542,542,542,542,543,545,545,546,546,546,546,546,546,546,546,546,546,546,546,546,546,546,546,546,546,546,546,546,546,546,546,546,546,546,546,546,546,546,546,546,546,546,546,546,546,546,546,546,535,369,302,237,178,129,120,117,113,99,84,40,24,12,10,9,9,9,9,9,9,9,12,19,25,39],"timestamp_mouse":[14,34,65,74,94,114,133,155,174,193,214,234,254,274,294,314,334,354,374,393,414,435,454,475,494,514,534,554,574,595,615,635,654,673,694,713,733,754,774,795,814,835,854,874,894,914,934,953,974,994,1014,1033,1054,1073,1094,1113,1133,1154,1174,1193,1214,1234,1254,1274,1294,1314,1334,1355,1373,1394,1414,1434,1455,1474,1493,1514,1534,1554,1575,1593,1614,1634,1654,1674,1693,1713,1734,1754,1774,1794,1814,1835,1855,1874,1894,1914,1934],"xSR":741.5,"ySR":501.8,"xT1":424.9,"yT1":0,"xT2":1058.1,"yT2":0,"toosoon":0,"cond_shown":"Congruent","ratio_trial":100,"L_num":3,"L_den":6,"R_num":2,"R_den":5,"correct_side":1,"subjID":"nicolasgonzalez14","gender":"0","school":" 6","age":"11"},{"start_time":1551899827754,"click_time":1551899839567,"finger_time":1551899839027,"fix_duration":965.8521604755067,"trial":29,"RT":11273,"MT":540,"sideResp":2,"stimulus":[],"xmouse":[807,807,807,807,807,807,807,807,807,807,807,807,807,807,807,807,807,807,807,807,807,807,807,807,807,807,807,807,807,807,807,807,807,807,807,807,807,807,807,807,807,807,807,807,807,807,807,807,807,807,807,807,807,807,807,807,807,807,807,807,807,807,807,807,807,807,807,807,807,807,807,807,807,807,807,807,807,807,807,807,807,807,807,807,807,807,807,807,807,807,807,807,807,807,807,807,807,807,807,807,807,807,807,807,807,807,807,807,807,807,807,807,807,807,807,807,807,807,807,807,807,807,807,807,807,807,807,807,807,807,807,807,807,807,807,807,807,807,807,807,807,807,807,807,807,807,807,807,807,807,807,807,807,807,807,807,807,807,807,807,807,807,807,807,807,807,807,807,807,807,807,807,807,807,807,807,807,807,807,807,807,807,807,807,807,807,807,807,807,807,807,807,807,807,807,807,807,807,807,807,807,807,807,807,807,807,807,807,807,807,807,807,807,807,807,807,807,807,807,807,807,807,807,807,807,807,807,807,807,807,807,807,807,807,807,807,807,807,807,807,807,807,807,807,807,807,807,807,807,807,807,807,807,807,807,807,807,807,807,807,807,807,807,807,807,807,807,807,807,807,807,807,807,807,807,807,807,807,807,807,807,807,807,807,807,807,807,807,807,807,807,807,807,807,807,807,807,807,807,807,807,807,807,807,807,807,807,807,807,807,807,807,807,807,807,807,807,807,807,807,807,807,807,807,807,807,807,807,807,807,807,807,807,807,807,807,807,807,807,807,807,807,807,807,807,807,807,807,807,807,807,807,807,807,807,807,807,807,807,807,807,807,807,807,807,807,807,807,807,807,807,807,807,807,807,807,807,807,807,807,807,807,807,807,807,807,807,807,807,807,807,807,807,807,807,807,807,807,807,807,807,807,807,807,807,807,807,807,807,807,807,807,807,807,807,807,807,807,807,807,807,807,807,807,807,807,807,807,807,807,807,807,807,807,807,807,807,807,807,807,807,807,807,807,807,807,807,807,807,807,807,807,807,807,807,807,807,807,807,807,807,807,807,807,807,807,807,807,807,807,807,807,807,807,807,807,807,807,807,807,807,807,807,807,807,807,807,807,807,807,807,807,807,807,807,807,807,807,807,807,807,807,807,807,807,807,807,807,807,807,807,807,807,807,807,807,807,807,807,807,807,807,807,807,807,807,807,807,807,807,807,807,807,807,807,807,807,807,807,807,807,807,807,807,807,807,807,807,807,807,807,807,807,807,807,807,807,807,807,807,807,807,789,767,761,761,761,767,807,888,1144,1293,1351,1351,1351,1351,1351,1351,1351,1351,1351,1351,1351,1351,1351,1351,1351,1190,1174,1164,1158],"ymouse":[540,540,540,540,540,540,540,540,540,540,540,540,540,540,540,540,540,540,540,540,540,540,540,540,540,540,540,540,540,540,540,540,540,540,540,540,540,540,540,540,540,540,540,540,540,540,540,540,540,540,540,540,540,540,540,540,540,540,540,540,540,540,540,540,540,540,540,540,540,540,540,540,540,540,540,540,540,540,540,540,540,540,540,540,540,540,540,540,540,540,540,540,540,540,540,540,540,540,540,540,540,540,540,540,540,540,540,540,540,540,540,540,540,540,540,540,540,540,540,540,540,540,540,540,540,540,540,540,540,540,540,540,540,540,540,540,540,540,540,540,540,540,540,540,540,540,540,540,540,540,540,540,540,540,540,540,540,540,540,540,540,540,540,540,540,540,540,540,540,540,540,540,540,540,540,540,540,540,540,540,540,540,540,540,540,540,540,540,540,540,540,540,540,540,540,540,540,540,540,540,540,540,540,540,540,540,540,540,540,540,540,540,540,540,540,540,540,540,540,540,540,540,540,540,540,540,540,540,540,540,540,540,540,540,540,540,540,540,540,540,540,540,540,540,540,540,540,540,540,540,540,540,540,540,540,540,540,540,540,540,540,540,540,540,540,540,540,540,540,540,540,540,540,540,540,540,540,540,540,540,540,540,540,540,540,540,540,540,540,540,540,540,540,540,540,540,540,540,540,540,540,540,540,540,540,540,540,540,540,540,540,540,540,540,540,540,540,540,540,540,540,540,540,540,540,540,540,540,540,540,540,540,540,540,540,540,540,540,540,540,540,540,540,540,540,540,540,540,540,540,540,540,540,540,540,540,540,540,540,540,540,540,540,540,540,540,540,540,540,540,540,540,540,540,540,540,540,540,540,540,540,540,540,540,540,540,540,540,540,540,540,540,540,540,540,540,540,540,540,540,540,540,540,540,540,540,540,540,540,540,540,540,540,540,540,540,540,540,540,540,540,540,540,540,540,540,540,540,540,540,540,540,540,540,540,540,540,540,540,540,540,540,540,540,540,540,540,540,540,540,540,540,540,540,540,540,540,540,540,540,540,540,540,540,540,540,540,540,540,540,540,540,540,540,540,540,540,540,540,540,540,540,540,540,540,540,540,540,540,540,540,540,540,540,540,540,540,540,540,540,540,540,540,540,540,540,540,540,540,540,540,540,540,540,540,540,540,540,540,540,540,540,540,540,540,540,540,540,540,540,540,540,540,540,540,540,540,540,540,540,540,540,540,540,540,540,540,540,540,540,540,540,540,540,540,540,540,540,540,540,540,540,503,463,454,454,454,453,437,402,222,78,9,9,9,9,9,9,9,9,9,9,9,9,9,9,9,16,25,33,37],"timestamp_mouse":[13,36,52,72,93,113,133,153,173,193,212,233,252,273,293,313,334,353,372,393,412,432,452,474,493,513,533,554,573,593,612,632,652,672,693,713,733,753,772,793,814,832,853,874,893,913,933,953,974,993,1013,1033,1052,1073,1093,1113,1133,1153,1172,1192,1213,1233,1253,1273,1292,1313,1333,1353,1373,1393,1413,1433,1453,1473,1493,1513,1533,1553,1573,1593,1612,1633,1653,1674,1693,1712,1733,1753,1774,1793,1813,1833,1853,1872,1892,1913,1932,1953,1974,1992,2013,2034,2063,2073,2094,2113,2134,2152,2174,2193,2213,2234,2253,2272,2293,2313,2333,2352,2373,2392,2413,2433,2453,2473,2493,2513,2533,2553,2573,2593,2613,2632,2654,2673,2692,2713,2732,2752,2773,2793,2813,2832,2852,2873,2893,2913,2933,2952,2972,2992,3013,3033,3053,3073,3092,3113,3133,3153,3173,3193,3213,3233,3253,3274,3292,3313,3333,3353,3373,3394,3412,3432,3452,3472,3493,3513,3533,3553,3572,3593,3613,3632,3653,3673,3693,3713,3733,3753,3774,3792,3813,3832,3852,3873,3892,3913,3933,3953,3972,3992,4013,4033,4053,4073,4093,4113,4133,4153,4173,4193,4212,4233,4253,4273,4293,4313,4332,4352,4373,4392,4413,4433,4452,4473,4493,4513,4533,4553,4573,4593,4612,4632,4653,4673,4692,4712,4732,4753,4773,4792,4813,4833,4854,4873,4894,4912,4932,4953,4973,4993,5013,5033,5052,5073,5093,5113,5132,5152,5173,5193,5212,5232,5253,5273,5293,5313,5333,5354,5373,5393,5413,5432,5453,5473,5493,5513,5533,5553,5572,5593,5613,5632,5652,5672,5694,5713,5733,5754,5774,5793,5814,5832,5853,5872,5892,5912,5933,5953,5974,5993,6013,6033,6053,6073,6093,6112,6132,6152,6173,6194,6214,6233,6254,6273,6293,6312,6332,6352,6373,6392,6413,6433,6453,6473,6493,6513,6533,6553,6573,6593,6612,6633,6653,6673,6693,6714,6733,6753,6772,6793,6812,6832,6853,6873,6894,6913,6933,6953,6973,6993,7012,7033,7053,7073,7093,7114,7134,7153,7173,7193,7213,7232,7252,7272,7292,7313,7332,7354,7373,7394,7413,7433,7453,7473,7494,7513,7533,7553,7573,7593,7613,7632,7654,7673,7693,7713,7732,7752,7772,7792,7812,7833,7853,7873,7893,7913,7933,7952,7972,7992,8014,8034,8053,8074,8093,8113,8133,8152,8172,8192,8213,8234,8253,8274,8294,8313,8333,8352,8373,8393,8413,8434,8454,8473,8493,8512,8532,8554,8573,8593,8613,8633,8653,8673,8694,8713,8733,8753,8773,8793,8813,8833,8852,8872,8892,8913,8934,8953,8973,8993,9012,9032,9052,9072,9092,9113,9133,9154,9173,9192,9213,9234,9252,9272,9293,9313,9333,9353,9373,9393,9413,9432,9453,9474,9493,9513,9533,9554,9573,9592,9612,9633,9653,9673,9693,9713,9733,9752,9773,9793,9813,9833,9852,9873,9893,9913,9933,9952,9973,9993,10013,10033,10053,10073,10093,10113,10133,10153,10173,10193,10212,10233,10253,10273,10292,10313,10332,10353,10373,10394,10413,10434,10452,10473,10493,10512,10532,10554,10573,10594,10613,10632,10652,10673,10693,10714,10733,10753,10773,10794,10813,10833,10854,10873,10893,10912,10932,10953,10974,10993,11013,11033,11053,11073,11094,11113,11132,11153,11173,11193,11213,11232,11253,11273,11292,11313,11333,11352,11373,11393,11414,11432,11452,11472,11494,11514,11534,11553,11573,11593,11613,11634,11653,11673,11693,11714,11734,11753,11773,11792,11813],"xSR":741.5,"ySR":501.8,"xT1":424.9,"yT1":0,"xT2":1058.1,"yT2":0,"toosoon":0,"cond_shown":"Congruent","ratio_trial":200,"L_num":16,"L_den":20,"R_num":12,"R_den":20,"correct_side":1,"subjID":"nicolasgonzalez14","gender":"0","school":" 6","age":"11"},{"start_time":1551899841618,"click_time":1551899843507,"finger_time":1551899843367,"fix_duration":989.924954556197,"trial":30,"RT":1749,"MT":140,"sideResp":2,"stimulus":[],"xmouse":[781,781,781,781,781,781,781,781,781,781,781,781,781,781,781,781,781,781,781,781,781,781,781,781,781,781,781,781,781,781,781,781,781,781,781,781,781,781,781,781,781,781,781,781,781,781,781,781,781,781,781,781,781,781,781,781,781,781,781,781,781,781,781,781,781,781,781,781,781,781,781,781,781,781,781,781,781,781,781,781,781,781,781,781,781,788,805,881,914,934,943,962,1028,1054,1061],"ymouse":[574,574,574,574,574,574,574,574,574,574,574,574,574,574,574,574,574,574,574,574,574,574,574,574,574,574,574,574,574,574,574,574,574,574,574,574,574,574,574,574,574,574,574,574,574,574,574,574,574,574,574,574,574,574,574,574,574,574,574,574,574,574,574,574,574,574,574,574,574,574,574,574,574,574,574,574,574,574,574,574,574,574,574,574,574,560,533,426,365,315,257,197,73,37,22],"timestamp_mouse":[9,28,63,69,89,108,130,149,169,188,208,229,249,269,289,308,329,349,369,388,409,429,448,470,489,509,529,549,570,588,608,630,649,669,690,709,728,749,769,789,808,829,849,869,888,909,929,949,970,988,1009,1029,1049,1069,1088,1109,1129,1149,1169,1189,1209,1229,1249,1268,1289,1309,1329,1349,1369,1389,1409,1429,1449,1468,1488,1509,1529,1549,1570,1589,1609,1629,1649,1669,1689,1710,1729,1749,1768,1789,1809,1829,1849,1868,1889],"xSR":741.5,"ySR":501.8,"xT1":424.9,"yT1":0,"xT2":1058.1,"yT2":0,"toosoon":0,"cond_shown":"Incongruent","ratio_trial":200,"L_num":4,"L_den":30,"R_num":1,"R_den":3,"correct_side":2,"subjID":"nicolasgonzalez14","gender":"0","school":" 6","age":"11"},{"start_time":1551899846540,"click_time":1551899848287,"finger_time":1551899847946,"fix_duration":371.96006307581666,"trial":31,"RT":1406,"MT":341,"sideResp":2,"stimulus":[],"xmouse":[801,801,801,801,801,800,796,793,792,792,792,791,790,788,786,784,779,777,777,774,771,770,770,770,770,770,770,770,770,768,767,764,761,760,760,760,758,755,754,753,753,753,753,753,753,753,753,753,753,753,753,753,753,753,753,753,753,753,752,751,750,750,750,750,750,750,750,750,746,742,741,746,782,848,910,954,1007,1016,1024,1030,1038,1051,1052,1052,1052,1052,1053,1060],"ymouse":[570,570,570,570,570,570,567,563,562,562,561,560,559,559,557,557,556,555,555,555,554,554,554,554,554,554,554,554,554,554,554,554,554,554,554,554,552,552,552,552,552,552,552,552,552,552,552,552,552,552,552,552,552,552,552,552,552,552,552,552,552,552,552,552,552,552,552,552,550,549,548,539,505,425,345,278,183,148,123,101,84,62,59,58,58,58,57,49],"timestamp_mouse":[13,27,47,67,87,107,127,147,167,187,207,228,246,266,286,307,326,346,366,386,406,427,446,466,487,508,527,547,567,587,606,627,646,667,687,707,726,747,766,788,806,826,848,867,887,907,927,947,968,987,1007,1027,1047,1067,1086,1107,1127,1148,1166,1187,1207,1227,1247,1268,1287,1307,1327,1347,1366,1388,1406,1427,1446,1467,1487,1506,1527,1547,1567,1587,1607,1627,1646,1666,1687,1706,1727,1747],"xSR":741.5,"ySR":501.8,"xT1":424.9,"yT1":0,"xT2":1058.1,"yT2":0,"toosoon":0,"cond_shown":"Incongruent","ratio_trial":100,"L_num":17,"L_den":30,"R_num":10,"R_den":15,"correct_side":2,"subjID":"nicolasgonzalez14","gender":"0","school":" 6","age":"11"},{"start_time":1551899851887,"click_time":1551899853427,"finger_time":1551899853327,"fix_duration":1298.7948536661852,"trial":32,"RT":1440,"MT":100,"sideResp":1,"stimulus":[],"xmouse":[804,804,804,804,804,804,804,804,804,804,804,804,804,804,804,804,804,804,804,804,804,804,804,804,804,804,804,804,804,804,804,804,804,804,804,804,804,804,804,804,804,804,804,804,804,804,804,804,804,804,804,804,804,804,804,804,804,804,804,804,804,804,804,804,804,804,804,804,804,804,804,804,802,800,768,703,605,494],"ymouse":[508,508,508,508,508,508,508,508,508,508,508,508,508,508,508,508,508,508,508,508,508,508,508,508,508,508,508,508,508,508,508,508,508,508,508,508,508,508,508,508,508,508,508,508,508,508,508,508,508,508,508,508,508,508,508,508,508,508,508,508,508,508,508,508,508,508,508,508,508,508,508,507,497,478,385,276,143,14],"timestamp_mouse":[2,20,43,60,80,100,120,140,160,179,199,219,241,259,279,300,320,340,360,381,400,420,440,460,480,499,519,539,560,580,599,620,639,660,680,699,720,739,760,779,799,819,840,860,879,900,920,939,960,979,1001,1021,1040,1060,1080,1100,1120,1140,1159,1179,1200,1221,1240,1260,1280,1300,1320,1340,1360,1380,1400,1419,1440,1460,1480,1499,1520,1540],"xSR":741.5,"ySR":501.8,"xT1":424.9,"yT1":0,"xT2":1058.1,"yT2":0,"toosoon":0,"cond_shown":"Incongruent","ratio_trial":100,"L_num":9,"L_den":10,"R_num":20,"R_den":25,"correct_side":1,"subjID":"nicolasgonzalez14","gender":"0","school":" 6","age":"11"},{"start_time":1551899855037,"click_time":1551899857967,"finger_time":1551899856287,"fix_duration":250,"trial":33,"RT":1250,"MT":1680,"sideResp":1,"stimulus":[],"xmouse":[764,763,763,763,763,763,763,763,763,763,763,763,779,785,789,790,790,790,790,790,790,793,795,798,800,800,800,800,800,800,800,800,800,800,800,800,800,800,800,800,800,800,800,800,800,800,800,799,798,797,797,797,797,797,797,797,797,797,797,797,791,781,708,684,661,639,606,593,583,577,573,567,565,565,565,565,570,571,572,572,572,570,559,555,550,548,548,553,555,559,565,602,649,672,684,689,696,700,704,710,719,736,741,745,746,748,752,758,767,776,782,786,788,788,788,788,788,786,779,774,768,756,752,748,746,746,736,722,704,682,657,640,611,605,605,605,605,593,593,593,593,593,593,593,593,593,457],"ymouse":[596,596,596,596,596,596,596,596,596,596,596,595,586,580,576,575,575,575,575,575,575,566,562,547,542,539,539,539,539,539,539,539,539,539,539,539,539,539,539,539,539,539,539,539,538,537,537,537,537,536,536,536,536,536,536,536,536,536,536,536,536,534,523,512,498,480,450,439,428,419,408,389,371,358,344,327,284,263,251,249,249,249,265,284,307,331,390,414,430,443,456,496,532,549,557,559,562,562,563,564,567,570,571,572,572,572,569,564,556,549,543,538,537,537,537,537,537,539,546,555,565,593,598,603,604,604,595,570,540,501,459,418,333,297,243,167,94,2,2,2,2,2,2,2,2,2,30],"timestamp_mouse":[10,42,50,70,90,111,131,150,170,191,210,229,249,269,290,310,330,350,370,390,409,430,450,469,489,510,529,550,570,590,610,630,650,670,689,710,730,750,769,790,810,830,849,870,889,910,930,949,970,990,1010,1029,1050,1070,1090,1109,1129,1151,1170,1189,1210,1230,1250,1270,1290,1310,1331,1349,1370,1390,1410,1429,1449,1470,1491,1510,1529,1549,1571,1591,1609,1630,1650,1670,1690,1710,1730,1749,1771,1790,1810,1831,1850,1870,1890,1910,1930,1949,1970,1990,2011,2031,2051,2071,2090,2109,2130,2149,2169,2190,2210,2229,2250,2269,2290,2310,2329,2349,2370,2390,2410,2430,2449,2469,2490,2509,2530,2550,2569,2589,2610,2630,2650,2669,2689,2710,2730,2751,2770,2791,2810,2830,2850,2870,2889,2909,2930],"xSR":741.5,"ySR":501.8,"xT1":424.9,"yT1":0,"xT2":1058.1,"yT2":0,"toosoon":0,"cond_shown":"Incongruent","ratio_trial":200,"L_num":1,"L_den":3,"R_num":2,"R_den":15,"correct_side":1,"subjID":"nicolasgonzalez14","gender":"0","school":" 6","age":"11"},{"start_time":1551899860294,"click_time":1551899861707,"finger_time":1551899861267,"fix_duration":1225.547624504413,"trial":34,"RT":973,"MT":440,"sideResp":2,"stimulus":[],"xmouse":[768,768,768,768,768,768,768,768,768,768,768,768,768,768,768,768,768,768,784,796,800,800,800,800,800,800,800,800,800,800,800,800,800,800,800,800,800,800,800,800,800,800,800,800,800,800,804,810,908,962,985,1004,1021,1068,1087,1097,1099,1099,1091,1085,1083,1077,1071,1041,1026,1021,1020,1020,1035,1050,1065],"ymouse":[560,560,560,560,560,560,560,560,560,560,560,560,560,560,560,560,560,560,571,582,586,586,586,586,586,586,586,586,586,586,586,586,586,586,586,586,586,586,586,586,586,586,586,586,586,586,586,585,545,511,494,478,463,423,403,384,363,343,309,287,274,257,239,182,152,131,115,99,59,39,26],"timestamp_mouse":[12,37,53,72,92,112,133,153,173,192,213,233,253,273,292,313,333,353,373,393,413,434,453,473,492,513,533,553,573,593,613,633,653,672,692,714,733,752,773,793,814,833,852,873,893,914,932,952,973,993,1012,1034,1053,1074,1092,1113,1133,1153,1173,1193,1212,1233,1253,1273,1292,1314,1333,1353,1373,1393,1412],"xSR":741.5,"ySR":501.8,"xT1":424.9,"yT1":0,"xT2":1058.1,"yT2":0,"toosoon":0,"cond_shown":"Incongruent","ratio_trial":200,"L_num":9,"L_den":15,"R_num":8,"R_den":10,"correct_side":2,"subjID":"nicolasgonzalez14","gender":"0","school":" 6","age":"11"},{"start_time":1551899863877,"click_time":1551899865427,"finger_time":1551899865067,"fix_duration":1229.5911523381208,"trial":35,"RT":1190,"MT":360,"sideResp":1,"stimulus":[],"xmouse":[796,796,796,796,796,796,795,795,795,795,795,795,795,795,795,795,795,795,795,794,794,793,793,793,793,793,793,793,793,793,793,793,793,793,793,793,793,793,793,793,793,793,793,793,793,793,793,793,793,793,793,793,793,793,793,793,793,792,791,783,751,697,668,647,635,613,600,584,569,552,552,552,552,552,552,552,552,512],"ymouse":[547,547,547,547,547,547,547,547,547,547,547,547,547,547,547,547,547,547,547,547,547,547,547,547,547,547,547,547,547,547,547,547,547,547,547,547,547,547,547,547,547,547,547,547,547,547,547,547,547,547,547,547,547,547,547,547,547,547,540,490,359,243,195,161,137,92,75,52,28,2,2,2,2,2,2,2,2,1],"timestamp_mouse":[12,37,50,69,91,110,130,150,170,189,211,230,249,270,290,310,329,350,369,389,409,429,450,469,489,511,531,550,571,590,610,631,650,669,689,710,731,750,770,790,810,831,849,869,889,909,931,950,970,990,1009,1031,1049,1070,1090,1110,1130,1149,1170,1190,1210,1230,1250,1270,1290,1310,1330,1350,1369,1390,1409,1430,1450,1470,1490,1509,1529,1550],"xSR":741.5,"ySR":501.8,"xT1":424.9,"yT1":0,"xT2":1058.1,"yT2":0,"toosoon":0,"cond_shown":"Incongruent","ratio_trial":300,"L_num":2,"L_den":4,"R_num":6,"R_den":30,"correct_side":1,"subjID":"nicolasgonzalez14","gender":"0","school":" 6","age":"11"},{"start_time":1551899868052,"click_time":1551899870026,"finger_time":1551899869447,"fix_duration":483.65428564528634,"trial":36,"RT":1395,"MT":579,"sideResp":1,"stimulus":[],"xmouse":[766,766,766,766,766,766,766,766,766,766,766,766,766,766,766,766,766,766,766,766,766,766,766,766,766,766,766,766,766,766,766,766,766,766,766,766,766,766,766,766,766,766,766,766,766,766,766,766,766,766,766,766,766,766,766,766,766,766,766,766,766,766,766,766,766,766,765,762,751,737,711,703,702,702,703,706,710,715,719,721,721,720,718,717,712,681,655,628,602,577,524,511,501,491,482,472,471,471,467],"ymouse":[567,567,567,567,567,567,567,567,567,567,567,567,567,567,567,567,567,567,567,567,567,567,567,567,567,567,567,567,567,567,567,567,567,567,567,567,567,567,567,567,567,567,567,567,567,567,567,567,567,567,567,567,567,567,567,567,567,567,567,567,567,567,567,567,567,567,566,564,554,539,494,477,470,467,462,456,450,439,429,419,389,380,374,370,362,340,330,318,304,286,242,221,202,178,159,133,121,102,85],"timestamp_mouse":[15,34,54,74,95,115,135,155,174,196,215,235,254,275,295,315,335,355,375,395,415,435,454,475,495,515,535,555,575,595,614,635,654,676,695,714,734,755,775,795,814,834,854,875,895,915,935,954,975,995,1015,1034,1055,1075,1095,1115,1134,1154,1175,1195,1214,1234,1254,1275,1295,1316,1334,1355,1375,1395,1415,1436,1455,1476,1495,1516,1535,1555,1575,1594,1615,1635,1654,1674,1695,1715,1734,1756,1775,1795,1815,1835,1855,1875,1895,1915,1934,1955,1974],"xSR":741.5,"ySR":501.8,"xT1":424.9,"yT1":0,"xT2":1058.1,"yT2":0,"toosoon":0,"cond_shown":"Incongruent","ratio_trial":100,"L_num":3,"L_den":6,"R_num":4,"R_den":10,"correct_side":1,"subjID":"nicolasgonzalez14","gender":"0","school":" 6","age":"11"},{"start_time":1551899871179,"click_time":1551899872546,"finger_time":1551899872146,"fix_duration":250,"trial":37,"RT":967,"MT":400,"sideResp":2,"stimulus":[],"xmouse":[775,775,775,777,780,780,780,780,780,780,780,780,780,780,780,780,780,780,780,780,780,780,780,780,780,780,780,780,780,780,780,780,780,780,780,780,780,780,780,780,780,780,780,780,780,784,802,816,827,852,865,876,895,898,917,922,927,930,934,936,948,955,961,964,978,1008,1032,1055,1080],"ymouse":[543,541,540,538,535,535,535,535,535,535,535,535,535,535,535,535,535,535,535,535,535,535,535,535,535,535,535,535,535,535,535,535,535,535,535,535,535,535,535,535,535,535,535,535,535,531,518,507,498,464,437,413,393,390,370,359,352,341,331,322,300,287,270,255,208,155,117,86,57],"timestamp_mouse":[10,28,48,67,88,107,127,147,167,187,207,227,247,268,287,307,327,347,367,388,408,428,447,467,487,507,527,547,567,587,607,627,647,667,687,707,729,747,768,787,807,827,847,867,888,907,927,947,967,987,1007,1028,1048,1067,1088,1107,1127,1147,1167,1187,1207,1227,1248,1267,1288,1307,1327,1347,1367],"xSR":741.5,"ySR":501.8,"xT1":424.9,"yT1":0,"xT2":1058.1,"yT2":0,"toosoon":0,"cond_shown":"Incongruent","ratio_trial":100,"L_num":12,"L_den":24,"R_num":9,"R_den":15,"correct_side":2,"subjID":"nicolasgonzalez14","gender":"0","school":" 6","age":"11"},{"start_time":1551899873870,"click_time":1551899875306,"finger_time":1551899875006,"fix_duration":582.0608512694052,"trial":38,"RT":1136,"MT":300,"sideResp":1,"stimulus":[],"xmouse":[768,768,768,768,768,768,768,768,768,768,768,768,768,768,768,768,768,768,768,768,768,768,768,768,768,768,768,768,768,768,768,768,768,768,768,768,768,768,768,768,768,768,768,768,768,768,768,768,768,768,768,768,768,768,761,751,739,726,713,703,687,681,675,665,628,617,610,601,591,561,513,454],"ymouse":[562,562,562,562,562,562,562,562,562,562,562,562,562,562,562,562,562,562,562,562,562,562,562,562,562,562,562,562,562,562,562,562,562,562,562,562,562,562,562,562,562,562,562,562,562,562,562,562,562,562,562,562,562,562,554,533,513,495,476,459,419,400,374,338,234,215,206,197,188,160,117,78],"timestamp_mouse":[17,43,56,76,96,116,137,156,176,197,216,237,257,276,296,316,337,356,376,396,417,438,457,476,496,517,536,557,576,596,616,636,656,676,696,717,737,756,776,796,816,837,856,876,897,916,936,956,976,997,1016,1037,1057,1077,1096,1116,1136,1156,1176,1196,1217,1236,1256,1276,1297,1316,1337,1356,1377,1396,1418,1436],"xSR":741.5,"ySR":501.8,"xT1":424.9,"yT1":0,"xT2":1058.1,"yT2":0,"toosoon":0,"cond_shown":"Incongruent","ratio_trial":200,"L_num":7,"L_den":10,"R_num":12,"R_den":24,"correct_side":1,"subjID":"nicolasgonzalez14","gender":"0","school":" 6","age":"11"},{"start_time":1551899876901,"click_time":1551899878386,"finger_time":1551899878288,"fix_duration":673.4338550176797,"trial":39,"RT":1387,"MT":98,"sideResp":2,"stimulus":[],"xmouse":[772,772,772,772,772,772,772,772,772,772,772,772,772,772,772,772,772,772,772,772,772,772,772,772,772,772,772,772,772,772,772,772,772,772,772,772,772,772,772,772,772,772,772,772,772,772,772,772,772,772,772,772,772,772,772,772,772,772,772,772,772,772,772,772,772,772,772,775,809,843,909,968,1004,1038,1082],"ymouse":[548,548,548,548,548,548,548,548,548,548,548,548,548,548,548,548,548,548,548,548,548,548,548,548,548,548,548,548,548,548,548,548,548,548,548,548,548,548,548,548,548,548,548,548,548,548,548,548,548,548,548,548,548,548,548,548,548,548,548,548,548,548,548,548,548,548,548,546,520,482,401,305,224,165,67],"timestamp_mouse":[12,32,45,65,85,105,125,146,165,185,205,225,246,265,285,305,325,345,365,385,406,425,445,465,485,505,526,545,565,585,605,626,645,665,685,705,725,745,765,785,806,825,845,865,885,906,925,945,965,985,1006,1025,1045,1065,1085,1105,1125,1145,1166,1185,1205,1225,1245,1265,1285,1305,1325,1345,1365,1387,1406,1425,1445,1465,1485],"xSR":741.5,"ySR":501.8,"xT1":424.9,"yT1":0,"xT2":1058.1,"yT2":0,"toosoon":0,"cond_shown":"Congruent","ratio_trial":200,"L_num":3,"L_den":10,"R_num":7,"R_den":14,"correct_side":2,"subjID":"nicolasgonzalez14","gender":"0","school":" 6","age":"11"},{"start_time":1551899880035,"click_time":1551899880986,"finger_time":1551899880866,"fix_duration":908.9846387058838,"trial":40,"RT":831,"MT":120,"sideResp":2,"stimulus":[],"xmouse":[776,776,776,776,776,776,776,776,776,776,776,776,776,776,776,776,776,776,776,776,776,776,776,776,776,776,776,776,776,776,776,776,776,776,776,776,779,788,802,820,841,908,982,1052,1106,1119,1121,1121],"ymouse":[589,589,589,589,589,589,589,589,589,589,589,589,589,589,589,589,589,589,589,589,589,589,589,589,589,589,589,589,589,589,589,589,589,589,589,589,588,580,569,552,528,432,326,228,159,128,105,99],"timestamp_mouse":