[{"start_time":1551899889490,"click_time":1551899892143,"finger_time":1551899889503,"fix_duration":862.9959143765686,"trial":0,"RT":13,"MT":2640,"sideResp":1,"stimulus":[],"xmouse":[779,779,779,779,779,779,779,779,779,779,779,779,779,779,779,779,779,779,779,779,779,779,779,779,779,779,779,779,779,779,779,779,779,779,779,779,779,779,779,779,779,779,780,780,780,780,780,780,780,780,780,780,780,780,780,780,780,780,780,780,780,780,780,780,780,780,780,780,780,780,780,780,780,780,780,780,780,780,781,781,781,781,782,782,782,782,782,782,782,782,782,782,782,783,783,783,785,788,790,791,793,793,793,793,792,791,789,784,751,735,721,710,709,709,706,695,674,651,620,614,612,612,612,610,602,599,598,596,593,587,574,556,517],"ymouse":[545,545,545,545,545,545,545,545,545,545,545,545,545,545,545,545,545,545,545,545,545,545,545,545,545,545,545,545,545,545,545,545,545,545,545,545,545,545,545,548,558,564,566,572,574,576,576,576,576,576,576,576,576,576,576,576,576,576,576,576,576,576,576,576,576,575,575,575,575,575,575,575,575,575,575,575,576,578,582,585,587,588,591,593,593,594,594,595,595,595,595,595,595,595,595,595,595,588,568,552,533,503,477,423,397,372,350,337,274,256,244,239,238,237,237,232,222,209,185,176,167,159,144,101,65,47,35,27,23,21,18,17,15],"timestamp_mouse":[13,33,51,71,93,112,132,153,172,192,213,232,252,272,293,311,333,352,372,392,412,432,452,472,492,512,531,553,572,592,611,631,653,671,692,712,731,753,773,792,812,833,851,872,892,912,932,953,972,992,1011,1032,1053,1073,1093,1112,1132,1152,1173,1192,1211,1233,1252,1272,1291,1312,1332,1352,1372,1393,1413,1432,1453,1472,1491,1513,1532,1553,1573,1593,1611,1633,1653,1673,1693,1713,1732,1752,1771,1793,1811,1832,1853,1872,1891,1913,1932,1952,1973,1992,2013,2031,2052,2072,2091,2113,2132,2152,2172,2192,2213,2232,2251,2271,2292,2313,2332,2352,2372,2392,2412,2433,2452,2472,2492,2512,2532,2552,2573,2591,2611,2632,2652],"xSR":741.5,"ySR":501.8,"xT1":424.9,"yT1":0,"xT2":1058.1,"yT2":0,"toosoon":0,"cond_shown":"Congruent","ratio_trial":200,"L_num":9,"L_den":20,"R_num":4,"R_den":16,"correct_side":1,"subjID":"andresfelipemesaperez2","gender":"0","age":"10","school":"6","test":{"fix_dur":[250,1500],"timestim":1000,"targets_dim":[100,100],"targets_relative_coord":[0.3,0.7],"size_stim":[880,420],"start_dim":[100,100],"size_start":[300,300],"size_fix":60,"samplingrate":20,"img_types":["Congruent","Incongruent"],"ratios":[100,200,300],"rep_conds":19,"nTrials":120,"trials_to_rest":500,"Trials_order":[50,106,52,28,31,60,77,64,6,32,59,3,93,10,66,12,96,0,114,113,40,62,44,80,117,2,7,89,11,76,73,71,75,94,15,18,72,69,90,4,42,85,8,21,99,67,92,26,37,41,54,23,111,105,78,107,47,35,63,5,104,103,38,43,118,61,102,49,34,48,53,25,98,39,79,36,55,57,46,29,84,16,20,81,101,24,9,56,19,83,65,27,17,100,119,30,110,88,116,70,74,22,97,68,14,108,82,13,95,58,1,87,91,51,115,109,45,112,33,86],"cond_shown":["Congruent","Congruent","Congruent","Congruent","Incongruent","Congruent","Incongruent","Congruent","Congruent","Congruent","Incongruent","Incongruent","Incongruent","Congruent","Congruent","Congruent","Congruent","Congruent","Congruent","Incongruent","Congruent","Congruent","Congruent","Congruent","Incongruent","Congruent","Incongruent","Incongruent","Incongruent","Congruent","Incongruent","Incongruent","Incongruent","Congruent","Incongruent","Congruent","Congruent","Incongruent","Congruent","Congruent","Congruent","Incongruent","Congruent","Incongruent","Incongruent","Incongruent","Congruent","Congruent","Incongruent","Incongruent","Congruent","Incongruent","Incongruent","Incongruent","Congruent","Incongruent","Incongruent","Incongruent","Incongruent","Incongruent","Congruent","Incongruent","Congruent","Incongruent","Congruent","Incongruent","Congruent","Incongruent","Congruent","Congruent","Incongruent","Incongruent","Congruent","Incongruent","Incongruent","Congruent","Incongruent","Incongruent","Congruent","Incongruent","Congruent","Congruent","Congruent","Incongruent","Incongruent","Congruent","Incongruent","Congruent","Incongruent","Incongruent","Incongruent","Incongruent","Incongruent","Congruent","Incongruent","Congruent","Congruent","Congruent","Congruent","Congruent","Congruent","Congruent","Incongruent","Congruent","Congruent","Congruent","Congruent","Incongruent","Incongruent","Congruent","Incongruent","Incongruent","Incongruent","Incongruent","Incongruent","Incongruent","Incongruent","Congruent","Incongruent","Congruent"],"ratio_trial":[200,300,300,300,100,100,300,300,100,200,300,200,200,300,100,100,100,100,100,300,300,200,200,200,200,200,100,300,300,300,100,300,200,300,200,100,100,200,100,300,100,100,200,200,200,100,200,200,100,300,100,300,200,200,100,300,300,300,200,300,200,100,200,100,300,100,100,100,300,100,300,100,200,200,100,100,100,200,300,300,100,300,200,200,300,100,200,200,100,300,300,200,300,300,300,100,200,300,200,300,200,300,100,200,200,100,300,100,300,300,100,200,100,200,100,100,200,300,200,200],"left_num":[9,1,12,1,12,1,13,11,2,13,3,7,3,1,11,11,7,8,6,8,1,3,12,3,7,21,4,4,13,11,2,4,7,11,14,11,6,3,12,5,4,2,7,4,7,10,13,9,1,13,1,4,9,1,4,8,13,8,3,4,8,13,6,13,1,13,6,9,1,7,13,17,16,7,2,11,3,7,20,13,8,1,9,7,4,6,7,21,8,4,13,7,7,20,4,2,15,8,5,2,15,11,12,3,3,4,20,6,13,3,9,7,6,7,8,3,4,1,3,5],"right_num":[4,7,2,7,9,3,12,1,6,14,4,14,1,8,4,4,9,2,15,9,8,9,6,7,4,2,8,2,12,4,6,6,6,1,6,4,5,1,13,6,15,6,18,1,6,9,14,13,8,12,3,2,8,2,6,14,12,9,1,2,7,12,3,12,11,6,5,20,11,15,12,10,9,4,8,6,8,8,14,12,2,3,13,6,2,5,6,2,6,6,12,14,8,13,6,6,4,1,14,10,4,1,2,11,14,15,9,11,12,11,13,8,3,8,6,11,1,3,11,14],"left_den":[20,20,24,20,24,2,26,22,5,26,6,10,10,30,22,22,14,16,12,10,30,12,20,10,15,30,8,20,26,22,4,5,15,22,30,22,20,10,30,25,10,4,15,30,15,25,26,30,2,26,2,20,15,3,8,10,26,10,10,20,15,26,15,26,5,26,20,10,5,14,26,30,30,15,4,22,5,10,25,26,16,5,30,15,20,20,15,30,16,5,26,10,10,25,5,5,25,16,10,20,25,22,30,10,10,10,25,10,26,12,15,10,12,10,16,5,30,5,4,10],"right_den":[16,20,10,20,15,5,15,5,12,20,20,28,2,24,10,10,15,5,25,18,24,20,15,14,6,4,20,4,15,20,15,12,9,5,9,10,25,2,26,12,30,15,27,3,9,18,20,26,20,15,5,4,10,15,10,28,15,18,2,4,21,20,15,20,22,10,25,25,22,25,15,15,27,6,20,15,16,16,28,15,5,6,26,9,4,25,9,4,10,12,15,28,20,26,12,12,10,5,20,25,10,5,4,22,28,30,18,22,15,20,26,16,5,16,10,22,3,6,20,20],"correct_side":[1,2,1,2,2,2,2,1,2,2,1,1,2,2,1,1,2,1,2,1,2,2,1,2,2,1,1,2,2,1,1,1,2,1,2,1,1,2,2,2,2,1,2,2,2,2,2,2,1,2,2,2,2,1,2,1,2,1,2,2,1,2,1,2,2,2,1,1,2,2,2,2,1,2,1,1,1,1,1,2,1,2,2,2,2,1,2,1,2,1,2,1,1,1,1,2,1,1,2,2,1,1,2,2,2,2,1,1,2,2,1,1,2,1,2,1,2,2,1,2],"img_shown":["img2/200/Congruent/L/C_Dist_200_LN_9_LD_20_RN_4_RD_16_0.png","img2/300/Congruent/R/C_Dist_300_LN_1_LD_20_RN_7_RD_20_1.png","img2/300/Congruent/L/C_Dist_300_LN_12_LD_24_RN_2_RD_10_0.png","img2/300/Congruent/R/C_Dist_300_LN_1_LD_20_RN_7_RD_20_1.png","img2/100/Incongruent/R/I_Dist_100_LN_12_LD_24_RN_9_RD_15_1.png","img2/100/Congruent/R/C_Dist_100_LN_1_LD_2_RN_3_RD_5_1.png","img2/300/Incongruent/R/I_Dist_300_LN_13_LD_26_RN_12_RD_15_1.png","img2/300/Congruent/L/C_Dist_300_LN_11_LD_22_RN_1_RD_5_0.png","img2/100/Congruent/R/C_Dist_100_LN_2_LD_5_RN_6_RD_12_1.png","img2/200/Congruent/R/C_Dist_200_LN_13_LD_26_RN_14_RD_20_1.png","img2/300/Incongruent/L/I_Dist_300_LN_3_LD_6_RN_4_RD_20_0.png","img2/200/Incongruent/L/I_Dist_200_LN_7_LD_10_RN_14_RD_28_0.png","img2/200/Incongruent/R/I_Dist_200_LN_3_LD_10_RN_1_RD_2_1.png","img2/300/Congruent/R/C_Dist_300_LN_1_LD_30_RN_8_RD_24_1.png","img2/100/Congruent/L/C_Dist_100_LN_11_LD_22_RN_4_RD_10_0.png","img2/100/Congruent/L/C_Dist_100_LN_11_LD_22_RN_4_RD_10_0.png","img2/100/Congruent/R/C_Dist_100_LN_7_LD_14_RN_9_RD_15_1.png","img2/100/Congruent/L/C_Dist_100_LN_8_LD_16_RN_2_RD_5_0.png","img2/100/Congruent/R/C_Dist_100_LN_6_LD_12_RN_15_RD_25_1.png","img2/300/Incongruent/L/I_Dist_300_LN_8_LD_10_RN_9_RD_18_0.png","img2/300/Congruent/R/C_Dist_300_LN_1_LD_30_RN_8_RD_24_1.png","img2/200/Congruent/R/C_Dist_200_LN_3_LD_12_RN_9_RD_20_1.png","img2/200/Congruent/L/C_Dist_200_LN_12_LD_20_RN_6_RD_15_0.png","img2/200/Congruent/R/C_Dist_200_LN_3_LD_10_RN_7_RD_14_1.png","img2/200/Incongruent/R/I_Dist_200_LN_7_LD_15_RN_4_RD_6_1.png","img2/200/Congruent/L/C_Dist_200_LN_21_LD_30_RN_2_RD_4_0.png","img2/100/Incongruent/L/I_Dist_100_LN_4_LD_8_RN_8_RD_20_0.png","img2/300/Incongruent/R/I_Dist_300_LN_4_LD_20_RN_2_RD_4_1.png","img2/300/Incongruent/R/I_Dist_300_LN_13_LD_26_RN_12_RD_15_1.png","img2/300/Congruent/L/C_Dist_300_LN_11_LD_22_RN_4_RD_20_0.png","img2/100/Incongruent/L/I_Dist_100_LN_2_LD_4_RN_6_RD_15_0.png","img2/300/Incongruent/L/I_Dist_300_LN_4_LD_5_RN_6_RD_12_0.png","img2/200/Incongruent/R/I_Dist_200_LN_7_LD_15_RN_6_RD_9_1.png","img2/300/Congruent/L/C_Dist_300_LN_11_LD_22_RN_1_RD_5_0.png","img2/200/Incongruent/R/I_Dist_200_LN_14_LD_30_RN_6_RD_9_1.png","img2/100/Congruent/L/C_Dist_100_LN_11_LD_22_RN_4_RD_10_0.png","img2/100/Congruent/L/C_Dist_100_LN_6_LD_20_RN_5_RD_25_0.png","img2/200/Incongruent/R/I_Dist_200_LN_3_LD_10_RN_1_RD_2_1.png","img2/100/Congruent/R/C_Dist_100_LN_12_LD_30_RN_13_RD_26_1.png","img2/300/Congruent/R/C_Dist_300_LN_5_LD_25_RN_6_RD_12_1.png","img2/100/Congruent/R/C_Dist_100_LN_4_LD_10_RN_15_RD_30_1.png","img2/100/Incongruent/L/I_Dist_100_LN_2_LD_4_RN_6_RD_15_0.png","img2/200/Congruent/R/C_Dist_200_LN_7_LD_15_RN_18_RD_27_1.png","img2/200/Incongruent/R/I_Dist_200_LN_4_LD_30_RN_1_RD_3_1.png","img2/200/Incongruent/R/I_Dist_200_LN_7_LD_15_RN_6_RD_9_1.png","img2/100/Incongruent/R/I_Dist_100_LN_10_LD_25_RN_9_RD_18_1.png","img2/200/Congruent/R/C_Dist_200_LN_13_LD_26_RN_14_RD_20_1.png","img2/200/Congruent/R/C_Dist_200_LN_9_LD_30_RN_13_RD_26_1.png","img2/100/Incongruent/L/I_Dist_100_LN_1_LD_2_RN_8_RD_20_0.png","img2/300/Incongruent/R/I_Dist_300_LN_13_LD_26_RN_12_RD_15_1.png","img2/100/Congruent/R/C_Dist_100_LN_1_LD_2_RN_3_RD_5_1.png","img2/300/Incongruent/R/I_Dist_300_LN_4_LD_20_RN_2_RD_4_1.png","img2/200/Incongruent/R/I_Dist_200_LN_9_LD_15_RN_8_RD_10_1.png","img2/200/Incongruent/L/I_Dist_200_LN_1_LD_3_RN_2_RD_15_0.png","img2/100/Congruent/R/C_Dist_100_LN_4_LD_8_RN_6_RD_10_1.png","img2/300/Incongruent/L/I_Dist_300_LN_8_LD_10_RN_14_RD_28_0.png","img2/300/Incongruent/R/I_Dist_300_LN_13_LD_26_RN_12_RD_15_1.png","img2/300/Incongruent/L/I_Dist_300_LN_8_LD_10_RN_9_RD_18_0.png","img2/200/Incongruent/R/I_Dist_200_LN_3_LD_10_RN_1_RD_2_1.png","img2/300/Incongruent/R/I_Dist_300_LN_4_LD_20_RN_2_RD_4_1.png","img2/200/Congruent/L/C_Dist_200_LN_8_LD_15_RN_7_RD_21_0.png","img2/100/Incongruent/R/I_Dist_100_LN_13_LD_26_RN_12_RD_20_1.png","img2/200/Congruent/L/C_Dist_200_LN_6_LD_15_RN_3_RD_15_0.png","img2/100/Incongruent/R/I_Dist_100_LN_13_LD_26_RN_12_RD_20_1.png","img2/300/Congruent/R/C_Dist_300_LN_1_LD_5_RN_11_RD_22_1.png","img2/100/Incongruent/R/I_Dist_100_LN_13_LD_26_RN_6_RD_10_1.png","img2/100/Congruent/L/C_Dist_100_LN_6_LD_20_RN_5_RD_25_0.png","img2/100/Incongruent/L/I_Dist_100_LN_9_LD_10_RN_20_RD_25_0.png","img2/300/Congruent/R/C_Dist_300_LN_1_LD_5_RN_11_RD_22_1.png","img2/100/Congruent/R/C_Dist_100_LN_7_LD_14_RN_15_RD_25_1.png","img2/300/Incongruent/R/I_Dist_300_LN_13_LD_26_RN_12_RD_15_1.png","img2/100/Incongruent/R/I_Dist_100_LN_17_LD_30_RN_10_RD_15_1.png","img2/200/Congruent/L/C_Dist_200_LN_16_LD_30_RN_9_RD_27_0.png","img2/200/Incongruent/R/I_Dist_200_LN_7_LD_15_RN_4_RD_6_1.png","img2/100/Incongruent/L/I_Dist_100_LN_2_LD_4_RN_8_RD_20_0.png","img2/100/Congruent/L/C_Dist_100_LN_11_LD_22_RN_6_RD_15_0.png","img2/100/Incongruent/L/I_Dist_100_LN_3_LD_5_RN_8_RD_16_0.png","img2/200/Incongruent/L/I_Dist_200_LN_7_LD_10_RN_8_RD_16_0.png","img2/300/Congruent/L/C_Dist_300_LN_20_LD_25_RN_14_RD_28_0.png","img2/300/Incongruent/R/I_Dist_300_LN_13_LD_26_RN_12_RD_15_1.png","img2/100/Congruent/L/C_Dist_100_LN_8_LD_16_RN_2_RD_5_0.png","img2/300/Congruent/R/C_Dist_300_LN_1_LD_5_RN_3_RD_6_1.png","img2/200/Congruent/R/C_Dist_200_LN_9_LD_30_RN_13_RD_26_1.png","img2/200/Incongruent/R/I_Dist_200_LN_7_LD_15_RN_6_RD_9_1.png","img2/300/Incongruent/R/I_Dist_300_LN_4_LD_20_RN_2_RD_4_1.png","img2/100/Congruent/L/C_Dist_100_LN_6_LD_20_RN_5_RD_25_0.png","img2/200/Incongruent/R/I_Dist_200_LN_7_LD_15_RN_6_RD_9_1.png","img2/200/Congruent/L/C_Dist_200_LN_21_LD_30_RN_2_RD_4_0.png","img2/100/Incongruent/R/I_Dist_100_LN_8_LD_16_RN_6_RD_10_1.png","img2/300/Incongruent/L/I_Dist_300_LN_4_LD_5_RN_6_RD_12_0.png","img2/300/Incongruent/R/I_Dist_300_LN_13_LD_26_RN_12_RD_15_1.png","img2/200/Incongruent/L/I_Dist_200_LN_7_LD_10_RN_14_RD_28_0.png","img2/300/Incongruent/L/I_Dist_300_LN_7_LD_10_RN_8_RD_20_0.png","img2/300/Congruent/L/C_Dist_300_LN_20_LD_25_RN_13_RD_26_0.png","img2/300/Incongruent/L/I_Dist_300_LN_4_LD_5_RN_6_RD_12_0.png","img2/100/Congruent/R/C_Dist_100_LN_2_LD_5_RN_6_RD_12_1.png","img2/200/Congruent/L/C_Dist_200_LN_15_LD_25_RN_4_RD_10_0.png","img2/300/Congruent/L/C_Dist_300_LN_8_LD_16_RN_1_RD_5_0.png","img2/200/Congruent/R/C_Dist_200_LN_5_LD_10_RN_14_RD_20_1.png","img2/300/Congruent/R/C_Dist_300_LN_2_LD_20_RN_10_RD_25_1.png","img2/200/Congruent/L/C_Dist_200_LN_15_LD_25_RN_4_RD_10_0.png","img2/300/Congruent/L/C_Dist_300_LN_11_LD_22_RN_1_RD_5_0.png","img2/100/Incongruent/R/I_Dist_100_LN_12_LD_30_RN_2_RD_4_1.png","img2/200/Congruent/R/C_Dist_200_LN_3_LD_10_RN_11_RD_22_1.png","img2/200/Congruent/R/C_Dist_200_LN_3_LD_10_RN_14_RD_28_1.png","img2/100/Congruent/R/C_Dist_100_LN_4_LD_10_RN_15_RD_30_1.png","img2/300/Congruent/L/C_Dist_300_LN_20_LD_25_RN_9_RD_18_0.png","img2/100/Incongruent/L/I_Dist_100_LN_6_LD_10_RN_11_RD_22_0.png","img2/300/Incongruent/R/I_Dist_300_LN_13_LD_26_RN_12_RD_15_1.png","img2/300/Congruent/R/C_Dist_300_LN_3_LD_12_RN_11_RD_20_1.png","img2/100/Incongruent/L/I_Dist_100_LN_9_LD_15_RN_13_RD_26_0.png","img2/200/Incongruent/L/I_Dist_200_LN_7_LD_10_RN_8_RD_16_0.png","img2/100/Incongruent/R/I_Dist_100_LN_6_LD_12_RN_3_RD_5_1.png","img2/200/Incongruent/L/I_Dist_200_LN_7_LD_10_RN_8_RD_16_0.png","img2/100/Incongruent/R/I_Dist_100_LN_8_LD_16_RN_6_RD_10_1.png","img2/100/Incongruent/L/I_Dist_100_LN_3_LD_5_RN_11_RD_22_0.png","img2/200/Incongruent/R/I_Dist_200_LN_4_LD_30_RN_1_RD_3_1.png","img2/300/Congruent/R/C_Dist_300_LN_1_LD_5_RN_3_RD_6_1.png","img2/200/Incongruent/L/I_Dist_200_LN_3_LD_4_RN_11_RD_20_0.png","img2/200/Congruent/R/C_Dist_200_LN_5_LD_10_RN_14_RD_20_1.png"],"dist100_C":[["C_Dist_100_LN_10_LD_25_RN_3_RD_10_0.png","C_Dist_100_LN_11_LD_22_RN_4_RD_10_0.png","C_Dist_100_LN_11_LD_22_RN_6_RD_15_0.png","C_Dist_100_LN_15_LD_25_RN_13_RD_26_0.png","C_Dist_100_LN_3_LD_6_RN_2_RD_5_0.png","C_Dist_100_LN_6_LD_20_RN_5_RD_25_0.png","C_Dist_100_LN_8_LD_16_RN_2_RD_5_0.png","C_Dist_100_LN_9_LD_15_RN_8_RD_16_0.png"],["C_Dist_100_LN_1_LD_2_RN_18_RD_30_1.png","C_Dist_100_LN_1_LD_2_RN_3_RD_5_1.png","C_Dist_100_LN_12_LD_30_RN_13_RD_26_1.png","C_Dist_100_LN_2_LD_5_RN_11_RD_22_1.png","C_Dist_100_LN_2_LD_5_RN_6_RD_12_1.png","C_Dist_100_LN_3_LD_20_RN_4_RD_16_1.png","C_Dist_100_LN_4_LD_10_RN_15_RD_30_1.png","C_Dist_100_LN_4_LD_8_RN_6_RD_10_1.png","C_Dist_100_LN_6_LD_12_RN_15_RD_25_1.png","C_Dist_100_LN_7_LD_14_RN_15_RD_25_1.png","C_Dist_100_LN_7_LD_14_RN_9_RD_15_1.png"]],"dist100_I":[["I_Dist_100_LN_1_LD_2_RN_8_RD_20_0.png","I_Dist_100_LN_2_LD_4_RN_6_RD_15_0.png","I_Dist_100_LN_2_LD_4_RN_8_RD_20_0.png","I_Dist_100_LN_3_LD_5_RN_11_RD_22_0.png","I_Dist_100_LN_3_LD_5_RN_8_RD_16_0.png","I_Dist_100_LN_3_LD_6_RN_4_RD_10_0.png","I_Dist_100_LN_3_LD_9_RN_7_RD_30_0.png","I_Dist_100_LN_4_LD_8_RN_8_RD_20_0.png","I_Dist_100_LN_6_LD_10_RN_11_RD_22_0.png","I_Dist_100_LN_6_LD_10_RN_13_RD_26_0.png","I_Dist_100_LN_6_LD_10_RN_7_RD_14_0.png","I_Dist_100_LN_9_LD_10_RN_20_RD_25_0.png","I_Dist_100_LN_9_LD_15_RN_13_RD_26_0.png","I_Dist_100_LN_9_LD_15_RN_14_RD_28_0.png"],["I_Dist_100_LN_10_LD_25_RN_8_RD_16_1.png","I_Dist_100_LN_10_LD_25_RN_9_RD_18_1.png","I_Dist_100_LN_11_LD_22_RN_9_RD_15_1.png","I_Dist_100_LN_12_LD_24_RN_9_RD_15_1.png","I_Dist_100_LN_12_LD_30_RN_2_RD_4_1.png","I_Dist_100_LN_13_LD_26_RN_12_RD_20_1.png","I_Dist_100_LN_13_LD_26_RN_6_RD_10_1.png","I_Dist_100_LN_17_LD_30_RN_10_RD_15_1.png","I_Dist_100_LN_6_LD_12_RN_3_RD_5_1.png","I_Dist_100_LN_8_LD_16_RN_6_RD_10_1.png","I_Dist_100_LN_8_LD_20_RN_1_RD_2_1.png","I_Dist_100_LN_9_LD_18_RN_6_RD_10_1.png"]],"dist100_S":[["E_Dist_100_LN_2_LD_12_RN_2_RD_30_0.png","E_Dist_100_LN_6_LD_10_RN_6_RD_12_0.png"],["E_Dist_100_LN_6_LD_12_RN_6_RD_10_1.png"]],"dist200_C":[["C_Dist_200_LN_11_LD_22_RN_3_RD_10_0.png","C_Dist_200_LN_12_LD_15_RN_6_RD_10_0.png","C_Dist_200_LN_12_LD_20_RN_6_RD_15_0.png","C_Dist_200_LN_14_LD_28_RN_6_RD_20_0.png","C_Dist_200_LN_15_LD_25_RN_4_RD_10_0.png","C_Dist_200_LN_16_LD_20_RN_12_RD_20_0.png","C_Dist_200_LN_16_LD_30_RN_9_RD_27_0.png","C_Dist_200_LN_20_LD_25_RN_9_RD_15_0.png","C_Dist_200_LN_21_LD_30_RN_2_RD_4_0.png","C_Dist_200_LN_4_LD_10_RN_3_RD_15_0.png","C_Dist_200_LN_4_LD_8_RN_3_RD_10_0.png","C_Dist_200_LN_6_LD_15_RN_3_RD_15_0.png","C_Dist_200_LN_7_LD_21_RN_2_RD_15_0.png","C_Dist_200_LN_8_LD_15_RN_2_RD_6_0.png","C_Dist_200_LN_8_LD_15_RN_3_RD_9_0.png","C_Dist_200_LN_8_LD_15_RN_7_RD_21_0.png","C_Dist_200_LN_9_LD_20_RN_4_RD_16_0.png"],["C_Dist_200_LN_1_LD_2_RN_21_RD_30_1.png","C_Dist_200_LN_13_LD_26_RN_14_RD_20_1.png","C_Dist_200_LN_3_LD_10_RN_11_RD_22_1.png","C_Dist_200_LN_3_LD_10_RN_14_RD_28_1.png","C_Dist_200_LN_3_LD_10_RN_7_RD_14_1.png","C_Dist_200_LN_3_LD_12_RN_9_RD_20_1.png","C_Dist_200_LN_3_LD_6_RN_14_RD_20_1.png","C_Dist_200_LN_5_LD_10_RN_14_RD_20_1.png","C_Dist_200_LN_6_LD_12_RN_7_RD_10_1.png","C_Dist_200_LN_6_LD_20_RN_11_RD_22_1.png","C_Dist_200_LN_7_LD_15_RN_18_RD_27_1.png","C_Dist_200_LN_9_LD_30_RN_13_RD_26_1.png"]],"dist200_I":[["I_Dist_200_LN_1_LD_2_RN_3_RD_10_0.png","I_Dist_200_LN_1_LD_3_RN_2_RD_15_0.png","I_Dist_200_LN_3_LD_4_RN_11_RD_20_0.png","I_Dist_200_LN_4_LD_5_RN_6_RD_10_0.png","I_Dist_200_LN_4_LD_6_RN_14_RD_30_0.png","I_Dist_200_LN_7_LD_10_RN_12_RD_24_0.png","I_Dist_200_LN_7_LD_10_RN_14_RD_28_0.png","I_Dist_200_LN_7_LD_10_RN_8_RD_16_0.png"],["I_Dist_200_LN_11_LD_20_RN_3_RD_4_1.png","I_Dist_200_LN_14_LD_30_RN_12_RD_18_1.png","I_Dist_200_LN_14_LD_30_RN_6_RD_9_1.png","I_Dist_200_LN_3_LD_10_RN_1_RD_2_1.png","I_Dist_200_LN_4_LD_30_RN_1_RD_3_1.png","I_Dist_200_LN_6_LD_20_RN_3_RD_6_1.png","I_Dist_200_LN_7_LD_15_RN_4_RD_6_1.png","I_Dist_200_LN_7_LD_15_RN_6_RD_9_1.png","I_Dist_200_LN_9_LD_15_RN_8_RD_10_1.png"]],"dist200_S":[["E_Dist_200_LN_3_LD_6_RN_3_RD_10_0.png"],["E_Dist_200_LN_3_LD_10_RN_3_RD_6_1.png"]],"dist300_C":[["C_Dist_300_LN_11_LD_22_RN_1_RD_5_0.png","C_Dist_300_LN_11_LD_22_RN_2_RD_10_0.png","C_Dist_300_LN_11_LD_22_RN_4_RD_20_0.png","C_Dist_300_LN_12_LD_24_RN_2_RD_10_0.png","C_Dist_300_LN_18_LD_20_RN_9_RD_15_0.png","C_Dist_300_LN_20_LD_25_RN_13_RD_26_0.png","C_Dist_300_LN_20_LD_25_RN_14_RD_28_0.png","C_Dist_300_LN_20_LD_25_RN_5_RD_10_0.png","C_Dist_300_LN_20_LD_25_RN_8_RD_16_0.png","C_Dist_300_LN_20_LD_25_RN_9_RD_18_0.png","C_Dist_300_LN_24_LD_30_RN_2_RD_4_0.png","C_Dist_300_LN_24_LD_30_RN_8_RD_16_0.png","C_Dist_300_LN_3_LD_6_RN_2_RD_10_0.png","C_Dist_300_LN_4_LD_10_RN_1_RD_10_0.png","C_Dist_300_LN_4_LD_5_RN_2_RD_4_0.png","C_Dist_300_LN_8_LD_16_RN_1_RD_5_0.png","C_Dist_300_LN_9_LD_10_RN_3_RD_5_0.png"],["C_Dist_300_LN_1_LD_20_RN_7_RD_20_1.png","C_Dist_300_LN_1_LD_3_RN_19_RD_30_1.png","C_Dist_300_LN_1_LD_30_RN_8_RD_24_1.png","C_Dist_300_LN_1_LD_5_RN_11_RD_22_1.png","C_Dist_300_LN_1_LD_5_RN_3_RD_6_1.png","C_Dist_300_LN_1_LD_5_RN_6_RD_12_1.png","C_Dist_300_LN_2_LD_10_RN_12_RD_24_1.png","C_Dist_300_LN_2_LD_20_RN_10_RD_25_1.png","C_Dist_300_LN_3_LD_12_RN_11_RD_20_1.png","C_Dist_300_LN_3_LD_6_RN_4_RD_5_1.png","C_Dist_300_LN_4_LD_20_RN_13_RD_26_1.png","C_Dist_300_LN_5_LD_25_RN_6_RD_12_1.png","C_Dist_300_LN_5_LD_25_RN_7_RD_14_1.png","C_Dist_300_LN_7_LD_14_RN_20_RD_25_1.png","C_Dist_300_LN_8_LD_15_RN_10_RD_12_1.png"]],"dist300_I":[["I_Dist_300_LN_1_LD_2_RN_2_RD_10_0.png","I_Dist_300_LN_1_LD_2_RN_3_RD_15_0.png","I_Dist_300_LN_2_LD_4_RN_6_RD_30_0.png","I_Dist_300_LN_3_LD_6_RN_4_RD_20_0.png","I_Dist_300_LN_4_LD_5_RN_6_RD_12_0.png","I_Dist_300_LN_4_LD_5_RN_8_RD_16_0.png","I_Dist_300_LN_7_LD_10_RN_8_RD_20_0.png","I_Dist_300_LN_8_LD_10_RN_14_RD_28_0.png","I_Dist_300_LN_8_LD_10_RN_9_RD_18_0.png"],["I_Dist_300_LN_13_LD_26_RN_12_RD_15_1.png","I_Dist_300_LN_4_LD_20_RN_2_RD_4_1.png"]],"dist300_S":[["E_Dist_300_LN_9_LD_12_RN_9_RD_20_0.png"],["E_Dist_300_LN_18_LD_30_RN_18_RD_20_1.png","E_Dist_300_LN_3_LD_10_RN_3_RD_5_1.png","E_Dist_300_LN_9_LD_20_RN_9_RD_12_1.png"]],"dist500_C":[["C_Dist_500_LN_10_LD_13_RN_7_RD_26_0.png","C_Dist_500_LN_10_LD_15_RN_4_RD_24_0.png","C_Dist_500_LN_12_LD_16_RN_3_RD_12_0.png","C_Dist_500_LN_12_LD_18_RN_4_RD_24_0.png","C_Dist_500_LN_15_LD_18_RN_5_RD_15_0.png","C_Dist_500_LN_15_LD_20_RN_1_RD_4_0.png","C_Dist_500_LN_18_LD_27_RN_1_RD_6_0.png","C_Dist_500_LN_20_LD_24_RN_1_RD_3_0.png","C_Dist_500_LN_20_LD_24_RN_3_RD_9_0.png","C_Dist_500_LN_20_LD_24_RN_7_RD_21_0.png","C_Dist_500_LN_20_LD_28_RN_3_RD_14_0.png","C_Dist_500_LN_21_LD_28_RN_6_RD_24_0.png","C_Dist_500_LN_22_LD_28_RN_2_RD_7_0.png","C_Dist_500_LN_25_LD_30_RN_9_RD_27_0.png","C_Dist_500_LN_4_LD_6_RN_1_RD_6_0.png","C_Dist_500_LN_5_LD_6_RN_2_RD_6_0.png","C_Dist_500_LN_6_LD_9_RN_1_RD_6_0.png","C_Dist_500_LN_7_LD_10_RN_1_RD_5_0.png","C_Dist_500_LN_8_LD_12_RN_1_RD_6_0.png","C_Dist_500_LN_8_LD_12_RN_4_RD_24_0.png"],["C_Dist_500_LN_1_LD_4_RN_12_RD_16_1.png","C_Dist_500_LN_1_LD_4_RN_9_RD_12_1.png","C_Dist_500_LN_1_LD_9_RN_11_RD_18_1.png","C_Dist_500_LN_10_LD_24_RN_22_RD_24_1.png","C_Dist_500_LN_2_LD_12_RN_10_RD_15_1.png","C_Dist_500_LN_2_LD_12_RN_12_RD_18_1.png","C_Dist_500_LN_2_LD_12_RN_4_RD_6_1.png","C_Dist_500_LN_2_LD_24_RN_7_RD_12_1.png","C_Dist_500_LN_2_LD_5_RN_18_RD_20_1.png","C_Dist_500_LN_2_LD_5_RN_9_RD_10_1.png","C_Dist_500_LN_2_LD_8_RN_12_RD_16_1.png","C_Dist_500_LN_2_LD_8_RN_21_RD_28_1.png","C_Dist_500_LN_3_LD_10_RN_4_RD_5_1.png","C_Dist_500_LN_3_LD_12_RN_15_RD_20_1.png","C_Dist_500_LN_3_LD_30_RN_6_RD_10_1.png","C_Dist_500_LN_3_LD_8_RN_14_RD_16_1.png","C_Dist_500_LN_4_LD_16_RN_15_RD_20_1.png","C_Dist_500_LN_4_LD_24_RN_12_RD_18_1.png","C_Dist_500_LN_5_LD_14_RN_6_RD_7_1.png","C_Dist_500_LN_7_LD_21_RN_20_RD_24_1.png","C_Dist_500_LN_7_LD_28_RN_12_RD_16_1.png","C_Dist_500_LN_7_LD_28_RN_9_RD_12_1.png","C_Dist_500_LN_9_LD_27_RN_20_RD_24_1.png"]],"dist500_I":[["I_Dist_500_LN_2_LD_3_RN_4_RD_24_0.png","I_Dist_500_LN_5_LD_6_RN_6_RD_18_0.png","I_Dist_500_LN_7_LD_8_RN_9_RD_24_0.png"],["I_Dist_500_LN_7_LD_21_RN_5_RD_6_1.png"]],"dist500_S":[["E_Dist_500_LN_6_LD_8_RN_6_RD_24_0.png"],["E_Dist_500_LN_2_LD_12_RN_2_RD_3_1.png","E_Dist_500_LN_6_LD_24_RN_6_RD_8_1.png"]]}},{"start_time":1551899896093,"click_time":1551899898602,"finger_time":1551899897022,"fix_duration":849.1107112780193,"trial":1,"RT":929,"MT":1580,"sideResp":2,"stimulus":[],"xmouse":[791,791,791,791,790,790,790,790,790,790,790,790,790,790,790,790,790,790,790,790,790,790,790,789,788,787,786,785,784,782,780,778,778,778,778,778,777,777,777,777,777,776,775,769,760,749,734,694,682,674,666,658,648,629,626,626,625,623,623,622,622,622,622,622,622,622,622,622,622,622,622,622,622,622,621,621,621,621,621,621,621,621,621,621,622,627,632,655,751,795,835,882,951,970,981,983,986,989,1006,1018,1038,1065,1105,1124,1150,1171,1184,1214,1220,1224,1225,1225,1221,1220,1220,1220,1217,1214,1203,1200,1200,1198,1196,1179,1168,1158],"ymouse":[637,637,637,637,637,637,637,637,637,637,637,637,637,637,637,637,637,637,637,637,637,637,637,637,637,637,637,637,637,637,637,637,637,637,637,637,637,637,637,637,637,637,637,634,629,621,607,574,561,548,533,510,487,461,461,461,461,461,461,462,462,462,462,462,462,462,462,462,462,462,462,462,462,462,462,462,462,462,462,462,462,462,462,462,462,462,462,462,463,463,463,463,463,463,457,448,440,431,397,380,362,346,310,283,268,257,245,228,222,212,198,185,144,124,98,85,75,69,61,60,60,60,60,60,60,60],"timestamp_mouse":[9,30,60,69,88,109,129,149,170,189,210,229,250,269,289,310,329,349,370,389,409,430,450,469,488,509,529,549,569,588,610,629,648,670,689,709,729,750,769,790,810,829,848,869,889,909,929,950,968,990,1009,1030,1050,1069,1090,1110,1130,1149,1168,1189,1209,1228,1249,1270,1289,1309,1330,1349,1369,1390,1410,1430,1448,1469,1489,1508,1529,1549,1570,1589,1609,1629,1649,1669,1689,1709,1729,1748,1770,1789,1809,1830,1850,1868,1889,1909,1930,1949,1969,1989,2010,2028,2049,2069,2089,2110,2129,2149,2169,2190,2210,2229,2250,2268,2288,2308,2329,2349,2370,2390,2409,2429,2448,2469,2488,2508],"xSR":741.5,"ySR":573.95,"xT1":424.9,"yT1":0,"xT2":1058.1,"yT2":0,"toosoon":0,"cond_shown":"Congruent","ratio_trial":300,"L_num":1,"L_den":20,"R_num":7,"R_den":20,"correct_side":2,"subjID":"andresfelipemesaperez2","gender":"0","school":"6","age":"10"},{"start_time":1551899901809,"click_time":1551899903562,"finger_time":1551899902483,"fix_duration":485.41623084772766,"trial":2,"RT":674,"MT":1079,"sideResp":1,"stimulus":[],"xmouse":[762,762,762,762,762,762,762,762,762,762,762,762,762,762,762,762,762,762,762,762,762,762,762,762,762,761,761,761,761,761,760,759,742,724,710,696,690,686,686,686,686,685,685,685,685,684,682,678,666,657,643,624,619,616,615,615,615,616,616,616,616,616,616,613,609,601,596,590,589,589,586,580,575,563,560,536,498,490,483,478,469,462,456,456,456,456,459,466],"ymouse":[645,645,645,645,645,645,645,645,645,645,645,645,645,645,645,645,645,645,645,645,645,645,645,645,645,645,645,645,645,645,645,645,604,566,529,501,483,468,467,465,463,459,459,458,457,454,448,439,413,394,369,321,305,291,274,261,234,219,215,209,207,197,190,175,157,138,128,113,112,112,112,112,112,113,115,119,126,126,126,124,117,112,108,108,107,107,100,91],"timestamp_mouse":[13,32,53,72,94,113,134,154,172,193,212,233,252,274,292,313,333,354,373,394,413,434,452,474,494,513,534,553,574,594,613,632,654,674,694,712,732,752,774,793,814,834,853,874,894,913,934,953,974,993,1013,1033,1052,1073,1092,1112,1134,1153,1173,1194,1213,1233,1253,1273,1293,1313,1334,1354,1372,1393,1414,1433,1453,1473,1493,1512,1534,1553,1573,1594,1613,1632,1652,1672,1693,1714,1733,1753],"xSR":741.5,"ySR":573.95,"xT1":424.9,"yT1":0,"xT2":1058.1,"yT2":0,"toosoon":0,"cond_shown":"Congruent","ratio_trial":300,"L_num":12,"L_den":24,"R_num":2,"R_den":10,"correct_side":1,"subjID":"andresfelipemesaperez2","gender":"0","school":"6","age":"10"},{"start_time":1551899907428,"click_time":1551899909302,"finger_time":1551899908542,"fix_duration":465.71562622122065,"trial":3,"RT":1114,"MT":760,"sideResp":2,"stimulus":[],"xmouse":[766,766,766,766,766,766,766,766,766,766,766,766,766,766,766,766,766,766,766,766,766,766,766,766,766,766,766,766,766,766,766,766,766,766,766,766,766,766,766,766,766,766,766,765,765,765,763,761,760,760,760,760,761,764,780,788,796,802,806,809,834,877,923,970,1034,1048,1053,1053,1053,1053,1053,1053,1053,1053,1053,1053,1053,1053,1053,1055,1057,1059,1061,1065,1068,1068,1071,1074,1077,1079,1090,1105,1109],"ymouse":[613,613,613,613,613,613,613,613,613,613,613,613,613,613,613,613,613,613,613,613,613,613,613,613,613,613,613,613,613,613,613,613,613,613,613,613,613,613,613,613,613,613,613,613,613,613,612,612,612,612,612,612,609,603,571,554,536,518,508,499,474,465,457,437,400,379,355,316,292,275,252,244,239,236,230,226,222,218,214,205,201,198,194,188,176,171,160,152,143,122,111,102,96],"timestamp_mouse":[37,53,74,93,115,134,155,173,195,213,235,255,275,295,314,333,355,375,395,413,434,454,473,494,514,534,555,575,595,614,633,655,675,694,713,734,753,775,794,813,835,854,875,894,914,933,954,975,994,1014,1035,1054,1074,1094,1114,1134,1154,1174,1193,1215,1235,1254,1273,1294,1314,1333,1354,1374,1394,1413,1433,1455,1475,1494,1514,1533,1554,1575,1593,1614,1635,1655,1674,1693,1714,1735,1754,1773,1794,1814,1833,1854,1874],"xSR":741.5,"ySR":573.95,"xT1":424.9,"yT1":0,"xT2":1058.1,"yT2":0,"toosoon":0,"cond_shown":"Congruent","ratio_trial":300,"L_num":1,"L_den":20,"R_num":7,"R_den":20,"correct_side":2,"subjID":"andresfelipemesaperez2","gender":"0","school":"6","age":"10"},{"start_time":1551899912172,"click_time":1551899913662,"finger_time":1551899913142,"fix_duration":327.76811695058495,"trial":4,"RT":970,"MT":520,"sideResp":2,"stimulus":[],"xmouse":[790,790,790,790,790,790,790,790,790,790,790,790,790,790,790,790,790,790,790,790,790,790,790,790,790,790,790,790,790,790,790,790,790,790,790,790,790,790,790,790,793,795,796,802,809,815,822,830,843,852,860,869,884,908,919,927,938,949,971,982,993,1003,1011,1042,1055,1064,1068,1070,1070,1070,1071,1074,1076,1077,1078],"ymouse":[617,617,617,617,617,617,617,617,617,617,617,617,617,617,617,617,617,617,617,617,617,617,617,617,617,617,617,617,617,617,617,617,617,617,617,617,617,617,617,616,614,613,612,607,603,598,591,582,557,538,519,498,464,414,387,364,337,314,280,265,251,233,224,203,191,178,166,157,145,138,131,122,116,109,97],"timestamp_mouse":[9,34,50,71,90,110,130,150,170,191,210,230,249,270,291,311,330,350,370,389,409,430,451,470,490,510,529,551,571,589,611,630,649,671,690,709,731,749,770,790,811,830,850,870,890,911,930,951,970,989,1010,1030,1050,1070,1090,1109,1130,1151,1169,1190,1210,1229,1250,1269,1291,1309,1330,1351,1369,1391,1410,1430,1449,1470,1489],"xSR":741.5,"ySR":573.95,"xT1":424.9,"yT1":0,"xT2":1058.1,"yT2":0,"toosoon":0,"cond_shown":"Incongruent","ratio_trial":100,"L_num":12,"L_den":24,"R_num":9,"R_den":15,"correct_side":2,"subjID":"andresfelipemesaperez2","gender":"0","school":"6","age":"10"},{"start_time":1551899918579,"click_time":1551899920022,"finger_time":1551899919482,"fix_duration":574.1730482989049,"trial":5,"RT":903,"MT":540,"sideResp":2,"stimulus":[],"xmouse":[781,781,781,781,781,781,781,781,781,781,781,781,781,781,781,781,781,781,781,781,781,781,781,781,781,781,781,781,781,781,781,781,781,781,781,781,781,781,781,781,781,781,781,782,783,783,784,786,807,827,841,846,851,865,881,902,923,954,1018,1034,1043,1049,1053,1055,1068,1084,1109,1126,1150,1150,1150,1150,1150],"ymouse":[586,586,586,586,586,586,586,586,586,586,586,586,586,586,586,586,586,586,586,586,586,586,586,586,586,586,586,586,586,586,586,586,586,586,586,586,586,586,586,586,586,586,586,578,575,573,571,569,551,537,525,519,510,492,478,465,456,447,442,440,435,421,407,383,322,293,263,235,175,145,122,103,94],"timestamp_mouse":[8,33,44,63,82,103,123,143,162,184,203,222,242,263,282,304,324,344,364,383,404,424,443,463,482,503,523,543,562,584,602,624,644,664,683,704,724,744,763,784,803,824,843,863,883,903,923,943,962,982,1004,1023,1044,1062,1083,1104,1122,1142,1162,1182,1203,1222,1243,1263,1284,1303,1322,1343,1362,1383,1403,1424,1443],"xSR":741.5,"ySR":573.95,"xT1":424.9,"yT1":0,"xT2":1058.1,"yT2":0,"toosoon":0,"cond_shown":"Congruent","ratio_trial":100,"L_num":1,"L_den":2,"R_num":3,"R_den":5,"correct_side":2,"subjID":"andresfelipemesaperez2","gender":"0","school":"6","age":"10"},{"start_time":1551899923705,"click_time":1551899925442,"finger_time":1551899924662,"fix_duration":1180.1903092957375,"trial":6,"RT":957,"MT":780,"sideResp":2,"stimulus":[],"xmouse":[777,777,777,777,777,777,777,777,777,777,777,777,777,777,777,777,777,777,777,777,777,777,777,777,777,777,777,777,777,777,777,777,777,777,777,777,777,777,777,777,777,777,777,777,777,781,819,856,901,925,948,986,999,1008,1021,1036,1098,1134,1171,1205,1218,1221,1217,1209,1202,1199,1195,1193,1191,1186,1183,1182,1181,1181,1179,1175,1175,1175,1175,1174,1173,1168,1166,1163,1160,1159,1156],"ymouse":[588,588,588,588,588,588,588,588,588,588,588,588,588,588,588,588,588,588,588,588,588,588,588,588,588,588,588,588,588,588,588,588,588,588,588,588,588,588,588,588,588,588,588,588,588,588,574,562,538,516,484,408,377,348,310,291,261,243,227,211,198,176,165,156,149,147,144,143,141,137,134,129,124,114,94,78,53,46,40,38,37,36,36,36,36,36,36],"timestamp_mouse":[18,46,57,77,97,118,137,157,177,196,217,238,258,278,298,317,337,358,376,398,416,438,457,478,496,517,537,557,578,598,616,638,658,677,696,717,738,758,778,798,817,838,856,877,897,917,936,957,977,997,1017,1037,1058,1077,1097,1118,1136,1157,1177,1197,1218,1236,1257,1277,1298,1316,1337,1358,1377,1397,1417,1437,1457,1476,1497,1518,1537,1556,1577,1597,1616,1636,1657,1676,1697,1718,1737],"xSR":741.5,"ySR":573.95,"xT1":424.9,"yT1":0,"xT2":1058.1,"yT2":0,"toosoon":0,"cond_shown":"Incongruent","ratio_trial":300,"L_num":13,"L_den":26,"R_num":12,"R_den":15,"correct_side":2,"subjID":"andresfelipemesaperez2","gender":"0","school":"6","age":"10"},{"start_time":1551899929282,"click_time":1551899931242,"finger_time":1551899930002,"fix_duration":298.56197888496206,"trial":7,"RT":720,"MT":1240,"sideResp":1,"stimulus":[],"xmouse":[781,781,781,781,781,781,781,781,781,781,781,781,781,781,781,781,781,781,781,781,781,781,781,781,781,781,781,781,781,781,781,781,781,780,776,772,760,738,717,714,709,707,703,674,652,636,629,624,624,624,624,624,624,617,615,614,613,613,612,610,605,596,589,573,572,568,560,553,542,539,538,538,538,537,534,530,526,525,524,524,524,524,524,524,524,524,524,524,523,522,521,520,520,519,519,519,519,517,514],"ymouse":[604,604,604,604,604,604,604,604,604,604,604,604,604,604,604,604,604,604,604,604,604,604,604,604,604,604,604,604,604,604,604,604,604,603,591,582,555,514,472,446,413,393,376,296,272,256,248,242,242,240,237,230,223,209,204,203,203,203,202,198,193,185,178,166,166,162,157,152,141,139,138,138,138,137,132,128,125,122,122,122,122,122,122,121,120,120,119,118,114,111,109,106,105,103,102,102,102,100,96],"timestamp_mouse":[8,19,43,60,81,100,120,140,159,181,200,220,240,261,281,300,320,339,361,381,400,419,441,460,481,500,519,540,560,581,599,619,639,660,679,700,720,740,760,780,799,820,841,860,880,900,920,941,961,981,1001,1021,1040,1060,1081,1101,1119,1139,1159,1179,1199,1220,1240,1259,1279,1299,1320,1341,1360,1379,1400,1420,1440,1459,1479,1501,1520,1540,1560,1580,1599,1620,1641,1660,1680,1699,1720,1740,1760,1779,1801,1819,1841,1859,1880,1901,1920,1940,1959],"xSR":741.5,"ySR":573.95,"xT1":424.9,"yT1":0,"xT2":1058.1,"yT2":0,"toosoon":0,"cond_shown":"Congruent","ratio_trial":300,"L_num":11,"L_den":22,"R_num":1,"R_den":5,"correct_side":1,"subjID":"andresfelipemesaperez2","gender":"0","school":"6","age":"10"},{"start_time":1551899935044,"click_time":1551899936441,"finger_time":1551899935642,"fix_duration":1000.5214186624884,"trial":8,"RT":598,"MT":799,"sideResp":2,"stimulus":[],"xmouse":[751,751,751,751,751,751,751,751,751,751,751,751,751,751,751,751,751,751,751,751,751,751,751,751,754,755,757,760,766,774,782,809,836,859,906,916,927,933,935,945,967,985,999,1015,1032,1032,1032,1032,1031,1031,1031,1031,1030,1029,1026,1024,1024,1024,1024,1024,1024,1024,1024,1024,1025,1028,1030,1031,1036,1077],"ymouse":[620,620,620,620,620,620,620,620,620,620,620,620,620,620,620,620,620,620,620,620,620,620,620,620,613,606,598,591,580,566,558,548,540,528,508,502,492,480,470,441,423,407,389,374,346,318,290,266,234,213,207,199,189,174,134,116,101,92,88,88,87,87,87,87,87,87,87,87,86,86],"timestamp_mouse":[31,38,58,79,99,118,138,159,177,199,217,238,258,277,299,318,339,357,377,399,418,439,458,479,499,517,538,559,578,598,619,638,657,679,699,718,737,758,779,798,819,837,857,879,899,919,939,958,977,998,1018,1038,1058,1079,1098,1117,1138,1159,1178,1198,1218,1238,1259,1278,1297,1319,1339,1358,1379,1397],"xSR":741.5,"ySR":573.95,"xT1":424.9,"yT1":0,"xT2":1058.1,"yT2":0,"toosoon":0,"cond_shown":"Congruent","ratio_trial":100,"L_num":2,"L_den":5,"R_num":6,"R_den":12,"correct_side":2,"subjID":"andresfelipemesaperez2","gender":"0","school":"6","age":"10"},{"start_time":1551899940368,"click_time":1551899941942,"finger_time":1551899941003,"fix_duration":425.9889390273912,"trial":9,"RT":635,"MT":939,"sideResp":2,"stimulus":[],"xmouse":[781,781,781,781,781,781,781,781,781,781,781,781,781,781,781,781,781,781,781,781,781,781,781,781,781,781,781,782,785,799,827,848,866,879,895,900,901,906,919,931,939,943,953,960,974,979,982,991,1010,1018,1021,1022,1025,1030,1031,1032,1032,1033,1034,1051,1069,1078,1085,1090,1093,1093,1094,1096,1097,1101,1102,1103,1103,1104,1106,1107,1108,1108,1110],"ymouse":[649,649,649,648,648,648,648,648,648,648,648,648,648,648,648,648,648,648,648,648,648,648,648,648,648,648,648,647,643,628,598,570,547,527,484,462,442,420,379,363,348,335,322,315,296,291,284,276,262,249,240,232,222,207,201,197,194,191,187,180,173,168,163,159,155,152,149,147,145,140,138,136,133,129,116,111,105,100,94],"timestamp_mouse":[15,40,55,74,95,115,135,155,175,195,213,234,253,274,294,314,335,353,374,394,414,434,455,473,494,513,535,554,575,594,614,635,654,675,694,714,735,755,775,794,814,835,853,875,895,914,933,953,975,993,1014,1035,1054,1075,1093,1115,1135,1154,1174,1193,1214,1234,1254,1274,1295,1314,1334,1354,1374,1393,1414,1434,1455,1474,1494,1513,1534,1554,1574],"xSR":741.5,"ySR":573.95,"xT1":424.9,"yT1":0,"xT2":1058.1,"yT2":0,"toosoon":0,"cond_shown":"Congruent","ratio_trial":200,"L_num":13,"L_den":26,"R_num":14,"R_den":20,"correct_side":2,"subjID":"andresfelipemesaperez2","gender":"0","school":"6","age":"10"},{"start_time":1551899945429,"click_time":1551899946945,"finger_time":1551899945984,"fix_duration":803.8733158705004,"trial":10,"RT":555,"MT":961,"sideResp":2,"stimulus":[],"xmouse":[791,791,791,791,791,791,791,791,791,791,791,791,791,791,791,791,791,791,791,791,791,791,791,791,791,791,794,807,829,851,892,896,898,898,898,898,898,898,898,898,898,901,915,929,941,968,1002,1015,1031,1048,1071,1076,1077,1077,1077,1078,1082,1083,1084,1084,1084,1085,1087,1090,1090,1092,1099,1101,1103,1104,1105,1105,1105,1105,1105,1104],"ymouse":[583,583,583,583,583,583,583,583,583,583,583,583,583,583,583,583,583,583,583,583,583,583,583,583,583,583,577,562,540,516,466,459,456,454,454,452,452,452,452,451,451,433,405,370,353,317,285,273,259,246,227,219,209,200,194,189,173,167,163,159,156,145,138,132,131,126,114,111,107,105,103,102,101,101,100,99],"timestamp_mouse":[15,36,57,76,96,116,137,156,176,197,216,235,255,275,295,316,336,357,375,397,415,435,456,475,495,516,535,555,576,596,616,635,655,677,695,715,735,756,775,797,815,836,855,876,895,916,935,957,975,995,1017,1035,1055,1076,1095,1116,1135,1155,1176,1195,1215,1236,1255,1275,1295,1315,1336,1356,1375,1396,1416,1436,1456,1475,1496,1516],"xSR":741.5,"ySR":573.95,"xT1":424.9,"yT1":0,"xT2":1058.1,"yT2":0,"toosoon":0,"cond_shown":"Incongruent","ratio_trial":300,"L_num":3,"L_den":6,"R_num":4,"R_den":20,"correct_side":1,"subjID":"andresfelipemesaperez2","gender":"0","school":"6","age":"10"},{"start_time":1551899956530,"click_time":1551899958144,"finger_time":1551899957164,"fix_duration":1142.8272145812766,"trial":11,"RT":634,"MT":980,"sideResp":2,"stimulus":[],"xmouse":[790,790,790,790,790,790,790,790,790,790,790,790,790,790,790,790,790,790,790,790,790,790,789,789,789,789,789,789,789,789,789,789,789,789,789,790,794,799,806,817,830,852,872,879,886,894,900,905,911,918,926,931,936,946,948,952,952,953,954,957,961,968,971,980,998,1011,1025,1026,1027,1028,1032,1035,1045,1052,1055,1077,1082,1088,1091,1093,1095],"ymouse":[580,580,580,580,580,580,580,580,580,580,580,580,580,580,580,580,580,580,580,580,580,580,580,580,580,580,580,578,577,576,574,573,573,573,572,570,567,564,558,548,531,491,436,399,361,330,316,305,295,280,266,253,244,234,229,217,213,208,203,198,193,179,174,168,165,164,162,161,160,160,155,153,149,147,143,129,123,114,107,100,90],"timestamp_mouse":[14,36,54,75,96,115,134,156,175,196,214,234,255,274,295,315,336,355,374,395,415,434,455,474,495,514,534,554,575,595,614,634,655,674,694,714,734,755,775,796,814,834,855,875,894,915,934,955,975,995,1015,1035,1055,1074,1095,1115,1134,1154,1175,1195,1214,1235,1254,1275,1295,1314,1334,1354,1374,1395,1414,1434,1454,1474,1494,1514,1534,1555,1574,1594,1614],"xSR":741.5,"ySR":573.95,"xT1":424.9,"yT1":0,"xT2":1058.1,"yT2":0,"toosoon":0,"cond_shown":"Incongruent","ratio_trial":200,"L_num":7,"L_den":10,"R_num":14,"R_den":28,"correct_side":1,"subjID":"andresfelipemesaperez2","gender":"0","school":"6","age":"10"},{"start_time":1551899962641,"click_time":1551899963647,"finger_time":1551899963205,"fix_duration":1454.0383271729802,"trial":12,"RT":564,"MT":442,"sideResp":1,"stimulus":[],"xmouse":[817,817,817,817,817,817,817,817,817,817,817,817,817,817,817,817,817,817,817,817,817,817,817,817,817,817,817,817,815,800,759,734,711,685,659,642,628,623,604,588,574,574,574,574,574,573,570,565,553,538,501],"ymouse":[576,576,576,576,576,576,576,576,576,576,576,576,576,576,576,576,576,576,576,576,576,576,576,576,576,576,576,576,572,546,471,422,355,283,215,169,129,118,81,43,15,12,6,3,2,2,2,2,2,4,15],"timestamp_mouse":[8,23,44,64,85,103,123,143,163,183,204,224,245,264,283,305,324,344,364,383,404,423,444,463,485,504,525,543,564,583,604,623,643,664,683,703,723,743,764,784,803,823,843,863,883,904,923,943,963,984,1006],"xSR":741.5,"ySR":573.95,"xT1":424.9,"yT1":0,"xT2":1058.1,"yT2":0,"toosoon":0,"cond_shown":"Incongruent","ratio_trial":200,"L_num":3,"L_den":10,"R_num":1,"R_den":2,"correct_side":2,"subjID":"andresfelipemesaperez2","gender":"0","school":"6","age":"10"},{"start_time":1551899973086,"click_time":1551899975005,"finger_time":1551899974164,"fix_duration":1439.5783385268494,"trial":13,"RT":1078,"MT":841,"sideResp":2,"stimulus":[],"xmouse":[776,776,776,776,776,776,776,776,776,776,776,776,776,776,776,776,776,776,776,776,776,776,776,776,776,776,776,776,776,776,776,776,776,776,776,774,773,772,769,766,765,764,764,764,764,764,764,767,772,780,787,802,818,869,902,941,987,1036,1055,1083,1111,1131,1148,1170,1185,1195,1211,1237,1246,1248,1248,1245,1243,1239,1235,1228,1222,1202,1199,1199,1199,1198,1193,1193,1190,1188,1187,1185,1178,1175,1173,1170,1168,1162,1159,1157],"ymouse":[644,644,644,644,644,644,644,644,644,644,644,644,644,644,644,644,644,644,644,644,644,644,644,644,644,644,644,644,644,644,644,644,644,644,644,644,644,644,644,644,644,644,644,644,644,644,644,643,638,633,628,618,610,574,555,533,507,466,441,418,397,377,363,340,317,302,284,246,213,181,149,110,82,34,22,11,7,0,0,0,0,0,1,2,4,5,6,8,12,13,14,15,16,19,21,23],"timestamp_mouse":[18,43,58,79,98,119,138,158,179,198,218,238,259,278,298,318,338,358,379,398,418,439,460,478,500,519,539,559,579,598,619,639,658,678,698,718,739,758,778,798,819,838,859,879,898,918,939,958,978,998,1018,1039,1058,1078,1099,1118,1138,1159,1178,1199,1218,1239,1258,1279,1300,1318,1338,1359,1379,1398,1418,1438,1459,1478,1498,1520,1538,1559,1578,1598,1618,1638,1660,1678,1698,1718,1738,1759,1778,1799,1818,1839,1859,1879,1899,1919],"xSR":741.5,"ySR":573.95,"xT1":424.9,"yT1":0,"xT2":1058.1,"yT2":0,"toosoon":0,"cond_shown":"Congruent","ratio_trial":300,"L_num":1,"L_den":30,"R_num":8,"R_den":24,"correct_side":2,"subjID":"andresfelipemesaperez2","gender":"0","school":"6","age":"10"},{"start_time":1551899981740,"click_time":1551899983225,"finger_time":1551899982425,"fix_duration":353.700097985135,"trial":14,"RT":685,"MT":800,"sideResp":1,"stimulus":[],"xmouse":[822,822,822,822,822,822,822,822,822,822,822,822,822,822,822,822,822,822,822,822,822,822,822,822,822,822,822,822,822,822,822,820,814,801,784,762,711,691,677,669,668,667,665,660,653,651,649,644,644,639,631,610,602,592,587,583,566,556,548,544,532,519,513,511,510,510,510,509,507,506,505,503,502,499,496],"ymouse":[591,591,591,591,591,591,591,591,591,591,591,591,591,591,591,591,591,591,591,591,591,591,591,591,591,591,591,591,591,591,591,590,583,575,564,547,510,486,463,442,428,410,392,378,367,361,357,347,347,339,326,281,259,240,229,220,196,185,174,168,144,128,122,120,119,118,117,115,113,113,111,107,104,100,94],"timestamp_mouse":[9,37,46,64,84,104,125,145,164,185,205,224,244,264,285,304,324,344,365,385,404,424,444,464,486,504,524,544,565,585,605,624,645,665,685,704,724,745,765,784,805,824,844,864,885,905,924,944,964,984,1005,1024,1044,1065,1084,1105,1125,1144,1165,1185,1205,1224,1244,1264,1284,1305,1324,1344,1365,1384,1405,1424,1445,1465,1485],"xSR":741.5,"ySR":573.95,"xT1":424.9,"yT1":0,"xT2":1058.1,"yT2":0,"toosoon":0,"cond_shown":"Congruent","ratio_trial":100,"L_num":11,"L_den":22,"R_num":4,"R_den":10,"correct_side":1,"subjID":"andresfelipemesaperez2","gender":"0","school":"6","age":"10"},{"start_time":1551899986797,"click_time":1551899988185,"finger_time":1551899987464,"fix_duration":932.8500043028553,"trial":15,"RT":667,"MT":721,"sideResp":1,"stimulus":[],"xmouse":[764,764,764,764,764,764,764,764,764,764,764,764,764,764,764,764,764,764,764,764,764,764,764,764,764,764,764,764,764,764,763,759,743,733,724,717,709,701,683,677,668,655,643,620,617,616,615,608,600,590,583,574,562,560,554,549,543,525,515,513,508,508,508,508,508,508,508,508,505,502],"ymouse":[631,631,631,631,631,631,631,631,631,631,631,631,631,631,631,631,631,631,631,631,631,631,631,631,631,631,631,631,631,631,624,614,586,567,551,534,517,494,432,420,403,376,349,305,302,299,292,263,227,203,188,172,155,150,146,141,135,124,115,114,113,113,113,113,113,113,113,111,104,98],"timestamp_mouse":[8,27,47,67,88,109,128,147,167,188,207,228,248,269,288,309,328,347,368,387,409,427,447,467,487,508,528,547,568,587,608,628,648,667,687,707,727,747,768,787,808,828,848,869,888,907,927,948,967,987,1008,1027,1048,1067,1087,1108,1127,1149,1167,1187,1208,1228,1247,1267,1288,1307,1328,1347,1368,1388],"xSR":741.5,"ySR":573.95,"xT1":424.9,"yT1":0,"xT2":1058.1,"yT2":0,"toosoon":0,"cond_shown":"Congruent","ratio_trial":100,"L_num":11,"L_den":22,"R_num":4,"R_den":10,"correct_side":1,"subjID":"andresfelipemesaperez2","gender":"0","school":"6","age":"10"},{"start_time":1551899991371,"click_time":1551899996145,"finger_time":1551899991885,"fix_duration":504.6976729957511,"trial":16,"RT":514,"MT":4260,"sideResp":2,"stimulus":[],"xmouse":[745,745,745,745,745,745,745,745,745,745,745,745,745,745,745,745,745,745,745,745,745,744,744,742,742,739,736,734,734,728,727,727,727,727,727,727,727,727,727,727,727,727,727,727,727,727,727,727,727,727,727,727,727,727,727,727,727,727,730,735,736,736,736,736,736,736,736,736,736,736,736,736,736,736,736,736,736,736,736,736,736,736,736,742,748,753,759,777,800,811,831,851,874,932,952,971,996,1013,1027,1047,1050,1052,1052,1052,1052,1052,1052,1054,1055,1055,1056,1057,1059,1060,1066,1068,1069,1072,1072,1072,1072,1072,1072,1072,1072,1072,1072,1073,1073,1073,1073,1073,1073,1074,1074,1074,1075,1075,1075,1075,1075,1075,1075,1075,1075,1075,1075,1075,1075,1075,1075,1075,1075,1075,1075,1075,1075,1075,1075,1075,1075,1075,1075,1075,1075,1075,1075,1075,1075,1075,1074,1074,1074,1074,1074,1074,1074,1074,1074,1074,1074,1074,1074,1074,1074,1074,1074,1074,1074,1074,1074,1074,1074,1074,1074,1074,1074,1074,1074,1074,1074,1074,1074,1074,1074,1074,1074,1074,1074,1074,1074,1074,1074,1074,1074,1074,1074,1074,1074,1074,1074,1074,1074,1074,1074,1074,1074,1074,1074,1074,1074,1074,1074,1074,1074,1074,1074,1074,1074],"ymouse":[628,628,628,628,628,628,628,628,628,628,628,628,628,628,628,628,628,628,628,628,628,628,628,628,628,626,624,623,622,617,617,617,617,617,617,617,617,617,617,617,617,617,617,617,617,617,617,617,617,617,617,617,617,617,617,617,617,617,615,611,610,609,609,609,609,609,609,609,609,609,609,609,609,609,609,609,609,609,609,609,609,609,609,602,591,575,547,515,483,471,455,445,437,431,419,407,395,384,371,323,292,277,261,231,218,209,201,196,193,192,189,186,184,180,169,164,159,155,150,148,147,146,145,144,143,142,140,139,137,136,135,134,134,132,132,130,128,126,122,120,120,119,118,115,114,112,110,109,109,109,109,108,108,108,108,107,107,106,106,105,105,105,105,105,105,105,105,105,104,104,104,104,104,104,104,104,104,104,104,104,104,103,103,102,102,102,102,102,102,102,102,102,102,102,101,101,101,101,101,101,101,101,101,101,101,101,101,101,101,101,101,101,101,101,101,101,101,101,101,101,101,101,101,101,101,101,101,101,101,101,101,101,101,101,101,101,100,100,99],"timestamp_mouse":[15,40,54,74,94,113,135,154,175,194,214,234,255,273,293,314,333,354,373,393,413,434,454,474,493,514,533,553,573,593,614,634,654,674,695,714,734,754,774,793,813,834,854,873,894,913,933,954,974,993,1013,1033,1055,1073,1093,1113,1133,1153,1174,1193,1213,1233,1253,1274,1293,1314,1334,1354,1373,1394,1413,1433,1454,1474,1494,1514,1534,1553,1575,1593,1614,1634,1654,1674,1694,1714,1734,1753,1774,1793,1815,1834,1854,1874,1893,1913,1933,1953,1973,1993,2014,2033,2053,2074,2093,2113,2134,2153,2174,2193,2213,2233,2254,2273,2294,2313,2334,2354,2374,2393,2414,2434,2453,2473,2494,2513,2533,2554,2574,2593,2614,2634,2654,2674,2694,2714,2733,2754,2775,2793,2813,2834,2853,2874,2893,2913,2933,2953,2974,2993,3015,3035,3054,3074,3095,3113,3134,3155,3173,3193,3213,3234,3253,3274,3293,3313,3333,3353,3374,3394,3413,3434,3455,3473,3494,3513,3535,3553,3574,3593,3614,3633,3654,3673,3693,3713,3733,3754,3773,3793,3813,3833,3855,3874,3894,3914,3934,3954,3974,3993,4013,4034,4055,4075,4094,4113,4134,4154,4175,4194,4214,4233,4254,4274,4293,4313,4334,4353,4373,4394,4413,4433,4453,4474,4493,4514,4533,4553,4574,4594,4614,4633,4654,4674,4694,4713,4733,4753,4774],"xSR":741.5,"ySR":573.95,"xT1":424.9,"yT1":0,"xT2":1058.1,"yT2":0,"toosoon":0,"cond_shown":"Congruent","ratio_trial":100,"L_num":7,"L_den":14,"R_num":9,"R_den":15,"correct_side":2,"subjID":"andresfelipemesaperez2","gender":"0","school":"6","age":"10"},{"start_time":1551900000324,"click_time":1551900001664,"finger_time":1551900000906,"fix_duration":1458.2462658560373,"trial":17,"RT":582,"MT":758,"sideResp":1,"stimulus":[],"xmouse":[764,764,764,764,764,764,764,764,764,764,764,764,764,764,764,764,764,764,764,764,764,764,764,764,764,764,764,764,764,764,762,747,726,710,688,660,633,599,582,572,567,565,564,564,564,564,564,563,561,560,559,558,558,555,550,547,541,540,540,538,537,534,531,531,531,531,528,520],"ymouse":[589,589,589,589,589,589,589,589,589,589,589,589,589,589,589,589,589,589,589,589,589,589,589,589,589,589,589,586,582,569,531,437,366,314,255,190,140,72,41,20,12,10,9,9,9,9,9,8,8,8,8,8,8,13,18,23,27,27,27,27,29,30,33,33,33,33,34,36],"timestamp_mouse":[8,21,43,61,81,102,121,141,161,181,200,220,241,261,281,301,320,341,362,380,400,421,440,461,480,500,521,540,561,582,600,620,640,661,681,700,720,741,761,781,801,820,840,860,880,902,920,940,960,981,1000,1022,1040,1061,1081,1101,1121,1140,1160,1181,1200,1220,1240,1260,1281,1302,1321,1340],"xSR":741.5,"ySR":573.95,"xT1":424.9,"yT1":0,"xT2":1058.1,"yT2":0,"toosoon":0,"cond_shown":"Congruent","ratio_trial":100,"L_num":8,"L_den":16,"R_num":2,"R_den":5,"correct_side":1,"subjID":"andresfelipemesaperez2","gender":"0","school":"6","age":"10"},{"start_time":1551900009518,"click_time":1551900010267,"finger_time":1551900010166,"fix_duration":250,"trial":18,"RT":648,"MT":101,"sideResp":2,"stimulus":[],"xmouse":[759,759,759,759,759,759,760,761,761,761,761,761,761,761,761,761,761,761,761,761,761,761,761,761,761,761,761,761,761,766,768,771,797,835,892,960,1035,1109],"ymouse":[610,610,610,610,610,610,610,610,610,610,610,610,610,610,610,610,610,610,610,610,610,610,610,610,610,610,610,610,610,603,600,593,556,514,453,367,247,94],"timestamp_mouse":[9,29,62,68,89,108,129,149,169,190,208,229,248,270,289,310,330,348,370,388,408,428,448,470,488,509,529,550,568,589,609,628,648,670,689,710,728,749],"xSR":741.5,"ySR":573.95,"xT1":424.9,"yT1":0,"xT2":1058.1,"yT2":0,"toosoon":0,"cond_shown":"Congruent","ratio_trial":100,"L_num":6,"L_den":12,"R_num":15,"R_den":25,"correct_side":2,"subjID":"andresfelipemesaperez2","gender":"0","school":"6","age":"10"},{"start_time":1551900014098,"click_time":1551900016907,"finger_time":1551900015448,"fix_duration":1028.1770435498022,"trial":19,"RT":1350,"MT":1459,"sideResp":1,"stimulus":[],"xmouse":[778,778,778,778,778,778,778,778,778,778,778,778,778,778,778,778,778,778,778,778,778,778,778,778,778,778,778,778,778,778,778,778,778,778,778,778,778,778,778,778,778,778,778,778,778,778,778,778,778,778,778,778,778,778,778,778,778,778,778,778,778,778,778,778,778,775,769,737,708,666,616,584,563,543,543,542,542,542,542,542,542,542,542,543,544,547,554,573,593,617,628,641,666,687,703,727,751,827,865,885,909,921,923,920,913,902,883,863,821,792,773,750,702,676,671,656,641,630,630,630,629,629,629,620,616,608,601,592,574,568,564,558,547,537,531,531,530,530,529,526,521],"ymouse":[600,600,600,600,600,600,600,600,600,600,600,600,600,600,600,600,600,600,600,600,600,600,600,600,600,600,600,600,600,600,600,598,597,596,596,595,595,594,594,594,594,594,594,594,594,594,593,593,593,593,593,593,593,593,593,593,593,593,593,593,593,593,593,593,592,588,582,552,517,466,410,358,314,266,255,249,245,244,244,244,244,244,244,244,243,241,237,225,214,213,211,211,210,210,208,207,207,207,207,207,207,204,203,202,198,190,179,163,137,125,117,108,100,100,100,100,100,100,100,100,100,99,98,82,78,70,64,58,48,43,41,41,41,43,45,45,45,46,46,49,53],"timestamp_mouse":[8,41,48,68,88,108,129,149,168,190,208,229,249,270,288,309,329,348,368,390,408,430,450,468,488,510,528,550,568,590,608,630,648,669,690,708,729,750,769,790,808,829,850,869,890,908,929,948,968,989,1008,1029,1049,1069,1089,1108,1128,1149,1168,1190,1208,1228,1249,1269,1290,1310,1328,1350,1369,1388,1409,1428,1448,1470,1488,1509,1529,1549,1569,1589,1608,1629,1648,1669,1689,1710,1728,1749,1768,1790,1810,1829,1849,1869,1889,1909,1929,1949,1968,1988,2009,2030,2048,2068,2088,2110,2129,2149,2180,2189,2209,2232,2249,2268,2290,2310,2330,2349,2368,2389,2410,2428,2449,2469,2489,2510,2529,2549,2569,2589,2609,2629,2649,2668,2689,2708,2730,2749,2768,2790,2809],"xSR":741.5,"ySR":573.95,"xT1":424.9,"yT1":0,"xT2":1058.1,"yT2":0,"toosoon":0,"cond_shown":"Incongruent","ratio_trial":300,"L_num":8,"L_den":10,"R_num":9,"R_den":18,"correct_side":1,"subjID":"andresfelipemesaperez2","gender":"0","school":"6","age":"10"},{"start_time":1551900021032,"click_time":1551900022826,"finger_time":1551900022067,"fix_duration":1245.0446501489077,"trial":20,"RT":1035,"MT":759,"sideResp":2,"stimulus":[],"xmouse":[765,765,765,765,765,765,765,765,765,765,765,765,765,765,765,765,765,765,765,765,765,765,765,765,765,765,765,765,765,765,765,765,765,765,765,765,765,765,765,765,765,765,765,765,765,765,765,765,768,778,793,801,809,821,830,837,863,876,883,889,893,894,895,901,914,938,950,972,986,997,1011,1037,1051,1061,1068,1072,1072,1072,1072,1072,1072,1072,1072,1072,1071,1069,1069,1069,1069,1069],"ymouse":[640,640,640,640,640,640,640,640,640,640,640,640,640,640,640,640,640,640,640,640,640,640,640,640,640,640,640,640,640,640,640,640,640,640,640,640,639,638,638,638,638,638,638,638,638,638,638,638,631,613,577,557,538,513,490,472,429,415,406,400,388,384,374,362,351,325,311,291,276,264,252,236,229,222,215,197,185,174,169,165,157,151,142,133,123,112,108,104,101,98],"timestamp_mouse":[14,34,56,74,96,115,135,154,174,195,216,235,255,276,296,315,335,354,374,396,414,435,456,475,495,514,536,555,574,594,615,634,655,674,696,714,736,754,775,794,815,834,855,874,894,916,934,955,976,994,1016,1035,1055,1074,1095,1115,1135,1155,1174,1194,1215,1234,1255,1274,1294,1315,1334,1355,1375,1394,1414,1435,1455,1476,1495,1515,1534,1554,1575,1596,1615,1634,1655,1675,1695,1715,1734,1755,1776,1794],"xSR":741.5,"ySR":573.95,"xT1":424.9,"yT1":0,"xT2":1058.1,"yT2":0,"toosoon":0,"cond_shown":"Congruent","ratio_trial":300,"L_num":1,"L_den":30,"R_num":8,"R_den":24,"correct_side":2,"subjID":"andresfelipemesaperez2","gender":"0","school":"6","age":"10"},{"start_time":1551900025781,"click_time":1551900026988,"finger_time":1551900026468,"fix_duration":1233.797847464727,"trial":21,"RT":687,"MT":520,"sideResp":2,"stimulus":[],"xmouse":[754,754,754,754,755,755,755,755,755,755,755,755,755,755,755,755,755,755,755,755,755,755,755,755,755,755,755,755,755,755,758,765,777,799,864,925,965,997,1051,1064,1074,1074,1074,1074,1076,1077,1077,1077,1078,1078,1078,1078,1078,1078,1079,1082,1084,1088,1093,1095,1096],"ymouse":[624,623,623,623,622,622,621,621,621,620,620,620,620,620,620,620,620,620,620,620,620,620,620,620,620,620,620,620,620,620,618,614,606,591,526,470,432,403,356,333,295,270,248,213,198,184,171,163,158,157,156,156,156,155,149,142,133,121,106,100,93],"timestamp_mouse":[5,26,47,65,85,105,125,146,166,186,206,225,245,266,285,306,325,345,365,386,406,426,447,466,485,506,525,547,567,587,606,626,647,665,686,705,727,745,766,785,806,826,847,866,886,905,926,945,965,987,1006,1025,1047,1066,1085,1105,1126,1145,1166,1185,1207],"xSR":741.5,"ySR":573.95,"xT1":424.9,"yT1":0,"xT2":1058.1,"yT2":0,"toosoon":0,"cond_shown":"Congruent","ratio_trial":200,"L_num":3,"L_den":12,"R_num":9,"R_den":20,"correct_side":2,"subjID":"andresfelipemesaperez2","gender":"0","school":"6","age":"10"},{"start_time":1551900032000,"click_time":1551900033206,"finger_time":1551900032646,"fix_duration":250,"trial":22,"RT":646,"MT":560,"sideResp":1,"stimulus":[],"xmouse":[790,790,790,790,790,790,790,790,790,790,790,790,790,790,790,790,790,790,790,790,790,790,790,790,790,790,790,790,790,790,790,790,773,757,740,726,719,705,691,676,661,649,622,615,614,614,613,612,609,608,603,591,577,566,565,560,549,529,523,517,517],"ymouse":[600,600,600,600,600,600,600,600,600,600,600,600,600,600,599,599,598,598,597,596,595,593,590,590,590,590,590,590,590,590,589,577,545,526,504,487,474,443,411,387,370,353,321,309,299,295,284,263,246,242,233,216,201,187,186,179,166,140,125,102,96],"timestamp_mouse":[8,33,48,67,87,106,126,146,167,187,207,227,247,268,287,308,327,346,368,386,407,428,446,466,487,506,526,547,568,587,608,626,646,666,688,708,727,746,766,787,806,826,846,866,886,906,927,947,966,987,1007,1027,1047,1067,1086,1107,1128,1147,1167,1186,1206],"xSR":741.5,"ySR":573.95,"xT1":424.9,"yT1":0,"xT2":1058.1,"yT2":0,"toosoon":0,"cond_shown":"Congruent","ratio_trial":200,"L_num":12,"L_den":20,"R_num":6,"R_den":15,"correct_side":1,"subjID":"andresfelipemesaperez2","gender":"0","school":"6","age":"10"},{"start_time":1551900040193,"click_time":1551900041308,"finger_time":1551900040787,"fix_duration":325.97384629855355,"trial":23,"RT":594,"MT":521,"sideResp":2,"stimulus":[],"xmouse":[780,780,781,781,782,782,782,782,782,782,782,782,782,782,782,782,782,782,782,782,782,782,782,782,782,786,788,803,813,822,841,868,913,939,958,970,980,987,987,988,988,989,991,993,996,998,999,999,999,999,1001,1006,1041,1059,1075,1095],"ymouse":[633,633,633,633,633,633,633,633,633,633,633,633,633,633,633,633,633,633,633,633,633,633,633,633,633,629,624,602,583,562,522,492,434,413,397,384,372,360,357,354,352,350,341,329,315,300,282,248,230,211,200,188,147,129,113,95],"timestamp_mouse":[13,34,55,75,93,115,135,155,173,195,213,234,255,273,294,314,333,354,374,395,413,435,454,473,495,514,534,554,573,594,614,633,653,674,694,713,734,753,774,793,813,835,854,873,894,914,934,953,975,994,1013,1035,1053,1073,1093,1115],"xSR":741.5,"ySR":573.95,"xT1":424.9,"yT1":0,"xT2":1058.1,"yT2":0,"toosoon":0,"cond_shown":"Congruent","ratio_trial":200,"L_num":3,"L_den":10,"R_num":7,"R_den":14,"correct_side":2,"subjID":"andresfelipemesaperez2","gender":"0","school":"6","age":"10"},{"start_time":1551900071583,"click_time":1551900072848,"finger_time":1551900072147,"fix_duration":272.88268787011896,"trial":24,"RT":564,"MT":701,"sideResp":1,"stimulus":[],"xmouse":[768,768,768,768,768,768,768,768,768,768,768,768,768,768,768,768,768,768,768,768,768,768,768,764,762,759,756,754,752,751,751,751,749,749,749,749,747,745,731,718,708,702,699,691,686,677,666,656,623,608,598,592,583,560,544,530,522,522,522,523,523,524,524,524],"ymouse":[628,628,628,628,628,628,628,628,628,628,628,628,628,628,628,628,628,628,628,628,628,628,628,624,622,617,611,604,563,524,499,479,467,462,458,456,450,441,418,390,373,362,357,349,346,343,337,332,320,308,300,290,275,235,212,189,166,144,115,112,111,108,106,98],"timestamp_mouse":[8,37,45,65,84,104,124,145,164,184,205,225,244,266,286,304,324,345,364,384,404,424,445,465,485,505,524,544,564,584,604,625,645,665,685,706,725,744,765,784,804,825,844,865,884,904,925,946,965,984,1005,1025,1044,1064,1085,1104,1124,1145,1165,1185,1204,1225,1244,1265],"xSR":741.5,"ySR":573.95,"xT1":424.9,"yT1":0,"xT2":1058.1,"yT2":0,"toosoon":0,"cond_shown":"Incongruent","ratio_trial":200,"L_num":7,"L_den":15,"R_num":4,"R_den":6,"correct_side":2,"subjID":"andresfelipemesaperez2","gender":"0","school":"6","age":"10"},{"start_time":1551900082369,"click_time":1551900084847,"finger_time":1551900083427,"fix_duration":818.477106074999,"trial":25,"RT":1058,"MT":1420,"sideResp":1,"stimulus":[],"xmouse":[831,831,831,831,831,831,831,831,831,831,831,831,831,831,831,831,831,831,831,831,831,831,831,831,831,831,831,831,831,831,831,831,831,831,831,831,831,831,829,828,828,828,828,828,828,828,828,828,828,828,828,827,822,814,781,770,765,765,765,765,765,765,766,769,781,787,793,803,812,825,826,827,828,828,830,834,835,838,839,846,857,864,871,878,885,887,888,889,892,901,906,923,927,928,930,930,930,930,928,912,890,871,855,832,775,745,718,691,666,628,603,576,559,549,546,546,546,545,545,544,544,544,540,534,520],"ymouse":[592,592,592,592,592,592,592,592,592,592,592,592,592,592,592,592,592,592,592,592,592,592,592,592,592,592,592,592,592,592,592,592,592,592,592,592,592,592,593,595,596,596,596,596,596,596,596,596,596,596,596,594,576,539,459,440,435,435,435,435,435,435,434,432,421,414,407,392,377,360,358,357,355,353,348,345,342,340,338,332,321,315,310,305,299,296,294,291,287,276,272,267,267,266,264,264,263,262,261,252,242,232,220,207,171,150,136,124,116,108,100,91,85,82,80,80,80,80,80,80,80,80,80,80,78],"timestamp_mouse":[1,19,42,58,80,100,119,138,158,180,198,219,238,259,279,300,320,338,360,378,398,420,438,460,479,499,518,540,558,580,598,619,640,660,679,698,720,739,760,778,800,820,839,858,880,898,918,939,958,980,998,1019,1038,1058,1079,1099,1119,1139,1159,1180,1199,1218,1239,1259,1279,1299,1318,1339,1359,1379,1400,1418,1438,1459,1479,1498,1518,1539,1559,1578,1598,1619,1639,1660,1678,1698,1720,1740,1758,1778,1800,1819,1838,1859,1879,1898,1918,1939,1959,1978,1998,2020,2039,2059,2079,2098,2118,2139,2158,2178,2199,2220,2239,2258,2279,2298,2319,2338,2359,2378,2398,2418,2438,2459,2478],"xSR":741.5,"ySR":573.95,"xT1":424.9,"yT1":0,"xT2":1058.1,"yT2":0,"toosoon":0,"cond_shown":"Congruent","ratio_trial":200,"L_num":21,"L_den":30,"R_num":2,"R_den":4,"correct_side":1,"subjID":"andresfelipemesaperez2","gender":"0","school":"6","age":"10"},{"start_time":1551900088865,"click_time":1551900091308,"finger_time":1551900090367,"fix_duration":395.0653976923103,"trial":26,"RT":1502,"MT":941,"sideResp":2,"stimulus":[],"xmouse":[797,797,797,797,797,797,797,797,797,797,798,798,798,798,798,798,798,798,798,798,798,798,798,798,798,798,798,798,798,798,798,798,798,798,798,798,798,798,798,798,798,798,798,798,798,798,798,798,798,798,798,798,798,798,798,798,798,798,798,798,798,798,798,798,798,798,798,798,798,798,798,798,797,792,772,760,733,724,719,714,703,679,652,638,637,640,644,646,647,651,666,683,700,737,808,857,904,970,1014,1123,1174,1212,1227,1228,1216,1208,1202,1202,1202,1202,1202,1202,1202,1202,1202,1202,1202,1202,1201,1190,1176,1166,1156],"ymouse":[645,645,645,645,645,645,645,645,645,645,645,645,645,645,645,645,645,645,645,645,645,645,645,645,645,645,645,645,645,645,645,645,645,645,645,645,645,645,645,645,645,645,645,645,645,645,645,645,645,645,645,645,645,645,645,645,645,645,645,645,645,645,645,645,645,645,645,645,645,645,645,644,643,631,582,551,481,464,448,388,327,252,191,162,151,150,149,148,148,148,148,148,148,150,157,159,160,157,157,170,182,196,202,202,197,194,187,181,162,82,50,34,25,22,21,21,21,21,21,18,16,13,9],"timestamp_mouse":[9,36,44,62,84,103,122,143,164,183,203,224,242,264,283,304,322,343,363,384,402,423,442,463,482,503,522,544,563,584,602,623,644,662,683,703,722,744,764,782,803,822,844,864,882,902,924,942,962,984,1002,1024,1043,1062,1083,1102,1123,1142,1163,1182,1203,1222,1244,1262,1283,1302,1324,1342,1364,1382,1403,1424,1443,1463,1482,1502,1523,1543,1562,1583,1603,1623,1643,1662,1682,1702,1722,1743,1762,1782,1803,1823,1842,1864,1883,1902,1923,1944,1963,1982,2002,2023,2043,2063,2082,2103,2123,2143,2163,2182,2203,2222,2243,2263,2283,2303,2322,2343,2363,2383,2403,2422,2443],"xSR":741.5,"ySR":573.95,"xT1":424.9,"yT1":0,"xT2":1058.1,"yT2":0,"toosoon":0,"cond_shown":"Incongruent","ratio_trial":100,"L_num":4,"L_den":8,"R_num":8,"R_den":20,"correct_side":1,"subjID":"andresfelipemesaperez2","gender":"0","school":"6","age":"10"},{"start_time":1551900093420,"click_time":1551900095308,"finger_time":1551900094867,"fix_duration":570.3774087173908,"trial":27,"RT":1447,"MT":441,"sideResp":1,"stimulus":[],"xmouse":[746,746,746,746,746,746,746,746,746,746,746,746,746,746,746,746,746,746,746,747,747,747,747,747,747,747,748,748,748,748,748,748,748,748,748,748,748,748,748,748,748,748,748,748,748,748,748,748,748,748,748,748,748,748,748,748,748,748,748,748,748,748,748,748,748,748,748,748,748,748,747,744,731,720,706,684,649,625,608,590,571,556,541,540,539,539,536,531,527,523,520,515,511,502,493],"ymouse":[609,609,609,609,609,609,609,609,609,609,609,609,609,609,609,609,609,609,609,609,608,606,605,603,601,599,597,596,596,596,596,596,596,596,596,596,596,596,596,596,596,596,596,596,596,596,596,596,596,596,596,596,596,596,596,596,596,596,596,596,596,596,596,596,596,596,596,596,596,596,593,588,551,520,484,436,367,330,302,271,239,214,184,180,177,175,164,153,148,142,137,126,116,101,86],"timestamp_mouse":[10,31,47,69,88,108,127,148,169,188,209,227,248,267,289,307,328,347,369,388,408,428,448,468,488,507,528,547,567,588,607,627,647,668,687,708,728,748,769,788,807,828,848,867,889,908,928,947,969,987,1007,1027,1048,1069,1088,1108,1128,1147,1168,1187,1207,1228,1247,1268,1288,1308,1328,1347,1368,1389,1408,1428,1447,1469,1488,1507,1528,1548,1567,1589,1609,1628,1647,1667,1688,1708,1728,1748,1767,1788,1809,1828,1848,1867,1888],"xSR":741.5,"ySR":573.95,"xT1":424.9,"yT1":0,"xT2":1058.1,"yT2":0,"toosoon":0,"cond_shown":"Incongruent","ratio_trial":300,"L_num":4,"L_den":20,"R_num":2,"R_den":4,"correct_side":2,"subjID":"andresfelipemesaperez2","gender":"0","school":"6","age":"10"},{"start_time":1551900098912,"click_time":1551900101248,"finger_time":1551900100567,"fix_duration":983.4186177831327,"trial":28,"RT":1655,"MT":681,"sideResp":2,"stimulus":[],"xmouse":[757,757,757,757,757,757,757,757,757,757,757,757,757,757,757,757,757,757,757,757,757,757,757,757,757,757,757,757,757,757,757,757,757,757,757,757,757,757,757,757,757,757,757,757,757,757,757,757,757,757,757,757,757,757,757,757,757,757,757,757,757,757,757,757,757,757,757,757,757,757,757,757,757,757,757,757,757,757,757,757,765,799,853,879,906,931,986,1013,1045,1067,1091,1134,1149,1163,1172,1182,1192,1194,1195,1195,1195,1195,1199,1199,1199,1199,1199,1198,1197,1197,1197,1190,1182,1169,1164,1159,1150],"ymouse":[653,653,653,653,653,653,653,653,653,653,653,653,653,653,653,653,653,653,653,653,653,653,653,653,653,653,653,653,653,653,653,653,653,653,653,653,653,653,653,653,653,653,653,653,653,653,653,653,653,653,653,653,653,653,653,653,653,653,653,653,653,653,653,653,653,653,653,653,653,653,653,653,653,653,653,653,653,653,653,653,649,622,591,576,557,545,520,504,487,477,462,442,433,418,402,379,328,298,268,236,208,171,156,143,133,124,110,106,105,105,105,102,98,92,90,86,84],"timestamp_mouse":[16,36,56,75,97,115,136,156,175,197,215,235,255,276,296,315,337,355,376,395,416,435,456,476,496,516,536,555,575,595,615,635,656,675,697,715,737,756,775,796,815,836,857,875,895,917,936,955,975,995,1015,1035,1056,1075,1095,1115,1137,1156,1175,1195,1216,1237,1255,1275,1296,1316,1335,1355,1375,1397,1416,1435,1456,1477,1496,1515,1536,1555,1577,1595,1615,1636,1655,1675,1697,1716,1736,1755,1776,1796,1815,1836,1855,1876,1895,1915,1935,1955,1976,1995,2015,2036,2055,2075,2096,2117,2136,2155,2177,2196,2216,2236,2255,2276,2297,2316,2336],"xSR":741.5,"ySR":573.95,"xT1":424.9,"yT1":0,"xT2":1058.1,"yT2":0,"toosoon":0,"cond_shown":"Incongruent","ratio_trial":300,"L_num":13,"L_den":26,"R_num":12,"R_den":15,"correct_side":2,"subjID":"andresfelipemesaperez2","gender":"0","school":"6","age":"10"},{"start_time":1551900129194,"click_time":1551900130988,"finger_time":1551900130368,"fix_duration":644.4391017726728,"trial":29,"RT":1174,"MT":620,"sideResp":1,"stimulus":[],"xmouse":[779,779,779,779,779,779,779,779,779,779,779,779,779,779,779,779,779,779,779,779,779,779,779,779,779,779,779,779,779,779,779,779,779,779,779,779,779,779,779,779,779,779,779,779,779,779,779,779,779,779,779,779,779,779,779,779,779,777,766,753,727,694,645,626,617,611,607,601,597,592,590,585,571,566,565,564,563,559,556,556,554,553,549,547,542,539,535,527,525,523],"ymouse":[582,582,582,582,582,582,582,582,582,582,582,582,582,582,582,582,582,582,582,582,582,582,582,582,582,582,582,582,582,582,582,582,582,582,582,582,582,582,582,582,582,582,582,582,582,582,582,582,582,582,582,582,582,582,582,582,582,582,549,499,431,369,248,222,203,193,181,165,154,144,134,125,110,108,108,108,108,109,110,110,110,110,110,109,106,104,100,96,95,94],"timestamp_mouse":[13,35,53,74,93,114,134,154,173,194,214,235,253,273,293,314,333,353,374,395,413,433,453,473,494,514,535,553,575,593,613,633,653,674,693,714,734,754,775,794,814,833,853,873,895,915,933,953,973,993,1013,1033,1054,1073,1094,1114,1133,1154,1174,1193,1214,1234,1254,1274,1295,1313,1334,1354,1373,1393,1413,1435,1454,1473,1493,1514,1535,1554,1573,1594,1614,1634,1654,1673,1694,1714,1733,1754,1773,1793],"xSR":741.5,"ySR":573.95,"xT1":424.9,"yT1":0,"xT2":1058.1,"yT2":0,"toosoon":0,"cond_shown":"Congruent","ratio_trial":300,"L_num":11,"L_den":22,"R_num":4,"R_den":20,"correct_side":1,"subjID":"andresfelipemesaperez2","gender":"0","school":"6","age":"10"},{"start_time":1551900135425,"click_time":1551900137428,"finger_time":1551900136768,"fix_duration":1013.4573701226471,"trial":30,"RT":1343,"MT":660,"sideResp":2,"stimulus":[],"xmouse":[765,765,765,765,765,765,765,765,765,765,765,765,765,765,765,765,765,765,765,765,765,765,765,765,765,765,765,765,765,765,765,765,765,765,765,765,765,765,765,765,765,765,765,765,765,765,765,765,765,765,765,765,765,765,765,765,765,765,765,765,765,765,765,765,765,765,760,752,746,743,743,759,770,782,808,830,856,866,876,884,891,906,924,949,967,982,1004,1020,1026,1030,1036,1053,1061,1072,1077,1082,1088,1090,1096,1099,1102],"ymouse":[611,611,611,611,611,611,611,611,611,611,611,611,611,611,611,611,611,611,611,611,611,611,611,611,611,611,611,611,611,611,611,611,611,611,611,611,611,611,611,611,611,611,611,611,611,611,611,611,611,611,611,611,611,611,611,611,611,611,611,611,611,611,611,611,611,608,591,564,545,527,514,481,462,446,427,407,374,357,335,324,315,301,295,290,283,275,260,243,232,224,210,178,165,150,143,135,125,120,111,104,92],"timestamp_mouse":[8,39,44,62,83,103,123,143,164,183,203,223,244,263,284,303,323,343,363,384,404,423,444,463,483,504,524,543,563,584,604,624,643,663,683,703,723,743,763,784,803,823,844,864,884,903,923,943,963,984,1003,1024,1043,1064,1083,1103,1124,1143,1164,1183,1204,1224,1244,1263,1283,1302,1323,1343,1363,1384,1404,1423,1444,1464,1482,1503,1523,1543,1563,1583,1602,1624,1643,1663,1684,1703,1723,1743,1764,1783,1804,1823,1843,1863,1883,1903,1923,1943,1963,1983,2003],"xSR":741.5,"ySR":573.95,"xT1":424.9,"yT1":0,"xT2":1058.1,"yT2":0,"toosoon":0,"cond_shown":"Incongruent","ratio_trial":100,"L_num":2,"L_den":4,"R_num":6,"R_den":15,"correct_side":1,"subjID":"andresfelipemesaperez2","gender":"0","school":"6","age":"10"},{"start_time":1551900143811,"click_time":1551900145968,"finger_time":1551900145329,"fix_duration":702.3451413137885,"trial":31,"RT":1518,"MT":639,"sideResp":1,"stimulus":[],"xmouse":[780,780,780,780,780,780,780,780,780,780,780,780,780,780,780,780,780,780,780,780,780,780,780,780,780,780,780,780,780,780,780,780,780,780,780,780,780,780,780,780,780,780,780,780,780,780,780,780,780,780,780,780,780,780,780,780,780,780,780,780,780,780,780,780,780,780,780,780,780,780,780,780,780,780,783,783,730,653,621,608,598,596,592,589,583,575,566,560,556,554,552,550,546,544,543,543,542,542,542,541,539,538,534,533,530,529,527,522],"ymouse":[604,604,604,604,604,604,604,604,604,604,604,604,604,604,604,604,604,604,604,604,604,604,604,604,604,604,604,604,604,604,604,604,604,604,604,604,604,604,604,604,604,604,604,604,604,604,604,604,604,604,604,604,604,604,604,604,604,604,604,604,604,604,604,604,604,604,604,604,604,604,604,604,604,601,584,528,352,197,120,77,53,35,25,21,12,4,0,0,0,0,3,6,15,19,21,23,24,26,27,29,32,33,36,37,38,38,39,42],"timestamp_mouse":[18,37,57,77,96,116,138,157,177,197,216,238,257,278,297,318,337,357,377,397,418,437,457,478,497,517,537,557,577,597,617,637,657,678,697,716,737,757,777,798,818,837,857,877,897,917,937,957,977,997,1017,1037,1058,1078,1097,1118,1138,1158,1176,1197,1217,1239,1258,1277,1296,1317,1338,1357,1378,1397,1418,1437,1458,1478,1498,1518,1536,1557,1577,1596,1617,1637,1658,1678,1697,1716,1738,1757,1777,1797,1817,1837,1857,1878,1897,1917,1937,1957,1977,1998,2017,2036,2057,2078,2097,2118,2137,2157],"xSR":741.5,"ySR":573.95,"xT1":424.9,"yT1":0,"xT2":1058.1,"yT2":0,"toosoon":0,"cond_shown":"Incongruent","ratio_trial":300,"L_num":4,"L_den":5,"R_num":6,"R_den":12,"correct_side":1,"subjID":"andresfelipemesaperez2","gender":"0","school":"6","age":"10"},{"start_time":1551900154640,"click_time":1551900157348,"finger_time":1551900155069,"fix_duration":250,"trial":32,"RT":429,"MT":2279,"sideResp":1,"stimulus":[],"xmouse":[759,759,759,759,759,759,759,759,759,759,759,759,759,759,759,759,759,759,759,759,759,759,759,758,757,757,755,747,737,720,678,647,588,512,443,341,314,289,285,285,285,290,297,302,308,313,321,322,325,327,331,334,338,343,346,350,352,355,361,368,380,380,381,381,381,386,391,392,394,394,396,397,398,398,399,400,405,406,407,410,412,412,412,410,410,407,407,407,407,407,407,407,407,407,407,407,407,407,407,407,407,407,407,407,407,407,407,407,407,407,409,410,411,412,413,418,420,422,422,423,423,423,423,423,423,423,423,423,423,423,424,424,424,424,424,426],"ymouse":[584,584,584,584,584,584,584,584,584,584,584,584,584,584,584,584,584,584,583,580,578,569,563,557,554,551,549,539,525,504,461,434,372,282,197,90,59,35,30,30,30,24,16,11,5,0,0,0,0,0,0,0,0,1,3,4,6,9,15,23,31,31,32,32,32,34,37,38,40,40,42,42,42,44,45,48,55,56,56,57,57,57,57,58,59,62,63,63,63,63,63,63,63,63,63,63,63,63,63,63,63,63,64,65,65,66,67,67,67,67,67,67,67,67,68,75,76,78,78,78,78,78,78,78,78,78,78,78,79,79,81,82,82,83,84,85],"timestamp_mouse":[11,41,48,68,88,109,128,148,169,188,208,228,248,269,288,309,328,348,368,389,407,429,448,469,489,508,527,548,568,588,608,628,649,669,688,709,727,748,769,788,808,828,848,868,888,908,928,948,968,988,1010,1028,1049,1068,1088,1108,1127,1148,1169,1189,1208,1228,1248,1268,1288,1308,1329,1348,1367,1388,1408,1427,1448,1468,1488,1509,1528,1548,1569,1588,1609,1629,1649,1668,1689,1708,1728,1749,1768,1788,1808,1828,1849,1869,1888,1909,1928,1949,1969,1988,2009,2029,2048,2068,2089,2108,2128,2148,2168,2188,2208,2228,2249,2268,2288,2310,2328,2348,2369,2389,2409,2429,2449,2469,2488,2509,2528,2548,2569,2588,2608,2628,2648,2668,2688,2708],"xSR":741.5,"ySR":573.95,"xT1":424.9,"yT1":0,"xT2":1058.1,"yT2":0,"toosoon":0,"cond_shown":"Incongruent","ratio_trial":200,"L_num":7,"L_den":15,"R_num":6,"R_den":9,"correct_side":2,"subjID":"andresfelipemesaperez2","gender":"0","school":"6","age":"10"},{"start_time":1551900160010,"click_time":1551900161788,"finger_time":1551900160969,"fix_duration":520.2474406335206,"trial":33,"RT":959,"MT":819,"sideResp":1,"stimulus":[],"xmouse":[763,763,763,763,763,763,763,763,763,762,762,762,762,762,762,762,762,762,762,762,762,762,762,762,762,762,762,761,760,760,759,755,754,752,751,749,748,748,748,748,748,748,748,748,748,747,746,741,738,734,732,731,730,729,729,729,729,729,729,729,729,728,725,721,718,714,709,683,672,659,642,623,592,587,584,581,580,579,579,579,576,576,577,577,577,573,540,525,516],"ymouse":[638,638,638,638,638,638,638,638,638,638,638,638,638,638,638,637,636,631,629,627,626,621,619,618,616,615,614,613,613,612,611,608,607,605,603,602,600,599,599,599,599,599,599,599,599,599,597,592,588,583,579,577,575,574,574,574,574,574,574,574,573,572,567,563,556,547,537,493,474,453,432,408,369,358,350,343,326,314,306,295,275,257,241,220,194,168,92,68,60],"timestamp_mouse":[21,39,59,78,99,119,139,157,179,198,219,238,259,279,298,319,338,358,378,398,418,438,458,478,499,519,539,559,579,599,618,638,658,678,698,717,739,758,779,799,818,838,859,879,899,918,939,959,978,999,1017,1039,1058,1078,1098,1118,1138,1158,1178,1198,1218,1238,1258,1279,1297,1319,1339,1359,1378,1399,1419,1438,1458,1478,1497,1519,1538,1557,1578,1599,1619,1638,1658,1678,1699,1718,1739,1758,1778],"xSR":741.5,"ySR":573.95,"xT1":424.9,"yT1":0,"xT2":1058.1,"yT2":0,"toosoon":0,"cond_shown":"Congruent","ratio_trial":300,"L_num":11,"L_den":22,"R_num":1,"R_den":5,"correct_side":1,"subjID":"andresfelipemesaperez2","gender":"0","school":"6","age":"10"},{"start_time":1551900164958,"click_time":1551900166709,"finger_time":1551900166168,"fix_duration":250,"trial":34,"RT":1210,"MT":541,"sideResp":2,"stimulus":[],"xmouse":[789,789,789,789,789,789,789,789,789,789,789,789,789,789,789,789,789,789,788,787,787,787,787,787,787,787,787,787,787,787,787,787,787,787,787,787,787,787,787,787,787,787,787,787,787,787,787,787,787,787,787,787,787,787,789,802,808,817,826,834,844,851,859,866,881,937,976,1004,1021,1035,1038,1043,1045,1046,1050,1052,1053,1055,1056,1058,1059,1060,1061,1064,1071,1075,1078,1082],"ymouse":[636,636,636,636,636,636,636,636,636,636,636,636,636,636,636,636,636,636,636,636,636,636,636,636,636,636,636,636,636,636,636,636,636,636,636,636,636,636,636,636,636,636,636,636,636,636,636,636,636,636,636,636,636,635,634,629,625,620,614,600,582,569,550,536,512,476,452,428,400,335,313,288,278,273,261,254,243,227,212,185,172,163,158,151,135,122,108,98],"timestamp_mouse":[9,41,50,70,90,110,130,150,171,189,210,230,250,269,291,310,331,350,370,391,410,431,450,471,490,510,531,551,571,591,610,631,649,671,690,710,730,749,770,790,810,830,849,870,890,910,930,950,970,990,1010,1031,1051,1070,1090,1111,1130,1150,1170,1190,1210,1230,1250,1271,1290,1310,1331,1351,1371,1390,1409,1430,1451,1471,1490,1510,1530,1550,1571,1591,1609,1631,1651,1670,1690,1709,1730,1751],"xSR":741.5,"ySR":573.95,"xT1":424.9,"yT1":0,"xT2":1058.1,"yT2":0,"toosoon":0,"cond_shown":"Incongruent","ratio_trial":200,"L_num":14,"L_den":30,"R_num":6,"R_den":9,"correct_side":2,"subjID":"andresfelipemesaperez2","gender":"0","school":"6","age":"10"},{"start_time":1551900168860,"click_time":1551900171107,"finger_time":1551900169688,"fix_duration":311.59548870048235,"trial":35,"RT":828,"MT":1419,"sideResp":2,"stimulus":[],"xmouse":[772,772,772,772,772,772,772,772,772,772,772,772,772,772,772,772,772,772,772,772,772,772,772,772,772,772,772,773,773,773,773,773,771,763,750,747,747,747,747,747,746,745,743,741,740,732,727,717,710,693,692,692,692,692,684,671,664,663,661,656,653,644,638,632,619,618,618,618,618,618,618,618,618,619,624,645,669,690,718,749,766,776,787,799,823,849,866,895,928,958,994,1002,1014,1025,1065,1084,1091,1097,1102,1104,1108,1109,1109,1109,1107,1106,1106,1106,1104,1102,1101,1100,1100],"ymouse":[634,634,634,634,634,634,634,634,634,634,634,634,634,634,634,634,634,634,634,634,634,634,634,634,634,635,635,635,635,635,635,630,620,604,583,579,579,579,579,577,575,573,570,564,560,543,531,512,493,460,454,449,438,422,386,354,339,326,308,260,240,223,203,186,167,167,167,167,167,167,167,167,167,167,165,163,163,164,164,165,165,165,165,165,173,184,193,203,215,221,222,217,209,200,190,187,180,175,170,166,153,150,146,142,134,129,123,119,114,105,101,100,99],"timestamp_mouse":[11,36,49,67,88,109,129,148,169,188,209,228,248,267,288,308,328,348,369,388,408,429,448,468,488,508,528,549,569,589,609,628,647,668,688,708,728,748,768,789,808,828,849,869,888,908,928,947,969,988,1009,1028,1048,1068,1088,1107,1128,1148,1167,1189,1208,1228,1248,1269,1288,1308,1328,1349,1369,1389,1409,1429,1449,1469,1488,1508,1528,1547,1568,1588,1608,1629,1648,1669,1687,1709,1728,1749,1769,1787,1808,1829,1849,1868,1888,1908,1928,1949,1968,1988,2008,2028,2049,2068,2088,2107,2128,2148,2168,2188,2208,2229,2247],"xSR":741.5,"ySR":573.95,"xT1":424.9,"yT1":0,"xT2":1058.1,"yT2":0,"toosoon":0,"cond_shown":"Congruent","ratio_trial":100,"L_num":11,"L_den":22,"R_num":4,"R_den":10,"correct_side":1,"subjID":"andresfelipemesaperez2","gender":"0","school":"6","age":"10"},{"start_time":1551900172878,"click_time":1551900175530,"finger_time":1551900174748,"fix_duration":390.9795952489794,"trial":36,"RT":1870,"MT":782,"sideResp":2,"stimulus":[],"xmouse":[768,768,768,768,768,768,768,768,768,768,768,768,768,768,768,768,768,768,768,768,768,768,768,768,768,768,768,768,768,768,768,768,768,768,768,768,768,768,768,768,768,768,768,768,768,768,768,768,768,768,768,768,768,768,768,768,768,768,768,768,768,768,768,768,768,768,768,768,768,768,768,768,768,768,770,770,770,770,770,770,770,770,770,770,770,770,770,770,770,770,770,770,771,799,799,799,799,799,799,799,799,799,799,799,799,800,821,833,837,841,845,850,864,906,924,943,966,990,1047,1076,1111,1111,1111,1112,1114,1119,1119,1121,1121,1121,1123,1123,1123],"ymouse":[641,641,641,641,641,641,641,641,641,641,641,641,641,641,641,641,641,641,641,641,641,641,641,641,641,641,641,641,641,641,641,641,641,641,641,641,641,641,641,641,641,641,641,641,641,641,641,641,641,641,641,641,641,641,641,641,641,641,641,641,641,641,641,641,641,641,641,641,641,641,641,641,641,641,647,647,647,647,647,647,647,647,647,647,647,647,647,647,647,647,647,651,655,699,699,699,699,699,699,699,699,699,699,699,699,687,665,651,641,629,621,614,602,581,567,549,536,521,486,467,453,453,453,447,424,389,378,354,324,248,206,157,99],"timestamp_mouse":[10,41,50,71,91,110,131,150,170,190,210,231,251,271,289,311,330,350,370,389,411,429,451,470,491,509,530,550,570,590,611,631,650,670,690,710,730,750,770,790,810,831,851,871,890,911,929,951,970,989,1010,1031,1050,1070,1089,1111,1130,1150,1170,1190,1209,1229,1251,1271,1290,1310,1330,1350,1370,1390,1410,1430,1451,1470,1490,1510,1531,1550,1571,1590,1610,1630,1651,1671,1690,1711,1730,1750,1770,1791,1810,1830,1850,1870,1889,1910,1931,1951,1971,1991,2011,2030,2051,2070,2091,2110,2130,2150,2170,2190,2210,2231,2251,2270,2289,2310,2329,2351,2370,2389,2410,2430,2451,2470,2491,2510,2530,2550,2570,2590,2611,2631,2651],"xSR":741.5,"ySR":573.95,"xT1":424.9,"yT1":0,"xT2":1058.1,"yT2":0,"toosoon":0,"cond_shown":"Congruent","ratio_trial":100,"L_num":6,"L_den":20,"R_num":5,"R_den":25,"correct_side":1,"subjID":"andresfelipemesaperez2","gender":"0","school":"6","age":"10"},{"start_time":1551900177644,"click_time":1551900181069,"finger_time":1551900178988,"fix_duration":494.5526970129811,"trial":37,"RT":1344,"MT":2081,"sideResp":2,"stimulus":[],"xmouse":[830,830,830,830,830,830,830,830,830,830,830,830,830,830,830,830,830,830,830,830,830,830,830,830,830,830,830,830,830,830,830,830,830,830,830,830,830,830,830,830,830,830,830,830,830,830,830,830,830,830,830,830,830,830,828,825,825,824,824,824,824,824,824,824,824,824,822,821,816,811,796,786,778,771,754,716,701,697,693,693,692,687,678,664,645,626,593,593,593,593,593,593,594,595,595,600,607,617,630,643,663,708,724,742,752,762,766,770,770,772,777,781,787,791,794,798,807,815,827,852,875,912,929,934,936,937,937,937,941,944,949,972,979,984,989,1001,1008,1014,1015,1016,1017,1018,1020,1026,1034,1055,1068,1068,1068,1068,1070,1073,1074,1076,1077,1077,1081,1086,1087,1088,1089,1089,1089,1090,1091,1091,1092,1092,1092,1093,1095,1095],"ymouse":[598,598,598,598,598,598,598,598,598,598,598,598,598,598,598,598,598,598,598,598,598,598,598,598,598,598,598,598,598,598,598,598,598,598,598,598,598,598,598,598,598,598,598,598,598,598,598,598,598,598,598,598,598,598,590,584,583,579,578,578,577,577,577,577,577,577,576,573,567,559,525,497,468,433,387,308,289,282,277,275,275,269,261,249,237,222,202,202,202,202,202,200,200,200,199,199,199,199,199,199,199,203,205,205,205,203,200,197,196,195,193,190,188,187,185,181,176,173,170,171,179,190,199,203,203,203,203,203,201,199,195,183,179,177,174,170,166,163,162,159,158,157,156,151,149,143,140,140,140,139,137,134,133,131,130,129,124,122,120,118,115,113,113,112,111,110,108,107,106,104,101,99],"timestamp_mouse":[10,35,44,65,85,105,124,144,165,184,204,225,245,263,284,304,324,345,364,384,404,425,443,465,484,504,524,544,563,584,604,624,645,665,684,704,725,744,764,784,804,825,845,864,884,904,924,944,964,984,1005,1024,1043,1065,1084,1104,1124,1144,1165,1184,1205,1224,1244,1264,1284,1304,1324,1344,1365,1384,1404,1424,1444,1464,1484,1504,1524,1544,1563,1584,1604,1624,1644,1664,1684,1705,1724,1744,1764,1785,1804,1824,1845,1864,1884,1905,1924,1944,1965,1984,2003,2024,2045,2065,2085,2104,2123,2144,2165,2185,2204,2223,2244,2265,2284,2304,2324,2344,2365,2384,2403,2424,2445,2465,2485,2504,2525,2543,2564,2585,2604,2624,2644,2664,2683,2705,2723,2744,2764,2784,2805,2824,2844,2864,2884,2904,2924,2944,2964,2983,3005,3024,3044,3065,3084,3104,3124,3144,3165,3184,3205,3224,3244,3264,3284,3305,3325,3345,3364,3384,3404,3424],"xSR":741.5,"ySR":573.95,"xT1":424.9,"yT1":0,"xT2":1058.1,"yT2":0,"toosoon":0,"cond_shown":"Incongruent","ratio_trial":200,"L_num":3,"L_den":10,"R_num":1,"R_den":2,"correct_side":2,"subjID":"andresfelipemesaperez2","gender":"0","school":"6","age":"10"},{"start_time":1551900183600,"click_time":1551900185148,"finger_time":1551900184508,"fix_duration":250,"trial":38,"RT":908,"MT":640,"sideResp":2,"stimulus":[],"xmouse":[813,813,813,813,813,813,813,813,813,813,813,813,813,813,813,813,813,813,813,813,813,813,813,813,813,813,813,813,813,813,813,813,813,813,813,813,813,813,813,813,814,816,818,824,830,839,852,893,915,933,953,991,1050,1142,1156,1165,1172,1179,1180,1180,1180,1185,1193,1198,1200,1200,1200,1198,1193,1192,1190,1186,1178,1172,1166,1159,1152,1148],"ymouse":[588,588,588,588,588,588,588,588,588,588,588,588,588,588,588,588,588,588,588,588,588,588,588,588,588,588,588,588,588,588,588,588,588,588,588,588,588,588,588,588,586,585,584,579,576,569,559,535,520,505,485,453,403,318,302,286,271,221,184,131,106,79,37,17,0,0,0,0,0,0,0,0,0,0,0,0,0,2],"timestamp_mouse":[9,39,49,68,88,109,128,148,168,188,208,229,248,268,288,309,329,348,368,389,408,428,448,468,489,509,528,548,568,588,608,629,649,669,688,708,729,748,768,789,808,828,848,868,888,908,929,948,968,988,1008,1029,1048,1068,1088,1107,1128,1148,1168,1188,1209,1228,1248,1268,1289,1308,1329,1349,1368,1388,1408,1429,1448,1467,1489,1508,1528,1547],"xSR":741.5,"ySR":573.95,"xT1":424.9,"yT1":0,"xT2":1058.1,"yT2":0,"toosoon":0,"cond_shown":"Congruent","ratio_trial":100,"L_num":12,"L_den":30,"R_num":13,"R_den":26,"correct_side":2,"subjID":"andresfelipemesaperez2","gender":"0","school":"6","age":"10"},{"start_time":1551900193026,"click_time":1551900195328,"finger_time":1551900194449,"fix_duration":696.5575529049321,"trial":39,"RT":1423,"MT":879,"sideResp":2,"stimulus":[],"xmouse":[826,826,826,826,826,826,826,826,826,826,826,826,826,826,826,826,826,826,826,826,826,826,826,826,826,826,826,826,826,826,826,826,826,826,826,826,826,826,826,826,826,826,826,826,826,826,826,826,826,826,826,826,826,826,826,826,826,826,826,826,826,826,826,826,826,826,826,826,826,826,833,846,937,962,979,994,1017,1029,1030,1030,1033,1037,1041,1046,1049,1050,1050,1050,1050,1050,1054,1059,1060,1064,1065,1070,1076,1095,1104,1109,1111,1112,1112,1112,1112,1112,1112,1111,1111,1111,1111,1111,1111,1113,1114,1114],"ymouse":[585,585,585,585,585,585,585,585,585,585,585,585,585,585,585,585,585,585,585,585,585,585,585,585,585,585,585,585,585,585,585,585,585,585,585,585,585,585,585,585,585,585,585,585,585,585,585,585,585,585,585,585,585,585,585,585,585,585,585,585,585,585,585,585,585,585,587,587,587,587,587,586,556,537,509,470,396,346,324,302,282,245,225,209,193,181,160,158,157,155,152,146,144,140,137,134,129,128,126,125,124,123,123,123,123,123,123,123,123,122,122,117,113,106,100,96],"timestamp_mouse":[9,22,43,63,83,103,123,143,162,182,202,223,243,262,282,302,323,342,363,382,402,421,443,463,482,503,522,542,562,582,602,622,642,662,682,702,722,743,763,782,803,822,843,862,882,902,923,942,963,982,1002,1022,1042,1062,1082,1103,1122,1142,1162,1183,1202,1222,1242,1263,1282,1302,1322,1341,1363,1383,1402,1423,1442,1462,1482,1502,1522,1542,1562,1583,1602,1622,1642,1662,1682,1702,1722,1742,1762,1782,1802,1822,1842,1862,1883,1903,1922,1942,1962,1982,2002,2022,2042,2062,2082,2103,2122,2142,2162,2183,2202,2222,2242,2263,2283,2302],"xSR":741.5,"ySR":573.95,"xT1":424.9,"yT1":0,"xT2":1058.1,"yT2":0,"toosoon":0,"cond_shown":"Congruent","ratio_trial":300,"L_num":5,"L_den":25,"R_num":6,"R_den":12,"correct_side":2,"subjID":"andresfelipemesaperez2","gender":"0","school":"6","age":"10"},{"start_time":1551900208899,"click_time":1551900210869,"finger_time":1551900209548,"fix_duration":250,"trial":40,"RT":649,"MT":1321,"sideResp":1,"stimulus":[],"xmouse":[812,812,812,812,812,812,812,812,812,812,812,812,812,812,812,812,812,812,812,812,812,812,812,812,812,812,812,812,814,818,820,821,845,857,862,872,880,882,892,895,896,896,896,896,896,896,896,896,896,896,896,896,898,900,904,906,910,923,933,946,972,996,1006,1012,1014,1018,1024,1034,1037,1040,1040,1040,1040,1040,1040,1034,1018,980,961,947,933,916,858,806,733,687,655,593,578,572,570,568,563,560,557,553,548,526,515],"ymouse":[580,580,580,580,580,580,580,580,580,580,580,580,580,580,580,580,580,580,580,580,580,580,580,580,580,580,580,580,579,577,576,575,531,469,444,421,403,379,346,336,331,328,328,328,328,328,328,328,328,328,328,328,322,315,309,303,297,284,276,266,262,261,255,250,244,237,226,204,193,186,182,179,179,178,177,175,166,146,131,117,104,89,53,18,0,0,0,0,0,0,0,0,0,1,3,4,7,9,9],"timestamp_mouse":[11,35,51,70,91,110,129,150,171,189,209,230,250,270,290,311,329,350,370,389,410,429,450,469,489,511,529,550,570,589,609,629,649,669,689,710,730,749,769,789,809,830,850,869,889,910,929,949,969,989,1009,1030,1050,1069,1090,1109,1130,1149,1169,1189,1210,1231,1249,1269,1289,1310,1330,1349,1369,1390,1409,1429,1449,1469,1489,1509,1529,1550,1569,1589,1609,1630,1649,1669,1690,1711,1730,1750,1769,1789,1810,1830,1850,1869,1889,1910,1929,1949,1969],"xSR":741.5,"ySR":573.95,"xT1":424.9,"yT1":0,"xT2":1058.1,"yT2":0,"toosoon":0,"cond_shown":"Congruent","ratio_trial":100,"L_num":4,"L_den":10,"R_num":15,"R_den":30,"correct_side":2,"subjID":"andresfelipemesaperez2","gender":"0","school":"6","age":"10"},{"start_time":1551900214912,"click_time":1551900217570,"finger_time":1551900216848,"fix_duration":1482.8630244504477,"trial":41,"RT":1936,"MT":722,"sideResp":1,"stimulus":[],"xmouse":[796,796,796,796,796,796,796,796,796,796,796,796,796,796,796,796,796,796,796,796,796,796,796,796,796,796,796,796,796,796,796,796,796,796,796,796,796,796,796,796,796,796,796,796,796,796,796,796,796,796,796,796,796,796,796,796,796,796,796,796,796,796,796,796,796,796,796,796,796,796,796,796,796,796,796,796,796,796,796,796,796,796,796,796,796,796,803,803,814,823,830,831,833,836,836,829,803,794,789,788,783,778,748,729,709,698,693,686,677,667,660,657,656,656,655,652,633,620,596,580,562,536,536,536,536,536,536,534,529,523,519,515,507],"ymouse":[652,652,652,652,652,652,652,652,652,652,652,652,652,652,652,652,652,652,652,652,652,652,652,652,652,652,652,652,652,652,652,652,652,652,652,652,652,652,652,652,652,652,652,652,652,652,652,652,652,652,652,652,652,652,652,652,652,652,652,652,652,652,652,652,652,652,652,652,652,652,652,652,652,652,652,652,652,652,652,652,652,652,652,652,652,652,669,669,664,654,643,642,636,633,628,604,536,505,479,457,437,414,349,306,266,229,202,130,89,45,13,0,0,0,0,0,0,0,0,0,0,0,0,0,0,0,0,0,0,0,0,0,1],"timestamp_mouse":[33,36,56,76,96,116,137,158,176,197,216,236,256,276,296,316,336,356,376,397,416,436,456,476,497,516,537,556,576,596,617,636,656,677,696,716,736,757,776,797,817,837,857,876,897,916,936,956,976,996,1016,1036,1057,1077,1097,1116,1136,1156,1177,1197,1217,1237,1258,1276,1296,1316,1337,1357,1377,1396,1417,1438,1456,1476,1498,1516,1536,1557,1577,1598,1617,1637,1656,1676,1698,1717,1736,1756,1776,1796,1817,1837,1857,1876,1896,1918,1936,1956,1977,1997,2017,2036,2057,2076,2096,2117,2137,2156,2176,2196,2218,2237,2256,2276,2297,2316,2336,2356,2377,2396,2416,2437,2456,2477,2497,2517,2536,2556,2576,2597,2616,2636,2658],"xSR":741.5,"ySR":573.95,"xT1":424.9,"yT1":0,"xT2":1058.1,"yT2":0,"toosoon":0,"cond_shown":"Incongruent","ratio_trial":100,"L_num":2,"L_den":4,"R_num":6,"R_den":15,"correct_side":1,"subjID":"andresfelipemesaperez2","gender":"0","school":"6","age":"10"},{"start_time":1551900227385,"click_time":1551900228969,"finger_time":1551900228068,"fix_duration":1053.889153440655,"trial":42,"RT":683,"MT":901,"sideResp":2,"stimulus":[],"xmouse":[759,759,759,759,759,759,759,759,759,759,759,759,759,758,758,757,756,756,756,756,756,756,756,755,755,755,755,755,754,753,752,751,750,750,754,759,765,773,804,840,872,908,956,1018,1038,1061,1081,1090,1106,1121,1138,1170,1200,1229,1251,1254,1256,1256,1257,1257,1257,1257,1257,1256,1249,1242,1233,1221,1209,1199,1195,1188,1181,1170,1167,1164,1162,1162,1161,1152],"ymouse":[590,590,590,590,590,590,590,590,590,590,590,590,590,590,591,591,591,591,591,591,591,591,591,591,591,591,591,591,591,589,588,587,585,576,537,513,495,472,417,375,349,325,304,265,245,232,226,222,207,196,187,184,180,174,148,135,119,109,93,84,78,76,74,73,72,72,68,64,60,58,58,58,55,52,50,49,48,48,47,45],"timestamp_mouse":[11,35,44,64,84,103,123,145,164,183,205,224,245,264,283,304,323,344,363,383,405,424,443,464,483,503,523,544,563,584,603,624,644,664,683,705,724,744,763,783,803,824,843,863,884,905,924,943,963,983,1003,1023,1045,1063,1083,1103,1123,1143,1163,1183,1203,1224,1244,1263,1283,1305,1323,1344,1363,1383,1403,1423,1444,1463,1483,1504,1524,1543,1563,1583],"xSR":741.5,"ySR":573.95,"xT1":424.9,"yT1":0,"xT2":1058.1,"yT2":0,"toosoon":0,"cond_shown":"Congruent","ratio_trial":200,"L_num":7,"L_den":15,"R_num":18,"R_den":27,"correct_side":2,"subjID":"andresfelipemesaperez2","gender":"0","school":"6","age":"10"},{"start_time":1551900243184,"click_time":1551900245068,"finger_time":1551900244428,"fix_duration":1433.5649076990271,"trial":43,"RT":1244,"MT":640,"sideResp":1,"stimulus":[],"xmouse":[770,770,770,770,770,770,770,770,770,770,770,770,770,770,770,770,770,770,770,770,770,770,770,770,770,770,770,770,770,770,770,770,770,770,770,770,770,770,770,770,770,770,770,770,770,770,770,770,770,770,770,770,770,770,770,770,770,770,770,769,769,768,765,758,753,744,733,723,695,663,649,634,623,606,600,595,591,584,562,555,554,553,553,553,552,552,550,547,545,538,538,536,534,528,523],"ymouse":[588,588,588,588,588,588,588,588,588,588,588,588,588,588,588,588,588,588,588,588,588,588,588,588,588,588,588,588,588,588,588,588,588,588,588,588,588,588,588,588,588,588,588,588,588,588,588,588,588,588,588,588,588,588,588,588,588,588,588,588,588,580,556,491,455,412,366,316,212,136,110,87,66,42,35,30,26,20,5,3,3,3,3,3,3,3,3,3,4,8,8,10,11,14,16],"timestamp_mouse":[9,24,46,64,85,104,132,144,165,184,205,224,244,264,285,304,324,344,364,385,405,424,444,464,485,504,524,544,564,584,605,624,646,664,685,704,726,744,764,784,804,824,844,865,885,904,924,944,964,984,1005,1025,1045,1064,1084,1105,1125,1144,1165,1185,1204,1224,1244,1265,1284,1304,1325,1345,1364,1384,1404,1425,1444,1464,1484,1505,1525,1544,1565,1584,1604,1624,1645,1665,1685,1705,1725,1744,1764,1785,1804,1825,1844,1865,1884],"xSR":741.5,"ySR":573.95,"xT1":424.9,"yT1":0,"xT2":1058.1,"yT2":0,"toosoon":0,"cond_shown":"Incongruent","ratio_trial":200,"L_num":4,"L_den":30,"R_num":1,"R_den":3,"correct_side":2,"subjID":"andresfelipemesaperez2","gender":"0","school":"6","age":"10"},{"start_time":1551900250731,"click_time":1551900253049,"finger_time":1551900252249,"fix_duration":1160.8271680802586,"trial":44,"RT":1518,"MT":800,"sideResp":2,"stimulus":[],"xmouse":[803,803,803,803,803,803,803,803,803,803,803,803,803,803,803,803,803,803,803,803,803,803,803,803,803,803,803,803,803,803,803,803,803,803,803,803,803,803,803,803,803,803,803,803,803,803,803,803,803,803,803,812,810,802,794,764,759,756,753,753,753,753,753,753,753,753,753,753,752,752,752,752,753,769,803,888,968,1009,1161,1220,1277,1315,1334,1351,1362,1362,1362,1363,1366,1369,1371,1371,1371,1365,1352,1334,1332,1330,1322,1310,1276,1254,1247,1240,1234,1221,1217,1210,1205,1201,1197,1185,1181,1175,1168,1152],"ymouse":[580,580,580,580,580,580,580,580,580,580,580,580,580,580,580,580,580,580,580,580,580,580,580,580,580,580,580,580,580,580,580,580,580,580,580,580,580,580,580,580,580,580,580,580,580,580,580,580,580,580,580,608,618,618,618,630,639,647,648,648,648,648,648,648,648,648,648,648,649,650,650,651,653,659,664,663,647,642,639,629,555,452,374,302,231,105,69,51,42,35,25,17,6,0,0,0,0,0,1,13,36,47,50,55,57,62,62,62,62,61,60,53,51,48,44,36],"timestamp_mouse":[31,37,58,77,98,118,137,158,179,198,217,237,258,278,297,318,337,358,378,397,418,437,457,477,498,518,538,558,577,597,618,637,657,678,698,718,739,758,778,798,818,837,857,877,898,917,938,957,977,998,1017,1037,1057,1078,1097,1118,1137,1157,1179,1197,1219,1238,1258,1277,1297,1318,1337,1357,1377,1397,1418,1438,1457,1477,1497,1518,1537,1557,1577,1598,1617,1637,1657,1678,1697,1718,1737,1758,1778,1797,1817,1837,1859,1878,1898,1917,1937,1957,1978,1998,2017,2038,2057,2077,2098,2117,2137,2158,2179,2198,2218,2238,2257,2277,2298,2318],"xSR":741.5,"ySR":573.95,"xT1":424.9,"yT1":0,"xT2":1058.1,"yT2":0,"toosoon":0,"cond_shown":"Incongruent","ratio_trial":200,"L_num":7,"L_den":15,"R_num":6,"R_den":9,"correct_side":2,"subjID":"andresfelipemesaperez2","gender":"0","school":"6","age":"10"},{"start_time":1551900260302,"click_time":1551900261689,"finger_time":1551900261209,"fix_duration":250,"trial":45,"RT":907,"MT":480,"sideResp":2,"stimulus":[],"xmouse":[797,797,797,797,797,797,797,797,797,797,797,797,797,797,797,797,797,797,797,797,797,797,797,796,796,795,795,795,795,795,795,795,794,794,794,794,794,794,794,794,794,795,798,810,820,843,875,949,966,971,972,974,990,1027,1070,1096,1098,1103,1109,1119,1129,1143,1147,1175,1179,1182,1183,1183,1166,1149],"ymouse":[606,606,606,606,606,606,606,606,606,606,606,606,606,606,606,606,606,606,606,606,606,606,606,606,607,607,607,607,607,607,607,607,607,607,607,607,607,607,607,607,607,607,607,605,601,591,574,514,495,486,479,470,437,375,320,290,288,282,275,264,249,226,214,108,92,81,78,78,70,59],"timestamp_mouse":[8,26,46,66,87,106,126,146,167,188,207,227,247,267,286,306,327,346,367,386,407,427,446,468,486,507,528,546,567,587,606,627,646,666,687,707,726,747,766,787,806,827,847,866,886,907,926,946,966,986,1007,1027,1046,1066,1086,1106,1126,1147,1166,1187,1207,1226,1246,1266,1286,1306,1326,1347,1366,1387],"xSR":741.5,"ySR":573.95,"xT1":424.9,"yT1":0,"xT2":1058.1,"yT2":0,"toosoon":0,"cond_shown":"Incongruent","ratio_trial":100,"L_num":10,"L_den":25,"R_num":9,"R_den":18,"correct_side":2,"subjID":"andresfelipemesaperez2","gender":"0","school":"6","age":"10"},{"start_time":1551900263612,"click_time":1551900264988,"finger_time":1551900264448,"fix_duration":641.5630710730022,"trial":46,"RT":836,"MT":540,"sideResp":2,"stimulus":[],"xmouse":[769,769,769,769,769,769,769,769,769,769,769,769,769,769,769,769,769,769,769,769,769,769,769,769,769,769,769,769,769,769,769,769,769,769,769,769,769,769,769,770,785,866,917,966,988,1002,1017,1055,1065,1071,1074,1076,1078,1079,1080,1080,1080,1078,1074,1070,1067,1067,1067,1073,1081,1085,1092,1099,1101],"ymouse":[616,616,616,616,616,616,616,616,616,616,616,616,616,616,616,616,616,616,616,616,616,616,616,616,616,616,616,616,616,616,616,616,616,616,616,616,616,616,616,616,604,561,529,495,471,445,418,350,323,300,286,277,267,263,257,247,225,213,199,193,189,188,185,171,152,134,109,101,99],"timestamp_mouse":[17,37,56,76,97,116,138,156,177,197,217,236,257,276,296,317,336,357,376,397,417,436,456,477,496,518,537,556,577,596,616,637,656,676,697,716,737,756,777,797,817,836,856,876,897,917,937,956,976,996,1017,1036,1056,1076,1096,1116,1136,1156,1176,1197,1216,1237,1256,1276,1296,1318,1336,1356,1376],"xSR":741.5,"ySR":573.95,"xT1":424.9,"yT1":0,"xT2":1058.1,"yT2":0,"toosoon":0,"cond_shown":"Congruent","ratio_trial":200,"L_num":13,"L_den":26,"R_num":14,"R_den":20,"correct_side":2,"subjID":"andresfelipemesaperez2","gender":"0","school":"6","age":"10"},{"start_time":1551900269215,"click_time":1551900270667,"finger_time":1551900269888,"fix_duration":1166.0685068462087,"trial":47,"RT":673,"MT":779,"sideResp":2,"stimulus":[],"xmouse":[768,768,768,768,768,768,768,768,768,768,768,768,768,768,768,768,768,768,768,768,768,768,768,768,768,768,768,769,772,774,777,786,795,801,809,821,847,864,887,900,914,945,966,982,990,994,1000,1003,1018,1031,1036,1038,1038,1038,1038,1038,1038,1038,1039,1040,1042,1043,1044,1045,1047,1047,1048,1048,1048,1048,1050,1055,1073],"ymouse":[617,617,617,617,617,617,617,617,617,617,617,617,617,617,617,617,617,617,617,617,617,617,617,617,617,617,617,615,612,610,606,591,574,556,533,502,418,361,289,250,219,174,161,149,141,135,126,123,112,108,106,105,105,105,105,105,105,105,105,104,103,102,100,97,94,92,88,88,87,87,86,84,79],"timestamp_mouse":[12,33,53,74,92,113,133,152,174,193,212,233,252,273,292,314,332,352,373,392,414,433,453,473,492,513,532,554,572,593,614,632,653,673,693,713,732,754,772,793,813,832,852,873,892,912,933,953,973,993,1013,1033,1054,1072,1093,1112,1134,1153,1172,1193,1213,1232,1252,1272,1293,1313,1332,1353,1373,1392,1412,1432,1452],"xSR":741.5,"ySR":573.95,"xT1":424.9,"yT1":0,"xT2":1058.1,"yT2":0,"toosoon":0,"cond_shown":"Congruent","ratio_trial":200,"L_num":9,"L_den":30,"R_num":13,"R_den":26,"correct_side":2,"subjID":"andresfelipemesaperez2","gender":"0","school":"6","age":"10"},{"start_time":1551900276561,"click_time":1551900279388,"finger_time":1551900277088