[{"start_time":1551901077709,"click_time":1551901079851,"finger_time":1551901077718,"fix_duration":1432.87287093949,"trial":0,"RT":9,"MT":2133,"sideResp":2,"stimulus":"img/750/randomdotsizeEA/L/14_Ratio_750_L_8_R_6.png","xmouse":[771,771,771,771,771,771,771,771,771,771,771,771,771,771,771,771,771,771,771,771,771,771,771,771,771,771,771,771,771,771,771,771,771,771,771,771,771,773,778,779,781,783,784,786,786,787,787,787,787,787,787,787,787,787,787,787,787,787,787,787,787,787,787,787,787,787,787,787,787,798,810,844,885,942,952,955,958,958,975,989,1004,1034,1043,1085,1098,1105,1114,1118,1126,1127,1127,1127,1127,1127,1128,1129,1129,1129,1129,1129,1129,1129,1130,1130,1130,1130,1130,1128],"ymouse":[537,537,537,537,537,537,537,537,537,537,537,537,537,537,537,537,537,537,537,537,537,537,537,537,537,537,537,537,537,537,537,537,537,537,537,537,538,546,565,572,584,593,601,610,612,613,614,614,614,614,614,614,614,614,614,614,614,614,614,614,614,614,614,614,614,614,614,614,614,600,590,568,539,490,472,454,430,406,370,358,349,336,333,315,310,306,300,295,282,275,267,259,249,241,228,221,217,213,211,210,208,205,201,181,166,140,114,88],"timestamp_mouse":[9,22,42,63,83,102,123,143,162,183,202,223,243,262,283,302,322,343,362,382,402,421,442,463,483,502,521,542,562,582,603,622,642,663,683,703,722,741,762,782,803,823,843,862,882,902,922,942,962,982,1003,1022,1043,1062,1083,1102,1122,1142,1162,1183,1203,1223,1241,1263,1283,1303,1323,1342,1362,1381,1402,1422,1442,1462,1482,1502,1523,1542,1562,1582,1602,1621,1642,1661,1682,1702,1723,1743,1762,1782,1802,1822,1842,1861,1882,1903,1922,1941,1961,1983,2002,2023,2043,2061,2082,2102,2121,2142],"xSR":741.5,"ySR":501.8,"xT1":424.9,"yT1":0,"xT2":1058.1,"yT2":0,"toosoon":0,"cond_shown":"randomdotsizeEA","ratio_trial":750,"smaller_num":"6","larger_num":"8","correct_side":1,"subjID":"andresfelipemesaperez2","gender":"0","age":"10","school":"6","test":{"fix_dur":[250,1500],"timestim":300,"targets_dim":[100,100],"targets_relative_coord":[0.3,0.7],"size_stim":[880,420],"start_dim":[100,100],"size_start":[300,300],"size_fix":60,"samplingrate":20,"img_types":["equaldotsize","equaldotanddens","randomdotsizeEA"],"ratios":[250,500,750,900],"rep_conds":9,"nTrials":120,"trials_to_rest":500,"Trials_order":[44,38,86,24,35,85,104,66,81,105,113,119,31,45,59,16,2,14,83,118,56,25,26,95,42,6,107,61,75,49,112,103,5,1,33,98,18,51,8,114,11,54,92,0,40,70,102,53,108,41,32,72,93,65,47,89,58,9,115,73,88,15,28,39,110,82,79,97,21,22,64,17,62,12,78,37,43,55,117,19,57,50,67,91,80,101,109,46,94,34,4,71,20,100,96,52,90,76,10,99,48,60,77,7,74,84,116,29,23,69,36,68,27,13,3,87,111,63,106,30],"cond_shown":["randomdotsizeEA","randomdotsizeEA","randomdotsizeEA","equaldotsize","randomdotsizeEA","equaldotanddens","randomdotsizeEA","equaldotsize","equaldotsize","equaldotsize","randomdotsizeEA","randomdotsizeEA","equaldotanddens","equaldotsize","randomdotsizeEA","equaldotanddens","randomdotsizeEA","randomdotsizeEA","randomdotsizeEA","equaldotanddens","randomdotsizeEA","equaldotanddens","randomdotsizeEA","randomdotsizeEA","equaldotsize","equaldotsize","randomdotsizeEA","equaldotanddens","equaldotsize","equaldotanddens","equaldotanddens","equaldotanddens","randomdotsizeEA","equaldotanddens","equaldotsize","randomdotsizeEA","equaldotsize","equaldotsize","randomdotsizeEA","equaldotsize","randomdotsizeEA","equaldotsize","randomdotsizeEA","equaldotsize","equaldotanddens","equaldotanddens","equaldotsize","randomdotsizeEA","equaldotsize","randomdotsizeEA","randomdotsizeEA","equaldotsize","equaldotsize","randomdotsizeEA","randomdotsizeEA","randomdotsizeEA","equaldotanddens","equaldotsize","equaldotanddens","equaldotanddens","equaldotanddens","equaldotsize","equaldotanddens","equaldotsize","randomdotsizeEA","equaldotanddens","equaldotanddens","equaldotanddens","equaldotsize","equaldotanddens","equaldotanddens","randomdotsizeEA","randomdotsizeEA","equaldotsize","equaldotsize","equaldotanddens","equaldotanddens","equaldotanddens","equaldotsize","equaldotanddens","equaldotsize","randomdotsizeEA","equaldotanddens","equaldotanddens","randomdotsizeEA","randomdotsizeEA","equaldotanddens","equaldotanddens","equaldotanddens","equaldotanddens","equaldotanddens","randomdotsizeEA","randomdotsizeEA","equaldotanddens","equaldotsize","equaldotanddens","equaldotsize","equaldotanddens","equaldotanddens","equaldotsize","equaldotsize","equaldotsize","randomdotsizeEA","equaldotanddens","randomdotsizeEA","equaldotsize","randomdotsizeEA","randomdotsizeEA","randomdotsizeEA","equaldotsize","equaldotsize","randomdotsizeEA","equaldotsize","equaldotanddens","equaldotsize","equaldotsize","equaldotsize","equaldotsize","equaldotanddens","equaldotsize"],"ratio_trial":[750,250,250,250,900,250,750,750,900,900,500,900,750,900,900,500,250,250,900,900,750,250,250,900,750,750,900,250,500,250,500,750,500,250,900,250,750,500,750,750,900,750,750,250,500,900,750,500,250,500,750,250,900,500,900,500,900,900,750,250,500,500,500,500,250,900,750,250,900,900,500,500,250,250,750,250,750,750,900,750,900,250,750,750,750,500,250,900,900,900,500,900,750,500,250,500,750,500,900,500,250,250,500,750,250,250,750,500,900,900,250,750,500,250,500,500,500,500,900,750],"smaller_num":["6","2","3","4","9","3","3","3","18","18","4","18","15","18","9","2","4","4","18","18","6","3","2","18","6","3","18","3","5","3","9","15","9","2","9","5","3","3","3","6","18","9","3","2","2","18","12","2","2","6","3","3","18","10","9","6","18","18","3","4","4","6","5","2","3","9","6","3","18","18","2","9","2","4","3","2","3","3","18","18","18","4","15","3","6","5","3","9","9","9","1","18","3","6","4","3","6","4","9","2","3","3","9","3","5","3","3","5","18","18","2","15","2","1","5","3","4","3","9","15"],"larger_num":["8","8","12","16","10","12","4","4","20","20","8","20","20","20","10","4","16","16","20","20","8","12","8","20","8","4","20","12","10","12","18","20","18","8","10","20","4","6","4","8","20","12","4","8","4","20","16","4","8","12","4","12","20","20","10","12","20","20","4","16","8","12","10","4","12","10","8","12","20","20","4","18","8","16","4","8","4","4","20","24","20","16","20","4","8","10","12","10","10","10","2","20","4","12","16","6","8","8","10","4","12","12","18","4","20","12","4","10","20","20","8","20","4","4","10","6","8","6","10","20"],"correct_side":[1,1,2,1,2,2,1,1,1,1,1,2,2,1,1,2,1,1,1,2,1,1,2,2,1,1,1,2,1,1,2,2,2,1,1,2,1,2,1,2,1,2,2,1,1,2,2,1,1,1,1,2,1,2,2,1,1,1,1,1,1,1,1,1,1,2,1,1,1,1,1,1,1,1,2,1,1,1,2,1,2,1,2,1,1,2,2,2,2,2,2,2,1,1,1,2,1,1,2,1,2,1,1,2,2,2,2,2,1,1,1,2,1,2,2,2,1,2,2,1],"img_shown":["img/750/randomdotsizeEA/L/14_Ratio_750_L_8_R_6.png","img/250/randomdotsizeEA/L/7_Ratio_250_L_8_R_2.png","img/250/randomdotsizeEA/R/11_Ratio_250_L_3_R_12.png","img/250/equaldotsize/L/2_Ratio_250_L_16_R_4.png","img/900/randomdotsizeEA/R/7_Ratio_900_L_9_R_10.png","img/250/equaldotanddens/R/11_Ratio_250_L_3_R_12.png","img/750/randomdotsizeEA/L/8_Ratio_750_L_4_R_3.png","img/750/equaldotsize/L/9_Ratio_750_L_4_R_3.png","img/900/equaldotsize/L/2_Ratio_900_L_20_R_18.png","img/900/equaldotsize/L/4_Ratio_900_L_20_R_18.png","img/500/randomdotsizeEA/L/8_Ratio_500_L_8_R_4.png","img/900/randomdotsizeEA/R/14_Ratio_900_L_18_R_20.png","img/750/equaldotanddens/R/5_Ratio_750_L_15_R_20.png","img/900/equaldotsize/L/8_Ratio_900_L_20_R_18.png","img/900/randomdotsizeEA/L/1_Ratio_900_L_10_R_9.png","img/500/equaldotanddens/R/9_Ratio_500_L_2_R_4.png","img/250/randomdotsizeEA/L/2_Ratio_250_L_16_R_4.png","img/250/randomdotsizeEA/L/2_Ratio_250_L_16_R_4.png","img/900/randomdotsizeEA/L/4_Ratio_900_L_20_R_18.png","img/900/equaldotanddens/R/9_Ratio_900_L_18_R_20.png","img/750/randomdotsizeEA/L/14_Ratio_750_L_8_R_6.png","img/250/equaldotanddens/L/14_Ratio_250_L_12_R_3.png","img/250/randomdotsizeEA/R/13_Ratio_250_L_2_R_8.png","img/900/randomdotsizeEA/R/13_Ratio_900_L_18_R_20.png","img/750/equaldotsize/L/14_Ratio_750_L_8_R_6.png","img/750/equaldotsize/L/10_Ratio_750_L_4_R_3.png","img/900/randomdotsizeEA/L/2_Ratio_900_L_20_R_18.png","img/250/equaldotanddens/R/11_Ratio_250_L_3_R_12.png","img/500/equaldotsize/L/7_Ratio_500_L_10_R_5.png","img/250/equaldotanddens/L/14_Ratio_250_L_12_R_3.png","img/500/equaldotanddens/R/1_Ratio_500_L_9_R_18.png","img/750/equaldotanddens/R/3_Ratio_750_L_15_R_20.png","img/500/randomdotsizeEA/R/1_Ratio_500_L_9_R_18.png","img/250/equaldotanddens/L/1_Ratio_250_L_8_R_2.png","img/900/equaldotsize/L/1_Ratio_900_L_10_R_9.png","img/250/randomdotsizeEA/R/12_Ratio_250_L_5_R_20.png","img/750/equaldotsize/L/9_Ratio_750_L_4_R_3.png","img/500/equaldotsize/R/2_Ratio_500_L_3_R_6.png","img/750/randomdotsizeEA/L/8_Ratio_750_L_4_R_3.png","img/750/equaldotsize/R/2_Ratio_750_L_6_R_8.png","img/900/randomdotsizeEA/L/4_Ratio_900_L_20_R_18.png","img/750/equaldotsize/R/15_Ratio_750_L_9_R_12.png","img/750/randomdotsizeEA/R/12_Ratio_750_L_3_R_4.png","img/250/equaldotsize/L/7_Ratio_250_L_8_R_2.png","img/500/equaldotanddens/L/10_Ratio_500_L_4_R_2.png","img/900/equaldotanddens/R/9_Ratio_900_L_18_R_20.png","img/750/equaldotsize/R/11_Ratio_750_L_12_R_16.png","img/500/randomdotsizeEA/L/5_Ratio_500_L_4_R_2.png","img/250/equaldotsize/L/1_Ratio_250_L_8_R_2.png","img/500/randomdotsizeEA/L/11_Ratio_500_L_12_R_6.png","img/750/randomdotsizeEA/L/8_Ratio_750_L_4_R_3.png","img/250/equaldotsize/R/9_Ratio_250_L_3_R_12.png","img/900/equaldotsize/L/4_Ratio_900_L_20_R_18.png","img/500/randomdotsizeEA/R/3_Ratio_500_L_10_R_20.png","img/900/randomdotsizeEA/R/3_Ratio_900_L_9_R_10.png","img/500/randomdotsizeEA/L/11_Ratio_500_L_12_R_6.png","img/900/equaldotanddens/L/10_Ratio_900_L_20_R_18.png","img/900/equaldotsize/L/4_Ratio_900_L_20_R_18.png","img/750/equaldotanddens/L/10_Ratio_750_L_4_R_3.png","img/250/equaldotanddens/L/2_Ratio_250_L_16_R_4.png","img/500/equaldotanddens/L/8_Ratio_500_L_8_R_4.png","img/500/equaldotsize/L/13_Ratio_500_L_12_R_6.png","img/500/equaldotanddens/L/7_Ratio_500_L_10_R_5.png","img/500/equaldotsize/L/10_Ratio_500_L_4_R_2.png","img/250/randomdotsizeEA/L/15_Ratio_250_L_12_R_3.png","img/900/equaldotanddens/R/5_Ratio_900_L_9_R_10.png","img/750/equaldotanddens/L/13_Ratio_750_L_8_R_6.png","img/250/equaldotanddens/L/15_Ratio_250_L_12_R_3.png","img/900/equaldotsize/L/10_Ratio_900_L_20_R_18.png","img/900/equaldotanddens/L/10_Ratio_900_L_20_R_18.png","img/500/equaldotanddens/L/5_Ratio_500_L_4_R_2.png","img/500/randomdotsizeEA/L/4_Ratio_500_L_18_R_9.png","img/250/randomdotsizeEA/L/7_Ratio_250_L_8_R_2.png","img/250/equaldotsize/L/2_Ratio_250_L_16_R_4.png","img/750/equaldotsize/R/7_Ratio_750_L_3_R_4.png","img/250/equaldotanddens/L/1_Ratio_250_L_8_R_2.png","img/750/equaldotanddens/L/10_Ratio_750_L_4_R_3.png","img/750/equaldotanddens/L/8_Ratio_750_L_4_R_3.png","img/900/equaldotsize/R/9_Ratio_900_L_18_R_20.png","img/750/equaldotanddens/L/6_Ratio_750_L_24_R_18.png","img/900/equaldotsize/R/11_Ratio_900_L_18_R_20.png","img/250/randomdotsizeEA/L/2_Ratio_250_L_16_R_4.png","img/750/equaldotanddens/R/4_Ratio_750_L_15_R_20.png","img/750/equaldotanddens/L/9_Ratio_750_L_4_R_3.png","img/750/randomdotsizeEA/L/14_Ratio_750_L_8_R_6.png","img/500/randomdotsizeEA/R/14_Ratio_500_L_5_R_10.png","img/250/equaldotanddens/R/11_Ratio_250_L_3_R_12.png","img/900/equaldotanddens/R/7_Ratio_900_L_9_R_10.png","img/900/equaldotanddens/R/15_Ratio_900_L_9_R_10.png","img/900/equaldotanddens/R/3_Ratio_900_L_9_R_10.png","img/500/equaldotanddens/R/15_Ratio_500_L_1_R_2.png","img/900/randomdotsizeEA/R/13_Ratio_900_L_18_R_20.png","img/750/randomdotsizeEA/L/8_Ratio_750_L_4_R_3.png","img/500/equaldotanddens/L/11_Ratio_500_L_12_R_6.png","img/250/equaldotsize/L/2_Ratio_250_L_16_R_4.png","img/500/equaldotanddens/R/2_Ratio_500_L_3_R_6.png","img/750/equaldotsize/L/14_Ratio_750_L_8_R_6.png","img/500/equaldotanddens/L/8_Ratio_500_L_8_R_4.png","img/900/equaldotanddens/R/15_Ratio_900_L_9_R_10.png","img/500/equaldotsize/L/5_Ratio_500_L_4_R_2.png","img/250/equaldotsize/R/11_Ratio_250_L_3_R_12.png","img/250/equaldotsize/L/14_Ratio_250_L_12_R_3.png","img/500/randomdotsizeEA/L/4_Ratio_500_L_18_R_9.png","img/750/equaldotanddens/R/7_Ratio_750_L_3_R_4.png","img/250/randomdotsizeEA/R/12_Ratio_250_L_5_R_20.png","img/250/equaldotsize/R/4_Ratio_250_L_3_R_12.png","img/750/randomdotsizeEA/R/7_Ratio_750_L_3_R_4.png","img/500/randomdotsizeEA/R/14_Ratio_500_L_5_R_10.png","img/900/randomdotsizeEA/L/8_Ratio_900_L_20_R_18.png","img/900/equaldotsize/L/10_Ratio_900_L_20_R_18.png","img/250/equaldotsize/L/3_Ratio_250_L_8_R_2.png","img/750/randomdotsizeEA/R/5_Ratio_750_L_15_R_20.png","img/500/equaldotsize/L/5_Ratio_500_L_4_R_2.png","img/250/equaldotanddens/R/8_Ratio_250_L_1_R_4.png","img/500/equaldotsize/R/14_Ratio_500_L_5_R_10.png","img/500/equaldotsize/R/2_Ratio_500_L_3_R_6.png","img/500/equaldotsize/L/8_Ratio_500_L_8_R_4.png","img/500/equaldotsize/R/2_Ratio_500_L_3_R_6.png","img/900/equaldotanddens/R/15_Ratio_900_L_9_R_10.png","img/750/equaldotsize/L/1_Ratio_750_L_20_R_15.png"],"Rat0":[["12_Ratio_0_L_9_R_0.png","13_Ratio_0_L_6_R_0.png","5_Ratio_0_L_2_R_0.png","6_Ratio_0_L_4_R_0.png","8_Ratio_0_L_6_R_0.png"],["1_Ratio_0_L_0_R_17.png","10_Ratio_0_L_0_R_22.png","11_Ratio_0_L_0_R_1.png","14_Ratio_0_L_0_R_24.png","15_Ratio_0_L_0_R_4.png","2_Ratio_0_L_0_R_5.png","3_Ratio_0_L_0_R_17.png","4_Ratio_0_L_0_R_7.png","7_Ratio_0_L_0_R_19.png","9_Ratio_0_L_0_R_15.png"]],"Rat250":[["1_Ratio_250_L_8_R_2.png","14_Ratio_250_L_12_R_3.png","15_Ratio_250_L_12_R_3.png","2_Ratio_250_L_16_R_4.png","3_Ratio_250_L_8_R_2.png","5_Ratio_250_L_24_R_6.png","7_Ratio_250_L_8_R_2.png"],["10_Ratio_250_L_4_R_16.png","11_Ratio_250_L_3_R_12.png","12_Ratio_250_L_5_R_20.png","13_Ratio_250_L_2_R_8.png","4_Ratio_250_L_3_R_12.png","6_Ratio_250_L_6_R_24.png","8_Ratio_250_L_1_R_4.png","9_Ratio_250_L_3_R_12.png"]],"Rat500":[["10_Ratio_500_L_4_R_2.png","11_Ratio_500_L_12_R_6.png","13_Ratio_500_L_12_R_6.png","4_Ratio_500_L_18_R_9.png","5_Ratio_500_L_4_R_2.png","7_Ratio_500_L_10_R_5.png","8_Ratio_500_L_8_R_4.png"],["1_Ratio_500_L_9_R_18.png","12_Ratio_500_L_1_R_2.png","14_Ratio_500_L_5_R_10.png","15_Ratio_500_L_1_R_2.png","2_Ratio_500_L_3_R_6.png","3_Ratio_500_L_10_R_20.png","6_Ratio_500_L_9_R_18.png","9_Ratio_500_L_2_R_4.png"]],"Rat750":[["1_Ratio_750_L_20_R_15.png","10_Ratio_750_L_4_R_3.png","13_Ratio_750_L_8_R_6.png","14_Ratio_750_L_8_R_6.png","6_Ratio_750_L_24_R_18.png","8_Ratio_750_L_4_R_3.png","9_Ratio_750_L_4_R_3.png"],["11_Ratio_750_L_12_R_16.png","12_Ratio_750_L_3_R_4.png","15_Ratio_750_L_9_R_12.png","2_Ratio_750_L_6_R_8.png","3_Ratio_750_L_15_R_20.png","4_Ratio_750_L_15_R_20.png","5_Ratio_750_L_15_R_20.png","7_Ratio_750_L_3_R_4.png"]],"Rat900":[["1_Ratio_900_L_10_R_9.png","10_Ratio_900_L_20_R_18.png","2_Ratio_900_L_20_R_18.png","4_Ratio_900_L_20_R_18.png","8_Ratio_900_L_20_R_18.png"],["11_Ratio_900_L_18_R_20.png","12_Ratio_900_L_18_R_20.png","13_Ratio_900_L_18_R_20.png","14_Ratio_900_L_18_R_20.png","15_Ratio_900_L_9_R_10.png","3_Ratio_900_L_9_R_10.png","5_Ratio_900_L_9_R_10.png","6_Ratio_900_L_9_R_10.png","7_Ratio_900_L_9_R_10.png","9_Ratio_900_L_18_R_20.png"]],"Rat1000":[["10_Ratio_1000_L_16_R_16.png","11_Ratio_1000_L_6_R_6.png","12_Ratio_1000_L_14_R_14.png","13_Ratio_1000_L_20_R_20.png","15_Ratio_1000_L_15_R_15.png","2_Ratio_1000_L_17_R_17.png","4_Ratio_1000_L_9_R_9.png","5_Ratio_1000_L_6_R_6.png","6_Ratio_1000_L_19_R_19.png","8_Ratio_1000_L_14_R_14.png","9_Ratio_1000_L_25_R_25.png"],["1_Ratio_1000_L_1_R_1.png","14_Ratio_1000_L_17_R_17.png","3_Ratio_1000_L_17_R_17.png","7_Ratio_1000_L_6_R_6.png"]]}},{"start_time":1551901081743,"click_time":1551901083912,"finger_time":1551901083451,"fix_duration":250,"trial":1,"RT":1708,"MT":461,"sideResp":1,"stimulus":"img/250/randomdotsizeEA/L/7_Ratio_250_L_8_R_2.png","xmouse":[794,794,794,794,794,794,794,794,794,794,794,794,794,794,794,794,794,794,794,794,794,794,794,794,794,794,794,794,794,794,794,794,794,794,794,794,794,794,794,794,794,794,794,794,794,794,794,794,794,794,794,794,794,794,794,794,794,794,794,794,794,794,794,794,794,794,794,794,794,794,794,794,794,794,794,794,792,788,780,773,773,773,773,773,773,771,735,714,692,675,656,637,625,614,599,588,566,553,541,536,534,534,534,533,530,522,508,502],"ymouse":[618,618,618,618,618,618,618,618,618,618,618,618,618,618,618,618,618,618,618,618,618,618,618,618,618,618,618,618,618,618,618,618,618,618,618,618,618,618,618,618,618,618,618,618,618,618,618,618,618,618,618,618,618,618,618,618,618,618,618,618,618,618,618,618,618,618,618,618,618,618,618,618,618,618,618,618,618,622,639,649,649,649,639,609,566,522,412,368,330,302,279,247,228,201,181,171,148,136,128,125,123,123,123,122,118,113,101,97],"timestamp_mouse":[9,48,68,89,108,128,148,167,188,208,228,249,268,288,308,328,348,369,387,408,428,447,469,488,508,529,548,569,588,609,628,649,668,687,708,728,749,768,787,809,828,848,868,889,907,928,947,969,988,1008,1028,1048,1068,1088,1108,1127,1148,1169,1188,1208,1228,1249,1267,1289,1307,1328,1349,1368,1388,1408,1429,1449,1468,1489,1509,1529,1548,1568,1588,1608,1629,1649,1668,1689,1708,1729,1748,1768,1788,1807,1828,1849,1867,1889,1908,1928,1948,1968,1988,2009,2028,2047,2067,2087,2108,2128,2148,2168],"xSR":741.5,"ySR":573.95,"xT1":424.9,"yT1":0,"xT2":1058.1,"yT2":0,"toosoon":0,"cond_shown":"randomdotsizeEA","ratio_trial":250,"smaller_num":"2","larger_num":"8","correct_side":1,"subjID":"andresfelipemesaperez2","gender":"0","age":"10","school":"6"},{"start_time":1551901086965,"click_time":1551901088571,"finger_time":1551901087571,"fix_duration":1311.4840124087302,"trial":2,"RT":606,"MT":1000,"sideResp":2,"stimulus":"img/250/randomdotsizeEA/R/11_Ratio_250_L_3_R_12.png","xmouse":[791,791,791,791,791,791,791,791,791,791,791,791,791,791,791,791,791,791,791,791,791,791,791,791,791,791,791,791,791,791,772,754,723,680,640,600,593,589,586,580,573,571,568,568,568,568,568,568,568,568,569,581,605,642,686,834,914,991,1035,1072,1082,1085,1090,1100,1108,1125,1129,1131,1132,1132,1132,1132,1132,1131,1127,1115,1109,1102,1097,1093,1092],"ymouse":[637,637,637,637,637,637,637,637,637,637,637,637,637,637,637,637,637,637,637,637,637,637,637,637,637,637,637,637,636,631,554,519,472,417,373,324,309,295,283,268,247,239,231,226,222,222,222,222,222,222,222,222,225,232,238,247,251,256,256,252,242,233,214,187,168,144,140,135,134,134,134,134,134,134,134,130,125,118,111,105,97],"timestamp_mouse":[8,37,46,67,87,106,127,145,166,186,207,226,247,266,285,306,327,346,366,386,406,427,446,466,487,506,526,546,567,587,606,626,646,666,686,706,725,746,766,787,806,827,846,866,887,907,927,946,966,986,1005,1026,1046,1067,1086,1106,1126,1146,1166,1186,1206,1225,1246,1266,1286,1306,1325,1346,1366,1386,1407,1427,1446,1467,1486,1506,1527,1546,1566,1587,1606],"xSR":741.5,"ySR":573.95,"xT1":424.9,"yT1":0,"xT2":1058.1,"yT2":0,"toosoon":0,"cond_shown":"randomdotsizeEA","ratio_trial":250,"smaller_num":"3","larger_num":"12","correct_side":2,"subjID":"andresfelipemesaperez2","gender":"0","age":"10","school":"6"},{"start_time":1551901091150,"click_time":1551901092651,"finger_time":1551901092035,"fix_duration":1277.774692345723,"trial":3,"RT":885,"MT":616,"sideResp":1,"stimulus":"img/250/equaldotsize/L/2_Ratio_250_L_16_R_4.png","xmouse":[792,792,792,792,792,792,792,792,792,792,792,792,792,792,792,792,792,792,792,792,792,792,792,792,792,792,792,792,792,792,792,792,792,792,792,792,792,792,792,792,792,786,780,771,761,753,737,721,699,676,653,618,609,600,594,587,565,552,540,531,527,525,525,524,522,519,513,509,507,505,505,501,500,500,500,500],"ymouse":[616,616,616,616,616,616,616,616,616,616,616,616,616,616,616,616,616,616,616,616,616,616,616,616,616,616,616,616,616,616,616,616,616,616,616,616,616,616,616,616,616,602,593,578,567,552,503,463,414,361,320,271,262,251,243,236,213,203,189,181,176,172,172,170,166,160,145,136,129,125,119,106,103,102,100,99],"timestamp_mouse":[8,21,41,62,81,102,122,142,162,182,201,222,240,261,282,302,322,342,362,382,402,421,441,461,481,501,522,540,562,581,601,622,641,661,682,702,721,740,762,781,801,821,841,861,885,901,921,941,961,981,1001,1020,1040,1062,1082,1101,1121,1140,1161,1182,1201,1220,1241,1262,1281,1301,1321,1341,1361,1381,1401,1420,1441,1461,1481,1501],"xSR":741.5,"ySR":573.95,"xT1":424.9,"yT1":0,"xT2":1058.1,"yT2":0,"toosoon":0,"cond_shown":"equaldotsize","ratio_trial":250,"smaller_num":"4","larger_num":"16","correct_side":1,"subjID":"andresfelipemesaperez2","gender":"0","age":"10","school":"6"},{"start_time":1551901094363,"click_time":1551901095612,"finger_time":1551901094971,"fix_duration":450.2013240111974,"trial":4,"RT":608,"MT":641,"sideResp":2,"stimulus":"img/900/randomdotsizeEA/R/7_Ratio_900_L_9_R_10.png","xmouse":[783,783,783,783,783,783,783,783,783,783,783,783,783,783,783,783,783,783,783,783,783,783,783,783,783,783,784,785,794,810,896,949,999,1048,1096,1163,1185,1199,1211,1218,1221,1224,1225,1226,1226,1215,1200,1185,1174,1161,1144,1141,1138,1134,1129,1126,1126,1126,1126,1126,1136,1139,1139],"ymouse":[618,618,618,618,618,618,618,618,618,618,618,618,618,618,618,618,618,618,618,618,618,618,618,618,618,618,618,618,617,610,573,547,520,495,473,436,420,404,387,371,351,344,336,327,314,280,256,237,220,206,192,191,189,188,186,185,184,181,178,173,131,107,88],"timestamp_mouse":[8,39,48,69,89,109,128,148,169,188,208,228,248,268,288,309,329,349,369,388,408,428,450,468,488,509,528,548,569,588,608,629,648,669,688,709,728,748,768,790,808,828,849,868,888,908,929,949,968,988,1008,1028,1049,1068,1088,1109,1128,1149,1168,1190,1208,1228,1248],"xSR":741.5,"ySR":573.95,"xT1":424.9,"yT1":0,"xT2":1058.1,"yT2":0,"toosoon":0,"cond_shown":"randomdotsizeEA","ratio_trial":900,"smaller_num":"9","larger_num":"10","correct_side":2,"subjID":"andresfelipemesaperez2","gender":"0","age":"10","school":"6"},{"start_time":1551901098080,"click_time":1551901098813,"finger_time":1551901098471,"fix_duration":1446.484275235496,"trial":5,"RT":391,"MT":342,"sideResp":2,"stimulus":"img/250/equaldotanddens/R/11_Ratio_250_L_3_R_12.png","xmouse":[787,787,787,787,787,787,787,787,787,787,787,787,787,787,787,787,787,788,795,845,890,939,988,1028,1091,1102,1110,1113,1118,1118,1118,1118,1118,1117,1112,1109,1104],"ymouse":[638,638,638,638,638,638,638,638,638,638,638,638,638,638,638,638,638,635,630,585,548,501,445,395,275,234,201,175,156,140,136,130,128,123,113,104,98],"timestamp_mouse":[11,40,51,72,92,113,132,152,172,191,212,231,252,272,292,312,331,351,371,391,411,431,451,472,491,511,532,551,571,591,612,631,652,672,691,712,732],"xSR":741.5,"ySR":573.95,"xT1":424.9,"yT1":0,"xT2":1058.1,"yT2":0,"toosoon":0,"cond_shown":"equaldotanddens","ratio_trial":250,"smaller_num":"3","larger_num":"12","correct_side":2,"subjID":"andresfelipemesaperez2","gender":"0","age":"10","school":"6"},{"start_time":1551901100271,"click_time":1551901101692,"finger_time":1551901100651,"fix_duration":257.4964589279917,"trial":6,"RT":380,"MT":1041,"sideResp":2,"stimulus":"img/750/randomdotsizeEA/L/8_Ratio_750_L_4_R_3.png","xmouse":[808,808,808,808,808,808,808,808,808,808,808,808,808,808,808,808,808,817,834,862,934,934,934,934,934,934,934,934,934,934,934,934,934,934,934,934,934,934,934,934,934,934,934,934,934,934,934,934,934,934,934,934,934,934,934,934,934,934,934,934,934,934,934,934,934,934,934,934,934,934,934,1080],"ymouse":[621,621,621,621,621,621,621,621,621,621,621,621,621,621,621,621,621,615,604,583,525,525,525,525,525,525,525,525,525,525,525,525,525,525,525,525,525,525,525,525,525,525,525,525,525,525,525,525,525,525,525,525,525,525,525,525,525,525,525,525,525,525,525,525,525,525,525,525,525,525,525,9],"timestamp_mouse":[8,20,41,61,80,100,121,140,161,181,200,222,240,260,281,300,321,341,360,380,400,420,441,461,481,501,520,541,560,580,601,621,640,661,680,700,721,740,760,781,800,822,841,861,880,900,921,941,960,982,1000,1020,1041,1060,1081,1100,1121,1141,1162,1181,1201,1221,1241,1261,1280,1301,1320,1340,1362,1380,1401,1420],"xSR":741.5,"ySR":573.95,"xT1":424.9,"yT1":0,"xT2":1058.1,"yT2":0,"toosoon":0,"cond_shown":"randomdotsizeEA","ratio_trial":750,"smaller_num":"3","larger_num":"4","correct_side":1,"subjID":"andresfelipemesaperez2","gender":"0","age":"10","school":"6"},{"start_time":1551901104244,"click_time":1551901105472,"finger_time":1551901105151,"fix_duration":250,"trial":7,"RT":907,"MT":321,"sideResp":1,"stimulus":"img/750/equaldotsize/L/9_Ratio_750_L_4_R_3.png","xmouse":[764,764,764,764,764,765,767,767,767,768,768,768,768,768,768,768,768,768,768,768,768,768,768,768,768,768,768,768,768,768,768,768,768,768,768,768,768,768,768,768,768,768,768,766,758,746,703,694,685,674,661,632,619,608,596,582,570,549,538,529,522,518],"ymouse":[636,636,636,636,636,636,636,636,635,635,634,634,634,634,634,634,634,634,634,634,634,634,634,634,634,634,634,634,634,634,634,634,634,634,634,634,634,634,634,634,634,634,626,619,596,565,445,402,356,313,274,217,196,181,167,148,137,119,110,105,102,98],"timestamp_mouse":[14,28,47,67,87,108,128,147,167,187,207,227,249,269,287,307,327,348,368,388,407,427,448,467,488,507,527,548,567,588,608,628,647,667,688,707,727,748,767,789,808,827,847,868,887,907,927,947,967,987,1007,1027,1047,1067,1087,1109,1127,1147,1167,1188,1207,1228],"xSR":741.5,"ySR":573.95,"xT1":424.9,"yT1":0,"xT2":1058.1,"yT2":0,"toosoon":0,"cond_shown":"equaldotsize","ratio_trial":750,"smaller_num":"3","larger_num":"4","correct_side":1,"subjID":"andresfelipemesaperez2","gender":"0","age":"10","school":"6"},{"start_time":1551901107646,"click_time":1551901108311,"finger_time":1551901108072,"fix_duration":914.215685141774,"trial":8,"RT":426,"MT":239,"sideResp":2,"stimulus":"img/900/equaldotsize/L/2_Ratio_900_L_20_R_18.png","xmouse":[782,782,782,782,782,782,782,782,782,782,782,782,782,782,782,782,782,782,782,784,787,809,829,849,867,886,966,1013,1045,1070,1084,1102,1109,1115],"ymouse":[590,590,590,590,590,590,590,590,590,590,590,590,590,590,590,590,590,590,590,590,588,573,558,540,522,502,386,316,253,204,173,133,115,96],"timestamp_mouse":[10,39,46,65,85,105,126,145,167,186,205,227,246,265,287,305,326,345,366,385,406,426,445,465,485,505,525,545,565,586,605,625,645,665],"xSR":741.5,"ySR":573.95,"xT1":424.9,"yT1":0,"xT2":1058.1,"yT2":0,"toosoon":0,"cond_shown":"equaldotsize","ratio_trial":900,"smaller_num":"18","larger_num":"20","correct_side":1,"subjID":"andresfelipemesaperez2","gender":"0","age":"10","school":"6"},{"start_time":1551901120224,"click_time":1551901121531,"finger_time":1551901120971,"fix_duration":511.73497879033647,"trial":9,"RT":747,"MT":560,"sideResp":1,"stimulus":"img/900/equaldotsize/L/4_Ratio_900_L_20_R_18.png","xmouse":[815,815,815,815,815,815,815,815,815,815,815,815,815,815,815,815,815,815,815,815,815,815,815,814,814,814,814,814,814,814,814,814,814,814,814,813,810,786,772,759,738,708,653,627,604,581,566,548,541,531,520,504,479,475,474,474,474,476,476,476,476,476,476,476,476,476],"ymouse":[621,621,621,621,621,621,621,621,621,621,621,621,621,621,621,621,621,621,621,616,608,603,599,598,598,598,598,598,598,598,598,598,598,598,598,596,591,549,524,497,465,428,374,356,342,332,325,317,312,305,298,284,261,249,240,232,228,220,217,215,212,205,173,147,122,96],"timestamp_mouse":[9,34,47,67,87,109,128,148,169,188,207,227,248,268,287,308,327,347,368,387,407,428,447,468,488,507,527,547,568,588,607,627,647,668,687,707,727,747,768,788,808,827,847,867,887,907,927,948,968,987,1008,1029,1047,1067,1087,1108,1128,1147,1168,1188,1207,1228,1247,1268,1287,1307],"xSR":741.5,"ySR":573.95,"xT1":424.9,"yT1":0,"xT2":1058.1,"yT2":0,"toosoon":0,"cond_shown":"equaldotsize","ratio_trial":900,"smaller_num":"18","larger_num":"20","correct_side":1,"subjID":"andresfelipemesaperez2","gender":"0","age":"10","school":"6"},{"start_time":1551901127075,"click_time":1551901130871,"finger_time":1551901128152,"fix_duration":402.5042285710756,"trial":10,"RT":1077,"MT":2719,"sideResp":2,"stimulus":"img/500/randomdotsizeEA/L/8_Ratio_500_L_8_R_4.png","xmouse":[786,786,786,786,786,786,786,786,786,786,786,786,786,786,786,786,786,786,786,786,786,786,786,786,786,786,786,786,786,786,786,786,786,786,786,786,786,786,786,786,786,786,786,786,786,786,786,786,787,795,798,800,805,810,836,853,871,890,915,969,999,1029,1079,1088,1133,1146,1148,1148,1148,1143,1137,1131,1120,1104,1087,1079,1076,1075,1075,1075,1075,1075,1075,1075,1075,1075,1075,1075,1075,1075,1075,1075,1075,1075,1075,1075,1075,1074,1074,1073,1073,1073,1073,1073,1072,1072,1072,1071,1071,1071,1071,1071,1071,1071,1071,1071,1071,1071,1071,1071,1071,1071,1071,1071,1071,1071,1071,1071,1071,1071,1071,1071,1071,1071,1071,1071,1071,1071,1071,1071,1071,1071,1071,1071,1071,1071,1071,1071,1071,1071,1070,1070,1071,1077,1092,1096,1098,1099,1099,1097,1095,1094,1094,1094,1096,1114,1150,1174,1174,1174,1174,1174,1173,1173,1172,1172,1172,1172,1171,1171,1166,1161,1152,1142,1122,1120,1120,1120,1120,1120],"ymouse":[627,627,627,627,627,627,627,627,627,627,627,627,627,627,627,627,627,627,627,627,627,627,627,627,627,627,627,627,627,627,627,627,627,627,627,627,627,627,627,627,627,627,627,627,627,627,627,627,625,609,601,595,576,564,493,462,428,394,364,316,297,274,244,234,197,182,178,177,176,172,169,165,157,145,132,127,124,124,124,124,124,123,123,122,121,121,120,120,119,119,118,118,118,117,117,116,116,116,115,115,115,115,114,114,113,113,113,112,112,112,112,112,112,112,112,112,112,112,112,112,112,112,112,112,112,112,112,112,112,112,112,112,112,112,112,112,112,112,112,112,112,112,112,112,112,112,112,112,112,112,112,115,122,129,156,164,169,173,181,212,224,231,234,234,224,195,146,122,122,122,122,122,122,122,122,122,122,122,122,122,121,119,114,106,100,100,100,100,100,95],"timestamp_mouse":[31,37,56,77,96,116,136,157,176,196,216,236,256,276,297,317,336,356,377,397,417,436,457,476,496,517,536,557,577,597,617,637,656,677,697,716,736,757,776,797,816,836,856,876,896,916,937,956,976,996,1016,1036,1056,1077,1096,1116,1136,1156,1178,1196,1216,1236,1257,1277,1296,1316,1336,1356,1377,1396,1416,1436,1457,1476,1496,1516,1536,1557,1576,1597,1617,1636,1656,1677,1697,1716,1738,1757,1776,1797,1816,1836,1857,1877,1897,1916,1937,1957,1976,1996,2016,2036,2056,2076,2096,2116,2136,2156,2176,2198,2216,2237,2256,2276,2297,2318,2337,2356,2376,2396,2417,2437,2457,2476,2497,2516,2536,2556,2576,2596,2617,2637,2656,2677,2697,2717,2736,2756,2776,2797,2816,2837,2857,2877,2896,2916,2936,2957,2976,2996,3016,3037,3056,3077,3096,3118,3136,3157,3176,3196,3216,3237,3257,3276,3296,3317,3336,3357,3377,3397,3417,3437,3456,3477,3497,3517,3536,3556,3576,3596,3617,3637,3656,3677,3696,3716,3736,3756,3776,3796],"xSR":741.5,"ySR":573.95,"xT1":424.9,"yT1":0,"xT2":1058.1,"yT2":0,"toosoon":0,"cond_shown":"randomdotsizeEA","ratio_trial":500,"smaller_num":"4","larger_num":"8","correct_side":1,"subjID":"andresfelipemesaperez2","gender":"0","age":"10","school":"6"},{"start_time":1551901136387,"click_time":1551901138631,"finger_time":1551901138471,"fix_duration":913.5714850403762,"trial":11,"RT":2084,"MT":160,"sideResp":2,"stimulus":"img/900/randomdotsizeEA/R/14_Ratio_900_L_18_R_20.png","xmouse":[774,774,774,774,774,774,774,774,774,774,774,774,774,774,774,774,774,774,774,774,774,774,774,774,774,774,774,774,774,774,774,774,774,774,774,774,774,774,774,774,774,774,774,774,774,774,774,774,774,774,774,774,774,774,774,774,774,774,774,774,774,774,774,774,774,774,774,774,774,774,774,774,774,774,774,774,774,774,774,774,774,774,774,774,774,774,774,774,774,774,774,774,774,776,781,781,781,781,781,785,786,788,789,790,795,807,818,845,878,941,989,1047,1117],"ymouse":[639,639,639,639,639,639,639,639,639,639,639,639,639,639,639,639,639,639,639,639,639,639,639,639,639,639,639,639,639,639,639,639,639,639,639,639,639,639,639,639,639,639,639,639,639,639,639,639,639,639,639,639,639,639,639,639,639,639,639,639,639,639,639,639,639,639,639,639,639,639,639,639,639,639,639,639,639,639,639,639,639,639,639,639,639,639,639,639,639,639,639,639,638,632,602,602,602,602,602,601,601,600,600,599,556,510,486,435,380,208,134,69,4],"timestamp_mouse":[8,40,45,65,85,105,125,144,164,184,206,225,244,265,286,304,325,344,365,385,405,425,444,464,484,504,525,544,566,585,606,625,644,664,684,704,725,744,765,785,805,824,844,865,884,905,925,944,965,984,1006,1025,1045,1064,1085,1105,1124,1145,1165,1184,1204,1224,1245,1265,1285,1305,1324,1345,1364,1384,1404,1425,1444,1465,1485,1505,1525,1544,1565,1584,1604,1624,1645,1664,1684,1705,1725,1745,1766,1784,1805,1825,1844,1864,1884,1904,1925,1945,1964,1984,2005,2024,2044,2064,2084,2105,2124,2144,2164,2184,2205,2224,2244],"xSR":741.5,"ySR":573.95,"xT1":424.9,"yT1":0,"xT2":1058.1,"yT2":0,"toosoon":0,"cond_shown":"randomdotsizeEA","ratio_trial":900,"smaller_num":"18","larger_num":"20","correct_side":2,"subjID":"andresfelipemesaperez2","gender":"0","age":"10","school":"6"},{"start_time":1551901145592,"click_time":1551901146631,"finger_time":1551901146052,"fix_duration":438.26766091770565,"trial":12,"RT":460,"MT":579,"sideResp":2,"stimulus":"img/750/equaldotanddens/R/5_Ratio_750_L_15_R_20.png","xmouse":[816,816,816,816,816,816,816,816,816,816,816,816,816,816,816,816,816,816,817,818,818,819,822,828,852,869,895,924,947,988,1003,1010,1014,1015,1015,1015,1015,1015,1015,1015,1015,1015,1015,1016,1023,1036,1045,1052,1059,1063,1071,1082,1105],"ymouse":[611,611,611,611,611,611,611,611,611,611,611,611,611,611,611,611,611,611,611,608,605,598,576,539,404,287,151,35,0,0,0,0,0,0,0,0,0,0,0,0,0,0,0,0,0,0,0,0,0,0,0,0,9],"timestamp_mouse":[1,19,39,60,80,99,119,141,159,180,200,220,240,259,280,300,320,339,360,379,400,419,440,460,479,499,520,539,559,580,600,620,640,659,679,699,719,740,759,780,800,820,839,860,880,899,919,940,959,979,999,1020,1039],"xSR":741.5,"ySR":573.95,"xT1":424.9,"yT1":0,"xT2":1058.1,"yT2":0,"toosoon":0,"cond_shown":"equaldotanddens","ratio_trial":750,"smaller_num":"15","larger_num":"20","correct_side":2,"subjID":"andresfelipemesaperez2","gender":"0","age":"10","school":"6"},{"start_time":1551901148761,"click_time":1551901149291,"finger_time":1551901149172,"fix_duration":1149.740735289982,"trial":13,"RT":411,"MT":119,"sideResp":2,"stimulus":"img/900/equaldotsize/L/8_Ratio_900_L_20_R_18.png","xmouse":[792,792,792,792,792,792,792,792,792,792,792,792,792,792,792,792,792,792,796,812,907,962,1017,1037,1067,1107,1122],"ymouse":[638,638,638,638,638,638,638,638,638,638,638,638,638,638,638,638,638,638,629,586,436,361,293,266,215,119,81],"timestamp_mouse":[11,42,50,71,91,110,130,150,170,190,210,230,252,271,290,310,330,350,371,390,410,432,450,470,490,510,530],"xSR":741.5,"ySR":573.95,"xT1":424.9,"yT1":0,"xT2":1058.1,"yT2":0,"toosoon":0,"cond_shown":"equaldotsize","ratio_trial":900,"smaller_num":"18","larger_num":"20","correct_side":1,"subjID":"andresfelipemesaperez2","gender":"0","age":"10","school":"6"},{"start_time":1551901151427,"click_time":1551901152251,"finger_time":1551901151831,"fix_duration":814.5607751363567,"trial":14,"RT":404,"MT":420,"sideResp":2,"stimulus":"img/900/randomdotsizeEA/L/1_Ratio_900_L_10_R_9.png","xmouse":[806,806,806,806,806,806,806,806,806,806,806,806,806,806,806,806,806,806,806,808,832,861,959,1029,1103,1171,1228,1244,1253,1253,1253,1253,1253,1253,1252,1250,1242,1218,1198,1183,1165,1143],"ymouse":[604,604,604,604,604,604,604,604,604,604,604,604,604,604,604,604,604,604,604,584,501,373,97,0,0,0,0,0,0,0,0,0,0,0,0,0,1,4,8,11,16,17],"timestamp_mouse":[8,38,44,65,84,105,125,144,164,185,204,225,244,266,285,304,324,344,365,384,404,424,444,464,484,504,524,544,565,584,604,624,645,665,684,705,724,744,764,785,804,824],"xSR":741.5,"ySR":573.95,"xT1":424.9,"yT1":0,"xT2":1058.1,"yT2":0,"toosoon":0,"cond_shown":"randomdotsizeEA","ratio_trial":900,"smaller_num":"9","larger_num":"10","correct_side":1,"subjID":"andresfelipemesaperez2","gender":"0","age":"10","school":"6"},{"start_time":1551901153810,"click_time":1551901155373,"finger_time":1551901154132,"fix_duration":474.3166788084704,"trial":15,"RT":322,"MT":1241,"sideResp":2,"stimulus":"img/500/equaldotanddens/R/9_Ratio_500_L_2_R_4.png","xmouse":[828,828,828,828,828,828,828,828,828,828,828,828,828,826,814,797,776,733,585,485,420,381,368,361,361,361,363,367,378,382,386,391,395,399,399,399,399,399,399,399,399,399,399,416,435,472,513,556,731,809,876,924,957,991,997,999,1001,1001,1002,1002,1005,1007,1013,1020,1032,1038,1045,1049,1050,1050,1050,1050,1050,1050,1050,1050,1051,1054,1060],"ymouse":[629,629,629,629,629,629,629,629,629,629,629,629,629,628,612,584,553,495,361,292,235,205,186,166,161,154,151,145,135,129,126,123,121,120,120,120,120,120,120,120,120,120,120,128,137,150,159,164,175,175,174,162,152,126,113,101,86,66,42,24,20,18,16,11,6,5,3,1,1,1,1,1,1,1,1,1,1,3,6],"timestamp_mouse":[11,21,43,61,81,101,122,142,161,182,201,222,241,262,281,301,322,341,362,394,401,421,441,461,481,501,521,542,563,583,603,623,643,663,683,703,724,743,764,783,803,824,843,864,883,902,923,943,962,984,1003,1023,1044,1062,1083,1103,1123,1144,1162,1183,1203,1223,1244,1262,1283,1303,1323,1343,1363,1383,1403,1424,1444,1464,1483,1503,1522,1543,1563],"xSR":741.5,"ySR":573.95,"xT1":424.9,"yT1":0,"xT2":1058.1,"yT2":0,"toosoon":0,"cond_shown":"equaldotanddens","ratio_trial":500,"smaller_num":"2","larger_num":"4","correct_side":2,"subjID":"andresfelipemesaperez2","gender":"0","age":"10","school":"6"},{"start_time":1551901156546,"click_time":1551901157493,"finger_time":1551901156993,"fix_duration":250,"trial":16,"RT":447,"MT":500,"sideResp":1,"stimulus":"img/250/randomdotsizeEA/L/2_Ratio_250_L_16_R_4.png","xmouse":[834,834,834,834,834,834,834,833,831,828,825,823,819,817,816,814,812,811,809,807,806,806,815,822,836,856,886,901,908,914,923,940,946,955,962,968,973,973,973,973,973,962,935,875,753,687,583,474],"ymouse":[639,639,639,639,639,639,639,639,639,640,640,641,642,642,642,643,643,643,641,637,622,607,556,539,506,472,415,396,383,374,363,340,330,319,309,299,292,291,291,291,291,290,283,264,226,191,125,53],"timestamp_mouse":[8,40,48,68,88,108,128,146,168,187,207,227,247,266,287,308,327,346,367,387,406,427,447,467,487,507,527,547,567,587,607,627,648,668,688,708,727,746,767,788,807,827,846,867,887,907,926,947],"xSR":741.5,"ySR":573.95,"xT1":424.9,"yT1":0,"xT2":1058.1,"yT2":0,"toosoon":0,"cond_shown":"randomdotsizeEA","ratio_trial":250,"smaller_num":"4","larger_num":"16","correct_side":1,"subjID":"andresfelipemesaperez2","gender":"0","age":"10","school":"6"},{"start_time":1551901159166,"click_time":1551901161753,"finger_time":1551901159572,"fix_duration":250,"trial":17,"RT":406,"MT":2181,"sideResp":1,"stimulus":"img/250/randomdotsizeEA/L/2_Ratio_250_L_16_R_4.png","xmouse":[750,750,750,750,750,750,750,750,750,750,750,750,750,750,750,750,750,751,752,764,775,809,823,833,841,860,862,864,865,865,875,882,889,896,901,907,911,911,911,914,924,928,931,942,950,957,972,990,1014,1030,1047,1049,1051,1053,1055,1063,1069,1073,1075,1076,1077,1077,1077,1077,1077,1077,1077,1077,1077,1077,1077,1077,1077,1077,1077,1077,1068,1057,1035,992,934,916,908,904,903,898,893,884,876,868,839,832,818,807,788,746,722,701,685,672,665,664,660,653,643,617,609,603,600,600,598,593,584,574,569,562,560,559,556,554,544,541,540,540,540,540,538,533,526,518],"ymouse":[594,594,594,594,594,594,594,594,594,594,594,594,594,594,594,594,594,594,592,577,564,523,498,473,444,368,332,302,278,263,240,229,218,207,199,181,177,174,173,171,164,162,161,156,153,151,149,149,145,142,136,133,131,130,129,125,122,120,118,118,117,117,117,117,117,117,117,117,117,117,117,117,117,117,117,117,118,118,117,114,107,105,105,105,105,105,105,107,107,107,106,105,104,102,102,99,99,98,98,98,98,98,98,98,98,96,96,96,96,96,96,93,89,88,87,86,86,86,86,86,80,78,78,78,78,78,78,78,78,78],"timestamp_mouse":[9,26,47,68,87,107,126,148,168,187,206,228,247,267,288,307,328,348,368,388,406,427,448,467,488,506,527,547,566,587,607,628,648,668,687,707,727,747,766,788,807,826,848,868,887,906,927,948,967,988,1007,1027,1046,1068,1087,1107,1127,1147,1168,1187,1208,1226,1248,1268,1288,1307,1327,1347,1367,1386,1408,1427,1447,1468,1487,1507,1527,1546,1568,1588,1607,1627,1647,1668,1687,1707,1728,1747,1767,1788,1807,1827,1847,1868,1887,1907,1927,1946,1968,1986,2007,2028,2047,2067,2087,2107,2127,2146,2168,2187,2207,2228,2247,2267,2287,2307,2328,2347,2367,2387,2407,2427,2448,2467,2487,2506,2527,2547,2567,2587],"xSR":741.5,"ySR":573.95,"xT1":424.9,"yT1":0,"xT2":1058.1,"yT2":0,"toosoon":0,"cond_shown":"randomdotsizeEA","ratio_trial":250,"smaller_num":"4","larger_num":"16","correct_side":1,"subjID":"andresfelipemesaperez2","gender":"0","age":"10","school":"6"},{"start_time":1551901165793,"click_time":1551901166713,"finger_time":1551901166573,"fix_duration":398.5222927205749,"trial":18,"RT":780,"MT":140,"sideResp":2,"stimulus":"img/900/randomdotsizeEA/L/4_Ratio_900_L_20_R_18.png","xmouse":[766,767,767,767,767,767,767,767,767,767,767,767,767,767,767,767,767,767,767,767,768,768,769,769,770,770,770,770,770,770,770,770,770,771,771,771,772,773,778,804,833,865,909,952,1050,1105,1136],"ymouse":[605,605,605,605,605,605,605,605,605,605,605,605,605,605,605,605,605,605,605,605,605,602,598,596,594,594,594,594,594,594,594,594,593,591,589,589,587,586,578,525,476,424,359,297,178,121,86],"timestamp_mouse":[1,19,46,60,80,101,120,139,160,180,200,220,240,261,280,300,320,340,360,380,400,419,440,459,480,501,521,540,560,580,599,621,639,659,680,700,720,740,761,780,800,821,840,861,879,899,920],"xSR":741.5,"ySR":573.95,"xT1":424.9,"yT1":0,"xT2":1058.1,"yT2":0,"toosoon":0,"cond_shown":"randomdotsizeEA","ratio_trial":900,"smaller_num":"18","larger_num":"20","correct_side":1,"subjID":"andresfelipemesaperez2","gender":"0","age":"10","school":"6"},{"start_time":1551901168723,"click_time":1551901170072,"finger_time":1551901169534,"fix_duration":848.2950421155012,"trial":19,"RT":811,"MT":538,"sideResp":2,"stimulus":"img/900/equaldotanddens/R/9_Ratio_900_L_18_R_20.png","xmouse":[797,797,797,797,797,797,797,797,797,797,797,797,797,797,797,797,797,797,797,797,797,797,797,797,797,797,797,797,797,797,797,797,797,797,797,797,797,797,799,815,864,898,1068,1127,1157,1165,1167,1168,1168,1168,1168,1168,1169,1169,1169,1168,1167,1164,1162,1162,1162,1162,1162,1162,1162,1161,1161,1149],"ymouse":[613,613,613,613,613,613,613,613,613,613,613,613,613,613,613,613,613,613,613,613,613,613,613,613,613,613,613,613,613,613,611,608,603,602,602,602,602,602,597,582,532,498,295,222,175,140,110,88,84,81,81,80,76,73,72,71,70,70,69,69,69,69,69,69,69,69,69,65],"timestamp_mouse":[10,34,50,70,91,110,130,149,171,190,210,231,250,269,291,311,331,350,370,389,411,430,451,469,490,510,531,550,570,591,610,630,649,671,689,711,730,750,770,791,811,829,850,870,890,910,930,950,970,990,1010,1031,1050,1070,1090,1110,1131,1150,1170,1190,1211,1231,1250,1271,1290,1311,1329,1349],"xSR":741.5,"ySR":573.95,"xT1":424.9,"yT1":0,"xT2":1058.1,"yT2":0,"toosoon":0,"cond_shown":"equaldotanddens","ratio_trial":900,"smaller_num":"18","larger_num":"20","correct_side":2,"subjID":"andresfelipemesaperez2","gender":"0","age":"10","school":"6"},{"start_time":1551901176484,"click_time":1551901177794,"finger_time":1551901177353,"fix_duration":250,"trial":20,"RT":869,"MT":441,"sideResp":2,"stimulus":"img/750/randomdotsizeEA/L/14_Ratio_750_L_8_R_6.png","xmouse":[829,829,829,829,829,829,829,829,829,829,829,829,829,829,829,829,829,829,829,829,829,829,829,829,829,829,829,829,829,829,829,829,829,829,829,829,829,829,829,829,829,829,832,850,878,1066,1113,1137,1144,1147,1147,1147,1147,1147,1149,1157,1167,1180,1191,1200,1200,1200,1200,1199,1179,1153],"ymouse":[596,596,596,596,596,596,596,596,596,596,596,596,596,596,596,596,596,596,596,596,596,596,596,596,596,596,596,596,596,596,596,596,596,596,596,596,596,596,596,596,596,596,596,587,565,408,353,297,252,206,199,196,196,196,188,179,166,148,127,95,87,82,81,79,71,63],"timestamp_mouse":[10,38,49,70,89,110,130,150,169,190,209,228,249,269,288,309,329,349,370,388,410,429,449,468,490,509,529,550,569,590,609,629,650,668,690,708,729,749,769,789,810,829,848,868,889,910,928,949,970,989,1009,1029,1049,1069,1089,1109,1129,1150,1170,1189,1209,1228,1249,1269,1289,1310],"xSR":741.5,"ySR":573.95,"xT1":424.9,"yT1":0,"xT2":1058.1,"yT2":0,"toosoon":0,"cond_shown":"randomdotsizeEA","ratio_trial":750,"smaller_num":"6","larger_num":"8","correct_side":1,"subjID":"andresfelipemesaperez2","gender":"0","age":"10","school":"6"},{"start_time":1551901179367,"click_time":1551901180873,"finger_time":1551901179973,"fix_duration":454.4027294910581,"trial":21,"RT":606,"MT":900,"sideResp":1,"stimulus":"img/250/equaldotanddens/L/14_Ratio_250_L_12_R_3.png","xmouse":[806,808,810,811,812,812,812,812,812,812,812,812,812,812,812,812,812,812,812,812,812,812,812,812,812,812,812,812,812,812,799,780,765,748,736,724,720,715,708,700,688,683,679,676,673,661,655,644,632,610,564,542,535,532,532,532,532,532,532,534,540,545,552,557,558,558,554,552,550,548,539,535,530,526,520,511],"ymouse":[606,604,600,599,597,596,596,596,596,596,596,596,596,596,596,596,596,596,596,596,596,596,596,596,596,596,596,596,595,589,561,528,505,485,470,447,436,422,405,389,370,363,356,348,339,312,296,279,263,242,213,200,194,192,191,186,183,182,180,175,164,155,146,137,131,127,122,120,119,118,114,112,110,106,102,97],"timestamp_mouse":[9,35,46,66,85,107,127,147,167,185,207,227,247,267,286,307,327,346,366,385,407,427,446,466,486,507,526,546,565,586,606,626,646,665,686,706,727,746,767,787,806,827,845,867,887,906,925,945,966,986,1005,1026,1046,1066,1086,1105,1126,1146,1166,1187,1206,1227,1246,1266,1287,1306,1325,1346,1367,1387,1406,1427,1446,1465,1486,1506],"xSR":741.5,"ySR":573.95,"xT1":424.9,"yT1":0,"xT2":1058.1,"yT2":0,"toosoon":0,"cond_shown":"equaldotanddens","ratio_trial":250,"smaller_num":"3","larger_num":"12","correct_side":1,"subjID":"andresfelipemesaperez2","gender":"0","age":"10","school":"6"},{"start_time":1551901202706,"click_time":1551901203553,"finger_time":1551901203173,"fix_duration":250,"trial":22,"RT":467,"MT":380,"sideResp":2,"stimulus":"img/250/randomdotsizeEA/R/13_Ratio_250_L_2_R_8.png","xmouse":[765,765,765,765,765,765,765,765,765,765,765,765,765,765,765,765,765,765,765,765,765,765,765,790,790,784,775,768,763,763,765,772,793,844,881,920,955,983,1032,1046,1056,1058,1062],"ymouse":[603,603,603,603,603,603,603,603,603,603,603,603,603,603,603,603,603,603,603,603,603,603,599,455,372,299,256,223,178,160,146,135,116,87,73,60,55,48,39,35,31,29,24],"timestamp_mouse":[10,31,47,68,86,108,127,148,167,187,208,227,248,266,287,308,327,348,368,388,408,427,447,467,487,507,528,547,567,588,607,628,648,667,688,707,727,746,766,787,807,827,847],"xSR":741.5,"ySR":573.95,"xT1":424.9,"yT1":0,"xT2":1058.1,"yT2":0,"toosoon":0,"cond_shown":"randomdotsizeEA","ratio_trial":250,"smaller_num":"2","larger_num":"8","correct_side":2,"subjID":"andresfelipemesaperez2","gender":"0","age":"10","school":"6"},{"start_time":1551901205026,"click_time":1551901206214,"finger_time":1551901205454,"fix_duration":250,"trial":23,"RT":428,"MT":760,"sideResp":2,"stimulus":"img/900/randomdotsizeEA/R/13_Ratio_900_L_18_R_20.png","xmouse":[817,817,817,817,817,817,817,817,817,817,817,817,817,817,817,817,817,817,817,819,827,837,872,892,915,946,956,963,967,967,967,967,968,969,973,976,981,989,998,1005,1010,1011,1023,1032,1039,1043,1043,1043,1043,1044,1045,1046,1048,1049,1049,1049,1049,1049,1054,1081],"ymouse":[622,622,622,622,622,622,622,622,622,622,622,622,622,622,622,622,622,622,622,615,588,561,498,461,416,349,312,239,207,185,164,145,118,108,99,95,88,76,69,64,59,58,51,46,41,39,39,38,38,38,37,35,32,31,30,30,30,30,30,27],"timestamp_mouse":[8,27,47,67,87,108,127,146,168,188,208,228,246,268,288,307,326,348,368,387,406,428,447,467,486,507,528,547,568,587,608,627,647,668,686,708,728,747,767,787,806,827,847,866,888,906,927,948,967,987,1007,1028,1047,1067,1087,1107,1127,1148,1167,1188],"xSR":741.5,"ySR":573.95,"xT1":424.9,"yT1":0,"xT2":1058.1,"yT2":0,"toosoon":0,"cond_shown":"randomdotsizeEA","ratio_trial":900,"smaller_num":"18","larger_num":"20","correct_side":2,"subjID":"andresfelipemesaperez2","gender":"0","age":"10","school":"6"},{"start_time":1551901209125,"click_time":1551901210974,"finger_time":1551901209473,"fix_duration":370.29899015871524,"trial":24,"RT":348,"MT":1501,"sideResp":2,"stimulus":"img/750/equaldotsize/L/14_Ratio_750_L_8_R_6.png","xmouse":[770,770,770,770,770,770,770,770,770,770,770,770,770,770,770,770,781,825,847,870,899,937,1032,1054,1057,1057,1051,1036,1026,1019,1015,1013,1014,1015,1016,1017,1017,1017,1017,1017,1017,1017,1017,1017,1017,1017,1017,1017,1017,1017,1017,1017,1017,1017,1017,1017,1017,1017,1017,1017,1017,1017,1017,1017,1017,1017,1017,1017,1017,1017,1017,1017,1017,1017,1017,1017,1017,1017,1017,1017,1017,1017,1017,1017,1017,1017,1017,1017,1017,1017,1017,1017,1107],"ymouse":[589,589,589,589,589,589,589,589,589,589,589,589,589,589,589,589,577,499,460,427,396,364,241,203,177,159,143,121,113,105,100,95,87,85,83,80,79,79,79,79,79,79,79,79,79,79,79,79,79,79,79,79,79,79,79,79,79,79,79,79,79,79,79,79,79,79,79,79,79,79,79,79,79,79,79,79,79,79,79,79,79,79,79,79,79,79,79,79,79,79,79,79,79],"timestamp_mouse":[8,36,47,68,87,109,129,147,169,188,209,227,249,268,288,308,327,348,367,388,409,429,447,469,487,509,529,548,568,588,609,629,648,667,689,709,728,748,767,789,809,829,847,868,889,908,927,948,968,987,1009,1028,1048,1067,1088,1108,1128,1148,1169,1188,1207,1229,1248,1268,1289,1308,1328,1348,1368,1388,1407,1429,1447,1469,1489,1508,1527,1549,1568,1589,1609,1627,1648,1669,1688,1708,1728,1749,1769,1788,1808,1829,1849],"xSR":741.5,"ySR":573.95,"xT1":424.9,"yT1":0,"xT2":1058.1,"yT2":0,"toosoon":0,"cond_shown":"equaldotsize","ratio_trial":750,"smaller_num":"6","larger_num":"8","correct_side":1,"subjID":"andresfelipemesaperez2","gender":"0","age":"10","school":"6"},{"start_time":1551901213320,"click_time":1551901214573,"finger_time":1551901213654,"fix_duration":965.8339120921197,"trial":25,"RT":334,"MT":919,"sideResp":1,"stimulus":"img/750/equaldotsize/L/10_Ratio_750_L_4_R_3.png","xmouse":[760,760,760,760,760,760,760,760,760,760,760,760,760,760,761,763,766,766,766,766,772,792,902,918,929,936,937,936,931,919,904,889,856,839,816,789,752,690,663,647,628,590,532,504,487,479,476,476,476,476,476,476,476,476,476,476,476,477,477,477,477,477,480],"ymouse":[627,627,627,627,627,627,627,627,627,627,627,627,627,627,622,609,567,484,442,399,380,337,216,196,179,166,156,151,149,147,147,147,147,147,144,144,142,132,127,124,123,116,113,110,110,110,110,110,110,110,110,110,110,110,110,109,106,106,106,106,105,103,96],"timestamp_mouse":[14,33,54,74,93,113,134,153,173,194,214,234,254,273,292,314,334,353,373,393,413,434,453,473,493,513,533,553,574,593,612,633,653,674,693,714,733,753,774,792,814,833,853,872,894,913,933,953,974,994,1016,1033,1055,1073,1094,1115,1134,1153,1174,1194,1215,1233,1253],"xSR":741.5,"ySR":573.95,"xT1":424.9,"yT1":0,"xT2":1058.1,"yT2":0,"toosoon":0,"cond_shown":"equaldotsize","ratio_trial":750,"smaller_num":"3","larger_num":"4","correct_side":1,"subjID":"andresfelipemesaperez2","gender":"0","age":"10","school":"6"},{"start_time":1551901235168,"click_time":1551901235935,"finger_time":1551901235534,"fix_duration":432.04107672613355,"trial":26,"RT":366,"MT":401,"sideResp":2,"stimulus":"img/900/randomdotsizeEA/L/2_Ratio_900_L_20_R_18.png","xmouse":[767,767,767,767,767,767,767,767,767,767,767,767,767,767,767,767,767,770,777,784,825,841,865,886,906,929,951,969,1001,1048,1150,1171,1185,1189,1191,1186,1166,1158,1153],"ymouse":[613,613,613,613,613,613,613,613,613,613,613,613,613,613,613,613,613,595,570,557,504,483,445,401,349,258,198,148,96,41,0,0,0,0,0,0,0,0,2],"timestamp_mouse":[10,37,47,66,86,105,125,145,165,185,205,227,246,265,285,306,326,346,366,386,405,426,445,466,487,505,526,545,566,586,605,625,645,666,685,705,725,746,767],"xSR":741.5,"ySR":573.95,"xT1":424.9,"yT1":0,"xT2":1058.1,"yT2":0,"toosoon":0,"cond_shown":"randomdotsizeEA","ratio_trial":900,"smaller_num":"18","larger_num":"20","correct_side":1,"subjID":"andresfelipemesaperez2","gender":"0","age":"10","school":"6"},{"start_time":1551901238112,"click_time":1551901238574,"finger_time":1551901238455,"fix_duration":736.7331801231599,"trial":27,"RT":343,"MT":119,"sideResp":1,"stimulus":"img/250/equaldotanddens/R/11_Ratio_250_L_3_R_12.png","xmouse":[813,813,813,813,813,813,813,813,813,813,813,813,813,813,812,799,773,733,629,581,551,534,514,487],"ymouse":[622,622,622,622,622,622,622,622,622,622,622,622,622,622,621,608,576,521,364,279,203,155,103,42],"timestamp_mouse":[8,31,42,61,82,101,121,143,161,181,203,221,243,261,282,301,322,343,362,381,401,422,442,462],"xSR":741.5,"ySR":573.95,"xT1":424.9,"yT1":0,"xT2":1058.1,"yT2":0,"toosoon":0,"cond_shown":"equaldotanddens","ratio_trial":250,"smaller_num":"3","larger_num":"12","correct_side":2,"subjID":"andresfelipemesaperez2","gender":"0","age":"10","school":"6"},{"start_time":1551901243380,"click_time":1551901243873,"finger_time":1551901243614,"fix_duration":285.8100319438268,"trial":28,"RT":234,"MT":259,"sideResp":2,"stimulus":"img/500/equaldotsize/L/7_Ratio_500_L_10_R_5.png","xmouse":[773,773,773,773,774,780,782,784,785,787,789,794,800,806,829,845,861,879,901,955,978,1000,1025,1046,1087],"ymouse":[613,613,613,613,610,598,593,591,588,581,577,571,563,555,517,497,477,448,411,308,263,227,182,139,54],"timestamp_mouse":[13,42,53,74,93,114,134,155,173,193,214,233,254,273,293,313,334,354,374,393,413,435,454,475,493],"xSR":741.5,"ySR":573.95,"xT1":424.9,"yT1":0,"xT2":1058.1,"yT2":0,"toosoon":0,"cond_shown":"equaldotsize","ratio_trial":500,"smaller_num":"5","larger_num":"10","correct_side":1,"subjID":"andresfelipemesaperez2","gender":"0","age":"10","school":"6"},{"start_time":1551901245761,"click_time":1551901246434,"finger_time":1551901246373,"fix_duration":627.5427825470786,"trial":29,"RT":612,"MT":61,"sideResp":1,"stimulus":"img/250/equaldotanddens/L/14_Ratio_250_L_12_R_3.png","xmouse":[816,816,816,816,816,816,816,816,816,816,816,816,816,816,816,816,816,816,816,816,816,816,816,816,816,816,816,815,812,778,680,611,543,471],"ymouse":[650,650,650,650,650,650,650,650,650,650,650,650,650,650,650,650,650,650,650,650,650,650,650,650,650,650,650,649,643,597,447,327,188,64],"timestamp_mouse":[14,42,53,73,93,112,134,152,174,192,214,232,254,273,292,312,333,352,372,394,412,433,452,474,494,512,532,552,573,593,612,633,652,672],"xSR":741.5,"ySR":573.95,"xT1":424.9,"yT1":0,"xT2":1058.1,"yT2":0,"toosoon":0,"cond_shown":"equaldotanddens","ratio_trial":250,"smaller_num":"3","larger_num":"12","correct_side":1,"subjID":"andresfelipemesaperez2","gender":"0","age":"10","school":"6"},{"start_time":1551901249090,"click_time":1551901253034,"finger_time":1551901249654,"fix_duration":1233.9051132684217,"trial":30,"RT":564,"MT":3380,"sideResp":2,"stimulus":"img/500/equaldotanddens/R/1_Ratio_500_L_9_R_18.png","xmouse":[800,800,800,800,800,800,800,800,800,800,800,800,800,800,800,800,800,800,800,800,800,800,800,800,800,800,800,806,847,1110,1286,1454,1528,1574,1574,1574,1579,1551,1498,1365,1330,1306,1296,1290,1287,1287,1287,1287,1287,1287,1287,1287,1287,1287,1286,1276,1257,1239,1220,1197,1193,1192,1191,1190,1185,1181,1177,1173,1170,1167,1166,1165,1164,1161,1160,1160,1160,1160,1160,1160,1160,1160,1160,1160,1160,1160,1160,1160,1160,1160,1160,1160,1160,1160,1160,1160,1160,1160,1160,1160,1160,1160,1160,1160,1160,1160,1160,1160,1160,1160,1160,1160,1160,1160,1160,1160,1160,1160,1160,1160,1160,1160,1160,1160,1160,1160,1160,1160,1160,1160,1160,1160,1160,1160,1160,1160,1160,1160,1160,1160,1160,1160,1160,1160,1160,1160,1160,1160,1160,1160,1160,1160,1160,1160,1160,1160,1160,1160,1160,1160,1160,1160,1160,1160,1160,1160,1160,1160,1160,1160,1160,1160,1160,1160,1160,1160,1160,1160,1160,1160,1160,1160,1160,1160,1160,1160,1160,1160,1160,1160,1160,1160,1160,1160,1160,1160,1159,1157],"ymouse":[598,598,598,598,598,598,598,598,598,598,598,598,598,598,598,598,598,598,598,598,598,598,598,598,598,598,596,584,524,261,79,0,0,0,0,0,0,0,0,0,0,0,0,0,6,9,10,11,11,11,11,11,11,11,13,17,23,29,34,43,45,47,47,47,48,49,49,49,49,49,50,50,51,53,54,54,54,54,54,54,54,54,54,54,54,54,54,54,54,54,54,54,54,54,54,54,54,54,54,54,54,54,54,54,54,54,54,54,54,54,54,54,54,54,54,54,54,54,54,54,54,54,54,54,54,54,54,54,54,54,54,54,54,54,54,54,54,54,54,54,54,54,54,54,54,54,54,54,54,54,54,54,54,54,54,54,54,54,54,54,54,54,54,54,54,54,54,54,54,54,54,54,54,54,54,54,54,54,54,54,54,54,54,54,54,54,54,54,54,54,54,54,54,54,54,54,54,54],"timestamp_mouse":[8,33,44,65,83,105,124,145,163,183,203,224,244,263,285,303,324,344,363,383,403,425,444,463,485,503,523,545,564,583,604,625,644,663,685,703,724,745,764,784,803,823,843,863,883,903,924,943,964,984,1004,1023,1045,1064,1084,1103,1124,1144,1164,1184,1203,1223,1244,1263,1284,1304,1323,1343,1364,1384,1403,1424,1444,1464,1485,1503,1524,1545,1564,1584,1603,1623,1643,1664,1684,1703,1723,1744,1763,1783,1803,1825,1844,1864,1884,1904,1924,1943,1964,1983,2003,2023,2044,2065,2084,2104,2123,2144,2164,2183,2203,2224,2244,2263,2284,2305,2325,2344,2363,2384,2404,2423,2444,2465,2484,2504,2523,2545,2563,2585,2603,2623,2644,2665,2685,2704,2725,2743,2764,2785,2804,2823,2843,2864,2884,2904,2923,2943,2965,2985,3004,3025,3045,3064,3084,3104,3124,3143,3164,3185,3203,3223,3244,3263,3285,3304,3323,3344,3364,3385,3403,3424,3443,3464,3484,3504,3524,3543,3564,3583,3603,3624,3645,3663,3684,3703,3724,3744,3763,3785,3804,3823,3844,3865,3884,3903,3923,3943],"xSR":741.5,"ySR":573.95,"xT1":424.9,"yT1":0,"xT2":1058.1,"yT2":0,"toosoon":0,"cond_shown":"equaldotanddens","ratio_trial":500,"smaller_num":"9","larger_num":"18","correct_side":2,"subjID":"andresfelipemesaperez2","gender":"0","age":"10","school":"6"},{"start_time":1551901256972,"click_time":1551901266953,"finger_time":1551901257793,"fix_duration":897.8120913100003,"trial":31,"RT":821,"MT":9160,"sideResp":2,"stimulus":"img/750/equaldotanddens/R/3_Ratio_750_L_15_R_20.png","xmouse":[802,802,802,802,802,802,802,802,802,802,802,802,802,802,802,802,802,802,802,802,802,802,802,802,802,802,802,802,802,802,802,802,802,802,802,802,802,802,803,805,840,871,915,948,973,1003,1012,1019,1025,1034,1051,1065,1080,1098,1108,1137,1147,1156,1164,1172,1201,1216,1230,1249,1265,1282,1286,1288,1288,1288,1278,1272,1266,1261,1255,1237,1232,1225,1219,1213,1205,1202,1200,1200,1200,1199,1197,1195,1193,1191,1186,1185,1184,1182,1179,1173,1171,1171,1171,1171,1171,1171,1171,1171,1171,1171,1171,1171,1171,1171,1171,1171,1171,1171,1171,1171,1171,1171,1171,1171,1171,1171,1171,1171,1171,1171,1171,1171,1171,1171,1171,1171,1171,1171,1171,1171,1171,1171,1171,1171,1170,1169,1167,1166,1164,1164,1164,1164,1164,1164,1164,1164,1164,1164,1164,1164,1164,1164,1164,1164,1164,1164,1164,1164,1164,1164,1164,1164,1164,1164,1164,1164,1164,1163,1163,1162,1162,1162,1162,1162,1162,1162,1162,1162,1162,1162,1162,1162,1162,1162,1162,1162,1162,1162,1161,1161,1161,1161,1161,1161,1161,1161,1161,1161,1161,1161,1161,1161,1161,1161,1161,1161,1161,1161,1161,1161,1161,1161,1161,1161,1161,1161,1161,1161,1161,1161,1161,1161,1161,1161,1161,1161,1161,1161,1161,1161,1161,1161,1161,1161,1161,1161,1161,1161,1161,1161,1161,1161,1161,1161,1161,1161,1161,1161,1161,1161,1161,1161,1161,1161,1161,1161,1161,1161,1161,1161,1161,1161,1161,1161,1161,1161,1161,1161,1161,1161,1161,1161,1161,1161,1161,1161,1161,1161,1161,1161,1161,1161,1161,1161,1161,1161,1161,1161,1161,1161,1161,1161,1161,1161,1161,1161,1161,1161,1161,1161,1161,1161,1161,1161,1161,1161,1161,1161,1161,1161,1161,1161,1161,1161,1161,1161,1161,1161,1161,1161,1161,1161,1161,1161,1161,1161,1161,1161,1161,1161,1161,1161,1161,1161,1161,1161,1161,1161,1161,1161,1161,1161,1161,1161,1161,1161,1161,1161,1161,1161,1161,1161,1161,1161,1161,1161,1161,1161,1161,1161,1161,1161,1161,1161,1161,1161,1161,1161,1161,1161,1161,1161,1161,1161,1161,1161,1161,1161,1161,1161,1161,1161,1161,1161,1161,1161,1161,1161,1161,1161,1161,1161,1161,1161,1161,1161,1161,1161,1161,1161,1161,1161,1161,1161,1161,1161,1161,1161,1161,1161,1161,1161,1161,1161,1161,1161,1161,1161,1161,1161,1161,1161,1161,1161,1161,1161,1161,1161,1161,1161,1161,1161,1161,1161,1161,1161,1161,1161,1161,1161,1161,1161,1161,1161,1161,1161,1161,1161,1161,1161,1161,1161,1161,1161,1161,1161,1161,1161,1161,1161,1161,1161,1161,1161,1161,1161,1161,1161,1161,1161,1161,1161,1161,1161,1161,1161,1161,1161,1161,1161,1161,1161,1161,1161,1161,1161,1161,1161,1161,1161,1161,1161,1159,1156],"ymouse":[630,630,630,630,630,630,630,630,630,630,630,630,630,630,630,630,630,630,630,630,630,630,630,630,630,630,630,630,630,630,630,630,630,630,630,630,630,630,629,627,606,591,572,558,548,533,523,511,494,471,437,421,402,382,367,330,307,288,272,255,213,195,178,162,148,125,117,110,103,98,84,81,78,78,77,77,77,77,78,79,80,80,80,80,80,80,81,81,82,83,83,83,83,83,83,83,83,83,83,83,83,83,83,83,83,83,83,83,83,83,83,83,83,83,83,83,83,83,83,83,83,83,83,83,83,83,83,83,83,83,83,83,83,83,83,83,83,83,83,83,83,81,79,78,78,78,78,78,78,78,78,78,78,78,78,78,78,78,78,78,78,78,78,78,78,78,78,78,78,78,78,78,78,78,78,78,78,78,78,78,78,77,77,77,77,77,77,77,77,77,77,77,77,77,77,77,77,77,77,77,77,77,77,77,77,77,77,77,77,77,77,77,77,77,77,77,77,77,77,77,77,77,77,77,77,77,77,77,77,77,77,77,77,77,77,77,77,77,77,77,77,77,77,77,77,77,77,77,77,77,77,77,77,77,77,77,77,77,77,77,77,77,77,77,77,77,77,77,77,77,77,77,77,77,77,77,77,77,77,77,77,77,77,77,77,77,77,77,77,77,77,77,77,77,77,77,77,77,77,77,77,77,77,77,77,77,77,77,77,77,77,77,77,77,77,77,77,77,77,77,77,77,77,77,77,77,77,77,77,77,77,77,77,77,77,77,77,77,77,77,77,77,77,77,77,77,77,77,77,77,77,77,77,77,77,77,77,77,77,77,77,77,77,77,77,77,77,77,77,77,77,77,77,77,77,77,77,77,77,77,77,77,77,77,77,77,77,77,77,77,77,77,77,77,77,77,77,77,77,77,77,77,77,77,77,77,77,77,77,77,77,77,77,77,77,77,77,77,77,77,77,77,77,77,77,77,77,77,77,77,77,77,77,77,77,77,77,77,77,77,77,77,77,77,77,77,77,77,77,77,77,77,77,77,77,77,77,77,77,77,77,77,77,77,77,77,77,77,77,77,77,77,77,77,77,77,77,77,77,77,77,77,77,77,77,77,77,77,77,77,77,77,77,77,77,77,77,76,76,76],"timestamp_mouse":[10,33,43,61,83,101,121,141,161,182,201,221,241,262,282,301,322,343,361,381,402,422,441,461,483,502,523,541,562,581,601,623,641,662,681,701,721,741,763,781,801,821,842,862,883,901,921,941,963,981,1001,1022,1042,1062,1082,1101,1121,1141,1162,1182,1201,1223,1242,1261,1282,1302,1323,1341,1362,1382,1402,1421,1443,1462,1481,1501,1522,1542,1562,1581,1601,1623,1643,1661,1682,1701,1723,1742,1763,1782,1801,1822,1841,1862,1883,1902,1922,1941,1961,1983,2001,2022,2042,2063,2081,2102,2122,2142,2161,2183,2202,2221,2241,2263,2281,2302,2322,2342,2363,2383,2401,2421,2441,2462,2483,2501,2523,2542,2562,2581,2602,2622,2641,2662,2681,2702,2722,2742,2761,2782,2801,2821,2842,2862,2881,2901,2922,2943,2962,2982,3002,3022,3041,3061,3081,3102,3121,3141,3162,3183,3202,3223,3241,3262,3281,3302,3322,3341,3361,3383,3402,3421,3441,3462,3482,3502,3522,3541,3562,3583,3601,3621,3641,3662,3681,3702,3722,3742,3762,3781,3802,3822,3843,3862,3882,3901,3921,3942,3963,3982,4002,4021,4042,4061,4082,4102,4121,4142,4162,4183,4202,4221,4242,4263,4283,4301,4322,4341,4362,4382,4401,4422,4443,4462,4482,4503,4523,4541,4562,4583,4602,4622,4642,4662,4683,4703,4722,4741,4762,4782,4801,4821,4842,4863,4881,4902,4921,4941,4962,4981,5002,5022,5043,5061,5081,5102,5122,5142,5161,5181,5203,5222,5241,5262,5282,5301,5322,5341,5363,5383,5402,5422,5443,5461,5483,5501,5521,5541,5562,5581,5601,5622,5641,5661,5682,5702,5721,5741,5763,5782,5801,5823,5841,5862,5882,5902,5921,5941,5962,5983,6001,6022,6042,6062,6083,6102,6123,6141,6161,6181,6202,6223,6242,6262,6281,6303,6321,6342,6361,6383,6401,6423,6442,6462,6483,6502,6521,6541,6563,6581,6602,6622,6641,6662,6681,6702,6722,6741,6761,6783,6801,6821,6842,6861,6882,6902,6923,6941,6963,6981,7003,7022,7041,7062,7081,7102,7121,7143,7161,7182,7201,7222,7243,7263,7281,7302,7322,7341,7363,7381,7402,7423,7442,7462,7482,7502,7522,7543,7561,7581,7602,7622,7643,7663,7681,7702,7723,7741,7761,7782,7801,7821,7842,7863,7883,7902,7921,7942,7963,7981,8002,8021,8042,8062,8081,8102,8121,8141,8162,8181,8202,8221,8241,8261,8282,8302,8322,8341,8362,8381,8402,8422,8441,8461,8481,8502,8522,8542,8562,8581,8601,8621,8642,8663,8682,8701,8722,8742,8763,8781,8803,8822,8841,8861,8882,8902,8923,8941,8962,8983,9002,9021,9042,9062,9081,9103,9121,9142,9162,9183,9202,9221,9241,9262,9282,9302,9322,9341,9362,9383,9402,9421,9441,9463,9481,9502,9523,9542,9562,9581,9601,9622,9641,9662,9683,9701,9722,9742,9763,9781,9801,9822,9842,9863,9882,9901,9921,9943,9961,9981],"xSR":741.5,"ySR":573.95,"xT1":424.9,"yT1":0,"xT2":1058.1,"yT2":0,"toosoon":0,"cond_shown":"equaldotanddens","ratio_trial":750,"smaller_num":"15","larger_num":"20","correct_side":2,"subjID":"andresfelipemesaperez2","gender":"0","age":"10","school":"6"},{"start_time":1551901270742,"click_time":1551901271474,"finger_time":1551901271134,"fix_duration":606.1338499668058,"trial":32,"RT":392,"MT":340,"sideResp":2,"stimulus":"img/500/randomdotsizeEA/R/1_Ratio_500_L_9_R_18.png","xmouse":[778,778,778,778,778,778,778,778,778,778,778,778,778,778,778,778,780,791,806,829,858,959,995,1026,1052,1070,1089,1090,1090,1090,1090,1090,1090,1090,1090,1090,1084],"ymouse":[633,633,633,633,633,633,633,633,633,633,633,633,633,633,633,633,631,616,593,559,512,370,314,266,219,192,154,143,136,131,129,126,124,122,114,107,94],"timestamp_mouse":[12,33,53,71,92,113,131,153,172,192,213,231,253,272,291,311,332,351,373,392,412,431,451,473,492,512,531,552,571,592,611,631,652,672,691,713,732],"xSR":741.5,"ySR":573.95,"xT1":424.9,"yT1":0,"xT2":1058.1,"yT2":0,"toosoon":0,"cond_shown":"randomdotsizeEA","ratio_trial":500,"smaller_num":"9","larger_num":"18","correct_side":2,"subjID":"andresfelipemesaperez2","gender":"0","age":"10","school":"6"},{"start_time":1551901273569,"click_time":1551901274295,"finger_time":1551901273581,"fix_duration":1114.8207038950875,"trial":33,"RT":12,"MT":714,"sideResp":2,"stimulus":"img/250/equaldotanddens/L/1_Ratio_250_L_8_R_2.png","xmouse":[784,786,786,787,788,788,789,791,792,793,801,810,819,829,843,873,894,913,938,963,991,994,994,995,995,996,996,996,996,996,996,996,997,1003,1015,1053,1072],"ymouse":[572,570,568,567,566,565,564,563,561,557,535,514,484,451,415,329,283,236,187,134,77,70,63,56,49,42,42,42,42,42,42,42,41,38,32,26,25],"timestamp_mouse":[12,35,44,64,86,104,124,144,166,184,205,224,245,265,285,305,326,345,364,385,404,424,444,464,485,505,536,545,565,585,605,625,645,664,685,704,726],"xSR":741.5,"ySR":573.95,"xT1":424.9,"yT1":0,"xT2":1058.1,"yT2":0,"toosoon":0,"cond_shown":"equaldotanddens","ratio_trial":250,"smaller_num":"2","larger_num":"8","correct_side":1,"subjID":"andresfelipemesaperez2","gender":"0","age":"10","school":"6"},{"start_time":1551901276624,"click_time":1551901278393,"finger_time":1551901277954,"fix_duration":1089.8439980991056,"trial":34,"RT":1330,"MT":439,"sideResp":1,"stimulus":"img/900/equaldotsize/L/1_Ratio_900_L_10_R_9.png","xmouse":[820,820,820,820,820,820,820,820,820,820,820,820,820,820,820,820,820,820,820,820,820,820,820,820,820,820,820,820,820,820,820,820,820,820,820,820,820,820,820,820,820,820,820,820,820,820,820,820,820,820,820,820,820,820,820,820,820,820,820,820,820,820,820,820,819,816,797,759,739,708,685,660,630,616,606,597,588,573,571,567,561,554,534,523,516,509,505,481,475],"ymouse":[616,616,616,616,616,616,616,616,616,616,616,616,616,616,616,616,616,616,616,616,616,616,616,616,616,616,616,616,616,616,616,616,616,616,616,616,616,616,616,616,616,616,616,616,616,615,611,607,606,605,605,605,605,605,605,605,605,605,605,605,605,605,605,605,602,597,568,510,479,436,391,342,265,234,211,194,177,164,163,160,154,148,133,129,124,122,120,105,99],"timestamp_mouse":[9,44,50,69,89,109,130,149,171,189,209,229,249,269,289,309,330,349,370,390,410,429,449,470,489,511,530,551,569,589,609,631,649,669,690,709,729,749,771,789,809,830,850,869,890,909,930,949,969,989,1010,1029,1049,1069,1089,1110,1129,1149,1170,1189,1209,1230,1249,1270,1289,1309,1330,1349,1369,1389,1409,1431,1449,1470,1489,1509,1530,1549,1570,1589,1609,1630,1649,1670,1689,1709,1730,1749,1769],"xSR":741.5,"ySR":573.95,"xT1":424.9,"yT1":0,"xT2":1058.1,"yT2":0,"toosoon":0,"cond_shown":"equaldotsize","ratio_trial":900,"smaller_num":"9","larger_num":"10","correct_side":1,"subjID":"andresfelipemesaperez2","gender":"0","age":"10","school":"6"},{"start_time":1551901283957,"click_time":1551901285473,"finger_time":1551901284673,"fix_duration":942.4784737204952,"trial":35,"RT":716,"MT":800,"sideResp":2,"stimulus":"img/250/randomdotsizeEA/R/12_Ratio_250_L_5_R_20.png","xmouse":[790,790,790,790,790,790,790,790,790,790,790,790,790,790,790,790,790,790,790,790,790,790,790,790,790,790,790,790,790,790,790,790,790,790,789,781,771,754,728,696,587,550,530,525,524,524,524,524,524,524,553,602,643,688,730,824,867,901,931,956,991,995,996,999,1003,1014,1020,1027,1036,1043,1048,1048,1049,1052,1057,1063],"ymouse":[607,607,607,607,607,607,607,607,607,607,607,607,607,607,607,607,607,607,607,607,607,607,607,607,607,607,607,607,607,607,607,607,607,607,597,567,545,513,468,423,289,240,214,206,206,206,206,206,206,205,192,173,164,158,157,153,153,150,145,138,124,121,118,115,110,101,96,94,92,90,89,89,89,88,88,87],"timestamp_mouse":[16,36,57,76,96,117,136,156,178,197,216,237,257,276,296,316,336,356,376,396,416,437,458,476,498,517,536,557,576,596,616,637,656,676,697,716,737,756,776,797,817,836,856,876,896,917,936,956,976,997,1017,1038,1056,1077,1097,1116,1136,1156,1178,1196,1216,1237,1258,1277,1297,1316,1338,1356,1376,1397,1417,1436,1457,1476,1497,1516],"xSR":741.5,"ySR":573.95,"xT1":424.9,"yT1":0,"xT2":1058.1,"yT2":0,"toosoon":0,"cond_shown":"randomdotsizeEA","ratio_trial":250,"smaller_num":"5","larger_num":"20","correct_side":2,"subjID":"andresfelipemesaperez2","gender":"0","age":"10","school":"6"},{"start_time":1551901288035,"click_time":1551901289254,"finger_time":1551901288793,"fix_duration":1378.172626200813,"trial":36,"RT":758,"MT":461,"sideResp":1,"stimulus":"img/750/equaldotsize/L/9_Ratio_750_L_4_R_3.png","xmouse":[752,752,752,752,752,752,752,752,752,752,752,752,752,752,752,752,752,752,752,752,752,752,752,752,752,752,752,752,752,752,752,752,752,752,752,752,752,748,740,730,716,701,657,623,583,566,537,508,499,493,493,492,495,497,498,498,498,500,500,500,499,493],"ymouse":[607,607,607,607,607,607,607,607,607,607,607,607,607,607,607,607,607,607,607,607,607,607,607,607,607,607,607,607,607,607,607,607,607,607,607,605,601,584,566,541,510,480,417,383,347,336,319,306,299,297,296,293,269,253,238,218,197,153,136,123,109,95],"timestamp_mouse":[1,19,39,59,78,98,119,140,159,178,199,218,239,258,279,299,319,339,358,380,398,418,440,459,480,498,519,539,559,578,599,618,639,658,680,698,719,738,758,778,798,819,838,859,878,899,919,938,958,979,998,1019,1038,1059,1079,1098,1119,1138,1159,1178,1199,1219],"xSR":741.5,"ySR":573.95,"xT1":424.9,"yT1":0,"xT2":1058.1,"yT2":0,"toosoon":0,"cond_shown":"equaldotsize","ratio_trial":750,"smaller_num":"3","larger_num":"4","correct_side":1,"subjID":"andresfelipemesaperez2","gender":"0","age":"10","school":"6"},{"start_time":1551901296568,"click_time":1551901298655,"finger_time":1551901297295,"fix_duration":453.1854139607676,"trial":37,"RT":727,"MT":1360,"sideResp":2,"stimulus":"img/500/equaldotsize/R/2_Ratio_500_L_3_R_6.png","xmouse":[819,819,819,819,819,819,819,819,819,819,819,819,819,819,819,819,819,819,819,819,819,819,819,819,819,819,819,819,819,819,819,819,819,819,821,831,842,859,876,900,942,980,1000,1010,1014,1014,1014,1014,1014,1015,1027,1035,1045,1056,1066,1081,1088,1095,1097,1100,1101,1101,1101,1101,1101,1101,1101,1101,1101,1101,1101,1101,1101,1101,1101,1101,1101,1101,1101,1101,1101,1101,1101,1101,1101,1101,1101,1101,1101,1101,1101,1101,1101,1101,1101,1101,1101,1101,1101,1101,1101,1101,1101,1101,1101],"ymouse":[637,637,637,637,637,637,637,637,637,637,637,637,637,637,637,637,637,637,637,637,637,637,637,637,637,637,637,637,637,637,637,637,637,637,632,617,602,574,547,502,402,275,190,103,48,0,0,0,0,0,0,0,0,0,0,0,0,0,0,0,0,0,0,0,0,0,0,0,0,0,0,0,0,0,0,0,0,0,0,0,0,0,0,0,0,0,0,0,0,0,0,0,0,0,0,0,0,0,0,0,0,0,0,0,1],"timestamp_mouse":[8,33,45,66,87,106,126,147,166,186,205,226,245,267,286,305,326,346,367,385,405,427,446,466,485,505,525,547,565,587,606,625,645,667,685,706,727,745,765,786,806,827,845,865,886,905,925,945,966,986,1005,1025,1046,1066,1085,1105,1125,1145,1166,1186,1206,1225,1245,1266,1285,1307,1325,1345,1366,1386,1406,1426,1445,1466,1485,1506,1525,1546,1565,1585,1606,1626,1646,1666,1685,1706,1725,1745,1766,1786,1806,1825,1846,1865,1886,1906,1925,1946,1965,1986,2006,2026,2045,2066,2086],"xSR":741.5,"ySR":573.95,"xT1":424.9,"yT1":0,"xT2":1058.1,"yT2":0,"toosoon":0,"cond_shown":"equaldotsize","ratio_trial":500,"smaller_num":"3","larger_num":"6","correct_side":2,"subjID":"andresfelipemesaperez2","gender":"0","age":"10","school":"6"},{"start_time":1551901302887,"click_time":1551901304073,"finger_time":1551901303253,"fix_duration":1451.7692618407618,"trial":38,"RT":366,"MT":820,"sideResp":1,"stimulus":"img/750/randomdotsizeEA/L/8_Ratio_750_L_4_R_3.png","xmouse":[806,806,806,806,806,806,806,806,806,806,806,806,806,807,810,815,823,837,854,909,950,980,995,1000,1000,1000,999,999,996,989,983,978,975,973,973,973,973,973,973,973,971,964,951,926,891,877,866,859,855,846,839,830,816,795,727,690,653,614,571,506],"ymouse":[626,626,626,626,626,626,626,626,626,626,626,626,625,625,620,614,603,588,566,473,393,328,282,251,243,242,241,241,241,238,234,231,230,229,229,229,229,229,229,229,227,221,212,196,177,169,164,161,159,154,150,146,139,131,102,94,79,67,56,42],"timestamp_mouse":[10,36,46,66,86,107,128,147,167,187,206,227,246,266,286,307,327,346,366,386,407,426,447,467,487,506,526,546,567,586,607,626,647,666,687,706,726,746,768,787,806,826,847,866,886,907,926,947,966,987,1008,1026,1047,1067,1087,1106,1126,1147,1167,1186],"xSR":741.5,"ySR":573.95,"xT1":424.9,"yT1":0,"xT2":1058.1,"yT2":0,"toosoon":0,"cond_shown":"randomdotsizeEA","ratio_trial":750,"smaller_num":"3","larger_num":"4","correct_side":1,"subjID":"andresfelipemesaperez2","gender":"0","age":"10","school":"6"},{"start_time":1551901311349,"click_time":1551901312313,"finger_time":1551901311873,"fix_duration":1354.554778250601,"trial":39,"RT":524,"MT":440,"sideResp":2,"stimulus":"img/750/equaldotsize/R/2_Ratio_750_L_6_R_8.png","xmouse":[836,836,836,836,836,836,836,836,836,836,836,836,836,836,836,836,836,836,836,836,836,836,836,836,836,838,859,900,943,1026,1082,1144,1160,1177,1192,1208,1222,1223,1223,1223,1223,1223,1223,1223,1222,1215,1181,1164,1152],"ymouse":[593,593,593,593,593,593,593,593,593,593,593,593,593,593,593,593,593,593,593,593,593,593,593,593,593,592,575,550,517,437,376,275,237,199,166,134,103,100,99,98,98,98,98,98,98,95,89,88,88],"timestamp_mouse":[8,37,44,65,84,104,124,144,164,184,204,225,244,264,285,304,325,344,364,384,404,424,444,465,484,504,524,545,565,584,604,626,645,664,685,704,724,744,764,784,805,824,844,864,884,905,924,944,964],"xSR":741.5,"ySR":573.95,"xT1":424.9,"yT1":0,"xT2":1058.1,"yT2":0,"toosoon":0,"cond_shown":"equaldotsize","ratio_trial":750,"smaller_num":"6","larger_num":"8","correct_side":2,"subjID":"andresfelipemesaperez2","gender":"0","age":"10","school":"6"},{"start_time":1551901314934,"click_time":1551901315874,"finger_time":1551901315294,"fix_duration":1278.9187058880868,"trial":40,"RT":360,"MT":580,"sideResp":2,"stimulus":"img/900/randomdotsizeEA/L/4_Ratio_900_L_20_R_18.png","xmouse":[815,815,815,815,815,815,815,815,815,815,815,815,815,815,815,815,818,833,841,856,883,892,932,948,967,983,997,1015,1020,1023,1027,1029,1040,1046,1051,1052,1057,1059,1060,1063,1074,1084,1097,1098,1099,1100,1101,1105],"ymouse":[594,594,594,594,594,594,594,594,594,594,594,594,594,594,594,594,592,580,567,544,489,472,401,380,356,338,323,293,280,270,260,251,220,203,191,186,174,167,166,162,150,139,124,121,119,116,110,99],"timestamp_mouse":[1,19,39,61,79,99,119,139,159,179,201,220,239,260,279,300,320,339,360,380,400,419,439,460,479,500,520,540,560,579,599,619,640,660,679,699,720,739,759,779,799,819,839,860,879,900,920,939],"xSR":741.5,"ySR":573.95,"xT1":424.9,"yT1":0,"xT2":1058.1,"yT2":0,"toosoon":0,"cond_shown":"randomdotsizeEA","ratio_trial":900,"smaller_num":"18","larger_num":"20","correct_side":1,"subjID":"andresfelipemesaperez2","gender":"0","age":"10","school":"6"},{"start_time":1551901321348,"click_time":1551901322293,"finger_time":1551901322073,"fix_duration":711.3962033988205,"trial":41,"RT":725,"MT":220,"sideResp":2,"stimulus":"img/750/equaldotsize/R/15_Ratio_750_L_9_R_12.png","xmouse":[810,810,810,810,810,810,810,810,810,810,810,810,810,810,810,810,810,810,810,810,810,810,810,810,810,810,810,810,810,810,810,810,810,810,815,823,877,929,978,1023,1046,1074,1076,1078,1078,1077,1074,1074],"ymouse":[666,666,666,666,666,666,666,666,666,666,666,666,666,666,666,666,666,666,666,666,666,666,666,666,666,666,666,666,666,666,666,666,666,666,659,649,564,507,451,399,358,274,244,212,182,150,106,95],"timestamp_mouse":[20,36,46,65,85,106,127,146,165,186,207,227,246,265,285,306,325,345,365,385,405,425,446,465,485,505,525,546,565,586,605,626,646,665,686,707,725,746,765,786,806,825,845,865,886,907,926,945],"xSR":741.5,"ySR":573.95,"xT1":424.9,"yT1":0,"xT2":1058.1,"yT2":0,"toosoon":0,"cond_shown":"equaldotsize","ratio_trial":750,"smaller_num":"9","larger_num":"12","correct_side":2,"subjID":"andresfelipemesaperez2","gender":"0","age":"10","school":"6"},{"start_time":1551901327472,"click_time":1551901331373,"finger_time":1551901328034,"fix_duration":1457.9463256178215,"trial":42,"RT":562,"MT":3339,"sideResp":2,"stimulus":"img/750/randomdotsizeEA/R/12_Ratio_750_L_3_R_4.png","xmouse":[767,767,767,767,767,767,767,767,767,767,767,767,767,767,767,767,767,767,767,767,767,767,767,767,768,771,773,779,794,815,833,842,841,838,835,843,863,886,898,940,955,963,963,963,963,963,963,963,963,963,963,963,963,963,963,963,963,963,963,963,963,963,963,963,963,963,963,963,963,963,963,963,963,963,963,963,963,963,963,963,963,963,963,963,963,963,963,963,963,963,963,963,976,976,976,976,976,976,976,976,976,976,976,976,976,976,976,976,976,976,976,976,976,976,976,976,976,976,1579,1575,1565,1557,1546,1528,1504,1489,1479,1473,1473,1473,1473,1473,1473,1473,1473,1455,1427,1403,1371,1332,1278,1269,1266,1265,1265,1265,1265,1265,1265,1265,1265,1265,1264,1262,1258,1235,1230,1226,1222,1220,1211,1208,1205,1202,1200,1199,1199,1199,1199,1199,1198,1195,1193,1191,1188,1181,1178,1176,1176,1175,1174,1174,1174,1174,1173,1167,1164,1162,1162,1162,1162,1162,1162,1161,1160,1155],"ymouse":[595,595,595,595,595,595,595,595,595,595,595,595,595,595,595,595,595,595,595,595,595,595,595,595,595,594,593,586,559,505,452,355,313,285,250,154,104,52,27,0,0,0,0,0,0,0,0,0,0,0,0,0,0,0,0,0,0,0,0,0,0,0,0,0,0,0,0,0,0,0,0,0,0,0,0,0,0,0,0,0,0,0,0,0,0,0,0,0,0,0,0,0,0,0,0,0,0,0,0,0,0,0,0,0,0,0,0,0,0,0,0,0,0,0,0,0,0,0,6,6,5,5,7,7,7,8,9,10,10,10,10,10,10,10,10,10,15,19,24,29,36,38,39,40,40,40,40,40,40,40,40,40,40,40,40,54,58,61,63,64,70,72,74,77,77,77,77,77,77,77,77,77,77,77,77,77,77,77,77,77,77,77,77,77,77,77,77,77,77,77,77,77,77,77,77,78],"timestamp_mouse":[9,22,45,61,81,101,121,142,161,183,201,221,242,261,281,301,321,342,361,381,401,421,441,462,482,501,521,542,562,581,601,621,641,662,681,701,723,741,762,781,802,822,841,861,881,901,922,943,962,982,1002,1021,1041,1062,1082,1101,1121,1141,1161,1181,1202,1221,1242,1262,1281,1301,1321,1341,1362,1382,1402,1422,1441,1461,1481,1502,1521,1541,1561,1581,1602,1621,1641,1661,1682,1702,1722,1741,1761,1782,1802,1821,1842,1861,1882,1903,1923,1943,1962,1981,2010,2021,2041,2062,2081,2102,2121,2141,2162,2181,2202,2221,2242,2263,2281,2301,2321,2342,2361,2381,2402,2422,2442,2461,2481,2502,2522,2542,2561,2582,2602,2622,2642,2662,2681,2701,2722,2742,2761,2782,2802,2822,2841,2861,2882,2901,2921,2942,2962,2983,3002,3021,3042,3062,3082,3101,3121,3141,3162,3182,3201,3221,3241,3261,3281,3302,3321,3342,3361,3381,3402,3421,3442,3462,3482,3501,3521,3541,3562,3581,3601,3622,3641,3662,3682,3701,3721,3741,3762,3781,3802,3821,3842,3862,3881,3901],"xSR":741.5,"ySR":573.95,"xT1":424.9,"yT1":0,"xT2":1058.1,"yT2":0,"toosoon":0,"cond_shown":"randomdotsizeEA","ratio_trial":750,"smaller_num":"3","larger_num":"4","correct_side":2,"subjID":"andresfelipemesaperez2","gender":"0","age":"10","school":"6"},{"start_time":1551901351541,"click_time":1551901365036,"finger_time":1551901352095,"fix_duration":903.4820987418033,"trial":43,"RT":554,"MT":12941,"sideResp":1,"stimulus":"img/250/equaldotsize/L/7_Ratio_250_L_8_R_2.png","xmouse":[805,805,805,805,805,805,805,805,805,805,805,805,805,805,805,805,805,805,805,805,805,805,805,805,805,811,820,822,809,794,763,705,650,592,539,480,414,394,381,376,376,375,379,384,395,406,433,449,458,469,475,476,476,476,476,476,476,476,476,476,476,476,476,476,476,476,476,476,476,476,476,476,476,476,476,476,476,476,476,476,476,476,476,476,476,476,476,476,476,476,476,476,476,476,476,476,476,476,476,476,476,476,476,476,476,476,476,476,476,476,476,476,476,476,476,476,476,476,476,476,476,476,476,476,476,476,476,476,476,476,476,476,476,476,476,476,476,476,476,476,476,476,476,476,476,476,476,476,476,476,476,476,476,476,476,476,476,476,476,476,476,476,476,476,476,476,476,476,476,476,476,476,476,476,476,476,476,476,476,476,476,476,476,476,476,476,476,476,476,476,476,476,476,476,476,476,476,476,476,476,476,476,476,476,476,476,476,476,476,476,476,476,476,476,476,476,476,476,476,476,476,476,476,476,476,476,476,476,476,476,476,476,476,476,476,476,476,476,476,476,476,476,476,476,476,476,476,476,476,476,476,476,476,476,476,476,476,476,476,476,476,476,476,476,476,476,476,476,476,476,476,476,476,476,476,476,476,476,476,476,476,476,476,476,476,476,476,476,476,476,476,476,476,476,476,476,476,476,476,476,476,476,476,476,476,476,476,476,476,476,476,476,476,476,476,476,476,476,476,476,476,476,476,476,476,476,476,476,476,476,476,476,476,476,476,476,476,476,476,476,476,476,476,476,476,476,476,476,476,476,476,476,476,476,476,476,476,476,476,476,476,476,476,476,476,476,476,476,476,476,476,476,476,476,476,476,476,476,476,476,476,476,476,476,476,476,476,476,476,476,476,476,476,476,476,476,476,476,476,476,476,476,476,476,476,476,476,476,476,476,476,476,476,476,476,476,476,476,476,476,476,476,476,476,476,476,476,476,476,476,476,476,476,476,476,476,476,476,476,476,476,476,476,476,476,476,476,476,476,476,476,476,476,476,476,476,476,476,476,476,476,476,476,476,476,476,476,476,476,476,476,476,476,476,476,476,476,476,476,476,476,476,476,476,476,476,476,476,476,476,476,476,476,476,476,476,476,476,476,476,476,476,476,476,476,476,476,476,476,476,476,476,476,476,476,476,476,476,476,476,476,476,476,476,476,476,476,476,476,476,476,476,476,476,476,476,476,476,476,476,476,476,476,476,476,476,476,476,476,476,476,476,476,476,476,476,476,476,476,476,476,476,476,476,476,476,476,476,476,476,476,476,476,476,476,476,476,476,476,476,476,476,476,476,476,476,476,476,476,476,476,476,476,476,476,476,476,476,476,476,476,476,476,476,476,476,476,476,476,476,476,476,476,476,476,476,476,476,476,476,476,476,476,476,476,476,476,476,476,476,476,476,476,476,476,476,476,476,476,476,476,476,476,476,476,476,476,476,476,476,476,476,476,476,476,476,476,476,476,476,476,476,476,476,476,476,476,476,476,476,476,476,476,476,470],"ymouse":[624,624,624,624,624,624,624,624,624,624,624,624,624,624,624,624,624,624,624,624,624,624,624,624,624,620,586,545,514,487,453,405,353,295,234,172,76,42,19,0,0,0,0,0,0,0,0,0,0,0,0,0,0,0,0,0,0,0,0,0,0,0,0,0,0,0,0,0,0,0,0,0,0,0,0,0,0,0,0,0,0,0,0,0,0,0,0,0,0,0,0,0,0,0,0,0,0,0,0,0,0,0,0,0,0,0,0,0,0,0,0,0,0,0,0,0,0,0,0,0,0,0,0,0,0,0,0,0,0,0,0,0,0,0,0,0,0,0,0,0,0,0,0,0,0,0,0,0,0,0,0,0,0,0,0,0,0,0,0,0,0,0,0,0,0,0,0,0,0,0,0,0,0,0,0,0,0,0,0,0,0,0,0,0,0,0,0,0,0,0,0,0,0,0,0,0,0,0,0,0,0,0,0,0,0,0,0,0,0,0,0,0,0,0,0,0,0,0,0,0,0,0,0,0,0,0,0,0,0,0,0,0,0,0,0,0,0,0,0,0,0,0,0,0,0,0,0,0,0,0,0,0,0,0,0,0,0,0,0,0,0,0,0,0,0,0,0,0,0,0,0,0,0,0,0,0,0,0,0,0,0,0,0,0,0,0,0,0,0,0,0,0,0,0,0,0,0,0,0,0,0,0,0,0,0,0,0,0,0,0,0,0,0,0,0,0,0,0,0,0,0,0,0,0,0,0,0,0,0,0,0,0,0,0,0,0,0,0,0,0,0,0,0,0,0,0,0,0,0,0,0,0,0,0,0,0,0,0,0,0,0,0,0,0,0,0,0,0,0,0,0,0,0,0,0,0,0,0,0,0,0,0,0,0,0,0,0,0,0,0,0,0,0,0,0,0,0,0,0,0,0,0,0,0,0,0,0,0,0,0,0,0,0,0,0,0,0,0,0,0,0,0,0,0,0,0,0,0,0,0,0,0,0,0,0,0,0,0,0,0,0,0,0,0,0,0,0,0,0,0,0,0,0,0,0,0,0,0,0,0,0,0,0,0,0,0,0,0,0,0,0,0,0,0,0,0,0,0,0,0,0,0,0,0,0,0,0,0,0,0,0,0,0,0,0,0,0,0,0,0,0,0,0,0,0,0,0,0,0,0,0,0,0,0,0,0,0,0,0,0,0,0,0,0,0,0,0,0,0,0,0,0,0,0,0,0,0,0,0,0,0,0,0,0,0,0,0,0,0,0,0,0,0,0,0,0,0,0,0,0,0,0,0,0,0,0,0,0,0,0,0,0,0,0,0,0,0,0,0,0,0,0,0,0,0,0,0,0,0,0,0,0,0,0,0,0,0,0,0,0,0,0,0,0,0,0,0,0,0,0,0,0,0,0,0,0,0,0,0,0,0,0,0,0,0,0,0,0,0,0,0,0,0,0,0,0,0,0,0,0,0,0,0,0,0,0,0,0,0,0,0,0,0,0,0,0,0,0,0,0,0,0,0,0,0,0,0,0,0,0,0,0,0,0,4],"timestamp_mouse":[14,35,54,73,95,113,135,153,175,195,214,234,254,274,293,314,334,354,373,393,415,433,455,474,495,515,533,554,574,595,615,633,654,674,694,714,734,754,774,795,815,834,855,875,894,915,933,953,973,993,1013,1034,1055,1073,1094,1115,1135,1155,1174,1194,1214,1234,1253,1275,1295,1314,1334,1353,1374,1394,1415,1433,1453,1474,1494,1514,1534,1554,1573,1594,1614,1634,1655,1674,1695,1715,1734,1753,1774,1795,1814,1834,1853,1874,1893,1915,1934,1955,1973,1995,2014,2035,2053,2074,2095,2114,2134,2153,2175,2194,2214,2234,2254,2275,2293,2315,2334,2353,2373,2395,2415,2434,2454,2473,2493,2514,2534,2554,2575,2594,2613,2634,2653,2673,2695,2714,2735,2753,2774,2795,2813,2835,2854,2875,2893,2915,2934,2953,2974,2995,3015,3034,3054,3075,3094,3113,3134,3153,3175,3194,3213,3234,3254,3274,3293,3314,3334,3353,3374,3394,3414,3434,3453,3474,3494,3515,3535,3555,3573,3594,3614,3633,3653,3674,3695,3715,3734,3753,3774,3795,3814,3834,3853,3874,3895,3913,3934,3953,3974,3994,4015,4034,4054,4073,4093,4114,4134,4153,4173,4194,4214,4234,4255,4275,4295,4314,4333,4354,4375,4394,4414,4433,4454,4473,4494,4513,4534,4553,4575,4594,4613,4634,4654,4673,4694,4715,4733,4753,4774,4794,4815,4834,4853,4875,4894,4913,4934,4954,4975,4993,5015,5033,5054,5073,5095,5113,5134,5154,5173,5195,5213,5234,5255,5274,5294,5314,5335,5354,5373,5394,5415,5434,5453,5475,5494,5514,5533,5553,5575,5595,5614,5634,5654,5675,5694,5715,5733,5753,5774,5794,5813,5834,5855,5873,5894,5914,5934,5954,5974,5995,6014,6035,6054,6074,6094,6114,6134,6153,6174,6195,6213,6235,6255,6275,6295,6314,6335,6355,6375,6394,6414,6434,6454,6474,6493,6514,6534,6554,6574,6594,6614,6635,6653,6673,6695,6713,6734,6755,6773,6794,6814,6833,6855,6875,6893,6915,6935,6953,6973,6994,7013,7035,7055,7075,7095,7113,7134,7153,7175,7195,7215,7234,7254,7273,7295,7313,7335,7354,7373,7393,7415,7433,7454,7474,7493,7514,7534,7554,7575,7593,7615,7634,7654,7674,7694,7714,7734,7755,7773,7794,7815,7834,7853,7874,7894,7913,7934,7954,7974,7994,8014,8034,8055,8074,8093,8113,8134,8154,8174,8194,8215,8234,8253,8274,8294,8314,8335,8353,8374,8394,8414,8434,8453,8474,8494,8514,8534,8555,8574,8595,8613,8634,8654,8675,8694,8713,8734,8754,8775,8794,8813,8835,8855,8873,8894,8914,8935,8955,8973,8995,9014,9035,9054,9073,9093,9114,9135,9155,9173,9194,9213,9234,9254,9273,9294,9313,9335,9355,9373,9393,9413,9433,9454,9475,9493,9514,9533,9554,9574,9595,9614,9634,9653,9674,9694,9714,9733,9754,9775,9793,9815,9833,9855,9874,9893,9914,9934,9955,9974,9993,10015,10033,10053,10074,10094,10113,10134,10154,10175,10194,10213,10234,10255,10273,10294,10315,10334,10353,10373,10393,10415,10434,10453,10474,10495,10513,10534,10555,10574,10593,10614,10635,10653,10675,10695,10713,10735,10754,10774,10795,10813,10834,10855,10873,10893,10914,10934,10953,10975,10994,11013,11034,11055,11073,11095,11115,11134,11154,11174,11193,11215,11233,11254,11273,11294,11315,11334,11353,11374,11394,11414,11435,11453,11474,11495,11513,11534,11555,11573,11593,11615,11634,11653,11674,11694,11714,11734,11753,11774,11795,11814,11834,11855,11873,11894,11915,11934,11954,11974,11993,12014,12034,12053,12074,12094,12114,12135,12153,12174,12195,12213,12235,12255,12273,12294,12313,12334,12355,12373,12394,12415,12433,12454,12473,12494,12513,12535,12554,12573,12593,12615,12635,12653,12674,12695,12714,12734,12754,12774,12793,12814,12834,12853,12873,12894,12914,12935,12953,12974,12994,13015,13034,13054,13073,13094,13113,13134,13154,13173,13194,13214,13234,13253,13275,13294,13314,13334,13354,13373,13393,13414,13435,13453,13473,13495],"xSR":741.5,"ySR":573.95,"xT1":424.9,"yT1":0,"xT2":1058.1,"yT2":0,"toosoon":0,"cond_shown":"equaldotsize","ratio_trial":250,"smaller_num":"2","larger_num":"8","correct_side":1,"subjID":"andresfelipemesaperez2","gender":"0","age":"10","school":"6"},{"start_time":1551901368058,"click_time":1551901369656,"finger_time":1551901369134,"fix_duration":1483.866803249943,"trial":44,"RT":1076,"MT":522,"sideResp":2,"stimulus":"img/500/equaldotanddens/L/10_Ratio_500_L_4_R_2.png","xmouse":[762,762,762,762,762,762,762,762,762,762,762,762,762,762,762,762,762,762,762,762,762,762,762,762,762,762,762,762,762,762,762,762,762,762,762,762,762,762,762,762,762,762,762,762,762,762,762,762,762,762,763,768,784,800,804,821,839,849,873,893,926,939,949,954,957,973,981,989,995,1003,1013,1017,1026,1034,1041,1053,1060,1069,1077,1083],"ymouse":[606,606,606,606,606,606,606,606,606,606,606,606,606,606,606,606,606,606,606,606,606,606,606,606,606,606,606,606,606,606,606,606,606,606,606,606,606,606,606,606,606,606,606,606,606,606,606,606,606,606,606,601,583,562,549,473,427,399,361,328,279,264,252,245,239,212,203,190,179,170,155,148,142,136,131,123,117,110,104,99],"timestamp_mouse":[16,37,57,77,98,116,138,156,178,198,217,236,257,277,296,317,337,357,377,397,417,437,457,477,496,516,536,556,576,598,617,637,657,676,696,716,737,757,777,796,818,837,857,877,897,916,936,957,976,996,1017,1036,1058,1076,1097,1117,1138,1158,1178,1197,1218,1237,1257,1278,1298,1317,1337,1357,1377,1397,1416,1438,1457,1476,1498,1517,1537,1557,1577,1597],"xSR":741.5,"ySR":573.95,"xT1":424.9,"yT1":0,"xT2":1058.1,"yT2":0,"toosoon":0,"cond_shown":"equaldotanddens","ratio_trial":500,"smaller_num":"2","larger_num":"4","correct_side":1,"subjID":"andresfelipemesaperez2","gender":"0","age":"10","school":"6"},{"start_time":1551901371740,"click_time":1551901373096,"finger_time":1551901372435,"fix_duration":864.6792689890717,"trial":45,"RT":695,"MT":661,"sideResp":2,"stimulus":"img/900/equaldotanddens/R/9_Ratio_900_L_18_R_20.png","xmouse":[755,755,755,755,755,755,755,755,755,755,755,755,755,755,755,755,755,755,755,755,755,755,755,755,755,755,755,755,757,761,762,770,778,787,795,813,834,848,873,886,910,915,919,922,930,947,957,967,979,990,1018,1029,1035,1035,1038,1042,1044,1046,1048,1048,1048,1048,1048,1048,1048,1056,1063],"ymouse":[609,609,609,609,609,609,609,609,609,609,609,609,609,609,609,609,609,609,609,609,609,609,609,609,609,609,609,609,608,604,602,593,574,557,539,498,455,424,364,336,265,245,231,215,200,174,164,159,154,147,126,118,113,113,108,101,98,93,90,89,88,88,88,88,88,81,75],"timestamp_mouse":[35,55,76,96,114,135,154,174,196,216,234,256,274,296,315,336,355,374,396,414,436,455,475,496,514,535,555,575,594,616,634,655,675,695,715,734,754,775,795,816,834,855,875,895,914,935,955,975,994,1014,1035,1055,1075,1095,1114,1134,1155,1175,1196,1215,1234,1254,1275,1295,1315,1334,1356],"xSR":741.5,"ySR":573.95,"xT1":424.9,"yT1":0,"xT2":1058.1,"yT2":0,"toosoon":0,"cond_shown":"equaldotanddens","ratio_trial":900,"smaller_num":"18","larger_num":"20","correct_side":2,"subjID":"andresfelipemesaperez2","gender":"0","age":"10","school":"6"},{"start_time":1551901377690,"click_time":1551901378814,"finger_time":1551901378296,"fix_duration":1432.8822974246111,"trial":46,"RT":606,"MT":518,"sideResp":2,"stimulus":"img/750/equaldotsize/R/11_Ratio_750_L_12_R_16.png","xmouse":[838,838,838,838,838,838,838,838,838,838,838,838,838,838,838,838,838,838,838,838,838,838,838,838,838,838,838,838,838,838,855,894,929,949,976,985,995,1002,1006,1006,1007,1007,1011,1017,1033,1035,1036,1036,1036,1036,1036,1036,1037,1039,1048,1054,1060],"ymouse":[596,596,596,596,596,596,596,596,596,596,596,596,596,596,596,596,596,596,596,596,596,596,596,596,596,596,596,596,596,596,578,537,496,470,423,394,357,323,294,241,219,195,171,149,108,100,96,95,95,95,95,95,95,94,88,80,73],"timestamp_mouse":[8,26,44,65,85,104,126,144,165,185,206,226,244,265,284,305,326,344,366,384,406,424,446,466,485,505,525,546,566,584,606,625,644,665,685,704,724,746,766,786,804,824,846,865,884,906,926,945,965,984,1006,1025,1044,1064,1085,1105,1124],"xSR":741.5,"ySR":573.95,"xT1":424.9,"yT1":0,"xT2":1058.1,"yT2":0,"toosoon":0,"cond_shown":"equaldotsize","ratio_trial":750,"smaller_num":"12","larger_num":"16","correct_side":2,"subjID":"andresfelipemesaperez2","gender":"0","age":"10","school":"6"},{"start_time":1551901381186,"click_time":1551901393476,"finger_time":1551901382196,"fix_duration":1410.1305471420344,"trial":47,"RT":1010,"MT":11280,"sideResp":2,"stimulus":"img/500/randomdotsizeEA/L/5_Ratio_500_L_4_R_2.png","xmouse":[816,816,816,816,816,816,816,816,816,816,816,816,816,816,816,816,816,816,816,816,816,815,815,815,815,815,815,815,815,815,815,814,814,814,814,814,814,814,814,814,814,814,814,813,813,813,813,813,814,839,858,872,883,886,915,933,949,957,958,962,965,970,972,973,975,978,980,989,1014,1066,1097,1130,1162,1177,1189,1189,1189,1189,1189,1189,1189,1189,1188,1186,1174,1168,1167,1164,1163,1154,1148,1142,1136,1130,1121,1121,1120,1118,1115,1103,1093,1087,1084,1084,1084,1084,1084,1084,1084,1084,1084,1084,1084,1084,1084,1084,1084,1084,1084,1084,1084,1084,1084,1084,1084,1084,1084,1084,1084,1084,1084,1084,1084,1084,1084,1084,1084,1084,1084,1084,1084,1084,1084,1084,1084,1084,1084,1084,1084,1084,1084,1084,1084,1084,1084,1084,1084,1084,1084,1084,1084,1084,1084,1084,1084,1084,1084,1084,1084,1084,1084,1084,1084,1084,1084,1084,1084,1084,1084,1084,1084,1084,1084,1084,1084,1084,1084,1084,1084,1084,1084,1084,1084,1084,1084,1084,1084,1084,1084,1084,1084,1084,1084,1084,1084,1084,1084,1084,1084,1084,1084,1084,1084,1084,1084,1084,1084,1084,1084,1084,1084,1084,1084,1084,1084,1084,1084,1084,1084,1084,1084,1084,1084,1084,1084,1084,1084,1084,1084,1084,1084,1084,1084,1084,1084,1084,1084,1084,1084,1084,1084,1084,1084,1084,1084,1084,1084,1084,1084,1084,1084,1084,1084,1084,1084,1084,1084,1084,1084,1084,1084,1084,1084,1084,1084,1084,1084,1084,1084,1084,1084,1084,1084,1084,1084,1084,1084,1084,1084,1084,1084,1084,1084,1084,1084,1084,1084,1084,1084,1084,1084,1084,1084,1084,1084,1084,1084,1084,1084,1084,1084,1084,1084,1084,1084,1084,1084,1084,1084,1084,1084,1084,1084,1084,1084,1084,1084,1084,1084,1084,1084,1084,1084,1084,1084,1084,1084,1084,1084,1084,1084,1084,1084,1084,1084,1084,1084,1084,1084,1084,1084,1084,1084,1084,1084,1084,1084,1084,1084,1084,1084,1084,1084,1084,1084,1084,1084,1084,1084,1084,1084,1084,1084,1084,1084,1084,1084,1084,1084,1084,1084,1084,1084,1084,1084,1084,1084,1084,1084,1084,1084,1084,1084,1084,1084,1084,1084,1084,1084,1084,1084,1084,1084,1084,1084,1084,1084,1084,1084,1084,1084,1084,1084,1084,1084,1084,1084,1084,1084,1084,1084,1084,1084,1084,1084,1084,1084,1084,1084,1084,1084,1084,1084,1084,1084,1084,1084,1084,1084,1084,1084,1084,1084,1084,1084,1084,1084,1084,1084,1084,1084,1084,1084,1084,1084,1084,1084,1084,1084,1084,1084,1084,1084,1084,1084,1084,1084,1084,1084,1084,1084,1084,1084,1084,1084,1084,1084,1084,1084,1084,1084,1084,1084,1084,1084,1084,1084,1084,1084,1084,1084,1084,1084,1084,1084,1084,1084,1084,1084,1084,1084,1084,1084,1084,1084,1084,1084,1084,1084,1084,1084,1084,1084,1084,1084,1084,1084,1084,1084,1084,1084,1084,1084,1084,1084,1084,1084,1084,1084,1084,1084,1084,1084,1084,1084,1084,1084,1084,1084,1084,1084,1084,1084,1084,1084,1084,1084,1084,1084,1084,1084,1084,1084,1084,1084,1084,1084,1084,1084,1084,1084,1084,1084,1084,1084,1084,1084,1084,1084,1084,1084,1084,1084,1084,1084,1084,1084,1084,1084,1084,1084,1084,1084,1084,1084,1084,1084,1084,1084,1084,1084,1084,1084,1084,1084,1084,1084,1084,1084,1084,1084,1083,1083,1083,1083,1083,1083,1083,1083,1099,1105,1111,1117,1120,1120],"ymouse":[632,632,632,632,632,632,632,632,632,632,632,632,632,632,632,632,631,630,628,625,623,622,622,622,622,622,622,622,622,622,622,622,622,622,622,622,622,622,622,622,622,622,622,622,622,622,622,621,617,577,543,510,475,447,377,334,304,288,282,263,250,233,225,218,208,204,199,191,176,156,144,134,125,119,113,113,113,113,113,113,113,113,114,116,126,133,134,137,138,148,155,163,170,179,190,193,194,197,202,220,233,244,250,250,250,250,250,250,250,250,250,250,250,250,250,250,250,250,250,250,250,250,250,250,250,250,250,250,250,250,250,250,250,250,250,250,250,250,250,250,250,250,250,250,250,250,250,250,250,250,250,250,250,250,250,250,250,250,250,250,250,250,250,250,250,250,250,250,250,250,250,250,250,250,250,250,250,250,250,250,250,250,250,250,250,250,250,250,250,250,250,250,250,250,250,250,250,250,250,250,250,250,250,250,250,250,250,250,250,250,250,250,250,250,250,250,250,250,250,250,250,250,250,250,250,250,250,250,250,250,250,250,250,250,250,250,250,250,250,250,250,250,250,250,250,250,250,250,250,250,250,250,250,250,250,250,250,250,250,250,250,250,250,250,250,250,250,250,250,250,250,250,250,250,250,250,250,250,250,250,250,250,250,250,250,250,250,250,250,250,250,250,250,250,250,250,250,250,250,250,250,250,250,250,250,250,250,250,250,250,250,250,250,250,250,250,250,250,250,250,250,250,250,250,250,250,250,250,250,250,250,250,250,250,250,250,250,250,250,250,250,250,250,250,250,250,250,250,250,250,250,250,250,250,250,250,250,250,250,250,250,250,250,250,250,250,250,250,250,250,250,250,250,250,250,250,250,250,250,250,250,250,250,250,250,250,250,250,250,250,250,250,250,250,250,250,250,250,250,250,250,250,250,250,250,250,250,250,250,250,250,250,250,250,250,250,250,250,250,250,250,250,250,250,250,250,250,250,250,250,250,250,250,250,250,250,250,250,250,250,250,250,250,250,250,250,250,250,250,250,250,250,250,250,250,250,250,250,250,250,250,250,250,250,250,250,250,250,250,250,250,250,250,250,250,250,250,250,250,250,250,250,250,250,250,250,250,250,250,250,250,250,250,250,250,250,250,250,250,250,250,250,250,250,250,250,250,250,250,250,250,250,250,250,250,250,250,250,250,250,250,250,250,250,250,250,250,250,250,250,250,250,250,250,250,250,250,250,250,250,250,250,250,250,250,250,250,250,250,250,250,250,250,250,250,250,250,250,250,250,250,250,250,250,250,250,250,250,250,250,250,250,250,250,250,250,250,250,250,250,250,250,250,250,250,250,250,250,250,250,250,250,250,250,250,250,250,250,250,250,250,250,250,250,250,250,250,250,241,176,153,135,114,101,84],"timestamp_mouse":[8,29,50,69,89,108,129,148,170,189,208,230,248,269,290,308,330,349,370,389,408,429,450,468,489,508,530,548,569,588,610,628,650,669,689,709,728,748,768,790,808,830,849,869,889,909,929,948,970,988,1010,1030,1049,1068,1088,1109,1130,1149,1169,1189,1210,1228,1250,1269,1289,1308,1328,1349,1369,1389,1409,1429,1450,1468,1488,1509,1528,1550,1570,1589,1609,1629,1649,1670,1688,1708,1729,1749,1770,1789,1809,1828,1849,1869,1888,1910,1930,1950,1969,1988,2009,2028,2048,2068,2088,2108,2129,2149,2170,2190,2209,2229,2249,2270,2289,2308,2329,2349,2369,2389,2408,2430,2449,2469,2489,2509,2529,2549,2568,2589,2609,2628,2649,2670,2689,2709,2729,2750,2769,2790,2808,2828,2849,2869,2888,2908,2929,2948,2969,2988,3008,3028,3048,3068,3089,3109,3129,3149,3169,3190,3210,3229,3249,3269,3289,3310,3329,3349,3369,3390,3409,3429,3450,3469,3489,3509,3529,3549,3569,3590,3609,3628,3650,3670,3689,3709,3730,3749,3768,3789,3809,3830,3850,3869,3889,3910,3929,3948,3969,3990,4009,4028,4048,4069,4089,4108,4128,4150,4169,4189,4209,4229,4249,4269,4289,4309,4330,4349,4369,4389,4408,4430,4449,4469,4489,4509,4530,4549,4569,4589,4609,4629,4648,4669,4689,4709,4728,4749,4770,4789,4809,4828,4850,4869,4888,4909,4929,4949,4969,4989,5009,5028,5050,5069,5088,5109,5129,5149,5169,5189,5209,5230,5249,5270,5289,5309,5328,5349,5369,5389,5410,5429,5449,5469,5489,5510,5529,5548,5570,5589,5610,5630,5649,5668,5689,5710,5729,5749,5769,5789,5810,5830,5850,5869,5890,5909,5928,5948,5970,5989,6008,6030,6050,6068,6090,6110,6128,6148,6170,6190,6209,6229,6248,6270,6289,6308,6329,6350,6369,6389,6409,6429,6449,6469,6488,6510,6530,6548,6570,6589,6609,6629,6648,6669,6690,6709,6729,6750,6769,6789,6809,6830,6850,6869,6890,6909,6929,6950,6969,6989,7009,7028,7049,7069,7090,7109,7129,7148,7168,7189,7208,7228,7248,7269,7290,7309,7329,7349,7370,7389,7409,7429,7449,7469,7490,7509,7529,7549,7570,7588,7609,7629,7649,7669,7689,7710,7729,7750,7769,7789,7809,7828,7849,7869,7889,7909,7930,7949,7968,7990,8009,8029,8048,8068,8089,8108,8128,8149,8170,8189,8208,8229,8250,8269,8289,8309,8328,8349,8369,8389,8409,8429,8449,8469,8488,8509,8530,8548,8569,8589,8609,8629,8649,8669,8689,8709,8730,8749,8769,8789,8809,8829,8849,8869,8889,8909,8929,8950,8970,8989,9009,9029,9048,9069,9089,9108,9129,9149,9169,9189,9208,9229,9249,9269,9289,9308,9329,9349,9369,9390,9409,9429,9449,9469,9489,9508,9529,9549,9570,9589,9608,9628,9648,9669,9689,9709,9729,9749,9770,9789,9808,9829,9850,9870,9889,9909,9929,9948,9969,9989,10009,10029,10049,10069,10089,10108,10130,10150,10169,10189,10209,10229,10249,10269,10289,10309,10329,10349,10369,10390,10409,10429,10449,10470,10489,10509,10530,10549,10569,10588,10609,10629,10649,10668,10690,10710,10729,10749,10769,10790,10809,10829,10849,10869,10889,10910,10928,10949,10970,10990,11009,11029,11048,11069,11089,11110,11129,11149,11168,11189,11209,11229,11249,11269,11288,11308,11329,11349,11370,11389,11408,11429,11449,11469,11489,11509,11528,11549,115