[{"start_time":1551793945912,"click_time":1551793948017,"finger_time":1551793947397,"fix_duration":250,"trial":0,"RT":1485,"MT":620,"sideResp":2,"stimulus":[],"xmouse":[791,791,791,791,791,791,791,791,791,791,791,791,791,791,791,791,791,791,791,791,791,791,791,791,791,791,791,791,791,791,791,791,791,791,791,791,791,791,791,791,791,791,791,791,791,791,791,791,791,791,791,791,791,791,791,791,791,791,791,791,791,791,791,791,791,791,791,791,791,791,791,791,791,792,859,918,976,1032,1072,1109,1114,1116,1119,1126,1136,1139,1141,1141,1141,1130,1126,1120,1117,1114,1112,1111,1111,1111,1111,1111,1111,1111,1111,1111,1111,1111],"ymouse":[500,500,500,500,500,500,500,500,500,500,500,500,500,500,500,500,500,500,500,500,500,500,500,500,500,500,500,500,500,500,500,500,500,500,500,500,500,500,500,500,500,500,500,500,500,500,500,500,500,500,500,500,500,500,500,500,500,500,500,500,500,500,500,500,500,500,500,500,500,500,500,500,500,500,460,427,393,362,345,333,330,330,327,319,295,276,252,228,206,174,161,149,136,126,119,118,116,113,111,108,107,105,104,103,100,99],"timestamp_mouse":[8,29,44,65,84,104,125,144,164,185,204,224,245,264,285,305,325,345,364,384,404,425,444,465,486,504,525,545,564,584,605,625,644,665,684,705,724,744,765,784,804,825,844,866,884,905,925,946,964,984,1004,1025,1044,1065,1084,1104,1124,1145,1164,1185,1205,1224,1245,1266,1284,1304,1326,1345,1365,1384,1405,1424,1445,1464,1485,1504,1524,1545,1564,1584,1604,1624,1644,1664,1684,1704,1724,1744,1764,1784,1804,1825,1844,1864,1884,1904,1924,1945,1964,1984,2004,2024,2045,2064,2084,2104],"xSR":741.5,"ySR":469.95,"xT1":424.9,"yT1":0,"xT2":1058.1,"yT2":0,"toosoon":0,"cond_shown":"Congruent","ratio_trial":200,"L_num":3,"L_den":10,"R_num":7,"R_den":14,"correct_side":2,"subjID":"NicoleBecerraForero37","gender":"1","age":"11","school":"6","test":{"fix_dur":[250,1500],"timestim":1000,"targets_dim":[100,100],"targets_relative_coord":[0.3,0.7],"size_stim":[880,420],"start_dim":[100,100],"size_start":[300,300],"size_fix":60,"samplingrate":20,"img_types":["Congruent","Incongruent"],"ratios":[100,200,300],"rep_conds":19,"nTrials":120,"trials_to_rest":500,"Trials_order":[80,53,44,56,117,9,87,33,90,3,93,31,106,88,74,12,114,29,37,119,46,20,11,77,65,49,72,1,32,52,16,15,91,71,61,38,5,66,13,96,18,69,51,10,118,23,30,34,60,17,22,110,64,19,98,115,14,7,104,50,45,84,100,79,94,42,39,86,112,48,25,81,2,83,47,73,21,67,89,8,76,35,57,36,43,78,116,28,24,26,68,109,103,6,99,70,55,85,4,63,113,62,92,41,102,27,107,82,59,54,105,101,111,40,95,0,58,75,108,97],"cond_shown":["Congruent","Incongruent","Congruent","Congruent","Incongruent","Incongruent","Incongruent","Incongruent","Congruent","Incongruent","Incongruent","Incongruent","Congruent","Congruent","Congruent","Congruent","Congruent","Incongruent","Incongruent","Incongruent","Congruent","Congruent","Incongruent","Incongruent","Incongruent","Incongruent","Congruent","Incongruent","Congruent","Congruent","Congruent","Incongruent","Incongruent","Incongruent","Incongruent","Congruent","Incongruent","Congruent","Incongruent","Congruent","Congruent","Incongruent","Incongruent","Congruent","Congruent","Incongruent","Congruent","Congruent","Congruent","Incongruent","Congruent","Congruent","Congruent","Incongruent","Congruent","Incongruent","Congruent","Incongruent","Congruent","Congruent","Incongruent","Congruent","Congruent","Incongruent","Congruent","Congruent","Incongruent","Congruent","Congruent","Congruent","Incongruent","Incongruent","Congruent","Incongruent","Incongruent","Incongruent","Incongruent","Incongruent","Incongruent","Congruent","Congruent","Incongruent","Incongruent","Congruent","Incongruent","Congruent","Congruent","Congruent","Congruent","Congruent","Congruent","Incongruent","Incongruent","Congruent","Incongruent","Congruent","Incongruent","Incongruent","Congruent","Incongruent","Incongruent","Congruent","Congruent","Incongruent","Congruent","Incongruent","Incongruent","Congruent","Incongruent","Congruent","Incongruent","Incongruent","Incongruent","Congruent","Incongruent","Congruent","Congruent","Incongruent","Congruent","Incongruent"],"ratio_trial":[200,300,200,200,200,200,200,200,100,200,200,100,300,300,200,100,100,300,100,300,300,200,300,300,300,100,100,100,200,300,300,200,100,300,100,200,300,100,100,100,100,200,200,300,300,300,100,300,100,300,300,200,300,100,200,100,200,100,200,200,200,100,300,100,300,100,200,200,300,100,100,200,200,300,300,100,200,100,300,200,300,300,200,100,100,100,200,300,100,200,200,100,100,100,200,300,100,100,300,200,300,200,200,300,100,200,300,300,300,100,200,300,200,300,300,100,300,200,100,100],"left_num":[3,2,8,13,6,7,7,7,2,4,7,11,4,2,3,6,11,4,6,13,11,6,4,4,1,3,7,8,9,1,2,7,6,4,9,3,1,4,3,11,2,4,11,4,3,4,10,4,11,1,20,9,4,3,16,2,15,17,20,3,6,10,1,17,5,11,11,8,11,7,10,4,6,8,13,8,4,13,4,6,2,13,3,15,3,10,13,24,15,16,3,2,13,1,7,1,6,13,1,1,2,14,11,2,4,3,4,7,13,10,4,4,6,12,4,6,3,14,9,8],"right_num":[7,6,3,14,3,8,4,14,11,14,8,9,2,12,7,5,4,2,7,12,2,7,2,8,3,7,15,6,4,11,12,4,13,2,6,7,3,6,11,6,11,6,3,13,11,2,3,13,4,2,13,13,2,8,9,6,4,10,9,9,3,3,6,10,7,4,3,3,4,9,8,1,11,9,12,1,14,12,2,3,10,12,1,13,4,3,14,8,13,12,14,6,6,3,8,6,13,12,19,3,6,6,3,6,6,11,2,20,12,3,6,8,3,2,2,15,4,6,8,6],"left_den":[10,4,15,26,20,10,15,10,5,6,10,22,5,10,10,20,22,20,10,26,22,12,20,5,2,9,14,16,20,5,10,15,10,20,18,10,2,8,5,22,5,5,20,20,12,20,25,20,22,2,25,30,5,5,30,4,25,30,25,12,20,25,5,30,25,22,20,15,22,14,25,30,20,10,26,20,6,26,20,15,20,26,10,25,6,25,26,30,25,20,10,4,26,2,10,5,10,26,3,2,4,28,22,4,8,4,20,14,26,25,5,5,20,24,20,12,6,30,15,16],"right_den":[14,30,9,20,6,16,6,28,22,30,16,15,4,24,14,25,10,4,14,15,10,10,4,16,15,30,25,10,16,22,24,6,26,4,10,14,15,10,22,15,22,10,4,26,20,4,10,26,10,10,26,26,4,16,27,15,10,15,15,20,6,10,12,15,14,10,4,9,20,15,16,3,22,18,15,2,30,20,4,15,25,15,2,26,10,10,20,16,26,20,28,15,10,5,16,12,26,20,30,10,30,20,10,30,10,20,4,25,15,10,10,16,6,10,4,25,5,9,16,10],"correct_side":[2,1,1,2,2,1,2,1,2,1,1,2,1,2,2,1,1,2,1,2,1,2,2,1,1,1,2,2,1,2,2,2,1,2,2,2,1,2,1,1,2,1,2,2,2,2,1,2,1,1,1,2,1,1,1,1,1,2,1,2,2,1,2,2,2,1,2,1,1,2,2,2,2,1,2,2,1,2,2,1,2,2,2,1,1,1,2,1,1,1,2,1,2,2,1,2,1,2,2,1,1,1,1,1,2,1,2,2,2,1,1,1,2,1,2,2,2,2,1,2],"img_shown":["img2/200/Congruent/R/C_Dist_200_LN_3_LD_10_RN_7_RD_14_1.png","img2/300/Incongruent/L/I_Dist_300_LN_2_LD_4_RN_6_RD_30_0.png","img2/200/Congruent/L/C_Dist_200_LN_8_LD_15_RN_3_RD_9_0.png","img2/200/Congruent/R/C_Dist_200_LN_13_LD_26_RN_14_RD_20_1.png","img2/200/Incongruent/R/I_Dist_200_LN_6_LD_20_RN_3_RD_6_1.png","img2/200/Incongruent/L/I_Dist_200_LN_7_LD_10_RN_8_RD_16_0.png","img2/200/Incongruent/R/I_Dist_200_LN_7_LD_15_RN_4_RD_6_1.png","img2/200/Incongruent/L/I_Dist_200_LN_7_LD_10_RN_14_RD_28_0.png","img2/100/Congruent/R/C_Dist_100_LN_2_LD_5_RN_11_RD_22_1.png","img2/200/Incongruent/L/I_Dist_200_LN_4_LD_6_RN_14_RD_30_0.png","img2/200/Incongruent/L/I_Dist_200_LN_7_LD_10_RN_8_RD_16_0.png","img2/100/Incongruent/R/I_Dist_100_LN_11_LD_22_RN_9_RD_15_1.png","img2/300/Congruent/L/C_Dist_300_LN_4_LD_5_RN_2_RD_4_0.png","img2/300/Congruent/R/C_Dist_300_LN_2_LD_10_RN_12_RD_24_1.png","img2/200/Congruent/R/C_Dist_200_LN_3_LD_10_RN_7_RD_14_1.png","img2/100/Congruent/L/C_Dist_100_LN_6_LD_20_RN_5_RD_25_0.png","img2/100/Congruent/L/C_Dist_100_LN_11_LD_22_RN_4_RD_10_0.png","img2/300/Incongruent/R/I_Dist_300_LN_4_LD_20_RN_2_RD_4_1.png","img2/100/Incongruent/L/I_Dist_100_LN_6_LD_10_RN_7_RD_14_0.png","img2/300/Incongruent/R/I_Dist_300_LN_13_LD_26_RN_12_RD_15_1.png","img2/300/Congruent/L/C_Dist_300_LN_11_LD_22_RN_2_RD_10_0.png","img2/200/Congruent/R/C_Dist_200_LN_6_LD_12_RN_7_RD_10_1.png","img2/300/Incongruent/R/I_Dist_300_LN_4_LD_20_RN_2_RD_4_1.png","img2/300/Incongruent/L/I_Dist_300_LN_4_LD_5_RN_8_RD_16_0.png","img2/300/Incongruent/L/I_Dist_300_LN_1_LD_2_RN_3_RD_15_0.png","img2/100/Incongruent/L/I_Dist_100_LN_3_LD_9_RN_7_RD_30_0.png","img2/100/Congruent/R/C_Dist_100_LN_7_LD_14_RN_15_RD_25_1.png","img2/100/Incongruent/R/I_Dist_100_LN_8_LD_16_RN_6_RD_10_1.png","img2/200/Congruent/L/C_Dist_200_LN_9_LD_20_RN_4_RD_16_0.png","img2/300/Congruent/R/C_Dist_300_LN_1_LD_5_RN_11_RD_22_1.png","img2/300/Congruent/R/C_Dist_300_LN_2_LD_10_RN_12_RD_24_1.png","img2/200/Incongruent/R/I_Dist_200_LN_7_LD_15_RN_4_RD_6_1.png","img2/100/Incongruent/L/I_Dist_100_LN_6_LD_10_RN_13_RD_26_0.png","img2/300/Incongruent/R/I_Dist_300_LN_4_LD_20_RN_2_RD_4_1.png","img2/100/Incongruent/R/I_Dist_100_LN_9_LD_18_RN_6_RD_10_1.png","img2/200/Congruent/R/C_Dist_200_LN_3_LD_10_RN_7_RD_14_1.png","img2/300/Incongruent/L/I_Dist_300_LN_1_LD_2_RN_3_RD_15_0.png","img2/100/Congruent/R/C_Dist_100_LN_4_LD_8_RN_6_RD_10_1.png","img2/100/Incongruent/L/I_Dist_100_LN_3_LD_5_RN_11_RD_22_0.png","img2/100/Congruent/L/C_Dist_100_LN_11_LD_22_RN_6_RD_15_0.png","img2/100/Congruent/R/C_Dist_100_LN_2_LD_5_RN_11_RD_22_1.png","img2/200/Incongruent/L/I_Dist_200_LN_4_LD_5_RN_6_RD_10_0.png","img2/200/Incongruent/R/I_Dist_200_LN_11_LD_20_RN_3_RD_4_1.png","img2/300/Congruent/R/C_Dist_300_LN_4_LD_20_RN_13_RD_26_1.png","img2/300/Congruent/R/C_Dist_300_LN_3_LD_12_RN_11_RD_20_1.png","img2/300/Incongruent/R/I_Dist_300_LN_4_LD_20_RN_2_RD_4_1.png","img2/100/Congruent/L/C_Dist_100_LN_10_LD_25_RN_3_RD_10_0.png","img2/300/Congruent/R/C_Dist_300_LN_4_LD_20_RN_13_RD_26_1.png","img2/100/Congruent/L/C_Dist_100_LN_11_LD_22_RN_4_RD_10_0.png","img2/300/Incongruent/L/I_Dist_300_LN_1_LD_2_RN_2_RD_10_0.png","img2/300/Congruent/L/C_Dist_300_LN_20_LD_25_RN_13_RD_26_0.png","img2/200/Congruent/R/C_Dist_200_LN_9_LD_30_RN_13_RD_26_1.png","img2/300/Congruent/L/C_Dist_300_LN_4_LD_5_RN_2_RD_4_0.png","img2/100/Incongruent/L/I_Dist_100_LN_3_LD_5_RN_8_RD_16_0.png","img2/200/Congruent/L/C_Dist_200_LN_16_LD_30_RN_9_RD_27_0.png","img2/100/Incongruent/L/I_Dist_100_LN_2_LD_4_RN_6_RD_15_0.png","img2/200/Congruent/L/C_Dist_200_LN_15_LD_25_RN_4_RD_10_0.png","img2/100/Incongruent/R/I_Dist_100_LN_17_LD_30_RN_10_RD_15_1.png","img2/200/Congruent/L/C_Dist_200_LN_20_LD_25_RN_9_RD_15_0.png","img2/200/Congruent/R/C_Dist_200_LN_3_LD_12_RN_9_RD_20_1.png","img2/200/Incongruent/R/I_Dist_200_LN_6_LD_20_RN_3_RD_6_1.png","img2/100/Congruent/L/C_Dist_100_LN_10_LD_25_RN_3_RD_10_0.png","img2/300/Congruent/R/C_Dist_300_LN_1_LD_5_RN_6_RD_12_1.png","img2/100/Incongruent/R/I_Dist_100_LN_17_LD_30_RN_10_RD_15_1.png","img2/300/Congruent/R/C_Dist_300_LN_5_LD_25_RN_7_RD_14_1.png","img2/100/Congruent/L/C_Dist_100_LN_11_LD_22_RN_4_RD_10_0.png","img2/200/Incongruent/R/I_Dist_200_LN_11_LD_20_RN_3_RD_4_1.png","img2/200/Congruent/L/C_Dist_200_LN_8_LD_15_RN_3_RD_9_0.png","img2/300/Congruent/L/C_Dist_300_LN_11_LD_22_RN_4_RD_20_0.png","img2/100/Congruent/R/C_Dist_100_LN_7_LD_14_RN_9_RD_15_1.png","img2/100/Incongruent/R/I_Dist_100_LN_10_LD_25_RN_8_RD_16_1.png","img2/200/Incongruent/R/I_Dist_200_LN_4_LD_30_RN_1_RD_3_1.png","img2/200/Congruent/R/C_Dist_200_LN_6_LD_20_RN_11_RD_22_1.png","img2/300/Incongruent/L/I_Dist_300_LN_8_LD_10_RN_9_RD_18_0.png","img2/300/Incongruent/R/I_Dist_300_LN_13_LD_26_RN_12_RD_15_1.png","img2/100/Incongruent/R/I_Dist_100_LN_8_LD_20_RN_1_RD_2_1.png","img2/200/Incongruent/L/I_Dist_200_LN_4_LD_6_RN_14_RD_30_0.png","img2/100/Incongruent/R/I_Dist_100_LN_13_LD_26_RN_12_RD_20_1.png","img2/300/Incongruent/R/I_Dist_300_LN_4_LD_20_RN_2_RD_4_1.png","img2/200/Congruent/L/C_Dist_200_LN_6_LD_15_RN_3_RD_15_0.png","img2/300/Congruent/R/C_Dist_300_LN_2_LD_20_RN_10_RD_25_1.png","img2/300/Incongruent/R/I_Dist_300_LN_13_LD_26_RN_12_RD_15_1.png","img2/200/Incongruent/R/I_Dist_200_LN_3_LD_10_RN_1_RD_2_1.png","img2/100/Congruent/L/C_Dist_100_LN_15_LD_25_RN_13_RD_26_0.png","img2/100/Incongruent/L/I_Dist_100_LN_3_LD_6_RN_4_RD_10_0.png","img2/100/Congruent/L/C_Dist_100_LN_10_LD_25_RN_3_RD_10_0.png","img2/200/Congruent/R/C_Dist_200_LN_13_LD_26_RN_14_RD_20_1.png","img2/300/Congruent/L/C_Dist_300_LN_24_LD_30_RN_8_RD_16_0.png","img2/100/Congruent/L/C_Dist_100_LN_15_LD_25_RN_13_RD_26_0.png","img2/200/Congruent/L/C_Dist_200_LN_16_LD_20_RN_12_RD_20_0.png","img2/200/Congruent/R/C_Dist_200_LN_3_LD_10_RN_14_RD_28_1.png","img2/100/Incongruent/L/I_Dist_100_LN_2_LD_4_RN_6_RD_15_0.png","img2/100/Incongruent/R/I_Dist_100_LN_13_LD_26_RN_6_RD_10_1.png","img2/100/Congruent/R/C_Dist_100_LN_1_LD_2_RN_3_RD_5_1.png","img2/200/Incongruent/L/I_Dist_200_LN_7_LD_10_RN_8_RD_16_0.png","img2/300/Congruent/R/C_Dist_300_LN_1_LD_5_RN_6_RD_12_1.png","img2/100/Incongruent/L/I_Dist_100_LN_6_LD_10_RN_13_RD_26_0.png","img2/100/Incongruent/R/I_Dist_100_LN_13_LD_26_RN_12_RD_20_1.png","img2/300/Congruent/R/C_Dist_300_LN_1_LD_3_RN_19_RD_30_1.png","img2/200/Incongruent/L/I_Dist_200_LN_1_LD_2_RN_3_RD_10_0.png","img2/300/Incongruent/L/I_Dist_300_LN_2_LD_4_RN_6_RD_30_0.png","img2/200/Congruent/L/C_Dist_200_LN_14_LD_28_RN_6_RD_20_0.png","img2/200/Congruent/L/C_Dist_200_LN_11_LD_22_RN_3_RD_10_0.png","img2/300/Incongruent/L/I_Dist_300_LN_2_LD_4_RN_6_RD_30_0.png","img2/100/Congruent/R/C_Dist_100_LN_4_LD_8_RN_6_RD_10_1.png","img2/200/Incongruent/L/I_Dist_200_LN_3_LD_4_RN_11_RD_20_0.png","img2/300/Incongruent/R/I_Dist_300_LN_4_LD_20_RN_2_RD_4_1.png","img2/300/Congruent/R/C_Dist_300_LN_7_LD_14_RN_20_RD_25_1.png","img2/300/Incongruent/R/I_Dist_300_LN_13_LD_26_RN_12_RD_15_1.png","img2/100/Congruent/L/C_Dist_100_LN_10_LD_25_RN_3_RD_10_0.png","img2/200/Incongruent/L/I_Dist_200_LN_4_LD_5_RN_6_RD_10_0.png","img2/300/Incongruent/L/I_Dist_300_LN_4_LD_5_RN_8_RD_16_0.png","img2/200/Incongruent/R/I_Dist_200_LN_6_LD_20_RN_3_RD_6_1.png","img2/300/Congruent/L/C_Dist_300_LN_12_LD_24_RN_2_RD_10_0.png","img2/300/Incongruent/R/I_Dist_300_LN_4_LD_20_RN_2_RD_4_1.png","img2/100/Congruent/R/C_Dist_100_LN_6_LD_12_RN_15_RD_25_1.png","img2/300/Congruent/R/C_Dist_300_LN_3_LD_6_RN_4_RD_5_1.png","img2/200/Incongruent/R/I_Dist_200_LN_14_LD_30_RN_6_RD_9_1.png","img2/100/Congruent/L/C_Dist_100_LN_9_LD_15_RN_8_RD_16_0.png","img2/100/Incongruent/R/I_Dist_100_LN_8_LD_16_RN_6_RD_10_1.png"],"dist100_C":[["C_Dist_100_LN_10_LD_25_RN_3_RD_10_0.png","C_Dist_100_LN_11_LD_22_RN_4_RD_10_0.png","C_Dist_100_LN_11_LD_22_RN_6_RD_15_0.png","C_Dist_100_LN_15_LD_25_RN_13_RD_26_0.png","C_Dist_100_LN_3_LD_6_RN_2_RD_5_0.png","C_Dist_100_LN_6_LD_20_RN_5_RD_25_0.png","C_Dist_100_LN_8_LD_16_RN_2_RD_5_0.png","C_Dist_100_LN_9_LD_15_RN_8_RD_16_0.png"],["C_Dist_100_LN_1_LD_2_RN_18_RD_30_1.png","C_Dist_100_LN_1_LD_2_RN_3_RD_5_1.png","C_Dist_100_LN_12_LD_30_RN_13_RD_26_1.png","C_Dist_100_LN_2_LD_5_RN_11_RD_22_1.png","C_Dist_100_LN_2_LD_5_RN_6_RD_12_1.png","C_Dist_100_LN_3_LD_20_RN_4_RD_16_1.png","C_Dist_100_LN_4_LD_10_RN_15_RD_30_1.png","C_Dist_100_LN_4_LD_8_RN_6_RD_10_1.png","C_Dist_100_LN_6_LD_12_RN_15_RD_25_1.png","C_Dist_100_LN_7_LD_14_RN_15_RD_25_1.png","C_Dist_100_LN_7_LD_14_RN_9_RD_15_1.png"]],"dist100_I":[["I_Dist_100_LN_1_LD_2_RN_8_RD_20_0.png","I_Dist_100_LN_2_LD_4_RN_6_RD_15_0.png","I_Dist_100_LN_2_LD_4_RN_8_RD_20_0.png","I_Dist_100_LN_3_LD_5_RN_11_RD_22_0.png","I_Dist_100_LN_3_LD_5_RN_8_RD_16_0.png","I_Dist_100_LN_3_LD_6_RN_4_RD_10_0.png","I_Dist_100_LN_3_LD_9_RN_7_RD_30_0.png","I_Dist_100_LN_4_LD_8_RN_8_RD_20_0.png","I_Dist_100_LN_6_LD_10_RN_11_RD_22_0.png","I_Dist_100_LN_6_LD_10_RN_13_RD_26_0.png","I_Dist_100_LN_6_LD_10_RN_7_RD_14_0.png","I_Dist_100_LN_9_LD_10_RN_20_RD_25_0.png","I_Dist_100_LN_9_LD_15_RN_13_RD_26_0.png","I_Dist_100_LN_9_LD_15_RN_14_RD_28_0.png"],["I_Dist_100_LN_10_LD_25_RN_8_RD_16_1.png","I_Dist_100_LN_10_LD_25_RN_9_RD_18_1.png","I_Dist_100_LN_11_LD_22_RN_9_RD_15_1.png","I_Dist_100_LN_12_LD_24_RN_9_RD_15_1.png","I_Dist_100_LN_12_LD_30_RN_2_RD_4_1.png","I_Dist_100_LN_13_LD_26_RN_12_RD_20_1.png","I_Dist_100_LN_13_LD_26_RN_6_RD_10_1.png","I_Dist_100_LN_17_LD_30_RN_10_RD_15_1.png","I_Dist_100_LN_6_LD_12_RN_3_RD_5_1.png","I_Dist_100_LN_8_LD_16_RN_6_RD_10_1.png","I_Dist_100_LN_8_LD_20_RN_1_RD_2_1.png","I_Dist_100_LN_9_LD_18_RN_6_RD_10_1.png"]],"dist100_S":[["E_Dist_100_LN_2_LD_12_RN_2_RD_30_0.png","E_Dist_100_LN_6_LD_10_RN_6_RD_12_0.png"],["E_Dist_100_LN_6_LD_12_RN_6_RD_10_1.png"]],"dist200_C":[["C_Dist_200_LN_11_LD_22_RN_3_RD_10_0.png","C_Dist_200_LN_12_LD_15_RN_6_RD_10_0.png","C_Dist_200_LN_12_LD_20_RN_6_RD_15_0.png","C_Dist_200_LN_14_LD_28_RN_6_RD_20_0.png","C_Dist_200_LN_15_LD_25_RN_4_RD_10_0.png","C_Dist_200_LN_16_LD_20_RN_12_RD_20_0.png","C_Dist_200_LN_16_LD_30_RN_9_RD_27_0.png","C_Dist_200_LN_20_LD_25_RN_9_RD_15_0.png","C_Dist_200_LN_21_LD_30_RN_2_RD_4_0.png","C_Dist_200_LN_4_LD_10_RN_3_RD_15_0.png","C_Dist_200_LN_4_LD_8_RN_3_RD_10_0.png","C_Dist_200_LN_6_LD_15_RN_3_RD_15_0.png","C_Dist_200_LN_7_LD_21_RN_2_RD_15_0.png","C_Dist_200_LN_8_LD_15_RN_2_RD_6_0.png","C_Dist_200_LN_8_LD_15_RN_3_RD_9_0.png","C_Dist_200_LN_8_LD_15_RN_7_RD_21_0.png","C_Dist_200_LN_9_LD_20_RN_4_RD_16_0.png"],["C_Dist_200_LN_1_LD_2_RN_21_RD_30_1.png","C_Dist_200_LN_13_LD_26_RN_14_RD_20_1.png","C_Dist_200_LN_3_LD_10_RN_11_RD_22_1.png","C_Dist_200_LN_3_LD_10_RN_14_RD_28_1.png","C_Dist_200_LN_3_LD_10_RN_7_RD_14_1.png","C_Dist_200_LN_3_LD_12_RN_9_RD_20_1.png","C_Dist_200_LN_3_LD_6_RN_14_RD_20_1.png","C_Dist_200_LN_5_LD_10_RN_14_RD_20_1.png","C_Dist_200_LN_6_LD_12_RN_7_RD_10_1.png","C_Dist_200_LN_6_LD_20_RN_11_RD_22_1.png","C_Dist_200_LN_7_LD_15_RN_18_RD_27_1.png","C_Dist_200_LN_9_LD_30_RN_13_RD_26_1.png"]],"dist200_I":[["I_Dist_200_LN_1_LD_2_RN_3_RD_10_0.png","I_Dist_200_LN_1_LD_3_RN_2_RD_15_0.png","I_Dist_200_LN_3_LD_4_RN_11_RD_20_0.png","I_Dist_200_LN_4_LD_5_RN_6_RD_10_0.png","I_Dist_200_LN_4_LD_6_RN_14_RD_30_0.png","I_Dist_200_LN_7_LD_10_RN_12_RD_24_0.png","I_Dist_200_LN_7_LD_10_RN_14_RD_28_0.png","I_Dist_200_LN_7_LD_10_RN_8_RD_16_0.png"],["I_Dist_200_LN_11_LD_20_RN_3_RD_4_1.png","I_Dist_200_LN_14_LD_30_RN_12_RD_18_1.png","I_Dist_200_LN_14_LD_30_RN_6_RD_9_1.png","I_Dist_200_LN_3_LD_10_RN_1_RD_2_1.png","I_Dist_200_LN_4_LD_30_RN_1_RD_3_1.png","I_Dist_200_LN_6_LD_20_RN_3_RD_6_1.png","I_Dist_200_LN_7_LD_15_RN_4_RD_6_1.png","I_Dist_200_LN_7_LD_15_RN_6_RD_9_1.png","I_Dist_200_LN_9_LD_15_RN_8_RD_10_1.png"]],"dist200_S":[["E_Dist_200_LN_3_LD_6_RN_3_RD_10_0.png"],["E_Dist_200_LN_3_LD_10_RN_3_RD_6_1.png"]],"dist300_C":[["C_Dist_300_LN_11_LD_22_RN_1_RD_5_0.png","C_Dist_300_LN_11_LD_22_RN_2_RD_10_0.png","C_Dist_300_LN_11_LD_22_RN_4_RD_20_0.png","C_Dist_300_LN_12_LD_24_RN_2_RD_10_0.png","C_Dist_300_LN_18_LD_20_RN_9_RD_15_0.png","C_Dist_300_LN_20_LD_25_RN_13_RD_26_0.png","C_Dist_300_LN_20_LD_25_RN_14_RD_28_0.png","C_Dist_300_LN_20_LD_25_RN_5_RD_10_0.png","C_Dist_300_LN_20_LD_25_RN_8_RD_16_0.png","C_Dist_300_LN_20_LD_25_RN_9_RD_18_0.png","C_Dist_300_LN_24_LD_30_RN_2_RD_4_0.png","C_Dist_300_LN_24_LD_30_RN_8_RD_16_0.png","C_Dist_300_LN_3_LD_6_RN_2_RD_10_0.png","C_Dist_300_LN_4_LD_10_RN_1_RD_10_0.png","C_Dist_300_LN_4_LD_5_RN_2_RD_4_0.png","C_Dist_300_LN_8_LD_16_RN_1_RD_5_0.png","C_Dist_300_LN_9_LD_10_RN_3_RD_5_0.png"],["C_Dist_300_LN_1_LD_20_RN_7_RD_20_1.png","C_Dist_300_LN_1_LD_3_RN_19_RD_30_1.png","C_Dist_300_LN_1_LD_30_RN_8_RD_24_1.png","C_Dist_300_LN_1_LD_5_RN_11_RD_22_1.png","C_Dist_300_LN_1_LD_5_RN_3_RD_6_1.png","C_Dist_300_LN_1_LD_5_RN_6_RD_12_1.png","C_Dist_300_LN_2_LD_10_RN_12_RD_24_1.png","C_Dist_300_LN_2_LD_20_RN_10_RD_25_1.png","C_Dist_300_LN_3_LD_12_RN_11_RD_20_1.png","C_Dist_300_LN_3_LD_6_RN_4_RD_5_1.png","C_Dist_300_LN_4_LD_20_RN_13_RD_26_1.png","C_Dist_300_LN_5_LD_25_RN_6_RD_12_1.png","C_Dist_300_LN_5_LD_25_RN_7_RD_14_1.png","C_Dist_300_LN_7_LD_14_RN_20_RD_25_1.png","C_Dist_300_LN_8_LD_15_RN_10_RD_12_1.png"]],"dist300_I":[["I_Dist_300_LN_1_LD_2_RN_2_RD_10_0.png","I_Dist_300_LN_1_LD_2_RN_3_RD_15_0.png","I_Dist_300_LN_2_LD_4_RN_6_RD_30_0.png","I_Dist_300_LN_3_LD_6_RN_4_RD_20_0.png","I_Dist_300_LN_4_LD_5_RN_6_RD_12_0.png","I_Dist_300_LN_4_LD_5_RN_8_RD_16_0.png","I_Dist_300_LN_7_LD_10_RN_8_RD_20_0.png","I_Dist_300_LN_8_LD_10_RN_14_RD_28_0.png","I_Dist_300_LN_8_LD_10_RN_9_RD_18_0.png"],["I_Dist_300_LN_13_LD_26_RN_12_RD_15_1.png","I_Dist_300_LN_4_LD_20_RN_2_RD_4_1.png"]],"dist300_S":[["E_Dist_300_LN_9_LD_12_RN_9_RD_20_0.png"],["E_Dist_300_LN_18_LD_30_RN_18_RD_20_1.png","E_Dist_300_LN_3_LD_10_RN_3_RD_5_1.png","E_Dist_300_LN_9_LD_20_RN_9_RD_12_1.png"]],"dist500_C":[["C_Dist_500_LN_10_LD_13_RN_7_RD_26_0.png","C_Dist_500_LN_10_LD_15_RN_4_RD_24_0.png","C_Dist_500_LN_12_LD_16_RN_3_RD_12_0.png","C_Dist_500_LN_12_LD_18_RN_4_RD_24_0.png","C_Dist_500_LN_15_LD_18_RN_5_RD_15_0.png","C_Dist_500_LN_15_LD_20_RN_1_RD_4_0.png","C_Dist_500_LN_18_LD_27_RN_1_RD_6_0.png","C_Dist_500_LN_20_LD_24_RN_1_RD_3_0.png","C_Dist_500_LN_20_LD_24_RN_3_RD_9_0.png","C_Dist_500_LN_20_LD_24_RN_7_RD_21_0.png","C_Dist_500_LN_20_LD_28_RN_3_RD_14_0.png","C_Dist_500_LN_21_LD_28_RN_6_RD_24_0.png","C_Dist_500_LN_22_LD_28_RN_2_RD_7_0.png","C_Dist_500_LN_25_LD_30_RN_9_RD_27_0.png","C_Dist_500_LN_4_LD_6_RN_1_RD_6_0.png","C_Dist_500_LN_5_LD_6_RN_2_RD_6_0.png","C_Dist_500_LN_6_LD_9_RN_1_RD_6_0.png","C_Dist_500_LN_7_LD_10_RN_1_RD_5_0.png","C_Dist_500_LN_8_LD_12_RN_1_RD_6_0.png","C_Dist_500_LN_8_LD_12_RN_4_RD_24_0.png"],["C_Dist_500_LN_1_LD_4_RN_12_RD_16_1.png","C_Dist_500_LN_1_LD_4_RN_9_RD_12_1.png","C_Dist_500_LN_1_LD_9_RN_11_RD_18_1.png","C_Dist_500_LN_10_LD_24_RN_22_RD_24_1.png","C_Dist_500_LN_2_LD_12_RN_10_RD_15_1.png","C_Dist_500_LN_2_LD_12_RN_12_RD_18_1.png","C_Dist_500_LN_2_LD_12_RN_4_RD_6_1.png","C_Dist_500_LN_2_LD_24_RN_7_RD_12_1.png","C_Dist_500_LN_2_LD_5_RN_18_RD_20_1.png","C_Dist_500_LN_2_LD_5_RN_9_RD_10_1.png","C_Dist_500_LN_2_LD_8_RN_12_RD_16_1.png","C_Dist_500_LN_2_LD_8_RN_21_RD_28_1.png","C_Dist_500_LN_3_LD_10_RN_4_RD_5_1.png","C_Dist_500_LN_3_LD_12_RN_15_RD_20_1.png","C_Dist_500_LN_3_LD_30_RN_6_RD_10_1.png","C_Dist_500_LN_3_LD_8_RN_14_RD_16_1.png","C_Dist_500_LN_4_LD_16_RN_15_RD_20_1.png","C_Dist_500_LN_4_LD_24_RN_12_RD_18_1.png","C_Dist_500_LN_5_LD_14_RN_6_RD_7_1.png","C_Dist_500_LN_7_LD_21_RN_20_RD_24_1.png","C_Dist_500_LN_7_LD_28_RN_12_RD_16_1.png","C_Dist_500_LN_7_LD_28_RN_9_RD_12_1.png","C_Dist_500_LN_9_LD_27_RN_20_RD_24_1.png"]],"dist500_I":[["I_Dist_500_LN_2_LD_3_RN_4_RD_24_0.png","I_Dist_500_LN_5_LD_6_RN_6_RD_18_0.png","I_Dist_500_LN_7_LD_8_RN_9_RD_24_0.png"],["I_Dist_500_LN_7_LD_21_RN_5_RD_6_1.png"]],"dist500_S":[["E_Dist_500_LN_6_LD_8_RN_6_RD_24_0.png"],["E_Dist_500_LN_2_LD_12_RN_2_RD_3_1.png","E_Dist_500_LN_6_LD_24_RN_6_RD_8_1.png"]]}},{"start_time":1551793954129,"click_time":1551793955437,"finger_time":1551793955177,"fix_duration":250,"trial":1,"RT":1048,"MT":260,"sideResp":1,"stimulus":[],"xmouse":[792,792,792,792,792,792,792,792,792,792,792,792,792,792,792,792,792,792,792,792,792,792,792,792,792,792,792,792,792,792,792,792,792,784,782,782,782,782,782,782,782,782,782,782,782,782,782,782,782,782,782,782,756,685,644,609,583,555,545,540,539,537,535,528,526,524],"ymouse":[532,532,532,532,532,532,532,532,532,532,532,532,532,532,532,532,532,532,532,532,532,532,532,532,532,532,532,532,532,532,532,532,531,521,519,519,519,519,519,519,519,519,519,519,519,519,519,519,519,519,519,517,456,277,200,148,112,73,61,57,56,56,54,52,52,52],"timestamp_mouse":[9,28,47,67,88,107,128,147,167,187,208,228,248,267,288,308,327,348,367,388,407,428,448,468,488,507,528,548,567,587,608,628,647,668,688,707,727,748,768,787,807,827,848,867,888,908,928,949,969,988,1007,1027,1048,1067,1087,1109,1127,1148,1167,1187,1207,1227,1248,1267,1287,1307],"xSR":741.5,"ySR":469.95,"xT1":424.9,"yT1":0,"xT2":1058.1,"yT2":0,"toosoon":0,"cond_shown":"Incongruent","ratio_trial":300,"L_num":2,"L_den":4,"R_num":6,"R_den":30,"correct_side":1,"subjID":"NicoleBecerraForero37","gender":"1","school":"6","age":"11"},{"start_time":1551793958559,"click_time":1551793960037,"finger_time":1551793959636,"fix_duration":880.800537831875,"trial":2,"RT":1077,"MT":401,"sideResp":2,"stimulus":[],"xmouse":[782,782,782,782,782,782,782,782,782,782,782,782,782,782,782,782,782,782,782,782,782,782,782,782,782,782,782,782,782,782,782,782,782,782,782,782,782,782,782,782,782,782,782,782,782,782,782,782,782,782,782,808,828,845,858,893,923,961,996,1012,1023,1024,1025,1027,1030,1032,1040,1042,1044,1044,1045,1049,1055,1060],"ymouse":[548,548,548,548,548,548,548,548,548,548,548,548,548,548,548,548,548,548,548,548,548,548,548,548,548,548,548,548,548,548,548,548,548,548,548,548,548,548,548,548,548,548,548,548,548,548,548,548,548,548,548,510,487,467,450,406,373,330,287,264,238,233,225,212,199,178,138,121,112,111,110,106,101,97],"timestamp_mouse":[18,37,58,77,97,117,138,157,179,197,218,238,258,278,297,317,338,358,377,398,417,438,458,479,497,518,538,558,577,597,618,637,657,677,698,719,738,757,778,798,819,837,857,877,897,918,938,957,978,997,1017,1037,1057,1077,1098,1118,1137,1158,1178,1197,1218,1237,1257,1277,1298,1318,1337,1357,1377,1398,1417,1438,1457,1477],"xSR":741.5,"ySR":469.95,"xT1":424.9,"yT1":0,"xT2":1058.1,"yT2":0,"toosoon":0,"cond_shown":"Congruent","ratio_trial":200,"L_num":8,"L_den":15,"R_num":3,"R_den":9,"correct_side":1,"subjID":"NicoleBecerraForero37","gender":"1","school":"6","age":"11"},{"start_time":1551793964111,"click_time":1551793965076,"finger_time":1551793964757,"fix_duration":633.1645494306888,"trial":3,"RT":646,"MT":319,"sideResp":1,"stimulus":[],"xmouse":[808,808,808,808,808,808,808,808,808,808,808,808,808,808,808,808,807,807,805,805,804,804,804,804,804,804,804,804,804,802,796,782,759,687,611,584,561,547,537,531,531,531,530,529,525,520,515,510,504],"ymouse":[507,507,507,507,507,507,507,507,507,507,507,507,507,507,507,507,507,507,506,505,504,504,504,504,504,504,504,504,504,502,495,476,443,342,238,197,166,145,132,126,125,125,125,123,118,115,110,104,97],"timestamp_mouse":[7,26,45,65,85,105,126,146,165,186,206,225,245,266,286,306,326,345,365,385,405,425,446,465,485,505,525,546,566,585,605,625,646,666,685,705,725,745,767,785,806,826,845,865,885,906,925,946,965],"xSR":741.5,"ySR":469.95,"xT1":424.9,"yT1":0,"xT2":1058.1,"yT2":0,"toosoon":0,"cond_shown":"Congruent","ratio_trial":200,"L_num":13,"L_den":26,"R_num":14,"R_den":20,"correct_side":2,"subjID":"NicoleBecerraForero37","gender":"1","school":"6","age":"11"},{"start_time":1551793966940,"click_time":1551793967837,"finger_time":1551793967436,"fix_duration":501.59044073559403,"trial":4,"RT":496,"MT":401,"sideResp":1,"stimulus":[],"xmouse":[788,786,780,777,776,774,774,773,773,773,773,773,773,773,773,773,773,773,773,772,769,765,754,745,732,711,682,609,578,559,545,535,531,526,523,520,519,518,518,518,517,514,505,499,494],"ymouse":[550,545,534,529,526,523,522,522,522,522,522,522,522,522,522,522,522,522,521,521,516,508,489,475,457,427,386,286,242,214,193,172,163,153,148,145,143,142,142,141,139,133,113,103,92],"timestamp_mouse":[17,36,56,76,96,116,137,157,178,197,217,236,256,276,296,317,336,358,377,397,416,437,456,476,496,516,536,556,576,597,616,637,656,676,696,716,736,756,776,796,816,836,856,876,897],"xSR":741.5,"ySR":469.95,"xT1":424.9,"yT1":0,"xT2":1058.1,"yT2":0,"toosoon":0,"cond_shown":"Incongruent","ratio_trial":200,"L_num":6,"L_den":20,"R_num":3,"R_den":6,"correct_side":2,"subjID":"NicoleBecerraForero37","gender":"1","school":"6","age":"11"},{"start_time":1551793969640,"click_time":1551793971198,"finger_time":1551793970576,"fix_duration":762.8588198978167,"trial":5,"RT":936,"MT":622,"sideResp":2,"stimulus":[],"xmouse":[790,789,789,789,789,789,787,785,785,785,785,785,785,785,785,785,785,785,785,785,785,785,785,785,785,785,785,785,785,785,785,785,785,785,785,785,785,785,785,785,785,785,785,786,789,799,824,884,900,910,914,919,926,929,934,939,944,953,960,963,966,969,976,982,987,993,998,1017,1035,1054,1069,1079,1090,1091,1092,1094,1096,1097],"ymouse":[525,524,524,524,524,523,520,518,518,518,518,518,518,518,517,517,517,517,517,517,517,517,517,517,517,517,517,517,517,517,517,517,517,517,517,517,517,517,517,517,517,517,517,514,508,489,445,369,340,324,316,309,296,288,277,269,250,226,209,198,186,175,152,143,132,126,122,116,111,109,107,105,103,103,103,102,100,99],"timestamp_mouse":[16,37,56,77,97,116,136,156,176,197,217,236,258,276,297,316,336,357,376,398,417,437,456,476,496,516,536,556,577,597,617,636,656,677,697,717,738,756,776,798,817,836,856,876,897,916,936,956,976,996,1016,1037,1056,1077,1096,1118,1137,1157,1176,1196,1216,1236,1256,1277,1297,1316,1336,1356,1376,1396,1417,1437,1456,1476,1496,1516,1536,1558],"xSR":741.5,"ySR":469.95,"xT1":424.9,"yT1":0,"xT2":1058.1,"yT2":0,"toosoon":0,"cond_shown":"Incongruent","ratio_trial":200,"L_num":7,"L_den":10,"R_num":8,"R_den":16,"correct_side":1,"subjID":"NicoleBecerraForero37","gender":"1","school":"6","age":"11"},{"start_time":1551793972628,"click_time":1551793975296,"finger_time":1551793974296,"fix_duration":250,"trial":6,"RT":1668,"MT":1000,"sideResp":2,"stimulus":[],"xmouse":[781,781,781,781,781,781,781,781,781,781,781,781,781,781,781,781,781,781,781,781,781,781,781,781,781,781,781,781,781,781,781,781,781,781,781,781,781,781,781,781,781,781,781,781,781,781,781,781,781,781,781,781,781,781,781,781,781,781,781,781,781,781,781,781,781,781,781,781,781,781,781,781,781,781,781,781,781,781,781,781,781,781,784,789,789,787,776,755,752,751,751,751,757,762,767,777,780,789,797,800,800,801,801,802,803,808,813,819,836,844,853,862,868,876,882,890,905,920,951,961,964,967,969,977,982,991,1004,1028,1057,1061,1062,1062,1063,1071],"ymouse":[498,498,498,498,498,498,498,498,498,498,498,498,498,498,498,498,498,498,498,498,498,498,498,498,498,498,498,498,498,498,498,498,498,498,498,498,498,498,498,498,498,498,498,498,498,498,498,498,498,498,498,498,498,498,498,498,498,498,498,498,498,498,498,498,498,498,498,498,498,498,498,498,498,498,498,498,498,498,498,498,498,498,496,462,421,368,322,289,286,284,281,278,270,264,259,248,244,236,229,227,226,225,225,224,222,219,217,212,200,191,182,174,170,165,162,157,152,145,124,117,115,114,114,113,113,111,109,105,104,104,104,104,103,98],"timestamp_mouse":[9,29,49,69,88,108,128,149,169,188,209,229,248,269,289,309,328,349,369,389,409,429,449,470,489,508,528,550,568,589,609,629,649,668,688,709,728,749,769,788,810,830,848,869,888,909,929,949,968,989,1008,1029,1048,1068,1088,1108,1128,1150,1169,1189,1208,1228,1248,1268,1288,1308,1328,1348,1368,1389,1410,1428,1448,1469,1488,1508,1529,1548,1568,1588,1608,1628,1648,1668,1688,1708,1728,1750,1768,1788,1808,1829,1849,1868,1889,1908,1929,1948,1969,1988,2008,2028,2048,2068,2089,2108,2129,2148,2168,2188,2208,2228,2250,2268,2288,2308,2329,2348,2369,2388,2408,2428,2448,2468,2488,2509,2528,2549,2568,2588,2608,2628,2649,2668],"xSR":741.5,"ySR":469.95,"xT1":424.9,"yT1":0,"xT2":1058.1,"yT2":0,"toosoon":0,"cond_shown":"Incongruent","ratio_trial":200,"L_num":7,"L_den":15,"R_num":4,"R_den":6,"correct_side":2,"subjID":"NicoleBecerraForero37","gender":"1","school":"6","age":"11"},{"start_time":1551793977881,"click_time":1551793979818,"finger_time":1551793979376,"fix_duration":824.8955334143598,"trial":7,"RT":1495,"MT":442,"sideResp":1,"stimulus":[],"xmouse":[793,793,793,793,793,793,793,793,793,793,793,793,793,793,793,793,793,793,793,793,793,793,793,793,793,793,793,793,793,793,793,793,793,793,793,793,793,793,793,793,793,793,793,793,793,793,793,793,793,793,793,793,793,793,793,793,793,793,793,793,793,793,793,793,793,793,793,793,793,793,793,793,788,780,755,726,709,697,687,682,669,661,649,638,607,590,572,554,538,525,513,511,511,509,508,507,506],"ymouse":[510,510,510,510,510,510,510,510,510,510,510,510,510,510,510,510,510,510,510,510,510,510,510,510,510,510,510,510,510,510,510,510,510,510,510,510,510,510,510,510,510,510,510,510,510,510,510,510,510,510,510,510,510,510,510,510,510,510,510,510,510,510,510,510,510,510,510,510,510,510,510,510,495,473,410,345,307,282,266,257,234,221,207,194,162,148,137,129,121,117,113,111,111,111,107,101,98],"timestamp_mouse":[16,35,57,75,96,115,135,155,176,197,215,235,255,275,296,316,335,355,376,395,415,436,455,475,497,515,536,556,575,596,617,636,656,676,696,715,736,755,775,795,815,835,855,876,895,915,935,955,976,997,1016,1036,1055,1076,1097,1117,1135,1155,1176,1197,1215,1235,1256,1276,1295,1315,1336,1357,1375,1395,1415,1435,1455,1475,1495,1515,1535,1555,1576,1595,1615,1635,1655,1675,1696,1715,1735,1756,1776,1796,1815,1835,1856,1875,1895,1915,1937],"xSR":741.5,"ySR":469.95,"xT1":424.9,"yT1":0,"xT2":1058.1,"yT2":0,"toosoon":0,"cond_shown":"Incongruent","ratio_trial":200,"L_num":7,"L_den":10,"R_num":14,"R_den":28,"correct_side":1,"subjID":"NicoleBecerraForero37","gender":"1","school":"6","age":"11"},{"start_time":1551793981923,"click_time":1551793983777,"finger_time":1551793983436,"fix_duration":1045.1406452492868,"trial":8,"RT":1513,"MT":341,"sideResp":2,"stimulus":[],"xmouse":[829,829,829,829,829,829,829,829,829,829,829,829,829,829,829,829,829,829,829,829,829,829,829,829,829,829,829,829,829,829,829,829,829,829,829,829,829,829,829,829,829,829,829,829,829,829,829,829,829,829,829,829,829,829,829,829,829,829,829,829,829,829,829,829,829,829,829,829,829,829,829,829,829,830,839,855,879,937,957,969,973,976,982,1007,1022,1032,1040,1049,1069,1076,1086,1088,1092],"ymouse":[532,532,532,532,532,532,532,532,532,532,532,532,532,532,532,532,532,532,532,532,532,532,532,532,532,532,532,532,532,532,532,532,532,532,532,532,532,532,532,532,532,532,532,532,532,532,532,532,532,532,532,532,532,532,532,532,532,532,532,532,532,532,532,532,532,532,532,532,532,532,532,532,532,532,524,502,466,358,312,276,255,243,227,199,187,176,165,151,124,115,103,101,95],"timestamp_mouse":[13,35,54,74,93,115,133,154,174,194,214,234,254,273,294,313,334,354,374,395,414,434,454,474,493,514,533,553,573,594,613,633,653,675,693,714,735,753,773,793,814,834,853,874,893,914,933,954,974,994,1014,1033,1053,1074,1094,1114,1134,1153,1174,1193,1214,1234,1253,1274,1294,1314,1335,1353,1373,1395,1414,1434,1453,1473,1493,1513,1533,1555,1573,1593,1614,1634,1653,1673,1693,1713,1734,1753,1773,1794,1813,1833,1853],"xSR":741.5,"ySR":469.95,"xT1":424.9,"yT1":0,"xT2":1058.1,"yT2":0,"toosoon":0,"cond_shown":"Congruent","ratio_trial":100,"L_num":2,"L_den":5,"R_num":11,"R_den":22,"correct_side":2,"subjID":"NicoleBecerraForero37","gender":"1","school":"6","age":"11"},{"start_time":1551793985009,"click_time":1551793986376,"finger_time":1551793985896,"fix_duration":250,"trial":9,"RT":887,"MT":480,"sideResp":2,"stimulus":[],"xmouse":[813,813,813,813,813,813,813,813,813,813,813,813,813,813,813,813,813,813,813,813,813,813,813,813,813,813,813,813,813,813,813,813,813,813,813,813,813,813,813,813,813,815,819,835,889,923,961,970,985,999,1004,1008,1015,1021,1036,1040,1044,1047,1048,1054,1054,1055,1056,1056,1059,1061,1063,1065,1069],"ymouse":[488,488,488,488,488,488,488,488,488,488,488,488,488,488,488,488,488,488,488,488,488,488,488,488,488,488,488,488,488,488,488,488,488,488,488,488,488,488,488,488,488,489,487,472,417,379,332,322,298,274,267,258,246,231,196,183,174,164,155,137,131,125,121,118,110,108,106,103,99],"timestamp_mouse":[7,27,47,68,88,108,128,147,168,188,209,228,247,267,287,307,327,347,367,387,408,427,449,467,487,508,527,547,567,587,607,627,647,668,688,708,727,747,767,787,807,828,847,867,887,907,927,948,967,987,1007,1027,1047,1068,1087,1107,1127,1147,1167,1188,1207,1228,1248,1267,1287,1307,1327,1347,1367],"xSR":741.5,"ySR":469.95,"xT1":424.9,"yT1":0,"xT2":1058.1,"yT2":0,"toosoon":0,"cond_shown":"Incongruent","ratio_trial":200,"L_num":4,"L_den":6,"R_num":14,"R_den":30,"correct_side":1,"subjID":"NicoleBecerraForero37","gender":"1","school":"6","age":"11"},{"start_time":1551793987807,"click_time":1551793989597,"finger_time":1551793989316,"fix_duration":250,"trial":10,"RT":1509,"MT":281,"sideResp":1,"stimulus":[],"xmouse":[771,771,771,771,771,771,771,771,771,771,771,771,771,771,771,771,771,771,771,771,771,771,771,771,771,771,771,771,771,771,771,771,771,771,771,771,771,771,771,771,771,771,771,771,771,771,771,771,771,771,771,771,771,771,771,771,771,771,771,771,771,771,771,771,771,771,771,771,771,771,771,771,771,771,767,751,732,706,673,640,625,605,589,574,551,543,535,531,520,504],"ymouse":[507,507,507,507,507,507,507,507,507,507,507,507,507,507,507,507,507,507,507,507,507,507,507,507,507,507,507,507,507,507,507,507,507,507,507,507,507,507,507,507,507,507,507,507,507,507,507,507,507,507,507,507,507,507,507,507,507,507,507,507,507,507,507,507,507,507,507,507,507,507,507,507,507,507,491,437,366,299,230,182,168,155,147,141,135,132,129,125,114,94],"timestamp_mouse":[9,34,50,70,90,110,130,149,169,189,209,230,249,269,289,309,329,349,369,389,409,429,449,469,489,510,529,550,571,589,609,629,649,669,689,709,729,749,770,789,810,829,854,869,889,909,929,949,969,990,1010,1029,1049,1070,1090,1109,1129,1149,1169,1189,1210,1230,1249,1269,1289,1311,1330,1349,1369,1389,1410,1431,1449,1470,1489,1509,1529,1549,1569,1589,1609,1629,1649,1669,1689,1709,1730,1750,1769,1789],"xSR":741.5,"ySR":469.95,"xT1":424.9,"yT1":0,"xT2":1058.1,"yT2":0,"toosoon":0,"cond_shown":"Incongruent","ratio_trial":200,"L_num":7,"L_den":10,"R_num":8,"R_den":16,"correct_side":1,"subjID":"NicoleBecerraForero37","gender":"1","school":"6","age":"11"},{"start_time":1551793990790,"click_time":1551793992479,"finger_time":1551793991997,"fix_duration":293.789361687114,"trial":11,"RT":1207,"MT":482,"sideResp":2,"stimulus":[],"xmouse":[757,757,757,757,757,757,757,757,757,757,757,757,757,757,757,757,757,757,757,757,757,757,757,757,757,757,757,757,757,757,757,757,757,757,757,757,757,757,757,757,757,757,757,757,757,757,757,757,757,757,757,757,757,757,757,759,768,778,787,798,816,822,830,843,856,894,910,926,945,963,980,986,995,1003,1013,1030,1037,1042,1047,1051,1056,1058,1059,1060,1064],"ymouse":[529,529,529,529,529,529,529,529,529,529,529,529,529,529,529,529,529,529,529,529,529,529,529,529,529,529,529,529,529,529,529,529,529,529,529,529,529,529,529,529,529,529,529,529,529,529,529,529,529,529,529,529,529,529,529,528,519,509,499,485,466,456,445,429,411,359,335,306,274,241,212,202,190,180,171,155,148,141,133,125,115,112,109,105,95],"timestamp_mouse":[10,26,46,67,87,107,126,146,166,188,207,227,246,266,286,307,327,346,366,386,407,429,447,467,487,507,529,548,568,589,608,627,647,669,687,707,727,747,767,788,809,828,848,868,887,909,928,947,968,989,1008,1027,1048,1068,1087,1107,1128,1148,1168,1187,1207,1228,1248,1268,1288,1307,1327,1347,1367,1388,1408,1427,1448,1467,1488,1507,1527,1548,1569,1588,1607,1627,1647,1667,1689],"xSR":741.5,"ySR":469.95,"xT1":424.9,"yT1":0,"xT2":1058.1,"yT2":0,"toosoon":0,"cond_shown":"Incongruent","ratio_trial":100,"L_num":11,"L_den":22,"R_num":9,"R_den":15,"correct_side":2,"subjID":"NicoleBecerraForero37","gender":"1","school":"6","age":"11"},{"start_time":1551793996697,"click_time":1551793998578,"finger_time":1551793998097,"fix_duration":379.7086243958623,"trial":12,"RT":1400,"MT":481,"sideResp":1,"stimulus":[],"xmouse":[806,809,811,812,813,813,813,813,813,813,813,813,813,813,813,808,804,800,795,794,794,794,794,794,794,794,794,794,794,794,794,794,794,794,794,794,794,794,794,794,794,794,794,794,794,794,794,794,794,794,794,794,794,794,794,794,794,794,794,794,794,794,794,794,794,794,794,794,794,785,750,723,702,696,694,693,692,690,689,679,671,658,641,625,594,554,536,518,504,488,460,453,449,449,452],"ymouse":[563,564,564,564,564,564,564,564,564,564,564,564,564,564,562,552,545,537,531,530,530,530,530,530,530,530,530,530,530,530,530,530,530,530,530,530,530,530,530,530,530,530,530,530,530,530,530,530,530,530,530,530,530,530,530,530,530,530,530,530,530,530,530,530,530,530,530,527,521,493,388,319,268,250,243,229,222,217,213,201,196,192,186,183,178,167,165,161,154,146,127,121,111,106,97],"timestamp_mouse":[2,25,44,62,80,100,120,140,160,181,201,221,240,260,280,301,320,340,360,380,401,421,441,460,480,500,520,540,560,581,600,621,641,660,680,702,721,741,760,780,802,821,842,860,881,900,921,942,960,980,1000,1020,1040,1061,1081,1101,1121,1141,1160,1180,1200,1221,1241,1261,1281,1302,1321,1341,1360,1381,1400,1421,1441,1460,1481,1500,1520,1541,1561,1582,1600,1620,1641,1660,1681,1700,1720,1741,1761,1780,1800,1820,1840,1861,1880],"xSR":741.5,"ySR":469.95,"xT1":424.9,"yT1":0,"xT2":1058.1,"yT2":0,"toosoon":0,"cond_shown":"Congruent","ratio_trial":300,"L_num":4,"L_den":5,"R_num":2,"R_den":4,"correct_side":1,"subjID":"NicoleBecerraForero37","gender":"1","school":"6","age":"11"},{"start_time":1551793999879,"click_time":1551794001959,"finger_time":1551794001097,"fix_duration":519.9535292566976,"trial":13,"RT":1218,"MT":862,"sideResp":2,"stimulus":[],"xmouse":[777,777,777,777,777,777,777,777,777,777,777,777,777,777,777,777,777,777,777,777,777,777,777,777,777,777,777,777,777,777,777,777,777,777,777,777,777,777,777,777,777,777,777,777,777,777,777,777,777,777,777,777,777,777,777,777,777,777,777,777,770,760,748,735,715,689,680,675,673,671,671,671,671,671,671,671,671,671,674,689,699,708,716,725,742,770,788,811,840,869,935,953,977,1000,1026,1055,1066,1072,1076,1084,1087,1092,1099,1102],"ymouse":[486,486,486,486,486,486,486,486,486,486,486,486,486,486,486,486,486,486,486,486,486,486,486,486,486,486,486,486,486,486,486,486,486,486,486,486,486,486,486,486,486,486,486,486,486,486,486,486,486,486,486,486,486,486,486,486,486,486,486,483,465,446,430,411,377,331,317,309,305,300,300,300,300,300,300,300,300,302,308,333,346,358,366,374,385,393,393,382,366,340,279,263,247,234,215,192,182,176,170,158,149,134,110,88],"timestamp_mouse":[28,39,59,78,99,119,139,158,179,198,218,239,258,280,298,319,338,359,380,398,418,439,458,480,500,518,539,558,578,599,619,638,659,678,699,720,739,759,778,800,818,838,859,878,898,918,939,959,980,998,1019,1038,1058,1079,1099,1120,1139,1158,1179,1199,1218,1239,1259,1278,1298,1318,1338,1358,1378,1400,1418,1439,1458,1478,1498,1519,1538,1559,1578,1600,1618,1638,1658,1678,1699,1720,1738,1758,1778,1798,1818,1838,1858,1878,1898,1918,1938,1958,1979,1999,2018,2038,2059,2079],"xSR":741.5,"ySR":469.95,"xT1":424.9,"yT1":0,"xT2":1058.1,"yT2":0,"toosoon":0,"cond_shown":"Congruent","ratio_trial":300,"L_num":2,"L_den":10,"R_num":12,"R_den":24,"correct_side":2,"subjID":"NicoleBecerraForero37","gender":"1","school":"6","age":"11"},{"start_time":1551794004066,"click_time":1551794005897,"finger_time":1551794005518,"fix_duration":1026.2213437805865,"trial":14,"RT":1452,"MT":379,"sideResp":2,"stimulus":[],"xmouse":[794,794,794,794,794,794,794,794,794,794,794,794,794,794,794,794,794,794,794,794,794,794,794,794,794,794,794,794,794,794,794,794,794,794,794,794,794,794,794,794,794,794,794,794,794,794,794,794,794,794,794,794,794,794,794,794,794,794,794,794,794,794,794,794,794,794,794,794,794,794,794,810,844,903,971,1041,1084,1095,1104,1114,1134,1146,1157,1168,1176,1176,1176,1176,1174,1167,1162,1151],"ymouse":[515,515,515,515,515,515,515,515,515,515,515,515,515,515,515,515,515,515,515,515,515,515,515,515,515,515,515,515,515,515,515,515,515,515,515,515,515,515,515,515,515,515,515,515,515,515,515,515,515,515,515,515,515,515,515,515,515,515,515,515,515,515,515,515,515,515,515,515,515,515,513,494,464,418,372,317,259,239,221,206,169,147,124,104,85,78,77,75,72,69,66,63],"timestamp_mouse":[11,31,52,71,91,112,131,151,171,192,211,231,252,271,291,312,331,351,373,392,413,431,452,471,492,511,532,551,573,592,612,633,652,671,691,713,731,753,772,792,811,832,852,872,892,911,932,951,971,992,1013,1032,1051,1071,1091,1112,1131,1152,1172,1191,1212,1231,1252,1273,1291,1312,1331,1351,1372,1393,1411,1431,1452,1471,1491,1512,1532,1551,1571,1591,1612,1631,1652,1672,1691,1712,1731,1751,1772,1792,1811,1831],"xSR":741.5,"ySR":469.95,"xT1":424.9,"yT1":0,"xT2":1058.1,"yT2":0,"toosoon":0,"cond_shown":"Congruent","ratio_trial":200,"L_num":3,"L_den":10,"R_num":7,"R_den":14,"correct_side":2,"subjID":"NicoleBecerraForero37","gender":"1","school":"6","age":"11"},{"start_time":1551794007734,"click_time":1551794009677,"finger_time":1551794009537,"fix_duration":755.6239604653672,"trial":15,"RT":1803,"MT":140,"sideResp":1,"stimulus":[],"xmouse":[788,788,788,788,788,788,788,788,788,788,788,788,788,788,788,788,788,788,788,788,788,788,788,788,788,788,788,788,788,788,788,788,788,788,788,788,788,788,788,788,788,788,788,788,788,788,788,788,788,788,788,788,788,788,788,788,788,788,788,788,788,788,788,788,788,788,788,788,788,788,788,788,788,788,788,788,788,788,788,788,788,788,788,788,788,788,788,788,788,784,775,762,725,659,616,574,530,496],"ymouse":[484,484,484,484,484,484,484,484,484,484,484,484,484,484,484,484,484,484,484,484,484,484,484,484,484,484,484,484,484,484,484,484,484,484,484,484,484,484,484,484,484,484,484,484,484,484,484,484,484,484,484,484,484,484,484,484,484,484,484,484,484,484,484,484,484,484,484,484,484,484,484,484,484,484,484,484,484,484,484,484,484,484,484,484,484,484,484,484,485,479,464,444,390,297,234,174,116,78],"timestamp_mouse":[13,25,45,63,84,105,123,144,165,184,204,224,244,263,283,303,325,343,363,384,403,423,445,463,483,503,524,543,563,584,604,623,645,663,684,704,725,744,763,783,803,825,843,864,884,904,925,944,964,983,1003,1023,1044,1064,1084,1103,1124,1143,1164,1184,1203,1224,1244,1263,1284,1303,1323,1343,1364,1383,1404,1423,1444,1463,1483,1503,1524,1544,1563,1584,1603,1623,1643,1663,1685,1704,1723,1745,1763,1784,1803,1823,1843,1863,1883,1903,1924,1943],"xSR":741.5,"ySR":469.95,"xT1":424.9,"yT1":0,"xT2":1058.1,"yT2":0,"toosoon":0,"cond_shown":"Congruent","ratio_trial":100,"L_num":6,"L_den":20,"R_num":5,"R_den":25,"correct_side":1,"subjID":"NicoleBecerraForero37","gender":"1","school":"6","age":"11"},{"start_time":1551794011473,"click_time":1551794013178,"finger_time":1551794012858,"fix_duration":614.0147348215459,"trial":16,"RT":1385,"MT":320,"sideResp":1,"stimulus":[],"xmouse":[782,782,782,782,782,782,782,782,782,782,782,782,782,782,782,782,782,782,782,782,782,782,782,782,782,782,782,782,782,782,782,782,782,782,782,782,782,782,782,782,782,782,782,782,782,782,782,782,782,782,782,782,782,782,782,782,782,782,782,782,782,782,782,782,782,782,782,780,769,747,688,668,658,653,644,621,608,590,576,561,549,529,519,506,503,496],"ymouse":[495,495,495,495,495,495,495,495,495,495,495,495,495,495,495,495,495,495,495,495,495,495,495,495,495,495,495,495,495,495,495,495,495,495,495,495,495,495,495,495,495,495,495,495,495,495,495,495,495,495,495,495,495,495,495,495,495,495,495,495,495,495,495,495,495,495,495,494,473,437,346,316,303,295,281,254,241,228,217,207,197,177,161,130,122,99],"timestamp_mouse":[8,35,44,65,85,105,124,144,165,184,204,225,244,265,285,304,325,345,366,386,404,425,444,465,485,504,525,544,565,585,604,624,645,666,684,704,724,744,765,786,805,825,845,865,885,905,926,945,964,985,1005,1024,1046,1065,1084,1106,1124,1146,1164,1184,1204,1225,1245,1264,1284,1304,1325,1344,1364,1385,1405,1424,1445,1464,1484,1505,1524,1544,1564,1584,1604,1624,1645,1664,1686,1705],"xSR":741.5,"ySR":469.95,"xT1":424.9,"yT1":0,"xT2":1058.1,"yT2":0,"toosoon":0,"cond_shown":"Congruent","ratio_trial":100,"L_num":11,"L_den":22,"R_num":4,"R_den":10,"correct_side":1,"subjID":"NicoleBecerraForero37","gender":"1","school":"6","age":"11"},{"start_time":1551794015115,"click_time":1551794017538,"finger_time":1551794017237,"fix_duration":1016.6184197290517,"trial":17,"RT":2122,"MT":301,"sideResp":1,"stimulus":[],"xmouse":[768,768,768,768,768,768,768,768,768,768,768,768,768,768,768,768,768,768,768,768,768,768,768,768,768,768,768,768,768,768,768,768,768,768,768,768,768,768,768,768,768,768,768,768,768,768,768,768,768,768,768,768,768,768,768,768,768,768,768,768,768,768,768,768,768,768,768,768,768,768,768,768,768,768,768,768,768,768,768,768,768,768,768,768,768,768,768,768,768,768,768,768,768,768,768,768,768,768,768,768,768,768,768,768,768,768,765,751,705,678,651,637,629,626,622,619,610,596,581,546,528,509],"ymouse":[548,548,548,548,548,548,548,548,548,548,548,548,548,548,548,548,548,548,548,548,548,548,548,548,548,548,548,548,548,548,548,548,548,548,548,548,548,548,548,548,548,548,548,548,548,548,548,548,548,548,548,548,548,548,548,548,548,548,548,548,548,548,548,548,548,548,548,548,548,548,548,548,548,548,548,548,548,548,548,548,548,548,548,548,548,548,548,548,548,548,548,548,548,548,548,548,548,548,548,548,548,548,548,548,531,491,432,371,246,198,157,139,130,127,126,124,121,117,113,98,90,84],"timestamp_mouse":[9,26,43,64,83,103,122,142,164,182,202,222,243,262,283,303,322,343,362,384,403,423,444,463,484,504,522,544,562,584,602,623,642,662,683,702,722,747,762,783,802,822,843,862,883,902,922,944,963,983,1002,1023,1043,1062,1083,1102,1123,1143,1162,1183,1203,1223,1243,1263,1282,1303,1323,1342,1364,1382,1402,1424,1442,1463,1484,1502,1522,1542,1563,1584,1602,1623,1644,1662,1683,1702,1724,1743,1762,1783,1803,1822,1842,1863,1884,1902,1923,1944,1963,1982,2003,2022,2042,2062,2082,2102,2122,2142,2163,2182,2202,2223,2242,2263,2282,2302,2323,2342,2362,2382,2402,2423],"xSR":741.5,"ySR":469.95,"xT1":424.9,"yT1":0,"xT2":1058.1,"yT2":0,"toosoon":0,"cond_shown":"Incongruent","ratio_trial":300,"L_num":4,"L_den":20,"R_num":2,"R_den":4,"correct_side":2,"subjID":"NicoleBecerraForero37","gender":"1","school":"6","age":"11"},{"start_time":1551794018631,"click_time":1551794023097,"finger_time":1551794021138,"fix_duration":372.4374139120684,"trial":18,"RT":2507,"MT":1959,"sideResp":2,"stimulus":[],"xmouse":[761,761,761,761,761,761,761,761,761,761,761,761,761,761,761,761,761,761,761,761,761,761,761,761,761,761,761,761,761,761,761,761,761,761,761,761,761,761,761,761,761,761,761,761,761,761,761,761,761,761,761,761,761,761,761,761,761,761,761,761,761,761,761,761,761,761,761,761,761,761,761,761,761,761,761,761,761,761,761,761,761,761,761,761,761,761,761,761,761,761,761,761,761,761,761,761,761,761,761,761,761,761,761,761,761,761,761,761,761,761,761,761,761,761,761,761,761,761,761,761,761,761,762,764,772,780,800,836,856,856,856,856,856,856,856,856,856,856,844,826,814,807,805,805,805,805,805,805,805,805,803,800,796,795,793,792,790,790,789,789,789,789,789,789,789,789,789,788,786,785,785,784,784,784,784,784,784,784,784,784,784,784,784,784,784,784,784,784,784,784,784,784,784,784,784,784,784,784,784,784,784,784,794,822,854,888,934,963,997,1009,1015,1020,1033,1040,1046,1053,1060,1062,1064,1064,1067,1070,1073,1082],"ymouse":[527,527,527,527,527,527,527,527,527,527,527,527,527,527,527,527,527,527,527,527,527,527,527,527,527,527,527,527,527,527,527,527,527,527,527,527,527,527,527,527,527,527,527,527,527,527,527,527,527,527,527,527,527,527,527,527,527,527,527,527,527,527,527,527,527,527,527,527,527,527,527,527,527,527,527,527,527,527,527,527,527,527,527,527,527,527,527,527,527,527,527,527,527,527,527,527,527,527,527,527,527,527,527,527,527,527,527,527,527,527,527,527,527,527,527,527,527,527,527,527,527,527,528,539,561,582,620,683,717,717,717,717,717,717,717,717,717,717,686,655,632,617,608,598,595,592,589,586,581,578,576,571,564,561,559,557,555,554,553,553,553,553,553,553,553,553,553,551,546,544,543,542,542,542,542,542,542,542,542,542,541,541,541,541,541,541,541,541,541,541,541,541,541,541,541,541,541,541,541,541,541,541,524,478,434,387,309,266,219,201,192,185,170,160,152,141,132,127,123,120,117,110,105,91],"timestamp_mouse":[9,27,46,68,86,108,127,147,166,186,207,226,247,266,287,306,326,346,368,386,406,427,446,467,486,508,526,547,568,586,606,626,646,668,687,707,726,746,767,787,807,826,847,868,886,906,927,946,967,988,1006,1026,1046,1067,1087,1106,1127,1148,1166,1186,1206,1227,1246,1267,1286,1306,1326,1347,1366,1387,1408,1427,1448,1467,1487,1507,1527,1546,1567,1586,1606,1626,1647,1666,1687,1706,1726,1747,1766,1786,1807,1826,1847,1868,1887,1907,1927,1947,1966,1986,2007,2027,2047,2067,2087,2108,2128,2147,2166,2187,2206,2227,2246,2267,2287,2307,2328,2347,2367,2386,2407,2428,2448,2466,2488,2507,2527,2546,2566,2587,2606,2626,2647,2666,2687,2708,2727,2746,2766,2786,2807,2826,2846,2866,2887,2907,2926,2947,2967,2986,3017,3027,3048,3066,3086,3106,3127,3148,3167,3186,3206,3228,3248,3266,3287,3306,3328,3346,3367,3386,3407,3426,3446,3467,3486,3508,3526,3548,3566,3587,3608,3626,3647,3668,3686,3707,3727,3746,3767,3787,3808,3827,3846,3868,3887,3906,3926,3946,3967,3986,4006,4026,4047,4066,4086,4106,4128,4147,4166,4186,4207,4227,4247,4266,4286,4307,4327,4346,4366,4386,4406,4426,4446,4466],"xSR":741.5,"ySR":469.95,"xT1":424.9,"yT1":0,"xT2":1058.1,"yT2":0,"toosoon":0,"cond_shown":"Incongruent","ratio_trial":100,"L_num":6,"L_den":10,"R_num":7,"R_den":14,"correct_side":1,"subjID":"NicoleBecerraForero37","gender":"1","school":"6","age":"11"},{"start_time":1551794025686,"click_time":1551794026997,"finger_time":1551794026638,"fix_duration":1406.4501766131034,"trial":19,"RT":952,"MT":359,"sideResp":2,"stimulus":[],"xmouse":[806,806,806,806,806,806,806,804,801,799,797,797,797,797,797,797,797,797,797,797,797,797,797,797,797,797,797,797,797,797,797,797,797,797,797,797,797,797,797,797,797,797,797,797,797,803,816,834,860,884,931,949,960,971,984,1008,1019,1030,1038,1042,1051,1058,1064,1069,1081,1084],"ymouse":[530,530,524,524,524,524,522,518,515,513,511,511,511,511,511,511,511,511,511,511,511,511,511,511,511,511,511,511,511,511,511,511,511,511,511,511,511,511,511,511,511,511,511,511,511,501,487,466,437,401,321,292,272,254,233,200,184,172,162,156,143,133,125,117,103,99],"timestamp_mouse":[26,33,52,72,91,112,131,151,172,192,213,232,251,272,291,312,332,351,372,392,411,431,451,471,492,511,531,553,572,593,613,631,653,671,692,713,732,751,771,791,812,831,852,873,891,912,931,952,971,991,1011,1031,1052,1071,1091,1111,1131,1152,1172,1191,1211,1231,1251,1272,1292,1311],"xSR":741.5,"ySR":469.95,"xT1":424.9,"yT1":0,"xT2":1058.1,"yT2":0,"toosoon":0,"cond_shown":"Incongruent","ratio_trial":300,"L_num":13,"L_den":26,"R_num":12,"R_den":15,"correct_side":2,"subjID":"NicoleBecerraForero37","gender":"1","school":"6","age":"11"},{"start_time":1551794029152,"click_time":1551794030297,"finger_time":1551794029937,"fix_duration":1193.9338980198681,"trial":20,"RT":785,"MT":360,"sideResp":1,"stimulus":[],"xmouse":[815,815,815,815,815,815,815,815,815,815,815,815,815,815,815,815,815,815,815,815,815,815,815,815,815,815,815,815,815,815,815,815,815,815,815,815,815,810,798,773,762,691,673,661,649,636,618,610,604,597,591,577,574,567,559,548,524,516],"ymouse":[524,524,524,524,524,524,524,524,524,524,524,524,524,524,524,524,524,524,524,524,524,524,524,524,524,524,524,524,524,524,524,524,524,524,524,524,523,512,492,450,433,331,306,288,271,252,226,216,208,200,193,177,171,162,150,136,107,96],"timestamp_mouse":[9,40,47,65,85,106,125,145,166,185,206,225,246,265,285,305,326,347,366,386,406,425,447,466,485,505,525,547,565,586,605,627,646,666,685,706,725,745,766,785,805,826,845,865,885,906,926,945,965,985,1007,1027,1045,1065,1086,1105,1126,1145],"xSR":741.5,"ySR":469.95,"xT1":424.9,"yT1":0,"xT2":1058.1,"yT2":0,"toosoon":0,"cond_shown":"Congruent","ratio_trial":300,"L_num":11,"L_den":22,"R_num":2,"R_den":10,"correct_side":1,"subjID":"NicoleBecerraForero37","gender":"1","school":"6","age":"11"},{"start_time":1551794033749,"click_time":1551794035057,"finger_time":1551794034738,"fix_duration":828.252584086683,"trial":21,"RT":989,"MT":319,"sideResp":2,"stimulus":[],"xmouse":[784,784,784,784,784,784,784,784,784,784,784,784,784,784,784,784,784,784,784,784,784,784,784,784,784,784,784,784,784,784,784,784,784,784,784,784,784,784,784,784,784,784,784,784,784,784,790,817,840,864,885,914,947,964,984,1001,1021,1048,1059,1068,1071,1073,1081,1087,1093,1096],"ymouse":[520,520,520,520,520,520,520,520,520,520,520,520,520,520,520,520,520,520,520,520,520,520,520,520,520,520,520,520,520,520,520,520,520,520,520,520,520,520,520,520,520,520,520,520,520,520,515,495,477,459,440,410,364,340,313,289,259,205,184,165,158,151,131,118,105,95],"timestamp_mouse":[9,28,48,70,89,108,129,148,168,190,208,228,249,268,288,308,330,348,368,390,409,428,449,469,489,508,529,548,568,589,608,629,650,668,689,709,728,748,768,788,808,829,850,868,888,908,929,948,968,989,1008,1029,1048,1068,1088,1109,1128,1148,1170,1189,1209,1229,1250,1268,1289,1308],"xSR":741.5,"ySR":469.95,"xT1":424.9,"yT1":0,"xT2":1058.1,"yT2":0,"toosoon":0,"cond_shown":"Congruent","ratio_trial":200,"L_num":6,"L_den":12,"R_num":7,"R_den":10,"correct_side":2,"subjID":"NicoleBecerraForero37","gender":"1","school":"6","age":"11"},{"start_time":1551794036653,"click_time":1551794039178,"finger_time":1551794038237,"fix_duration":874.1677630639897,"trial":22,"RT":1584,"MT":941,"sideResp":2,"stimulus":[],"xmouse":[807,807,807,807,807,806,806,806,806,806,806,805,805,805,805,805,805,805,805,805,805,805,805,805,805,805,805,805,805,805,805,805,805,805,805,805,805,805,805,805,805,805,805,805,805,805,805,805,805,805,805,805,805,805,805,805,805,805,805,805,805,805,805,805,805,805,805,805,805,805,805,805,805,805,805,805,805,817,833,856,882,909,971,1003,1030,1056,1066,1077,1080,1082,1086,1100,1103,1103,1103,1103,1103,1103,1103,1102,1101,1100,1099,1098,1098,1097,1096,1095,1095,1095,1095,1095,1095,1095,1094,1094,1094,1094,1094,1094,1094,1093,1093,1093,1093,1093,1093],"ymouse":[531,531,531,531,531,531,531,531,531,531,531,531,531,531,531,531,531,531,531,531,531,531,531,531,531,531,531,531,531,531,531,531,531,531,531,531,531,531,531,531,531,531,531,531,531,531,531,531,531,531,531,531,531,531,531,531,531,531,531,531,531,531,531,531,531,531,531,531,531,531,531,531,531,531,531,531,530,522,512,498,476,453,389,352,322,288,273,249,239,227,206,168,153,144,140,139,138,133,132,130,128,126,123,122,121,120,119,117,116,116,116,115,115,114,112,112,111,109,108,106,105,103,102,101,101,100,99],"timestamp_mouse":[9,24,44,66,84,104,125,144,164,185,204,225,246,265,284,305,326,344,364,386,405,425,446,464,485,504,524,544,564,584,604,624,644,665,684,704,725,744,764,784,804,825,845,865,884,904,924,945,965,984,1005,1026,1044,1065,1085,1104,1125,1146,1165,1186,1205,1225,1246,1266,1284,1305,1324,1346,1365,1385,1404,1425,1445,1465,1484,1505,1524,1545,1564,1584,1604,1624,1644,1664,1684,1704,1725,1745,1764,1784,1804,1825,1844,1865,1885,1905,1924,1946,1964,1984,2004,2024,2045,2064,2085,2104,2124,2144,2164,2185,2204,2225,2245,2266,2286,2304,2324,2344,2364,2386,2405,2425,2444,2465,2484,2504,2525],"xSR":741.5,"ySR":469.95,"xT1":424.9,"yT1":0,"xT2":1058.1,"yT2":0,"toosoon":0,"cond_shown":"Incongruent","ratio_trial":300,"L_num":4,"L_den":20,"R_num":2,"R_den":4,"correct_side":2,"subjID":"NicoleBecerraForero37","gender":"1","school":"6","age":"11"},{"start_time":1551794041948,"click_time":1551794043098,"finger_time":1551794042717,"fix_duration":1450.4291898633792,"trial":23,"RT":769,"MT":381,"sideResp":1,"stimulus":[],"xmouse":[793,793,793,793,793,793,793,793,793,793,793,793,793,793,793,793,793,793,792,792,792,792,792,792,792,792,792,792,792,792,792,792,792,792,792,792,790,778,763,741,729,719,713,710,707,703,697,675,661,646,634,621,598,586,571,554,538,522],"ymouse":[496,496,496,496,496,497,497,497,497,497,497,497,497,497,497,497,497,497,498,498,498,498,498,498,498,498,498,498,498,498,498,498,498,498,498,498,496,477,460,429,412,400,393,390,388,384,379,360,344,324,305,281,240,215,181,146,119,82],"timestamp_mouse":[10,30,49,69,90,110,130,149,169,190,209,229,249,270,290,309,330,349,369,391,411,429,451,469,489,510,531,549,569,590,609,631,651,670,690,711,730,749,769,790,809,829,849,869,889,910,930,949,969,990,1009,1030,1050,1069,1090,1110,1129,1150],"xSR":741.5,"ySR":469.95,"xT1":424.9,"yT1":0,"xT2":1058.1,"yT2":0,"toosoon":0,"cond_shown":"Incongruent","ratio_trial":300,"L_num":4,"L_den":5,"R_num":8,"R_den":16,"correct_side":1,"subjID":"NicoleBecerraForero37","gender":"1","school":"6","age":"11"},{"start_time":1551794044314,"click_time":1551794046239,"finger_time":1551794045977,"fix_duration":296.7088781995415,"trial":24,"RT":1663,"MT":262,"sideResp":1,"stimulus":[],"xmouse":[801,801,801,801,801,801,801,801,801,801,801,801,801,801,801,801,801,801,801,801,801,801,801,801,801,801,801,801,801,801,801,801,801,801,801,801,801,801,801,801,801,801,801,801,801,801,801,801,801,801,801,801,801,801,801,801,801,801,801,801,801,801,801,801,801,801,801,801,801,801,801,801,801,801,801,801,801,801,801,801,802,797,792,765,698,665,651,643,635,619,610,597,584,564,539,528,519],"ymouse":[539,539,539,539,539,539,539,539,539,539,539,539,539,539,539,539,539,539,539,539,539,539,539,539,539,539,539,539,539,539,539,539,539,539,539,539,539,539,539,539,539,539,539,539,539,539,539,539,539,539,539,539,539,539,539,539,539,539,539,539,539,539,539,539,539,539,539,539,539,539,539,539,539,539,539,539,539,539,539,539,536,515,503,442,280,220,197,182,170,147,135,123,112,101,92,91,88],"timestamp_mouse":[8,23,43,72,85,105,123,143,163,183,205,223,244,264,285,305,323,344,364,385,403,423,444,463,483,503,523,545,563,583,603,624,643,664,684,703,724,743,763,784,804,823,844,864,884,905,924,944,964,984,1003,1023,1043,1065,1084,1104,1124,1145,1164,1184,1203,1225,1244,1263,1284,1303,1323,1344,1364,1383,1404,1425,1444,1464,1483,1503,1523,1543,1564,1584,1604,1623,1644,1663,1684,1703,1724,1744,1763,1783,1803,1823,1845,1864,1883,1903,1925],"xSR":741.5,"ySR":469.95,"xT1":424.9,"yT1":0,"xT2":1058.1,"yT2":0,"toosoon":0,"cond_shown":"Incongruent","ratio_trial":300,"L_num":1,"L_den":2,"R_num":3,"R_den":15,"correct_side":1,"subjID":"NicoleBecerraForero37","gender":"1","school":"6","age":"11"},{"start_time":1551794047791,"click_time":1551794050297,"finger_time":1551794049377,"fix_duration":792.3964723597554,"trial":25,"RT":1586,"MT":920,"sideResp":1,"stimulus":[],"xmouse":[771,771,771,771,771,771,771,771,771,771,771,771,771,771,771,771,771,771,771,771,771,771,771,771,771,771,771,771,771,771,771,771,771,771,771,771,771,771,771,771,771,771,771,771,771,771,771,771,771,771,771,771,771,771,771,771,771,771,771,771,771,771,771,771,771,771,771,771,771,771,771,771,771,771,771,771,771,775,790,822,867,882,892,904,920,930,938,945,950,953,955,956,956,957,957,958,958,958,958,958,957,951,935,906,862,792,773,759,746,696,677,659,643,629,618,596,583,569,554,534,527,526,526,526,525,520],"ymouse":[496,496,496,496,496,496,496,496,496,496,496,496,496,496,496,496,496,496,496,496,496,496,496,496,496,496,496,496,496,496,496,496,496,496,496,496,496,496,496,496,496,496,496,496,496,496,496,496,496,496,496,496,496,496,496,496,496,496,496,496,496,496,496,496,496,496,496,496,496,496,496,496,496,496,496,496,497,496,484,463,431,416,401,382,346,329,313,303,292,285,278,275,271,269,269,268,268,268,268,268,268,268,274,287,300,311,310,301,285,202,176,155,137,126,114,100,94,90,86,84,84,84,84,84,84,82],"timestamp_mouse":[7,27,46,66,86,106,126,148,167,186,207,227,247,267,287,306,327,346,366,387,406,427,448,467,487,506,526,546,567,588,606,627,647,667,686,706,726,748,768,788,806,826,846,866,887,907,928,947,967,986,1006,1026,1046,1066,1087,1107,1128,1148,1166,1186,1207,1226,1247,1267,1287,1307,1328,1348,1368,1386,1406,1427,1446,1467,1487,1508,1527,1547,1566,1586,1606,1626,1646,1667,1688,1706,1726,1747,1766,1787,1806,1826,1847,1866,1887,1906,1926,1946,1967,1986,2006,2026,2047,2066,2086,2106,2126,2147,2166,2187,2206,2226,2247,2266,2287,2306,2326,2347,2366,2386,2406,2426,2446,2466,2487,2506],"xSR":741.5,"ySR":469.95,"xT1":424.9,"yT1":0,"xT2":1058.1,"yT2":0,"toosoon":0,"cond_shown":"Incongruent","ratio_trial":100,"L_num":3,"L_den":9,"R_num":7,"R_den":30,"correct_side":1,"subjID":"NicoleBecerraForero37","gender":"1","school":"6","age":"11"},{"start_time":1551794051249,"click_time":1551794052777,"finger_time":1551794052357,"fix_duration":250,"trial":26,"RT":1108,"MT":420,"sideResp":1,"stimulus":[],"xmouse":[794,794,794,794,794,794,794,794,794,794,794,794,794,794,794,794,794,794,794,794,794,794,794,794,794,794,794,794,794,794,794,794,794,794,794,794,794,794,794,794,794,794,794,794,794,794,794,794,794,794,794,794,794,792,787,775,764,740,729,717,702,683,654,641,628,615,599,579,565,550,535,507,496,491,488,487,482],"ymouse":[532,532,532,532,532,532,532,532,532,532,532,532,532,532,532,532,532,532,532,532,532,532,532,532,532,532,532,532,532,532,532,532,532,532,532,532,532,532,532,532,532,532,532,532,532,532,532,532,532,532,532,530,509,497,484,465,449,411,388,364,338,310,272,254,236,218,199,177,165,152,140,115,108,104,101,100,93],"timestamp_mouse":[10,30,48,68,88,108,129,148,168,189,209,227,248,268,289,308,328,349,368,389,408,427,447,468,489,508,528,549,568,588,608,627,649,668,687,708,729,749,767,789,809,828,849,869,889,909,928,948,968,989,1009,1028,1048,1068,1088,1108,1129,1148,1168,1187,1207,1227,1247,1269,1288,1308,1328,1347,1368,1388,1408,1430,1448,1469,1488,1508,1528],"xSR":741.5,"ySR":469.95,"xT1":424.9,"yT1":0,"xT2":1058.1,"yT2":0,"toosoon":0,"cond_shown":"Congruent","ratio_trial":100,"L_num":7,"L_den":14,"R_num":15,"R_den":25,"correct_side":2,"subjID":"NicoleBecerraForero37","gender":"1","school":"6","age":"11"},{"start_time":1551794054110,"click_time":1551794055797,"finger_time":1551794055277,"fix_duration":472.60179206733943,"trial":27,"RT":1167,"MT":520,"sideResp":2,"stimulus":[],"xmouse":[804,804,804,804,804,804,804,804,804,804,804,804,804,803,801,801,800,800,800,800,800,800,800,800,800,800,800,800,800,800,800,800,800,800,800,800,800,800,800,800,800,800,800,800,800,800,800,800,800,800,800,800,800,800,800,800,800,801,805,811,814,820,823,834,858,878,910,937,959,986,987,989,993,1003,1017,1027,1039,1050,1055,1055,1055,1057,1057,1058,1059],"ymouse":[493,493,493,493,493,493,493,493,493,493,493,494,496,498,502,503,504,504,504,504,504,504,504,504,504,504,504,504,504,504,504,504,504,504,504,504,504,504,504,504,504,504,504,504,504,504,504,504,504,504,504,504,504,504,504,504,490,480,464,444,438,428,420,400,364,329,278,237,204,175,174,172,165,147,122,105,88,73,68,68,67,65,64,62,61],"timestamp_mouse":[8,37,46,68,88,107,128,148,167,187,208,227,247,268,287,307,327,347,368,386,407,427,448,468,486,508,528,547,567,586,607,628,646,668,688,707,728,747,767,788,807,827,848,868,887,907,927,948,967,987,1007,1028,1046,1067,1088,1107,1128,1148,1167,1187,1208,1226,1247,1268,1287,1307,1327,1347,1366,1387,1407,1427,1448,1466,1486,1507,1527,1547,1568,1588,1608,1626,1647,1668,1687],"xSR":741.5,"ySR":469.95,"xT1":424.9,"yT1":0,"xT2":1058.1,"yT2":0,"toosoon":0,"cond_shown":"Incongruent","ratio_trial":100,"L_num":8,"L_den":16,"R_num":6,"R_den":10,"correct_side":2,"subjID":"NicoleBecerraForero37","gender":"1","school":"6","age":"11"},{"start_time":1551794058855,"click_time":1551794060417,"finger_time":1551794060277,"fix_duration":636.1863864549,"trial":28,"RT":1422,"MT":140,"sideResp":1,"stimulus":[],"xmouse":[796,796,796,796,796,796,796,796,796,796,796,796,796,796,796,796,796,796,796,796,796,796,796,796,796,796,796,796,796,796,796,796,796,796,796,796,796,796,796,796,796,796,796,796,796,796,796,796,796,796,796,796,796,796,796,796,796,796,796,796,796,796,796,796,796,796,796,796,796,796,791,782,738,709,679,651,607,523,489],"ymouse":[491,491,491,491,491,491,491,491,491,491,491,491,491,491,491,491,491,491,491,491,491,491,491,491,491,491,491,491,491,491,491,491,491,491,491,491,491,491,491,491,491,491,491,491,491,491,491,491,491,491,491,491,491,491,491,491,491,491,491,491,491,491,491,491,491,491,491,491,491,491,481,463,380,336,297,267,216,120,77],"timestamp_mouse":[7,22,42,62,81,102,123,142,162,182,202,222,243,262,282,302,322,343,362,382,402,423,443,461,483,502,522,542,561,581,603,621,642,662,682,703,722,742,762,783,802,822,842,862,881,902,922,943,962,982,1002,1023,1042,1062,1083,1103,1122,1142,1161,1182,1202,1222,1242,1262,1282,1301,1322,1342,1362,1382,1402,1422,1442,1462,1482,1502,1522,1542,1562],"xSR":741.5,"ySR":469.95,"xT1":424.9,"yT1":0,"xT2":1058.1,"yT2":0,"toosoon":0,"cond_shown":"Congruent","ratio_trial":200,"L_num":9,"L_den":20,"R_num":4,"R_den":16,"correct_side":1,"subjID":"NicoleBecerraForero37","gender":"1","school":"6","age":"11"},{"start_time":1551794062599,"click_time":1551794064217,"finger_time":1551794063778,"fix_duration":1319.056188556641,"trial":29,"RT":1179,"MT":439,"sideResp":2,"stimulus":[],"xmouse":[790,790,790,790,790,790,790,790,790,790,790,790,790,790,790,790,790,790,790,790,790,790,790,790,790,790,790,790,790,790,790,790,790,790,790,790,790,790,790,790,790,790,790,790,790,790,790,790,790,790,790,790,790,793,801,813,822,828,829,829,831,837,847,865,911,943,971,999,1025,1045,1051,1056,1058,1065,1069,1072,1076,1078,1081,1090,1101],"ymouse":[521,521,521,521,521,521,521,521,521,521,521,521,521,521,521,521,521,521,521,521,521,521,521,521,521,521,521,521,521,521,521,521,521,521,521,521,521,521,521,521,521,521,521,521,521,521,521,521,521,521,521,521,521,520,510,493,478,470,469,469,465,458,447,427,363,319,273,243,211,181,170,162,159,144,138,131,124,118,111,100,87],"timestamp_mouse":[27,38,58,78,98,118,138,158,178,198,219,239,257,278,298,318,339,358,378,398,418,439,458,478,498,519,538,559,578,599,618,637,659,678,698,718,738,758,777,798,818,839,859,878,899,918,938,958,978,998,1018,1038,1058,1078,1098,1118,1138,1158,1179,1199,1217,1238,1258,1278,1297,1317,1338,1359,1379,1398,1418,1437,1458,1480,1498,1518,1538,1559,1578,1597,1618],"xSR":741.5,"ySR":469.95,"xT1":424.9,"yT1":0,"xT2":1058.1,"yT2":0,"toosoon":0,"cond_shown":"Congruent","ratio_trial":300,"L_num":1,"L_den":5,"R_num":11,"R_den":22,"correct_side":2,"subjID":"NicoleBecerraForero37","gender":"1","school":"6","age":"11"},{"start_time":1551794066412,"click_time":1551794067679,"finger_time":1551794067477,"fix_duration":1272.8398437932035,"trial":30,"RT":1065,"MT":202,"sideResp":2,"stimulus":[],"xmouse":[809,809,809,809,809,809,809,809,809,809,809,809,809,809,809,809,809,809,809,809,809,809,809,809,809,809,809,809,809,809,809,809,809,809,809,809,809,809,809,809,809,809,809,809,809,809,809,809,809,809,809,820,840,860,887,895,905,926,988,1081,1110,1124,1129,1135],"ymouse":[518,518,518,518,518,518,518,518,518,518,518,518,518,518,518,518,518,518,518,518,518,518,518,518,518,518,518,518,518,518,518,518,518,518,518,518,518,518,518,518,518,518,518,518,518,518,518,518,518,518,518,512,499,483,460,450,434,397,298,183,149,128,112,92],"timestamp_mouse":[9,30,46,65,85,105,126,146,165,185,206,226,245,266,286,305,326,346,366,385,405,426,445,466,485,505,526,545,565,584,605,626,646,665,686,705,725,746,766,786,805,826,846,865,885,905,926,946,965,984,1005,1025,1045,1065,1085,1105,1126,1145,1165,1185,1205,1225,1245,1267],"xSR":741.5,"ySR":469.95,"xT1":424.9,"yT1":0,"xT2":1058.1,"yT2":0,"toosoon":0,"cond_shown":"Congruent","ratio_trial":300,"L_num":2,"L_den":10,"R_num":12,"R_den":24,"correct_side":2,"subjID":"NicoleBecerraForero37","gender":"1","school":"6","age":"11"},{"start_time":1551794069031,"click_time":1551794070377,"finger_time":1551794070037,"fix_duration":292.15247135565426,"trial":31,"RT":1006,"MT":340,"sideResp":2,"stimulus":[],"xmouse":[799,799,799,799,799,799,799,799,799,799,799,799,799,799,799,799,799,799,799,799,799,799,799,799,799,799,799,799,799,799,799,799,799,799,799,799,799,799,799,799,799,799,799,799,799,799,799,799,800,811,831,857,898,911,917,923,928,934,949,956,961,969,980,1003,1018,1033,1050,1072],"ymouse":[492,492,492,492,492,492,492,492,492,492,492,492,492,492,492,492,492,493,493,493,493,493,493,493,493,493,493,493,493,493,493,493,493,493,493,493,493,493,493,493,493,493,493,493,493,493,493,493,493,482,463,436,366,337,315,294,276,255,223,207,194,180,164,134,119,106,93,78],"timestamp_mouse":[8,32,46,66,87,106,127,147,166,185,207,227,247,267,286,306,326,346,365,387,406,426,445,467,486,506,527,546,567,586,605,626,647,667,686,706,727,746,767,787,806,827,847,867,886,907,927,947,967,985,1006,1026,1048,1065,1086,1107,1126,1146,1166,1186,1206,1227,1246,1266,1287,1307,1326,1346],"xSR":741.5,"ySR":469.95,"xT1":424.9,"yT1":0,"xT2":1058.1,"yT2":0,"toosoon":0,"cond_shown":"Incongruent","ratio_trial":200,"L_num":7,"L_den":15,"R_num":4,"R_den":6,"correct_side":2,"subjID":"NicoleBecerraForero37","gender":"1","school":"6","age":"11"},{"start_time":1551794071509,"click_time":1551794072917,"finger_time":1551794072517,"fix_duration":250,"trial":32,"RT":1008,"MT":400,"sideResp":2,"stimulus":[],"xmouse":[798,798,798,798,798,798,798,798,798,798,798,798,798,798,798,798,798,798,798,798,798,798,798,798,798,798,798,798,798,798,798,798,798,798,798,798,798,798,798,798,798,798,798,798,798,800,806,814,825,826,827,828,829,829,829,829,829,829,829,841,862,894,929,982,1021,1034,1043,1050,1060,1064,1067],"ymouse":[524,524,524,524,524,524,524,524,524,524,524,524,524,524,524,524,524,524,524,524,524,524,524,524,524,524,524,524,524,524,524,524,524,524,524,524,524,524,524,524,524,524,524,524,524,518,506,491,474,472,469,468,468,468,468,468,468,468,465,441,405,347,288,219,163,144,132,124,109,103,97],"timestamp_mouse":[9,33,48,69,88,108,129,148,169,189,208,229,248,269,288,308,329,349,369,387,408,428,449,469,488,508,528,548,568,589,608,629,649,669,688,708,728,748,769,788,809,829,848,868,889,907,928,948,969,988,1008,1028,1048,1069,1088,1108,1128,1148,1168,1187,1209,1228,1249,1268,1288,1308,1329,1348,1370,1388,1407],"xSR":741.5,"ySR":469.95,"xT1":424.9,"yT1":0,"xT2":1058.1,"yT2":0,"toosoon":0,"cond_shown":"Incongruent","ratio_trial":100,"L_num":6,"L_den":10,"R_num":13,"R_den":26,"correct_side":1,"subjID":"NicoleBecerraForero37","gender":"1","school":"6","age":"11"},{"start_time":1551794074955,"click_time":1551794076278,"finger_time":1551794075917,"fix_duration":976.6619668060678,"trial":33,"RT":962,"MT":361,"sideResp":2,"stimulus":[],"xmouse":[761,761,761,761,761,761,761,761,761,761,761,761,761,761,761,761,761,761,761,761,761,761,761,761,761,761,761,761,761,761,761,761,761,761,761,761,761,761,761,761,761,761,761,761,761,761,768,795,826,860,882,922,934,946,958,974,997,1003,1008,1013,1019,1022,1031,1037,1048,1057,1076],"ymouse":[520,520,520,520,520,520,520,520,520,520,520,520,520,520,520,520,520,520,520,520,520,520,520,520,520,520,520,520,520,520,520,520,520,520,520,520,520,520,520,520,520,520,520,520,520,520,512,479,437,390,339,264,234,207,182,161,137,131,125,116,107,105,99,95,89,84,73],"timestamp_mouse":[9,23,42,62,82,102,122,142,162,182,202,223,242,262,283,303,323,343,362,382,402,422,442,462,483,502,522,543,562,581,602,622,642,662,682,702,723,743,762,783,802,823,843,863,883,901,923,942,962,982,1002,1023,1042,1062,1082,1102,1123,1141,1163,1182,1202,1222,1243,1261,1283,1302,1323],"xSR":741.5,"ySR":469.95,"xT1":424.9,"yT1":0,"xT2":1058.1,"yT2":0,"toosoon":0,"cond_shown":"Incongruent","ratio_trial":300,"L_num":4,"L_den":20,"R_num":2,"R_den":4,"correct_side":2,"subjID":"NicoleBecerraForero37","gender":"1","school":"6","age":"11"},{"start_time":1551794077402,"click_time":1551794079097,"finger_time":1551794078816,"fix_duration":344.53844042841644,"trial":34,"RT":1414,"MT":281,"sideResp":2,"stimulus":[],"xmouse":[792,792,792,792,792,792,792,792,792,792,792,792,792,792,792,792,792,792,792,792,792,792,792,792,792,792,792,792,792,792,792,792,792,792,792,792,792,792,792,792,792,792,792,792,792,792,792,792,792,792,792,792,792,792,792,792,792,792,792,792,792,792,792,792,792,792,792,792,792,810,831,860,890,913,942,956,970,985,1007,1033,1044,1056,1065,1078,1084],"ymouse":[514,514,514,514,514,514,514,514,514,514,514,514,514,514,514,514,514,514,514,514,514,514,514,514,514,514,514,514,514,514,514,514,514,514,514,514,514,514,514,514,514,514,514,514,514,514,514,514,514,514,514,514,514,514,514,514,514,514,514,514,514,514,514,514,514,514,514,514,509,480,451,409,366,328,282,262,242,224,195,160,146,132,121,102,94],"timestamp_mouse":[15,39,56,76,96,115,135,156,176,196,215,236,256,276,296,315,336,355,375,396,414,435,456,474,496,515,536,555,576,595,615,636,654,676,695,715,734,756,776,796,815,835,856,876,896,915,936,955,975,996,1015,1035,1055,1075,1096,1115,1134,1155,1175,1196,1216,1235,1255,1276,1294,1316,1335,1355,1374,1395,1414,1435,1456,1475,1495,1515,1535,1556,1575,1596,1615,1636,1655,1677,1695],"xSR":741.5,"ySR":469.95,"xT1":424.9,"yT1":0,"xT2":1058.1,"yT2":0,"toosoon":0,"cond_shown":"Incongruent","ratio_trial":100,"L_num":9,"L_den":18,"R_num":6,"R_den":10,"correct_side":2,"subjID":"NicoleBecerraForero37","gender":"1","school":"6","age":"11"},{"start_time":1551794080808,"click_time":1551794082377,"finger_time":1551794082296,"fix_duration":289.62648082141243,"trial":35,"RT":1488,"MT":81,"sideResp":2,"stimulus":[],"xmouse":[776,776,776,776,776,776,776,776,776,776,776,776,776,776,776,776,776,776,776,776,776,776,776,776,776,776,776,776,776,776,776,776,776,776,776,776,776,776,776,776,776,776,776,776,776,776,776,776,776,776,776,776,776,776,776,776,776,776,776,776,776,776,776,776,776,776,776,776,776,776,776,776,778,784,850,917,995,1075,1152],"ymouse":[537,537,537,537,537,537,537,537,537,537,537,537,537,537,537,537,537,537,537,537,537,537,537,537,537,537,537,537,537,537,537,537,537,537,537,537,537,537,537,537,537,537,537,537,537,537,537,537,537,537,537,537,537,537,537,537,537,537,537,537,537,537,537,537,537,537,537,537,537,537,537,537,535,529,465,384,283,172,63],"timestamp_mouse":[10,32,49,70,90,110,128,149,170,189,209,229,249,268,289,310,328,350,369,389,409,430,450,469,490,510,529,550,570,590,608,630,649,670,689,709,729,749,770,789,810,829,849,869,890,910,930,949,970,990,1009,1030,1050,1068,1089,1110,1129,1149,1169,1189,1210,1230,1250,1269,1289,1309,1330,1349,1369,1390,1410,1429,1448,1469,1488,1509,1529,1550,1569],"xSR":741.5,"ySR":469.95,"xT1":424.9,"yT1":0,"xT2":1058.1,"yT2":0,"toosoon":0,"cond_shown":"Congruent","ratio_trial":200,"L_num":3,"L_den":10,"R_num":7,"R_den":14,"correct_side":2,"subjID":"NicoleBecerraForero37","gender":"1","school":"6","age":"11"},{"start_time":1551794083996,"click_time":1551794085478,"finger_time":1551794085157,"fix_duration":716.6934809216202,"trial":36,"RT":1161,"MT":321,"sideResp":1,"stimulus":[],"xmouse":[809,809,809,809,809,809,809,809,809,809,809,809,809,809,809,809,809,809,809,809,809,809,809,809,809,809,809,809,809,809,809,809,809,809,809,809,809,809,809,809,809,809,809,809,809,809,809,809,809,809,809,809,809,809,809,809,806,797,768,691,587,572,566,566,564,554,546,539,532,526,525,523,520,514,498],"ymouse":[517,517,517,517,517,517,517,517,517,517,517,517,517,517,517,517,517,517,517,517,517,517,517,517,517,517,517,517,517,517,517,517,517,517,517,517,517,517,517,517,517,517,517,517,517,517,517,517,517,517,517,517,517,517,517,517,514,501,462,356,209,186,177,176,171,153,141,132,124,117,116,115,112,106,88],"timestamp_mouse":[8,28,42,61,81,102,120,141,161,181,201,221,242,261,281,301,321,341,362,381,401,421,442,461,482,501,522,542,562,581,602,622,641,662,681,702,720,742,761,781,802,820,842,861,881,902,921,942,961,980,1002,1021,1041,1062,1082,1102,1120,1141,1161,1182,1201,1221,1241,1261,1281,1301,1321,1341,1361,1382,1401,1421,1440,1461,1482],"xSR":741.5,"ySR":469.95,"xT1":424.9,"yT1":0,"xT2":1058.1,"yT2":0,"toosoon":0,"cond_shown":"Incongruent","ratio_trial":300,"L_num":1,"L_den":2,"R_num":3,"R_den":15,"correct_side":1,"subjID":"NicoleBecerraForero37","gender":"1","school":"6","age":"11"},{"start_time":1551794088483,"click_time":1551794090497,"finger_time":1551794090157,"fix_duration":644.7099575196364,"trial":37,"RT":1674,"MT":340,"sideResp":2,"stimulus":[],"xmouse":[792,792,792,792,792,792,792,792,792,792,792,792,792,792,792,792,792,792,792,792,792,792,792,792,792,792,792,792,792,792,792,792,792,792,792,792,792,792,792,792,792,792,792,792,792,792,792,792,792,792,792,792,792,792,792,792,792,792,792,792,792,792,792,792,792,792,792,792,792,792,792,792,792,792,792,792,792,792,792,792,792,797,822,878,995,1038,1068,1084,1095,1106,1112,1119,1125,1128,1130,1130,1130,1126,1123,1121,1115],"ymouse":[535,535,535,535,535,535,535,535,535,535,535,535,535,535,535,535,535,535,535,535,535,535,535,535,535,535,535,535,535,535,535,535,535,535,535,535,535,535,535,535,535,535,535,535,535,535,535,535,535,535,535,535,535,535,535,535,535,535,535,535,535,535,535,535,535,535,535,535,535,535,535,535,535,535,535,535,535,535,535,535,535,526,502,445,347,310,284,269,257,231,218,205,185,170,155,133,125,116,108,103,94],"timestamp_mouse":[14,34,54,74,94,114,134,155,174,195,215,235,255,274,294,314,334,354,375,395,414,434,454,474,495,515,534,555,573,594,614,634,654,675,693,714,734,754,775,794,814,834,854,875,894,914,935,954,974,994,1014,1034,1053,1075,1093,1115,1135,1154,1174,1194,1214,1235,1253,1275,1294,1314,1334,1353,1375,1395,1414,1434,1454,1475,1494,1515,1534,1555,1574,1594,1613,1634,1655,1674,1696,1714,1734,1755,1774,1795,1813,1834,1854,1874,1894,1914,1933,1954,1974,1994,2014],"xSR":741.5,"ySR":469.95,"xT1":424.9,"yT1":0,"xT2":1058.1,"yT2":0,"toosoon":0,"cond_shown":"Congruent","ratio_trial":100,"L_num":4,"L_den":8,"R_num":6,"R_den":10,"correct_side":2,"subjID":"NicoleBecerraForero37","gender":"1","school":"6","age":"11"},{"start_time":1551794091927,"click_time":1551794093857,"finger_time":1551794093478,"fix_duration":726.8708436619484,"trial":38,"RT":1551,"MT":379,"sideResp":2,"stimulus":[],"xmouse":[804,804,804,804,804,804,804,804,804,804,804,804,804,804,804,804,804,804,804,804,804,804,804,804,804,804,804,804,804,804,804,804,804,804,804,804,804,804,804,804,804,804,804,804,804,804,804,804,804,804,804,804,804,804,804,804,804,804,804,804,804,804,804,804,804,804,804,804,804,804,804,804,804,804,805,816,840,920,948,963,972,979,992,1010,1016,1021,1023,1023,1026,1026,1028,1029,1032,1042,1050,1056,1060],"ymouse":[552,552,552,552,552,552,552,552,552,552,552,552,552,552,552,552,552,552,552,552,552,552,552,552,552,552,552,552,552,552,552,552,552,552,552,552,552,552,552,552,552,552,552,552,552,552,552,552,552,552,552,552,552,552,552,552,552,552,552,552,552,552,552,552,552,552,552,552,552,552,552,552,552,552,549,533,498,393,361,342,328,313,283,247,230,215,201,188,167,159,150,142,130,113,104,97,93],"timestamp_mouse":[11,32,51,69,91,110,130,150,171,190,211,230,249,271,289,310,330,350,370,390,410,431,450,470,490,511,530,551,571,590,611,630,649,670,690,710,731,751,771,790,811,830,850,870,891,910,929,949,971,990,1010,1029,1050,1070,1090,1110,1130,1150,1170,1190,1210,1230,1250,1270,1290,1311,1330,1350,1370,1390,1410,1430,1451,1470,1489,1510,1530,1551,1570,1590,1610,1631,1650,1670,1690,1709,1729,1749,1770,1791,1810,1830,1851,1869,1890,1910,1930],"xSR":741.5,"ySR":469.95,"xT1":424.9,"yT1":0,"xT2":1058.1,"yT2":0,"toosoon":0,"cond_shown":"Incongruent","ratio_trial":100,"L_num":3,"L_den":5,"R_num":11,"R_den":22,"correct_side":1,"subjID":"NicoleBecerraForero37","gender":"1","school":"6","age":"11"},{"start_time":1551794095915,"click_time":1551794097738,"finger_time":1551794097257,"fix_duration":1217.398858027856,"trial":39,"RT":1342,"MT":481,"sideResp":1,"stimulus":[],"xmouse":[764,764,764,764,764,764,764,764,764,764,764,764,764,764,764,764,764,764,764,764,764,764,764,764,764,764,764,764,764,764,764,764,764,764,764,764,764,764,764,764,764,764,764,764,764,764,764,764,764,764,764,764,764,764,764,764,764,764,764,764,764,764,764,764,764,764,760,748,696,652,600,558,524,482,465,464,464,462,458,456,455,455,456,459,464,467,468,469,471,471,472,472],"ymouse":[496,496,496,496,496,496,496,496,496,496,496,496,496,496,496,496,496,496,496,496,496,496,496,496,496,496,496,496,496,496,496,496,496,496,496,496,496,496,496,496,496,496,496,496,496,496,496,496,496,496,496,496,496,496,496,496,496,496,496,496,496,496,496,496,496,496,483,456,390,359,323,281,245,205,188,187,185,178,161,153,147,142,138,133,125,121,118,115,109,106,103,99],"timestamp_mouse":[8,27,43,63,83,102,123,143,163,183,202,223,243,262,283,302,322,342,362,383,403,422,443,463,482,503,522,543,563,582,602,622,641,662,683,702,722,743,762,783,803,823,842,863,882,902,921,943,963,982,1002,1022,1042,1063,1081,1102,1122,1142,1163,1183,1203,1221,1242,1262,1283,1301,1322,1342,1363,1382,1402,1423,1442,1462,1482,1502,1522,1542,1564,1582,1602,1622,1642,1662,1682,1702,1722,1742,1764,1781,1802,1822],"xSR":741.5,"ySR":469.95,"xT1":424.9,"yT1":0,"xT2":1058.1,"yT2":0,"toosoon":0,"cond_shown":"Congruent","ratio_trial":100,"L_num":11,"L_den":22,"R_num":6,"R_den":15,"correct_side":1,"subjID":"NicoleBecerraForero37","gender":"1","school":"6","age":"11"},{"start_time":1551794099797,"click_time":1551794101737,"finger_time":1551794101377,"fix_duration":619.0184092316119,"trial":40,"RT":1580,"MT":360,"sideResp":1,"stimulus":[],"xmouse":[765,765,765,765,765,765,765,765,765,765,765,765,765,765,765,765,765,765,765,765,765,765,765,765,765,765,765,765,765,765,765,765,765,765,765,765,765,765,765,765,765,765,765,765,765,765,765,765,765,765,765,765,765,765,765,765,765,765,765,765,765,765,765,765,765,765,765,765,765,765,769,771,772,772,772,772,772,772,772,762,738,722,701,683,674,659,652,644,630,620,600,594,588,579,569,542,527,517],"ymouse":[522,522,522,522,522,522,522,522,522,522,522,522,522,522,522,522,522,522,522,522,522,522,522,522,522,522,522,522,522,522,522,522,522,522,522,522,522,522,522,522,522,522,522,522,522,522,522,522,522,522,522,522,522,522,522,522,522,522,522,522,522,522,522,522,522,522,522,522,522,522,517,515,514,514,514,514,514,510,504,464,380,316,240,183,158,136,128,124,118,115,113,112,112,110,107,93,83,75],"timestamp_mouse":[2,33,40,61,81,101,121,141,161,179,201,220,241,260,280,300,320,339,361,381,399,421,441,459,480,501,521,540,560,580,601,620,640,661,681,700,719,740,760,780,800,820,839,861,880,900,920,941,961,981,1001,1020,1040,1060,1080,1100,1121,1141,1160,1180,1201,1220,1241,1261,1281,1300,1320,1340,1359,1379,1401,1419,1440,1461,1481,1500,1520,1539,1561,1580,1600,1619,1640,1660,1681,1700,1720,1740,1760,1780,1800,1820,1841,1860,1881,1900,1919,1940],"xSR":741.5,"ySR":469.95,"xT1":424.9,"yT1":0,"xT2":1058.1,"yT2":0,"toosoon":0,"cond_shown":"Congruent","ratio_trial":100,"L_num":2,"L_den":5,"R_num":11,"R_den":22,"correct_side":2,"subjID":"NicoleBecerraForero37","gender":"1","school":"6","age":"11"},{"start_time":1551794103144,"click_time":1551794104258,"finger_time":1551794103877,"fix_duration":646.1128202343363,"trial":41,"RT":733,"MT":381,"sideResp":1,"stimulus":[],"xmouse":[829,829,829,829,829,829,829,829,829,829,829,829,829,829,829,829,829,829,829,829,829,829,829,829,829,829,829,829,829,829,829,829,829,826,806,781,753,713,696,679,658,610,569,569,569,569,569,569,569,569,569,569,569,569,569,462],"ymouse":[531,531,531,531,531,531,531,531,531,531,531,531,531,531,531,531,531,531,531,531,531,531,531,531,531,531,531,531,531,531,531,531,531,529,509,481,445,382,342,282,209,92,20,20,20,20,20,20,20,20,20,20,20,20,20,37],"timestamp_mouse":[14,33,53,73,94,114,133,154,174,193,214,233,252,274,293,312,333,353,373,394,412,434,453,474,492,513,533,553,573,593,613,633,654,672,694,713,733,752,774,793,814,832,853,873,893,913,934,954,974,993,1013,1034,1053,1074,1093,1114],"xSR":741.5,"ySR":469.95,"xT1":424.9,"yT1":0,"xT2":1058.1,"yT2":0,"toosoon":0,"cond_shown":"Incongruent","ratio_trial":200,"L_num":4,"L_den":5,"R_num":6,"R_den":10,"correct_side":1,"subjID":"NicoleBecerraForero37","gender":"1","school":"6","age":"11"},{"start_time":1551794105577,"click_time":1551794106897,"finger_time":1551794106398,"fix_duration":438.0614700298293,"trial":42,"RT":821,"MT":499,"sideResp":2,"stimulus":[],"xmouse":[768,768,768,768,768,768,768,768,768,768,768,768,768,768,768,768,768,768,768,768,768,768,768,768,768,768,768,768,768,768,768,768,768,768,768,768,768,768,769,774,784,803,808,810,812,822,833,847,873,881,910,954,968,978,987,994,1010,1019,1027,1035,1045,1047,1048,1049,1054,1058,1070],"ymouse":[511,511,511,511,511,511,511,511,511,511,511,511,511,511,511,511,511,511,511,511,511,511,511,511,511,511,511,511,511,511,511,511,511,511,511,511,511,511,511,505,486,448,441,437,434,422,412,399,374,365,328,258,232,207,187,170,137,122,112,102,90,88,86,85,80,76,65],"timestamp_mouse":[7,31,40,60,80,100,121,139,160,181,200,221,240,261,279,301,321,339,360,380,401,420,440,460,481,500,520,540,560,580,601,621,640,661,679,701,721,740,759,780,800,821,840,861,880,902,919,940,960,980,1000,1020,1040,1061,1080,1100,1120,1139,1160,1181,1201,1220,1240,1260,1280,1300,1320],"xSR":741.5,"ySR":469.95,"xT1":424.9,"yT1":0,"xT2":1058.1,"yT2":0,"toosoon":0,"cond_shown":"Incongruent","ratio_trial":200,"L_num":11,"L_den":20,"R_num":3,"R_den":4,"correct_side":2,"subjID":"NicoleBecerraForero37","gender":"1","school":"6","age":"11"},{"start_time":1551794107828,"click_time":1551794109557,"finger_time":1551794109158,"fix_duration":250,"trial":43,"RT":1330,"MT":399,"sideResp":2,"stimulus":[],"xmouse":[773,773,773,773,773,773,773,773,773,773,773,773,773,773,773,773,773,773,773,773,773,773,773,773,773,773,773,773,773,773,773,773,773,773,773,773,773,773,773,773,773,773,773,773,773,773,773,773,773,773,773,773,773,773,773,773,773,773,773,773,773,773,773,773,780,788,843,943,984,1021,1051,1080,1103,1140,1157,1171,1184,1190,1196,1196,1196,1195,1186,1181,1173,1167,1157],"ymouse":[528,528,528,528,528,528,528,528,528,528,528,528,528,528,528,528,528,528,528,528,528,528,528,528,528,528,528,528,528,528,528,528,528,528,528,528,528,528,528,528,528,528,528,528,528,528,528,528,528,528,528,528,528,528,528,528,528,528,528,528,528,528,528,528,527,521,490,417,377,332,286,247,216,172,153,135,115,100,73,64,56,49,36,31,28,26,25],"timestamp_mouse":[10,30,50,69,89,108,130,148,169,190,209,229,249,270,290,309,329,349,370,388,410,429,449,469,489,510,529,549,568,589,609,628,650,670,690,710,728,749,770,789,809,828,849,868,889,910,929,949,970,988,1009,1028,1049,1068,1090,1109,1128,1150,1170,1188,1209,1230,1248,1270,1289,1309,1330,1350,1369,1389,1410,1429,1449,1469,1489,1509,1530,1549,1569,1588,1609,1629,1650,1668,1689,1709,1729],"xSR":741.5,"ySR":469.95,"xT1":424.9,"yT1":0,"xT2":1058.1,"yT2":0,"toosoon":0,"cond_shown":"Congruent","ratio_trial":300,"L_num":4,"L_den":20,"R_num":13,"R_den":26,"correct_side":2,"subjID":"NicoleBecerraForero37","gender":"1","school":"6","age":"11"},{"start_time":1551794111454,"click_time":1551794112898,"finger_time":1551794112598,"fix_duration":655.4692997460468,"trial":44,"RT":1144,"MT":300,"sideResp":2,"stimulus":[],"xmouse":[816,816,816,816,816,816,816,816,816,816,816,816,816,816,816,816,816,816,816,816,816,816,816,816,816,816,816,816,816,816,816,816,816,816,816,816,816,816,816,816,816,816,816,816,816,816,816,816,816,816,816,816,816,816,816,817,827,865,918,962,979,999,1007,1018,1029,1039,1051,1064,1068,1073,1079,1083,1084],"ymouse":[516,516,516,516,516,516,516,516,516,516,516,516,516,516,516,516,516,516,516,516,516,516,516,516,516,516,516,516,516,516,516,516,516,516,516,516,516,516,516,516,516,516,516,516,516,516,516,516,516,516,516,516,516,516,516,516,511,475,418,375,355,325,310,293,275,257,224,180,166,151,134,112,75],"timestamp_mouse":[9,38,43,63,83,103,123,144,163,183,204,223,244,263,283,303,323,344,365,383,403,423,443,464,484,503,523,543,563,583,603,623,644,665,683,703,723,743,763,783,804,823,844,863,883,903,923,943,964,983,1003,1023,1043,1064,1085,1103,1123,1144,1163,1184,1203,1225,1243,1263,1283,1304,1323,1343,1363,1383,1403,1423,1443],"xSR":741.5,"ySR":469.95,"xT1":424.9,"yT1":0,"xT2":1058.1,"yT2":0,"toosoon":0,"cond_shown":"Congruent","ratio_trial":300,"L_num":3,"L_den":12,"R_num":11,"R_den":20,"correct_side":2,"subjID":"NicoleBecerraForero37","gender":"1","school":"6","age":"11"},{"start_time":1551794115690,"click_time":1551794117078,"finger_time":1551794116617,"fix_duration":450.92618703789776,"trial":45,"RT":927,"MT":461,"sideResp":2,"stimulus":[],"xmouse":[799,799,799,799,799,799,799,799,799,799,799,799,799,799,799,799,799,799,799,799,799,799,799,799,799,799,799,799,799,799,799,799,799,799,799,799,799,799,799,799,799,802,808,810,820,836,844,855,869,901,924,946,964,986,1005,1035,1044,1047,1050,1055,1058,1061,1063,1066,1068,1068,1068,1069,1070,1072],"ymouse":[542,542,542,542,542,542,542,542,542,542,542,542,542,542,542,542,542,542,542,542,542,542,542,542,542,542,542,542,542,542,542,542,542,542,542,542,542,542,542,542,541,537,531,526,513,490,478,465,447,402,368,338,313,282,248,176,156,151,147,140,134,129,124,119,115,112,110,107,100,92],"timestamp_mouse":[10,34,47,68,87,107,127,147,168,187,207,227,247,267,288,307,327,347,367,388,408,427,448,468,488,508,527,548,568,588,608,628,648,668,688,707,727,747,767,788,807,827,847,868,887,907,927,947,967,989,1007,1028,1047,1067,1087,1107,1127,1147,1167,1189,1207,1228,1247,1267,1288,1307,1327,1348,1367,1388],"xSR":741.5,"ySR":469.95,"xT1":424.9,"yT1":0,"xT2":1058.1,"yT2":0,"toosoon":0,"cond_shown":"Incongruent","ratio_trial":300,"L_num":4,"L_den":20,"R_num":2,"R_den":4,"correct_side":2,"subjID":"NicoleBecerraForero37","gender":"1","school":"6","age":"11"},{"start_time":1551794118441,"click_time":1551794119798,"finger_time":1551794119357,"fix_duration":601.3353537405152,"trial":46,"RT":916,"MT":441,"sideResp":1,"stimulus":[],"xmouse":[802,802,802,802,802,802,802,802,802,802,802,802,802,802,802,802,802,802,802,802,802,802,802,802,802,802,802,802,802,802,802,802,802,802,802,802,802,802,802,802,802,802,802,802,797,771,746,686,667,656,653,645,640,636,629,619,600,571,563,557,552,535,522,511,502,495,491,486],"ymouse":[502,502,502,502,502,502,502,502,502,502,502,502,502,502,502,502,502,502,502,502,502,502,502,502,502,502,502,502,502,502,502,502,502,502,502,502,502,502,502,502,502,502,502,500,495,464,432,351,324,307,298,280,273,265,255,241,219,194,189,184,180,160,145,132,119,111,101,85],"timestamp_mouse":[16,36,56,76,96,116,137,157,176,196,216,236,256,276,297,316,336,356,376,398,417,436,456,476,496,518,536,556,576,597,616,637,656,676,696,717,736,756,777,797,816,836,856,878,896,916,936,957,976,996,1016,1037,1056,1077,1096,1116,1136,1156,1176,1197,1217,1237,1256,1278,1296,1317,1336,1357],"xSR":741.5,"ySR":469.95,"xT1":424.9,"yT1":0,"xT2":1058.1,"yT2":0,"toosoon":0,"cond_shown":"Congruent","ratio_trial":100,"L_num":10,"L_den":25,"R_num":3,"R_den":10,"correct_side":1,"subjID":"NicoleBecerraForero37","gender":"1","school":"6","age":"11"},{"start_time":1551794121515,"click_time":1551794122579,"finger_time":1551794121938,"fix_duration":956.2735921112895,"trial":47,"RT":423,"MT":641,"sideResp":2,"stimulus":[],"xmouse":[805,805,805,805,805,805,805,805,805,805,805,805,805,805,805,805,805,806,806,812,814,816,819,825,838,850,865,880,903,920,929,938,946,952,955,957,958,958,959,975,985,992,997,1002,1002,1004,1012,1023,1036,1059,1068,1073,1075,1076],"ymouse":[493,493,493,493,493,493,493,493,493,493,493,493,493,493,493,493,493,493,490,475,472,468,465,457,445,437,426,415,395,376,355,334,315,289,281,274,270,269,268,244,233,223,216,208,208,207,204,201,197,181,163,140,114,91],"timestamp_mouse":[11,32,43,62,83,102,123,143,162,182,203,223,242,263,282,302,323,342,362,382,402,423,442,462,482,502,523,543,564,582,602,622,642,664,682,702,722,742,762,782,802,822,842,864,882,902,922,942,962,982,1003,1023,1043,1064],"xSR":741.5,"ySR":469.95,"xT1":424.9,"yT1":0,"xT2":1058.1,"yT2":0,"toosoon":0,"cond_shown":"Congruent","ratio_trial":300,"L_num":4,"L_den":20,"R_num":13,"R_den":26,"correct_side":2,"subjID":"NicoleBecerraForero37","gender":"1","school":"6","age":"11"},{"start_time":1551794123985,"click_time":1551794125097,"finger_time":1551794124677,"fix_duration":487.789497712343,"trial":48,"RT":692,"MT":420,"sideResp":1,"stimulus":[],"xmouse":[813,813,813,813,813,813,813,813,813,813,813,813,813,813,813,813,813,813,813,813,813,813,813,813,813,813,813,813,813,813,805,790,772,756,743,723,715,700,692,652,614,601,592,586,581,578,574,567,560,552,549,546,542,536,526,509],"ymouse":[540,540,540,540,540,540,540,540,540,540,540,540,540,540,540,540,540,540,540,540,540,540,540,540,540,540,540,540,540,540,533,515,494,474,456,433,424,404,391,333,290,275,262,250,237,226,208,185,160,134,123,115,105,93,79,65],"timestamp_mouse":[12,41,52,72,93,112,132,154,172,192,212,233,253,273,292,313,332,353,372,392,414,433,453,472,492,513,533,553,574,592,613,633,652,673,692,712,732,753,772,792,812,832,852,872,894,912,933,952,973,992,1012,1032,1053,1072,1092,1112],"xSR":741.5,"ySR":469.95,"xT1":424.9,"yT1":0,"xT2":1058.1,"yT2":0,"toosoon":0,"cond_shown":"Congruent","ratio_trial":100,"L_num":11,"L_den":22,"R_num":4,"R_den":10,"correct_side":1,"subjID":"NicoleBecerraForero37","gender":"1","school":"6","age":"11"},{"start_time":1551794127077,"click_time":1551794128457,"finger_time":1551794128197,"fix_duration":1278.8486776108223,"trial":49,"RT":1120,"MT":260,"sideResp":1,"stimulus":[],"xmouse":[779,779,779,779,779,779,779,779,779,779,779,779,779,779,779,779,779,779,779,779,779,779,779,779,779,779,779,779,779,779,779,779,779,779,779,779,779,779,779,779,779,779,779,779,779,779,779,779,779,779,779,779,780,780,775,759,706,672,637,611,590,558,545,531,507,489,470,466,463,460],"ymouse":[525,525,525,525,525,525,525,525,525,525,525,525,525,525,525,525,525,525,525,525,525,525,525,525,525,525,525,525,525,525,525,525,525,525,525,525,525,525,525,525,525,525,525,525,525,525,525,525,525,525,525,525,525,521,508,474,383,334,289,253,228,185,170,156,135,121,108,104,101,93],"timestamp_mouse":[7,32,40,61,80,100,121,141,161,180,201,220,241,260,281,301,320,340,361,381,400,421,442,461,481,500,521,542,560,581,600,620,641,661,680,701,720,740,761,781,801,821,841,861,881,901,920,940,961,981,1001,1021,1041,1060,1080,1101,1120,1140,1161,1180,1200,1220,1240,1261,1280,1300,1321,1340,1361,1380],"xSR":741.5,"ySR":469.95,"xT1":424.9,"yT1":0,"xT2":1058.1,"yT2":0,"toosoon":0,"cond_shown":"Incongruent","ratio_trial":300,"L_num":1,"L_den":2,"R_num":2,"R_den":10,"correct_side":1,"subjID":"NicoleBecerraForero37","gender":"1","school":"6","age":"11"},{"start_time":1551794129689,"click_time":1551794130938,"finger_time":1551794130597,"fix_duration":250,"trial":50,"RT":908,"MT":341,"sideResp":1,"stimulus":[],"xmouse":[793,793,793,793,793,793,793,793,793,793,793,793,793,793,793,793,793,793,793,793,793,793,793,793,793,793,793,793,793,793,793,793,793,793,793,793,793,793,793,793,793,793,793,793,778,724,707,691,680,670,656,641,616,606,589,580,577,570,561,547,519,508,496],"ymouse":[538,538,538,538,538,538,538,538,538,538,538,538,538,538,538,538,538,538,538,538,538,538,538,538,538,538,538,538,538,538,538,538,538,538,538,538,538,538,538,538,538,538,538,537,517,431,388,336,297,253,225,203,180,174,165,161,158,153,146,137,116,106,96],"timestamp_mouse":[8,41,49,68,88,108,129,148,168,189,208,228,248,269,288,308,330,349,368,388,408,428,449,469,489,509,528,549,568,589,609,628,648,669,689,708,728,748,768,789,808,828,849,870,888,908,928,949,968,990,1008,1028,1048,1069,1088,1110,1128,1148,1169,1189,1209,1229,1249],"xSR":741.5,"ySR":469.95,"xT1":424.9,"yT1":0,"xT2":1058.1,"yT2":0,"toosoon":0,"cond_shown":"Congruent","ratio_trial":300,"L_num":20,"L_den":25,"R_num":13,"R_den":26,"correct_side":1,"subjID":"NicoleBecerraForero37","gender":"1","school":"6","age":"11"},{"start_time":1551794132675,"click_time":1551794134457,"finger_time":1551794134197,"fix_duration":816.9199436700557,"trial":51,"RT":1522,"MT":260,"sideResp":2,"stimulus":[],"xmouse":[814,814,814,814,814,814,814,814,814,814,814,814,814,814,814,814,814,814,814,814,814,814,814,814,814,814,814,814,814,814,814,814,814,814,814,814,814,814,814,814,814,814,814,814,814,814,814,814,814,814,814,814,814,814,814,814,814,814,814,814,814,814,814,814,814,814,814,814,814,814,814,814,814,814,814,814,844,875,913,940,976,993,1009,1029,1053,1071,1099,1109,1113,1114],"ymouse":[509,509,509,509,509,509,509,509,509,509,509,509,509,509,509,509,509,509,509,509,509,509,509,509,509,509,509,509,509,509,509,509,509,509,509,509,509,509,509,509,509,509,509,509,509,509,509,509,509,509,509,509,509,509,509,509,509,509,509,509,509,509,509,509,509,509,509,509,509,509,509,509,509,509,509,507,474,446,414,388,347,324,303,281,261,239,162,126,101,80],"timestamp_mouse":[7,22,43,62,82,102,122,142,162,182,204,222,243,264,282,302,322,342,362,383,402,422,442,463,482,503,522,543,562,583,603,622,642,663,684,702,723,743,763,782,802,823,842,863,882,902,922,943,963,983,1002,1022,1044,1062,1083,1103,1123,1144,1163,1184,1202,1222,1242,1262,1282,1302,1323,1342,1362,1383,1402,1423,1442,1463,1483,1503,1522,1542,1563,1582,1604,1622,1642,1662,1682,1702,1722,1742,1762,1782],"xSR":741.5,"ySR":469.95,"xT1":424.9,"yT1":0,"xT2":1058.1,"yT2":0,"toosoon":0,"cond_shown":"Congruent","ratio_trial":200,"L_num":9,"L_den":30,"R_num":13,"R_den":26,"correct_side":2,"subjID":"NicoleBecerraForero37","gender":"1","school":"6","age":"11"},{"start_time":1551794135630,"click_time":1551794136817,"finger_time":1551794136477,"fix_duration":250,"trial":52,"RT":847,"MT":340,"sideResp":1,"stimulus":[],"xmouse":[825,825,825,825,825,825,825,825,825,825,825,825,825,825,825,825,825,825,825,825,825,825,825,825,825,825,825,825,825,825,825,825,825,825,825,825,825,825,825,825,815,803,789,744,721,699,680,655,625,612,603,599,594,588,577,562,543,520,505,500],"ymouse":[532,532,532,532,532,532,532,532,532,532,532,532,532,532,532,532,532,532,532,532,532,532,532,532,532,532,532,532,532,532,532,532,532,532,532,532,532,532,532,532,519,495,468,410,384,355,327,293,252,235,223,217,209,201,186,168,144,117,100,94],"timestamp_mouse":[11,31,48,68,87,107,127,147,167,187,207,227,248,267,287,309,328,348,368,387,408,427,448,467,487,508,527,548,568,588,607,628,648,667,688,708,727,748,768,787,808,828,847,867,887,908,927,947,969,988,1007,1027,1049,1067,1087,1107,1127,1147,1167,1187],"xSR":741.5,"ySR":469.95,"xT1":424.9,"yT1":0,"xT2":1058.1,"yT2":0,"toosoon":0,"cond_shown":"Congruent","ratio_trial":300,"L_num":4,"L_den":5,"R_num":2,"R_den":4,"correct_side":1,"subjID":"NicoleBecerraForero37","gender":"1","school":"6","age":"11"},{"start_time":1551794140634,"click_time":1551794141898,"finger_time":1551794141518,"fix_duration":1435.025891186347,"trial":53,"RT":884,"MT":380,"sideResp":1,"stimulus":[],"xmouse":[795,795,795,795,795,795,795,795,795,795,795,795,795,795,795,795,795,795,795,795,795,795,795,795,795,795,795,795,795,795,795,795,795,795,795,795,795,795,795,795,795,795,795,