[{"start_time":1551794547384,"click_time":1551794548207,"finger_time":1551794548127,"fix_duration":1451.2064463390013,"trial":0,"RT":743,"MT":80,"sideResp":2,"stimulus":"img/500/randomdotsizeEA/L/11_Ratio_500_L_12_R_6.png","xmouse":[777,777,777,777,777,777,777,777,777,777,777,777,777,777,777,777,777,777,777,777,777,777,777,777,777,777,777,777,777,777,777,777,777,777,790,813,841,878,979,1019,1058,1085],"ymouse":[517,517,517,517,517,517,517,517,517,517,517,517,517,517,517,517,517,517,517,517,517,517,517,517,517,517,517,517,517,517,517,517,517,517,512,496,472,433,298,240,166,97],"timestamp_mouse":[7,24,43,63,83,103,123,143,163,183,203,224,243,263,283,303,323,343,363,383,405,423,443,463,484,503,523,543,563,583,604,625,643,664,683,703,723,743,763,783,804,823],"xSR":741.5,"ySR":469.95,"xT1":424.9,"yT1":0,"xT2":1058.1,"yT2":0,"toosoon":0,"cond_shown":"randomdotsizeEA","ratio_trial":500,"smaller_num":"6","larger_num":"12","correct_side":1,"subjID":"NicoleBecerraForero37","gender":"1","age":"11","school":"6","test":{"fix_dur":[250,1500],"timestim":300,"targets_dim":[100,100],"targets_relative_coord":[0.3,0.7],"size_stim":[880,420],"start_dim":[100,100],"size_start":[300,300],"size_fix":60,"samplingrate":20,"img_types":["equaldotsize","equaldotanddens","randomdotsizeEA"],"ratios":[250,500,750,900],"rep_conds":9,"nTrials":120,"trials_to_rest":500,"Trials_order":[113,27,11,35,20,71,67,99,69,86,83,10,8,46,13,21,32,0,3,73,60,15,112,117,91,38,97,18,39,107,51,118,40,102,22,84,4,43,53,94,116,77,87,66,31,109,92,55,79,103,96,62,93,105,115,59,70,108,114,72,28,25,56,80,42,5,52,33,95,58,29,110,24,78,6,81,100,101,47,63,75,76,68,64,50,111,98,85,30,19,89,49,44,45,41,7,14,54,57,26,37,65,48,61,12,17,36,90,9,1,2,34,74,106,16,119,23,104,88,82],"cond_shown":["randomdotsizeEA","equaldotsize","randomdotsizeEA","randomdotsizeEA","randomdotsizeEA","randomdotsizeEA","equaldotanddens","equaldotsize","equaldotsize","randomdotsizeEA","randomdotsizeEA","equaldotanddens","randomdotsizeEA","equaldotanddens","equaldotanddens","equaldotsize","randomdotsizeEA","equaldotsize","equaldotsize","equaldotanddens","equaldotsize","equaldotsize","equaldotanddens","equaldotsize","equaldotanddens","randomdotsizeEA","equaldotanddens","equaldotsize","equaldotsize","randomdotsizeEA","equaldotsize","equaldotanddens","equaldotanddens","equaldotsize","equaldotanddens","equaldotsize","equaldotanddens","equaldotanddens","randomdotsizeEA","equaldotanddens","randomdotsizeEA","randomdotsizeEA","equaldotsize","equaldotsize","equaldotanddens","equaldotanddens","randomdotsizeEA","equaldotanddens","equaldotanddens","equaldotanddens","equaldotsize","randomdotsizeEA","equaldotsize","equaldotsize","equaldotanddens","randomdotsizeEA","equaldotanddens","equaldotsize","equaldotsize","equaldotsize","equaldotanddens","equaldotanddens","randomdotsizeEA","randomdotsizeEA","equaldotsize","randomdotsizeEA","equaldotanddens","equaldotsize","randomdotsizeEA","equaldotanddens","randomdotsizeEA","randomdotsizeEA","equaldotsize","equaldotsize","equaldotsize","equaldotsize","equaldotanddens","randomdotsizeEA","randomdotsizeEA","equaldotsize","equaldotsize","equaldotanddens","randomdotsizeEA","equaldotanddens","randomdotsizeEA","equaldotsize","randomdotsizeEA","equaldotanddens","equaldotsize","equaldotanddens","randomdotsizeEA","equaldotanddens","randomdotsizeEA","equaldotsize","randomdotsizeEA","equaldotanddens","randomdotsizeEA","equaldotsize","equaldotsize","randomdotsizeEA","equaldotanddens","randomdotsizeEA","equaldotsize","equaldotanddens","equaldotsize","randomdotsizeEA","equaldotsize","equaldotsize","equaldotsize","equaldotanddens","randomdotsizeEA","equaldotanddens","randomdotsizeEA","equaldotanddens","equaldotanddens","randomdotsizeEA","randomdotsizeEA","randomdotsizeEA","equaldotanddens","equaldotanddens"],"ratio_trial":[500,500,900,900,750,900,750,500,900,250,900,900,750,900,250,900,750,250,500,250,250,500,500,900,750,250,250,750,500,900,500,900,500,750,900,250,500,750,500,900,750,500,500,750,750,250,750,750,750,750,250,250,900,900,750,900,900,250,750,250,500,250,750,750,750,500,500,900,900,900,500,250,250,750,750,900,500,500,900,500,500,500,750,500,250,500,250,250,750,750,500,250,750,900,500,750,250,750,900,250,250,500,250,250,250,500,250,750,900,250,250,900,250,900,500,900,900,750,500,900],"smaller_num":["6","1","9","18","3","18","3","10","18","2","18","9","3","18","2","18","12","6","4","6","3","4","5","18","15","3","2","6","9","9","9","9","10","3","9","5","2","15","2","9","15","2","2","6","15","2","18","3","15","3","4","3","18","9","3","18","18","3","6","3","6","3","15","15","3","2","2","18","9","18","10","6","1","3","6","18","9","1","18","6","2","5","18","3","2","4","2","3","12","6","9","4","15","9","9","12","2","3","9","2","5","1","3","3","6","4","2","6","18","3","2","18","4","18","1","18","18","3","2","9"],"larger_num":["12","2","10","20","4","20","4","20","20","8","20","10","4","20","8","20","16","24","8","24","12","8","10","20","20","12","8","8","18","10","18","10","20","4","10","20","4","20","4","10","20","4","4","8","20","8","24","4","20","4","16","12","20","10","4","20","20","12","8","12","12","12","20","20","4","4","4","20","10","20","20","24","4","4","8","20","18","2","20","12","4","10","24","6","8","8","8","12","16","8","18","16","20","10","18","16","8","4","10","8","20","2","12","12","24","8","8","8","20","12","8","20","16","20","2","20","20","4","4","10"],"correct_side":[1,2,2,2,1,1,1,2,2,1,1,2,1,1,1,2,2,2,1,1,2,1,2,1,2,2,1,1,1,2,1,2,2,1,2,2,1,1,1,1,2,1,1,2,2,1,1,1,2,2,1,2,1,1,1,2,2,1,1,2,1,1,2,1,1,1,1,1,2,2,2,2,2,1,1,1,1,2,1,1,1,2,1,2,1,1,1,1,2,1,1,2,2,1,2,2,1,1,2,1,2,2,2,2,2,1,2,1,1,1,1,2,1,2,2,1,1,1,2,1],"img_shown":["img/500/randomdotsizeEA/L/11_Ratio_500_L_12_R_6.png","img/500/equaldotsize/R/15_Ratio_500_L_1_R_2.png","img/900/randomdotsizeEA/R/6_Ratio_900_L_9_R_10.png","img/900/randomdotsizeEA/R/11_Ratio_900_L_18_R_20.png","img/750/randomdotsizeEA/L/8_Ratio_750_L_4_R_3.png","img/900/randomdotsizeEA/L/8_Ratio_900_L_20_R_18.png","img/750/equaldotanddens/L/10_Ratio_750_L_4_R_3.png","img/500/equaldotsize/R/3_Ratio_500_L_10_R_20.png","img/900/equaldotsize/R/11_Ratio_900_L_18_R_20.png","img/250/randomdotsizeEA/L/3_Ratio_250_L_8_R_2.png","img/900/randomdotsizeEA/L/10_Ratio_900_L_20_R_18.png","img/900/equaldotanddens/R/3_Ratio_900_L_9_R_10.png","img/750/randomdotsizeEA/L/8_Ratio_750_L_4_R_3.png","img/900/equaldotanddens/L/10_Ratio_900_L_20_R_18.png","img/250/equaldotanddens/L/7_Ratio_250_L_8_R_2.png","img/900/equaldotsize/R/14_Ratio_900_L_18_R_20.png","img/750/randomdotsizeEA/R/11_Ratio_750_L_12_R_16.png","img/250/equaldotsize/R/6_Ratio_250_L_6_R_24.png","img/500/equaldotsize/L/8_Ratio_500_L_8_R_4.png","img/250/equaldotanddens/L/5_Ratio_250_L_24_R_6.png","img/250/equaldotsize/R/9_Ratio_250_L_3_R_12.png","img/500/equaldotsize/L/8_Ratio_500_L_8_R_4.png","img/500/equaldotanddens/R/14_Ratio_500_L_5_R_10.png","img/900/equaldotsize/L/8_Ratio_900_L_20_R_18.png","img/750/equaldotanddens/R/3_Ratio_750_L_15_R_20.png","img/250/randomdotsizeEA/R/9_Ratio_250_L_3_R_12.png","img/250/equaldotanddens/L/7_Ratio_250_L_8_R_2.png","img/750/equaldotsize/L/14_Ratio_750_L_8_R_6.png","img/500/equaldotsize/L/4_Ratio_500_L_18_R_9.png","img/900/randomdotsizeEA/R/7_Ratio_900_L_9_R_10.png","img/500/equaldotsize/L/4_Ratio_500_L_18_R_9.png","img/900/equaldotanddens/R/6_Ratio_900_L_9_R_10.png","img/500/equaldotanddens/R/3_Ratio_500_L_10_R_20.png","img/750/equaldotsize/L/8_Ratio_750_L_4_R_3.png","img/900/equaldotanddens/R/5_Ratio_900_L_9_R_10.png","img/250/equaldotsize/R/12_Ratio_250_L_5_R_20.png","img/500/equaldotanddens/L/10_Ratio_500_L_4_R_2.png","img/750/equaldotanddens/L/1_Ratio_750_L_20_R_15.png","img/500/randomdotsizeEA/L/5_Ratio_500_L_4_R_2.png","img/900/equaldotanddens/L/1_Ratio_900_L_10_R_9.png","img/750/randomdotsizeEA/R/3_Ratio_750_L_15_R_20.png","img/500/randomdotsizeEA/L/5_Ratio_500_L_4_R_2.png","img/500/equaldotsize/L/5_Ratio_500_L_4_R_2.png","img/750/equaldotsize/R/2_Ratio_750_L_6_R_8.png","img/750/equaldotanddens/R/3_Ratio_750_L_15_R_20.png","img/250/equaldotanddens/L/3_Ratio_250_L_8_R_2.png","img/750/randomdotsizeEA/L/6_Ratio_750_L_24_R_18.png","img/750/equaldotanddens/L/8_Ratio_750_L_4_R_3.png","img/750/equaldotanddens/R/3_Ratio_750_L_15_R_20.png","img/750/equaldotanddens/R/12_Ratio_750_L_3_R_4.png","img/250/equaldotsize/L/2_Ratio_250_L_16_R_4.png","img/250/randomdotsizeEA/R/11_Ratio_250_L_3_R_12.png","img/900/equaldotsize/L/4_Ratio_900_L_20_R_18.png","img/900/equaldotsize/L/1_Ratio_900_L_10_R_9.png","img/750/equaldotanddens/L/10_Ratio_750_L_4_R_3.png","img/900/randomdotsizeEA/R/13_Ratio_900_L_18_R_20.png","img/900/equaldotanddens/R/13_Ratio_900_L_18_R_20.png","img/250/equaldotsize/L/14_Ratio_250_L_12_R_3.png","img/750/equaldotsize/L/14_Ratio_750_L_8_R_6.png","img/250/equaldotsize/R/9_Ratio_250_L_3_R_12.png","img/500/equaldotanddens/L/13_Ratio_500_L_12_R_6.png","img/250/equaldotanddens/L/14_Ratio_250_L_12_R_3.png","img/750/randomdotsizeEA/R/3_Ratio_750_L_15_R_20.png","img/750/randomdotsizeEA/L/1_Ratio_750_L_20_R_15.png","img/750/equaldotsize/L/9_Ratio_750_L_4_R_3.png","img/500/randomdotsizeEA/L/5_Ratio_500_L_4_R_2.png","img/500/equaldotanddens/L/5_Ratio_500_L_4_R_2.png","img/900/equaldotsize/L/8_Ratio_900_L_20_R_18.png","img/900/randomdotsizeEA/R/15_Ratio_900_L_9_R_10.png","img/900/equaldotanddens/R/14_Ratio_900_L_18_R_20.png","img/500/randomdotsizeEA/R/3_Ratio_500_L_10_R_20.png","img/250/randomdotsizeEA/R/6_Ratio_250_L_6_R_24.png","img/250/equaldotsize/R/8_Ratio_250_L_1_R_4.png","img/750/equaldotsize/L/10_Ratio_750_L_4_R_3.png","img/750/equaldotsize/L/14_Ratio_750_L_8_R_6.png","img/900/equaldotsize/L/2_Ratio_900_L_20_R_18.png","img/500/equaldotanddens/L/4_Ratio_500_L_18_R_9.png","img/500/randomdotsizeEA/R/12_Ratio_500_L_1_R_2.png","img/900/randomdotsizeEA/L/2_Ratio_900_L_20_R_18.png","img/500/equaldotsize/L/13_Ratio_500_L_12_R_6.png","img/500/equaldotsize/L/10_Ratio_500_L_4_R_2.png","img/500/equaldotanddens/R/14_Ratio_500_L_5_R_10.png","img/750/randomdotsizeEA/L/6_Ratio_750_L_24_R_18.png","img/500/equaldotanddens/R/2_Ratio_500_L_3_R_6.png","img/250/randomdotsizeEA/L/7_Ratio_250_L_8_R_2.png","img/500/equaldotsize/L/8_Ratio_500_L_8_R_4.png","img/250/randomdotsizeEA/L/1_Ratio_250_L_8_R_2.png","img/250/equaldotanddens/L/15_Ratio_250_L_12_R_3.png","img/750/equaldotsize/R/11_Ratio_750_L_12_R_16.png","img/750/equaldotanddens/L/13_Ratio_750_L_8_R_6.png","img/500/randomdotsizeEA/L/4_Ratio_500_L_18_R_9.png","img/250/equaldotanddens/R/10_Ratio_250_L_4_R_16.png","img/750/randomdotsizeEA/R/5_Ratio_750_L_15_R_20.png","img/900/equaldotsize/L/1_Ratio_900_L_10_R_9.png","img/500/randomdotsizeEA/R/6_Ratio_500_L_9_R_18.png","img/750/equaldotanddens/R/11_Ratio_750_L_12_R_16.png","img/250/randomdotsizeEA/L/1_Ratio_250_L_8_R_2.png","img/750/equaldotsize/L/10_Ratio_750_L_4_R_3.png","img/900/equaldotsize/R/5_Ratio_900_L_9_R_10.png","img/250/randomdotsizeEA/L/3_Ratio_250_L_8_R_2.png","img/250/equaldotanddens/R/12_Ratio_250_L_5_R_20.png","img/500/randomdotsizeEA/R/12_Ratio_500_L_1_R_2.png","img/250/equaldotsize/R/9_Ratio_250_L_3_R_12.png","img/250/equaldotanddens/R/4_Ratio_250_L_3_R_12.png","img/250/equaldotsize/R/6_Ratio_250_L_6_R_24.png","img/500/randomdotsizeEA/L/8_Ratio_500_L_8_R_4.png","img/250/equaldotsize/R/13_Ratio_250_L_2_R_8.png","img/750/equaldotsize/L/13_Ratio_750_L_8_R_6.png","img/900/equaldotsize/L/4_Ratio_900_L_20_R_18.png","img/250/equaldotanddens/L/15_Ratio_250_L_12_R_3.png","img/250/randomdotsizeEA/L/1_Ratio_250_L_8_R_2.png","img/900/equaldotanddens/R/14_Ratio_900_L_18_R_20.png","img/250/randomdotsizeEA/L/2_Ratio_250_L_16_R_4.png","img/900/equaldotanddens/R/13_Ratio_900_L_18_R_20.png","img/500/equaldotanddens/R/15_Ratio_500_L_1_R_2.png","img/900/randomdotsizeEA/L/4_Ratio_900_L_20_R_18.png","img/900/randomdotsizeEA/L/8_Ratio_900_L_20_R_18.png","img/750/randomdotsizeEA/L/8_Ratio_750_L_4_R_3.png","img/500/equaldotanddens/R/9_Ratio_500_L_2_R_4.png","img/900/equaldotanddens/L/1_Ratio_900_L_10_R_9.png"],"Rat0":[["12_Ratio_0_L_9_R_0.png","13_Ratio_0_L_6_R_0.png","5_Ratio_0_L_2_R_0.png","6_Ratio_0_L_4_R_0.png","8_Ratio_0_L_6_R_0.png"],["1_Ratio_0_L_0_R_17.png","10_Ratio_0_L_0_R_22.png","11_Ratio_0_L_0_R_1.png","14_Ratio_0_L_0_R_24.png","15_Ratio_0_L_0_R_4.png","2_Ratio_0_L_0_R_5.png","3_Ratio_0_L_0_R_17.png","4_Ratio_0_L_0_R_7.png","7_Ratio_0_L_0_R_19.png","9_Ratio_0_L_0_R_15.png"]],"Rat250":[["1_Ratio_250_L_8_R_2.png","14_Ratio_250_L_12_R_3.png","15_Ratio_250_L_12_R_3.png","2_Ratio_250_L_16_R_4.png","3_Ratio_250_L_8_R_2.png","5_Ratio_250_L_24_R_6.png","7_Ratio_250_L_8_R_2.png"],["10_Ratio_250_L_4_R_16.png","11_Ratio_250_L_3_R_12.png","12_Ratio_250_L_5_R_20.png","13_Ratio_250_L_2_R_8.png","4_Ratio_250_L_3_R_12.png","6_Ratio_250_L_6_R_24.png","8_Ratio_250_L_1_R_4.png","9_Ratio_250_L_3_R_12.png"]],"Rat500":[["10_Ratio_500_L_4_R_2.png","11_Ratio_500_L_12_R_6.png","13_Ratio_500_L_12_R_6.png","4_Ratio_500_L_18_R_9.png","5_Ratio_500_L_4_R_2.png","7_Ratio_500_L_10_R_5.png","8_Ratio_500_L_8_R_4.png"],["1_Ratio_500_L_9_R_18.png","12_Ratio_500_L_1_R_2.png","14_Ratio_500_L_5_R_10.png","15_Ratio_500_L_1_R_2.png","2_Ratio_500_L_3_R_6.png","3_Ratio_500_L_10_R_20.png","6_Ratio_500_L_9_R_18.png","9_Ratio_500_L_2_R_4.png"]],"Rat750":[["1_Ratio_750_L_20_R_15.png","10_Ratio_750_L_4_R_3.png","13_Ratio_750_L_8_R_6.png","14_Ratio_750_L_8_R_6.png","6_Ratio_750_L_24_R_18.png","8_Ratio_750_L_4_R_3.png","9_Ratio_750_L_4_R_3.png"],["11_Ratio_750_L_12_R_16.png","12_Ratio_750_L_3_R_4.png","15_Ratio_750_L_9_R_12.png","2_Ratio_750_L_6_R_8.png","3_Ratio_750_L_15_R_20.png","4_Ratio_750_L_15_R_20.png","5_Ratio_750_L_15_R_20.png","7_Ratio_750_L_3_R_4.png"]],"Rat900":[["1_Ratio_900_L_10_R_9.png","10_Ratio_900_L_20_R_18.png","2_Ratio_900_L_20_R_18.png","4_Ratio_900_L_20_R_18.png","8_Ratio_900_L_20_R_18.png"],["11_Ratio_900_L_18_R_20.png","12_Ratio_900_L_18_R_20.png","13_Ratio_900_L_18_R_20.png","14_Ratio_900_L_18_R_20.png","15_Ratio_900_L_9_R_10.png","3_Ratio_900_L_9_R_10.png","5_Ratio_900_L_9_R_10.png","6_Ratio_900_L_9_R_10.png","7_Ratio_900_L_9_R_10.png","9_Ratio_900_L_18_R_20.png"]],"Rat1000":[["10_Ratio_1000_L_16_R_16.png","11_Ratio_1000_L_6_R_6.png","12_Ratio_1000_L_14_R_14.png","13_Ratio_1000_L_20_R_20.png","15_Ratio_1000_L_15_R_15.png","2_Ratio_1000_L_17_R_17.png","4_Ratio_1000_L_9_R_9.png","5_Ratio_1000_L_6_R_6.png","6_Ratio_1000_L_19_R_19.png","8_Ratio_1000_L_14_R_14.png","9_Ratio_1000_L_25_R_25.png"],["1_Ratio_1000_L_1_R_1.png","14_Ratio_1000_L_17_R_17.png","3_Ratio_1000_L_17_R_17.png","7_Ratio_1000_L_6_R_6.png"]]}},{"start_time":1551794552083,"click_time":1551794553529,"finger_time":1551794552288,"fix_duration":1174.2683896733456,"trial":1,"RT":205,"MT":1241,"sideResp":2,"stimulus":"img/500/equaldotsize/R/15_Ratio_500_L_1_R_2.png","xmouse":[819,819,819,819,819,819,819,822,832,840,843,844,844,844,844,844,844,844,844,844,844,844,844,844,844,844,844,844,844,844,844,843,842,840,840,840,840,840,840,840,840,840,840,868,882,893,900,905,917,926,935,938,942,947,953,957,964,973,976,979,981,983,988,995,1000,1006,1013,1022,1025,1030,1035,1039,1061],"ymouse":[537,537,537,537,537,537,537,537,537,537,538,538,538,538,538,538,538,538,538,538,538,538,538,538,538,538,538,538,538,538,539,539,539,539,539,539,539,539,539,539,539,536,525,467,439,422,410,400,370,345,315,282,256,226,209,201,188,162,147,137,129,126,121,116,112,106,100,93,91,89,87,85,77],"timestamp_mouse":[4,24,44,64,85,105,125,145,165,184,205,225,245,264,284,305,324,344,364,385,404,425,444,464,485,504,524,544,564,584,604,624,644,664,684,704,724,745,764,784,805,824,844,865,884,905,924,944,965,984,1005,1025,1045,1064,1084,1104,1124,1146,1164,1184,1205,1225,1245,1264,1284,1305,1325,1346,1364,1384,1404,1424,1446],"xSR":741.5,"ySR":469.95,"xT1":424.9,"yT1":0,"xT2":1058.1,"yT2":0,"toosoon":0,"cond_shown":"equaldotsize","ratio_trial":500,"smaller_num":"1","larger_num":"2","correct_side":2,"subjID":"NicoleBecerraForero37","gender":"1","age":"11","school":"6"},{"start_time":1551794555722,"click_time":1551794556788,"finger_time":1551794556507,"fix_duration":1311.2799346965035,"trial":2,"RT":785,"MT":281,"sideResp":2,"stimulus":"img/900/randomdotsizeEA/R/6_Ratio_900_L_9_R_10.png","xmouse":[799,799,799,799,799,799,799,799,799,799,799,799,799,799,799,799,799,799,799,799,799,799,799,799,799,799,799,799,799,799,799,799,799,799,799,799,799,806,814,842,920,973,999,1017,1028,1040,1044,1046,1048,1048,1050,1052,1056,1061],"ymouse":[520,520,520,520,520,520,520,520,520,520,520,520,520,520,520,520,520,520,520,520,520,520,520,520,520,520,520,520,520,520,520,520,520,520,520,520,520,509,498,461,334,239,196,160,139,108,100,94,92,90,87,86,84,82],"timestamp_mouse":[7,34,45,65,85,106,126,145,166,185,205,226,245,265,285,306,326,345,365,386,405,426,446,466,485,505,526,546,565,585,605,625,646,665,685,706,725,746,766,785,806,825,845,865,885,906,925,946,966,986,1006,1025,1046,1065],"xSR":741.5,"ySR":469.95,"xT1":424.9,"yT1":0,"xT2":1058.1,"yT2":0,"toosoon":0,"cond_shown":"randomdotsizeEA","ratio_trial":900,"smaller_num":"9","larger_num":"10","correct_side":2,"subjID":"NicoleBecerraForero37","gender":"1","age":"11","school":"6"},{"start_time":1551794558852,"click_time":1551794560107,"finger_time":1551794559728,"fix_duration":1024.0820153111736,"trial":3,"RT":876,"MT":379,"sideResp":2,"stimulus":"img/900/randomdotsizeEA/R/11_Ratio_900_L_18_R_20.png","xmouse":[809,809,809,809,809,809,809,809,809,809,809,809,809,809,809,809,809,809,809,809,809,809,809,809,809,809,809,809,809,809,809,809,809,809,809,809,809,809,809,809,811,817,828,866,906,936,968,997,1058,1082,1106,1124,1136,1149,1152,1152,1152,1152,1151,1147,1145,1143,1139],"ymouse":[488,488,488,488,488,488,488,488,488,488,488,488,488,488,488,488,488,488,488,488,488,488,488,488,488,488,488,488,488,488,488,488,488,488,488,488,488,488,487,487,485,480,471,441,401,368,328,289,221,200,179,164,152,134,125,118,115,113,110,106,103,100,94],"timestamp_mouse":[15,36,56,77,95,115,136,155,175,196,216,235,255,276,296,315,336,355,376,395,415,435,455,475,495,516,536,556,575,595,615,635,656,675,696,715,735,755,775,797,815,836,855,876,895,915,935,955,976,995,1015,1036,1056,1076,1095,1116,1135,1155,1175,1195,1215,1235,1255],"xSR":741.5,"ySR":469.95,"xT1":424.9,"yT1":0,"xT2":1058.1,"yT2":0,"toosoon":0,"cond_shown":"randomdotsizeEA","ratio_trial":900,"smaller_num":"18","larger_num":"20","correct_side":2,"subjID":"NicoleBecerraForero37","gender":"1","age":"11","school":"6"},{"start_time":1551794561001,"click_time":1551794562227,"finger_time":1551794561887,"fix_duration":250,"trial":4,"RT":886,"MT":340,"sideResp":1,"stimulus":"img/750/randomdotsizeEA/L/8_Ratio_750_L_4_R_3.png","xmouse":[778,778,778,778,778,778,778,778,778,778,778,778,778,778,778,778,778,778,778,778,778,778,778,778,778,778,778,778,778,778,778,778,778,778,778,778,778,778,778,778,778,778,778,775,768,757,722,695,679,667,653,623,613,600,586,571,537,519,510,502,496,491],"ymouse":[506,506,506,506,506,506,506,506,506,506,506,506,506,506,506,506,506,506,506,506,506,506,506,506,506,506,506,506,506,506,506,506,506,506,506,506,506,506,506,506,506,506,506,491,464,427,307,248,225,207,192,167,161,154,148,140,124,118,112,106,100,94],"timestamp_mouse":[9,26,46,66,86,106,127,146,167,186,206,226,247,267,286,306,327,346,367,387,406,426,446,466,486,507,526,547,566,586,606,626,646,666,686,707,726,747,767,786,806,827,847,866,886,907,928,946,966,987,1006,1027,1046,1066,1087,1106,1127,1146,1166,1186,1207,1226],"xSR":741.5,"ySR":469.95,"xT1":424.9,"yT1":0,"xT2":1058.1,"yT2":0,"toosoon":0,"cond_shown":"randomdotsizeEA","ratio_trial":750,"smaller_num":"3","larger_num":"4","correct_side":1,"subjID":"NicoleBecerraForero37","gender":"1","age":"11","school":"6"},{"start_time":1551794563229,"click_time":1551794564208,"finger_time":1551794563829,"fix_duration":298.3699575389216,"trial":5,"RT":600,"MT":379,"sideResp":2,"stimulus":"img/900/randomdotsizeEA/L/8_Ratio_900_L_20_R_18.png","xmouse":[796,796,796,796,796,796,796,796,796,796,796,796,796,796,796,796,796,796,796,796,796,796,796,796,796,796,796,796,797,800,825,847,875,896,915,944,949,953,958,962,967,968,970,976,986,996,1010,1029,1047,1062],"ymouse":[524,524,524,524,524,524,524,524,524,524,524,524,524,524,524,524,524,524,524,524,524,524,524,524,524,524,524,524,524,509,420,361,309,272,238,184,167,152,143,138,132,131,130,127,123,120,116,108,97,87],"timestamp_mouse":[1,19,38,59,79,99,119,139,159,179,199,218,239,258,279,300,319,338,360,378,400,419,439,460,479,500,519,540,559,579,600,618,639,659,680,700,719,739,760,778,800,819,839,860,880,900,918,939,958,979],"xSR":741.5,"ySR":469.95,"xT1":424.9,"yT1":0,"xT2":1058.1,"yT2":0,"toosoon":0,"cond_shown":"randomdotsizeEA","ratio_trial":900,"smaller_num":"18","larger_num":"20","correct_side":1,"subjID":"NicoleBecerraForero37","gender":"1","age":"11","school":"6"},{"start_time":1551794565672,"click_time":1551794566628,"finger_time":1551794566528,"fix_duration":562.6708477439588,"trial":6,"RT":856,"MT":100,"sideResp":1,"stimulus":"img/750/equaldotanddens/L/10_Ratio_750_L_4_R_3.png","xmouse":[778,778,778,778,778,778,778,778,778,778,778,779,779,779,779,779,779,779,779,779,779,779,779,779,779,779,779,779,779,779,779,779,779,779,779,779,779,779,779,779,779,771,733,647,579,513,473,452],"ymouse":[528,528,528,528,528,528,528,528,528,528,528,529,529,529,529,529,529,529,529,529,529,529,529,529,529,529,529,529,529,529,529,529,529,529,529,529,529,529,529,529,529,506,425,286,193,131,106,93],"timestamp_mouse":[17,36,57,77,96,116,135,157,176,195,217,237,256,275,297,316,335,356,376,396,416,436,456,477,495,516,535,555,576,595,616,635,657,676,695,717,735,755,777,797,817,836,856,875,896,917,937,956],"xSR":741.5,"ySR":469.95,"xT1":424.9,"yT1":0,"xT2":1058.1,"yT2":0,"toosoon":0,"cond_shown":"equaldotanddens","ratio_trial":750,"smaller_num":"3","larger_num":"4","correct_side":1,"subjID":"NicoleBecerraForero37","gender":"1","age":"11","school":"6"},{"start_time":1551794568967,"click_time":1551794569969,"finger_time":1551794569649,"fix_duration":1477.2746592890833,"trial":7,"RT":682,"MT":320,"sideResp":2,"stimulus":"img/500/equaldotsize/R/3_Ratio_500_L_10_R_20.png","xmouse":[793,793,793,793,793,793,793,793,793,793,793,793,793,793,793,793,793,793,793,793,793,793,793,793,793,793,793,793,793,793,794,796,802,838,871,907,945,979,1007,1051,1056,1057,1058,1060,1063,1063,1063,1063,1063,1063,1063],"ymouse":[518,518,518,518,518,518,518,518,518,518,518,518,518,518,518,518,518,518,518,518,518,518,518,518,518,518,518,518,518,518,517,516,510,475,426,377,336,302,273,230,224,216,208,197,169,159,146,136,123,103,98],"timestamp_mouse":[1,28,41,61,80,100,121,140,162,181,200,220,241,260,280,301,320,340,361,381,402,420,442,462,480,502,522,541,562,581,601,622,640,661,682,702,720,740,761,781,802,822,842,860,881,900,922,941,961,982,1001],"xSR":741.5,"ySR":469.95,"xT1":424.9,"yT1":0,"xT2":1058.1,"yT2":0,"toosoon":0,"cond_shown":"equaldotsize","ratio_trial":500,"smaller_num":"10","larger_num":"20","correct_side":2,"subjID":"NicoleBecerraForero37","gender":"1","age":"11","school":"6"},{"start_time":1551794572538,"click_time":1551794573368,"finger_time":1551794573148,"fix_duration":367.0676126667652,"trial":8,"RT":610,"MT":220,"sideResp":2,"stimulus":"img/900/equaldotsize/R/11_Ratio_900_L_18_R_20.png","xmouse":[784,784,784,784,784,784,784,784,784,784,784,784,784,784,784,784,784,784,784,784,784,784,784,784,784,784,784,784,786,791,863,915,963,995,1011,1036,1043,1048,1053,1062,1064,1070],"ymouse":[556,556,556,556,556,556,556,556,556,556,556,556,557,557,557,557,557,557,557,557,557,557,557,557,557,557,557,557,557,552,465,399,331,265,211,147,133,124,115,107,105,99],"timestamp_mouse":[9,34,49,70,90,109,130,149,170,191,211,230,251,269,290,310,330,350,370,391,411,429,451,471,490,509,530,550,569,590,610,630,651,670,691,711,730,750,771,791,810,830],"xSR":741.5,"ySR":469.95,"xT1":424.9,"yT1":0,"xT2":1058.1,"yT2":0,"toosoon":0,"cond_shown":"equaldotsize","ratio_trial":900,"smaller_num":"18","larger_num":"20","correct_side":2,"subjID":"NicoleBecerraForero37","gender":"1","age":"11","school":"6"},{"start_time":1551794574339,"click_time":1551794575549,"finger_time":1551794575228,"fix_duration":250,"trial":9,"RT":889,"MT":321,"sideResp":1,"stimulus":"img/250/randomdotsizeEA/L/3_Ratio_250_L_8_R_2.png","xmouse":[785,785,786,786,786,786,786,786,786,786,786,786,786,786,786,786,786,786,786,786,786,786,786,786,786,786,786,786,786,786,786,786,786,786,786,786,786,786,786,786,786,786,786,783,742,717,691,663,649,630,617,607,599,588,577,561,553,544,535,526,520],"ymouse":[510,510,510,510,510,510,510,510,510,510,510,510,510,510,510,510,510,510,510,510,510,510,510,510,510,510,510,510,510,510,510,510,510,510,510,510,510,510,510,510,510,510,507,494,391,334,280,236,217,195,180,169,159,149,138,119,107,92,78,62,52],"timestamp_mouse":[21,29,49,68,89,108,128,149,170,188,209,228,250,268,288,310,329,349,369,389,409,430,448,468,490,508,528,550,568,590,608,630,649,668,690,708,728,750,769,789,809,828,849,869,889,908,928,950,969,990,1008,1029,1049,1070,1090,1109,1129,1149,1169,1188,1209],"xSR":741.5,"ySR":469.95,"xT1":424.9,"yT1":0,"xT2":1058.1,"yT2":0,"toosoon":0,"cond_shown":"randomdotsizeEA","ratio_trial":250,"smaller_num":"2","larger_num":"8","correct_side":1,"subjID":"NicoleBecerraForero37","gender":"1","age":"11","school":"6"},{"start_time":1551794577448,"click_time":1551794578548,"finger_time":1551794578188,"fix_duration":1159.0470618519169,"trial":10,"RT":740,"MT":360,"sideResp":2,"stimulus":"img/900/randomdotsizeEA/L/10_Ratio_900_L_20_R_18.png","xmouse":[796,796,796,796,796,796,796,796,796,796,796,796,796,796,796,796,796,796,796,796,796,796,796,796,796,796,796,796,796,796,796,796,796,796,803,816,834,855,902,920,931,939,943,949,963,976,986,996,1022,1034,1040,1044,1048,1050,1062],"ymouse":[511,511,511,511,511,511,511,511,511,511,511,511,511,511,511,511,511,511,511,511,511,511,511,511,511,511,511,511,511,511,511,511,511,511,504,489,469,443,358,310,275,249,231,215,190,172,160,143,108,97,93,90,89,87,80],"timestamp_mouse":[31,40,60,79,101,121,140,159,181,200,221,240,261,279,301,320,340,360,379,400,419,440,460,479,501,519,541,560,579,600,620,640,659,680,700,720,740,761,781,799,820,840,859,881,901,920,939,959,980,1000,1020,1040,1060,1081,1100],"xSR":741.5,"ySR":469.95,"xT1":424.9,"yT1":0,"xT2":1058.1,"yT2":0,"toosoon":0,"cond_shown":"randomdotsizeEA","ratio_trial":900,"smaller_num":"18","larger_num":"20","correct_side":1,"subjID":"NicoleBecerraForero37","gender":"1","age":"11","school":"6"},{"start_time":1551794580598,"click_time":1551794581508,"finger_time":1551794581288,"fix_duration":1228.0883952158574,"trial":11,"RT":690,"MT":220,"sideResp":2,"stimulus":"img/900/equaldotanddens/R/3_Ratio_900_L_9_R_10.png","xmouse":[778,783,786,789,790,790,790,790,790,790,790,790,790,790,790,790,790,790,790,790,790,790,790,790,790,790,790,790,790,790,790,791,799,813,833,858,888,958,981,998,1012,1028,1032,1038,1047,1059],"ymouse":[505,510,513,515,515,515,515,515,515,515,515,515,515,515,515,515,515,515,515,515,515,515,515,515,515,515,515,515,515,515,515,515,506,484,452,404,351,205,159,127,104,80,74,64,57,50],"timestamp_mouse":[14,31,49,69,90,109,131,151,170,191,209,231,250,271,290,309,331,351,371,390,410,430,451,469,490,509,529,549,571,589,610,631,651,670,690,709,730,749,770,790,811,830,849,870,891,910],"xSR":741.5,"ySR":469.95,"xT1":424.9,"yT1":0,"xT2":1058.1,"yT2":0,"toosoon":0,"cond_shown":"equaldotanddens","ratio_trial":900,"smaller_num":"9","larger_num":"10","correct_side":2,"subjID":"NicoleBecerraForero37","gender":"1","age":"11","school":"6"},{"start_time":1551794583456,"click_time":1551794584568,"finger_time":1551794584308,"fix_duration":1167.4035476183958,"trial":12,"RT":852,"MT":260,"sideResp":1,"stimulus":"img/750/randomdotsizeEA/L/8_Ratio_750_L_4_R_3.png","xmouse":[808,808,808,808,808,808,808,808,808,808,808,808,808,808,808,808,808,808,808,808,808,808,808,808,808,808,808,808,808,808,808,808,808,808,808,808,808,808,808,808,804,792,766,736,675,646,622,597,563,551,542,534,528,521,521,520],"ymouse":[501,501,501,501,501,501,501,501,501,501,501,501,501,501,501,501,501,501,501,501,501,501,501,501,501,501,501,501,501,501,501,501,501,501,501,501,501,501,501,501,496,471,429,389,330,316,302,287,267,259,248,231,210,153,106,82],"timestamp_mouse":[12,33,51,72,91,113,131,153,173,192,212,232,251,271,293,312,333,353,372,391,412,432,452,471,492,511,533,552,572,592,612,631,652,671,692,713,731,751,773,791,812,832,851,873,893,911,932,951,973,992,1012,1033,1053,1073,1091,1111],"xSR":741.5,"ySR":469.95,"xT1":424.9,"yT1":0,"xT2":1058.1,"yT2":0,"toosoon":0,"cond_shown":"randomdotsizeEA","ratio_trial":750,"smaller_num":"3","larger_num":"4","correct_side":1,"subjID":"NicoleBecerraForero37","gender":"1","age":"11","school":"6"},{"start_time":1551794585979,"click_time":1551794586829,"finger_time":1551794586708,"fix_duration":670.6336844820923,"trial":13,"RT":729,"MT":121,"sideResp":2,"stimulus":"img/900/equaldotanddens/L/10_Ratio_900_L_20_R_18.png","xmouse":[806,806,806,806,806,806,806,806,806,806,806,806,806,806,806,806,806,806,806,806,806,806,806,806,806,806,806,806,806,806,806,806,806,810,821,837,867,939,989,1014,1033,1045,1063],"ymouse":[525,525,525,525,525,525,525,525,525,525,525,525,525,525,525,525,525,525,525,525,525,525,525,525,525,525,525,525,525,525,525,525,525,522,506,480,424,311,223,176,137,109,70],"timestamp_mouse":[8,30,50,70,90,108,129,148,168,190,208,228,250,269,288,308,329,350,368,390,409,429,449,469,490,509,529,549,569,590,608,628,648,669,688,709,729,750,769,789,808,829,850],"xSR":741.5,"ySR":469.95,"xT1":424.9,"yT1":0,"xT2":1058.1,"yT2":0,"toosoon":0,"cond_shown":"equaldotanddens","ratio_trial":900,"smaller_num":"18","larger_num":"20","correct_side":1,"subjID":"NicoleBecerraForero37","gender":"1","age":"11","school":"6"},{"start_time":1551794588541,"click_time":1551794589447,"finger_time":1551794588947,"fix_duration":589.2228161295468,"trial":14,"RT":406,"MT":500,"sideResp":1,"stimulus":"img/250/equaldotanddens/L/7_Ratio_250_L_8_R_2.png","xmouse":[790,790,790,790,790,790,790,790,790,790,790,790,790,790,790,790,790,791,792,795,798,799,801,802,800,788,780,770,758,711,695,679,666,656,647,627,614,601,585,556,541,536,534,532,529,523],"ymouse":[483,483,483,483,483,483,483,483,483,483,483,483,483,483,483,483,483,483,481,473,467,458,440,415,388,342,324,308,292,266,259,252,249,244,240,227,213,193,170,130,110,103,101,97,94,90],"timestamp_mouse":[8,31,47,68,87,107,127,146,167,186,208,228,246,267,288,306,327,347,367,388,406,427,446,468,488,507,526,548,567,589,607,626,648,667,688,706,727,748,767,787,806,827,847,868,886,906],"xSR":741.5,"ySR":469.95,"xT1":424.9,"yT1":0,"xT2":1058.1,"yT2":0,"toosoon":0,"cond_shown":"equaldotanddens","ratio_trial":250,"smaller_num":"2","larger_num":"8","correct_side":1,"subjID":"NicoleBecerraForero37","gender":"1","age":"11","school":"6"},{"start_time":1551794592743,"click_time":1551794593489,"finger_time":1551794593329,"fix_duration":1052.6473509825066,"trial":15,"RT":586,"MT":160,"sideResp":2,"stimulus":"img/900/equaldotsize/R/14_Ratio_900_L_18_R_20.png","xmouse":[790,790,790,790,790,790,790,790,790,790,790,790,790,790,790,790,790,790,790,790,790,790,790,790,790,791,796,804,815,861,913,952,984,1016,1043,1074,1087,1097],"ymouse":[521,521,521,521,521,521,521,521,521,521,521,521,521,521,521,521,521,521,521,521,521,521,521,521,521,521,518,512,505,459,394,342,283,230,185,135,113,91],"timestamp_mouse":[8,30,44,65,85,105,124,144,164,185,205,225,244,265,285,304,325,345,364,386,404,425,445,464,484,505,525,545,565,586,605,625,646,664,684,704,725,746],"xSR":741.5,"ySR":469.95,"xT1":424.9,"yT1":0,"xT2":1058.1,"yT2":0,"toosoon":0,"cond_shown":"equaldotsize","ratio_trial":900,"smaller_num":"18","larger_num":"20","correct_side":2,"subjID":"NicoleBecerraForero37","gender":"1","age":"11","school":"6"},{"start_time":1551794594578,"click_time":1551794595568,"finger_time":1551794595368,"fix_duration":348.52891536420327,"trial":16,"RT":790,"MT":200,"sideResp":2,"stimulus":"img/750/randomdotsizeEA/R/11_Ratio_750_L_12_R_16.png","xmouse":[828,828,828,828,828,828,828,828,828,828,828,828,828,828,828,828,828,828,828,828,828,828,828,828,828,828,828,828,828,828,828,828,828,828,828,828,828,828,831,849,889,937,1049,1082,1098,1109,1117,1123,1128,1130],"ymouse":[485,485,485,485,485,485,485,485,485,485,485,485,485,485,485,485,485,485,485,485,485,485,485,485,485,485,485,485,485,485,485,485,485,485,485,485,485,485,481,462,418,367,251,211,187,166,146,122,106,98],"timestamp_mouse":[9,30,51,70,89,110,130,151,170,190,211,231,249,269,291,310,331,350,370,390,411,430,449,470,491,510,529,550,570,591,611,630,650,670,690,711,731,751,770,790,809,830,851,869,890,909,931,951,970,990],"xSR":741.5,"ySR":469.95,"xT1":424.9,"yT1":0,"xT2":1058.1,"yT2":0,"toosoon":0,"cond_shown":"randomdotsizeEA","ratio_trial":750,"smaller_num":"12","larger_num":"16","correct_side":2,"subjID":"NicoleBecerraForero37","gender":"1","age":"11","school":"6"},{"start_time":1551794597409,"click_time":1551794598348,"finger_time":1551794598008,"fix_duration":1060.3668513808057,"trial":17,"RT":599,"MT":340,"sideResp":2,"stimulus":"img/250/equaldotsize/R/6_Ratio_250_L_6_R_24.png","xmouse":[810,810,808,807,806,806,806,806,806,806,806,806,806,806,806,806,806,806,806,806,806,806,806,806,806,806,806,813,827,844,863,895,911,930,954,1002,1030,1047,1058,1065,1067,1070,1073,1076,1077,1080,1085],"ymouse":[506,506,510,510,511,511,511,511,511,511,511,511,511,511,511,511,511,511,511,511,511,511,511,511,511,511,511,501,485,468,452,413,389,355,305,236,202,178,164,156,150,133,123,117,112,106,98],"timestamp_mouse":[20,39,58,79,99,118,140,158,179,200,218,238,259,279,298,318,339,360,379,400,419,438,459,480,499,519,540,560,579,598,620,639,660,680,698,719,739,758,780,800,819,838,860,880,898,919,939],"xSR":741.5,"ySR":469.95,"xT1":424.9,"yT1":0,"xT2":1058.1,"yT2":0,"toosoon":0,"cond_shown":"equaldotsize","ratio_trial":250,"smaller_num":"6","larger_num":"24","correct_side":2,"subjID":"NicoleBecerraForero37","gender":"1","age":"11","school":"6"},{"start_time":1551794599891,"click_time":1551794600668,"finger_time":1551794600348,"fix_duration":981.131701457416,"trial":18,"RT":457,"MT":320,"sideResp":1,"stimulus":"img/500/equaldotsize/L/8_Ratio_500_L_8_R_4.png","xmouse":[777,777,777,777,777,777,777,777,777,777,777,777,777,777,777,777,777,776,774,773,771,765,757,741,720,700,672,659,644,632,617,581,554,538,526,518,510,506,502],"ymouse":[525,525,525,525,525,525,525,525,525,525,525,525,525,525,525,525,525,526,524,515,505,476,443,411,369,337,292,275,256,239,218,181,158,145,136,129,115,108,99],"timestamp_mouse":[16,36,57,78,97,116,136,158,177,197,216,238,257,277,298,318,337,357,377,397,418,437,457,478,498,516,537,556,577,597,618,639,656,676,697,717,737,756,777],"xSR":741.5,"ySR":469.95,"xT1":424.9,"yT1":0,"xT2":1058.1,"yT2":0,"toosoon":0,"cond_shown":"equaldotsize","ratio_trial":500,"smaller_num":"4","larger_num":"8","correct_side":1,"subjID":"NicoleBecerraForero37","gender":"1","age":"11","school":"6"},{"start_time":1551794603000,"click_time":1551794604067,"finger_time":1551794603628,"fix_duration":250,"trial":19,"RT":628,"MT":439,"sideResp":1,"stimulus":"img/250/equaldotanddens/L/5_Ratio_250_L_24_R_6.png","xmouse":[803,801,799,799,799,799,799,799,799,799,799,799,799,799,799,799,799,799,799,799,799,799,799,799,799,799,799,799,795,786,773,740,722,709,697,688,677,635,622,611,603,598,586,573,558,541,533,531,528,526,520,514,505,503],"ymouse":[528,528,528,528,528,528,528,528,528,528,528,528,528,528,528,528,528,528,528,528,528,528,528,528,528,528,528,528,526,520,509,475,452,428,407,385,363,292,271,254,242,230,203,183,162,146,138,134,131,126,118,111,102,98],"timestamp_mouse":[8,27,49,69,87,109,129,148,168,189,207,229,249,268,287,308,329,347,369,398,409,429,447,468,487,508,528,547,568,588,607,628,648,667,688,708,728,747,767,788,808,827,847,868,889,907,929,948,968,989,1008,1027,1047,1067],"xSR":741.5,"ySR":469.95,"xT1":424.9,"yT1":0,"xT2":1058.1,"yT2":0,"toosoon":0,"cond_shown":"equaldotanddens","ratio_trial":250,"smaller_num":"6","larger_num":"24","correct_side":1,"subjID":"NicoleBecerraForero37","gender":"1","age":"11","school":"6"},{"start_time":1551794607947,"click_time":1551794609149,"finger_time":1551794608689,"fix_duration":1497.2347071293684,"trial":20,"RT":742,"MT":460,"sideResp":2,"stimulus":"img/250/equaldotsize/R/9_Ratio_250_L_3_R_12.png","xmouse":[785,785,785,785,785,785,785,785,785,785,785,785,785,785,785,785,785,785,785,785,785,785,785,785,785,785,785,785,785,785,785,785,787,789,795,814,829,849,896,937,988,995,998,1000,1002,1002,1002,1005,1007,1007,1015,1021,1030,1034,1038,1042,1045,1051,1060,1086,1098],"ymouse":[504,504,504,504,504,504,504,504,504,504,504,504,504,504,504,504,504,504,504,504,504,504,504,504,504,504,504,504,504,504,504,504,503,502,498,483,474,467,452,433,393,387,382,374,344,327,309,292,275,261,222,208,195,185,178,168,163,155,144,107,91],"timestamp_mouse":[1,31,41,61,82,101,122,140,162,180,200,221,241,260,282,301,321,341,360,382,401,422,442,460,482,500,520,542,562,582,600,620,642,661,681,701,720,742,761,782,802,821,840,861,882,900,921,940,960,980,1000,1021,1041,1062,1081,1101,1120,1140,1162,1182,1202],"xSR":741.5,"ySR":469.95,"xT1":424.9,"yT1":0,"xT2":1058.1,"yT2":0,"toosoon":0,"cond_shown":"equaldotsize","ratio_trial":250,"smaller_num":"3","larger_num":"12","correct_side":2,"subjID":"NicoleBecerraForero37","gender":"1","age":"11","school":"6"},{"start_time":1551794610058,"click_time":1551794610909,"finger_time":1551794610729,"fix_duration":250,"trial":21,"RT":671,"MT":180,"sideResp":1,"stimulus":"img/500/equaldotsize/L/8_Ratio_500_L_8_R_4.png","xmouse":[807,807,807,807,807,807,807,807,807,807,807,807,807,807,807,807,807,807,807,807,807,807,807,807,807,807,807,807,807,807,804,798,782,728,682,620,592,570,548,540,532,525,520],"ymouse":[557,557,557,557,557,557,557,557,557,557,557,557,557,557,557,557,557,557,557,557,557,557,557,557,557,557,557,557,557,557,547,518,476,361,301,213,178,146,111,97,84,72,65],"timestamp_mouse":[10,30,50,69,89,109,131,149,170,189,211,229,250,271,290,309,331,349,370,391,409,429,449,471,490,510,531,549,569,591,609,631,649,671,689,710,729,750,771,789,810,830,851],"xSR":741.5,"ySR":469.95,"xT1":424.9,"yT1":0,"xT2":1058.1,"yT2":0,"toosoon":0,"cond_shown":"equaldotsize","ratio_trial":500,"smaller_num":"4","larger_num":"8","correct_side":1,"subjID":"NicoleBecerraForero37","gender":"1","age":"11","school":"6"},{"start_time":1551794612495,"click_time":1551794613547,"finger_time":1551794613048,"fix_duration":865.3448965381066,"trial":22,"RT":553,"MT":499,"sideResp":2,"stimulus":"img/500/equaldotanddens/R/14_Ratio_500_L_5_R_10.png","xmouse":[784,784,784,784,784,784,784,784,784,784,784,784,784,784,784,784,784,784,784,784,784,785,786,788,790,794,807,858,889,917,940,986,1046,1091,1129,1167,1210,1216,1217,1217,1217,1217,1217,1217,1217,1217,1215,1206,1198,1188,1178,1169,1146],"ymouse":[514,514,514,514,514,514,514,514,514,514,514,514,514,514,514,514,514,514,514,514,514,514,514,514,513,510,501,461,430,393,358,280,203,156,119,88,49,43,42,42,42,42,42,42,42,42,42,45,47,50,51,54,63],"timestamp_mouse":[16,34,60,73,94,112,132,154,172,194,212,233,252,274,292,314,332,352,374,392,414,433,454,474,494,513,532,553,573,594,612,634,652,673,692,712,733,753,773,793,813,833,852,873,893,912,932,952,973,994,1013,1032,1052],"xSR":741.5,"ySR":469.95,"xT1":424.9,"yT1":0,"xT2":1058.1,"yT2":0,"toosoon":0,"cond_shown":"equaldotanddens","ratio_trial":500,"smaller_num":"5","larger_num":"10","correct_side":2,"subjID":"NicoleBecerraForero37","gender":"1","age":"11","school":"6"},{"start_time":1551794615174,"click_time":1551794616129,"finger_time":1551794615648,"fix_duration":804.4048749830832,"trial":23,"RT":474,"MT":481,"sideResp":1,"stimulus":"img/900/equaldotsize/L/8_Ratio_900_L_20_R_18.png","xmouse":[827,826,825,825,824,824,824,824,824,824,822,822,822,821,820,820,820,820,820,820,820,820,832,844,856,864,867,865,854,846,835,822,789,767,741,722,700,670,646,626,608,588,556,547,540,534,528,523],"ymouse":[482,482,482,482,483,483,483,483,483,483,484,484,484,485,485,485,485,485,485,485,485,485,475,465,450,434,422,401,385,372,357,337,295,271,248,231,213,180,160,144,131,119,101,95,93,90,88,86],"timestamp_mouse":[13,33,55,74,95,113,133,154,175,194,213,235,253,275,294,314,335,354,373,394,413,433,454,474,493,513,534,555,573,594,614,633,654,673,694,715,734,755,774,794,814,834,855,874,893,914,934,955],"xSR":741.5,"ySR":469.95,"xT1":424.9,"yT1":0,"xT2":1058.1,"yT2":0,"toosoon":0,"cond_shown":"equaldotsize","ratio_trial":900,"smaller_num":"18","larger_num":"20","correct_side":1,"subjID":"NicoleBecerraForero37","gender":"1","age":"11","school":"6"},{"start_time":1551794618176,"click_time":1551794619029,"finger_time":1551794618629,"fix_duration":1306.580144053884,"trial":24,"RT":453,"MT":400,"sideResp":2,"stimulus":"img/750/equaldotanddens/R/3_Ratio_750_L_15_R_20.png","xmouse":[790,790,790,790,790,790,790,789,789,789,789,789,789,789,789,789,789,789,789,790,793,798,843,892,954,1014,1067,1119,1184,1196,1207,1217,1228,1229,1229,1229,1229,1229,1229,1229,1229,1229,1146],"ymouse":[485,485,485,485,485,485,486,493,498,500,500,500,500,500,500,500,500,500,497,494,490,483,445,414,375,331,290,242,142,113,82,53,8,2,2,2,2,2,2,2,2,2,6],"timestamp_mouse":[11,35,53,73,91,113,132,152,173,191,213,233,251,272,292,312,331,351,372,392,413,432,453,472,491,513,532,553,571,592,613,631,653,672,692,713,732,751,772,791,812,832,853],"xSR":741.5,"ySR":469.95,"xT1":424.9,"yT1":0,"xT2":1058.1,"yT2":0,"toosoon":0,"cond_shown":"equaldotanddens","ratio_trial":750,"smaller_num":"15","larger_num":"20","correct_side":2,"subjID":"NicoleBecerraForero37","gender":"1","age":"11","school":"6"},{"start_time":1551794620379,"click_time":1551794621429,"finger_time":1551794621228,"fix_duration":250,"trial":25,"RT":849,"MT":201,"sideResp":2,"stimulus":"img/250/randomdotsizeEA/R/9_Ratio_250_L_3_R_12.png","xmouse":[818,818,818,818,818,818,818,818,818,818,818,818,818,818,818,818,818,818,818,818,818,818,818,818,817,816,816,816,816,816,816,816,816,816,816,816,816,816,816,816,824,839,885,907,940,970,1001,1042,1063,1074,1082,1088,1091],"ymouse":[498,498,498,498,498,498,498,498,498,498,498,498,498,498,498,498,498,498,498,498,498,498,498,498,498,498,498,498,498,498,498,498,498,498,498,498,498,498,498,498,488,474,437,416,374,325,276,196,157,137,120,107,98],"timestamp_mouse":[8,32,48,69,89,108,129,148,170,188,209,229,248,268,290,309,329,348,370,388,409,428,449,469,490,508,529,548,570,589,610,629,648,670,690,708,728,749,770,789,809,829,849,868,890,910,928,949,969,988,1009,1029,1050],"xSR":741.5,"ySR":469.95,"xT1":424.9,"yT1":0,"xT2":1058.1,"yT2":0,"toosoon":0,"cond_shown":"randomdotsizeEA","ratio_trial":250,"smaller_num":"3","larger_num":"12","correct_side":2,"subjID":"NicoleBecerraForero37","gender":"1","age":"11","school":"6"},{"start_time":1551794623092,"click_time":1551794627608,"finger_time":1551794627168,"fix_duration":622.7511290377373,"trial":26,"RT":4076,"MT":440,"sideResp":1,"stimulus":"img/250/equaldotanddens/L/7_Ratio_250_L_8_R_2.png","xmouse":[818,818,818,818,818,818,818,818,818,817,817,817,815,815,815,815,815,814,811,806,799,798,798,798,798,798,798,798,798,798,798,798,798,798,798,798,798,798,798,798,798,798,798,798,798,798,798,798,798,798,798,798,798,798,798,798,798,798,798,798,798,798,798,798,798,798,798,798,798,798,798,798,798,798,798,798,798,798,798,798,798,798,798,798,798,798,798,798,798,798,798,798,798,798,798,798,798,798,798,798,798,798,798,798,798,798,798,798,798,798,798,798,798,798,798,798,798,798,798,798,798,798,798,798,798,798,798,798,798,798,798,798,798,798,798,798,798,798,798,798,798,798,798,798,798,798,798,798,798,798,798,798,798,798,798,798,798,798,798,798,798,798,798,798,798,798,798,798,798,798,798,798,798,798,798,798,798,798,798,798,798,798,798,798,798,798,798,798,798,798,798,798,798,798,798,798,798,798,793,791,791,794,808,832,833,831,813,770,703,616,535,472,394,387,384,384,384,384,384,384,384,384,384,384,384,464],"ymouse":[487,487,487,487,487,487,487,487,487,488,488,488,488,488,488,488,488,488,488,483,478,477,477,477,477,477,477,477,477,477,477,477,477,477,477,477,477,477,477,477,477,477,477,477,477,477,477,477,477,477,477,477,477,477,477,477,477,477,477,477,477,477,477,477,477,477,477,477,477,477,477,477,477,477,477,477,477,477,477,477,477,477,477,477,477,477,477,477,477,477,477,477,477,477,477,477,477,477,477,477,477,477,477,477,477,477,477,477,477,477,477,477,477,477,477,477,477,477,477,477,477,477,477,477,477,477,477,477,477,477,477,477,477,477,477,477,477,477,477,477,477,477,477,477,477,477,477,477,477,477,477,477,477,477,477,477,477,477,477,477,477,477,477,477,477,477,477,477,477,477,477,477,477,477,477,477,477,477,477,477,477,477,477,477,477,477,477,477,477,477,477,477,477,477,477,477,477,477,474,471,470,476,510,609,636,643,638,607,547,468,379,294,121,76,37,1,1,1,1,1,1,1,1,1,1,16],"timestamp_mouse":[15,36,56,75,96,116,135,157,176,197,217,236,255,276,295,316,336,356,377,397,416,437,456,477,495,516,537,555,575,596,615,636,655,677,697,716,737,756,776,795,817,835,857,875,895,916,936,957,975,997,1015,1036,1056,1075,1096,1116,1136,1157,1177,1195,1217,1237,1256,1277,1295,1317,1335,1356,1377,1397,1416,1436,1457,1476,1497,1516,1536,1557,1576,1596,1617,1636,1657,1675,1696,1716,1736,1756,1776,1796,1816,1837,1857,1877,1896,1916,1937,1956,1975,1997,2016,2036,2057,2076,2097,2117,2135,2157,2177,2196,2215,2235,2256,2277,2296,2315,2336,2357,2376,2397,2415,2436,2457,2476,2497,2516,2535,2556,2577,2597,2617,2635,2656,2677,2695,2717,2736,2755,2776,2796,2815,2836,2856,2875,2895,2916,2936,2956,2977,2995,3017,3036,3056,3077,3095,3116,3136,3157,3175,3195,3217,3237,3256,3276,3295,3317,3337,3356,3375,3396,3415,3436,3457,3477,3495,3517,3535,3557,3576,3595,3616,3636,3657,3676,3697,3717,3735,3756,3777,3797,3815,3837,3857,3875,3897,3917,3936,3956,3975,3996,4015,4036,4056,4076,4096,4116,4137,4155,4177,4196,4216,4236,4255,4276,4296,4317,4337,4357,4375,4396,4415,4437,4455,4475,4496,4515],"xSR":741.5,"ySR":469.95,"xT1":424.9,"yT1":0,"xT2":1058.1,"yT2":0,"toosoon":0,"cond_shown":"equaldotanddens","ratio_trial":250,"smaller_num":"2","larger_num":"8","correct_side":1,"subjID":"NicoleBecerraForero37","gender":"1","age":"11","school":"6"},{"start_time":1551794628751,"click_time":1551794629629,"finger_time":1551794629429,"fix_duration":281.71461633738335,"trial":27,"RT":678,"MT":200,"sideResp":1,"stimulus":"img/750/equaldotsize/L/14_Ratio_750_L_8_R_6.png","xmouse":[793,793,793,793,793,793,793,793,793,793,793,793,793,793,793,793,793,793,793,793,793,793,794,798,800,801,802,802,804,810,814,819,820,818,807,793,763,716,675,607,590,573,550,496],"ymouse":[533,533,533,533,533,533,533,533,533,533,533,533,533,533,533,533,533,533,533,533,533,533,532,529,528,527,526,526,524,516,507,497,484,460,447,428,403,355,312,240,220,197,162,93],"timestamp_mouse":[16,36,57,77,98,118,136,156,178,197,217,236,258,276,296,316,337,357,378,397,417,437,456,477,497,518,538,556,578,596,617,636,656,678,696,717,736,756,776,797,816,837,857,877],"xSR":741.5,"ySR":469.95,"xT1":424.9,"yT1":0,"xT2":1058.1,"yT2":0,"toosoon":0,"cond_shown":"equaldotsize","ratio_trial":750,"smaller_num":"6","larger_num":"8","correct_side":1,"subjID":"NicoleBecerraForero37","gender":"1","age":"11","school":"6"},{"start_time":1551794631538,"click_time":1551794632468,"finger_time":1551794632168,"fix_duration":949.9787039746404,"trial":28,"RT":630,"MT":300,"sideResp":1,"stimulus":"img/500/equaldotsize/L/4_Ratio_500_L_18_R_9.png","xmouse":[826,826,826,826,826,826,826,826,826,826,826,826,826,826,826,826,826,826,826,826,826,826,826,826,826,826,826,826,823,804,788,765,731,701,671,636,626,613,601,576,563,547,539,531,525,511,506],"ymouse":[539,539,539,539,539,539,539,539,539,539,539,539,539,539,539,539,539,539,539,539,539,539,539,539,539,539,539,539,538,506,485,450,406,364,331,300,291,273,256,223,204,176,161,147,135,102,92],"timestamp_mouse":[10,34,50,70,89,110,130,149,171,189,209,229,251,270,290,310,330,350,370,390,410,430,450,470,490,510,530,550,570,590,610,630,650,671,690,709,730,750,769,791,810,829,850,870,889,910,930],"xSR":741.5,"ySR":469.95,"xT1":424.9,"yT1":0,"xT2":1058.1,"yT2":0,"toosoon":0,"cond_shown":"equaldotsize","ratio_trial":500,"smaller_num":"9","larger_num":"18","correct_side":1,"subjID":"NicoleBecerraForero37","gender":"1","age":"11","school":"6"},{"start_time":1551794634695,"click_time":1551794635829,"finger_time":1551794635367,"fix_duration":1486.1078445653325,"trial":29,"RT":672,"MT":462,"sideResp":2,"stimulus":"img/900/randomdotsizeEA/R/7_Ratio_900_L_9_R_10.png","xmouse":[783,783,783,783,783,783,783,783,783,783,783,783,783,783,783,783,783,783,783,783,783,783,783,783,783,783,783,783,787,789,794,810,832,848,861,869,891,900,909,917,926,935,945,955,965,972,984,991,999,1007,1016,1028,1035,1039,1045,1050,1067],"ymouse":[515,515,515,515,515,515,515,515,515,515,515,515,515,515,515,515,515,515,515,515,515,515,515,515,515,515,515,515,513,511,508,496,478,464,447,429,377,359,345,337,327,306,291,272,254,236,207,193,181,171,164,149,139,129,118,106,81],"timestamp_mouse":[12,33,54,73,93,113,134,153,174,194,213,233,253,272,294,313,333,353,374,392,414,433,452,474,493,514,533,554,573,593,614,633,653,672,692,713,734,753,774,793,813,833,852,873,893,912,933,952,973,992,1012,1033,1053,1073,1093,1113,1134],"xSR":741.5,"ySR":469.95,"xT1":424.9,"yT1":0,"xT2":1058.1,"yT2":0,"toosoon":0,"cond_shown":"randomdotsizeEA","ratio_trial":900,"smaller_num":"9","larger_num":"10","correct_side":2,"subjID":"NicoleBecerraForero37","gender":"1","age":"11","school":"6"},{"start_time":1551794637064,"click_time":1551794637929,"finger_time":1551794637629,"fix_duration":514.5839510875883,"trial":30,"RT":565,"MT":300,"sideResp":1,"stimulus":"img/500/equaldotsize/L/4_Ratio_500_L_18_R_9.png","xmouse":[788,788,788,788,788,788,788,788,788,788,788,788,788,788,788,788,788,788,788,788,788,788,788,788,788,788,788,785,762,730,689,652,611,587,587,587,587,587,587,587,587,587,587,518],"ymouse":[499,499,499,499,499,499,499,499,499,499,499,499,499,499,499,499,499,499,499,499,499,499,499,499,499,499,499,479,399,317,225,136,62,8,8,8,8,8,8,8,8,8,8,1],"timestamp_mouse":[7,23,44,64,85,103,123,144,164,184,203,223,243,265,285,304,324,343,363,385,404,425,444,465,485,503,525,544,565,583,605,625,645,664,684,704,724,744,765,784,804,823,844,864],"xSR":741.5,"ySR":469.95,"xT1":424.9,"yT1":0,"xT2":1058.1,"yT2":0,"toosoon":0,"cond_shown":"equaldotsize","ratio_trial":500,"smaller_num":"9","larger_num":"18","correct_side":1,"subjID":"NicoleBecerraForero37","gender":"1","age":"11","school":"6"},{"start_time":1551794639444,"click_time":1551794640629,"finger_time":1551794640108,"fix_duration":494.77082352047677,"trial":31,"RT":664,"MT":521,"sideResp":2,"stimulus":"img/900/equaldotanddens/R/6_Ratio_900_L_9_R_10.png","xmouse":[793,793,793,793,793,793,793,793,793,793,793,793,793,793,793,793,793,793,793,793,793,793,793,793,793,793,793,793,793,793,793,804,826,865,962,984,985,984,983,981,980,976,972,965,950,939,937,945,969,1009,1079,1092,1096,1096,1096,1096,1096,1096,1096,1096],"ymouse":[540,540,540,540,540,540,540,540,540,540,540,540,540,540,540,540,540,540,540,540,540,540,540,540,540,540,540,540,540,540,540,526,505,459,327,282,274,271,271,269,269,267,264,253,207,172,152,135,123,113,108,108,107,106,106,106,106,104,101,99],"timestamp_mouse":[9,29,43,64,85,104,124,143,164,183,203,225,245,263,285,304,323,343,364,385,405,424,444,464,484,504,523,545,564,584,604,625,644,664,684,703,724,745,763,785,804,824,843,864,885,904,924,944,965,983,1003,1023,1045,1063,1083,1103,1125,1144,1165,1185],"xSR":741.5,"ySR":469.95,"xT1":424.9,"yT1":0,"xT2":1058.1,"yT2":0,"toosoon":0,"cond_shown":"equaldotanddens","ratio_trial":900,"smaller_num":"9","larger_num":"10","correct_side":2,"subjID":"NicoleBecerraForero37","gender":"1","age":"11","school":"6"},{"start_time":1551794642494,"click_time":1551794643229,"finger_time":1551794643067,"fix_duration":1063.702352929396,"trial":32,"RT":573,"MT":162,"sideResp":2,"stimulus":"img/500/equaldotanddens/R/3_Ratio_500_L_10_R_20.png","xmouse":[758,758,758,758,758,758,758,758,758,758,758,758,759,760,761,761,761,761,761,761,761,761,761,761,762,764,785,805,831,855,890,960,988,1028,1044,1055,1062],"ymouse":[502,502,502,502,502,502,502,502,502,502,502,502,502,502,502,502,502,502,502,502,502,502,502,502,502,502,488,474,453,430,392,272,202,112,69,31,2],"timestamp_mouse":[15,35,54,74,94,115,133,154,173,194,214,234,253,274,295,313,334,353,374,393,414,434,454,473,494,513,534,554,573,594,613,635,653,674,694,713,734],"xSR":741.5,"ySR":469.95,"xT1":424.9,"yT1":0,"xT2":1058.1,"yT2":0,"toosoon":0,"cond_shown":"equaldotanddens","ratio_trial":500,"smaller_num":"10","larger_num":"20","correct_side":2,"subjID":"NicoleBecerraForero37","gender":"1","age":"11","school":"6"},{"start_time":1551794646820,"click_time":1551794647788,"finger_time":1551794647429,"fix_duration":449.14241653365525,"trial":33,"RT":609,"MT":359,"sideResp":1,"stimulus":"img/750/equaldotsize/L/8_Ratio_750_L_4_R_3.png","xmouse":[782,782,782,782,782,782,782,782,782,782,782,782,782,782,782,782,782,782,782,782,782,782,782,782,782,782,782,777,764,751,705,684,665,645,636,630,623,621,618,612,593,584,576,569,561,548,542,530,521],"ymouse":[551,551,551,551,551,551,551,551,551,551,551,551,551,551,551,551,551,551,551,551,551,551,551,551,551,551,551,539,516,495,418,374,301,228,184,164,154,152,151,149,141,137,134,132,128,120,114,99,89],"timestamp_mouse":[8,35,48,67,87,107,128,147,168,188,208,228,247,269,287,307,328,347,368,388,407,429,447,468,487,507,529,547,568,589,609,627,647,667,688,707,728,748,768,789,808,827,847,869,888,909,927,948,968],"xSR":741.5,"ySR":469.95,"xT1":424.9,"yT1":0,"xT2":1058.1,"yT2":0,"toosoon":0,"cond_shown":"equaldotsize","ratio_trial":750,"smaller_num":"3","larger_num":"4","correct_side":1,"subjID":"NicoleBecerraForero37","gender":"1","age":"11","school":"6"},{"start_time":1551794649173,"click_time":1551794650048,"finger_time":1551794649589,"fix_duration":823.2844400585236,"trial":34,"RT":416,"MT":459,"sideResp":2,"stimulus":"img/900/equaldotanddens/R/5_Ratio_900_L_9_R_10.png","xmouse":[803,803,803,803,803,803,803,803,803,803,803,803,803,803,803,803,803,806,824,833,844,847,852,857,860,866,878,894,950,970,984,992,1001,1012,1013,1015,1015,1015,1018,1021,1030,1041,1056,1074],"ymouse":[526,526,526,526,526,526,526,526,526,526,526,526,526,526,525,521,514,507,489,482,473,470,467,461,459,451,436,415,318,272,235,209,186,146,137,133,132,132,129,128,122,115,108,99],"timestamp_mouse":[16,39,56,75,94,115,135,155,176,194,215,235,254,275,294,315,335,354,374,395,416,436,455,475,495,515,535,556,574,595,615,636,655,674,694,715,736,756,776,795,814,835,854,875],"xSR":741.5,"ySR":469.95,"xT1":424.9,"yT1":0,"xT2":1058.1,"yT2":0,"toosoon":0,"cond_shown":"equaldotanddens","ratio_trial":900,"smaller_num":"9","larger_num":"10","correct_side":2,"subjID":"NicoleBecerraForero37","gender":"1","age":"11","school":"6"},{"start_time":1551794651505,"click_time":1551794652428,"finger_time":1551794651929,"fix_duration":836.6488173614661,"trial":35,"RT":424,"MT":499,"sideResp":2,"stimulus":"img/250/equaldotsize/R/12_Ratio_250_L_5_R_20.png","xmouse":[790,790,790,790,790,790,791,791,791,791,791,791,792,792,792,792,792,792,797,807,817,850,872,886,903,917,933,961,975,986,1000,1006,1016,1018,1019,1021,1022,1025,1030,1040,1054,1080,1093,1100,1105,1108,1111],"ymouse":[546,546,546,546,546,546,546,546,546,546,546,546,546,546,541,537,520,515,509,502,496,479,464,453,436,418,398,350,322,294,259,233,190,178,173,170,169,165,161,155,148,131,122,116,110,104,98],"timestamp_mouse":[9,34,42,63,82,103,123,142,164,182,203,224,242,262,283,304,324,343,363,383,402,424,442,463,482,503,522,542,562,584,602,622,642,663,682,703,724,743,762,783,804,824,842,862,882,903,923],"xSR":741.5,"ySR":469.95,"xT1":424.9,"yT1":0,"xT2":1058.1,"yT2":0,"toosoon":0,"cond_shown":"equaldotsize","ratio_trial":250,"smaller_num":"5","larger_num":"20","correct_side":2,"subjID":"NicoleBecerraForero37","gender":"1","age":"11","school":"6"},{"start_time":1551794653392,"click_time":1551794654208,"finger_time":1551794653968,"fix_duration":302.7354231239351,"trial":36,"RT":576,"MT":240,"sideResp":1,"stimulus":"img/500/equaldotanddens/L/10_Ratio_500_L_4_R_2.png","xmouse":[764,764,764,764,764,764,764,764,764,764,764,764,764,764,764,764,764,764,764,764,764,764,766,768,770,771,772,766,744,714,678,636,558,531,515,515,515,515,515,500,499],"ymouse":[556,556,556,556,556,556,556,556,556,556,556,556,556,556,556,556,556,556,556,556,556,556,553,551,549,546,522,476,417,352,266,182,46,16,0,0,0,0,0,0,3],"timestamp_mouse":[15,36,55,75,96,115,137,157,176,196,217,235,255,277,296,316,335,356,375,395,417,435,455,477,497,515,537,557,576,597,616,636,656,675,696,717,737,755,775,796,816],"xSR":741.5,"ySR":469.95,"xT1":424.9,"yT1":0,"xT2":1058.1,"yT2":0,"toosoon":0,"cond_shown":"equaldotanddens","ratio_trial":500,"smaller_num":"2","larger_num":"4","correct_side":1,"subjID":"NicoleBecerraForero37","gender":"1","age":"11","school":"6"},{"start_time":1551794655500,"click_time":1551794656347,"finger_time":1551794655808,"fix_duration":432.0391338822595,"trial":37,"RT":308,"MT":539,"sideResp":1,"stimulus":"img/750/equaldotanddens/L/1_Ratio_750_L_20_R_15.png","xmouse":[811,811,811,811,811,811,811,811,811,811,810,809,801,796,792,784,777,754,741,733,727,718,711,705,700,692,670,652,630,608,591,576,546,536,531,525,517,508,507,506,504,500,496],"ymouse":[517,517,517,517,517,517,517,517,517,517,515,510,489,480,472,456,439,396,378,367,356,340,329,319,314,304,278,257,232,212,196,185,160,156,152,147,143,137,136,133,126,116,92],"timestamp_mouse":[7,28,48,67,88,108,128,148,168,189,209,227,249,267,288,308,328,348,368,387,407,429,447,468,487,507,528,547,568,587,607,627,647,668,688,709,728,748,768,789,808,828,847],"xSR":741.5,"ySR":469.95,"xT1":424.9,"yT1":0,"xT2":1058.1,"yT2":0,"toosoon":0,"cond_shown":"equaldotanddens","ratio_trial":750,"smaller_num":"15","larger_num":"20","correct_side":1,"subjID":"NicoleBecerraForero37","gender":"1","age":"11","school":"6"},{"start_time":1551794657161,"click_time":1551794658267,"finger_time":1551794657629,"fix_duration":250,"trial":38,"RT":468,"MT":638,"sideResp":1,"stimulus":"img/500/randomdotsizeEA/L/5_Ratio_500_L_4_R_2.png","xmouse":[824,824,824,824,824,824,824,824,824,824,824,824,824,824,824,824,824,820,816,793,785,779,776,766,760,752,744,737,730,729,729,729,729,728,727,725,717,702,651,565,546,528,521,517,517,517,517,516,516,515,515,515,513,511,502,498],"ymouse":[515,515,515,515,515,515,515,515,515,515,515,515,515,515,515,515,515,512,510,495,486,480,476,466,462,456,448,440,436,435,435,435,435,433,427,417,402,382,330,264,248,233,225,218,218,218,217,214,199,184,172,157,141,129,105,98],"timestamp_mouse":[6,27,47,68,87,108,126,146,167,188,206,227,248,267,287,307,327,347,366,387,407,426,446,468,487,507,526,546,567,587,607,626,648,668,686,707,726,746,766,787,807,827,848,868,888,906,927,947,967,987,1006,1026,1046,1066,1086,1106],"xSR":741.5,"ySR":469.95,"xT1":424.9,"yT1":0,"xT2":1058.1,"yT2":0,"toosoon":0,"cond_shown":"randomdotsizeEA","ratio_trial":500,"smaller_num":"2","larger_num":"4","correct_side":1,"subjID":"NicoleBecerraForero37","gender":"1","age":"11","school":"6"},{"start_time":1551794660700,"click_time":1551794661529,"finger_time":1551794661248,"fix_duration":250,"trial":39,"RT":548,"MT":281,"sideResp":2,"stimulus":"img/900/equaldotanddens/L/1_Ratio_900_L_10_R_9.png","xmouse":[806,806,806,806,806,806,806,806,806,806,806,806,810,815,821,825,826,826,826,826,828,828,829,831,833,834,837,847,855,864,873,884,913,921,927,931,936,971,1008,1052,1089,1127],"ymouse":[540,540,540,540,540,540,540,540,540,540,540,540,540,540,540,540,540,540,540,540,540,540,540,538,534,527,514,480,458,438,415,390,339,328,320,313,303,248,203,151,106,32],"timestamp_mouse":[7,29,49,69,87,108,129,148,167,188,207,228,247,268,287,308,327,347,368,388,408,427,448,467,487,508,527,548,567,589,607,627,647,668,687,708,727,747,768,787,808,829],"xSR":741.5,"ySR":469.95,"xT1":424.9,"yT1":0,"xT2":1058.1,"yT2":0,"toosoon":0,"cond_shown":"equaldotanddens","ratio_trial":900,"smaller_num":"9","larger_num":"10","correct_side":1,"subjID":"NicoleBecerraForero37","gender":"1","age":"11","school":"6"},{"start_time":1551794664101,"click_time":1551794665148,"finger_time":1551794664507,"fix_duration":1151.6897202397618,"trial":40,"RT":406,"MT":641,"sideResp":1,"stimulus":"img/750/randomdotsizeEA/R/3_Ratio_750_L_15_R_20.png","xmouse":[795,795,795,795,795,795,795,795,795,795,795,795,795,795,795,795,795,794,791,787,776,750,736,729,728,727,727,727,722,708,682,639,561,542,531,526,525,524,524,524,524,527,531,533,534,534,532,530,529,528,526,525,524],"ymouse":[506,506,506,506,506,506,506,506,506,506,506,506,506,506,506,506,500,494,484,472,450,407,386,378,375,374,374,374,369,353,326,291,227,220,219,217,216,210,200,190,180,149,125,109,92,76,55,52,51,49,48,47,46],"timestamp_mouse":[9,27,48,67,87,107,127,148,168,187,208,228,246,267,288,306,327,347,367,387,406,428,447,467,488,508,527,547,566,588,607,627,648,666,687,707,727,747,766,787,808,829,847,867,887,907,928,947,967,987,1006,1027,1047],"xSR":741.5,"ySR":469.95,"xT1":424.9,"yT1":0,"xT2":1058.1,"yT2":0,"toosoon":0,"cond_shown":"randomdotsizeEA","ratio_trial":750,"smaller_num":"15","larger_num":"20","correct_side":2,"subjID":"NicoleBecerraForero37","gender":"1","age":"11","school":"6"},{"start_time":1551794666666,"click_time":1551794667868,"finger_time":1551794667528,"fix_duration":557.1741347820605,"trial":41,"RT":862,"MT":340,"sideResp":1,"stimulus":"img/500/randomdotsizeEA/L/5_Ratio_500_L_4_R_2.png","xmouse":[789,789,789,789,789,789,789,789,789,789,789,789,789,789,789,789,789,789,789,789,789,789,789,789,789,789,789,789,789,789,789,789,789,789,789,789,789,789,789,789,789,789,787,771,726,692,663,633,593,577,567,559,555,549,544,542,539,533,520,516,514],"ymouse":[487,487,487,487,487,487,487,487,487,487,487,487,487,487,487,487,487,487,487,487,487,487,487,487,487,487,487,487,487,487,487,487,487,487,487,487,487,487,487,487,487,487,486,467,426,399,376,355,313,294,277,264,251,226,205,190,172,149,109,101,96],"timestamp_mouse":[8,24,43,62,81,103,123,141,162,182,203,222,242,262,281,301,323,343,361,383,401,422,442,463,483,501,522,543,561,582,602,621,642,662,682,702,721,743,761,782,801,823,841,862,881,901,922,942,963,981,1002,1021,1041,1062,1082,1102,1122,1142,1163,1181,1202],"xSR":741.5,"ySR":469.95,"xT1":424.9,"yT1":0,"xT2":1058.1,"yT2":0,"toosoon":0,"cond_shown":"randomdotsizeEA","ratio_trial":500,"smaller_num":"2","larger_num":"4","correct_side":1,"subjID":"NicoleBecerraForero37","gender":"1","age":"11","school":"6"},{"start_time":1551794669471,"click_time":1551794670349,"finger_time":1551794669868,"fix_duration":902.8156410573828,"trial":42,"RT":397,"MT":481,"sideResp":1,"stimulus":"img/500/equaldotsize/L/5_Ratio_500_L_4_R_2.png","xmouse":[783,783,783,783,783,783,783,783,783,783,783,783,783,783,783,783,783,781,753,738,727,718,704,688,676,668,663,653,645,631,608,577,542,471,459,455,454,453,454,456,460,467,473,493],"ymouse":[507,507,507,507,507,507,507,507,507,507,507,507,507,507,507,507,507,504,470,457,446,434,402,366,339,322,312,296,280,260,237,213,190,161,155,151,150,145,139,134,126,119,113,97],"timestamp_mouse":[17,37,57,78,96,118,137,158,177,198,217,237,258,277,296,316,337,357,377,397,418,438,457,477,497,517,538,557,577,598,616,636,656,676,697,718,737,757,776,798,817,837,858,878],"xSR":741.5,"ySR":469.95,"xT1":424.9,"yT1":0,"xT2":1058.1,"yT2":0,"toosoon":0,"cond_shown":"equaldotsize","ratio_trial":500,"smaller_num":"2","larger_num":"4","correct_side":1,"subjID":"NicoleBecerraForero37","gender":"1","age":"11","school":"6"},{"start_time":1551794671465,"click_time":1551794672548,"finger_time":1551794672208,"fix_duration":275.52722349610104,"trial":43,"RT":743,"MT":340,"sideResp":2,"stimulus":"img/750/equaldotsize/R/2_Ratio_750_L_6_R_8.png","xmouse":[825,821,818,817,817,817,817,817,817,817,817,817,817,817,817,817,817,817,816,816,815,815,815,815,815,815,815,815,815,815,815,815,815,815,816,820,828,844,865,921,952,975,992,1013,1027,1033,1041,1045,1049,1053,1055,1055,1056,1057,1062],"ymouse":[551,548,548,548,548,548,548,548,548,548,548,548,548,548,548,548,548,548,547,547,546,546,546,546,546,546,546,546,546,546,546,546,546,546,543,537,527,508,477,367,311,271,242,207,182,166,145,121,95,69,66,65,63,61,55],"timestamp_mouse":[3,23,42,62,84,103,122,143,163,183,203,222,243,263,282,303,323,343,364,383,403,424,444,463,482,504,523,544,562,583,603,622,643,664,683,702,722,743,762,782,803,823,844,863,883,902,922,944,963,983,1002,1023,1042,1062,1082],"xSR":741.5,"ySR":469.95,"xT1":424.9,"yT1":0,"xT2":1058.1,"yT2":0,"toosoon":0,"cond_shown":"equaldotsize","ratio_trial":750,"smaller_num":"6","larger_num":"8","correct_side":2,"subjID":"NicoleBecerraForero37","gender":"1","age":"11","school":"6"},{"start_time":1551794673579,"click_time":1551794674447,"finger_time":1551794674168,"fix_duration":250,"trial":44,"RT":589,"MT":279,"sideResp":2,"stimulus":"img/750/equaldotanddens/R/3_Ratio_750_L_15_R_20.png","xmouse":[789,789,789,789,789,789,789,789,789,789,789,789,789,789,789,789,789,789,789,789,789,789,789,789,789,789,789,789,794,836,904,974,1033,1132,1151,1160,1161,1161,1162,1163,1164,1163,1160,1150],"ymouse":[488,488,488,488,487,486,486,486,486,486,486,486,486,486,486,486,486,486,486,486,486,486,486,486,486,486,486,486,481,457,409,348,274,162,140,128,123,122,115,107,97,89,81,70],"timestamp_mouse":[9,28,50,70,88,110,130,150,169,189,208,230,248,269,288,309,329,349,369,388,410,429,450,468,488,510,528,548,570,589,608,629,650,669,689,708,729,748,769,789,808,828,848,868],"xSR":741.5,"ySR":469.95,"xT1":424.9,"yT1":0,"xT2":1058.1,"yT2":0,"toosoon":0,"cond_shown":"equaldotanddens","ratio_trial":750,"smaller_num":"15","larger_num":"20","correct_side":2,"subjID":"NicoleBecerraForero37","gender":"1","age":"11","school":"6"},{"start_time":1551794677116,"click_time":1551794677807,"finger_time":1551794677628,"fix_duration":1465.4026897652416,"trial":45,"RT":512,"MT":179,"sideResp":1,"stimulus":"img/250/equaldotanddens/L/3_Ratio_250_L_8_R_2.png","xmouse":[789,789,789,789,789,789,789,787,787,786,785,785,785,785,785,785,785,785,785,785,785,785,785,781,775,747,724,687,649,608,528,506,502,499,497],"ymouse":[516,516,516,516,517,519,519,519,520,520,520,520,520,520,520,520,520,520,520,520,520,520,520,513,502,460,428,367,310,257,152,120,112,102,92],"timestamp_mouse":[12,33,52,72,92,113,131,151,173,193,212,233,251,273,291,311,332,352,371,392,411,433,451,473,492,512,531,552,571,592,612,632,652,673,691],"xSR":741.5,"ySR":469.95,"xT1":424.9,"yT1":0,"xT2":1058.1,"yT2":0,"toosoon":0,"cond_shown":"equaldotanddens","ratio_trial":250,"smaller_num":"2","larger_num":"8","correct_side":1,"subjID":"NicoleBecerraForero37","gender":"1","age":"11","school":"6"},{"start_time":1551794680458,"click_time":1551794681368,"finger_time":1551794680908,"fix_duration":250,"trial":46,"RT":450,"MT":460,"sideResp":1,"stimulus":"img/750/randomdotsizeEA/L/6_Ratio_750_L_24_R_18.png","xmouse":[790,790,790,790,790,790,790,790,789,789,789,789,789,789,789,789,789,789,789,784,777,772,768,767,767,767,767,764,745,732,714,686,654,625,579,572,567,565,556,550,544,540,536,530,527,523],"ymouse":[503,503,503,503,503,503,503,503,503,503,503,503,503,503,503,503,503,503,501,493,483,472,466,464,464,464,461,453,415,391,359,309,260,219,154,142,132,122,100,86,71,60,51,40,35,32],"timestamp_mouse":[10,31,49,69,90,109,131,150,170,191,211,231,250,269,290,311,330,349,371,390,409,430,450,470,490,510,530,551,570,589,609,631,650,669,690,709,730,750,771,790,810,830,850,871,889,910],"xSR":741.5,"ySR":469.95,"xT1":424.9,"yT1":0,"xT2":1058.1,"yT2":0,"toosoon":0,"cond_shown":"randomdotsizeEA","ratio_trial":750,"smaller_num":"18","larger_num":"24","correct_side":1,"subjID":"NicoleBecerraForero37","gender":"1","age":"11","school":"6"},{"start_time":1551794682841,"click_time":1551794683508,"finger_time":1551794683388,"fix_duration":692.1146109385824,"trial":47,"RT":547,"MT":120,"sideResp":1,"stimulus":"img/750/equaldotanddens/L/8_Ratio_750_L_4_R_3.png","xmouse":[789,789,789,789,789,789,789,789,789,789,789,789,789,789,789,789,789,789,789,789,789,789,789,789,789,776,758,727,684,586,541,505,473,458],"ymouse":[537,537,537,537,537,537,537,537,537,537,537,537,537,537,537,537,537,537,537,537,537,537,537,537,533,503,474,432,376,251,198,148,104,78],"timestamp_mouse":[9,31,46,66,87,107,127,148,167,187,208,226,247,267,287,308,328,347,368,387,407,426,447,468,486,507,526,547,566,588,607,626,647,667],"xSR":741.5,"ySR":469.95,"xT1":424.9,"yT1":0,"xT2":1058.1,"yT2":0,"toosoon":0,"cond_shown":"equaldotanddens","ratio_trial":750,"smaller_num":"3","larger_num":"4","correct_side":1,"subjID":"NicoleBecerraForero37","gender":"1","age":"11","school":"6"},{"start_time":1551794685618,"click_time":1551794686647,"finger_time":1551794686007,"fix_duration":1129.5638147191817,"trial":48,"RT":389,"MT":640,"sideResp":2,"stimulus":"img/750/equaldotanddens/R/3_Ratio_750_L_15_R_20.png","xmouse":[778,778,778,778,778,778,778,778,778,778,778,778,778,778,778,778,778,779,779,779,770,760,743,726,715,711,709,709,709,714,734,754,776,803,838,944,989,1012,1028,1035,1041,1048,1051,1053,1054,1062,1065,1069,1072,1076,1082,1084],"ymouse":[484,484,484,484,484,484,484,484,484,484,484,484,484,484,484,484,484,480,475,468,441,420,393,369,356,350,341,338,333,327,321,320,320,320,318,299,277,266,256,247,234,213,203,190,178,146,131,124,116,109,101,98],"timestamp_mouse":[10,36,49,68,90,108,130,148,170,190,209,230,250,268,290,310,330,348,370,388,410,428,449,469,489,508,528,548,568,590,610,628,648,670,689,710,729,749,768,789,808,828,849,869,889,910,929,949,969,988,1009,1028],"xSR":741.5,"ySR":469.95,"xT1":424.9,"yT1":0,"xT2":1058.1,"yT2":0,"toosoon":0,"cond_shown":"equaldotanddens","ratio_trial":750,"smaller_num":"15","larger_num":"20","correct_side":2,"subjID":"NicoleBecerraForero37","gender":"1","age":"11","school":"6"},{"start_time":1551794688647,"click_time":1551794689707,"finger_time":1551794689307,"fix_duration":1318.6004775287092,"trial":49,"RT":660,"MT":400,"sideResp":2,"stimulus":"img/750/equaldotanddens/R/12_Ratio_750_L_3_R_4.png","xmouse":[813,813,813,813,813,813,813,813,813,813,813,813,813,813,813,813,813,813,813,814,817,818,818,818,818,818,818,818,818,821,823,828,834,842,869,892,911,929,943,972,985,1000,1012,1023,1043,1053,1061,1063,1067,1075,1080,1085,1089,1092],"ymouse":[540,540,540,540,540,540,540,540,540,540,540,540,540,540,540,540,540,540,540,540,537,536,536,536,536,536,536,536,536,533,529,524,517,507,477,451,426,401,379,337,319,297,277,257,224,209,186,173,159,133,121,110,104,97],"timestamp_mouse":[7,20,40,60,81,100,120,141,160,180,200,221,239,261,280,300,321,340,360,380,401,420,441,460,479,499,520,540,561,580,601,620,641,659,681,700,720,740,759,781,800,820,841,861,881,899,920,939,960,981,1000,1020,1040,1059],"xSR":741.5,"ySR":469.95,"xT1":424.9,"yT1":0,"xT2":1058.1,"yT2":0,"toosoon":0,"cond_shown":"equaldotanddens","ratio_trial":750,"smaller_num":"3","larger_num":"4","correct_side":2,"subjID":"NicoleBecerraForero37","gender":"1","age":"11","school":"6"},{"start_time":1551794690702,"click_time":1551794691568,"finger_time":1551794691228,"fix_duration":333.4400829492643,"trial":50,"RT":526,"MT":340,"sideResp":1,"stimulus":"img/250/equaldotsize/L/2_Ratio_250_L_16_R_4.png","xmouse":[772,773,775,775,775,776,777,777,777,777,777,777,777,777,779,779,779,779,779,779,779,779,779,779,778,772,743,711,674,636,609,575,557,551,548,544,540,538,536,534,534,533,527,522],"ymouse":[537,538,539,539,539,539,539,539,539,539,539,539,539,539,539,539,539,539,539,539,539,539,539,539,531,512,415,342,268,199,154,101,71,59,52,44,33,30,28,27,26,26,26,28],"timestamp_mouse":[8,25,45,65,85,105,126,146,165,186,205,225,245,265,286,305,325,345,366,385,405,425,444,465,486,505,526,544,565,586,606,626,645,665,686,706,725,745,764,785,805,826,846,865],"xSR":741.5,"ySR":469.95,"xT1":424.9,"yT1":0,"xT2":1058.1,"yT2":0,"toosoon":0,"cond_shown":"equaldotsize","ratio_trial":250,"smaller_num":"4","larger_num":"16","correct_side":1,"subjID":"NicoleBecerraForero37","gender":"1","age":"11","school":"6"},{"start_time":1551794693246,"click_time":1551794694027,"finger_time":1551794693728,"fix_duration":876.9094880830042,"trial":51,"RT":482,"MT":299,"sideResp":1,"stimulus":"img/250/randomdotsizeEA/R/11_Ratio_250_L_3_R_12.png","xmouse":[792,792,792,792,792,792,792,792,792,792,792,792,792,792,792,792,792,792,796,804,819,828,834,840,846,847,844,836,824,803,742,712,689,674,664,637,609,578,542,497],"ymouse":[512,512,512,512,512,512,512,512,512,512,512,512,512,512,512,512,512,512,511,506,495,488,481,472,458,449,436,421,405,384,331,300,273,252,232,172,131,94,61,22],"timestamp_mouse":[8,22,41,62,81,100,122,141,161,181,201,222,240,261,281,302,321,340,361,381,400,421,440,461,482,501,521,540,561,580,601,621,641,661,680,701,722,742,761,781],"xSR":741.5,"ySR":469.95,"xT1":424.9,"yT1":0,"xT2":1058.1,"yT2":0,"toosoon":0,"cond_shown":"randomdotsizeEA","ratio_trial":250,"smaller_num":"3","larger_num":"12","correct_side":2,"subjID":"NicoleBecerraForero37","gender":"1","age":"11","school":"6"},{"start_time":1551794696480,"click_time":1551794697528,"finger_time":1551794697067,"fix_duration":751.914413464964,"trial":52,"RT":587,"MT":461,"sideResp":2,"stimulus":"img/900/equaldotsize/L/4_Ratio_900_L_20_R_18.png","xmouse":[783,783,783,783,783,783,783,783,783,783,783,783,783,783,783,783,783,784,786,787,788,792,800,802,802,802,802,802,804,819,838,845,850,873,880,886,890,900,906,913,920,930,966,989,1026,1053,1080,1100,1122,1126,1130,1132,1133],"ymouse":[526,526,526,526,526,526,526,526,526,526,526,526,526,526,525,522,518,512,509,506,503,496,478,473,471,471,471,471,470,458,444,425,392,306,291,281,273,258,252,246,241,235,225,217,206,197,184,172,143,128,113,103,91],"timestamp_mouse":[9,27,48,67,86,108,126,147,167,187,207,227,246,267,286,307,328,348,367,388,408,427,448,468,487,507,527,547,568,587,606,628,648,667,687,707,727,747,767,787,808,828,847,866,887,908,927,946,966,987,1007,1028,1048],"xSR":741.5,"ySR":469.95,"xT1":424.9,"yT1":0,"xT2":1058.1,"yT2":0,"toosoon":0,"cond_shown":"equaldotsize","ratio_trial":900,"smaller_num":"18","larger_num":"20","correct_side":1,"subjID":"NicoleBecerraForero37","gender":"1","age":"11","school":"6"},{"start_time":1551794699835,"click_time":1551794701127,"finger_time":1551794700187,"fix_duration":1466.223645800203,"trial":53,"RT":352,"MT":940,"sideResp":1,"stimulus":"img/900/equaldotsize/L/1_Ratio_900_L_10_R_9.png","xmouse":[777,777,777,777,777,777,777,777,777,777,777,777,777,777,777,774,767,757,747,741,735,734,734,734,734,734,734,734,734,735,737,739,741,742,742,744,746,747,748,749,749,749,749,749,749,750,750,747,726,646,596,571,556,551,550,550,549,546,546,545,539,537,532,525,516],"ymouse":[508,508,508,508,508,508,508,508,508,508,508,508,508,508,508,503,487,462,439,426,414,412,412,412,412,412,412,412,412,413,414,415,417,417,418,419,419,420,421,421,421,421,421,421,421,419,405,379,342,252,214,196,183,179,177,173,166,160,154,147,129,122,108,93,77],"timestamp_mouse":[13,36,52,73,92,111,133,152,172,193,213,232,252,273,293,313,332,352,371,393,412,432,453,471,493,512,532,552,572,593,612,631,652,673,693,712,733,752,772,793,812,832,852,871,891,913,931,952,973,993,1011,1032,1053,1072,1093,1113,1132,1152,1171,1191,1212,1232,1252,1271,1291],"xSR":741.5,"ySR":469.95,"xT1":424.9,"yT1":0,"xT2":1058.1,"yT2":0,"toosoon":0,"cond_shown":"equaldotsize","ratio_trial":900,"smaller_num":"9","larger_num":"10","correct_side":1,"subjID":"NicoleBecerraForero37","gender":"1","age":"11","school":"6"},{"start_time":1551794703278,"click_time":1551794704247,"finger_time":1551794703968,"fix_duration":1328.5409683531639,"trial":54,"RT":690,"MT":279,"sideResp":1,"stimulus":"img/750/equaldotanddens/L/10_Ratio_750_L_4_R_3.png","xmouse":[822,822,822,822,822,822,822,822,822,822,822,822,822,822,822,822,822,822,822,822,822,822,822,822,822,822,822,822,822,822,822,822,814,786,752,707,664,624,556,537,526,516,499,489,482,475,467,455,450],"ymouse":[537,537,537,536,536,536,536,536,536,536,536,536,536,536,536,536,536,536,536,536,536,536,536,536,536,536,536,536,536,536,536,535,521,482,435,381,332,302,250,231,218,207,188,175,163,151,138,108,96],"timestamp_mouse":[9,28,50,70,89,109,129,149,170,189,210,229,249,268,289,309,329,349,369,389,409,429,449,468,489,509,530,548,570,589,610,630,649,670,690,710,729,749,769,790,809,828,851,868,890,908,929,950,969],"xSR":741.5,"ySR":469.95,"xT1":424.9,"yT1":0,"xT2":1058.1,"yT2":0,"toosoon":0,"cond_shown":"equaldotanddens","ratio_trial":750,"smaller_num":"3","larger_num":"4","correct_side":1,"subjID":"NicoleBecerraForero37","gender":"1","age":"11","school":"6"},{"start_time":1551794706100,"click_time":1551794707448,"finger_time":1551794706867,"fix_duration":1170.4401741204417,"trial":55,"RT":767,"MT":581,"sideResp":2,"stimulus":"img/900/randomdotsizeEA/R/13_Ratio_900_L_18_R_20.png","xmouse":[767,767,767,767,767,767,767,767,767,767,767,767,767,767,767,767,767,767,767,767,767,767,767,767,767,767,767,767,767,767,767,767,767,771,783,798,812,832,843,854,861,866,877,885,903,931,992,1011,1021,1024,1025,1025,1025,1027,1030,1035,1052,1064,1070,1076,1080,1085,1090,1090,1090,1090,1090,1091],"ymouse":[530,530,530,530,530,530,530,530,530,530,530,530,530,530,530,530,530,530,530,530,530,530,530,530,530,530,530,530,530,530,530,530,530,530,526,521,516,500,489,472,456,437,379,356,321,277,213,196,185,179,175,175,174,171,167,162,148,138,132,124,117,111,103,101,101,100,100,98],"timestamp_mouse":[8,28,47,66,88,108,128,148,166,187,208,228,246,267,287,307,328,347,368,387,406,427,448,467,487,508,527,547,568,588,606,627,647,667,687,706,726,747,767,788,807,826,846,867,887,908,927,947,966,987,1008,1027,1047,1067,1087,1108,1128,1146,1167,1188,1207,1228,1248,1268,1287,1307,1327,1347],"xSR":741.5,"ySR":469.95,"xT1":424.9,"yT1":0,"xT2":1058.1,"yT2":0,"toosoon":0,"cond_shown":"randomdotsizeEA","ratio_trial":900,"smaller_num":"18","larger_num":"20","correct_side":2,"subjID":"NicoleBecerraForero37","gender":"1","age":"11","school":"6"},{"start_time":1551794709389,"click_time":1551794710228,"finger_time":1551794710107,"fix_duration":879.3519796571236,"trial":56,"RT":718,"MT":121,"sideResp":2,"stimulus":"img/900/equaldotanddens/R/13_Ratio_900_L_18_R_20.png","xmouse":[829,829,827,827,827,827,827,827,827,827,827,827,827,827,827,827,827,827,827,827,827,827,827,827,827,827,827,827,827,827,827,827,827,832,837,856,926,998,1042,1075,1092,1104],"ymouse":[510,510,511,511,511,511,511,511,511,511,511,511,511,511,511,511,511,511,511,511,511,511,511,511,511,511,511,511,511,511,511,511,511,504,497,471,374,271,203,145,114,91],"timestamp_mouse":[18,38,59,78,97,118,137,159,177,198,218,238,258,279,298,318,337,358,379,397,418,448,458,478,499,519,537,559,578,599,618,639,659,678,698,718,738,758,778,798,819,838],"xSR":741.5,"ySR":469.95,"xT1":424.9,"yT1":0,"xT2":1058.1,"yT2":0,"toosoon":0,"cond_shown":"equaldotanddens","ratio_trial":900,"smaller_num":"18","larger_num":"20","correct_side":2,"subjID":"NicoleBecerraForero37","gender":"1","age":"11","school":"6"},{"start_time":1551794711747,"click_time":1551794712846,"finger_time":1551794712328,"fix_duration":657.0820449585885,"trial":57,"RT":581,"MT":518,"sideResp":1,"stimulus":"img/250/equaldotsize/L/14_Ratio_250_L_12_R_3.png","xmouse":[789,789,789,789,789,789,789,789,789,789,790,790,790,790,790,790,790,790,790,790,790,790,790,790,790,790,790,791,789,766,729,704,683,666,656,646,642,638,636,631,607,600,597,595,586,580,575,571,563,550,548,546,544,538,525,520],"ymouse":[499,499,499,499,499,499,499,499,499,499,499,499,499,499,499,499,499,499,499,499,499,499,499,499,499,499,499,498,492,435,335,281,241,218,206,198,195,194,193,193,187,182,180,176,157,141,124,105,90,72,68,67,65,61,55,53],"timestamp_mouse":[7,24,40,60,80,99,120,139,161,181,201,221,240,260,280,300,320,340,361,381,401,421,439,460,480,500,519,540,560,581,600,620,639,660,681,700,720,741,759,781,800,819,840,860,881,900,919,940,960,981,999,1020,1040,1061,1080,1099],"xSR":741.5,"ySR":469.95,"xT1":424.9,"yT1":0,"xT2":1058.1,"yT2":0,"toosoon":0,"cond_shown":"equaldotsize","ratio_trial":250,"smaller_num":"3","larger_num":"12","correct_side":1,"subjID":"NicoleBecerraForero37","gender":"1","age":"11","school":"6"},{"start_time":1551794714429,"click_time":1551794715168,"finger_time":1551794714946,"fix_duration":900.6647762197365,"trial":58,"RT":517,"MT":222,"sideResp":2,"stimulus":"img/750/equaldotsize/L/14_Ratio_750_L_8_R_6.png","xmouse":[799,799,799,799,799,799,799,799,799,799,799,799,799,799,799,799,799,799,799,799,799,799,799,805,828,852,877,920,961,1020,1033,1040,1043,1046,1057,1068,1087],"ymouse":[508,508,508,508,508,508,508,508,508,508,508,508,508,508,508,508,508,508,508,508,508,508,508,507,495,480,456,406,350,230,193,172,156,144,118,101,76],"timestamp_mouse":[26,37,59,77,99,118,138,158,179,197,218,238,258,278,299,317,338,359,378,398,418,439,458,479,499,517,538,558,577,599,617,638,658,677,699,718,738],"xSR":741.5,"ySR":469.95,"xT1":424.9,"yT1":0,"xT2":1058.1,"yT2":0,"toosoon":0,"cond_shown":"equaldotsize","ratio_trial":750,"smaller_num":"6","larger_num":"8","correct_side":1,"subjID":"NicoleBecerraForero37","gender":"1","age":"11","school":"6"},{"start_time":1551794716933,"click_time":1551794718027,"finger_time":1551794717647,"fix_duration":1043.8895270199944,"trial":59,"RT":714,"MT":380,"sideResp":2,"stimulus":"img/250/equaldotsize/R/9_Ratio_250_L_3_R_12.png","xmouse":[789,789,786,786,786,786,786,786,786,785,785,785,785,785,785,785,785,785,788,790,790,790,790,790,790,791,791,791,791,792,796,798,799,799,814,844,901,970,1042,1117,1137,1146,1155,1160,1164,1171,1172,1172,1172,1167,1166,1164,1163,1161,1147],"ymouse":[492,492,493,493,493,493,493,493,493,494,494,494,494,494,494,494,494,495,490,481,481,481,481,481,481,480,480,480,480,480,480,481,482,482,476,455,418,366,309,237,208,191,170,153,144,131,123,115,109,101,99,98,97,96,83],"timestamp_mouse":[28,34,54,74,94,114,134,154,174,195,214,234,254,274,294,314,334,354,374,394,413,435,454,475,493,515,534,554,573,593,615,634,654,674,694,714,733,754,774,795,814,834,854,875,895,914,934,954,974,995,1014,1035,1053,1073,1094],"xSR":741.5,"ySR":469.95,"xT1":424.9,"yT1":0,"xT2":1058.1,"yT2":0,"toosoon":0,"cond_shown":"equaldotsize","ratio_trial":250,"smaller_num":"3","larger_num":"12","correct_side":2,"subjID":"NicoleBecerraForero37","gender":"1","age":"11","school":"6"},{"start_time":1551794722599,"click_time":1551794723628,"finger_time":1551794723247,"fix_duration":850.7609261460927,"trial":60,"RT":648,"MT":381,"sideResp":1,"stimulus":"img/500/equaldotanddens/L/13_Ratio_500_L_12_R_6.png","xmouse":[785,780,777,777,777,777,777,777,777,777,777,777,777,777,777,777,777,777,777,777,777,778,790,799,806,807,808,808,808,808,804,773,742,694,647,606,582,554,552,552,552,552,552,552,552,552,546,541,537,533,526,521],"ymouse":[507,499,493,493,493,493,493,493,493,493,493,493,493,493,493,493,493,493,493,493,493,497,513,522,526,527,527,527,527,525,519,471,430,371,317,273,250,212,206,204,203,197,191,185,177,163,138,122,114,105,95,86],"timestamp_mouse":[7,28,49,69,89,108,128,149,167,187,208,228,249,269,287,308,328,348,369,388,407,428,448,467,488,509,529,547,569,588,609,628,648,667,689,709,729,749,768,787,808,829,847,868,889,909,929,948,968,989,1009,1029],"xSR":741.5,"ySR":469.95,"xT1":424.9,"yT1":0,"xT2":1058.1,"yT2":0,"toosoon":0,"cond_shown":"equaldotanddens","ratio_trial":500,"smaller_num":"6","larger_num":"12","correct_side":1,"subjID":"NicoleBecerraForero37","gender":"1","age":"11","school":"6"},{"start_time":1551794725289,"click_time":1551794726267,"finger_time":1551794725947,"fix_duration":1060.9176424011835,"trial":61,"RT":658,"MT":320,"sideResp":1,"stimulus":"img/250/equaldotanddens/L/14_Ratio_250_L_12_R_3.png","xmouse":[784,783,783,783,783,783,783,783,783,783,783,783,783,783,783,783,783,783,783,783,783,783,783,783,783,783,783,783,783,783,781,774,719,709,700,694,685,682,676,669,659,650,624,612,601,583,533,512,503],"ymouse":[515,515,515,515,515,515,515,515,515,515,515,515,515,515,515,515,515,515,515,515,515,515,515,515,515,515,515,515,515,515,512,504,416,391,370,349,308,295,281,264,247,230,197,186,173,156,111,101,97],"timestamp_mouse":[18,39,58,79,98,119,139,157,178,198,219,237,259,277,298,317,337,358,378,397,419,438,458,479,498,519,538,558,579,599,619,639,658,678,698,718,739,758,778,798,819,837,858,878,898,918,939,958,978],"xSR":741.5,"ySR":469.95,"xT1":424.9,"yT1":0,"xT2":1058.1,"yT2":0,"toosoon":0,"cond_shown":"equaldotanddens","ratio_trial":250,"smaller_num":"3","larger_num":"12","correct_side":1,"subjID":"NicoleBecerraForero37","gender":"1","age":"11","school":"6"},{"start_time":1551794727681,"click_time":1551794728647,"finger_time":1551794728348,"fix_duration":653.7470154165816,"trial":62,"RT":667,"MT":299,"sideResp":2,"stimulus":"img/750/randomdotsizeEA/R/3_Ratio_750_L_15_R_20.png","xmouse":[798,798,798,798,798,798,798,798,798,798,798,798,798,798,798,798,798,798,798,798,798,798,798,798,798,798,798,798,798,798,798,801,827,852,899,925,946,975,991,1002,1011,1016,1017,1019,1021,1025,1034,1061,1078],"ymouse":[517,517,517,517,517,517,517,517,517,517,517,517,517,517,517,517,517,517,517,517,517,517,517,517,517,517,517,517,517,517,517,513,496,479,451,432,410,369,343,321,295,271,246,203,188,172,150,110,92],"timestamp_mouse":[9,25,47,67,87,106,125,147,167,185,206,227,246,267,286,305,327,346,366,385,407,425,446,467,486,505,526,546,567,586,606,626,647,667,686,706,725,747,766,785,807,826,846,867,886,907,926,947,965],"xSR":741.5,"ySR":469.95,"xT1":424.9,"yT1":0,"xT2":1058.1,"yT2":0,"toosoon":0,"cond_shown":"randomdotsizeEA","ratio_trial":750,"smaller_num":"15","larger_num":"20","correct_side":2,"subjID":"NicoleBecerraForero37","gender":"1","age":"11","school":"6"},{"start_time":1551794730057,"click_time":1551794731187,"finger_time":1551794730747,"fix_duration":569.7086572546114,"trial":63,"RT":690,"MT":440,"sideResp":1,"stimulus":"img/750/randomdotsizeEA/L/1_Ratio_750_L_20_R_15.png","xmouse":[797,797,797,797,797,797,797,797,797,797,797,797,797,797,797,797,797,797,797,797,797,797,797,797,797,797,797,797,797,797,797,797,795,788,765,735,701,669,640,608,596,588,583,580,570,563,556,549,536,531,525,519,512,503,500,499,498],"ymouse":[492,492,492,492,492,492,492,492,492,492,492,492,492,492,492,492,492,492,492,492,492,492,492,492,492,492,492,492,492,492,492,492,492,488,463,427,380,340,310,282,271,264,257,253,234,223,211,198,176,166,157,148,135,117,108,104,97],"timestamp_mouse":[9,32,50,71,90,111,131,151,170,191,211,229,251,271,291,310,331,350,371,389,410,430,450,470,489,511,531,550,570,590,611,630,650,671,690,710,730,749,770,790,809,830,849,869,889,910,929,949,971,990,1009,1030,1050,1071,1090,1109,1130],"xSR":741.5,"ySR":469.95,"xT1":424.9,"yT1":0,"xT2":1058.1,"yT2":0,"toosoon":0,"cond_shown":"randomdotsizeEA","ratio_trial":750,"smaller_num":"15","larger_num":"20","correct_side":1,"subjID":"NicoleBecerraForero37","gender":"1","age":"11","school":"6"},{"start_time":1551794732299,"click_time":1551794733247,"finger_time":1551794732907,"fix_duration":250,"trial":64,"RT":608,"MT":340,"sideResp":1,"stimulus":"img/750/equaldotsize/L/9_Ratio_750_L_4_R_3.png","xmouse":[826,826,826,826,826,826,826,826,826,826,826,826,826,826,826,826,826,826,826,826,826,826,826,826,826,822,815,807,798,789,779,743,712,683,662,647,627,618,606,596,587,579,559,554,547,539,530,511],"ymouse":[508,508,508,508,508,508,508,508,508,508,508,508,508,508,508,508,508,508,508,508,508,508,508,508,508,508,505,499,491,480,464,412,361,322,292,273,244,232,218,205,194,183,154,145,131,115,99,72],"timestamp_mouse":[12,30,48,68,88,107,127,147,168,187,207,228,249,268,288,309,328,348,368,388,408,428,448,469,488,508,529,548,568,589,608,629,648,668,688,708,728,748,768,788,808,827,847,867,888,908,928,948],"xSR":741.5,"ySR":469.95,"xT1":424.9,"yT1":0,"xT2":1058.1,"yT2":0,"toosoon":0,"cond_shown":"equaldotsize","ratio_trial":750,"smaller_num":"3","larger_num":"4","correct_side":1,"subjID":"NicoleBecerraForero37","gender":"1","age":"11","school":"6"},{"start_time":1551794734796,"click_time":1551794735828,"finger_time":1551794735508,"fix_duration":907.1396982575436,"trial":65,"RT":712,"MT":320,"sideResp":1,"stimulus":"img/500/randomdotsizeEA/L/5_Ratio_500_L_4_R_2.png","xmouse":[814,814,814,814,814,814,814,814,814,814,814,814,814,814,814,814,814,814,814,814,814,814,814,814,814,814,814,814,814,814,814,814,814,814,814,811,768,718,689,663,647,617,605,593,580,564,539,529,527,525,525,524],"ymouse":[536,536,536,536,536,536,536,536,536,536,536,536,536,536,536,536,536,536,536,536,536,536,536,536,536,536,536,536,536,536,536,536,535,519,494,452,341,262,225,197,181,162,155,148,141,135,122,113,108,103,97,78],"timestamp_mouse":[11,32,51,71,92,110,132,152,171,192,210,231,252,271,292,310,332,352,372,392,411,432,451,472,490,512,531,551,570,590,611,630,650,671,691,712,731,751,771,791,812,831,850,871,892,911,931,951,971,992,1012,1032],"xSR":741.5,"ySR":469.95,"xT1":424.9,"yT1":0,"xT2":1058.1,"yT2":0,"toosoon":0,"cond_shown":"randomdotsizeEA","ratio_trial":500,"smaller_num":"2","larger_num":"4","correct_side":1,"subjID":"NicoleBecerraForero37","gender":"1","age":"11","school":"6"},{"start_time":1551794737682,"click_time":1551794738628,"finger_time":1551794738268,"fix_duration":1053.0283193479763,"trial":66,"RT":586,"MT":360,"sideResp":1,"stimulus":"img/500/equaldotanddens/L/5_Ratio_500_L_4_R_2.png","xmouse":[788,788,788,788,788,788,788,788,788,788,788,788,788,788,788,788,788,788,788,788,788,788,788,788,788,788,788,788,785,779,766,750,732,697,668,647,624,575,556,540,526,516,509,491,487,482,481,479],"ymouse":[492,492,492,492,492,492,492,492,492,492,492,492,492,492,492,492,492,492,492,492,492,492,492,492,492,492,492,489,480,465,443,420,396,346,310,290,271,235,222,212,201,190,177,142,132,121,113,95],"timestamp_mouse":[9,26,45,66,86,105,126,144,165,185,206,225,246,266,285,306,325,345,365,386,405,425,445,464,485,504,526,546,565,586,605,625,644,665,685,705,726,745,765,784,805,826,844,864,885,904,925,946],"xSR":741.5,"ySR":469.95,"xT1":424.9,"yT1":0,"xT2":1058.1,"yT2":0,"toosoon":0,"cond_shown":"equaldotanddens","ratio_trial":500,"smaller_num":"2","larger_num":"4","correct_side":1,"subjID":"NicoleBecerraForero37","gender":"1","age":"11","school":"6"},{"start_time":1551794740278,"click_time":1551794741667,"finger_time":1551794741007,"fix_duration":1010.3227829414101,"trial":67,"RT":729,"MT":660,"sideResp":2,"stimulus":"img/900/equaldotsize/L/8_Ratio_900_L_20_R_18.png","xmouse":[794,794,794,794,794,794,794,794,794,794,794,794,794,794,794,794,794,794,794,794,794,794,794,794,794,794,794,794,794,794,794,794,797,808,820,832,846,874,884,892,901,910,923,930,935,941,948,959,963,969,974,981,1004,1030,1049,1073,1096,1117,1134,1135,1135,1135,1135,1135,1135,1135,1135,1130,1127,1125],"ymouse":[528,528,528,528,528,528,528,528,528,528,528,528,528,528,528,528,528,528,528,528,528,528,528,528,528,528,528,528,528,528,528,528,528,518,503,487,467,421,400,383,366,354,335,319,306,297,287,271,261,253,245,237,215,192,177,162,150,138,125,124,123,122,122,122,121,119,116,106,101,98],"timestamp_mouse":[10,28,50,70,89,110,129,149,170,190,208,229,250,270,289,309,329,350,370,390,410,429,449,470,490,509,529,550,569,589,609,630,650,670,689,710,729,750,768,789,810,829,850,868,889,909,929,949,968,989,1009,1029,1050,1069,1089,1108,1130,1149,1170,1189,1210,1229,1249,1269,1289,1309,1328,1349,1369,1388],"xSR":741.5,"ySR":469.95,"xT1":424.9,"yT1":0,"xT2":1058.1,"yT2":0,"toosoon":0,"cond_shown":"equaldotsize","ratio_trial":900,"smaller_num":"18","larger_num":"20","correct_side":1,"subjID":"NicoleBecerraForero37","gender":"1","age":"11","school":"6"},{"start_time":1551794742986,"click_time":1551794745028,"finger_time":1551794744567,"fix_duration":336.5564616385748,"trial":68,"RT":1581,"MT":461,"sideResp":1,"stimulus":"img/900/randomdotsizeEA/R/15_Ratio_900_L_9_R_10.png","xmouse":[751,751,751,751,751,751,751,751,751,751,751,751,751,751,751,751,751,751,751,751,751,751,751,751,751,751,751,751,751,751,751,751,751,751,751,751,751,751,751,751,751,751,751,751,751,751,751,751,751,751,751,751,751,751,751,751,751,751,751,751,751,751,751,751,751,751,751,751,751,751,751,751,751,751,751,751,751,751,751,791,887,995,1128,1139,1141,1141,1122,1032,1003,995,995,995,995,995,995,995,995,995,995,995,995,995,440],"ymouse":[516,516,516,516,516,516,516,516,516,516,516,516,516,516,516,516,516,516,516,516,516,516,516,516,516,516,516,516,516,516,516,516,516,516,516,516,516,516,516,516,516,516,516,516,516,516,516,516,516,516,516,516,516,516,516,516,516,516,516,516,516,516,516,516,516,516,516,516,516,516,516,516,516,516,516,516,516,516,516,455,359,310,300,300,300,300,286,126,28,1,1,1,1,1,1,1,1,1,1,1,1,1,20],"timestamp_mouse":[7,21,42,60,80,102,122,141,162,180,202,222,241,262,281,301,322,340,362,381,400,421,440,461,481,502,522,542,562,582,601,622,641,660,681,701,722,741,762,782,800,821,842,862,882,902,921,942,962,981,1000,1022,1041,1062,1080,1101,1122,1141,1161,1180,1202,1222,1242,1261,1282,1302,1321,1342,1361,1382,1402,1420,1440,1462,1482,1500,1522,1542,1561,1581,1601,1622,1641,1661,1681,1702,1721,1742,1761,1781,1800,1820,1842,1861,1880,1901,1920,1941,1961,1981,2000,2020,2042],"xSR":741.5,"ySR":469.95,"xT1":424.9,"yT1":0,"xT2":1058.1,"yT2":0,"toosoon":0,"cond_shown":"randomdotsizeEA","ratio_trial":900,"smaller_num":"9","larger_num":"10","correct_side":2,"subjID":"NicoleBecerraForero37","gender":"1","age":"11","school":"6"},{"start_time":1551794747228,"click_time":1551794748328,"finger_time":1551794747827,"fix_duration":1318.4231138711107,"trial":69,"RT":599,"MT":501,"sideResp":1,"stimulus":"img/900/equaldotanddens/R/14_Ratio_900_L_18_R_20.png","xmouse":[785,785,785,785,785,785,785,785,785,785,785,785,785,785,785,785,785,785,785,785,785,785,785,785,785,785,785,785,782,773,765,742,729,712,666,506,422,391,374,365,357,350,342,337,335,334,337,341,347,355,382,397,412,419,424,430],"ymouse":[511,511,511,511,511,511,511,511,511,511,511,511,511,511,511,511,511,511,511,511,511,511,511,511,511,511,511,510,499,481,462,427,407,385,338,226,184,169,157,149,130,114,93,75,61,48,45,43,41,40,39,42,47,51,53,55],"timestamp_mouse":[1,18,39,60,80,99,118,140,160,178,199,219,238,260,280,298,320,340,359,379,399,418,439,459,479,499,519,539,559,580,599,619,639,659,680,700,718,739,758,779,800,819,840,860,880,899,919,939,959,979,1000,1019,1039,1059,1078,1100],"xSR":741.5,"ySR":469.95,"xT1":424.9,"yT1":0,"xT2":1058.1,"yT2":0,"toosoon":0,"cond_shown":"equaldotanddens","ratio_trial":900,"smaller_num":"18","larger_num":"20","correct_side":2,"subjID":"NicoleBecerraForero37","gender":"1","age":"11","school":"6"},{"start_time":1551794749975,"click_time":1551794750828,"finger_time":1551794750367,"fix_duration":626.489227590807,"trial":70,"RT":392,"MT":461,"sideResp":1,"stimulus":"img/500/randomdotsizeEA/R/3_Ratio_500_L_10_R_20.png","xmouse":[773,773,773,773,773,773,773,773,773,773,773,773,773,773,773,773,773,773,767,756,723,673,589,571,563,562,561,560,548,533,513,488,441,428,425,423,422,422,421,421,421,421,425],"ymouse":[503,503,503,503,503,503,503,503,503,503,503,503,503,503,503,503,503,503,477,456,402,334,265,259,255,254,254,252,237,217,195,170,129,119,116,114,111,106,102,102,100,100,97],"timestamp_mouse":[13,37,52,73,91,111,132,152,173,191,213,231,253,273,292,313,332,352,372,392,412,432,453,471,492,513,532,552,572,592,613,632,652,671,693,713,733,751,772,792,812,833,853],"xSR":741.5,"ySR":469.95,"xT1":424.9,"yT1":0,"xT2":1058.1,"yT2":0,"toosoon":0,"cond_shown":"randomdotsizeEA","ratio_trial":500,"smaller_num":"10","larger_num":"20","correct_side":2,"subjID":"NicoleBecerraForero37","gender":"1","age":"11","school":"6"},{"start_time":1551794751798,"click_time":1551794753247,"finger_time":1551794752606,"fix_duration":250,"trial":71,"RT":808,"MT":641,"sideResp":2,"stimulus":"img/250/randomdotsizeEA/R/6_Ratio_250_L_6_R_24.png","xmouse":[812,812,812,812,812,812,812,812,812,812,812,812,812,812,812,813,818,826,829,832,833,833,833,833,833,833,833,833,833,833,833,833,833,833,833,833,833,833,834,837,842,860,875,886,892,895,897,902,905,910,918,934,945,957,968,979,992,1008,1012,1019,1025,1038,1043,1044,1044,1044,1044,1044,1044,1045,1049,1053,1062],"ymouse":[509,509,509,509,509,509,509,509,509,509,509,509,509,509,509,509,501,493,489,487,486,486,486,486,486,486,486,486,486,486,486,486,486,486,486,486,486,486,485,478,468,408,352,311,279,264,253,238,227,219,209,190,180,170,161,153,141,122,112,97,82,54,44,38,35,35,35,35,35,34,34,34,34],"timestamp_mouse":[10,29,48,68,89,109,129,149,169,189,208,229,249,270,289,309,329,350,369,388,409,429,448,469,489,509,529,550,569,589,609,629,650,670,690,710,729,748,768,788,808,830,849,869,888,909,929,948,969,989,1010,1029,1049,1069,1090,1109,1129,1149,1169,1189,1210,1229,1248,1270,1288,1308,1328,1349,1369,1389,1408,1429,1449],"xSR":741.5,"ySR":469.95,"xT1":424.9,"yT1":0,"xT2":1058.1,"yT2":0,"toosoon":0,"cond_shown":"randomdotsizeEA","ratio_trial":250,"smaller_num":"6","larger_num":"24","correct_side":2,"subjID":"NicoleBecerraForero37","gender":"1","age":"11","school":"6"},{"start_time":1551794755026,"click_time":1551794756728,"finger_time":1551794755888,"fix_duration":517.0769998901793,"trial":72,"RT":862,"MT":840,"sideResp":2,"stimulus":"img/250/equaldotsize/R/8_Ratio_250_L_1_R_4.png","xmouse":[814,814,814,814,814,814,814,813,813,813,813,813,813,812,812,812,811,810,810,810,810,810,810,810,810,810,810,810,810,810,810,810,810,810,810,810,810,810,810,808,808,798,785,758,720,651,626,621,621,621,621,624,629,637,654,709,747,768,787,803,822,830,835,840,851,871,885,898,916,932,953,959,963,972,979,988,997,1004,1008,1012,1014,1021,1031,1043,1057,1069],"ymouse":[518,518,518,518,518,518,518,518,518,518,518,518,518,518,518,518,518,517,516,516,516,516,516,516,516,516,516,516,516,516,516,516,516,516,516,516,516,516,516,514,512,497,481,450,409,337,317,315,315,315,315,316,317,318,318,309,295,288,277,259,205,178,160,145,127,108,105,104,104,104,101,99,96,94,91,84,70,61,56,52,51,51,51,52,54,56],"timestamp_mouse":[8,21,40,61,82,101,122,140,162,180,202,221,240,262,281,302,322,341,361,381,401,422,442,460,482,500,521,540,560,582,601,620,642,662,680,702,722,742,762,781,801,821,842,862,880,902,921,941,962,980,1002,1022,1041,1062,1081,1101,1121,1141,1161,1182,1201,1221,1241,1261,1282,1302,1321,1340,1362,1382,1401,1421,1441,1462,1482,1501,1520,1541,1562,1582,1602,1621,1641,1661,1681,1702],"xSR":741.5,"ySR":469.95,"xT1":424.9,"yT1":0,"xT2":1058.1,"yT2":0,"toosoon":0,"cond_shown":"equaldotsize","ratio_trial":250,"smaller_num":"1","larger_num":"4","correct_side":2,"subjID":"NicoleBecerraForero37","gender":"1","age":"11","school":"6"},{"start_time":1551794759495,"click_time":1551794760607,"finger_time":1551794760268,"fix_duration":1345.3523466253328,"trial":73,"RT":773,"MT":339,"sideResp":1,"stimulus":"img/750/equaldotsize/L/10_Ratio_750_L_4_R_3.png","xmouse":[807,807,807,807,807,807,807,807,807,807,807,807,807,807,807,807,807,807,807,807,807,807,807,807,807,807,807,807,807,807,807,807,807,807,807,806,787,769,746,718,693,635,592,569,544,519,473,452,433,415,404,400,405,413,421,426],"ymouse":[515,515,515,515,515,515,515,515,515,515,515,515,515,515,515,515,515,515,515,515,515,515,515,515,515,515,515,515,515,515,515,515,515,515,515,515,498,483,463,430,392,305,253,230,211,198,172,162,151,140,130,120,100,87,75,69],"timestamp_mouse":[12,33,52,72,92,112,132,151,172,192,212,232,253,271,292,313,333,352,373,392,412,433,452,472,492,513,531,552,572,592,611,632,652,672,692,712,732,752,773,793,812,832,852,871,892,913,932,952,972,992,1013,1032,1052,1072,1092,1112],"xSR":741.5,"ySR":469.95,"xT1":424.9,"yT1":0,"xT2":1058.1,"yT2":0,"toosoon":0,"cond_shown":"equaldotsize","ratio_trial":750,"smaller_num":"3","larger_num":"4","correct_side":1,"subjID":"NicoleBecerraForero37","gender":"1","age":"11","school":"6"},{"start_time":1551794761418,"click_time":1551794762547,"finger_time":1551794762228,"fix_duration":250,"trial":74,"RT":810,"MT":319,"sideResp":1,"stimulus":"img/750/equaldotsize/L/14_Ratio_750_L_8_R_6.png","xmouse":[794,794,794,794,794,794,794,794,794,794,794,794,794,794,794,794,794,794,794,794,794,794,794,794,794,794,794,794,794,794,794,794,794,794,794,794,794,794,794,794,769,746,718,682,645,596,571,559,553,550,545,543,540,532,528,513,493],"ymouse":[497,497,497,497,497,497,497,497,497,497,497,497,497,497,497,497,497,497,497,497,497,497,497,497,497,497,497,497,497,497,497,497,497,497,497,497,497,497,497,497,452,414,375,335,298,255,228,213,203,198,179,169,157,138,128,103,83