[{"start_time":1551794782050,"click_time":1551794784012,"finger_time":1551794783291,"fix_duration":1253.5176533145243,"trial":0,"RT":1241,"MT":721,"sideResp":1,"stimulus":"img/250/equaldotsize/L/5_Ratio_250_L_24_R_6.png","xmouse":[829,829,829,829,829,829,829,829,829,829,829,829,829,829,829,829,829,829,829,829,829,829,829,829,829,829,829,829,829,829,829,829,829,829,829,829,829,829,829,829,829,829,829,829,829,829,829,829,829,829,829,829,829,829,829,829,829,829,825,806,766,724,673,659,643,625,610,585,572,562,558,557,557,555,554,554,554,551,548,547,546,546,545,543,541,538,535,533,531,531,531,531,530,530,527,524,521,515],"ymouse":[548,548,548,548,548,548,548,548,548,548,548,548,548,548,548,548,548,548,548,548,548,548,548,548,548,548,548,548,548,548,548,548,548,548,548,548,548,548,548,548,548,548,548,548,548,548,548,548,548,548,548,548,548,548,548,548,548,548,548,530,488,440,377,356,335,318,303,272,257,240,231,220,202,195,187,179,173,160,151,148,145,144,140,137,132,127,123,119,114,114,114,114,112,112,111,110,108,99],"timestamp_mouse":[9,41,62,82,101,121,141,162,182,201,222,243,261,282,301,321,342,362,382,402,423,442,461,481,501,522,541,561,582,601,622,641,662,682,703,722,742,761,782,803,821,841,862,881,902,922,941,962,983,1003,1022,1043,1061,1081,1102,1123,1141,1161,1182,1202,1222,1241,1262,1281,1301,1321,1341,1361,1381,1401,1421,1442,1462,1481,1502,1522,1541,1562,1581,1601,1622,1642,1662,1681,1702,1723,1743,1761,1781,1801,1821,1841,1861,1882,1902,1922,1943,1962],"xSR":741.5,"ySR":501.8,"xT1":424.9,"yT1":0,"xT2":1058.1,"yT2":0,"toosoon":0,"cond_shown":"equaldotsize","ratio_trial":250,"smaller_num":"6","larger_num":"24","correct_side":1,"subjID":"nicolemarianacaballeromurillo32","gender":"1","age":"","school":"6","test":{"fix_dur":[250,1500],"timestim":300,"targets_dim":[100,100],"targets_relative_coord":[0.3,0.7],"size_stim":[880,420],"start_dim":[100,100],"size_start":[300,300],"size_fix":60,"samplingrate":20,"img_types":["equaldotsize","equaldotanddens","randomdotsizeEA"],"ratios":[250,500,750,900],"rep_conds":9,"nTrials":120,"trials_to_rest":500,"Trials_order":[0,70,52,31,16,25,23,47,81,46,104,101,107,98,71,29,26,87,90,95,75,55,77,42,68,96,119,7,108,76,110,89,102,18,105,34,112,17,28,80,35,9,58,20,4,109,38,2,73,54,86,53,50,117,40,111,41,48,74,91,114,94,30,43,66,83,39,106,1,65,24,85,84,6,63,19,10,92,67,21,62,22,14,69,56,45,72,64,13,37,60,97,36,51,93,8,12,100,103,99,11,44,118,27,113,78,15,57,5,59,3,61,115,79,88,82,33,49,32,116],"cond_shown":["equaldotsize","equaldotanddens","equaldotanddens","equaldotanddens","equaldotanddens","equaldotanddens","randomdotsizeEA","randomdotsizeEA","equaldotsize","equaldotanddens","randomdotsizeEA","randomdotsizeEA","randomdotsizeEA","randomdotsizeEA","randomdotsizeEA","randomdotsizeEA","randomdotsizeEA","equaldotsize","equaldotsize","randomdotsizeEA","equaldotsize","equaldotanddens","randomdotsizeEA","equaldotsize","randomdotsizeEA","equaldotsize","randomdotsizeEA","equaldotanddens","equaldotsize","equaldotanddens","randomdotsizeEA","randomdotsizeEA","equaldotsize","equaldotsize","equaldotsize","equaldotanddens","equaldotanddens","randomdotsizeEA","equaldotanddens","randomdotsizeEA","randomdotsizeEA","equaldotsize","equaldotanddens","randomdotsizeEA","equaldotanddens","equaldotanddens","randomdotsizeEA","randomdotsizeEA","equaldotanddens","equaldotsize","randomdotsizeEA","randomdotsizeEA","randomdotsizeEA","equaldotsize","equaldotanddens","equaldotsize","randomdotsizeEA","equaldotsize","randomdotsizeEA","equaldotanddens","equaldotsize","equaldotanddens","equaldotsize","equaldotanddens","equaldotsize","randomdotsizeEA","equaldotsize","equaldotanddens","equaldotanddens","randomdotsizeEA","equaldotsize","equaldotanddens","equaldotsize","equaldotsize","equaldotsize","equaldotanddens","equaldotanddens","randomdotsizeEA","equaldotanddens","equaldotsize","randomdotsizeEA","equaldotanddens","randomdotsizeEA","equaldotsize","randomdotsizeEA","equaldotsize","equaldotsize","equaldotanddens","equaldotanddens","equaldotanddens","equaldotsize","equaldotanddens","equaldotsize","equaldotsize","equaldotsize","randomdotsizeEA","equaldotsize","equaldotanddens","equaldotanddens","equaldotsize","randomdotsizeEA","randomdotsizeEA","equaldotanddens","equaldotsize","randomdotsizeEA","equaldotsize","equaldotsize","equaldotsize","randomdotsizeEA","randomdotsizeEA","equaldotsize","equaldotanddens","equaldotanddens","equaldotanddens","equaldotanddens","equaldotanddens","equaldotsize","equaldotanddens","randomdotsizeEA","randomdotsizeEA"],"ratio_trial":[250,900,500,750,500,250,900,900,900,900,750,500,900,250,900,500,250,500,750,900,500,750,500,750,750,250,900,750,250,500,250,500,750,750,900,900,500,500,500,750,900,900,900,750,500,250,250,250,250,750,250,500,250,900,500,500,500,250,250,750,750,900,750,750,750,900,500,900,250,500,250,250,250,750,500,750,900,750,750,900,250,900,250,900,750,900,250,500,250,250,250,250,250,500,900,750,250,500,750,500,900,750,900,500,500,750,500,900,500,900,500,250,750,750,500,900,900,250,750,750],"smaller_num":["6","18","6","9","5","3","9","18","9","18","6","6","18","4","9","2","5","5","15","18","5","9","1","18","3","6","18","3","6","5","4","5","3","15","9","18","3","2","1","9","18","9","18","6","3","2","5","2","4","15","2","6","6","18","9","9","9","4","2","6","18","9","15","15","15","9","2","9","6","6","4","2","4","15","1","6","9","15","3","18","6","18","5","9","3","18","2","4","2","6","1","4","5","2","18","3","1","10","12","6","18","9","9","5","2","3","2","18","1","18","1","2","3","12","9","18","18","3","18","15"],"larger_num":["24","20","12","12","10","12","10","20","10","20","8","12","20","16","10","4","20","10","20","20","10","12","2","24","4","24","20","4","24","10","16","10","4","20","10","20","6","4","2","12","20","10","20","8","6","8","20","8","16","20","8","12","24","20","18","18","18","16","8","8","24","10","20","20","20","10","4","10","24","12","16","8","16","20","2","8","10","20","4","20","24","20","20","10","4","20","8","8","8","24","4","16","20","4","20","4","4","20","16","12","20","12","10","10","4","4","4","20","2","20","2","8","4","16","18","20","20","12","24","20"],"correct_side":[1,1,1,2,2,2,1,1,2,1,1,1,1,1,2,1,2,1,1,1,1,2,2,1,1,1,1,1,2,2,1,1,1,2,2,1,2,1,2,2,1,1,2,1,2,1,2,1,1,2,1,1,1,1,1,2,2,2,1,1,1,1,2,2,2,1,2,2,2,1,1,2,2,2,2,2,2,2,1,2,1,1,2,2,1,1,2,1,2,1,2,2,2,1,1,1,2,2,2,1,1,2,2,2,1,2,1,2,2,1,2,1,2,2,2,2,1,1,1,2],"img_shown":["img/250/equaldotsize/L/5_Ratio_250_L_24_R_6.png","img/900/equaldotanddens/L/10_Ratio_900_L_20_R_18.png","img/500/equaldotanddens/L/11_Ratio_500_L_12_R_6.png","img/750/equaldotanddens/R/15_Ratio_750_L_9_R_12.png","img/500/equaldotanddens/R/14_Ratio_500_L_5_R_10.png","img/250/equaldotanddens/R/9_Ratio_250_L_3_R_12.png","img/900/randomdotsizeEA/L/1_Ratio_900_L_10_R_9.png","img/900/randomdotsizeEA/L/8_Ratio_900_L_20_R_18.png","img/900/equaldotsize/R/6_Ratio_900_L_9_R_10.png","img/900/equaldotanddens/L/4_Ratio_900_L_20_R_18.png","img/750/randomdotsizeEA/L/13_Ratio_750_L_8_R_6.png","img/500/randomdotsizeEA/L/13_Ratio_500_L_12_R_6.png","img/900/randomdotsizeEA/L/2_Ratio_900_L_20_R_18.png","img/250/randomdotsizeEA/L/2_Ratio_250_L_16_R_4.png","img/900/randomdotsizeEA/R/7_Ratio_900_L_9_R_10.png","img/500/randomdotsizeEA/L/10_Ratio_500_L_4_R_2.png","img/250/randomdotsizeEA/R/12_Ratio_250_L_5_R_20.png","img/500/equaldotsize/L/7_Ratio_500_L_10_R_5.png","img/750/equaldotsize/L/1_Ratio_750_L_20_R_15.png","img/900/randomdotsizeEA/L/4_Ratio_900_L_20_R_18.png","img/500/equaldotsize/L/7_Ratio_500_L_10_R_5.png","img/750/equaldotanddens/R/15_Ratio_750_L_9_R_12.png","img/500/randomdotsizeEA/R/12_Ratio_500_L_1_R_2.png","img/750/equaldotsize/L/6_Ratio_750_L_24_R_18.png","img/750/randomdotsizeEA/L/10_Ratio_750_L_4_R_3.png","img/250/equaldotsize/L/5_Ratio_250_L_24_R_6.png","img/900/randomdotsizeEA/L/2_Ratio_900_L_20_R_18.png","img/750/equaldotanddens/L/9_Ratio_750_L_4_R_3.png","img/250/equaldotsize/R/6_Ratio_250_L_6_R_24.png","img/500/equaldotanddens/R/14_Ratio_500_L_5_R_10.png","img/250/randomdotsizeEA/L/2_Ratio_250_L_16_R_4.png","img/500/randomdotsizeEA/L/7_Ratio_500_L_10_R_5.png","img/750/equaldotsize/L/9_Ratio_750_L_4_R_3.png","img/750/equaldotsize/R/3_Ratio_750_L_15_R_20.png","img/900/equaldotsize/R/7_Ratio_900_L_9_R_10.png","img/900/equaldotanddens/L/2_Ratio_900_L_20_R_18.png","img/500/equaldotanddens/R/2_Ratio_500_L_3_R_6.png","img/500/randomdotsizeEA/L/5_Ratio_500_L_4_R_2.png","img/500/equaldotanddens/R/12_Ratio_500_L_1_R_2.png","img/750/randomdotsizeEA/R/15_Ratio_750_L_9_R_12.png","img/900/randomdotsizeEA/L/10_Ratio_900_L_20_R_18.png","img/900/equaldotsize/L/1_Ratio_900_L_10_R_9.png","img/900/equaldotanddens/R/9_Ratio_900_L_18_R_20.png","img/750/randomdotsizeEA/L/14_Ratio_750_L_8_R_6.png","img/500/equaldotanddens/R/2_Ratio_500_L_3_R_6.png","img/250/equaldotanddens/L/1_Ratio_250_L_8_R_2.png","img/250/randomdotsizeEA/R/12_Ratio_250_L_5_R_20.png","img/250/randomdotsizeEA/L/7_Ratio_250_L_8_R_2.png","img/250/equaldotanddens/L/2_Ratio_250_L_16_R_4.png","img/750/equaldotsize/R/3_Ratio_750_L_15_R_20.png","img/250/randomdotsizeEA/L/3_Ratio_250_L_8_R_2.png","img/500/randomdotsizeEA/L/13_Ratio_500_L_12_R_6.png","img/250/randomdotsizeEA/L/5_Ratio_250_L_24_R_6.png","img/900/equaldotsize/L/8_Ratio_900_L_20_R_18.png","img/500/equaldotanddens/L/4_Ratio_500_L_18_R_9.png","img/500/equaldotsize/R/1_Ratio_500_L_9_R_18.png","img/500/randomdotsizeEA/R/1_Ratio_500_L_9_R_18.png","img/250/equaldotsize/R/10_Ratio_250_L_4_R_16.png","img/250/randomdotsizeEA/L/3_Ratio_250_L_8_R_2.png","img/750/equaldotanddens/L/14_Ratio_750_L_8_R_6.png","img/750/equaldotsize/L/6_Ratio_750_L_24_R_18.png","img/900/equaldotanddens/L/1_Ratio_900_L_10_R_9.png","img/750/equaldotsize/R/4_Ratio_750_L_15_R_20.png","img/750/equaldotanddens/R/4_Ratio_750_L_15_R_20.png","img/750/equaldotsize/R/5_Ratio_750_L_15_R_20.png","img/900/randomdotsizeEA/L/1_Ratio_900_L_10_R_9.png","img/500/equaldotsize/R/9_Ratio_500_L_2_R_4.png","img/900/equaldotanddens/R/15_Ratio_900_L_9_R_10.png","img/250/equaldotanddens/R/6_Ratio_250_L_6_R_24.png","img/500/randomdotsizeEA/L/13_Ratio_500_L_12_R_6.png","img/250/equaldotsize/L/2_Ratio_250_L_16_R_4.png","img/250/equaldotanddens/R/13_Ratio_250_L_2_R_8.png","img/250/equaldotsize/R/10_Ratio_250_L_4_R_16.png","img/750/equaldotsize/R/4_Ratio_750_L_15_R_20.png","img/500/equaldotsize/R/12_Ratio_500_L_1_R_2.png","img/750/equaldotanddens/R/2_Ratio_750_L_6_R_8.png","img/900/equaldotanddens/R/5_Ratio_900_L_9_R_10.png","img/750/randomdotsizeEA/R/5_Ratio_750_L_15_R_20.png","img/750/equaldotanddens/L/9_Ratio_750_L_4_R_3.png","img/900/equaldotsize/R/14_Ratio_900_L_18_R_20.png","img/250/randomdotsizeEA/L/5_Ratio_250_L_24_R_6.png","img/900/equaldotanddens/L/4_Ratio_900_L_20_R_18.png","img/250/randomdotsizeEA/R/12_Ratio_250_L_5_R_20.png","img/900/equaldotsize/R/7_Ratio_900_L_9_R_10.png","img/750/randomdotsizeEA/L/9_Ratio_750_L_4_R_3.png","img/900/equaldotsize/L/10_Ratio_900_L_20_R_18.png","img/250/equaldotsize/R/13_Ratio_250_L_2_R_8.png","img/500/equaldotanddens/L/8_Ratio_500_L_8_R_4.png","img/250/equaldotanddens/R/13_Ratio_250_L_2_R_8.png","img/250/equaldotanddens/L/5_Ratio_250_L_24_R_6.png","img/250/equaldotsize/R/8_Ratio_250_L_1_R_4.png","img/250/equaldotanddens/R/10_Ratio_250_L_4_R_16.png","img/250/equaldotsize/R/12_Ratio_250_L_5_R_20.png","img/500/equaldotsize/L/10_Ratio_500_L_4_R_2.png","img/900/equaldotsize/L/10_Ratio_900_L_20_R_18.png","img/750/randomdotsizeEA/L/9_Ratio_750_L_4_R_3.png","img/250/equaldotsize/R/8_Ratio_250_L_1_R_4.png","img/500/equaldotanddens/R/3_Ratio_500_L_10_R_20.png","img/750/equaldotanddens/R/11_Ratio_750_L_12_R_16.png","img/500/equaldotsize/L/13_Ratio_500_L_12_R_6.png","img/900/randomdotsizeEA/L/10_Ratio_900_L_20_R_18.png","img/750/randomdotsizeEA/R/15_Ratio_750_L_9_R_12.png","img/900/equaldotanddens/R/5_Ratio_900_L_9_R_10.png","img/500/equaldotsize/R/14_Ratio_500_L_5_R_10.png","img/500/randomdotsizeEA/L/5_Ratio_500_L_4_R_2.png","img/750/equaldotsize/R/7_Ratio_750_L_3_R_4.png","img/500/equaldotsize/L/5_Ratio_500_L_4_R_2.png","img/900/equaldotsize/R/12_Ratio_900_L_18_R_20.png","img/500/randomdotsizeEA/R/15_Ratio_500_L_1_R_2.png","img/900/randomdotsizeEA/L/2_Ratio_900_L_20_R_18.png","img/500/equaldotsize/R/15_Ratio_500_L_1_R_2.png","img/250/equaldotanddens/L/7_Ratio_250_L_8_R_2.png","img/750/equaldotanddens/R/7_Ratio_750_L_3_R_4.png","img/750/equaldotanddens/R/11_Ratio_750_L_12_R_16.png","img/500/equaldotanddens/R/6_Ratio_500_L_9_R_18.png","img/900/equaldotanddens/R/13_Ratio_900_L_18_R_20.png","img/900/equaldotsize/L/2_Ratio_900_L_20_R_18.png","img/250/equaldotanddens/L/14_Ratio_250_L_12_R_3.png","img/750/randomdotsizeEA/L/6_Ratio_750_L_24_R_18.png","img/750/randomdotsizeEA/R/3_Ratio_750_L_15_R_20.png"],"Rat0":[["12_Ratio_0_L_9_R_0.png","13_Ratio_0_L_6_R_0.png","5_Ratio_0_L_2_R_0.png","6_Ratio_0_L_4_R_0.png","8_Ratio_0_L_6_R_0.png"],["1_Ratio_0_L_0_R_17.png","10_Ratio_0_L_0_R_22.png","11_Ratio_0_L_0_R_1.png","14_Ratio_0_L_0_R_24.png","15_Ratio_0_L_0_R_4.png","2_Ratio_0_L_0_R_5.png","3_Ratio_0_L_0_R_17.png","4_Ratio_0_L_0_R_7.png","7_Ratio_0_L_0_R_19.png","9_Ratio_0_L_0_R_15.png"]],"Rat250":[["1_Ratio_250_L_8_R_2.png","14_Ratio_250_L_12_R_3.png","15_Ratio_250_L_12_R_3.png","2_Ratio_250_L_16_R_4.png","3_Ratio_250_L_8_R_2.png","5_Ratio_250_L_24_R_6.png","7_Ratio_250_L_8_R_2.png"],["10_Ratio_250_L_4_R_16.png","11_Ratio_250_L_3_R_12.png","12_Ratio_250_L_5_R_20.png","13_Ratio_250_L_2_R_8.png","4_Ratio_250_L_3_R_12.png","6_Ratio_250_L_6_R_24.png","8_Ratio_250_L_1_R_4.png","9_Ratio_250_L_3_R_12.png"]],"Rat500":[["10_Ratio_500_L_4_R_2.png","11_Ratio_500_L_12_R_6.png","13_Ratio_500_L_12_R_6.png","4_Ratio_500_L_18_R_9.png","5_Ratio_500_L_4_R_2.png","7_Ratio_500_L_10_R_5.png","8_Ratio_500_L_8_R_4.png"],["1_Ratio_500_L_9_R_18.png","12_Ratio_500_L_1_R_2.png","14_Ratio_500_L_5_R_10.png","15_Ratio_500_L_1_R_2.png","2_Ratio_500_L_3_R_6.png","3_Ratio_500_L_10_R_20.png","6_Ratio_500_L_9_R_18.png","9_Ratio_500_L_2_R_4.png"]],"Rat750":[["1_Ratio_750_L_20_R_15.png","10_Ratio_750_L_4_R_3.png","13_Ratio_750_L_8_R_6.png","14_Ratio_750_L_8_R_6.png","6_Ratio_750_L_24_R_18.png","8_Ratio_750_L_4_R_3.png","9_Ratio_750_L_4_R_3.png"],["11_Ratio_750_L_12_R_16.png","12_Ratio_750_L_3_R_4.png","15_Ratio_750_L_9_R_12.png","2_Ratio_750_L_6_R_8.png","3_Ratio_750_L_15_R_20.png","4_Ratio_750_L_15_R_20.png","5_Ratio_750_L_15_R_20.png","7_Ratio_750_L_3_R_4.png"]],"Rat900":[["1_Ratio_900_L_10_R_9.png","10_Ratio_900_L_20_R_18.png","2_Ratio_900_L_20_R_18.png","4_Ratio_900_L_20_R_18.png","8_Ratio_900_L_20_R_18.png"],["11_Ratio_900_L_18_R_20.png","12_Ratio_900_L_18_R_20.png","13_Ratio_900_L_18_R_20.png","14_Ratio_900_L_18_R_20.png","15_Ratio_900_L_9_R_10.png","3_Ratio_900_L_9_R_10.png","5_Ratio_900_L_9_R_10.png","6_Ratio_900_L_9_R_10.png","7_Ratio_900_L_9_R_10.png","9_Ratio_900_L_18_R_20.png"]],"Rat1000":[["10_Ratio_1000_L_16_R_16.png","11_Ratio_1000_L_6_R_6.png","12_Ratio_1000_L_14_R_14.png","13_Ratio_1000_L_20_R_20.png","15_Ratio_1000_L_15_R_15.png","2_Ratio_1000_L_17_R_17.png","4_Ratio_1000_L_9_R_9.png","5_Ratio_1000_L_6_R_6.png","6_Ratio_1000_L_19_R_19.png","8_Ratio_1000_L_14_R_14.png","9_Ratio_1000_L_25_R_25.png"],["1_Ratio_1000_L_1_R_1.png","14_Ratio_1000_L_17_R_17.png","3_Ratio_1000_L_17_R_17.png","7_Ratio_1000_L_6_R_6.png"]]}},{"start_time":1551794786350,"click_time":1551794788052,"finger_time":1551794787512,"fix_duration":1036.2900485905316,"trial":1,"RT":1162,"MT":540,"sideResp":2,"stimulus":"img/900/equaldotanddens/L/10_Ratio_900_L_20_R_18.png","xmouse":[778,778,778,778,778,778,778,778,778,778,778,778,778,778,778,778,778,778,778,778,778,778,778,778,778,778,778,778,778,778,778,778,778,778,778,778,778,778,778,778,778,778,778,778,778,778,778,778,778,778,778,778,778,778,778,778,777,784,811,829,855,878,898,929,947,952,955,958,965,967,970,972,975,981,986,991,998,1003,1011,1014,1017,1022,1030,1040,1057,1060],"ymouse":[527,527,527,527,527,527,527,527,527,527,527,527,527,527,527,527,527,527,527,527,527,527,527,527,527,527,527,527,527,527,527,527,527,527,527,527,527,527,527,527,527,527,527,527,527,527,527,527,527,527,527,527,527,527,527,527,520,507,463,431,395,366,339,292,258,241,227,215,197,189,179,168,154,132,122,115,108,103,97,94,91,86,79,71,57,54],"timestamp_mouse":[8,32,42,61,83,101,121,142,162,182,203,221,242,263,282,301,322,342,363,381,402,421,442,461,481,502,523,541,562,582,601,622,643,662,682,702,722,742,761,783,802,823,841,862,883,901,921,941,961,982,1003,1022,1042,1061,1081,1101,1122,1143,1162,1181,1202,1221,1242,1262,1281,1302,1321,1342,1361,1381,1401,1421,1441,1462,1481,1502,1521,1541,1561,1581,1601,1622,1641,1661,1682,1702],"xSR":741.5,"ySR":469.95,"xT1":424.9,"yT1":0,"xT2":1058.1,"yT2":0,"toosoon":0,"cond_shown":"equaldotanddens","ratio_trial":900,"smaller_num":"18","larger_num":"20","correct_side":1,"subjID":"nicolemarianacaballeromurillo32","gender":"1","age":"","school":"6"},{"start_time":1551794789543,"click_time":1551794790792,"finger_time":1551794790372,"fix_duration":250,"trial":2,"RT":829,"MT":420,"sideResp":1,"stimulus":"img/500/equaldotanddens/L/11_Ratio_500_L_12_R_6.png","xmouse":[777,777,777,777,777,777,777,777,777,777,777,777,777,777,777,777,777,777,777,777,777,777,777,777,777,777,777,777,777,777,777,777,777,777,777,777,777,777,777,767,755,742,730,712,702,697,687,678,668,647,640,633,628,623,602,576,560,544,526,519,513,509,505],"ymouse":[519,519,519,519,519,519,519,519,519,519,519,519,519,519,519,519,519,519,519,519,519,519,519,519,519,519,519,519,519,519,519,519,519,519,519,519,519,519,518,496,474,455,437,404,377,357,324,291,258,208,193,183,176,172,163,147,134,123,111,106,103,100,96],"timestamp_mouse":[15,39,48,68,90,110,128,148,168,188,209,229,249,268,288,308,329,349,368,388,408,430,448,470,488,510,529,548,569,588,609,628,648,669,689,708,729,749,769,789,809,829,849,869,888,909,928,950,969,988,1008,1029,1049,1068,1088,1109,1129,1148,1169,1189,1210,1229,1249],"xSR":741.5,"ySR":469.95,"xT1":424.9,"yT1":0,"xT2":1058.1,"yT2":0,"toosoon":0,"cond_shown":"equaldotanddens","ratio_trial":500,"smaller_num":"6","larger_num":"12","correct_side":1,"subjID":"nicolemarianacaballeromurillo32","gender":"1","age":"","school":"6"},{"start_time":1551794792626,"click_time":1551794793632,"finger_time":1551794793211,"fix_duration":713.7776322942824,"trial":3,"RT":585,"MT":421,"sideResp":2,"stimulus":"img/750/equaldotanddens/R/15_Ratio_750_L_9_R_12.png","xmouse":[782,782,782,782,782,782,782,782,782,782,782,782,782,782,782,782,782,782,782,782,782,782,782,782,782,782,782,787,803,833,856,872,891,915,964,985,1001,1016,1028,1050,1059,1060,1062,1064,1066,1068,1068,1069,1070,1072,1073],"ymouse":[521,521,521,521,521,521,521,521,521,521,521,521,521,521,521,521,521,521,521,521,521,521,521,521,521,522,522,517,497,452,416,393,370,349,310,292,275,259,239,197,176,164,153,146,141,137,134,129,122,103,93],"timestamp_mouse":[8,37,45,66,85,105,125,145,166,185,206,227,245,265,285,306,325,347,365,385,406,426,446,466,485,505,525,546,565,585,605,626,645,665,685,705,725,746,765,785,805,825,845,866,885,905,926,945,966,985,1005],"xSR":741.5,"ySR":469.95,"xT1":424.9,"yT1":0,"xT2":1058.1,"yT2":0,"toosoon":0,"cond_shown":"equaldotanddens","ratio_trial":750,"smaller_num":"9","larger_num":"12","correct_side":2,"subjID":"nicolemarianacaballeromurillo32","gender":"1","age":"","school":"6"},{"start_time":1551794795324,"click_time":1551794796272,"finger_time":1551794795932,"fix_duration":672.8292846618397,"trial":4,"RT":608,"MT":340,"sideResp":2,"stimulus":"img/500/equaldotanddens/R/14_Ratio_500_L_5_R_10.png","xmouse":[782,782,782,782,782,782,782,782,782,782,782,782,782,782,782,782,782,782,782,782,782,782,782,782,782,782,782,782,783,799,814,832,858,888,968,1023,1053,1073,1086,1101,1102,1103,1103,1103,1103,1103,1103,1102],"ymouse":[505,505,505,505,505,505,505,505,505,505,505,505,505,505,505,505,505,505,505,505,505,505,505,505,505,505,505,505,499,474,455,434,405,376,310,262,237,217,200,178,173,164,157,150,131,116,107,97],"timestamp_mouse":[10,36,48,69,87,108,127,147,168,187,209,227,248,268,288,308,328,347,369,387,407,428,447,469,489,508,527,548,568,588,608,627,647,668,687,707,728,748,767,787,807,828,848,867,887,907,927,947],"xSR":741.5,"ySR":469.95,"xT1":424.9,"yT1":0,"xT2":1058.1,"yT2":0,"toosoon":0,"cond_shown":"equaldotanddens","ratio_trial":500,"smaller_num":"5","larger_num":"10","correct_side":2,"subjID":"nicolemarianacaballeromurillo32","gender":"1","age":"","school":"6"},{"start_time":1551794797404,"click_time":1551794798293,"finger_time":1551794797911,"fix_duration":250,"trial":5,"RT":507,"MT":382,"sideResp":2,"stimulus":"img/250/equaldotanddens/R/9_Ratio_250_L_3_R_12.png","xmouse":[799,799,799,799,799,799,799,799,799,799,799,799,799,799,799,799,799,799,799,799,799,799,808,816,828,849,864,883,912,941,979,995,1002,1005,1006,1008,1014,1021,1026,1032,1038,1050,1054,1057,1063],"ymouse":[515,515,515,515,515,515,515,515,515,515,515,515,515,515,515,515,515,515,515,515,515,514,506,497,486,459,439,412,374,332,272,244,231,224,218,213,200,188,175,161,148,121,110,103,91],"timestamp_mouse":[8,27,48,72,89,108,127,149,167,188,209,227,248,267,288,307,327,347,368,389,408,428,448,468,487,507,528,548,567,587,607,627,648,668,687,707,727,747,768,789,808,829,848,868,888],"xSR":741.5,"ySR":469.95,"xT1":424.9,"yT1":0,"xT2":1058.1,"yT2":0,"toosoon":0,"cond_shown":"equaldotanddens","ratio_trial":250,"smaller_num":"3","larger_num":"12","correct_side":2,"subjID":"nicolemarianacaballeromurillo32","gender":"1","age":"","school":"6"},{"start_time":1551794800015,"click_time":1551794803992,"finger_time":1551794803592,"fix_duration":761.1223757379356,"trial":6,"RT":3577,"MT":400,"sideResp":1,"stimulus":"img/900/randomdotsizeEA/L/1_Ratio_900_L_10_R_9.png","xmouse":[793,793,793,793,793,793,793,793,793,793,793,793,793,793,793,793,793,793,793,793,793,793,793,793,793,793,793,793,793,793,793,793,793,793,793,793,793,793,791,791,791,790,790,790,790,790,790,790,790,790,790,790,790,790,790,793,795,797,797,797,797,797,797,797,797,797,797,797,797,797,797,797,797,797,797,797,797,797,797,797,797,797,797,797,797,797,797,797,797,797,797,797,797,797,797,797,797,797,797,797,797,797,797,797,797,797,797,797,797,797,797,797,797,797,793,793,793,793,793,793,793,793,793,793,793,793,793,793,793,793,793,793,793,793,793,793,793,793,793,793,793,793,793,793,793,793,793,793,793,793,793,793,793,790,787,786,785,785,785,785,785,785,785,785,785,785,785,785,785,785,785,785,785,785,785,783,777,762,739,668,637,604,580,551,518,515,513,511,508,507,507,507,506,504,502,496,493,491,489],"ymouse":[513,513,513,513,513,513,513,513,513,513,513,513,513,513,513,513,513,513,513,513,513,513,514,514,513,513,511,511,511,511,510,509,508,508,507,505,503,499,492,491,491,490,490,490,490,490,490,490,490,490,490,490,490,490,489,485,484,483,483,483,483,483,483,483,483,483,483,483,483,483,483,483,483,483,485,487,488,491,493,494,494,494,494,494,494,494,494,494,494,494,494,494,494,494,494,494,494,494,494,494,494,494,494,494,494,494,494,494,494,494,494,494,494,495,495,495,495,495,495,495,495,495,495,495,495,495,495,495,495,495,495,495,495,495,495,495,495,495,495,495,495,495,495,495,495,495,495,495,495,495,495,495,495,495,495,495,494,494,494,494,494,494,494,494,494,494,494,494,494,494,494,494,494,494,494,492,488,480,466,424,401,371,339,297,245,236,231,226,221,213,203,194,183,172,157,130,117,106,99],"timestamp_mouse":[33,37,58,77,97,117,138,157,177,198,218,237,258,277,298,319,337,358,377,397,418,437,458,478,498,518,537,557,578,597,618,638,659,678,698,718,738,759,777,799,817,839,858,877,897,919,937,958,978,998,1019,1037,1057,1078,1099,1118,1137,1158,1178,1197,1218,1238,1257,1277,1299,1318,1338,1357,1377,1398,1418,1437,1459,1477,1497,1518,1539,1557,1578,1598,1618,1639,1659,1677,1698,1717,1737,1758,1777,1797,1819,1838,1858,1879,1897,1918,1939,1958,1979,1997,2017,2039,2057,2079,2098,2118,2137,2159,2178,2198,2217,2238,2259,2278,2298,2319,2337,2358,2378,2398,2418,2438,2458,2477,2499,2518,2537,2558,2577,2598,2619,2638,2657,2678,2697,2717,2738,2758,2777,2797,2817,2839,2857,2879,2899,2917,2937,2958,2977,2999,3017,3037,3057,3078,3098,3118,3138,3157,3177,3197,3218,3238,3257,3277,3298,3318,3338,3357,3377,3397,3418,3437,3459,3478,3497,3518,3538,3557,3577,3598,3618,3637,3658,3678,3698,3717,3738,3758,3777,3797,3817,3838,3858,3879,3898,3917,3938,3958,3977],"xSR":741.5,"ySR":469.95,"xT1":424.9,"yT1":0,"xT2":1058.1,"yT2":0,"toosoon":0,"cond_shown":"randomdotsizeEA","ratio_trial":900,"smaller_num":"9","larger_num":"10","correct_side":1,"subjID":"nicolemarianacaballeromurillo32","gender":"1","age":"","school":"6"},{"start_time":1551794806024,"click_time":1551794807853,"finger_time":1551794807353,"fix_duration":789.7818320979402,"trial":7,"RT":1329,"MT":500,"sideResp":2,"stimulus":"img/900/randomdotsizeEA/L/8_Ratio_900_L_20_R_18.png","xmouse":[770,770,770,770,770,770,770,770,770,770,770,770,770,770,770,770,770,770,770,770,770,770,770,770,770,770,770,770,770,770,770,770,770,770,770,770,770,770,770,770,770,770,770,770,770,770,770,770,770,770,770,770,770,770,770,770,767,766,765,765,765,765,765,765,765,765,768,779,808,924,1052,1109,1140,1153,1160,1161,1159,1159,1159,1158,1154,1150,1147,1144,1140,1138,1135,1134,1133,1125,1121,1117],"ymouse":[489,489,489,489,489,489,489,489,489,489,489,489,489,489,489,489,489,489,489,489,489,489,489,489,489,489,489,489,489,489,489,489,489,489,489,489,489,489,489,489,489,489,489,489,489,489,489,489,489,489,489,489,489,489,489,489,480,477,475,475,475,475,475,475,475,475,469,464,451,400,326,286,257,236,218,199,188,183,178,166,157,152,149,147,144,143,140,138,135,123,113,94],"timestamp_mouse":[8,37,49,68,89,109,129,148,168,189,208,228,249,268,289,308,328,349,368,390,408,428,448,468,488,510,528,548,568,588,608,630,649,669,688,709,729,748,769,790,809,829,850,868,889,909,929,948,969,989,1009,1030,1048,1068,1089,1109,1130,1148,1169,1189,1209,1228,1249,1270,1288,1308,1329,1349,1368,1388,1408,1428,1450,1469,1488,1509,1528,1549,1568,1588,1608,1629,1649,1669,1689,1708,1729,1749,1768,1789,1808,1829],"xSR":741.5,"ySR":469.95,"xT1":424.9,"yT1":0,"xT2":1058.1,"yT2":0,"toosoon":0,"cond_shown":"randomdotsizeEA","ratio_trial":900,"smaller_num":"18","larger_num":"20","correct_side":1,"subjID":"nicolemarianacaballeromurillo32","gender":"1","age":"","school":"6"},{"start_time":1551794809972,"click_time":1551794811813,"finger_time":1551794811192,"fix_duration":837.793625305934,"trial":8,"RT":1220,"MT":621,"sideResp":2,"stimulus":"img/900/equaldotsize/R/6_Ratio_900_L_9_R_10.png","xmouse":[816,816,816,816,816,816,816,816,816,816,816,816,816,816,816,816,816,816,816,816,816,816,816,816,816,816,816,816,816,816,816,816,816,816,816,816,816,816,816,816,816,816,816,816,816,816,816,816,816,816,816,816,816,816,816,816,816,816,816,818,823,832,854,866,875,886,897,922,938,953,967,977,984,989,990,990,992,995,1000,1007,1017,1026,1042,1046,1047,1048,1049,1052,1053,1056,1058,1060,1061],"ymouse":[516,516,516,516,516,516,516,516,516,516,516,516,516,516,516,516,516,516,516,516,516,516,516,516,516,516,516,516,516,516,516,516,516,516,516,516,516,516,516,516,516,516,516,516,516,516,516,516,516,516,516,516,516,516,516,516,516,516,516,505,487,467,421,394,377,355,332,289,263,238,216,200,188,178,177,177,176,173,169,163,155,147,133,128,125,122,118,111,109,106,104,101,97],"timestamp_mouse":[9,21,53,61,80,101,120,142,160,182,201,221,241,260,282,301,321,340,362,380,401,422,441,461,481,501,520,541,562,581,602,622,640,662,681,702,720,741,761,780,800,820,841,860,880,902,921,942,960,981,1001,1021,1040,1062,1081,1100,1120,1141,1161,1181,1201,1220,1240,1260,1281,1301,1320,1341,1361,1380,1401,1421,1441,1461,1481,1501,1520,1541,1560,1580,1600,1620,1641,1660,1681,1700,1721,1740,1760,1781,1800,1821,1841],"xSR":741.5,"ySR":469.95,"xT1":424.9,"yT1":0,"xT2":1058.1,"yT2":0,"toosoon":0,"cond_shown":"equaldotsize","ratio_trial":900,"smaller_num":"9","larger_num":"10","correct_side":2,"subjID":"nicolemarianacaballeromurillo32","gender":"1","age":"","school":"6"},{"start_time":1551794813492,"click_time":1551794815093,"finger_time":1551794814552,"fix_duration":458.1951988012123,"trial":9,"RT":1060,"MT":541,"sideResp":1,"stimulus":"img/900/equaldotanddens/L/4_Ratio_900_L_20_R_18.png","xmouse":[795,795,795,795,795,795,795,795,795,795,795,795,795,795,795,795,795,795,795,795,795,795,795,795,795,795,795,795,795,795,795,795,795,795,795,795,795,795,793,793,792,792,791,791,791,791,791,790,790,790,789,783,776,769,763,753,717,676,664,656,652,649,649,649,649,649,648,645,638,629,620,606,602,597,588,564,532,495,479,474,473],"ymouse":[506,506,506,506,506,506,506,506,506,506,506,506,506,506,506,506,506,506,506,506,506,506,506,506,506,506,506,506,506,506,506,506,506,506,506,506,506,506,506,505,504,501,501,501,501,500,499,498,498,497,496,486,477,464,449,423,316,223,193,173,160,150,150,150,150,150,149,148,146,144,140,136,135,133,129,123,117,111,105,101,99],"timestamp_mouse":[10,20,42,60,82,101,121,141,160,180,200,221,241,261,281,300,321,341,361,381,401,420,441,461,481,502,520,541,560,581,600,620,641,661,680,701,720,741,761,781,800,820,842,861,881,900,921,941,961,980,1001,1021,1041,1060,1081,1100,1121,1140,1160,1181,1201,1220,1240,1261,1282,1301,1321,1340,1361,1381,1401,1421,1440,1461,1480,1501,1520,1541,1560,1581,1601],"xSR":741.5,"ySR":469.95,"xT1":424.9,"yT1":0,"xT2":1058.1,"yT2":0,"toosoon":0,"cond_shown":"equaldotanddens","ratio_trial":900,"smaller_num":"18","larger_num":"20","correct_side":1,"subjID":"nicolemarianacaballeromurillo32","gender":"1","age":"","school":"6"},{"start_time":1551794817434,"click_time":1551794818993,"finger_time":1551794818233,"fix_duration":1279.2767472193757,"trial":10,"RT":799,"MT":760,"sideResp":1,"stimulus":"img/750/randomdotsizeEA/L/13_Ratio_750_L_8_R_6.png","xmouse":[797,797,797,797,797,797,797,797,797,797,797,797,797,797,797,797,797,797,797,797,797,797,797,797,797,797,797,797,797,797,797,797,797,797,797,797,794,792,787,763,735,715,698,691,685,682,678,673,670,670,669,668,667,664,655,650,642,633,623,585,550,535,526,521,516,512,512,512,512,512,511,511,511,511,509,503,500,496,493],"ymouse":[521,521,521,521,521,521,521,521,521,521,521,521,521,521,521,521,521,521,521,521,521,521,521,521,521,521,521,521,521,521,521,521,521,521,521,521,518,515,508,483,462,448,434,425,412,402,389,378,368,342,327,320,313,304,286,275,266,256,245,215,192,179,165,155,143,131,128,126,125,125,125,125,125,124,121,112,108,102,96],"timestamp_mouse":[1,18,42,59,79,98,118,140,158,178,199,219,238,258,278,299,319,338,358,378,398,418,438,458,478,499,518,539,559,578,599,618,639,659,678,699,719,739,758,778,799,819,839,858,879,899,918,938,958,979,998,1019,1038,1058,1079,1098,1119,1138,1158,1178,1199,1218,1239,1258,1278,1298,1318,1339,1359,1378,1399,1418,1438,1459,1479,1499,1518,1539,1558],"xSR":741.5,"ySR":469.95,"xT1":424.9,"yT1":0,"xT2":1058.1,"yT2":0,"toosoon":0,"cond_shown":"randomdotsizeEA","ratio_trial":750,"smaller_num":"6","larger_num":"8","correct_side":1,"subjID":"nicolemarianacaballeromurillo32","gender":"1","age":"","school":"6"},{"start_time":1551794820525,"click_time":1551794821993,"finger_time":1551794821273,"fix_duration":250,"trial":11,"RT":748,"MT":720,"sideResp":1,"stimulus":"img/500/randomdotsizeEA/L/13_Ratio_500_L_12_R_6.png","xmouse":[764,764,764,764,764,764,764,764,764,764,764,764,764,764,764,764,764,764,764,764,764,764,764,764,764,764,764,764,764,764,764,764,764,764,764,764,758,752,743,724,716,711,702,693,677,674,672,670,667,659,655,653,653,652,643,636,617,602,590,583,582,580,579,579,579,579,577,573,568,555,544,526,487,447],"ymouse":[493,493,493,493,493,493,493,493,493,493,493,493,493,493,493,493,493,493,493,493,493,493,493,493,493,493,493,493,493,493,493,493,493,493,493,488,473,459,436,383,364,346,325,303,259,242,226,221,215,203,200,197,197,196,195,195,195,193,191,190,190,190,190,190,190,190,188,184,178,165,154,139,109,77],"timestamp_mouse":[8,43,48,68,87,108,128,147,168,189,207,228,249,267,287,309,328,348,368,387,408,429,447,468,488,509,527,549,568,588,608,629,648,669,687,708,728,748,768,788,807,827,848,867,888,909,927,947,968,987,1007,1028,1048,1067,1087,1107,1128,1147,1168,1188,1208,1227,1247,1269,1288,1308,1328,1347,1368,1388,1407,1427,1447,1467],"xSR":741.5,"ySR":469.95,"xT1":424.9,"yT1":0,"xT2":1058.1,"yT2":0,"toosoon":0,"cond_shown":"randomdotsizeEA","ratio_trial":500,"smaller_num":"6","larger_num":"12","correct_side":1,"subjID":"nicolemarianacaballeromurillo32","gender":"1","age":"","school":"6"},{"start_time":1551794825344,"click_time":1551794826813,"finger_time":1551794826253,"fix_duration":749.7584761938296,"trial":12,"RT":909,"MT":560,"sideResp":2,"stimulus":"img/900/randomdotsizeEA/L/2_Ratio_900_L_20_R_18.png","xmouse":[826,824,824,823,822,820,819,818,816,815,814,814,813,812,812,812,812,812,812,812,812,812,812,812,812,812,812,812,812,812,812,812,812,812,812,812,812,812,812,812,812,812,812,826,835,853,862,872,898,914,931,946,961,983,993,1010,1016,1020,1024,1025,1025,1025,1025,1027,1038,1040,1041,1043,1047,1049,1052,1056,1058,1064],"ymouse":[552,551,551,551,551,551,551,551,550,550,550,550,550,550,550,550,550,550,550,550,550,550,550,550,550,550,550,550,550,550,550,550,550,550,550,550,550,550,550,550,550,548,545,525,511,489,476,460,424,404,389,370,347,309,293,267,254,244,229,222,214,207,198,185,159,151,147,142,130,125,119,111,105,92],"timestamp_mouse":[8,28,51,69,88,109,129,148,168,189,208,229,248,268,289,308,328,348,368,388,408,428,448,468,488,509,530,549,568,588,609,628,650,670,688,710,729,750,768,789,809,828,849,869,889,909,928,950,970,988,1008,1028,1050,1069,1088,1109,1128,1150,1169,1188,1208,1229,1250,1268,1290,1308,1328,1350,1369,1388,1409,1428,1449,1469],"xSR":741.5,"ySR":469.95,"xT1":424.9,"yT1":0,"xT2":1058.1,"yT2":0,"toosoon":0,"cond_shown":"randomdotsizeEA","ratio_trial":900,"smaller_num":"18","larger_num":"20","correct_side":1,"subjID":"nicolemarianacaballeromurillo32","gender":"1","age":"","school":"6"},{"start_time":1551794828104,"click_time":1551794829712,"finger_time":1551794828373,"fix_duration":250,"trial":13,"RT":269,"MT":1339,"sideResp":1,"stimulus":"img/250/randomdotsizeEA/L/2_Ratio_250_L_16_R_4.png","xmouse":[802,802,802,802,802,802,802,803,806,811,822,830,838,846,851,856,857,857,857,857,857,857,857,857,857,857,857,857,857,857,857,857,854,836,818,788,769,758,746,737,723,716,710,703,697,689,685,675,669,662,647,638,629,622,615,604,593,587,580,566,536,508,473,445,424,406,404,403,403,403,403,403,403,403,402,404,411,425,437,450,463],"ymouse":[500,500,502,503,504,505,505,505,505,508,511,512,513,516,517,517,517,517,517,517,517,517,517,517,517,517,517,517,517,517,517,517,517,511,503,480,453,432,412,396,373,364,358,353,349,343,338,322,307,289,253,235,218,200,180,152,139,135,133,133,139,154,176,191,199,200,200,200,200,200,200,200,200,200,195,183,168,145,128,109,86],"timestamp_mouse":[9,39,49,69,88,108,129,149,169,189,208,229,249,269,288,310,328,348,368,389,409,428,448,469,488,509,528,550,569,588,609,628,649,669,688,708,729,749,768,789,808,828,848,869,888,909,929,948,969,988,1009,1028,1048,1069,1088,1108,1130,1148,1168,1188,1208,1228,1249,1268,1288,1309,1328,1348,1370,1388,1409,1428,1448,1468,1489,1508,1529,1548,1568,1588,1608],"xSR":741.5,"ySR":469.95,"xT1":424.9,"yT1":0,"xT2":1058.1,"yT2":0,"toosoon":0,"cond_shown":"randomdotsizeEA","ratio_trial":250,"smaller_num":"4","larger_num":"16","correct_side":1,"subjID":"nicolemarianacaballeromurillo32","gender":"1","age":"","school":"6"},{"start_time":1551794833966,"click_time":1551794835313,"finger_time":1551794834713,"fix_duration":272.6056817673882,"trial":14,"RT":747,"MT":600,"sideResp":2,"stimulus":"img/900/randomdotsizeEA/R/7_Ratio_900_L_9_R_10.png","xmouse":[776,776,776,776,776,776,776,776,776,776,776,776,776,776,776,776,776,776,776,776,776,776,776,776,776,776,776,776,776,776,776,776,776,776,776,776,797,856,896,930,951,967,988,993,994,995,998,1007,1011,1015,1020,1028,1047,1051,1052,1053,1055,1059,1072,1085,1104,1115,1119,1120,1120,1120,1119,1108],"ymouse":[507,507,507,507,507,507,507,507,507,507,507,507,507,507,507,507,507,507,507,507,507,507,507,507,507,507,507,507,507,507,507,507,507,507,507,507,495,458,435,409,390,372,341,324,320,315,307,277,262,248,235,222,197,192,190,190,188,186,180,173,164,154,140,135,123,112,102,76],"timestamp_mouse":[8,27,46,66,87,107,126,146,167,186,206,227,248,267,287,306,326,346,366,386,407,428,446,466,486,507,527,548,566,587,607,628,647,667,686,707,726,747,766,787,807,826,847,866,886,908,927,946,967,987,1007,1026,1046,1068,1086,1107,1126,1147,1166,1187,1208,1228,1247,1266,1286,1306,1327,1347],"xSR":741.5,"ySR":469.95,"xT1":424.9,"yT1":0,"xT2":1058.1,"yT2":0,"toosoon":0,"cond_shown":"randomdotsizeEA","ratio_trial":900,"smaller_num":"9","larger_num":"10","correct_side":2,"subjID":"nicolemarianacaballeromurillo32","gender":"1","age":"","school":"6"},{"start_time":1551794837750,"click_time":1551794838933,"finger_time":1551794838472,"fix_duration":1436.6011599822366,"trial":15,"RT":722,"MT":461,"sideResp":1,"stimulus":"img/500/randomdotsizeEA/L/10_Ratio_500_L_4_R_2.png","xmouse":[793,793,793,793,793,793,793,793,793,793,793,793,793,793,793,793,793,793,793,793,793,793,793,793,793,793,793,793,793,793,793,793,793,793,793,785,771,755,724,705,691,682,673,661,652,647,639,633,613,603,592,579,567,541,525,520,516,514,512,510],"ymouse":[493,493,493,493,493,493,493,493,493,493,493,493,493,493,493,493,493,493,493,493,493,493,493,493,493,493,493,493,493,493,493,493,493,493,493,474,429,392,321,287,263,244,227,194,174,165,155,148,135,130,125,122,118,112,107,105,104,102,100,98],"timestamp_mouse":[8,35,42,62,84,102,122,143,164,184,202,223,243,263,284,302,322,343,362,382,402,423,443,462,482,504,524,542,564,583,603,623,644,662,683,703,722,744,763,783,802,822,843,862,883,902,924,943,962,982,1003,1022,1043,1062,1082,1102,1123,1143,1163,1182],"xSR":741.5,"ySR":469.95,"xT1":424.9,"yT1":0,"xT2":1058.1,"yT2":0,"toosoon":0,"cond_shown":"randomdotsizeEA","ratio_trial":500,"smaller_num":"2","larger_num":"4","correct_side":1,"subjID":"nicolemarianacaballeromurillo32","gender":"1","age":"","school":"6"},{"start_time":1551794840027,"click_time":1551794840853,"finger_time":1551794840512,"fix_duration":253.2144677511542,"trial":16,"RT":485,"MT":341,"sideResp":2,"stimulus":"img/250/randomdotsizeEA/R/12_Ratio_250_L_5_R_20.png","xmouse":[776,776,776,776,776,776,776,776,776,776,776,776,776,776,776,776,776,776,776,776,776,776,776,777,791,806,826,855,884,918,931,953,975,995,1014,1020,1023,1029,1036,1056,1061,1078],"ymouse":[483,483,483,483,483,483,483,483,483,483,483,483,483,483,483,483,483,483,483,483,483,483,483,483,469,454,436,414,391,353,329,292,243,204,171,159,150,141,133,110,105,91],"timestamp_mouse":[12,35,46,65,85,106,126,146,166,186,206,226,246,266,285,305,327,345,366,387,407,427,446,465,485,505,526,545,565,586,607,626,646,666,686,705,725,746,765,787,805,826],"xSR":741.5,"ySR":469.95,"xT1":424.9,"yT1":0,"xT2":1058.1,"yT2":0,"toosoon":0,"cond_shown":"randomdotsizeEA","ratio_trial":250,"smaller_num":"5","larger_num":"20","correct_side":2,"subjID":"nicolemarianacaballeromurillo32","gender":"1","age":"","school":"6"},{"start_time":1551794842045,"click_time":1551794843174,"finger_time":1551794842633,"fix_duration":250,"trial":17,"RT":588,"MT":541,"sideResp":1,"stimulus":"img/500/equaldotsize/L/7_Ratio_500_L_10_R_5.png","xmouse":[769,769,769,769,769,769,769,769,769,769,769,769,769,769,769,769,769,769,769,769,769,769,769,769,769,769,769,769,769,765,749,729,695,631,599,575,556,544,525,518,518,518,518,518,518,518,518,518,518,518,518,518,518,518,518,518,505],"ymouse":[504,504,504,504,504,504,504,504,504,504,504,504,504,504,504,504,504,504,504,504,504,504,504,504,504,504,504,495,471,426,384,336,272,160,114,81,57,41,12,0,0,0,0,0,0,0,0,0,0,0,0,0,0,0,0,0,1],"timestamp_mouse":[9,32,49,68,87,108,128,147,167,189,208,229,247,268,288,307,328,349,367,387,407,429,447,467,487,508,528,549,567,588,607,627,647,667,687,707,728,748,768,787,807,829,848,868,889,908,927,947,967,987,1007,1027,1047,1068,1087,1107,1128],"xSR":741.5,"ySR":469.95,"xT1":424.9,"yT1":0,"xT2":1058.1,"yT2":0,"toosoon":0,"cond_shown":"equaldotsize","ratio_trial":500,"smaller_num":"5","larger_num":"10","correct_side":1,"subjID":"nicolemarianacaballeromurillo32","gender":"1","age":"","school":"6"},{"start_time":1551794845180,"click_time":1551794846213,"finger_time":1551794845733,"fix_duration":804.9644607555726,"trial":18,"RT":553,"MT":480,"sideResp":1,"stimulus":"img/750/equaldotsize/L/1_Ratio_750_L_20_R_15.png","xmouse":[773,773,773,773,773,773,773,773,773,773,773,773,773,773,773,773,773,773,773,773,773,773,773,773,773,773,773,772,769,751,729,695,672,658,640,627,615,601,596,592,588,587,587,587,587,583,570,557,545,536,528,519],"ymouse":[501,501,501,501,501,501,501,501,501,501,501,501,501,501,501,501,501,501,501,501,501,501,501,501,501,499,493,460,435,392,341,263,205,170,134,110,90,64,51,42,36,34,34,34,34,34,41,46,50,55,58,61],"timestamp_mouse":[13,33,53,72,92,112,132,153,172,192,212,233,253,274,292,312,332,353,372,393,413,432,453,473,493,512,532,553,573,592,612,633,652,672,694,712,732,753,773,792,812,833,854,873,893,912,932,952,972,992,1013,1033],"xSR":741.5,"ySR":469.95,"xT1":424.9,"yT1":0,"xT2":1058.1,"yT2":0,"toosoon":0,"cond_shown":"equaldotsize","ratio_trial":750,"smaller_num":"15","larger_num":"20","correct_side":1,"subjID":"nicolemarianacaballeromurillo32","gender":"1","age":"","school":"6"},{"start_time":1551794847705,"click_time":1551794849193,"finger_time":1551794848393,"fix_duration":591.2087147155703,"trial":19,"RT":688,"MT":800,"sideResp":2,"stimulus":"img/900/randomdotsizeEA/L/4_Ratio_900_L_20_R_18.png","xmouse":[771,771,771,771,771,771,771,771,771,771,774,775,776,777,777,777,777,779,779,779,779,781,782,783,784,787,788,790,791,792,795,797,803,811,825,857,889,910,928,944,971,983,993,998,1003,1009,1012,1013,1013,1013,1013,1013,1013,1013,1013,1013,1013,1013,1013,1013,1013,1013,1013,1013,1014,1018,1030,1040,1049,1053,1062,1065,1070,1072,1076],"ymouse":[528,528,528,528,528,528,528,528,528,528,528,527,527,526,526,526,526,525,525,525,525,524,524,523,521,518,518,515,513,511,505,501,491,478,459,414,372,345,324,304,267,249,232,220,211,200,195,193,192,192,192,192,192,192,192,192,192,192,192,192,192,192,192,192,189,184,170,160,152,144,125,116,107,100,92],"timestamp_mouse":[8,27,51,68,87,107,129,147,167,188,208,228,247,267,289,308,327,348,367,387,407,427,448,469,487,508,527,547,569,587,607,627,648,668,688,708,727,747,769,787,808,827,847,869,888,907,927,948,969,988,1008,1028,1049,1069,1088,1108,1127,1147,1168,1187,1207,1228,1248,1267,1287,1308,1327,1348,1367,1387,1407,1427,1447,1468,1488],"xSR":741.5,"ySR":469.95,"xT1":424.9,"yT1":0,"xT2":1058.1,"yT2":0,"toosoon":0,"cond_shown":"randomdotsizeEA","ratio_trial":900,"smaller_num":"18","larger_num":"20","correct_side":1,"subjID":"nicolemarianacaballeromurillo32","gender":"1","age":"","school":"6"},{"start_time":1551794850363,"click_time":1551794851432,"finger_time":1551794851072,"fix_duration":250,"trial":20,"RT":709,"MT":360,"sideResp":1,"stimulus":"img/500/equaldotsize/L/7_Ratio_500_L_10_R_5.png","xmouse":[759,759,759,759,759,759,759,759,759,759,759,759,759,759,759,759,759,759,759,759,759,759,759,759,759,759,759,759,759,759,759,759,757,754,743,734,724,699,684,663,643,626,594,578,570,561,555,542,538,536,533,531,528,523],"ymouse":[520,520,520,520,520,520,520,520,520,520,520,520,520,520,520,520,520,520,520,520,520,520,520,520,520,520,520,520,520,520,520,520,515,501,475,455,430,384,356,324,296,273,229,200,185,169,158,139,133,128,123,116,109,92],"timestamp_mouse":[11,37,49,69,89,111,129,150,169,190,209,229,249,269,290,309,330,350,370,391,410,429,449,469,489,510,530,550,571,589,610,630,650,670,689,709,731,750,769,789,811,830,850,869,890,909,931,950,969,991,1010,1030,1050,1069],"xSR":741.5,"ySR":469.95,"xT1":424.9,"yT1":0,"xT2":1058.1,"yT2":0,"toosoon":0,"cond_shown":"equaldotsize","ratio_trial":500,"smaller_num":"5","larger_num":"10","correct_side":1,"subjID":"nicolemarianacaballeromurillo32","gender":"1","age":"","school":"6"},{"start_time":1551794853440,"click_time":1551794854632,"finger_time":1551794854033,"fix_duration":907.125230686652,"trial":21,"RT":593,"MT":599,"sideResp":2,"stimulus":"img/750/equaldotanddens/R/15_Ratio_750_L_9_R_12.png","xmouse":[757,757,757,757,757,757,757,757,757,757,757,757,757,757,757,757,757,757,757,757,757,757,757,757,757,757,759,764,785,808,825,842,857,886,900,916,929,942,966,985,995,1009,1022,1041,1048,1057,1068,1078,1097,1104,1106,1106,1106,1108,1108,1108,1108,1108,1109,1109],"ymouse":[499,499,499,499,499,499,499,499,499,499,499,499,499,499,499,499,499,499,499,499,499,499,499,499,499,499,495,490,473,458,448,437,423,395,380,361,345,327,295,271,259,245,230,203,193,180,168,157,133,120,117,113,111,108,107,106,105,104,100,98],"timestamp_mouse":[13,37,53,73,93,112,133,154,172,192,213,232,252,272,292,312,332,352,372,392,412,432,452,474,492,514,532,553,573,592,612,633,653,672,692,712,732,753,773,793,813,832,852,873,892,913,932,952,972,992,1013,1033,1052,1073,1093,1112,1133,1152,1173,1192],"xSR":741.5,"ySR":469.95,"xT1":424.9,"yT1":0,"xT2":1058.1,"yT2":0,"toosoon":0,"cond_shown":"equaldotanddens","ratio_trial":750,"smaller_num":"9","larger_num":"12","correct_side":2,"subjID":"nicolemarianacaballeromurillo32","gender":"1","age":"","school":"6"},{"start_time":1551794856801,"click_time":1551794858073,"finger_time":1551794857594,"fix_duration":1307.7606675734291,"trial":22,"RT":793,"MT":479,"sideResp":2,"stimulus":"img/500/randomdotsizeEA/R/12_Ratio_500_L_1_R_2.png","xmouse":[793,793,793,793,793,793,793,793,793,793,793,793,793,793,793,793,793,793,793,793,793,793,793,793,793,793,793,793,793,793,793,793,793,793,793,793,793,796,803,823,873,907,924,937,950,982,1005,1026,1041,1050,1063,1070,1080,1088,1096,1105,1109,1115,1118,1120,1122,1123,1123,1123],"ymouse":[492,492,492,492,492,492,492,492,492,492,492,492,492,492,492,492,492,492,492,492,492,492,492,492,492,492,492,492,492,492,492,492,492,492,492,492,492,487,481,468,429,399,382,363,346,305,284,265,248,233,210,202,191,182,174,158,146,132,122,114,105,101,100,98],"timestamp_mouse":[11,31,60,72,92,111,133,151,173,191,211,231,252,272,292,313,331,351,371,392,411,431,453,472,491,511,532,552,572,592,611,631,653,672,691,712,733,751,772,793,811,831,852,872,892,912,931,951,971,992,1013,1032,1051,1072,1092,1112,1131,1152,1171,1192,1212,1232,1252,1272],"xSR":741.5,"ySR":469.95,"xT1":424.9,"yT1":0,"xT2":1058.1,"yT2":0,"toosoon":0,"cond_shown":"randomdotsizeEA","ratio_trial":500,"smaller_num":"1","larger_num":"2","correct_side":2,"subjID":"nicolemarianacaballeromurillo32","gender":"1","age":"","school":"6"},{"start_time":1551794861698,"click_time":1551794863032,"finger_time":1551794862513,"fix_duration":1164.4912349596927,"trial":23,"RT":815,"MT":519,"sideResp":2,"stimulus":"img/750/equaldotsize/L/6_Ratio_750_L_24_R_18.png","xmouse":[780,780,780,780,780,780,780,780,780,780,780,780,780,780,780,780,780,780,780,780,780,780,780,780,780,780,780,780,780,780,780,780,780,780,780,780,780,781,791,805,853,905,950,994,1017,1041,1052,1055,1057,1057,1059,1060,1061,1061,1062,1062,1062,1062,1063,1063,1067,1072,1079,1084,1087,1090,1092],"ymouse":[502,502,502,502,502,502,502,502,502,502,502,502,502,502,502,502,502,502,502,502,502,502,502,502,502,502,502,502,502,502,502,502,502,502,502,502,502,502,490,475,437,404,369,337,314,274,249,236,226,219,210,208,206,205,203,200,197,193,188,186,176,167,155,143,131,108,94],"timestamp_mouse":[16,34,56,74,95,116,135,155,174,195,215,235,256,275,294,315,335,354,375,395,414,435,454,476,495,515,534,556,576,595,614,635,655,675,694,714,736,754,775,796,814,835,854,875,895,915,934,954,975,994,1015,1034,1054,1075,1095,1115,1136,1155,1175,1196,1215,1235,1255,1275,1295,1314,1334],"xSR":741.5,"ySR":469.95,"xT1":424.9,"yT1":0,"xT2":1058.1,"yT2":0,"toosoon":0,"cond_shown":"equaldotsize","ratio_trial":750,"smaller_num":"18","larger_num":"24","correct_side":1,"subjID":"nicolemarianacaballeromurillo32","gender":"1","age":"","school":"6"},{"start_time":1551794865807,"click_time":1551794866833,"finger_time":1551794866333,"fix_duration":1213.721024429329,"trial":24,"RT":526,"MT":500,"sideResp":2,"stimulus":"img/750/randomdotsizeEA/L/10_Ratio_750_L_4_R_3.png","xmouse":[797,797,797,797,797,797,797,797,797,797,797,797,797,797,797,797,797,797,797,797,797,800,810,810,810,810,810,810,810,810,828,855,874,893,912,940,951,966,982,997,1018,1031,1037,1042,1045,1049,1049,1050,1053,1055,1062,1062],"ymouse":[496,496,496,496,496,496,496,496,496,496,496,496,496,496,496,496,496,496,496,496,496,489,475,473,472,470,468,467,466,465,454,435,420,402,383,338,311,279,241,206,158,135,124,116,112,108,107,107,105,105,100,99],"timestamp_mouse":[8,26,51,66,87,105,125,145,167,185,205,226,246,265,287,306,326,345,366,386,406,426,445,466,485,505,526,546,566,586,607,625,646,666,685,705,725,746,766,785,805,825,846,867,886,905,925,947,965,985,1006,1026],"xSR":741.5,"ySR":469.95,"xT1":424.9,"yT1":0,"xT2":1058.1,"yT2":0,"toosoon":0,"cond_shown":"randomdotsizeEA","ratio_trial":750,"smaller_num":"3","larger_num":"4","correct_side":1,"subjID":"nicolemarianacaballeromurillo32","gender":"1","age":"","school":"6"},{"start_time":1551794869445,"click_time":1551794870852,"finger_time":1551794870032,"fix_duration":1169.1854247420172,"trial":25,"RT":587,"MT":820,"sideResp":1,"stimulus":"img/250/equaldotsize/L/5_Ratio_250_L_24_R_6.png","xmouse":[777,777,777,777,777,777,777,777,777,777,777,777,777,777,777,777,777,777,777,777,777,777,777,777,777,777,778,778,775,764,753,742,728,699,688,680,676,671,651,644,639,633,626,605,591,580,571,561,539,534,533,530,527,523,522,522,525,531,535,535,535,535,534,534,534,533,533,533,533,528,523],"ymouse":[533,533,533,533,533,533,533,533,533,533,533,533,533,533,533,533,533,533,533,533,533,533,533,533,533,533,532,528,489,454,435,415,396,358,341,327,316,305,272,257,246,231,219,194,182,174,171,167,159,158,157,156,154,151,146,135,124,114,96,83,79,76,74,74,73,73,73,73,73,73,73],"timestamp_mouse":[10,32,48,68,87,108,128,149,168,187,209,227,247,269,289,308,327,347,369,387,409,428,447,469,487,508,527,548,568,587,607,628,648,667,688,708,728,748,769,787,807,829,848,868,887,907,929,948,967,987,1008,1028,1048,1067,1087,1107,1128,1148,1169,1188,1207,1229,1249,1268,1287,1307,1328,1348,1368,1388,1407],"xSR":741.5,"ySR":469.95,"xT1":424.9,"yT1":0,"xT2":1058.1,"yT2":0,"toosoon":0,"cond_shown":"equaldotsize","ratio_trial":250,"smaller_num":"6","larger_num":"24","correct_side":1,"subjID":"nicolemarianacaballeromurillo32","gender":"1","age":"","school":"6"},{"start_time":1551794874299,"click_time":1551794875554,"finger_time":1551794875132,"fix_duration":1164.3248678109844,"trial":26,"RT":833,"MT":422,"sideResp":1,"stimulus":"img/900/randomdotsizeEA/L/2_Ratio_900_L_20_R_18.png","xmouse":[782,782,782,782,782,782,782,782,782,782,782,782,782,782,782,782,782,782,782,782,782,782,782,782,782,782,782,782,782,782,782,782,782,782,779,774,770,766,761,754,749,746,744,738,732,714,696,679,664,650,625,617,611,606,603,595,589,580,571,558,521,511,505],"ymouse":[520,520,520,520,520,520,520,520,520,520,520,520,520,520,520,520,520,520,520,520,520,520,520,520,520,520,520,520,520,520,520,520,520,520,514,504,497,489,483,476,472,469,466,458,451,429,403,383,365,350,319,309,300,293,288,271,258,235,214,191,136,115,98],"timestamp_mouse":[14,40,54,73,94,113,133,153,174,194,214,234,253,274,293,314,333,354,375,393,415,434,455,473,495,514,533,555,574,594,615,634,654,674,693,714,734,754,773,793,814,833,854,873,893,914,933,954,973,993,1013,1033,1053,1073,1095,1114,1135,1153,1175,1194,1213,1233,1254],"xSR":741.5,"ySR":469.95,"xT1":424.9,"yT1":0,"xT2":1058.1,"yT2":0,"toosoon":0,"cond_shown":"randomdotsizeEA","ratio_trial":900,"smaller_num":"18","larger_num":"20","correct_side":1,"subjID":"nicolemarianacaballeromurillo32","gender":"1","age":"","school":"6"},{"start_time":1551794876956,"click_time":1551794880552,"finger_time":1551794879133,"fix_duration":362.91510874397625,"trial":27,"RT":2177,"MT":1419,"sideResp":1,"stimulus":"img/750/equaldotanddens/L/9_Ratio_750_L_4_R_3.png","xmouse":[786,786,786,786,786,786,786,786,786,786,786,786,786,786,786,786,786,786,786,786,786,786,786,786,786,786,786,786,786,786,786,786,786,786,786,786,786,786,786,786,786,786,786,786,786,785,783,774,773,772,772,771,771,771,771,771,771,771,771,771,771,771,771,771,771,771,770,770,770,770,770,770,770,770,770,770,770,770,770,770,770,770,770,770,770,770,770,770,770,770,770,770,770,770,770,770,770,770,770,770,770,770,770,770,770,770,770,770,767,764,761,761,761,761,761,761,761,761,761,761,761,761,761,761,761,761,761,761,761,761,761,760,757,750,743,728,712,690,687,686,686,686,686,686,685,680,670,612,581,548,531,531,531,531,531,531,531,531,531,531,531,531,531,409,415,419,420,422,423,424,424,424,424,424,424,424,424,424,424,426],"ymouse":[498,498,498,498,498,498,498,498,498,498,498,498,498,498,498,498,498,498,498,498,498,498,498,498,498,498,498,498,498,498,498,498,498,498,498,498,498,498,498,498,498,498,498,498,498,497,491,477,475,473,473,472,472,472,472,472,472,472,472,472,472,472,472,472,472,471,471,471,471,471,471,471,471,471,471,471,471,471,471,471,471,471,471,471,471,471,471,471,471,471,471,471,471,471,471,471,471,471,471,471,471,471,471,471,471,471,471,471,463,451,445,444,442,440,440,440,440,440,440,440,440,440,440,440,440,440,440,440,440,440,440,439,438,433,427,415,398,376,372,372,372,372,372,372,371,356,330,200,125,49,10,10,10,10,10,10,10,10,10,10,10,10,10,19,32,39,42,44,45,46,46,46,46,46,46,46,46,46,46,46],"timestamp_mouse":[16,44,57,76,97,117,137,157,177,197,217,237,256,276,296,317,338,356,378,396,416,436,457,476,496,516,537,556,578,596,618,636,656,678,697,717,736,757,776,797,817,836,857,876,897,916,937,956,977,997,1017,1037,1058,1076,1096,1117,1136,1158,1176,1197,1217,1236,1258,1277,1297,1317,1336,1358,1377,1396,1416,1438,1457,1477,1497,1516,1536,1557,1577,1596,1616,1638,1656,1677,1697,1716,1737,1758,1776,1798,1816,1836,1857,1878,1897,1917,1937,1956,1977,1997,2016,2037,2056,2077,2096,2118,2138,2156,2177,2196,2216,2236,2257,2277,2296,2316,2338,2357,2376,2396,2417,2436,2456,2477,2497,2517,2536,2557,2577,2597,2616,2636,2657,2677,2696,2716,2738,2756,2776,2797,2817,2836,2857,2877,2896,2917,2937,2957,2976,2996,3016,3037,3056,3076,3096,3116,3137,3158,3177,3197,3217,3236,3256,3277,3296,3316,3337,3357,3376,3396,3416,3437,3458,3477,3497,3518,3537,3557,3577,3596],"xSR":741.5,"ySR":469.95,"xT1":424.9,"yT1":0,"xT2":1058.1,"yT2":0,"toosoon":0,"cond_shown":"equaldotanddens","ratio_trial":750,"smaller_num":"3","larger_num":"4","correct_side":1,"subjID":"nicolemarianacaballeromurillo32","gender":"1","age":"","school":"6"},{"start_time":1551794882124,"click_time":1551794883592,"finger_time":1551794882752,"fix_duration":250,"trial":28,"RT":628,"MT":840,"sideResp":2,"stimulus":"img/250/equaldotsize/R/6_Ratio_250_L_6_R_24.png","xmouse":[772,772,772,772,772,772,772,772,772,772,772,772,772,772,772,772,772,772,772,772,772,772,772,772,772,772,772,772,773,793,819,844,865,880,901,910,920,935,955,989,1003,1017,1028,1033,1036,1037,1045,1048,1050,1051,1052,1055,1060,1065,1074,1075,1075,1075,1077,1080,1082,1084,1085,1088,1090,1091,1091,1091,1092,1093,1094,1096,1098,1102],"ymouse":[517,517,517,517,517,517,517,517,517,517,517,517,517,517,517,517,517,517,517,517,517,517,517,517,517,517,517,517,517,517,517,517,514,507,481,449,423,399,371,326,307,291,280,273,259,257,249,246,243,236,231,226,220,213,199,190,183,176,170,158,152,147,140,135,129,126,126,125,124,120,117,113,108,97],"timestamp_mouse":[8,38,48,70,88,109,128,149,169,188,208,230,249,269,290,309,330,349,368,390,408,430,449,468,489,510,528,550,568,588,609,628,648,670,689,709,728,748,769,789,808,828,848,869,890,909,929,948,969,988,1009,1029,1048,1068,1089,1109,1128,1149,1168,1188,1208,1228,1248,1268,1289,1309,1329,1348,1368,1388,1408,1429,1448,1468],"xSR":741.5,"ySR":469.95,"xT1":424.9,"yT1":0,"xT2":1058.1,"yT2":0,"toosoon":0,"cond_shown":"equaldotsize","ratio_trial":250,"smaller_num":"6","larger_num":"24","correct_side":2,"subjID":"nicolemarianacaballeromurillo32","gender":"1","age":"","school":"6"},{"start_time":1551794885586,"click_time":1551794886913,"finger_time":1551794886232,"fix_duration":1211.254626977501,"trial":29,"RT":646,"MT":681,"sideResp":2,"stimulus":"img/500/equaldotanddens/R/14_Ratio_500_L_5_R_10.png","xmouse":[819,819,819,819,819,819,819,819,819,819,819,819,819,819,819,819,819,819,819,819,819,819,819,819,819,819,819,819,819,819,822,834,849,866,899,933,974,985,990,994,996,1011,1041,1064,1085,1099,1110,1112,1114,1115,1119,1130,1135,1138,1138,1138,1136,1135,1135,1134,1134,1133,1132,1132,1130,1129,1126],"ymouse":[524,524,524,524,524,524,524,524,524,524,524,524,524,524,524,524,524,524,524,524,524,524,524,524,524,524,524,524,524,524,521,510,489,461,412,365,300,281,271,265,257,242,230,224,220,217,212,212,210,205,196,174,162,154,151,145,134,131,130,129,128,125,121,114,107,102,93],"timestamp_mouse":[10,26,46,68,87,107,127,146,167,188,207,227,248,268,287,307,326,348,366,387,408,426,447,466,486,508,526,548,567,588,607,627,646,666,686,706,727,747,767,787,808,827,847,866,886,907,927,946,966,987,1007,1027,1047,1067,1086,1108,1127,1146,1166,1187,1207,1228,1247,1266,1287,1306,1326],"xSR":741.5,"ySR":469.95,"xT1":424.9,"yT1":0,"xT2":1058.1,"yT2":0,"toosoon":0,"cond_shown":"equaldotanddens","ratio_trial":500,"smaller_num":"5","larger_num":"10","correct_side":2,"subjID":"nicolemarianacaballeromurillo32","gender":"1","age":"","school":"6"},{"start_time":1551794888351,"click_time":1551794889712,"finger_time":1551794889092,"fix_duration":597.588578668733,"trial":30,"RT":741,"MT":620,"sideResp":1,"stimulus":"img/250/randomdotsizeEA/L/2_Ratio_250_L_16_R_4.png","xmouse":[774,774,774,774,774,774,774,774,774,774,774,774,774,774,774,774,774,774,774,774,774,774,774,774,774,774,774,774,774,774,774,774,774,774,774,774,774,768,750,739,727,714,704,688,678,674,673,670,665,645,632,618,608,595,592,588,583,578,572,569,567,566,564,561,558,555,551,545,519],"ymouse":[527,527,527,527,527,527,527,527,527,527,527,527,527,527,527,527,527,527,527,527,527,527,527,527,527,527,527,527,527,527,527,527,527,527,507,495,484,468,432,413,392,371,354,325,311,301,291,276,260,228,210,191,178,160,155,147,141,136,130,128,127,125,124,120,116,113,110,104,89],"timestamp_mouse":[9,33,42,61,82,102,122,141,162,182,201,221,242,261,281,301,322,342,361,383,402,423,441,462,481,501,521,542,562,582,602,622,643,661,681,701,722,741,762,781,801,821,842,862,882,902,922,942,961,981,1002,1021,1041,1062,1082,1101,1122,1141,1162,1181,1202,1222,1241,1261,1293,1302,1322,1342,1361],"xSR":741.5,"ySR":469.95,"xT1":424.9,"yT1":0,"xT2":1058.1,"yT2":0,"toosoon":0,"cond_shown":"randomdotsizeEA","ratio_trial":250,"smaller_num":"4","larger_num":"16","correct_side":1,"subjID":"nicolemarianacaballeromurillo32","gender":"1","age":"","school":"6"},{"start_time":1551794891948,"click_time":1551794893113,"finger_time":1551794892673,"fix_duration":1214.1103850023756,"trial":31,"RT":725,"MT":440,"sideResp":1,"stimulus":"img/500/randomdotsizeEA/L/7_Ratio_500_L_10_R_5.png","xmouse":[783,783,783,783,783,783,783,783,783,783,783,783,783,783,783,783,783,783,783,783,783,783,783,783,783,783,783,783,783,783,783,783,783,783,783,783,776,758,723,703,683,666,656,637,627,623,619,613,606,593,588,583,579,568,554,544,536,531,524],"ymouse":[494,494,494,494,494,494,494,494,494,494,494,494,494,494,494,494,494,494,494,494,494,494,494,494,494,494,494,494,494,494,494,494,494,494,494,482,446,403,337,307,279,256,236,208,194,187,183,176,170,158,151,145,138,119,97,84,74,69,61],"timestamp_mouse":[8,33,45,64,86,104,124,146,165,185,206,224,245,265,285,305,326,344,364,385,404,425,444,464,486,506,524,545,564,586,604,625,644,664,686,704,725,744,764,784,804,824,846,865,884,904,924,944,964,984,1005,1025,1044,1064,1084,1104,1124,1145,1165],"xSR":741.5,"ySR":469.95,"xT1":424.9,"yT1":0,"xT2":1058.1,"yT2":0,"toosoon":0,"cond_shown":"randomdotsizeEA","ratio_trial":500,"smaller_num":"5","larger_num":"10","correct_side":1,"subjID":"nicolemarianacaballeromurillo32","gender":"1","age":"","school":"6"},{"start_time":1551794895284,"click_time":1551794897154,"finger_time":1551794896553,"fix_duration":950.6092134092714,"trial":32,"RT":1269,"MT":601,"sideResp":1,"stimulus":"img/750/equaldotsize/L/9_Ratio_750_L_4_R_3.png","xmouse":[777,777,777,777,777,777,777,777,777,777,777,777,777,777,777,777,777,777,777,777,777,777,777,777,777,777,777,777,777,777,777,777,777,777,777,777,777,777,777,777,777,777,777,777,777,777,777,777,777,777,777,777,777,777,777,777,777,777,777,777,777,777,769,757,739,722,703,698,694,691,688,679,674,671,669,668,660,636,611,577,529,472,464,461,457,456,452,450,449,449,449,449,449,449],"ymouse":[496,496,496,496,496,496,496,496,496,496,496,496,496,496,496,496,496,496,496,496,496,496,496,496,496,496,496,496,496,496,496,496,496,496,496,496,496,496,496,496,496,496,496,496,496,496,496,496,496,496,496,496,496,496,496,496,496,496,496,496,496,496,478,456,429,406,376,360,329,306,292,269,260,254,251,250,244,234,225,209,189,157,151,144,136,129,116,110,107,104,103,102,102,99],"timestamp_mouse":[8,35,49,68,89,108,128,149,169,189,208,228,249,268,288,309,329,348,368,388,408,429,450,468,489,508,530,548,568,588,610,628,648,670,688,710,728,749,768,789,808,830,848,868,888,908,929,948,970,988,1009,1030,1049,1069,1088,1108,1128,1148,1169,1188,1210,1228,1248,1269,1289,1309,1329,1348,1368,1388,1409,1429,1448,1469,1488,1509,1528,1548,1568,1589,1609,1628,1648,1668,1689,1709,1729,1749,1768,1789,1808,1828,1849,1870],"xSR":741.5,"ySR":469.95,"xT1":424.9,"yT1":0,"xT2":1058.1,"yT2":0,"toosoon":0,"cond_shown":"equaldotsize","ratio_trial":750,"smaller_num":"3","larger_num":"4","correct_side":1,"subjID":"nicolemarianacaballeromurillo32","gender":"1","age":"","school":"6"},{"start_time":1551794898701,"click_time":1551794900234,"finger_time":1551794899713,"fix_duration":507.8083693326789,"trial":33,"RT":1012,"MT":521,"sideResp":2,"stimulus":"img/750/equaldotsize/R/3_Ratio_750_L_15_R_20.png","xmouse":[762,762,762,762,762,762,762,762,762,762,762,762,762,762,762,762,762,762,762,762,762,762,762,762,762,762,762,762,762,762,762,762,762,762,762,762,762,762,762,762,762,762,762,762,762,762,763,774,798,818,852,867,882,899,920,952,962,969,969,969,961,957,954,953,953,954,960,966,974,984,1004,1018,1032,1045,1056,1079,1092],"ymouse":[494,494,494,494,494,494,494,494,494,494,494,494,494,494,494,494,494,494,494,494,494,494,494,494,494,494,494,494,494,494,494,494,494,494,494,494,494,494,494,494,494,494,494,494,494,494,494,491,481,472,445,428,408,385,363,324,304,273,257,243,216,201,187,176,170,163,156,152,148,144,136,132,127,123,118,106,98],"timestamp_mouse":[12,42,52,71,92,111,131,151,172,192,211,232,251,272,293,312,332,352,372,391,412,433,451,471,491,512,533,551,572,591,613,633,652,671,693,712,732,752,771,792,812,833,853,871,892,912,932,951,973,992,1012,1031,1051,1072,1092,1112,1133,1151,1171,1191,1212,1231,1251,1271,1292,1311,1331,1351,1372,1391,1411,1431,1451,1471,1493,1512,1533],"xSR":741.5,"ySR":469.95,"xT1":424.9,"yT1":0,"xT2":1058.1,"yT2":0,"toosoon":0,"cond_shown":"equaldotsize","ratio_trial":750,"smaller_num":"15","larger_num":"20","correct_side":2,"subjID":"nicolemarianacaballeromurillo32","gender":"1","age":"","school":"6"},{"start_time":1551794901666,"click_time":1551794903112,"finger_time":1551794902712,"fix_duration":613.7254732843722,"trial":34,"RT":1046,"MT":400,"sideResp":2,"stimulus":"img/900/equaldotsize/R/7_Ratio_900_L_9_R_10.png","xmouse":[789,789,789,789,789,789,789,789,789,789,789,789,789,789,789,789,789,789,789,789,789,789,789,789,789,789,789,789,789,789,789,789,789,789,789,789,789,789,789,789,789,789,789,789,789,789,789,789,789,795,802,818,853,873,892,904,916,951,987,994,994,994,995,999,1006,1014,1025,1063,1081,1085,1087,1094,1098],"ymouse":[524,524,524,524,524,524,524,524,524,524,524,524,524,524,524,524,524,524,524,524,524,524,524,524,524,524,524,524,524,524,524,524,524,524,524,524,524,524,524,524,524,524,524,524,524,524,524,524,524,515,506,486,448,432,416,407,399,378,354,349,349,349,347,338,327,312,293,225,172,144,122,105,89],"timestamp_mouse":[9,39,47,67,87,107,126,147,167,186,208,227,247,267,288,308,327,347,366,388,407,428,447,467,487,507,526,547,568,586,608,626,647,667,687,706,727,746,768,786,806,826,847,868,887,906,927,946,966,986,1008,1027,1046,1066,1086,1107,1127,1146,1166,1187,1207,1226,1246,1266,1287,1307,1326,1346,1367,1386,1407,1427,1446],"xSR":741.5,"ySR":469.95,"xT1":424.9,"yT1":0,"xT2":1058.1,"yT2":0,"toosoon":0,"cond_shown":"equaldotsize","ratio_trial":900,"smaller_num":"9","larger_num":"10","correct_side":2,"subjID":"nicolemarianacaballeromurillo32","gender":"1","age":"","school":"6"},{"start_time":1551794904767,"click_time":1551794906312,"finger_time":1551794905673,"fix_duration":393.8070217602738,"trial":35,"RT":906,"MT":639,"sideResp":1,"stimulus":"img/900/equaldotanddens/L/2_Ratio_900_L_20_R_18.png","xmouse":[746,746,746,758,774,785,793,801,802,802,802,802,802,802,802,802,802,802,802,802,802,802,802,802,802,802,802,802,802,802,802,802,802,802,802,802,802,802,802,802,802,802,797,793,790,787,784,775,766,757,752,747,740,729,717,703,684,640,619,598,579,565,553,551,550,550,550,546,545,545,544,543,540,538,535,531,528,520],"ymouse":[509,509,509,512,516,518,519,519,519,519,519,519,519,519,519,519,519,519,519,519,519,519,519,519,519,519,519,519,519,519,519,519,519,519,519,519,519,519,519,519,519,517,499,487,479,469,456,423,403,382,359,334,292,261,242,224,206,181,171,162,153,147,139,134,120,114,107,93,89,85,81,79,75,73,71,71,70,69],"timestamp_mouse":[18,34,46,67,85,105,126,145,165,185,206,225,247,265,285,306,325,345,365,386,406,425,446,466,485,505,526,546,566,585,605,627,646,666,685,705,725,746,767,785,806,826,845,866,885,906,926,946,965,987,1006,1027,1045,1066,1085,1106,1126,1145,1166,1185,1206,1226,1245,1266,1285,1306,1326,1345,1365,1386,1405,1426,1445,1466,1485,1506,1525,1545],"xSR":741.5,"ySR":469.95,"xT1":424.9,"yT1":0,"xT2":1058.1,"yT2":0,"toosoon":0,"cond_shown":"equaldotanddens","ratio_trial":900,"smaller_num":"18","larger_num":"20","correct_side":1,"subjID":"nicolemarianacaballeromurillo32","gender":"1","age":"","school":"6"},{"start_time":1551794907543,"click_time":1551794908472,"finger_time":1551794908113,"fix_duration":250,"trial":36,"RT":570,"MT":359,"sideResp":2,"stimulus":"img/500/equaldotanddens/R/2_Ratio_500_L_3_R_6.png","xmouse":[779,779,779,779,779,779,779,779,779,779,779,779,779,779,779,779,779,779,779,779,779,779,779,779,779,785,797,813,860,891,917,939,964,1008,1040,1060,1077,1088,1105,1109,1111,1114,1114,1119,1120,1120,1120],"ymouse":[531,531,531,531,531,531,531,531,531,531,531,531,531,531,531,531,531,531,531,531,531,531,531,531,531,524,514,502,469,446,428,406,379,325,291,272,255,239,206,193,182,172,161,134,118,107,97],"timestamp_mouse":[10,36,49,69,90,110,129,150,170,190,211,229,250,270,290,309,329,350,370,389,410,431,449,471,490,509,530,549,570,589,609,630,650,670,689,709,729,749,769,789,809,829,850,869,890,909,929],"xSR":741.5,"ySR":469.95,"xT1":424.9,"yT1":0,"xT2":1058.1,"yT2":0,"toosoon":0,"cond_shown":"equaldotanddens","ratio_trial":500,"smaller_num":"3","larger_num":"6","correct_side":2,"subjID":"nicolemarianacaballeromurillo32","gender":"1","age":"","school":"6"},{"start_time":1551794909802,"click_time":1551794910833,"finger_time":1551794910413,"fix_duration":446.37913805423193,"trial":37,"RT":611,"MT":420,"sideResp":1,"stimulus":"img/500/randomdotsizeEA/L/5_Ratio_500_L_4_R_2.png","xmouse":[790,790,790,790,790,790,790,790,790,790,790,790,790,790,790,790,790,790,790,790,790,790,790,790,790,790,790,790,789,787,768,748,730,710,695,681,674,660,645,626,602,599,598,596,596,595,594,594,593,589,560,512],"ymouse":[539,539,539,539,539,539,539,539,539,539,539,539,539,539,539,539,539,539,539,539,539,539,539,539,539,539,539,539,536,527,460,412,373,339,312,270,252,226,203,178,147,140,138,133,132,127,125,125,124,119,94,60],"timestamp_mouse":[10,42,50,71,91,111,131,150,172,191,210,230,252,271,290,311,330,350,372,391,411,430,450,472,492,511,531,552,570,591,611,632,650,670,691,711,730,750,770,790,810,830,850,871,890,910,930,950,970,991,1010,1031],"xSR":741.5,"ySR":469.95,"xT1":424.9,"yT1":0,"xT2":1058.1,"yT2":0,"toosoon":0,"cond_shown":"randomdotsizeEA","ratio_trial":500,"smaller_num":"2","larger_num":"4","correct_side":1,"subjID":"nicolemarianacaballeromurillo32","gender":"1","age":"","school":"6"},{"start_time":1551794912620,"click_time":1551794913892,"finger_time":1551794913412,"fix_duration":286.2656200909468,"trial":38,"RT":792,"MT":480,"sideResp":2,"stimulus":"img/500/equaldotanddens/R/12_Ratio_500_L_1_R_2.png","xmouse":[775,775,775,775,775,775,775,775,775,775,775,775,775,775,775,775,775,775,775,775,775,775,775,770,768,768,768,768,768,768,768,768,768,768,768,768,774,786,802,843,876,894,907,922,944,955,969,982,991,1005,1009,1010,1013,1017,1035,1043,1049,1055,1060,1068,1071,1077,1081,1083],"ymouse":[527,527,527,527,527,527,527,527,527,527,527,527,527,527,527,527,527,527,527,527,527,527,527,528,528,528,528,528,528,528,528,528,528,528,528,528,520,505,487,440,393,367,345,321,280,261,239,222,209,190,183,181,177,175,169,166,162,158,154,144,138,119,106,97],"timestamp_mouse":[14,43,52,72,92,114,134,152,174,192,212,232,253,273,293,313,332,352,372,394,413,432,452,472,492,514,533,552,574,592,612,633,652,673,693,713,732,753,774,792,813,832,853,872,892,913,933,952,972,993,1013,1032,1053,1073,1093,1112,1132,1152,1172,1192,1212,1232,1254,1272],"xSR":741.5,"ySR":469.95,"xT1":424.9,"yT1":0,"xT2":1058.1,"yT2":0,"toosoon":0,"cond_shown":"equaldotanddens","ratio_trial":500,"smaller_num":"1","larger_num":"2","correct_side":2,"subjID":"nicolemarianacaballeromurillo32","gender":"1","age":"","school":"6"},{"start_time":1551794915949,"click_time":1551794917312,"finger_time":1551794916832,"fix_duration":1394.1381395143292,"trial":39,"RT":883,"MT":480,"sideResp":2,"stimulus":"img/750/randomdotsizeEA/R/15_Ratio_750_L_9_R_12.png","xmouse":[819,819,819,819,819,819,819,819,819,819,819,819,819,819,819,819,819,819,819,819,819,819,819,819,819,819,819,819,819,817,813,812,810,809,809,809,809,809,809,809,811,814,817,828,846,861,879,896,930,943,951,960,964,979,990,1000,1008,1015,1026,1030,1033,1036,1040,1048,1054,1058,1063,1069,1083],"ymouse":[532,532,532,532,532,532,532,532,532,532,532,532,532,532,532,532,532,532,532,532,532,532,532,532,532,532,532,532,532,524,516,512,509,505,505,504,504,504,502,500,498,494,488,474,452,439,424,409,385,375,367,361,356,339,326,313,302,289,263,251,239,226,214,185,163,150,133,117,85],"timestamp_mouse":[8,23,43,63,84,104,123,145,163,183,204,223,245,263,285,304,324,345,363,383,404,423,445,463,484,505,524,544,563,583,603,624,644,664,684,705,724,743,764,783,803,824,845,863,883,903,923,943,964,983,1003,1024,1043,1064,1085,1103,1124,1143,1163,1183,1205,1225,1244,1263,1283,1303,1324,1344,1363],"xSR":741.5,"ySR":469.95,"xT1":424.9,"yT1":0,"xT2":1058.1,"yT2":0,"toosoon":0,"cond_shown":"randomdotsizeEA","ratio_trial":750,"smaller_num":"9","larger_num":"12","correct_side":2,"subjID":"nicolemarianacaballeromurillo32","gender":"1","age":"","school":"6"},{"start_time":1551794919073,"click_time":1551794920252,"finger_time":1551794919713,"fix_duration":918.8805086790782,"trial":40,"RT":640,"MT":539,"sideResp":1,"stimulus":"img/900/randomdotsizeEA/L/10_Ratio_900_L_20_R_18.png","xmouse":[761,761,761,761,761,761,761,761,761,761,761,761,761,761,761,761,761,761,761,761,761,761,761,761,761,761,761,761,761,759,754,747,734,726,717,708,699,674,658,641,632,624,614,612,611,610,609,607,605,602,598,592,579,572,563,550,536,522,515,511],"ymouse":[539,539,539,539,539,539,539,539,539,539,539,539,539,539,539,539,539,539,539,539,539,539,539,539,539,539,539,539,539,536,525,513,490,475,458,441,425,384,362,339,326,312,294,288,282,273,263,246,228,216,202,186,160,149,138,129,120,108,102,99],"timestamp_mouse":[1,19,39,60,80,100,120,139,160,181,200,220,240,260,280,300,319,339,361,381,399,419,440,459,480,499,521,539,561,579,600,621,640,659,679,700,719,740,761,779,800,820,839,859,879,899,921,940,960,979,1000,1019,1040,1059,1081,1100,1119,1139,1159,1179],"xSR":741.5,"ySR":469.95,"xT1":424.9,"yT1":0,"xT2":1058.1,"yT2":0,"toosoon":0,"cond_shown":"randomdotsizeEA","ratio_trial":900,"smaller_num":"18","larger_num":"20","correct_side":1,"subjID":"nicolemarianacaballeromurillo32","gender":"1","age":"","school":"6"},{"start_time":1551794922407,"click_time":1551794923674,"finger_time":1551794923072,"fix_duration":1233.6208175707563,"trial":41,"RT":665,"MT":602,"sideResp":1,"stimulus":"img/900/equaldotsize/L/1_Ratio_900_L_10_R_9.png","xmouse":[812,812,812,812,812,812,812,812,812,812,812,812,812,812,812,812,812,812,812,812,812,812,812,812,812,812,812,812,812,812,810,804,798,789,781,759,746,730,711,694,666,659,655,655,655,659,664,667,667,667,662,653,647,633,622,606,597,591,586,582,563,548,534,522],"ymouse":[522,522,522,522,522,522,522,522,522,522,522,522,522,522,522,522,522,522,522,522,522,522,522,522,522,522,522,522,522,522,513,491,473,451,432,390,368,343,320,300,261,249,237,232,228,217,213,209,206,201,187,179,175,167,156,138,126,114,104,95,72,63,58,52],"timestamp_mouse":[8,38,46,65,85,107,125,146,166,187,207,225,246,265,286,306,326,347,367,385,406,426,445,467,485,505,525,546,565,586,606,626,645,665,686,706,725,745,765,787,806,827,845,866,885,906,925,945,965,985,1005,1025,1045,1066,1085,1105,1125,1145,1166,1185,1206,1227,1245,1267],"xSR":741.5,"ySR":469.95,"xT1":424.9,"yT1":0,"xT2":1058.1,"yT2":0,"toosoon":0,"cond_shown":"equaldotsize","ratio_trial":900,"smaller_num":"9","larger_num":"10","correct_side":1,"subjID":"nicolemarianacaballeromurillo32","gender":"1","age":"","school":"6"},{"start_time":1551794924929,"click_time":1551794926013,"finger_time":1551794925593,"fix_duration":255.5711384184398,"trial":42,"RT":664,"MT":420,"sideResp":2,"stimulus":"img/900/equaldotanddens/R/9_Ratio_900_L_18_R_20.png","xmouse":[799,799,799,799,799,799,799,799,799,799,799,799,799,799,799,799,799,799,799,799,799,799,799,799,799,799,799,799,799,799,806,814,822,832,844,867,885,897,910,936,946,956,963,969,978,983,990,996,1004,1021,1029,1035,1044,1054,1062],"ymouse":[546,546,546,546,546,546,546,546,546,546,546,546,546,546,546,546,546,546,546,546,546,546,546,546,546,546,546,546,546,541,525,507,484,462,442,403,372,351,327,276,250,233,221,212,197,187,175,167,158,141,130,121,111,100,92],"timestamp_mouse":[10,34,43,65,85,104,123,144,164,184,203,224,244,263,284,303,324,345,364,383,403,425,443,465,484,505,524,544,565,584,603,624,645,664,684,705,723,745,764,783,803,823,844,864,883,904,923,943,965,985,1003,1023,1044,1064,1084],"xSR":741.5,"ySR":469.95,"xT1":424.9,"yT1":0,"xT2":1058.1,"yT2":0,"toosoon":0,"cond_shown":"equaldotanddens","ratio_trial":900,"smaller_num":"18","larger_num":"20","correct_side":2,"subjID":"nicolemarianacaballeromurillo32","gender":"1","age":"","school":"6"},{"start_time":1551794927984,"click_time":1551794929432,"finger_time":1551794928674,"fix_duration":1188.1261829890882,"trial":43,"RT":690,"MT":758,"sideResp":1,"stimulus":"img/750/randomdotsizeEA/L/14_Ratio_750_L_8_R_6.png","xmouse":[778,778,778,778,778,778,778,778,778,778,778,778,778,778,778,778,778,778,778,778,778,778,778,778,778,778,778,778,778,778,778,778,778,778,757,697,626,613,603,596,591,587,586,585,585,585,585,585,583,578,573,563,557,555,554,554,554,554,554,554,554,554,554,553,552,551,542,534,524,511,495,469,459],"ymouse":[490,490,490,490,490,490,490,490,490,490,490,490,490,490,490,490,490,490,490,490,490,490,490,490,490,490,490,490,490,490,490,490,490,490,467,415,352,338,322,306,296,284,281,280,280,280,280,278,271,258,241,214,196,192,191,191,190,190,190,190,190,190,190,189,188,185,172,162,149,135,122,100,93],"timestamp_mouse":[8,30,58,69,89,109,128,149,170,188,210,230,250,269,289,309,328,350,369,388,410,430,448,469,489,508,528,549,570,589,608,628,649,669,690,709,728,748,768,789,808,828,849,869,888,909,930,948,970,989,1008,1028,1049,1068,1088,1108,1130,1150,1169,1188,1209,1230,1249,1268,1288,1309,1328,1348,1369,1389,1408,1428,1448],"xSR":741.5,"ySR":469.95,"xT1":424.9,"yT1":0,"xT2":1058.1,"yT2":0,"toosoon":0,"cond_shown":"randomdotsizeEA","ratio_trial":750,"smaller_num":"6","larger_num":"8","correct_side":1,"subjID":"nicolemarianacaballeromurillo32","gender":"1","age":"","school":"6"},{"start_time":1551794931040,"click_time":1551794936192,"finger_time":1551794934812,"fix_duration":686.038001650741,"trial":44,"RT":3772,"MT":1380,"sideResp":2,"stimulus":"img/500/equaldotanddens/R/2_Ratio_500_L_3_R_6.png","xmouse":[782,782,782,782,782,782,782,782,782,782,782,782,782,782,782,782,782,782,782,782,782,782,782,782,782,782,782,782,782,782,782,782,782,782,782,782,782,782,782,782,782,782,782,782,782,782,782,782,782,782,782,782,782,782,782,782,782,782,782,782,782,782,782,782,782,782,782,782,782,782,782,782,782,782,782,782,782,782,782,782,782,782,782,782,782,782,782,782,782,782,782,782,782,782,782,782,782,782,782,782,782,782,782,782,782,781,781,781,781,781,780,780,780,780,780,780,780,780,780,780,780,780,780,780,780,780,780,780,780,780,780,780,780,780,780,780,780,780,780,780,780,780,780,780,780,780,780,780,780,780,780,780,780,780,780,780,780,780,780,780,780,780,780,780,780,780,780,780,780,780,780,780,780,780,780,780,780,781,784,790,791,793,794,798,801,806,810,815,823,827,829,830,831,832,832,832,832,832,833,833,833,833,833,833,833,833,833,833,833,833,833,833,833,833,833,834,832,828,817,810,807,805,804,802,796,793,792,791,791,791,791,791,791,791,791,791,791,791,791,791,791,791,791,794,802,817,844,878,945,974,1012,1035,1053,1087,1101,1111,1120,1130],"ymouse":[524,524,524,524,524,524,524,524,524,524,524,524,524,524,524,524,524,524,524,524,524,524,524,524,524,524,524,524,524,524,524,524,524,524,524,524,524,524,524,524,524,524,524,524,524,524,524,524,524,524,524,524,524,524,524,524,524,524,524,524,524,524,524,524,524,524,524,524,524,524,524,524,524,524,524,524,524,524,524,524,524,524,524,524,524,524,524,524,524,524,524,524,524,524,524,524,524,524,524,524,524,524,524,524,524,522,518,517,515,515,514,514,514,514,514,514,514,514,514,514,514,514,514,514,514,514,514,514,514,514,514,514,514,514,514,514,514,514,514,514,514,514,514,514,514,514,514,514,514,514,514,514,514,514,514,514,514,514,514,514,514,514,514,514,514,514,514,514,514,514,514,514,514,514,514,514,514,514,511,502,499,496,494,489,485,481,476,470,460,453,448,445,443,443,443,443,442,440,439,439,439,438,438,436,436,436,436,436,436,436,436,436,436,436,436,437,442,453,478,493,500,505,509,514,530,538,544,546,547,547,547,547,547,547,547,547,547,547,547,547,547,547,547,540,525,504,470,423,339,300,249,216,190,145,129,116,106,96],"timestamp_mouse":[12,39,54,72,94,112,133,152,174,193,212,233,253,272,294,313,332,353,373,393,414,434,452,472,493,512,534,552,574,592,614,632,652,674,692,713,732,754,773,792,813,832,854,872,894,913,932,953,974,994,1012,1034,1053,1073,1094,1113,1132,1153,1173,1193,1214,1233,1253,1273,1293,1313,1333,1354,1374,1394,1413,1434,1452,1474,1493,1512,1534,1552,1572,1594,1612,1634,1653,1672,1693,1714,1732,1752,1773,1794,1813,1834,1853,1873,1894,1913,1933,1953,1974,1992,2013,2032,2052,2074,2092,2112,2132,2153,2172,2192,2212,2233,2254,2273,2293,2313,2334,2354,2372,2392,2413,2433,2452,2474,2494,2512,2534,2553,2573,2593,2612,2633,2652,2673,2692,2713,2732,2754,2772,2792,2814,2833,2853,2874,2892,2912,2933,2952,2973,2993,3012,3034,3054,3073,3096,3114,3132,3153,3172,3194,3212,3234,3252,3272,3293,3312,3334,3354,3372,3392,3414,3432,3452,3473,3493,3512,3534,3553,3573,3594,3612,3633,3653,3673,3692,3713,3733,3754,3772,3793,3812,3834,3853,3872,3892,3913,3933,3953,3972,3992,4012,4033,4053,4073,4094,4112,4134,4152,4173,4194,4214,4233,4254,4274,4292,4312,4333,4352,4372,4393,4412,4432,4452,4472,4492,4514,4533,4552,4574,4593,4612,4634,4654,4672,4693,4714,4734,4753,4772,4793,4813,4834,4853,4873,4892,4914,4933,4952,4972,4993,5012,5034,5052,5073,5092,5112,5133,5152],"xSR":741.5,"ySR":469.95,"xT1":424.9,"yT1":0,"xT2":1058.1,"yT2":0,"toosoon":0,"cond_shown":"equaldotanddens","ratio_trial":500,"smaller_num":"3","larger_num":"6","correct_side":2,"subjID":"nicolemarianacaballeromurillo32","gender":"1","age":"","school":"6"},{"start_time":1551794938612,"click_time":1551794939413,"finger_time":1551794939252,"fix_duration":1439.9616639670203,"trial":45,"RT":640,"MT":161,"sideResp":1,"stimulus":"img/250/equaldotanddens/L/1_Ratio_250_L_8_R_2.png","xmouse":[777,777,777,777,777,777,777,777,777,777,777,777,777,777,777,777,777,777,777,777,777,777,777,777,777,777,777,777,777,777,769,756,737,709,669,616,600,586,568,538,487],"ymouse":[509,509,509,509,509,509,509,509,509,509,509,509,509,509,509,509,509,509,509,509,509,509,509,509,509,509,509,509,509,509,499,478,452,416,374,307,274,243,205,154,64],"timestamp_mouse":[8,20,42,61,81,101,120,142,160,182,200,220,241,261,280,302,321,341,360,381,400,421,441,461,481,501,521,542,560,580,601,622,640,660,681,701,720,741,760,780,801],"xSR":741.5,"ySR":469.95,"xT1":424.9,"yT1":0,"xT2":1058.1,"yT2":0,"toosoon":0,"cond_shown":"equaldotanddens","ratio_trial":250,"smaller_num":"2","larger_num":"8","correct_side":1,"subjID":"nicolemarianacaballeromurillo32","gender":"1","age":"","school":"6"},{"start_time":1551794941285,"click_time":1551794942194,"finger_time":1551794941812,"fix_duration":950.4187946778762,"trial":46,"RT":527,"MT":382,"sideResp":2,"stimulus":"img/250/randomdotsizeEA/R/12_Ratio_250_L_5_R_20.png","xmouse":[773,773,773,773,773,773,773,773,773,773,773,773,773,773,773,773,773,774,779,782,786,793,796,799,804,811,827,838,862,885,904,932,946,959,974,985,1009,1022,1029,1036,1043,1051,1052,1054,1056,1061],"ymouse":[542,542,542,542,542,542,542,542,542,542,542,542,542,542,542,542,542,540,531,527,523,514,511,505,498,488,454,429,378,340,309,248,214,185,150,124,85,71,67,64,61,57,55,54,54,52],"timestamp_mouse":[10,33,48,68,89,108,128,148,167,189,207,228,249,267,287,308,327,348,367,388,407,427,447,468,488,508,527,548,567,588,608,628,648,668,688,708,728,748,767,788,807,827,848,869,887,909],"xSR":741.5,"ySR":469.95,"xT1":424.9,"yT1":0,"xT2":1058.1,"yT2":0,"toosoon":0,"cond_shown":"randomdotsizeEA","ratio_trial":250,"smaller_num":"5","larger_num":"20","correct_side":2,"subjID":"nicolemarianacaballeromurillo32","gender":"1","age":"","school":"6"},{"start_time":1551794944073,"click_time":1551794945092,"finger_time":1551794944593,"fix_duration":878.5197898570782,"trial":47,"RT":520,"MT":499,"sideResp":1,"stimulus":"img/250/randomdotsizeEA/L/7_Ratio_250_L_8_R_2.png","xmouse":[780,780,780,780,780,780,780,780,780,780,780,780,780,780,780,780,780,780,780,780,780,780,780,780,774,764,751,724,702,692,682,668,641,626,616,607,605,603,603,603,603,601,599,597,593,586,575,546,532,528,526,523],"ymouse":[491,491,491,491,491,491,491,491,491,491,491,491,491,491,491,491,491,491,491,491,491,491,491,492,487,472,456,425,394,374,352,321,257,222,196,176,170,165,160,159,158,156,152,148,141,134,124,106,95,92,90,87],"timestamp_mouse":[1,19,39,59,81,99,119,141,160,180,200,220,241,259,279,300,321,340,361,379,400,421,439,459,480,499,520,540,559,579,599,620,640,659,680,700,720,739,759,780,800,819,840,859,879,900,921,940,961,981,1000,1019],"xSR":741.5,"ySR":469.95,"xT1":424.9,"yT1":0,"xT2":1058.1,"yT2":0,"toosoon":0,"cond_shown":"randomdotsizeEA","ratio_trial":250,"smaller_num":"2","larger_num":"8","correct_side":1,"subjID":"nicolemarianacaballeromurillo32","gender":"1","age":"","school":"6"},{"start_time":1551794946771,"click_time":1551794948113,"finger_time":1551794947312,"fix_duration":518.7673750246249,"trial":48,"RT":541,"MT":801,"sideResp":1,"stimulus":"img/250/equaldotanddens/L/2_Ratio_250_L_16_R_4.png","xmouse":[764,764,764,764,764,764,764,764,764,764,764,764,764,764,764,764,764,764,764,764,764,764,764,764,764,764,764,758,744,730,709,691,663,652,638,632,626,622,619,618,615,612,609,607,600,596,591,586,580,575,568,559,549,544,543,542,541,538,536,535,535,534,533,531,530,528,526,521],"ymouse":[488,488,488,488,488,488,488,488,488,488,488,488,488,488,488,488,488,488,488,488,488,488,488,488,488,488,488,461,429,387,338,295,230,205,173,156,145,127,120,115,112,107,104,103,99,96,94,92,90,88,85,81,76,74,74,73,73,73,73,73,73,73,73,73,73,74,74,75],"timestamp_mouse":[2,23,41,62,83,101,122,142,161,182,201,221,241,261,283,302,322,341,362,381,402,423,443,462,482,501,521,541,561,582,602,622,642,662,682,702,722,741,761,781,803,821,841,862,881,902,921,942,962,982,1001,1021,1042,1062,1082,1102,1121,1141,1161,1182,1201,1222,1242,1261,1281,1302,1322,1342],"xSR":741.5,"ySR":469.95,"xT1":424.9,"yT1":0,"xT2":1058.1,"yT2":0,"toosoon":0,"cond_shown":"equaldotanddens","ratio_trial":250,"smaller_num":"4","larger_num":"16","correct_side":1,"subjID":"nicolemarianacaballeromurillo32","gender":"1","age":"","school":"6"},{"start_time":1551794949201,"click_time":1551794950413,"finger_time":1551794949753,"fix_duration":387.50831359077375,"trial":49,"RT":552,"MT":660,"sideResp":2,"stimulus":"img/750/equaldotsize/R/3_Ratio_750_L_15_R_20.png","xmouse":[807,807,807,807,807,807,807,807,807,807,807,807,807,807,807,807,807,807,807,807,807,810,813,818,820,831,839,849,861,872,887,898,907,914,924,947,958,968,978,987,1004,1016,1023,1031,1039,1049,1051,1053,1054,1056,1059,1061,1063,1063,1064,1064,1065,1065,1066,1066,1067],"ymouse":[550,550,550,550,550,550,550,550,550,550,550,550,550,550,550,550,550,550,550,549,548,543,539,531,524,502,491,480,467,452,421,396,377,361,344,310,295,280,267,255,231,214,203,192,180,159,153,148,146,144,139,132,128,125,122,116,112,109,104,102,97],"timestamp_mouse":[13,41,52,72,91,113,131,151,171,191,213,233,251,272,292,312,332,352,371,391,411,433,451,473,492,511,531,552,571,592,612,631,651,673,692,712,731,751,772,792,812,831,851,872,892,912,931,951,971,992,1011,1031,1052,1071,1091,1112,1131,1152,1172,1192,1212],"xSR":741.5,"ySR":469.95,"xT1":424.9,"yT1":0,"xT2":1058.1,"yT2":0,"toosoon":0,"cond_shown":"equaldotsize","ratio_trial":750,"smaller_num":"15","larger_num":"20","correct_side":2,"subjID":"nicolemarianacaballeromurillo32","gender":"1","age":"","school":"6"},{"start_time":1551794951564,"click_time":1551794952652,"finger_time":1551794952093,"fix_duration":250,"trial":50,"RT":529,"MT":559,"sideResp":1,"stimulus":"img/250/randomdotsizeEA/L/3_Ratio_250_L_8_R_2.png","xmouse":[774,774,774,774,774,774,774,774,774,774,774,774,774,774,774,774,774,774,774,774,774,774,774,772,762,750,735,710,702,695,685,673,641,637,629,624,616,605,600,597,596,595,592,590,587,580,574,560,550,542,537,531,512,494,488],"ymouse":[502,502,502,502,502,502,502,502,502,502,502,502,502,502,502,502,502,502,502,502,502,502,502,502,489,472,453,423,407,392,373,356,307,299,277,261,238,214,206,201,199,197,193,190,185,176,167,151,142,135,130,124,111,101,98],"timestamp_mouse":[8,39,49,69,88,110,129,149,168,189,210,230,248,270,290,310,330,349,368,389,408,428,448,469,488,508,529,549,568,589,609,628,649,670,688,709,729,748,768,789,809,828,848,869,888,908,929,948,968,988,1008,1029,1049,1070,1088],"xSR":741.5,"ySR":469.95,"xT1":424.9,"yT1":0,"xT2":1058.1,"yT2":0,"toosoon":0,"cond_shown":"randomdotsizeEA","ratio_trial":250,"smaller_num":"2","larger_num":"8","correct_side":1,"subjID":"nicolemarianacaballeromurillo32","gender":"1","age":"","school":"6"},{"start_time":1551794954139,"click_time":1551794955113,"finger_time":1551794954634,"fix_duration":305.2733641117207,"trial":51,"RT":495,"MT":479,"sideResp":1,"stimulus":"img/500/randomdotsizeEA/L/13_Ratio_500_L_12_R_6.png","xmouse":[790,790,790,790,790,790,790,790,790,790,790,790,790,790,790,790,790,790,790,790,790,790,786,754,733,715,709,705,699,696,689,678,666,638,618,608,601,591,576,572,567,563,558,550,542,532,525,518,508],"ymouse":[492,492,492,492,492,492,492,492,492,492,492,492,492,492,492,492,492,492,492,492,492,492,489,470,459,450,444,438,409,388,365,333,306,242,196,175,162,150,134,132,131,131,129,125,117,112,107,100,89],"timestamp_mouse":[13,37,55,75,95,113,135,154,173,194,215,235,253,274,295,314,333,353,373,394,415,433,454,473,495,513,534,553,574,593,614,633,655,673,695,713,733,754,774,793,814,834,854,873,893,913,934,953,974],"xSR":741.5,"ySR":469.95,"xT1":424.9,"yT1":0,"xT2":1058.1,"yT2":0,"toosoon":0,"cond_shown":"randomdotsizeEA","ratio_trial":500,"smaller_num":"6","larger_num":"12","correct_side":1,"subjID":"nicolemarianacaballeromurillo32","gender":"1","age":"","school":"6"},{"start_time":1551794957663,"click_time":1551794960012,"finger_time":1551794959612,"fix_duration":1488.5090362950168,"trial":52,"RT":1949,"MT":400,"sideResp":1,"stimulus":"img/250/randomdotsizeEA/L/5_Ratio_250_L_24_R_6.png","xmouse":[790,790,790,790,790,790,790,790,790,790,790,790,790,790,790,790,790,790,790,790,790,790,790,790,790,790,790,790,790,790,790,790,790,790,790,790,790,791,793,794,794,794,794,794,794,794,794,794,794,794,794,794,794,794,794,794,794,794,794,794,794,794,794,794,794,794,794,794,794,794,794,794,794,794,794,794,794,794,794,794,794,794,794,794,794,794,794,794,794,794,794,794,789,783,774,762,746,709,699,699,699,699,699,699,698,697,695,690,686,679,669,656,624,602,582,559,539,503],"ymouse":[508,508,508,508,508,508,508,508,508,508,508,508,508,508,508,508,508,508,508,508,508,508,508,508,508,508,508,508,508,508,508,508,508,508,508,508,508,508,501,497,497,497,497,497,497,497,497,497,497,497,497,497,497,497,497,497,497,497,497,497,497,497,497,497,497,497,497,497,497,497,497,497,497,497,497,497,497,497,497,497,497,497,497,497,497,497,497,497,497,497,497,497,497,499,499,499,498,493,491,491,491,491,491,491,490,488,484,475,466,453,434,409,333,284,236,179,134,70],"timestamp_mouse":[9,46,51,69,89,110,130,149,171,190,209,230,249,270,290,310,331,350,369,391,409,431,451,469,489,511,529,550,571,589,611,631,651,669,689,710,730,749,769,791,809,829,850,869,890,911,930,949,969,990,1011,1029,1049,1070,1089,1111,1129,1149,1169,1191,1209,1230,1250,1271,1289,1311,1330,1349,1370,1391,1409,1430,1450,1471,1489,1509,1531,1549,1569,1589,1610,1629,1651,1670,1689,1710,1730,1749,1771,1789,1810,1829,1849,1869,1889,1910,1930,1949,1969,1990,2010,2029,2050,2070,2090,2110,2129,2149,2171,2189,2210,2230,2250,2269,2289,2310,2330,2349],"xSR":741.5,"ySR":469.95,"xT1":424.9,"yT1":0,"xT2":1058.1,"yT2":0,"toosoon":0,"cond_shown":"randomdotsizeEA","ratio_trial":250,"smaller_num":"6","larger_num":"24","correct_side":1,"subjID":"nicolemarianacaballeromurillo32","gender":"1","age":"","school":"6"},{"start_time":1551794962918,"click_time":1551794963892,"finger_time":1551794963553,"fix_duration":1443.553847473192,"trial":53,"RT":635,"MT":339,"sideResp":2,"stimulus":"img/900/equaldotsize/L/8_Ratio_900_L_20_R_18.png","xmouse":[785,785,785,785,785,785,785,785,785,785,785,785,785,785,785,785,785,785,785,785,785,785,785,785,785,785,785,788,796,811,820,826,832,842,875,905,931,963,1008,1047,1053,1054,1054,1054,1055,1061,1070,1077,1087],"ymouse":[536,536,536,536,536,536,536,536,536,536,536,536,536,536,536,536,536,536,536,536,536,536,536,536,536,536,535,527,514,490,478,467,457,443,407,382,363,335,299,262,246,232,212,193,164,141,122,105,89],"timestamp_mouse":[15,42,55,74,96,114,136,154,174,196,216,234,254,274,295,314,335,354,374,396,414,435,455,475,495,514,534,555,575,594,614,635,655,675,694,715,734,755,775,796,816,835,855,874,894,916,935,954,974],"xSR":741.5,"ySR":469.95,"xT1":424.9,"yT1":0,"xT2":1058.1,"yT2":0,"toosoon":0,"cond_shown":"equaldotsize","ratio_trial":900,"smaller_num":"18","larger_num":"20","correct_side":1,"subjID":"nicolemarianacaballeromurillo32","gender":"1","age":"","school":"6"},{"start_time":1551794965385,"click_time":1551794966434,"finger_time":1551794965872,"fix_duration":610.793240657128,"trial":54,"RT":487,"MT":562,"sideResp":1,"stimulus":"img/500/equaldotanddens/L/4_Ratio_500_L_18_R_9.png","xmouse":[794,794,794,794,794,794,794,794,794,794,794,794,794,794,794,794,794,792,790,787,784,769,763,755,746,735,710,700,689,682,671,650,633,614,586,548,508,494,487,486,486,486,482,481,481,481,483,484,485,485,485,486,486],"ymouse":[540,540,540,540,540,540,540,540,540,540,540,540,540,540,540,540,540,540,536,532,523,496,487,476,466,453,426,415,404,392,380,352,327,304,269,237,205,194,184,173,165,147,133,128,126,122,114,112,110,108,106,101,99],"timestamp_mouse":[10,27,48,68,88,108,127,149,167,187,207,227,248,269,287,309,328,347,368,387,407,428,449,467,487,508,527,548,567,588,607,628,649,667,688,707,727,747,768,788,808,828,848,868,887,907,928,947,967,987,1008,1028,1049],"xSR":741.5,"ySR":469.95,"xT1":424.9,"yT1":0,"xT2":1058.1,"yT2":0,"toosoon":0,"cond_shown":"equaldotanddens","ratio_trial":500,"smaller_num":"9","larger_num":"18","correct_side":1,"subjID":"nicolemarianacaballeromurillo32","gender":"1","age":"","school":"6"},{"start_time":1551794968764,"click_time":1551794969774,"finger_time":1551794969354,"fix_duration":1351.7640480943105,"trial":55,"RT":590,"MT":420,"sideResp":2,"stimulus":"img/500/equaldotsize/R/1_Ratio_500_L_9_R_18.png","xmouse":[785,785,785,785,785,785,785,785,785,785,785,785,785,785,785,785,785,785,785,785,785,785,785,785,785,785,788,803,821,850,884,909,954,987,1014,1050,1095,1178,1199,1209,1214,1215,1207,1193,1187,1182,1178,1169,1163,1159,1157],"ymouse":[525,525,525,525,525,525,525,525,525,525,525,525,525,525,525,525,525,525,525,525,525,525,525,525,525,525,522,505,488,461,436,408,345,297,265,229,192,142,127,114,100,86,54,32,23,16,12,6,5,4,4],"timestamp_mouse":[9,28,62,69,89,109,129,148,170,189,208,228,249,268,288,308,330,348,368,389,408,429,448,469,489,510,529,548,568,590,609,628,649,670,688,709,728,748,768,789,809,829,849,870,888,910,929,949,969,988,1009],"xSR":741.5,"ySR":469.95,"xT1":424.9,"yT1":0,"xT2":1058.1,"yT2":0,"toosoon":0,"cond_shown":"equaldotsize","ratio_trial":500,"smaller_num":"9","larger_num":"18","correct_side":2,"subjID":"nicolemarianacaballeromurillo32","gender":"1","age":"","school":"6"},{"start_time":1551794971326,"click_time":1551794972213,"finger_time":1551794971813,"fix_duration":611.8002358614003,"trial":56,"RT":487,"MT":400,"sideResp":1,"stimulus":"img/500/randomdotsizeEA/R/1_Ratio_500_L_9_R_18.png","xmouse":[795,795,795,795,795,795,795,795,795,795,795,795,795,795,795,795,795,795,795,795,795,795,795,793,767,755,746,738,732,717,707,695,682,671,652,636,623,607,590,558,540,524,515,506,487],"ymouse":[495,495,495,495,495,495,495,495,495,495,495,495,495,495,495,495,495,495,495,495,495,495,496,496,464,449,436,424,413,383,367,348,328,309,279,252,232,211,191,160,148,138,130,121,96],"timestamp_mouse":[9,36,47,67,88,106,127,146,168,187,207,227,247,267,287,306,327,346,368,388,407,428,446,467,487,506,526,547,566,587,606,626,646,667,687,707,726,748,767,788,808,827,846,866,887],"xSR":741.5,"ySR":469.95,"xT1":424.9,"yT1":0,"xT2":1058.1,"yT2":0,"toosoon":0,"cond_shown":"randomdotsizeEA","ratio_trial":500,"smaller_num":"9","larger_num":"18","correct_side":2,"subjID":"nicolemarianacaballeromurillo32","gender":"1","age":"","school":"6"},{"start_time":1551794973810,"click_time":1551794974573,"finger_time":1551794974372,"fix_duration":596.1642121365599,"trial":57,"RT":562,"MT":201,"sideResp":2,"stimulus":"img/250/equaldotsize/R/10_Ratio_250_L_4_R_16.png","xmouse":[815,815,815,815,815,814,814,813,813,813,813,813,813,813,813,813,813,813,813,813,813,813,813,813,813,813,816,827,841,862,913,940,955,974,992,1024,1042,1061,1075],"ymouse":[497,497,497,497,497,497,497,497,497,497,497,497,497,497,497,497,497,497,497,497,497,497,497,497,497,497,490,472,446,409,319,271,245,217,194,150,130,112,98],"timestamp_mouse":[9,37,42,64,82,102,122,142,163,182,204,223,243,263,283,302,323,343,362,382,403,423,442,464,483,502,522,543,562,583,604,623,642,663,682,703,722,742,763],"xSR":741.5,"ySR":469.95,"xT1":424.9,"yT1":0,"xT2":1058.1,"yT2":0,"toosoon":0,"cond_shown":"equaldotsize","ratio_trial":250,"smaller_num":"4","larger_num":"16","correct_side":2,"subjID":"nicolemarianacaballeromurillo32","gender":"1","age":"","school":"6"},{"start_time":1551794975847,"click_time":1551794976773,"finger_time":1551794976412,"fix_duration":312.75902179805746,"trial":58,"RT":565,"MT":361,"sideResp":1,"stimulus":"img/250/randomdotsizeEA/L/3_Ratio_250_L_8_R_2.png","xmouse":[802,802,802,801,796,786,778,771,763,763,763,763,763,763,763,763,763,763,763,763,763,763,763,763,763,763,762,758,738,715,692,663,636,599,589,584,581,577,570,565,562,559,556,542,531,518,504],"ymouse":[497,497,497,497,497,497,497,497,499,499,499,499,499,499,499,499,499,499,499,499,499,499,499,499,499,499,499,495,470,438,400,359,320,268,251,238,227,213,192,181,174,166,157,136,122,108,97],"timestamp_mouse":[19,37,45,66,86,106,126,145,165,186,207,225,246,267,285,306,326,346,366,385,406,427,447,465,487,507,525,546,565,586,605,626,646,666,685,706,726,746,765,786,805,827,846,865,885,905,926],"xSR":741.5,"ySR":469.95,"xT1":424.9,"yT1":0,"xT2":1058.1,"yT2":0,"toosoon":0,"cond_shown":"randomdotsizeEA","ratio_trial":250,"smaller_num":"2","larger_num":"8","correct_side":1,"subjID":"nicolemarianacaballeromurillo32","gender":"1","age":"","school":"6"},{"start_time":1551794979221,"click_time":1551794980213,"finger_time":1551794979832,"fix_duration":1385.6101757677952,"trial":59,"RT":611,"MT":381,"sideResp":1,"stimulus":"img/750/equaldotanddens/L/14_Ratio_750_L_8_R_6.png","xmouse":[777,777,777,777,777,777,777,777,777,777,777,778,778,778,778,778,778,778,778,778,778,778,778,778,778,778,778,778,778,771,751,732,711,687,651,635,624,617,612,600,592,587,583,578,570,563,555,544,528,508],"ymouse":[484,484,484,484,484,484,484,484,484,485,485,486,486,486,486,486,486,486,486,486,486,486,486,486,486,486,486,486,486,480,459,437,406,373,324,298,274,252,233,201,176,162,151,140,120,107,96,85,77,67],"timestamp_mouse":[13,39,52,72,93,112,131,153,173,192,212,232,251,272,292,311,333,351,372,392,411,432,453,472,491,512,533,551,572,591,611,631,653,672,692,711,732,752,771,792,812,831,852,871,892,912,931,952,972,992],"xSR":741.5,"ySR":469.95,"xT1":424.9,"yT1":0,"xT2":1058.1,"yT2":0,"toosoon":0,"cond_shown":"equaldotanddens","ratio_trial":750,"smaller_num":"6","larger_num":"8","correct_side":1,"subjID":"nicolemarianacaballeromurillo32","gender":"1","age":"","school":"6"},{"start_time":1551794981483,"click_time":1551794982393,"finger_time":1551794982072,"fix_duration":630.5116469780875,"trial":60,"RT":589,"MT":321,"sideResp":2,"stimulus":"img/750/equaldotsize/L/6_Ratio_750_L_24_R_18.png","xmouse":[806,806,806,806,806,806,806,806,806,806,806,806,806,806,806,806,806,806,806,806,806,806,811,814,816,817,819,825,834,845,856,879,892,909,929,947,976,991,1006,1016,1023,1037,1045,1051,1058,1061],"ymouse":[511,511,511,511,511,511,511,511,511,511,511,511,511,511,511,511,511,511,511,511,511,511,506,504,503,502,499,491,477,461,447,410,381,343,304,275,224,198,163,142,122,85,72,62,54,51],"timestamp_mouse":[10,33,50,69,89,109,129,150,170,190,210,229,249,269,290,309,329,350,370,389,409,429,449,469,489,510,529,550,569,589,609,629,649,669,689,709,729,750,769,789,809,829,848,868,889,910],"xSR":741.5,"ySR":469.95,"xT1":424.9,"yT1":0,"xT2":1058.1,"yT2":0,"toosoon":0,"cond_shown":"equaldotsize","ratio_trial":750,"smaller_num":"18","larger_num":"24","correct_side":1,"subjID":"nicolemarianacaballeromurillo32","gender":"1","age":"","school":"6"},{"start_time":1551794983544,"click_time":1551794985052,"finger_time":1551794984152,"fix_duration":250,"trial":61,"RT":608,"MT":900,"sideResp":2,"stimulus":"img/900/equaldotanddens/L/1_Ratio_900_L_10_R_9.png","xmouse":[770,770,770,770,770,770,770,770,770,770,770,770,770,770,770,770,770,770,770,770,770,770,770,770,770,770,772,773,782,788,795,801,805,820,829,839,849,854,864,873,885,904,943,1049,1126,1183,1237,1284,1320,1320,1320,1320,1320,1320,1320,1320,1320,1320,1320,1144,1065,1004,977,971,971,971,971,971,971,971,971,971,977,1020,1050,1084],"ymouse":[506,506,506,506,506,506,506,506,506,506,506,506,506,506,506,506,506,506,506,506,506,506,506,506,504,500,496,490,477,470,465,462,461,455,452,450,446,444,438,435,429,420,407,349,294,242,173,95,19,19,19,19,19,19,19,19,19,19,19,114,155,179,185,186,186,186,186,186,186,186,184,178,165,120,99,74],"timestamp_mouse":[10,37,48,68,89,109,128,149,168,188,208,229,249,268,288,309,327,349,368,388,409,428,448,468,488,508,528,548,568,588,608,628,648,669,689,708,728,748,768,787,808,828,847,868,887,908,928,948,969,989,1008,1027,1048,1069,1089,1109,1128,1148,1169,1189,1208,1228,1249,1269,1289,1309,1328,1348,1368,1389,1408,1428,1449,1468,1488,1508],"xSR":741.5,"ySR":469.95,"xT1":424.9,"yT1":0,"xT2":1058.1,"yT2":0,"toosoon":0,"cond_shown":"equaldotanddens","ratio_trial":900,"smaller_num":"9","larger_num":"10","correct_side":1,"subjID":"nicolemarianacaballeromurillo32","gender":"1","age":"","school":"6"},{"start_time":1551794987733,"click_time":1551794988713,"finger_time":1551794988112,"fix_duration":1480.9934280491418,"trial":62,"RT":379,"MT":601,"sideResp":2,"stimulus":"