[{"start_time":1551794015409,"click_time":1551794023089,"finger_time":1551794018348,"fix_duration":1355.5495943727858,"trial":0,"RT":2939,"MT":4741,"sideResp":1,"stimulus":[],"xmouse":[807,807,807,807,807,807,807,807,807,807,807,807,807,807,807,807,807,807,807,807,807,807,807,807,807,807,807,807,807,807,807,807,807,807,807,807,807,807,807,807,807,807,807,807,807,807,807,807,807,807,807,807,807,807,807,807,807,807,807,807,807,807,807,807,807,807,807,807,807,807,807,807,807,807,807,807,807,807,807,807,807,807,807,807,807,807,807,807,807,807,807,807,807,807,807,807,807,807,807,807,807,807,807,807,807,807,807,807,807,807,807,807,807,807,807,807,807,807,807,807,807,807,807,807,807,807,807,807,807,807,807,807,807,807,807,807,807,807,807,807,807,807,807,807,807,809,815,845,852,861,871,880,892,899,908,916,921,925,925,925,926,926,926,927,930,934,937,942,944,945,945,945,945,944,944,944,944,944,943,938,929,926,921,917,915,915,914,912,910,908,904,899,890,888,887,887,887,887,887,880,866,846,815,803,793,785,781,779,779,779,779,779,779,779,779,779,779,779,779,779,779,779,779,779,779,779,779,779,779,779,779,779,779,779,779,779,779,779,779,779,779,779,779,779,779,779,779,779,779,779,779,779,779,779,779,779,779,779,779,779,779,779,779,779,779,779,779,779,779,779,779,779,779,779,779,779,779,779,779,779,779,779,779,779,779,779,778,778,782,786,790,792,794,796,796,796,797,806,809,814,815,815,823,827,827,828,828,827,827,827,827,827,827,826,824,823,822,819,819,818,819,818,817,817,817,818,818,818,818,818,818,818,819,822,824,827,827,827,827,820,815,811,810,810,810,810,810,810,810,810,810,810,810,810,807,798,791,780,775,773,772,772,772,772,772,772,772,772,772,772,772,772,772,766,760,756,755,754,752,752,743,724,591,548,522],"ymouse":[534,534,534,534,534,534,534,534,534,534,534,534,534,534,534,534,534,534,534,534,534,534,534,534,534,534,534,534,534,534,534,534,534,534,534,534,534,534,534,534,534,534,534,534,534,534,534,534,534,534,534,534,534,534,534,534,534,534,534,534,534,534,534,534,534,534,534,534,534,534,534,534,534,534,534,534,534,534,534,534,534,534,534,534,534,534,534,534,534,534,534,534,534,534,534,534,534,534,534,534,534,534,534,534,534,534,534,534,534,534,534,534,534,534,534,534,534,534,534,534,534,534,534,534,534,534,534,534,534,534,534,534,534,534,534,534,534,534,534,534,534,534,534,534,534,533,532,523,520,516,511,508,501,498,494,491,488,485,485,485,485,485,485,484,482,478,475,458,444,429,416,403,395,394,394,394,394,394,393,390,384,380,375,373,372,372,372,372,372,373,375,379,390,393,395,395,395,395,396,404,423,447,483,491,496,502,505,508,508,508,508,508,508,508,508,508,508,508,508,508,508,508,508,508,508,508,508,508,508,508,508,508,508,508,508,508,508,508,508,508,508,508,508,508,508,508,508,508,508,508,508,508,508,508,508,508,508,508,508,508,508,508,508,508,508,508,508,508,508,508,508,508,508,508,508,508,508,508,508,508,508,508,508,508,508,508,508,508,508,508,508,508,508,508,508,508,508,508,507,507,507,506,504,503,503,503,503,505,505,505,505,505,505,506,507,507,507,508,508,510,511,512,512,513,513,513,513,513,513,513,514,514,514,513,511,506,501,483,464,441,421,407,402,401,401,401,401,401,401,401,401,401,401,401,400,398,394,389,386,384,384,384,384,384,384,384,384,384,384,384,384,384,385,397,404,407,409,410,410,410,400,368,178,116,68],"timestamp_mouse":[8,20,49,60,80,100,119,140,159,181,200,220,240,259,281,299,320,341,359,381,400,419,440,459,481,501,519,540,560,581,601,619,640,661,679,699,721,739,760,781,800,819,840,859,880,900,919,939,959,979,1000,1021,1041,1059,1081,1100,1120,1140,1159,1179,1200,1219,1241,1259,1279,1300,1321,1340,1361,1380,1399,1421,1440,1460,1479,1500,1520,1540,1561,1581,1600,1621,1639,1659,1681,1699,1720,1739,1760,1779,1800,1819,1840,1860,1880,1901,1920,1940,1960,1979,2001,2019,2039,2061,2080,2100,2119,2139,2160,2180,2200,2220,2240,2259,2281,2299,2319,2340,2360,2380,2399,2420,2441,2460,2480,2500,2520,2540,2560,2581,2601,2621,2639,2660,2680,2699,2720,2741,2760,2779,2800,2821,2840,2859,2881,2900,2919,2939,2959,2979,2999,3020,3040,3059,3079,3099,3120,3140,3159,3179,3200,3220,3239,3260,3280,3299,3320,3339,3361,3381,3400,3421,3439,3460,3480,3500,3521,3539,3559,3579,3599,3620,3639,3660,3681,3700,3720,3739,3761,3781,3800,3820,3840,3859,3879,3899,3920,3939,3960,3980,3999,4019,4039,4060,4079,4101,4120,4140,4160,4179,4199,4219,4240,4261,4280,4300,4320,4340,4361,4379,4401,4419,4440,4460,4480,4499,4520,4539,4559,4579,4600,4620,4639,4660,4679,4699,4719,4740,4759,4781,4801,4820,4839,4860,4879,4899,4919,4940,4959,4980,4999,5019,5040,5061,5081,5100,5119,5140,5159,5180,5199,5220,5240,5260,5281,5301,5319,5339,5361,5380,5399,5419,5440,5461,5480,5500,5520,5540,5559,5580,5599,5619,5639,5659,5680,5700,5720,5739,5759,5780,5799,5819,5839,5859,5879,5899,5920,5940,5959,5980,5999,6019,6039,6060,6079,6101,6119,6141,6160,6179,6199,6220,6240,6259,6279,6300,6319,6340,6360,6379,6400,6420,6440,6460,6479,6499,6519,6539,6560,6581,6600,6620,6640,6660,6680,6700,6719,6739,6760,6779,6799,6820,6839,6860,6879,6899,6920,6940,6960,6980,6999,7020,7040,7060,7081,7099,7119,7139,7161,7180,7200,7220,7240,7260,7281,7299,7319,7339,7361,7381,7399,7421,7439,7459,7480,7499,7519,7539,7559,7579,7600,7620,7639,7659,7679],"xSR":741.5,"ySR":469.95,"xT1":424.9,"yT1":0,"xT2":1058.1,"yT2":0,"toosoon":0,"cond_shown":"Incongruent","ratio_trial":100,"L_num":6,"L_den":10,"R_num":13,"R_den":26,"correct_side":1,"subjID":"nicolemarianacaballeromurillo32","gender":"1","age":"","school":"6","test":{"fix_dur":[250,1500],"timestim":1000,"targets_dim":[100,100],"targets_relative_coord":[0.3,0.7],"size_stim":[880,420],"start_dim":[100,100],"size_start":[300,300],"size_fix":60,"samplingrate":20,"img_types":["Congruent","Incongruent"],"ratios":[100,200,300],"rep_conds":19,"nTrials":120,"trials_to_rest":500,"Trials_order":[79,23,89,50,104,45,64,10,31,61,75,48,98,84,107,86,93,40,0,78,8,47,28,5,116,96,100,42,56,34,25,18,102,115,117,85,2,54,52,112,70,44,16,51,29,76,11,62,4,26,101,9,113,21,30,91,35,43,32,105,72,95,55,111,12,46,22,65,110,82,24,3,66,27,38,71,63,41,97,103,15,14,87,77,60,92,17,109,99,39,58,67,53,49,36,13,57,73,108,83,6,7,69,80,114,106,68,19,94,81,37,59,74,90,33,118,88,20,1,119],"cond_shown":["Incongruent","Incongruent","Incongruent","Congruent","Congruent","Incongruent","Congruent","Congruent","Incongruent","Incongruent","Incongruent","Congruent","Congruent","Congruent","Incongruent","Congruent","Incongruent","Congruent","Congruent","Congruent","Congruent","Incongruent","Congruent","Incongruent","Congruent","Congruent","Congruent","Congruent","Congruent","Congruent","Incongruent","Congruent","Congruent","Incongruent","Incongruent","Incongruent","Congruent","Congruent","Congruent","Congruent","Congruent","Congruent","Congruent","Incongruent","Incongruent","Congruent","Incongruent","Congruent","Congruent","Congruent","Incongruent","Incongruent","Incongruent","Incongruent","Congruent","Incongruent","Incongruent","Incongruent","Congruent","Incongruent","Congruent","Incongruent","Incongruent","Incongruent","Congruent","Congruent","Congruent","Incongruent","Congruent","Congruent","Congruent","Incongruent","Congruent","Incongruent","Congruent","Incongruent","Incongruent","Incongruent","Incongruent","Incongruent","Incongruent","Congruent","Incongruent","Incongruent","Congruent","Congruent","Incongruent","Incongruent","Incongruent","Incongruent","Congruent","Incongruent","Incongruent","Incongruent","Congruent","Incongruent","Incongruent","Incongruent","Congruent","Incongruent","Congruent","Incongruent","Incongruent","Congruent","Congruent","Congruent","Congruent","Incongruent","Congruent","Incongruent","Incongruent","Incongruent","Congruent","Congruent","Incongruent","Congruent","Congruent","Congruent","Incongruent","Incongruent"],"ratio_trial":[100,300,300,200,200,200,300,300,100,100,200,100,200,100,300,200,200,300,100,100,200,300,300,300,200,100,300,100,200,300,100,100,100,100,200,100,200,100,300,300,300,200,300,200,300,300,300,200,300,200,300,200,300,200,100,100,300,100,200,200,100,300,100,200,100,300,300,300,200,300,100,200,100,200,200,300,200,300,100,100,200,200,200,300,100,200,300,100,200,200,300,100,300,100,100,100,200,100,100,300,100,100,200,200,100,300,200,100,300,200,100,300,200,100,200,300,300,200,100,300],"left_num":[6,1,4,7,9,7,8,20,10,12,1,4,7,8,4,1,4,18,1,3,14,1,2,8,6,2,18,8,14,1,3,9,4,6,1,10,1,11,1,20,5,3,18,4,4,1,13,8,2,3,4,6,4,1,2,6,13,9,5,4,1,4,1,7,8,18,7,8,5,24,11,7,10,7,9,7,4,1,3,2,9,12,3,1,6,3,4,6,3,3,11,13,8,12,6,12,7,2,1,7,7,9,14,9,2,20,3,12,5,4,9,4,4,7,4,1,4,1,12,1],"right_num":[13,2,2,2,13,8,1,5,9,2,2,6,2,2,2,21,1,9,3,2,6,2,10,9,7,11,9,2,6,11,11,8,15,3,3,8,21,4,19,5,6,9,9,6,2,6,12,7,10,14,6,3,2,2,6,11,12,6,14,1,3,2,8,4,2,9,20,9,14,8,4,12,3,6,4,8,1,2,7,6,8,6,11,2,5,7,8,3,1,1,4,6,9,2,15,2,4,8,3,8,9,14,6,13,6,13,7,2,7,6,20,2,3,9,1,8,13,21,2,2],"left_den":[10,2,20,21,30,10,16,25,25,30,3,8,21,16,20,2,30,20,2,6,28,2,20,10,12,5,20,16,28,5,5,15,10,12,2,25,2,22,3,25,25,12,20,5,20,5,26,15,20,6,5,20,20,3,5,10,26,18,10,30,2,20,2,15,16,20,14,10,10,30,22,10,25,15,20,10,30,2,9,4,15,15,4,2,20,10,5,12,10,10,22,26,10,30,12,30,15,4,2,10,14,15,30,30,5,25,10,30,25,5,10,20,8,14,30,30,20,2,30,2],"right_den":[26,10,4,15,26,16,5,10,18,4,15,10,15,5,4,30,3,15,5,5,20,10,25,18,10,22,15,5,20,22,22,16,30,5,10,16,30,10,30,10,12,20,15,10,4,12,15,21,25,20,12,6,4,15,12,22,15,10,20,3,5,4,20,6,5,15,25,18,20,16,10,24,10,9,16,20,3,10,30,15,10,10,20,10,25,14,16,5,2,2,20,10,18,4,25,4,6,20,5,20,15,28,9,26,12,26,14,4,14,10,25,4,10,15,3,24,26,30,4,10],"correct_side":[1,1,2,1,2,1,1,1,2,2,1,2,1,1,2,2,2,1,2,1,1,1,2,1,2,2,1,1,1,2,1,1,2,2,1,2,2,1,2,1,2,2,1,1,2,2,2,1,2,2,1,2,2,1,2,1,2,2,2,2,2,2,1,2,1,1,2,1,2,1,1,1,1,2,1,1,2,1,1,1,2,1,1,1,1,2,1,2,2,2,1,2,1,2,2,2,2,1,2,1,2,1,2,2,2,1,2,2,2,1,1,2,1,2,2,2,2,2,2,1],"img_shown":["img2/100/Incongruent/L/I_Dist_100_LN_6_LD_10_RN_13_RD_26_0.png","img2/300/Incongruent/L/I_Dist_300_LN_1_LD_2_RN_2_RD_10_0.png","img2/300/Incongruent/R/I_Dist_300_LN_4_LD_20_RN_2_RD_4_1.png","img2/200/Congruent/L/C_Dist_200_LN_7_LD_21_RN_2_RD_15_0.png","img2/200/Congruent/R/C_Dist_200_LN_9_LD_30_RN_13_RD_26_1.png","img2/200/Incongruent/L/I_Dist_200_LN_7_LD_10_RN_8_RD_16_0.png","img2/300/Congruent/L/C_Dist_300_LN_8_LD_16_RN_1_RD_5_0.png","img2/300/Congruent/L/C_Dist_300_LN_20_LD_25_RN_5_RD_10_0.png","img2/100/Incongruent/R/I_Dist_100_LN_10_LD_25_RN_9_RD_18_1.png","img2/100/Incongruent/R/I_Dist_100_LN_12_LD_30_RN_2_RD_4_1.png","img2/200/Incongruent/L/I_Dist_200_LN_1_LD_3_RN_2_RD_15_0.png","img2/100/Congruent/R/C_Dist_100_LN_4_LD_8_RN_6_RD_10_1.png","img2/200/Congruent/L/C_Dist_200_LN_7_LD_21_RN_2_RD_15_0.png","img2/100/Congruent/L/C_Dist_100_LN_8_LD_16_RN_2_RD_5_0.png","img2/300/Incongruent/R/I_Dist_300_LN_4_LD_20_RN_2_RD_4_1.png","img2/200/Congruent/R/C_Dist_200_LN_1_LD_2_RN_21_RD_30_1.png","img2/200/Incongruent/R/I_Dist_200_LN_4_LD_30_RN_1_RD_3_1.png","img2/300/Congruent/L/C_Dist_300_LN_18_LD_20_RN_9_RD_15_0.png","img2/100/Congruent/R/C_Dist_100_LN_1_LD_2_RN_3_RD_5_1.png","img2/100/Congruent/L/C_Dist_100_LN_3_LD_6_RN_2_RD_5_0.png","img2/200/Congruent/L/C_Dist_200_LN_14_LD_28_RN_6_RD_20_0.png","img2/300/Incongruent/L/I_Dist_300_LN_1_LD_2_RN_2_RD_10_0.png","img2/300/Congruent/R/C_Dist_300_LN_2_LD_20_RN_10_RD_25_1.png","img2/300/Incongruent/L/I_Dist_300_LN_8_LD_10_RN_9_RD_18_0.png","img2/200/Congruent/R/C_Dist_200_LN_6_LD_12_RN_7_RD_10_1.png","img2/100/Congruent/R/C_Dist_100_LN_2_LD_5_RN_11_RD_22_1.png","img2/300/Congruent/L/C_Dist_300_LN_18_LD_20_RN_9_RD_15_0.png","img2/100/Congruent/L/C_Dist_100_LN_8_LD_16_RN_2_RD_5_0.png","img2/200/Congruent/L/C_Dist_200_LN_14_LD_28_RN_6_RD_20_0.png","img2/300/Congruent/R/C_Dist_300_LN_1_LD_5_RN_11_RD_22_1.png","img2/100/Incongruent/L/I_Dist_100_LN_3_LD_5_RN_11_RD_22_0.png","img2/100/Congruent/L/C_Dist_100_LN_9_LD_15_RN_8_RD_16_0.png","img2/100/Congruent/R/C_Dist_100_LN_4_LD_10_RN_15_RD_30_1.png","img2/100/Incongruent/R/I_Dist_100_LN_6_LD_12_RN_3_RD_5_1.png","img2/200/Incongruent/L/I_Dist_200_LN_1_LD_2_RN_3_RD_10_0.png","img2/100/Incongruent/R/I_Dist_100_LN_10_LD_25_RN_8_RD_16_1.png","img2/200/Congruent/R/C_Dist_200_LN_1_LD_2_RN_21_RD_30_1.png","img2/100/Congruent/L/C_Dist_100_LN_11_LD_22_RN_4_RD_10_0.png","img2/300/Congruent/R/C_Dist_300_LN_1_LD_3_RN_19_RD_30_1.png","img2/300/Congruent/L/C_Dist_300_LN_20_LD_25_RN_5_RD_10_0.png","img2/300/Congruent/R/C_Dist_300_LN_5_LD_25_RN_6_RD_12_1.png","img2/200/Congruent/R/C_Dist_200_LN_3_LD_12_RN_9_RD_20_1.png","img2/300/Congruent/L/C_Dist_300_LN_18_LD_20_RN_9_RD_15_0.png","img2/200/Incongruent/L/I_Dist_200_LN_4_LD_5_RN_6_RD_10_0.png","img2/300/Incongruent/R/I_Dist_300_LN_4_LD_20_RN_2_RD_4_1.png","img2/300/Congruent/R/C_Dist_300_LN_1_LD_5_RN_6_RD_12_1.png","img2/300/Incongruent/R/I_Dist_300_LN_13_LD_26_RN_12_RD_15_1.png","img2/200/Congruent/L/C_Dist_200_LN_8_LD_15_RN_7_RD_21_0.png","img2/300/Congruent/R/C_Dist_300_LN_2_LD_20_RN_10_RD_25_1.png","img2/200/Congruent/R/C_Dist_200_LN_3_LD_6_RN_14_RD_20_1.png","img2/300/Incongruent/L/I_Dist_300_LN_4_LD_5_RN_6_RD_12_0.png","img2/200/Incongruent/R/I_Dist_200_LN_6_LD_20_RN_3_RD_6_1.png","img2/300/Incongruent/R/I_Dist_300_LN_4_LD_20_RN_2_RD_4_1.png","img2/200/Incongruent/L/I_Dist_200_LN_1_LD_3_RN_2_RD_15_0.png","img2/100/Congruent/R/C_Dist_100_LN_2_LD_5_RN_6_RD_12_1.png","img2/100/Incongruent/L/I_Dist_100_LN_6_LD_10_RN_11_RD_22_0.png","img2/300/Incongruent/R/I_Dist_300_LN_13_LD_26_RN_12_RD_15_1.png","img2/100/Incongruent/R/I_Dist_100_LN_9_LD_18_RN_6_RD_10_1.png","img2/200/Congruent/R/C_Dist_200_LN_5_LD_10_RN_14_RD_20_1.png","img2/200/Incongruent/R/I_Dist_200_LN_4_LD_30_RN_1_RD_3_1.png","img2/100/Congruent/R/C_Dist_100_LN_1_LD_2_RN_3_RD_5_1.png","img2/300/Incongruent/R/I_Dist_300_LN_4_LD_20_RN_2_RD_4_1.png","img2/100/Incongruent/L/I_Dist_100_LN_1_LD_2_RN_8_RD_20_0.png","img2/200/Incongruent/R/I_Dist_200_LN_7_LD_15_RN_4_RD_6_1.png","img2/100/Congruent/L/C_Dist_100_LN_8_LD_16_RN_2_RD_5_0.png","img2/300/Congruent/L/C_Dist_300_LN_18_LD_20_RN_9_RD_15_0.png","img2/300/Congruent/R/C_Dist_300_LN_7_LD_14_RN_20_RD_25_1.png","img2/300/Incongruent/L/I_Dist_300_LN_8_LD_10_RN_9_RD_18_0.png","img2/200/Congruent/R/C_Dist_200_LN_5_LD_10_RN_14_RD_20_1.png","img2/300/Congruent/L/C_Dist_300_LN_24_LD_30_RN_8_RD_16_0.png","img2/100/Congruent/L/C_Dist_100_LN_11_LD_22_RN_4_RD_10_0.png","img2/200/Incongruent/L/I_Dist_200_LN_7_LD_10_RN_12_RD_24_0.png","img2/100/Congruent/L/C_Dist_100_LN_10_LD_25_RN_3_RD_10_0.png","img2/200/Incongruent/R/I_Dist_200_LN_7_LD_15_RN_6_RD_9_1.png","img2/200/Congruent/L/C_Dist_200_LN_9_LD_20_RN_4_RD_16_0.png","img2/300/Incongruent/L/I_Dist_300_LN_7_LD_10_RN_8_RD_20_0.png","img2/200/Incongruent/R/I_Dist_200_LN_4_LD_30_RN_1_RD_3_1.png","img2/300/Incongruent/L/I_Dist_300_LN_1_LD_2_RN_2_RD_10_0.png","img2/100/Incongruent/L/I_Dist_100_LN_3_LD_9_RN_7_RD_30_0.png","img2/100/Incongruent/L/I_Dist_100_LN_2_LD_4_RN_6_RD_15_0.png","img2/200/Incongruent/R/I_Dist_200_LN_9_LD_15_RN_8_RD_10_1.png","img2/200/Congruent/L/C_Dist_200_LN_12_LD_15_RN_6_RD_10_0.png","img2/200/Incongruent/L/I_Dist_200_LN_3_LD_4_RN_11_RD_20_0.png","img2/300/Incongruent/L/I_Dist_300_LN_1_LD_2_RN_2_RD_10_0.png","img2/100/Congruent/L/C_Dist_100_LN_6_LD_20_RN_5_RD_25_0.png","img2/200/Congruent/R/C_Dist_200_LN_3_LD_10_RN_7_RD_14_1.png","img2/300/Incongruent/L/I_Dist_300_LN_4_LD_5_RN_8_RD_16_0.png","img2/100/Incongruent/R/I_Dist_100_LN_6_LD_12_RN_3_RD_5_1.png","img2/200/Incongruent/R/I_Dist_200_LN_3_LD_10_RN_1_RD_2_1.png","img2/200/Incongruent/R/I_Dist_200_LN_3_LD_10_RN_1_RD_2_1.png","img2/300/Congruent/L/C_Dist_300_LN_11_LD_22_RN_4_RD_20_0.png","img2/100/Incongruent/R/I_Dist_100_LN_13_LD_26_RN_6_RD_10_1.png","img2/300/Incongruent/L/I_Dist_300_LN_8_LD_10_RN_9_RD_18_0.png","img2/100/Incongruent/R/I_Dist_100_LN_12_LD_30_RN_2_RD_4_1.png","img2/100/Congruent/R/C_Dist_100_LN_6_LD_12_RN_15_RD_25_1.png","img2/100/Incongruent/R/I_Dist_100_LN_12_LD_30_RN_2_RD_4_1.png","img2/200/Incongruent/R/I_Dist_200_LN_7_LD_15_RN_4_RD_6_1.png","img2/100/Incongruent/L/I_Dist_100_LN_2_LD_4_RN_8_RD_20_0.png","img2/100/Congruent/R/C_Dist_100_LN_1_LD_2_RN_3_RD_5_1.png","img2/300/Incongruent/L/I_Dist_300_LN_7_LD_10_RN_8_RD_20_0.png","img2/100/Congruent/R/C_Dist_100_LN_7_LD_14_RN_9_RD_15_1.png","img2/100/Incongruent/L/I_Dist_100_LN_9_LD_15_RN_14_RD_28_0.png","img2/200/Incongruent/R/I_Dist_200_LN_14_LD_30_RN_6_RD_9_1.png","img2/200/Congruent/R/C_Dist_200_LN_9_LD_30_RN_13_RD_26_1.png","img2/100/Congruent/R/C_Dist_100_LN_2_LD_5_RN_6_RD_12_1.png","img2/300/Congruent/L/C_Dist_300_LN_20_LD_25_RN_13_RD_26_0.png","img2/200/Congruent/R/C_Dist_200_LN_3_LD_10_RN_7_RD_14_1.png","img2/100/Incongruent/R/I_Dist_100_LN_12_LD_30_RN_2_RD_4_1.png","img2/300/Congruent/R/C_Dist_300_LN_5_LD_25_RN_7_RD_14_1.png","img2/200/Incongruent/L/I_Dist_200_LN_4_LD_5_RN_6_RD_10_0.png","img2/100/Incongruent/L/I_Dist_100_LN_9_LD_10_RN_20_RD_25_0.png","img2/300/Incongruent/R/I_Dist_300_LN_4_LD_20_RN_2_RD_4_1.png","img2/200/Congruent/L/C_Dist_200_LN_4_LD_8_RN_3_RD_10_0.png","img2/100/Congruent/R/C_Dist_100_LN_7_LD_14_RN_9_RD_15_1.png","img2/200/Incongruent/R/I_Dist_200_LN_4_LD_30_RN_1_RD_3_1.png","img2/300/Congruent/R/C_Dist_300_LN_1_LD_30_RN_8_RD_24_1.png","img2/300/Congruent/R/C_Dist_300_LN_4_LD_20_RN_13_RD_26_1.png","img2/200/Congruent/R/C_Dist_200_LN_1_LD_2_RN_21_RD_30_1.png","img2/100/Incongruent/R/I_Dist_100_LN_12_LD_30_RN_2_RD_4_1.png","img2/300/Incongruent/L/I_Dist_300_LN_1_LD_2_RN_2_RD_10_0.png"],"dist100_C":[["C_Dist_100_LN_10_LD_25_RN_3_RD_10_0.png","C_Dist_100_LN_11_LD_22_RN_4_RD_10_0.png","C_Dist_100_LN_11_LD_22_RN_6_RD_15_0.png","C_Dist_100_LN_15_LD_25_RN_13_RD_26_0.png","C_Dist_100_LN_3_LD_6_RN_2_RD_5_0.png","C_Dist_100_LN_6_LD_20_RN_5_RD_25_0.png","C_Dist_100_LN_8_LD_16_RN_2_RD_5_0.png","C_Dist_100_LN_9_LD_15_RN_8_RD_16_0.png"],["C_Dist_100_LN_1_LD_2_RN_18_RD_30_1.png","C_Dist_100_LN_1_LD_2_RN_3_RD_5_1.png","C_Dist_100_LN_12_LD_30_RN_13_RD_26_1.png","C_Dist_100_LN_2_LD_5_RN_11_RD_22_1.png","C_Dist_100_LN_2_LD_5_RN_6_RD_12_1.png","C_Dist_100_LN_3_LD_20_RN_4_RD_16_1.png","C_Dist_100_LN_4_LD_10_RN_15_RD_30_1.png","C_Dist_100_LN_4_LD_8_RN_6_RD_10_1.png","C_Dist_100_LN_6_LD_12_RN_15_RD_25_1.png","C_Dist_100_LN_7_LD_14_RN_15_RD_25_1.png","C_Dist_100_LN_7_LD_14_RN_9_RD_15_1.png"]],"dist100_I":[["I_Dist_100_LN_1_LD_2_RN_8_RD_20_0.png","I_Dist_100_LN_2_LD_4_RN_6_RD_15_0.png","I_Dist_100_LN_2_LD_4_RN_8_RD_20_0.png","I_Dist_100_LN_3_LD_5_RN_11_RD_22_0.png","I_Dist_100_LN_3_LD_5_RN_8_RD_16_0.png","I_Dist_100_LN_3_LD_6_RN_4_RD_10_0.png","I_Dist_100_LN_3_LD_9_RN_7_RD_30_0.png","I_Dist_100_LN_4_LD_8_RN_8_RD_20_0.png","I_Dist_100_LN_6_LD_10_RN_11_RD_22_0.png","I_Dist_100_LN_6_LD_10_RN_13_RD_26_0.png","I_Dist_100_LN_6_LD_10_RN_7_RD_14_0.png","I_Dist_100_LN_9_LD_10_RN_20_RD_25_0.png","I_Dist_100_LN_9_LD_15_RN_13_RD_26_0.png","I_Dist_100_LN_9_LD_15_RN_14_RD_28_0.png"],["I_Dist_100_LN_10_LD_25_RN_8_RD_16_1.png","I_Dist_100_LN_10_LD_25_RN_9_RD_18_1.png","I_Dist_100_LN_11_LD_22_RN_9_RD_15_1.png","I_Dist_100_LN_12_LD_24_RN_9_RD_15_1.png","I_Dist_100_LN_12_LD_30_RN_2_RD_4_1.png","I_Dist_100_LN_13_LD_26_RN_12_RD_20_1.png","I_Dist_100_LN_13_LD_26_RN_6_RD_10_1.png","I_Dist_100_LN_17_LD_30_RN_10_RD_15_1.png","I_Dist_100_LN_6_LD_12_RN_3_RD_5_1.png","I_Dist_100_LN_8_LD_16_RN_6_RD_10_1.png","I_Dist_100_LN_8_LD_20_RN_1_RD_2_1.png","I_Dist_100_LN_9_LD_18_RN_6_RD_10_1.png"]],"dist100_S":[["E_Dist_100_LN_2_LD_12_RN_2_RD_30_0.png","E_Dist_100_LN_6_LD_10_RN_6_RD_12_0.png"],["E_Dist_100_LN_6_LD_12_RN_6_RD_10_1.png"]],"dist200_C":[["C_Dist_200_LN_11_LD_22_RN_3_RD_10_0.png","C_Dist_200_LN_12_LD_15_RN_6_RD_10_0.png","C_Dist_200_LN_12_LD_20_RN_6_RD_15_0.png","C_Dist_200_LN_14_LD_28_RN_6_RD_20_0.png","C_Dist_200_LN_15_LD_25_RN_4_RD_10_0.png","C_Dist_200_LN_16_LD_20_RN_12_RD_20_0.png","C_Dist_200_LN_16_LD_30_RN_9_RD_27_0.png","C_Dist_200_LN_20_LD_25_RN_9_RD_15_0.png","C_Dist_200_LN_21_LD_30_RN_2_RD_4_0.png","C_Dist_200_LN_4_LD_10_RN_3_RD_15_0.png","C_Dist_200_LN_4_LD_8_RN_3_RD_10_0.png","C_Dist_200_LN_6_LD_15_RN_3_RD_15_0.png","C_Dist_200_LN_7_LD_21_RN_2_RD_15_0.png","C_Dist_200_LN_8_LD_15_RN_2_RD_6_0.png","C_Dist_200_LN_8_LD_15_RN_3_RD_9_0.png","C_Dist_200_LN_8_LD_15_RN_7_RD_21_0.png","C_Dist_200_LN_9_LD_20_RN_4_RD_16_0.png"],["C_Dist_200_LN_1_LD_2_RN_21_RD_30_1.png","C_Dist_200_LN_13_LD_26_RN_14_RD_20_1.png","C_Dist_200_LN_3_LD_10_RN_11_RD_22_1.png","C_Dist_200_LN_3_LD_10_RN_14_RD_28_1.png","C_Dist_200_LN_3_LD_10_RN_7_RD_14_1.png","C_Dist_200_LN_3_LD_12_RN_9_RD_20_1.png","C_Dist_200_LN_3_LD_6_RN_14_RD_20_1.png","C_Dist_200_LN_5_LD_10_RN_14_RD_20_1.png","C_Dist_200_LN_6_LD_12_RN_7_RD_10_1.png","C_Dist_200_LN_6_LD_20_RN_11_RD_22_1.png","C_Dist_200_LN_7_LD_15_RN_18_RD_27_1.png","C_Dist_200_LN_9_LD_30_RN_13_RD_26_1.png"]],"dist200_I":[["I_Dist_200_LN_1_LD_2_RN_3_RD_10_0.png","I_Dist_200_LN_1_LD_3_RN_2_RD_15_0.png","I_Dist_200_LN_3_LD_4_RN_11_RD_20_0.png","I_Dist_200_LN_4_LD_5_RN_6_RD_10_0.png","I_Dist_200_LN_4_LD_6_RN_14_RD_30_0.png","I_Dist_200_LN_7_LD_10_RN_12_RD_24_0.png","I_Dist_200_LN_7_LD_10_RN_14_RD_28_0.png","I_Dist_200_LN_7_LD_10_RN_8_RD_16_0.png"],["I_Dist_200_LN_11_LD_20_RN_3_RD_4_1.png","I_Dist_200_LN_14_LD_30_RN_12_RD_18_1.png","I_Dist_200_LN_14_LD_30_RN_6_RD_9_1.png","I_Dist_200_LN_3_LD_10_RN_1_RD_2_1.png","I_Dist_200_LN_4_LD_30_RN_1_RD_3_1.png","I_Dist_200_LN_6_LD_20_RN_3_RD_6_1.png","I_Dist_200_LN_7_LD_15_RN_4_RD_6_1.png","I_Dist_200_LN_7_LD_15_RN_6_RD_9_1.png","I_Dist_200_LN_9_LD_15_RN_8_RD_10_1.png"]],"dist200_S":[["E_Dist_200_LN_3_LD_6_RN_3_RD_10_0.png"],["E_Dist_200_LN_3_LD_10_RN_3_RD_6_1.png"]],"dist300_C":[["C_Dist_300_LN_11_LD_22_RN_1_RD_5_0.png","C_Dist_300_LN_11_LD_22_RN_2_RD_10_0.png","C_Dist_300_LN_11_LD_22_RN_4_RD_20_0.png","C_Dist_300_LN_12_LD_24_RN_2_RD_10_0.png","C_Dist_300_LN_18_LD_20_RN_9_RD_15_0.png","C_Dist_300_LN_20_LD_25_RN_13_RD_26_0.png","C_Dist_300_LN_20_LD_25_RN_14_RD_28_0.png","C_Dist_300_LN_20_LD_25_RN_5_RD_10_0.png","C_Dist_300_LN_20_LD_25_RN_8_RD_16_0.png","C_Dist_300_LN_20_LD_25_RN_9_RD_18_0.png","C_Dist_300_LN_24_LD_30_RN_2_RD_4_0.png","C_Dist_300_LN_24_LD_30_RN_8_RD_16_0.png","C_Dist_300_LN_3_LD_6_RN_2_RD_10_0.png","C_Dist_300_LN_4_LD_10_RN_1_RD_10_0.png","C_Dist_300_LN_4_LD_5_RN_2_RD_4_0.png","C_Dist_300_LN_8_LD_16_RN_1_RD_5_0.png","C_Dist_300_LN_9_LD_10_RN_3_RD_5_0.png"],["C_Dist_300_LN_1_LD_20_RN_7_RD_20_1.png","C_Dist_300_LN_1_LD_3_RN_19_RD_30_1.png","C_Dist_300_LN_1_LD_30_RN_8_RD_24_1.png","C_Dist_300_LN_1_LD_5_RN_11_RD_22_1.png","C_Dist_300_LN_1_LD_5_RN_3_RD_6_1.png","C_Dist_300_LN_1_LD_5_RN_6_RD_12_1.png","C_Dist_300_LN_2_LD_10_RN_12_RD_24_1.png","C_Dist_300_LN_2_LD_20_RN_10_RD_25_1.png","C_Dist_300_LN_3_LD_12_RN_11_RD_20_1.png","C_Dist_300_LN_3_LD_6_RN_4_RD_5_1.png","C_Dist_300_LN_4_LD_20_RN_13_RD_26_1.png","C_Dist_300_LN_5_LD_25_RN_6_RD_12_1.png","C_Dist_300_LN_5_LD_25_RN_7_RD_14_1.png","C_Dist_300_LN_7_LD_14_RN_20_RD_25_1.png","C_Dist_300_LN_8_LD_15_RN_10_RD_12_1.png"]],"dist300_I":[["I_Dist_300_LN_1_LD_2_RN_2_RD_10_0.png","I_Dist_300_LN_1_LD_2_RN_3_RD_15_0.png","I_Dist_300_LN_2_LD_4_RN_6_RD_30_0.png","I_Dist_300_LN_3_LD_6_RN_4_RD_20_0.png","I_Dist_300_LN_4_LD_5_RN_6_RD_12_0.png","I_Dist_300_LN_4_LD_5_RN_8_RD_16_0.png","I_Dist_300_LN_7_LD_10_RN_8_RD_20_0.png","I_Dist_300_LN_8_LD_10_RN_14_RD_28_0.png","I_Dist_300_LN_8_LD_10_RN_9_RD_18_0.png"],["I_Dist_300_LN_13_LD_26_RN_12_RD_15_1.png","I_Dist_300_LN_4_LD_20_RN_2_RD_4_1.png"]],"dist300_S":[["E_Dist_300_LN_9_LD_12_RN_9_RD_20_0.png"],["E_Dist_300_LN_18_LD_30_RN_18_RD_20_1.png","E_Dist_300_LN_3_LD_10_RN_3_RD_5_1.png","E_Dist_300_LN_9_LD_20_RN_9_RD_12_1.png"]],"dist500_C":[["C_Dist_500_LN_10_LD_13_RN_7_RD_26_0.png","C_Dist_500_LN_10_LD_15_RN_4_RD_24_0.png","C_Dist_500_LN_12_LD_16_RN_3_RD_12_0.png","C_Dist_500_LN_12_LD_18_RN_4_RD_24_0.png","C_Dist_500_LN_15_LD_18_RN_5_RD_15_0.png","C_Dist_500_LN_15_LD_20_RN_1_RD_4_0.png","C_Dist_500_LN_18_LD_27_RN_1_RD_6_0.png","C_Dist_500_LN_20_LD_24_RN_1_RD_3_0.png","C_Dist_500_LN_20_LD_24_RN_3_RD_9_0.png","C_Dist_500_LN_20_LD_24_RN_7_RD_21_0.png","C_Dist_500_LN_20_LD_28_RN_3_RD_14_0.png","C_Dist_500_LN_21_LD_28_RN_6_RD_24_0.png","C_Dist_500_LN_22_LD_28_RN_2_RD_7_0.png","C_Dist_500_LN_25_LD_30_RN_9_RD_27_0.png","C_Dist_500_LN_4_LD_6_RN_1_RD_6_0.png","C_Dist_500_LN_5_LD_6_RN_2_RD_6_0.png","C_Dist_500_LN_6_LD_9_RN_1_RD_6_0.png","C_Dist_500_LN_7_LD_10_RN_1_RD_5_0.png","C_Dist_500_LN_8_LD_12_RN_1_RD_6_0.png","C_Dist_500_LN_8_LD_12_RN_4_RD_24_0.png"],["C_Dist_500_LN_1_LD_4_RN_12_RD_16_1.png","C_Dist_500_LN_1_LD_4_RN_9_RD_12_1.png","C_Dist_500_LN_1_LD_9_RN_11_RD_18_1.png","C_Dist_500_LN_10_LD_24_RN_22_RD_24_1.png","C_Dist_500_LN_2_LD_12_RN_10_RD_15_1.png","C_Dist_500_LN_2_LD_12_RN_12_RD_18_1.png","C_Dist_500_LN_2_LD_12_RN_4_RD_6_1.png","C_Dist_500_LN_2_LD_24_RN_7_RD_12_1.png","C_Dist_500_LN_2_LD_5_RN_18_RD_20_1.png","C_Dist_500_LN_2_LD_5_RN_9_RD_10_1.png","C_Dist_500_LN_2_LD_8_RN_12_RD_16_1.png","C_Dist_500_LN_2_LD_8_RN_21_RD_28_1.png","C_Dist_500_LN_3_LD_10_RN_4_RD_5_1.png","C_Dist_500_LN_3_LD_12_RN_15_RD_20_1.png","C_Dist_500_LN_3_LD_30_RN_6_RD_10_1.png","C_Dist_500_LN_3_LD_8_RN_14_RD_16_1.png","C_Dist_500_LN_4_LD_16_RN_15_RD_20_1.png","C_Dist_500_LN_4_LD_24_RN_12_RD_18_1.png","C_Dist_500_LN_5_LD_14_RN_6_RD_7_1.png","C_Dist_500_LN_7_LD_21_RN_20_RD_24_1.png","C_Dist_500_LN_7_LD_28_RN_12_RD_16_1.png","C_Dist_500_LN_7_LD_28_RN_9_RD_12_1.png","C_Dist_500_LN_9_LD_27_RN_20_RD_24_1.png"]],"dist500_I":[["I_Dist_500_LN_2_LD_3_RN_4_RD_24_0.png","I_Dist_500_LN_5_LD_6_RN_6_RD_18_0.png","I_Dist_500_LN_7_LD_8_RN_9_RD_24_0.png"],["I_Dist_500_LN_7_LD_21_RN_5_RD_6_1.png"]],"dist500_S":[["E_Dist_500_LN_6_LD_8_RN_6_RD_24_0.png"],["E_Dist_500_LN_2_LD_12_RN_2_RD_3_1.png","E_Dist_500_LN_6_LD_24_RN_6_RD_8_1.png"]]}},{"start_time":1551794024853,"click_time":1551794027249,"finger_time":1551794026910,"fix_duration":261.6764635811266,"trial":1,"RT":2057,"MT":339,"sideResp":2,"stimulus":[],"xmouse":[817,817,817,817,817,817,817,817,817,817,817,817,817,817,817,817,817,817,817,817,817,817,817,817,817,817,817,817,817,817,817,817,817,817,817,817,817,817,817,817,817,817,817,817,817,817,817,817,817,817,817,817,817,817,817,817,817,817,817,817,817,817,817,817,817,817,817,817,817,817,817,817,817,817,817,817,817,817,817,817,817,817,817,817,817,817,817,817,817,817,817,817,817,817,817,817,817,817,817,817,818,830,844,866,936,978,1013,1045,1066,1091,1096,1101,1105,1110,1120,1123,1127,1128,1129,1131],"ymouse":[527,527,527,527,527,527,527,527,527,527,527,527,527,527,527,527,527,527,527,527,527,527,527,527,527,527,527,527,527,527,527,527,527,527,527,527,527,527,527,527,527,527,527,527,527,527,527,527,527,527,527,527,527,527,527,527,527,527,527,527,527,527,527,527,527,527,527,527,527,527,527,527,527,527,527,527,527,527,527,527,527,527,527,527,527,527,527,527,527,527,527,527,527,527,527,527,527,527,527,527,527,515,496,472,378,327,289,256,234,193,179,166,154,139,121,116,110,107,103,96],"timestamp_mouse":[15,35,56,75,95,116,135,157,175,196,215,237,257,275,296,315,336,356,377,395,415,435,455,476,495,516,537,556,577,595,615,636,657,675,696,715,736,757,776,795,815,837,855,877,895,915,937,956,975,997,1016,1036,1055,1077,1095,1115,1137,1156,1177,1196,1215,1235,1256,1275,1295,1315,1336,1356,1375,1395,1415,1435,1457,1477,1496,1515,1536,1555,1576,1596,1617,1636,1655,1676,1696,1715,1735,1757,1775,1797,1815,1837,1855,1875,1895,1916,1935,1955,1977,1996,2016,2035,2057,2076,2095,2115,2135,2155,2176,2195,2215,2235,2255,2276,2296,2316,2336,2355,2376,2396],"xSR":741.5,"ySR":469.95,"xT1":424.9,"yT1":0,"xT2":1058.1,"yT2":0,"toosoon":0,"cond_shown":"Incongruent","ratio_trial":300,"L_num":1,"L_den":2,"R_num":2,"R_den":10,"correct_side":1,"subjID":"nicolemarianacaballeromurillo32","gender":"1","school":"6","age":""},{"start_time":1551794030321,"click_time":1551794031629,"finger_time":1551794031188,"fix_duration":250,"trial":2,"RT":867,"MT":441,"sideResp":2,"stimulus":[],"xmouse":[798,798,798,798,798,798,798,798,798,798,798,798,798,798,798,798,798,798,798,798,798,798,798,798,798,798,798,798,798,798,798,798,798,798,798,798,798,798,798,798,799,814,830,850,874,906,966,1029,1073,1116,1145,1180,1186,1189,1190,1190,1190,1190,1190,1190,1190,1190,1190,1188,1174,1157],"ymouse":[507,507,507,507,507,507,507,507,507,507,507,507,507,507,507,507,507,507,507,507,507,507,507,507,507,507,507,507,507,507,507,507,507,507,507,507,507,507,507,507,506,497,485,471,451,423,364,299,241,176,119,40,22,11,7,7,6,6,6,6,6,6,6,9,20,35],"timestamp_mouse":[10,43,47,67,89,108,128,149,167,187,209,228,247,268,289,308,327,347,367,388,409,427,448,468,488,508,527,547,567,587,607,627,647,669,688,708,728,747,768,787,808,827,847,867,887,908,928,948,967,987,1007,1027,1047,1067,1088,1108,1128,1149,1168,1187,1208,1227,1247,1269,1287,1308],"xSR":741.5,"ySR":469.95,"xT1":424.9,"yT1":0,"xT2":1058.1,"yT2":0,"toosoon":0,"cond_shown":"Incongruent","ratio_trial":300,"L_num":4,"L_den":20,"R_num":2,"R_den":4,"correct_side":2,"subjID":"nicolemarianacaballeromurillo32","gender":"1","school":"6","age":""},{"start_time":1551794033947,"click_time":1551794035470,"finger_time":1551794035248,"fix_duration":1036.9756105839815,"trial":3,"RT":1301,"MT":222,"sideResp":1,"stimulus":[],"xmouse":[784,784,784,784,784,784,784,784,784,784,784,784,784,784,784,784,784,784,784,784,784,784,784,784,784,784,784,784,784,784,784,784,784,784,784,784,784,784,784,784,784,784,784,784,784,784,784,784,784,784,784,784,784,784,784,784,784,784,784,784,784,784,784,784,778,754,688,645,602,565,542,539,537,535,534,526,523],"ymouse":[531,531,531,531,531,531,531,531,531,531,531,531,531,531,531,531,531,531,531,531,531,531,531,531,531,531,531,531,531,531,531,531,531,531,531,531,531,531,531,531,531,531,531,531,531,531,531,531,531,531,531,531,531,531,531,531,531,531,531,531,531,531,531,531,516,435,320,264,218,188,156,141,124,111,104,90,85],"timestamp_mouse":[10,31,42,61,82,103,122,141,163,181,202,223,243,261,282,302,322,341,363,382,401,422,441,461,482,502,522,541,563,581,603,621,641,662,682,701,723,741,761,783,802,822,842,861,882,903,922,941,962,982,1001,1022,1041,1062,1082,1102,1121,1142,1162,1182,1202,1222,1242,1262,1282,1301,1323,1341,1361,1381,1401,1421,1442,1462,1481,1502,1522],"xSR":741.5,"ySR":469.95,"xT1":424.9,"yT1":0,"xT2":1058.1,"yT2":0,"toosoon":0,"cond_shown":"Congruent","ratio_trial":200,"L_num":7,"L_den":21,"R_num":2,"R_den":15,"correct_side":1,"subjID":"nicolemarianacaballeromurillo32","gender":"1","school":"6","age":""},{"start_time":1551794039149,"click_time":1551794040770,"finger_time":1551794040448,"fix_duration":639.7408800386706,"trial":4,"RT":1299,"MT":322,"sideResp":2,"stimulus":[],"xmouse":[822,822,822,822,822,822,822,822,822,822,822,822,822,822,822,822,822,822,822,822,822,822,822,822,822,822,822,822,822,822,822,822,822,822,822,822,822,822,822,822,822,822,822,822,822,822,822,822,822,822,822,822,822,822,822,822,822,822,822,822,822,822,822,825,843,850,858,869,880,911,931,948,965,985,1019,1027,1034,1039,1042,1055,1069],"ymouse":[555,555,555,555,555,555,555,555,555,555,555,555,555,555,555,555,555,555,555,555,555,555,555,555,555,555,555,555,555,555,555,555,555,555,555,555,555,555,555,555,555,555,555,555,555,555,555,555,555,555,555,555,555,555,555,555,555,555,555,555,555,555,555,553,527,514,502,483,462,399,353,315,272,226,146,126,110,99,93,81,70],"timestamp_mouse":[34,39,59,80,100,119,140,159,179,200,219,240,261,279,299,320,341,360,379,401,420,440,460,479,500,520,539,560,581,600,620,641,661,680,699,720,741,761,781,800,820,840,860,880,899,920,940,960,979,999,1019,1040,1060,1080,1099,1120,1140,1159,1181,1200,1219,1241,1259,1280,1299,1320,1340,1359,1379,1400,1420,1439,1460,1479,1500,1519,1539,1560,1579,1600,1620],"xSR":741.5,"ySR":469.95,"xT1":424.9,"yT1":0,"xT2":1058.1,"yT2":0,"toosoon":0,"cond_shown":"Congruent","ratio_trial":200,"L_num":9,"L_den":30,"R_num":13,"R_den":26,"correct_side":2,"subjID":"nicolemarianacaballeromurillo32","gender":"1","school":"6","age":""},{"start_time":1551794042633,"click_time":1551794044229,"finger_time":1551794043548,"fix_duration":1002.3698207145185,"trial":5,"RT":915,"MT":681,"sideResp":1,"stimulus":[],"xmouse":[796,796,796,796,796,796,796,796,796,796,796,796,796,796,796,796,796,796,796,796,796,796,796,796,796,796,796,796,796,796,796,796,796,796,796,796,796,796,796,796,794,792,791,791,791,791,790,787,785,782,766,745,731,717,702,665,644,628,619,613,604,602,600,598,596,585,573,559,550,542,532,531,529,523,513,502,501,501,501,500],"ymouse":[537,537,537,537,537,537,537,537,537,537,537,537,537,537,537,537,537,537,537,537,537,537,537,537,537,537,537,537,537,537,537,537,537,537,537,537,537,537,537,537,525,508,501,490,481,468,462,454,448,440,415,385,366,346,326,278,254,235,223,214,198,194,190,185,179,157,141,126,118,114,110,110,110,109,106,102,102,101,100,98],"timestamp_mouse":[16,43,55,76,95,115,135,156,177,197,215,236,257,275,295,317,336,356,377,395,417,436,457,477,495,516,535,555,575,595,616,635,656,675,696,715,735,756,777,795,815,835,855,876,895,915,936,956,976,995,1016,1036,1056,1076,1095,1116,1136,1156,1176,1196,1215,1236,1255,1276,1296,1315,1336,1356,1376,1396,1416,1435,1456,1475,1495,1515,1537,1556,1575,1596],"xSR":741.5,"ySR":469.95,"xT1":424.9,"yT1":0,"xT2":1058.1,"yT2":0,"toosoon":0,"cond_shown":"Incongruent","ratio_trial":200,"L_num":7,"L_den":10,"R_num":8,"R_den":16,"correct_side":1,"subjID":"nicolemarianacaballeromurillo32","gender":"1","school":"6","age":""},{"start_time":1551794046246,"click_time":1551794047188,"finger_time":1551794046809,"fix_duration":1036.2075205607216,"trial":6,"RT":563,"MT":379,"sideResp":1,"stimulus":[],"xmouse":[807,807,807,807,807,807,807,807,807,807,807,807,807,807,807,807,807,807,807,807,807,807,807,807,807,807,807,807,800,779,686,645,609,580,565,543,536,534,534,534,534,534,534,534,534,529,526,523],"ymouse":[482,482,482,482,482,482,482,482,482,482,482,482,482,482,482,482,482,482,482,482,482,482,482,482,482,482,482,479,469,437,326,280,233,192,168,131,118,113,113,113,113,113,113,113,112,103,97,92],"timestamp_mouse":[11,39,42,63,82,104,122,142,164,182,202,223,244,262,282,303,322,344,362,382,403,423,444,463,483,503,522,544,563,583,602,623,642,662,683,702,723,742,763,782,803,823,843,863,882,903,923,942],"xSR":741.5,"ySR":469.95,"xT1":424.9,"yT1":0,"xT2":1058.1,"yT2":0,"toosoon":0,"cond_shown":"Congruent","ratio_trial":300,"L_num":8,"L_den":16,"R_num":1,"R_den":5,"correct_side":1,"subjID":"nicolemarianacaballeromurillo32","gender":"1","school":"6","age":""},{"start_time":1551794049976,"click_time":1551794050989,"finger_time":1551794050529,"fix_duration":1366.6385917239595,"trial":7,"RT":553,"MT":460,"sideResp":1,"stimulus":[],"xmouse":[793,793,793,793,793,793,793,793,793,793,793,793,793,793,793,793,793,793,793,793,793,793,793,793,793,793,793,778,721,655,584,514,465,398,390,388,387,387,387,388,388,388,389,389,389,389,389,389,398,412,426],"ymouse":[472,472,472,472,472,472,472,472,472,472,472,472,472,472,472,472,472,472,472,472,472,472,472,472,472,472,472,450,376,300,231,173,127,63,52,47,45,45,45,41,39,38,37,37,37,37,37,36,35,35,35],"timestamp_mouse":[14,38,54,73,93,113,133,153,173,193,213,233,253,274,294,314,333,354,374,394,414,433,454,473,493,513,534,553,573,594,613,633,653,673,693,713,733,754,773,793,813,833,854,873,894,913,934,954,973,992,1013],"xSR":741.5,"ySR":469.95,"xT1":424.9,"yT1":0,"xT2":1058.1,"yT2":0,"toosoon":0,"cond_shown":"Congruent","ratio_trial":300,"L_num":20,"L_den":25,"R_num":5,"R_den":10,"correct_side":1,"subjID":"nicolemarianacaballeromurillo32","gender":"1","school":"6","age":""},{"start_time":1551794053637,"click_time":1551794054650,"finger_time":1551794054149,"fix_duration":1447.4134474683417,"trial":8,"RT":512,"MT":501,"sideResp":2,"stimulus":[],"xmouse":[758,758,758,758,758,758,758,758,758,758,758,758,758,758,758,758,758,758,758,758,758,758,761,769,777,793,794,795,795,795,803,841,901,963,1017,1096,1118,1131,1133,1134,1146,1154,1156,1157,1157,1148,1141,1134,1127,1122,1119],"ymouse":[520,520,520,520,520,520,520,520,520,520,515,513,512,512,512,512,512,512,512,512,512,512,507,494,481,436,417,398,387,382,375,362,345,329,312,278,268,260,257,251,217,202,189,176,161,135,124,116,108,101,92],"timestamp_mouse":[13,32,61,72,93,112,132,153,172,193,211,232,252,273,293,312,333,352,373,392,414,432,452,473,492,512,532,553,572,593,613,634,652,672,693,712,732,752,772,793,812,833,852,872,892,912,932,952,971,993,1013],"xSR":741.5,"ySR":469.95,"xT1":424.9,"yT1":0,"xT2":1058.1,"yT2":0,"toosoon":0,"cond_shown":"Incongruent","ratio_trial":100,"L_num":10,"L_den":25,"R_num":9,"R_den":18,"correct_side":2,"subjID":"nicolemarianacaballeromurillo32","gender":"1","school":"6","age":""},{"start_time":1551794058850,"click_time":1551794060049,"finger_time":1551794059529,"fix_duration":1418.5048203260947,"trial":9,"RT":679,"MT":520,"sideResp":1,"stimulus":[],"xmouse":[779,779,779,779,779,779,779,779,779,779,779,779,779,779,779,779,779,779,779,779,779,779,779,779,779,779,779,779,779,779,779,778,772,753,706,692,682,669,655,646,629,618,611,610,609,609,609,609,609,609,609,609,609,609,605,597,581,560,538,503],"ymouse":[506,506,506,506,506,506,506,506,506,506,506,506,506,506,506,506,506,506,506,506,506,506,506,506,506,506,506,506,506,506,506,506,490,446,359,335,310,279,240,201,151,124,110,103,101,101,101,101,101,101,101,101,101,101,100,99,96,94,90,85],"timestamp_mouse":[31,40,59,80,99,119,139,160,180,200,220,239,259,279,300,320,339,359,379,399,419,439,459,479,499,519,539,559,580,599,620,639,659,679,699,719,739,759,779,799,819,839,859,879,900,919,939,959,980,999,1020,1040,1060,1080,1100,1120,1139,1159,1180,1199],"xSR":741.5,"ySR":469.95,"xT1":424.9,"yT1":0,"xT2":1058.1,"yT2":0,"toosoon":0,"cond_shown":"Incongruent","ratio_trial":100,"L_num":12,"L_den":30,"R_num":2,"R_den":4,"correct_side":2,"subjID":"nicolemarianacaballeromurillo32","gender":"1","school":"6","age":""},{"start_time":1551794062789,"click_time":1551794065010,"finger_time":1551794063549,"fix_duration":1479.0843083734062,"trial":10,"RT":760,"MT":1461,"sideResp":2,"stimulus":[],"xmouse":[761,761,761,761,761,761,761,761,761,761,761,761,761,761,761,761,761,761,761,761,761,761,761,761,761,761,761,761,761,761,763,765,766,766,766,766,766,766,762,755,750,745,744,744,744,744,743,739,724,708,688,663,644,627,626,625,623,623,617,613,608,603,596,576,565,563,562,562,562,562,562,564,564,607,654,746,868,1002,1216,1292,1347,1369,1377,1379,1379,1379,1379,1379,1372,1365,1356,1344,1329,1305,1285,1263,1240,1219,1201,1193,1185,1183,1183,1183,1183,1183,1183,1182,1178,1172,1161,1150],"ymouse":[510,510,510,510,510,510,510,510,510,510,510,510,510,510,510,510,510,510,510,510,510,510,510,510,510,510,510,510,510,510,507,505,505,504,504,504,504,498,465,443,423,413,409,409,409,409,406,399,364,335,309,279,258,234,233,230,229,228,216,207,198,187,174,145,129,124,123,121,121,121,121,121,121,123,136,161,203,249,334,356,367,370,370,368,360,352,341,332,312,299,284,267,247,220,196,177,163,153,145,140,137,135,135,135,135,134,133,132,122,114,102,95],"timestamp_mouse":[8,20,42,61,80,101,120,140,160,181,200,220,240,260,280,300,320,340,360,380,401,420,441,460,480,501,521,540,561,581,600,620,640,660,681,700,720,740,760,781,801,820,840,860,880,900,920,940,960,981,1000,1021,1040,1060,1080,1100,1121,1140,1160,1180,1200,1220,1241,1260,1280,1301,1320,1340,1360,1381,1400,1421,1440,1459,1480,1501,1521,1540,1560,1581,1602,1619,1640,1660,1680,1700,1720,1740,1760,1780,1800,1820,1841,1860,1881,1900,1920,1939,1960,1980,2000,2020,2041,2061,2081,2101,2120,2140,2160,2180,2200,2221],"xSR":741.5,"ySR":469.95,"xT1":424.9,"yT1":0,"xT2":1058.1,"yT2":0,"toosoon":0,"cond_shown":"Incongruent","ratio_trial":200,"L_num":1,"L_den":3,"R_num":2,"R_den":15,"correct_side":1,"subjID":"nicolemarianacaballeromurillo32","gender":"1","school":"6","age":""},{"start_time":1551794067392,"click_time":1551794068849,"finger_time":1551794068269,"fix_duration":982.9322689157727,"trial":11,"RT":877,"MT":580,"sideResp":2,"stimulus":[],"xmouse":[798,798,798,798,798,798,798,798,798,798,798,798,798,798,798,798,798,798,798,798,798,798,798,798,798,798,798,798,798,798,798,798,798,798,798,798,798,798,798,798,798,798,831,862,888,905,916,934,946,959,974,983,995,1003,1010,1017,1023,1029,1029,1029,1029,1029,1029,1029,1029,1029,1029,1032,1035,1040,1045,1050,1059],"ymouse":[522,522,522,522,522,522,522,522,522,522,522,522,522,522,522,522,522,522,522,522,522,522,522,522,522,522,522,522,522,522,522,522,522,522,522,522,522,522,522,522,522,521,487,466,444,432,423,396,375,353,332,316,294,275,260,243,225,198,186,170,153,137,118,118,118,118,118,115,111,103,96,88,79],"timestamp_mouse":[20,36,57,77,97,117,137,158,178,197,217,237,257,277,297,317,337,357,377,397,417,437,458,478,497,518,537,558,577,597,617,637,657,677,698,717,737,758,777,797,817,837,856,877,897,917,937,957,976,997,1017,1038,1057,1078,1097,1117,1138,1157,1177,1197,1217,1238,1257,1277,1298,1317,1337,1357,1377,1396,1418,1438,1457],"xSR":741.5,"ySR":469.95,"xT1":424.9,"yT1":0,"xT2":1058.1,"yT2":0,"toosoon":0,"cond_shown":"Congruent","ratio_trial":100,"L_num":4,"L_den":8,"R_num":6,"R_den":10,"correct_side":2,"subjID":"nicolemarianacaballeromurillo32","gender":"1","school":"6","age":""},{"start_time":1551794072459,"click_time":1551794074029,"finger_time":1551794073830,"fix_duration":1109.1493788850773,"trial":12,"RT":1371,"MT":199,"sideResp":1,"stimulus":[],"xmouse":[783,783,783,783,783,783,783,783,783,783,783,783,783,783,783,783,783,783,783,783,783,783,783,783,783,783,783,783,783,783,783,783,783,783,783,783,783,783,783,783,783,783,783,783,783,783,783,783,783,783,783,783,783,783,783,783,783,783,783,783,782,781,780,780,777,774,769,762,752,733,717,699,674,645,599,588,571,544,515],"ymouse":[549,549,549,549,549,549,549,549,549,549,549,549,549,549,549,549,549,549,549,549,549,549,549,549,549,549,549,549,549,549,549,549,549,549,549,549,549,549,549,549,549,549,549,549,549,549,549,549,549,549,549,549,549,549,549,549,549,542,538,517,505,500,497,496,493,490,486,478,466,436,402,370,326,280,205,180,147,113,82],"timestamp_mouse":[11,40,50,71,89,111,131,151,171,191,210,230,250,270,290,311,331,350,371,390,410,430,450,470,490,510,530,550,570,590,610,630,650,670,690,711,731,750,770,791,810,831,851,870,890,910,930,951,970,990,1010,1031,1050,1070,1090,1110,1131,1150,1170,1190,1211,1230,1250,1270,1290,1310,1330,1350,1371,1390,1411,1430,1451,1470,1491,1510,1530,1549,1570],"xSR":741.5,"ySR":469.95,"xT1":424.9,"yT1":0,"xT2":1058.1,"yT2":0,"toosoon":0,"cond_shown":"Congruent","ratio_trial":200,"L_num":7,"L_den":21,"R_num":2,"R_den":15,"correct_side":1,"subjID":"nicolemarianacaballeromurillo32","gender":"1","school":"6","age":""},{"start_time":1551794076500,"click_time":1551794078149,"finger_time":1551794077390,"fix_duration":828.9564717183586,"trial":13,"RT":890,"MT":759,"sideResp":1,"stimulus":[],"xmouse":[777,777,777,777,777,777,777,777,777,777,777,777,777,777,777,777,777,777,777,777,777,777,777,777,777,777,777,777,777,777,777,779,784,787,789,789,789,789,789,789,789,790,794,797,800,805,806,803,797,796,796,795,795,795,795,795,794,784,771,761,745,721,686,679,679,679,679,677,674,668,664,663,662,653,635,606,577,521,510,508,505,501,499],"ymouse":[515,515,515,515,515,515,515,515,515,515,515,515,515,515,515,515,515,515,515,515,515,515,515,515,515,515,515,515,515,515,515,514,509,506,504,504,504,504,504,504,504,503,492,477,458,426,384,319,298,293,291,289,289,289,289,288,277,248,235,223,207,188,160,153,153,153,153,152,150,145,143,142,142,142,142,142,142,140,136,134,129,118,97],"timestamp_mouse":[10,31,49,70,90,109,130,148,170,190,209,229,249,270,290,309,330,349,369,390,410,429,450,470,490,509,529,550,570,589,610,629,649,669,689,710,729,750,770,789,810,829,849,869,890,909,930,949,969,989,1011,1029,1050,1070,1090,1109,1130,1149,1169,1189,1208,1230,1249,1269,1289,1309,1330,1349,1369,1389,1410,1430,1449,1469,1490,1509,1529,1549,1569,1589,1609,1629,1649],"xSR":741.5,"ySR":469.95,"xT1":424.9,"yT1":0,"xT2":1058.1,"yT2":0,"toosoon":0,"cond_shown":"Congruent","ratio_trial":100,"L_num":8,"L_den":16,"R_num":2,"R_den":5,"correct_side":1,"subjID":"nicolemarianacaballeromurillo32","gender":"1","school":"6","age":""},{"start_time":1551794081095,"click_time":1551794082330,"finger_time":1551794081749,"fix_duration":1364.8380959832245,"trial":14,"RT":654,"MT":581,"sideResp":1,"stimulus":[],"xmouse":[779,779,779,779,779,779,779,779,779,779,779,779,779,779,779,779,779,779,779,779,779,779,779,779,779,779,779,779,779,777,769,742,575,531,521,517,516,539,554,566,574,581,588,591,596,598,599,598,595,590,583,575,561,558,554,550,548,546,544,538,528,516],"ymouse":[532,532,532,532,532,532,532,532,532,532,532,532,532,532,532,532,532,532,532,532,532,532,532,532,532,532,532,532,532,532,529,514,404,362,347,337,330,295,286,279,274,269,258,250,240,228,220,203,198,190,181,171,158,155,150,144,136,124,116,106,92,78],"timestamp_mouse":[14,35,54,75,94,114,135,154,174,195,214,235,255,274,295,314,335,353,374,394,413,434,454,474,494,514,535,554,575,594,615,634,654,674,693,714,733,754,774,794,814,834,854,874,894,914,934,954,974,995,1014,1035,1054,1074,1094,1114,1134,1154,1174,1194,1214,1235],"xSR":741.5,"ySR":469.95,"xT1":424.9,"yT1":0,"xT2":1058.1,"yT2":0,"toosoon":0,"cond_shown":"Incongruent","ratio_trial":300,"L_num":4,"L_den":20,"R_num":2,"R_den":4,"correct_side":2,"subjID":"nicolemarianacaballeromurillo32","gender":"1","school":"6","age":""},{"start_time":1551794084293,"click_time":1551794085249,"finger_time":1551794085009,"fix_duration":843.1026785088249,"trial":15,"RT":716,"MT":240,"sideResp":2,"stimulus":[],"xmouse":[786,786,786,786,786,786,786,786,786,786,786,786,786,786,786,786,786,786,786,786,786,786,786,786,786,786,786,786,786,786,786,786,786,799,830,866,916,1036,1061,1078,1091,1098,1105,1110,1114,1117,1120,1129],"ymouse":[541,541,541,541,541,541,541,541,541,541,541,541,541,541,541,541,541,541,541,541,541,541,541,541,541,541,541,541,541,541,541,541,542,531,500,457,401,286,257,228,210,199,178,164,147,131,111,65],"timestamp_mouse":[18,41,56,76,96,116,137,156,177,196,216,236,256,276,296,316,337,356,376,396,416,436,456,477,496,517,536,556,577,596,616,636,656,675,696,716,736,756,777,796,817,836,856,876,896,915,937,956],"xSR":741.5,"ySR":469.95,"xT1":424.9,"yT1":0,"xT2":1058.1,"yT2":0,"toosoon":0,"cond_shown":"Congruent","ratio_trial":200,"L_num":1,"L_den":2,"R_num":21,"R_den":30,"correct_side":2,"subjID":"nicolemarianacaballeromurillo32","gender":"1","school":"6","age":""},{"start_time":1551794088080,"click_time":1551794090149,"finger_time":1551794089570,"fix_duration":870.7017215764607,"trial":16,"RT":1490,"MT":579,"sideResp":2,"stimulus":[],"xmouse":[797,797,797,797,797,797,797,797,797,797,797,797,797,797,797,797,797,797,797,797,797,797,797,797,797,797,797,797,797,797,797,797,797,797,797,797,797,797,797,797,797,797,797,797,797,797,797,797,797,797,797,797,797,797,797,797,797,797,797,797,798,802,803,803,803,803,803,803,803,803,807,814,819,830,836,845,853,863,876,880,884,886,890,905,914,930,950,967,989,1004,1008,1008,1008,1008,1008,1008,1008,1008,1008,1008,1008,1008,1008,1109],"ymouse":[515,515,515,515,515,515,515,515,515,515,515,515,515,515,515,515,515,515,515,515,515,515,515,515,515,515,515,515,515,515,515,515,515,515,515,515,515,515,515,515,515,515,515,515,515,515,515,515,515,515,515,515,515,515,515,515,515,515,515,515,515,512,510,510,510,510,510,510,510,510,507,500,494,478,468,455,439,422,387,370,356,336,314,239,204,162,125,98,50,15,7,7,7,7,7,7,7,7,7,7,7,7,7,4],"timestamp_mouse":[9,35,49,69,89,109,129,149,169,189,210,230,250,269,289,310,329,349,369,389,409,429,450,470,489,509,529,549,569,589,609,630,649,669,689,710,730,749,769,789,809,830,849,870,890,909,929,949,969,989,1009,1029,1049,1069,1089,1110,1129,1150,1169,1189,1209,1229,1249,1269,1289,1310,1329,1349,1369,1390,1409,1430,1449,1469,1490,1509,1529,1550,1569,1588,1609,1629,1649,1669,1690,1709,1729,1750,1769,1789,1809,1829,1848,1870,1890,1909,1930,1949,1969,1990,2010,2029,2048,2069],"xSR":741.5,"ySR":469.95,"xT1":424.9,"yT1":0,"xT2":1058.1,"yT2":0,"toosoon":0,"cond_shown":"Incongruent","ratio_trial":200,"L_num":4,"L_den":30,"R_num":1,"R_den":3,"correct_side":2,"subjID":"nicolemarianacaballeromurillo32","gender":"1","school":"6","age":""},{"start_time":1551794092389,"click_time":1551794093849,"finger_time":1551794093229,"fix_duration":1318.5662588454613,"trial":17,"RT":840,"MT":620,"sideResp":1,"stimulus":[],"xmouse":[810,810,810,810,810,810,810,810,810,810,810,810,810,810,810,810,810,810,810,810,812,812,813,815,815,815,815,815,815,815,815,815,815,815,815,815,815,815,815,815,815,815,813,802,800,797,795,794,795,795,795,795,795,784,776,766,752,736,700,683,668,654,643,631,626,623,621,617,617,616,613,600,580,517],"ymouse":[512,512,512,512,512,512,512,512,512,512,512,512,512,512,512,512,512,512,512,512,512,513,513,514,514,514,514,514,514,514,514,514,514,514,514,514,514,514,514,509,503,487,466,410,391,376,361,350,329,323,318,313,308,279,262,246,227,208,173,154,137,122,112,99,93,90,88,85,85,85,85,85,85,85],"timestamp_mouse":[8,20,47,60,80,100,121,140,161,181,200,219,240,260,280,300,320,340,360,380,400,421,440,460,480,500,520,540,560,580,600,620,642,660,680,700,721,740,760,780,800,819,840,860,880,900,921,941,960,979,1001,1020,1040,1060,1081,1100,1120,1141,1161,1181,1200,1219,1241,1260,1280,1300,1320,1340,1360,1380,1401,1421,1440,1460],"xSR":741.5,"ySR":469.95,"xT1":424.9,"yT1":0,"xT2":1058.1,"yT2":0,"toosoon":0,"cond_shown":"Congruent","ratio_trial":300,"L_num":18,"L_den":20,"R_num":9,"R_den":15,"correct_side":1,"subjID":"nicolemarianacaballeromurillo32","gender":"1","school":"6","age":""},{"start_time":1551794096827,"click_time":1551794098249,"finger_time":1551794097630,"fix_duration":1296.0372552916122,"trial":18,"RT":803,"MT":619,"sideResp":2,"stimulus":[],"xmouse":[791,791,791,791,791,791,791,791,791,791,791,791,791,791,791,791,791,791,791,791,791,791,791,791,791,791,791,791,791,791,791,791,791,791,791,791,791,793,798,825,863,914,929,933,938,946,963,970,975,978,983,994,999,1002,1006,1008,1017,1022,1024,1025,1027,1030,1033,1037,1041,1041,1042,1042,1043,1044,1049,1059],"ymouse":[490,490,490,490,490,490,490,490,490,490,490,490,490,490,490,490,490,490,490,490,490,490,490,490,490,490,490,490,490,490,490,490,490,490,490,490,490,490,489,470,449,408,376,363,351,337,310,298,285,276,266,242,232,223,215,209,190,182,176,174,168,162,157,148,141,136,121,116,113,110,102,90],"timestamp_mouse":[8,22,42,62,82,102,122,142,163,182,202,222,242,263,282,303,322,342,362,383,402,423,442,462,482,502,522,542,563,582,602,622,643,662,682,703,722,742,761,782,803,822,842,862,882,903,922,943,962,983,1002,1022,1043,1062,1082,1102,1122,1142,1162,1204,1206,1222,1242,1263,1282,1302,1322,1341,1362,1382,1403,1422],"xSR":741.5,"ySR":469.95,"xT1":424.9,"yT1":0,"xT2":1058.1,"yT2":0,"toosoon":0,"cond_shown":"Congruent","ratio_trial":100,"L_num":1,"L_den":2,"R_num":3,"R_den":5,"correct_side":2,"subjID":"nicolemarianacaballeromurillo32","gender":"1","school":"6","age":""},{"start_time":1551794099719,"click_time":1551794101270,"finger_time":1551794100770,"fix_duration":429.6719737721405,"trial":19,"RT":1051,"MT":500,"sideResp":1,"stimulus":[],"xmouse":[774,774,774,774,774,774,774,774,774,774,774,774,774,774,774,774,774,774,774,774,774,774,774,774,774,774,774,774,774,774,774,774,774,774,774,774,774,774,774,774,774,774,774,774,774,774,774,774,774,774,774,771,763,754,745,739,732,727,722,714,706,694,690,686,681,675,673,671,667,663,660,646,639,626,607,585,529,509],"ymouse":[554,554,554,554,554,554,554,554,554,554,554,554,554,554,554,554,554,554,554,554,554,554,554,554,554,554,554,554,554,554,554,554,554,554,554,554,554,554,554,554,554,554,554,554,554,554,554,554,554,552,541,485,458,434,413,399,376,354,335,314,296,267,259,251,239,229,213,204,194,180,170,145,134,124,111,99,74,66],"timestamp_mouse":[11,31,50,70,90,110,130,150,169,190,211,231,250,270,290,310,331,350,370,391,411,430,450,470,490,511,530,551,571,591,610,630,651,671,690,710,730,750,771,791,811,830,851,871,890,910,930,951,971,991,1011,1029,1051,1070,1090,1110,1130,1150,1170,1190,1210,1230,1251,1270,1290,1310,1330,1350,1370,1391,1411,1430,1451,1471,1491,1510,1530,1551],"xSR":741.5,"ySR":469.95,"xT1":424.9,"yT1":0,"xT2":1058.1,"yT2":0,"toosoon":0,"cond_shown":"Congruent","ratio_trial":100,"L_num":3,"L_den":6,"R_num":2,"R_den":5,"correct_side":1,"subjID":"nicolemarianacaballeromurillo32","gender":"1","school":"6","age":""},{"start_time":1551794105062,"click_time":1551794106549,"finger_time":1551794105949,"fix_duration":250,"trial":20,"RT":887,"MT":600,"sideResp":1,"stimulus":[],"xmouse":[802,802,802,802,802,802,802,802,802,802,802,802,802,802,802,802,802,802,802,802,802,802,802,802,802,802,802,802,802,802,802,802,802,802,802,802,802,802,802,800,794,787,781,771,736,714,695,676,656,629,620,613,612,612,612,612,612,612,610,603,598,594,590,586,578,574,571,569,566,553,546,538,533,529,520],"ymouse":[533,533,533,533,533,533,533,533,533,533,533,533,533,533,533,533,533,533,533,533,533,533,533,533,533,533,533,533,533,533,533,533,533,533,533,533,533,533,533,531,521,506,494,477,415,375,341,307,270,212,191,177,170,166,163,163,162,160,155,140,132,127,122,117,106,102,100,98,97,95,93,91,89,88,84],"timestamp_mouse":[22,41,48,67,87,108,128,147,167,187,208,227,247,267,288,307,328,347,368,387,407,428,447,467,487,507,527,547,567,587,607,628,647,667,687,708,727,747,768,787,807,827,848,867,887,907,927,947,967,987,1008,1027,1048,1067,1087,1107,1127,1148,1167,1186,1208,1227,1247,1267,1287,1308,1327,1347,1367,1387,1408,1428,1447,1467,1487],"xSR":741.5,"ySR":469.95,"xT1":424.9,"yT1":0,"xT2":1058.1,"yT2":0,"toosoon":0,"cond_shown":"Congruent","ratio_trial":200,"L_num":14,"L_den":28,"R_num":6,"R_den":20,"correct_side":1,"subjID":"nicolemarianacaballeromurillo32","gender":"1","school":"6","age":""},{"start_time":1551794108600,"click_time":1551794109730,"finger_time":1551794109149,"fix_duration":869.0897984554348,"trial":21,"RT":549,"MT":581,"sideResp":2,"stimulus":[],"xmouse":[776,776,776,776,776,776,776,776,776,776,776,776,776,776,776,776,776,779,782,784,785,785,786,788,790,794,804,835,861,890,918,949,992,997,1000,1000,1001,1003,1010,1013,1014,1015,1017,1019,1021,1029,1037,1048,1050,1051,1053,1054,1056,1057,1057,1058,1060],"ymouse":[503,503,503,503,503,503,503,503,503,503,503,503,503,503,503,503,503,504,504,504,504,504,504,502,499,492,480,440,400,342,273,200,119,112,108,108,108,106,102,101,100,99,97,97,96,92,90,86,84,84,82,82,81,81,81,81,81],"timestamp_mouse":[11,31,50,70,90,110,129,149,170,190,209,229,249,269,290,309,328,349,369,390,409,429,449,469,489,509,529,549,569,589,609,629,649,670,689,709,729,749,769,789,809,830,849,870,889,910,929,949,969,988,1009,1029,1049,1069,1090,1110,1130],"xSR":741.5,"ySR":469.95,"xT1":424.9,"yT1":0,"xT2":1058.1,"yT2":0,"toosoon":0,"cond_shown":"Incongruent","ratio_trial":300,"L_num":1,"L_den":2,"R_num":2,"R_den":10,"correct_side":1,"subjID":"nicolemarianacaballeromurillo32","gender":"1","school":"6","age":""},{"start_time":1551794112200,"click_time":1551794113429,"finger_time":1551794112888,"fix_duration":250,"trial":22,"RT":688,"MT":541,"sideResp":2,"stimulus":[],"xmouse":[804,804,804,804,804,804,804,804,804,804,804,804,804,804,804,804,804,804,804,804,804,804,804,804,804,804,804,804,804,804,804,804,806,824,847,870,892,919,927,933,940,948,963,968,972,976,982,992,996,999,1004,1012,1031,1042,1044,1045,1046,1051,1053,1056,1058,1059],"ymouse":[522,522,522,522,522,522,522,522,522,522,522,522,522,522,522,522,522,522,522,522,522,522,522,522,522,522,522,522,522,522,522,522,518,480,424,377,346,306,292,279,263,244,209,193,181,172,162,147,140,132,123,113,97,89,87,86,85,84,83,82,82,81],"timestamp_mouse":[8,43,48,68,89,108,128,148,169,188,209,228,248,269,289,309,328,349,368,388,408,429,449,469,488,508,529,548,570,588,609,628,648,668,688,708,729,749,768,788,809,828,848,868,889,908,928,948,968,989,1008,1030,1048,1069,1088,1109,1128,1149,1168,1188,1209,1228],"xSR":741.5,"ySR":469.95,"xT1":424.9,"yT1":0,"xT2":1058.1,"yT2":0,"toosoon":0,"cond_shown":"Congruent","ratio_trial":300,"L_num":2,"L_den":20,"R_num":10,"R_den":25,"correct_side":2,"subjID":"nicolemarianacaballeromurillo32","gender":"1","school":"6","age":""},{"start_time":1551794115012,"click_time":1551794117089,"finger_time":1551794115868,"fix_duration":701.8196481779206,"trial":23,"RT":856,"MT":1221,"sideResp":2,"stimulus":[],"xmouse":[778,778,778,778,778,778,778,778,778,778,778,778,778,778,778,778,778,778,778,778,778,778,778,778,778,778,778,778,778,778,778,778,779,781,782,782,782,782,782,782,782,778,776,775,775,775,774,774,774,774,774,774,774,774,774,774,774,774,774,774,774,774,773,771,771,770,769,771,787,799,807,811,811,811,811,811,810,807,805,804,804,804,804,804,803,803,803,803,803,803,803,803,803,803,803,806,850,890,931,955,970,1031,1078,1128],"ymouse":[527,527,527,527,527,527,527,527,527,527,527,527,527,527,527,527,527,527,527,527,527,527,527,527,527,527,527,527,527,527,527,527,519,513,506,500,488,484,481,479,478,470,464,462,458,456,455,454,454,454,454,454,454,454,454,454,454,454,454,454,454,454,452,447,443,442,441,440,445,451,457,462,462,462,462,462,475,482,489,490,490,490,492,494,496,496,496,496,496,496,496,496,496,492,476,454,397,363,334,313,294,210,156,99],"timestamp_mouse":[16,37,56,76,96,116,136,158,177,197,216,238,257,276,297,317,337,357,376,396,418,436,457,476,496,517,536,556,577,597,616,636,657,676,698,716,736,757,776,797,816,836,856,876,896,916,936,956,976,997,1017,1037,1057,1076,1096,1116,1137,1156,1178,1196,1216,1237,1256,1277,1296,1317,1336,1356,1378,1396,1417,1436,1456,1476,1497,1517,1536,1556,1576,1596,1617,1636,1656,1676,1696,1716,1736,1757,1777,1796,1816,1836,1856,1877,1897,1916,1936,1957,1976,1996,2017,2036,2057,2077],"xSR":741.5,"ySR":469.95,"xT1":424.9,"yT1":0,"xT2":1058.1,"yT2":0,"toosoon":0,"cond_shown":"Incongruent","ratio_trial":300,"L_num":8,"L_den":10,"R_num":9,"R_den":18,"correct_side":1,"subjID":"nicolemarianacaballeromurillo32","gender":"1","school":"6","age":""},{"start_time":1551794125099,"click_time":1551794126629,"finger_time":1551794126088,"fix_duration":250,"trial":24,"RT":989,"MT":541,"sideResp":2,"stimulus":[],"xmouse":[819,819,819,819,819,819,819,819,819,819,819,819,819,819,819,819,819,819,819,819,819,819,819,819,819,819,819,819,819,819,819,819,819,819,819,819,819,819,819,819,819,819,819,819,819,819,819,819,828,847,876,899,934,946,956,964,974,990,997,1003,1007,1010,1010,1010,1011,1013,1017,1036,1043,1045,1045,1045,1046,1048,1052,1057,1062],"ymouse":[484,484,484,484,484,484,484,484,484,484,484,484,484,484,484,484,484,484,484,484,484,484,484,484,484,484,484,484,484,484,484,484,484,484,484,484,484,484,484,484,484,484,484,484,484,484,484,484,482,472,460,448,427,417,406,393,377,335,314,291,268,247,207,187,168,148,131,81,73,72,72,72,71,71,71,70,67],"timestamp_mouse":[11,34,49,70,90,110,129,150,170,189,211,229,249,269,290,310,329,350,370,389,410,430,449,469,489,509,530,549,569,591,609,630,650,670,689,711,730,750,769,790,809,829,850,869,890,909,929,950,970,989,1011,1029,1049,1069,1089,1109,1129,1149,1170,1189,1209,1229,1249,1270,1289,1309,1329,1349,1370,1389,1410,1430,1449,1470,1489,1509,1530],"xSR":741.5,"ySR":469.95,"xT1":424.9,"yT1":0,"xT2":1058.1,"yT2":0,"toosoon":0,"cond_shown":"Congruent","ratio_trial":200,"L_num":6,"L_den":12,"R_num":7,"R_den":10,"correct_side":2,"subjID":"nicolemarianacaballeromurillo32","gender":"1","school":"6","age":""},{"start_time":1551794127900,"click_time":1551794129029,"finger_time":1551794128528,"fix_duration":250,"trial":25,"RT":628,"MT":501,"sideResp":2,"stimulus":[],"xmouse":[797,797,797,797,797,797,797,797,797,797,797,797,797,797,797,797,797,797,797,797,797,797,797,797,797,797,797,804,812,819,834,859,901,913,928,952,971,993,999,1004,1008,1013,1028,1038,1052,1061,1068,1074,1074,1074,1074,1074,1074,1074,1074,1075,1079],"ymouse":[535,535,535,535,535,535,535,535,535,535,535,535,535,535,535,535,535,535,535,535,535,535,535,535,535,535,535,530,526,521,511,493,459,444,418,376,335,268,242,225,214,198,174,160,144,131,120,108,106,106,106,106,106,106,106,105,99],"timestamp_mouse":[11,32,48,68,88,108,129,149,168,189,208,229,248,269,288,308,329,348,369,388,409,428,449,468,488,508,528,548,568,589,610,628,648,668,688,709,728,748,769,788,809,828,848,868,888,908,929,948,968,989,1009,1029,1050,1069,1088,1108,1128],"xSR":741.5,"ySR":469.95,"xT1":424.9,"yT1":0,"xT2":1058.1,"yT2":0,"toosoon":0,"cond_shown":"Congruent","ratio_trial":100,"L_num":2,"L_den":5,"R_num":11,"R_den":22,"correct_side":2,"subjID":"nicolemarianacaballeromurillo32","gender":"1","school":"6","age":""},{"start_time":1551794131588,"click_time":1551794132848,"finger_time":1551794132429,"fix_duration":1297.0990762200838,"trial":26,"RT":841,"MT":419,"sideResp":1,"stimulus":[],"xmouse":[788,788,788,788,788,788,788,788,788,788,788,788,788,788,788,788,788,788,788,788,788,788,788,788,789,792,792,792,792,792,792,792,792,792,792,792,792,792,793,791,788,783,777,759,750,740,728,712,673,656,638,623,607,574,565,558,552,547,536,529,520,508,493,461],"ymouse":[518,518,518,518,518,518,518,518,518,518,518,518,518,518,518,518,518,518,518,518,518,518,518,517,514,512,512,512,512,512,512,512,512,512,512,512,512,512,509,499,491,478,463,429,414,397,380,358,314,295,275,260,246,218,208,200,191,183,161,150,136,121,106,83],"timestamp_mouse":[9,21,42,61,80,100,121,140,161,180,200,220,240,260,282,300,321,340,360,381,401,421,441,460,481,500,520,540,560,580,602,620,640,660,680,700,720,740,760,781,801,820,841,860,881,900,921,940,960,980,1000,1021,1041,1061,1080,1100,1120,1140,1160,1181,1201,1220,1241,1260],"xSR":741.5,"ySR":469.95,"xT1":424.9,"yT1":0,"xT2":1058.1,"yT2":0,"toosoon":0,"cond_shown":"Congruent","ratio_trial":300,"L_num":18,"L_den":20,"R_num":9,"R_den":15,"correct_side":1,"subjID":"nicolemarianacaballeromurillo32","gender":"1","school":"6","age":""},{"start_time":1551794135700,"click_time":1551794137109,"finger_time":1551794136248,"fix_duration":849.0232777685428,"trial":27,"RT":548,"MT":861,"sideResp":1,"stimulus":[],"xmouse":[788,788,788,788,788,788,788,788,788,788,788,788,788,788,788,788,788,788,788,788,788,788,788,788,789,761,746,651,633,620,615,615,615,615,615,615,615,615,634,680,751,813,855,858,859,859,859,859,859,859,859,859,859,859,859,859,859,859,859,859,859,859,859,859,859,859,859,580,557,538,520],"ymouse":[509,509,509,509,509,509,509,509,509,509,509,509,509,509,509,509,509,509,509,509,509,509,509,509,510,502,494,443,432,427,426,426,426,426,426,426,426,426,411,359,278,189,75,46,22,9,9,9,9,9,9,9,9,9,9,9,9,9,9,9,9,9,9,9,9,9,9,10,19,30,41],"timestamp_mouse":[10,30,49,68,89,108,129,148,168,188,209,229,248,269,289,309,328,348,369,388,408,429,448,468,488,508,528,548,568,588,609,629,648,668,689,709,729,749,769,788,809,829,848,868,888,909,928,948,969,988,1009,1029,1049,1068,1089,1108,1129,1148,1168,1190,1209,1229,1249,1269,1290,1309,1330,1348,1368,1388,1409],"xSR":741.5,"ySR":469.95,"xT1":424.9,"yT1":0,"xT2":1058.1,"yT2":0,"toosoon":0,"cond_shown":"Congruent","ratio_trial":100,"L_num":8,"L_den":16,"R_num":2,"R_den":5,"correct_side":1,"subjID":"nicolemarianacaballeromurillo32","gender":"1","school":"6","age":""},{"start_time":1551794142682,"click_time":1551794144089,"finger_time":1551794143648,"fix_duration":911.2810200871771,"trial":28,"RT":966,"MT":441,"sideResp":1,"stimulus":[],"xmouse":[780,780,780,780,780,780,780,780,780,780,780,780,780,780,780,780,780,780,780,780,779,778,776,776,776,776,776,776,776,776,776,776,776,776,775,776,776,776,776,776,776,776,776,776,776,776,774,771,754,746,738,731,718,668,644,628,611,592,559,554,553,553,553,554,562,569,572,572,545,523,495],"ymouse":[507,507,507,507,507,507,507,507,507,507,507,507,507,507,507,507,507,507,507,507,507,507,507,507,507,507,507,507,507,507,507,507,507,507,506,504,502,501,501,501,501,501,501,501,498,495,487,477,433,422,411,404,396,383,380,376,370,359,326,315,309,301,292,269,254,234,220,211,158,125,90],"timestamp_mouse":[10,35,46,66,87,106,127,147,166,187,207,227,247,266,288,306,326,346,366,387,406,426,446,466,486,506,527,546,567,586,606,626,646,666,686,707,727,747,766,786,806,827,846,866,886,906,926,946,966,987,1006,1026,1048,1067,1088,1107,1127,1146,1166,1186,1207,1226,1247,1267,1286,1306,1326,1347,1366,1388,1407],"xSR":741.5,"ySR":469.95,"xT1":424.9,"yT1":0,"xT2":1058.1,"yT2":0,"toosoon":0,"cond_shown":"Congruent","ratio_trial":200,"L_num":14,"L_den":28,"R_num":6,"R_den":20,"correct_side":1,"subjID":"nicolemarianacaballeromurillo32","gender":"1","school":"6","age":""},{"start_time":1551794147001,"click_time":1551794148028,"finger_time":1551794147829,"fix_duration":250,"trial":29,"RT":828,"MT":199,"sideResp":2,"stimulus":[],"xmouse":[797,797,797,797,797,795,792,782,778,773,762,757,756,756,756,756,756,756,756,756,756,756,756,756,756,756,756,756,756,756,756,756,756,756,756,756,756,756,759,765,781,802,896,1003,1029,1030,1028,1052,1063,1067,1069,1071],"ymouse":[510,510,510,510,510,511,512,516,517,517,504,496,495,495,495,495,495,495,495,495,495,495,495,495,495,495,495,495,495,495,495,495,495,495,495,495,495,495,491,488,479,466,403,320,289,273,258,168,132,115,103,93],"timestamp_mouse":[9,27,55,67,87,108,127,147,168,188,207,227,247,268,289,307,329,348,367,387,407,428,449,467,487,507,527,547,568,589,607,627,649,668,687,708,728,747,767,788,807,828,847,867,887,908,928,947,967,987,1007,1027],"xSR":741.5,"ySR":469.95,"xT1":424.9,"yT1":0,"xT2":1058.1,"yT2":0,"toosoon":0,"cond_shown":"Congruent","ratio_trial":300,"L_num":1,"L_den":5,"R_num":11,"R_den":22,"correct_side":2,"subjID":"nicolemarianacaballeromurillo32","gender":"1","school":"6","age":""},{"start_time":1551794151937,"click_time":1551794153349,"finger_time":1551794152848,"fix_duration":908.9734200387991,"trial":30,"RT":911,"MT":501,"sideResp":2,"stimulus":[],"xmouse":[798,798,798,798,798,798,798,798,798,798,798,798,798,798,798,798,798,798,798,798,798,798,798,798,798,798,798,798,798,798,798,798,798,798,798,798,798,798,798,798,798,798,798,800,804,871,899,917,922,924,930,936,938,941,944,952,954,956,960,966,979,984,986,992,1004,1037,1042,1044,1047,1048,1060],"ymouse":[500,500,500,500,500,500,500,500,500,500,500,500,500,500,500,500,500,500,500,500,500,500,500,500,500,500,500,500,500,500,500,500,500,500,500,500,500,500,500,500,500,500,500,498,494,417,378,348,328,311,272,252,231,212,192,143,127,112,99,82,60,53,51,46,36,18,16,15,15,15,15],"timestamp_mouse":[11,43,51,71,91,111,132,151,171,192,211,232,251,272,291,311,331,351,372,391,411,432,451,471,491,512,532,552,573,592,611,631,651,671,691,711,731,751,771,792,811,832,851,872,892,911,932,951,971,991,1012,1032,1051,1072,1092,1111,1132,1151,1171,1191,1212,1232,1251,1271,1291,1311,1331,1351,1372,1391,1411],"xSR":741.5,"ySR":469.95,"xT1":424.9,"yT1":0,"xT2":1058.1,"yT2":0,"toosoon":0,"cond_shown":"Incongruent","ratio_trial":100,"L_num":3,"L_den":5,"R_num":11,"R_den":22,"correct_side":1,"subjID":"nicolemarianacaballeromurillo32","gender":"1","school":"6","age":""},{"start_time":1551794158791,"click_time":1551794161548,"finger_time":1551794159748,"fix_duration":1280.9399397086593,"trial":31,"RT":957,"MT":1800,"sideResp":2,"stimulus":[],"xmouse":[778,778,781,781,782,782,782,782,782,782,782,782,782,782,782,783,783,783,783,783,783,783,783,783,783,783,783,783,783,783,783,783,783,783,782,778,776,773,773,773,772,772,772,772,772,769,763,753,747,746,746,746,746,746,746,746,746,745,745,746,748,754,759,760,760,760,760,760,760,760,760,760,764,766,766,767,767,767,768,768,769,770,772,772,772,772,769,768,768,768,774,782,798,799,799,802,808,830,838,849,863,868,869,863,856,847,838,827,827,827,827,827,826,826,832,844,874,940,955,957,957,957,949,944,944,944,944,944,943,943,946,950,966,975,983,995,1017,1102],"ymouse":[507,507,511,511,512,512,512,512,512,512,512,512,512,512,512,512,512,512,512,512,512,512,512,512,512,512,512,512,512,512,512,512,512,512,513,514,514,510,508,506,504,502,502,502,499,491,473,436,418,404,398,396,396,396,399,399,402,405,407,411,417,434,462,469,473,474,474,476,476,477,479,480,482,483,483,483,483,483,484,486,486,487,487,487,487,486,474,436,412,391,376,367,359,359,358,357,355,337,316,286,249,225,165,144,131,122,118,115,115,115,115,115,115,115,115,115,115,106,103,103,103,103,103,102,102,102,102,102,101,100,93,89,71,63,56,49,38,8],"timestamp_mouse":[29,38,57,78,98,118,137,159,177,198,218,238,258,277,297,318,338,357,377,397,418,437,457,478,497,517,537,557,578,597,617,637,657,679,697,717,738,758,778,797,818,837,857,877,897,919,938,957,977,998,1017,1038,1057,1078,1097,1118,1138,1157,1178,1197,1218,1238,1257,1278,1299,1317,1337,1357,1377,1397,1418,1437,1457,1477,1497,1517,1537,1557,1577,1598,1617,1637,1657,1677,1699,1717,1737,1757,1777,1797,1818,1837,1858,1878,1897,1917,1937,1959,1977,1998,2018,2038,2057,2077,2099,2118,2138,2157,2177,2197,2217,2237,2258,2277,2297,2317,2337,2357,2378,2397,2417,2439,2457,2478,2498,2518,2538,2558,2578,2598,2617,2637,2657,2677,2698,2718,2737,2757],"xSR":741.5,"ySR":469.95,"xT1":424.9,"yT1":0,"xT2":1058.1,"yT2":0,"toosoon":0,"cond_shown":"Congruent","ratio_trial":100,"L_num":9,"L_den":15,"R_num":8,"R_den":16,"correct_side":1,"subjID":"nicolemarianacaballeromurillo32","gender":"1","school":"6","age":""},{"start_time":1551794163657,"click_time":1551794166548,"finger_time":1551794164348,"fix_duration":708.8021149773665,"trial":32,"RT":691,"MT":2200,"sideResp":1,"stimulus":[],"xmouse":[779,779,779,779,779,779,779,779,779,779,779,779,779,779,779,779,779,779,779,776,771,766,759,753,748,747,747,747,747,748,748,749,749,752,762,768,778,784,791,803,803,803,803,803,803,803,803,803,803,803,803,803,803,803,805,803,803,803,803,804,804,804,804,804,804,804,804,804,804,804,804,804,804,804,804,804,804,804,804,804,805,808,816,828,860,875,889,910,936,951,956,960,964,968,972,974,978,982,990,1009,1017,1019,1019,1019,1019,1019,1019,1017,1008,989,975,966,959,953,935,923,907,892,872,826,791,766,742,717,677,666,660,658,656,655,653,651,650,648,643,640,635,628,617,584,572,558,541,522,486],"ymouse":[550,550,550,550,550,550,550,550,550,550,550,550,550,550,550,550,550,550,550,537,524,512,500,490,477,476,476,476,476,475,475,475,475,474,464,455,445,439,433,426,426,426,426,426,426,426,426,426,426,426,426,426,426,426,451,463,475,486,495,518,528,536,540,542,542,542,542,542,542,542,542,542,542,542,542,542,542,542,542,542,543,539,529,517,485,462,429,385,340,307,295,286,281,278,274,272,269,264,256,238,229,227,226,226,226,226,226,226,231,243,252,259,264,269,280,285,291,296,299,301,300,294,287,279,260,252,247,245,243,242,242,241,241,240,232,225,214,204,191,158,144,133,119,104,80],"timestamp_mouse":[11,41,51,71,92,111,133,152,172,192,211,232,252,271,291,311,333,352,371,391,411,432,452,471,491,512,531,552,571,591,611,632,652,672,691,711,731,751,772,791,811,832,852,872,891,911,932,953,972,991,1011,1032,1051,1072,1091,1111,1131,1151,1172,1192,1211,1232,1252,1271,1291,1311,1331,1353,1371,1391,1412,1432,1451,1471,1491,1511,1532,1551,1571,1591,1611,1631,1652,1671,1691,1712,1731,1751,1772,1791,1813,1833,1852,1872,1891,1912,1931,1951,1972,1992,2012,2032,2051,2072,2091,2111,2132,2153,2172,2192,2212,2231,2251,2271,2291,2311,2332,2351,2372,2392,2411,2432,2451,2472,2491,2511,2532,2551,2572,2591,2612,2631,2651,2671,2691,2712,2732,2751,2772,2792,2811,2831,2851,2872,2891],"xSR":741.5,"ySR":469.95,"xT1":424.9,"yT1":0,"xT2":1058.1,"yT2":0,"toosoon":0,"cond_shown":"Congruent","ratio_trial":100,"L_num":4,"L_den":10,"R_num":15,"R_den":30,"correct_side":2,"subjID":"nicolemarianacaballeromurillo32","gender":"1","school":"6","age":""},{"start_time":1551794167799,"click_time":1551794168969,"finger_time":1551794168568,"fix_duration":250,"trial":33,"RT":769,"MT":401,"sideResp":1,"stimulus":[],"xmouse":[784,784,784,784,784,784,784,784,784,784,784,784,784,784,784,784,784,784,784,784,784,784,784,784,784,784,784,784,784,784,784,784,784,784,784,784,784,784,764,725,677,637,621,621,621,621,621,621,621,621,620,620,618,613,601,588,573,542,524],"ymouse":[506,506,506,506,506,506,506,506,506,506,506,506,506,506,506,506,506,506,506,506,506,506,506,506,506,506,506,506,506,506,506,506,506,506,506,506,506,494,431,355,277,220,172,157,149,141,131,120,117,116,114,114,113,110,105,101,97,93,93],"timestamp_mouse":[9,29,62,70,89,109,129,151,169,190,209,230,249,269,289,309,330,349,369,389,409,430,449,469,489,509,530,549,569,589,610,630,649,669,690,709,729,749,769,789,809,830,850,869,889,909,930,949,969,989,1009,1029,1049,1069,1089,1109,1130,1149,1169],"xSR":741.5,"ySR":469.95,"xT1":424.9,"yT1":0,"xT2":1058.1,"yT2":0,"toosoon":0,"cond_shown":"Incongruent","ratio_trial":100,"L_num":6,"L_den":12,"R_num":3,"R_den":5,"correct_side":2,"subjID":"nicolemarianacaballeromurillo32","gender":"1","school":"6","age":""},{"start_time":1551794171069,"click_time":1551794172769,"finger_time":1551794171528,"fix_duration":919.3966545608816,"trial":34,"RT":459,"MT":1241,"sideResp":2,"stimulus":[],"xmouse":[825,825,825,825,825,825,825,825,825,825,825,825,825,825,825,825,825,825,825,825,825,829,841,848,850,850,850,850,850,850,850,850,850,850,850,850,850,850,850,850,850,850,850,848,831,808,782,752,723,687,687,687,687,687,687,687,687,688,688,714,748,772,804,848,952,998,1052,1095,1123,1150,1153,1154,1155,1156,1156,1156,1156,1155,1154,1153,1153,1152,1150,1147,1144,1147],"ymouse":[522,522,522,522,522,522,522,522,522,522,522,522,522,522,522,522,522,522,522,522,522,521,514,509,508,508,508,508,508,508,508,508,508,508,508,508,508,508,508,508,508,508,508,508,509,512,516,520,525,535,535,535,535,535,535,535,535,535,535,535,533,531,526,514,483,459,427,393,361,307,292,275,262,253,246,244,244,243,241,225,215,202,188,167,113,81],"timestamp_mouse":[1,32,39,59,79,99,119,139,160,179,200,219,239,260,279,300,319,340,359,379,400,420,440,459,480,499,519,540,560,580,600,619,640,660,679,699,719,740,760,779,799,819,839,860,879,899,919,939,959,979,1000,1019,1039,1060,1079,1099,1120,1140,1161,1181,1200,1220,1240,1261,1280,1300,1320,1340,1361,1380,1400,1420,1439,1461,1480,1500,1521,1540,1560,1580,1600,1621,1639,1660,1680,1700],"xSR":741.5,"ySR":469.95,"xT1":424.9,"yT1":0,"xT2":1058.1,"yT2":0,"toosoon":0,"cond_shown":"Incongruent","ratio_trial":200,"L_num":1,"L_den":2,"R_num":3,"R_den":10,"correct_side":1,"subjID":"nicolemarianacaballeromurillo32","gender":"1","school":"6","age":""},{"start_time":1551794176762,"click_time":1551794179449,"finger_time":1551794178790,"fix_duration":250,"trial":35,"RT":2028,"MT":659,"sideResp":2,"stimulus":[],"xmouse":[789,789,789,789,789,789,789,789,789,789,789,789,789,789,789,789,789,789,789,789,789,789,789,789,789,789,789,789,789,789,789,789,789,789,789,789,789,789,789,789,789,789,789,789,789,789,789,789,789,789,789,789,789,789,789,789,789,789,789,789,789,789,789,789,789,789,789,789,789,789,789,789,789,789,789,789,789,789,789,789,789,789,789,789,789,789,789,789,789,789,789,789,789,789,789,789,790,796,811,835,841,846,852,860,874,884,885,886,887,893,897,903,910,918,935,941,950,958,970,1005,1018,1027,1031,1035,1039,1042,1045,1049,1052,1054,1055,1055,1056,1058,1065],"ymouse":[517,517,517,517,517,517,517,517,517,517,517,517,517,517,517,517,517,517,517,517,517,517,517,517,517,517,517,517,517,517,517,517,517,517,517,517,517,517,517,517,517,517,517,517,517,517,517,517,517,517,517,517,517,517,517,517,517,517,517,517,517,517,517,517,517,517,517,517,517,517,517,517,517,517,517,517,517,517,517,517,517,517,517,517,517,517,517,517,517,517,517,517,517,517,517,517,518,513,501,479,471,461,445,427,392,375,373,371,366,350,335,319,306,293,268,261,251,242,232,195,176,165,158,152,144,140,135,128,124,120,119,118,114,105,81],"timestamp_mouse":[9,27,48,67,87,106,128,148,168,187,206,227,247,267,287,307,327,347,368,386,408,427,447,467,487,507,527,548,566,587,606,627,647,666,687,706,728,748,767,787,808,828,846,867,886,907,927,947,967,987,1007,1028,1047,1067,1087,1107,1127,1148,1168,1187,1207,1227,1248,1267,1287,1306,1327,1347,1367,1387,1407,1426,1448,1468,1487,1507,1526,1547,1567,1586,1607,1626,1648,1667,1687,1708,1726,1748,1766,1787,1808,1827,1848,1867,1887,1907,1927,1947,1966,1987,2007,2028,2048,2068,2086,2107,2127,2147,2167,2188,2207,2227,2248,2268,2288,2307,2327,2348,2368,2387,2406,2427,2447,2467,2487,2507,2527,2547,2567,2587,2607,2627,2648,2667,2687],"xSR":741.5,"ySR":469.95,"xT1":424.9,"yT1":0,"xT2":1058.1,"yT2":0,"toosoon":0,"cond_shown":"Incongruent","ratio_trial":100,"L_num":10,"L_den":25,"R_num":8,"R_den":16,"correct_side":2,"subjID":"nicolemarianacaballeromurillo32","gender":"1","school":"6","age":""},{"start_time":1551794181759,"click_time":1551794183070,"finger_time":1551794182429,"fix_duration":968.493549456023,"trial":36,"RT":670,"MT":641,"sideResp":2,"stimulus":[],"xmouse":[787,787,787,787,787,787,787,787,787,787,787,787,787,787,787,787,787,787,787,787,787,787,787,787,787,787,787,787,787,787,787,787,795,834,927,985,1012,1027,1031,1035,1036,1036,1036,1038,1039,1040,1042,1045,1049,1063,1070,1077,1081,1085,1092,1093,1093,1093,1095,1096,1098,1100,1102,1106,1109,1109],"ymouse":[510,510,510,510,510,510,510,510,510,510,510,510,510,510,510,510,510,510,510,510,510,510,510,510,510,510,510,510,510,510,510,510,501,456,370,328,307,294,287,276,275,275,274,272,271,269,265,259,252,226,214,200,191,185,173,171,169,167,164,158,153,145,136,125,100,93],"timestamp_mouse":[10,38,50,70,90,110,131,150,169,190,210,230,249,270,290,309,331,350,369,390,410,431,450,470,490,511,530,550,570,590,610,629,650,670,690,711,730,750,771,790,811,831,851,870,889,910,929,950,971,990,1010,1030,1050,1071,1090,1110,1130,1151,1170,1190,1210,1230,1249,1270,1290,1311],"xSR":741.5,"ySR":469.95,"xT1":424.9,"yT1":0,"xT2":1058.1,"yT2":0,"toosoon":0,"cond_shown":"Congruent","ratio_trial":200,"L_num":1,"L_den":2,"R_num":21,"R_den":30,"correct_side":2,"subjID":"nicolemarianacaballeromurillo32","gender":"1","school":"6","age":""},{"start_time":1551794185051,"click_time":1551794186689,"finger_time":1551794186349,"fix_duration":901.3095281714592,"trial":37,"RT":1298,"MT":340,"sideResp":1,"stimulus":[],"xmouse":[804,804,804,804,804,804,804,804,804,804,804,804,804,804,804,804,804,804,804,804,804,804,804,804,804,804,804,804,804,804,804,804,804,804,804,804,804,804,804,804,804,804,804,804,804,804,804,804,804,804,804,804,804,804,804,804,804,804,804,804,804,799,795,789,771,744,706,674,660,649,646,644,643,643,641,637,631,621,610,557,527,500],"ymouse":[525,525,525,525,525,525,525,525,525,525,525,525,525,525,525,525,525,525,525,525,525,525,525,525,525,525,525,525,525,525,525,525,525,525,525,525,525,525,525,525,525,525,525,525,525,525,525,525,525,525,525,525,525,525,525,525,525,525,525,525,525,520,512,499,435,378,311,246,211,161,147,140,137,136,134,132,129,123,118,103,100,95],"timestamp_mouse":[32,38,58,79,99,119,139,159,178,197,218,239,258,278,299,318,339,359,378,398,419,439,458,479,498,518,537,559,578,597,618,639,659,678,699,718,737,758,777,798,819,838,859,878,898,919,939,958,978,998,1019,1038,1057,1078,1097,1118,1139,1158,1179,1198,1217,1238,1259,1278,1298,1318,1338,1358,1378,1398,1418,1438,1459,1479,1498,1519,1538,1558,1579,1599,1619,1638],"xSR":741.5,"ySR":469.95,"xT1":424.9,"yT1":0,"xT2":1058.1,"yT2":0,"toosoon":0,"cond_shown":"Congruent","ratio_trial":100,"L_num":11,"L_den":22,"R_num":4,"R_den":10,"correct_side":1,"subjID":"nicolemarianacaballeromurillo32","gender":"1","school":"6","age":""},{"start_time":1551794188675,"click_time":1551794189849,"finger_time":1551794189209,"fix_duration":625.2735859118876,"trial":38,"RT":534,"MT":640,"sideResp":2,"stimulus":[],"xmouse":[763,763,763,763,763,763,763,763,763,763,763,763,763,763,763,763,763,763,763,763,763,763,766,781,801,821,834,847,874,880,880,880,880,882,885,890,902,918,976,992,1002,1012,1024,1040,1044,1047,1049,1051,1053,1053,1053,1053,1053,1056,1059,1061,1065,1075,1088],"ymouse":[519,519,519,519,519,519,519,519,519,519,519,519,519,519,519,519,519,519,519,519,519,519,516,502,487,472,460,448,414,408,407,407,407,406,404,400,393,386,357,345,332,310,271,202,181,163,148,137,127,127,127,126,125,121,118,116,114,109,99],"timestamp_mouse":[14,39,54,74,93,114,134,154,174,194,214,235,254,274,294,313,334,354,374,394,414,433,454,474,494,515,534,554,575,594,614,633,654,674,694,713,734,755,774,794,814,834,855,874,894,914,934,955,974,995,1014,1035,1054,1074,1095,1115,1134,1154,1174],"xSR":741.5,"ySR":469.95,"xT1":424.9,"yT1":0,"xT2":1058.1,"yT2":0,"toosoon":0,"cond_shown":"Congruent","ratio_trial":300,"L_num":1,"L_den":3,"R_num":19,"R_den":30,"correct_side":2,"subjID":"nicolemarianacaballeromurillo32","gender":"1","school":"6","age":""},{"start_time":1551794191910,"click_time":1551794193310,"finger_time":1551794192590,"fix_duration":700.293574163386,"trial":39,"RT":680,"MT":720,"sideResp":1,"stimulus":[],"xmouse":[811,811,811,811,811,811,811,811,811,811,811,811,811,811,811,811,811,811,811,811,811,811,811,811,811,811,811,811,811,811,811,811,802,795,788,776,748,726,704,682,666,627,611,598,587,583,575,574,572,571,568,562,558,549,536,526,507,505,503,503,503,503,503,503,503,503,502,502,502,502],"ymouse":[506,506,506,506,506,506,506,506,506,506,506,506,506,506,506,506,506,506,506,506,506,506,506,506,506,506,506,506,506,504,502,486,470,458,446,427,393,373,353,333,314,267,246,228,214,206,192,188,186,183,180,173,167,155,141,132,111,108,106,106,106,106,106,106,105,105,103,101,100,98],"timestamp_mouse":[18,38,59,79,98,118,139,158,180,198,219,239,258,280,299,319,340,360,378,400,419,439,459,480,500,520,540,559,578,600,619,639,659,680,700,720,739,759,779,799,820,839,860,879,900,919,939,959,979,998,1018,1039,1059,1079,1100,1119,1138,1159,1179,1199,1220,1240,1259,1279,1298,1320,1339,1360,1379,1400],"xSR":741.5,"ySR":469.95,"xT1":424.9,"yT1":0,"xT2":1058.1,"yT2":0,"toosoon":0,"cond_shown":"Congruent","ratio_trial":300,"L_num":20,"L_den":25,"R_num":5,"R_den":10,"correct_side":1,"subjID":"nicolemarianacaballeromurillo32","gender":"1","school":"6","age":""},{"start_time":1551794194840,"click_time":1551794196289,"finger_time":1551794196049,"fix_duration":250,"trial":40,"RT":1209,"MT":240,"sideResp":2,"stimulus":[],"xmouse":[784,784,784,784,784,784,784,784,784,784,784,784,784,784,784,784,784,784,784,784,784,784,784,784,784,784,784,784,784,784,784,784,784,784,784,784,784,784,784,784,784,784,784,784,784,784,784,784,784,784,784,784,784,784,784,784,790,805,819,834,875,893,921,940,960,989,1000,1013,1025,1038,1066,1081,1099],"ymouse":[511,511,511,511,511,511,511,511,511,511,511,511,511,511,511,511,511,511,511,511,511,511,511,511,511,511,511,511,511,511,511,511,511,511,511,511,511,511,511,511,511,511,511,511,511,511,511,511,511,511,511,511,511,511,511,511,507,500,491,479,432,406,367,335,296,231,210,189,172,155,125,108,91],"timestamp_mouse":[10,41,49,69,88,109,130,149,168,189,210,230,249,269,290,309,329,349,369,388,409,429,449,470,489,510,529,550,569,590,610,629,649,669,689,710,730,749,769,789,809,829,850,869,889,909,930,948,970,989,1010,1030,1050,1069,1089,1109,1129,1150,1169,1189,1209,1230,1249,1270,1288,1310,1329,1349,1370,1389,1408,1430,1449],"xSR":741.5,"ySR":469.95,"xT1":424.9,"yT1":0,"xT2":1058.1,"yT2":0,"toosoon":0,"cond_shown":"Congruent","ratio_trial":300,"L_num":5,"L_den":25,"R_num":6,"R_den":12,"correct_side":2,"subjID":"nicolemarianacaballeromurillo32","gender":"1","school":"6","age":""},{"start_time":1551794198137,"click_time":1551794199589,"finger_time":1551794199028,"fix_duration":647.2635483733602,"trial":41,"RT":891,"MT":561,"sideResp":2,"stimulus":[],"xmouse":[784,784,784,784,784,784,784,784,784,784,784,784,784,784,784,784,784,784,784,784,784,784,784,784,784,784,784,784,784,784,784,784,784,784,784,784,784,784,784,784,784,788,796,823,856,889,892,898,906,915,931,937,943,945,947,951,953,956,963,967,972,975,978,980,984,993,1006,1018,1027,1035,1046,1053,1061],"ymouse":[538,538,538,538,538,538,538,538,538,538,538,538,538,538,538,538,538,538,538,538,538,538,538,538,538,538,538,538,538,538,538,538,538,538,538,538,538,538,538,538,538,527,516,489,459,416,402,379,357,336,298,280,263,251,233,209,195,180,165,151,132,126,120,117,111,104,96,89,83,78,72,70,68],"timestamp_mouse":[13,42,51,71,92,112,132,153,173,192,212,233,252,271,292,312,333,353,373,393,412,433,453,472,492,512,532,553,572,592,612,633,652,672,692,712,733,753,773,792,812,832,853,873,891,912,932,951,972,992,1012,1031,1052,1072,1093,1112,1132,1152,1171,1192,1213,1232,1252,1272,1293,1311,1333,1352,1372,1392,1412,1432,1452],"xSR":741.5,"ySR":469.95,"xT1":424.9,"yT1":0,"xT2":1058.1,"yT2":0,"toosoon":0,"cond_shown":"Congruent","ratio_trial":200,"L_num":3,"L_den":12,"R_num":9,"R_den":20,"correct_side":2,"subjID":"nicolemarianacaballeromurillo32","gender":"1","school":"6","age":""},{"start_time":1551794201511,"click_time":1551794202349,"finger_time":1551794202049,"fix_duration":861.0768884789991,"trial":42,"RT":538,"MT":300,"sideResp":1,"stimulus":[],"xmouse":[762,762,762,762,762,762,762,762,762,762,762,762,762,762,762,762,762,765,767,770,770,770,771,771,771,771,768,761,749,733,722,699,683,658,635,619,596,578,566,552,537,506],"ymouse":[522,522,522,522,522,522,522,522,522,522,522,522,522,522,522,522,522,516,509,505,503,496,492,490,487,483,462,444,418,386,360,307,280,240,206,184,148,127,112,94,76,43],"timestamp_mouse":[18,37,57,78,99,118,137,159,177,199,217,238,258,278,298,318,338,358,377,398,418,438,458,478,498,518,538,558,578,598,619,638,659,678,698,717,738,757,778,799,819,838],"xSR":741.5,"ySR":469.95,"xT1":424.9,"yT1":0,"xT2":1058.1,"yT2":0,"toosoon":0,"cond_shown":"Congruent","ratio_trial":300,"L_num":18,"L_den":20,"R_num":9,"R_den":15,"correct_side":1,"subjID":"nicolemarianacaballeromurillo32","gender":"1","school":"6","age":""},{"start_time":1551794204420,"click_time":1551794206548,"finger_time":1551794206249,"fix_duration":848.6726444672155,"trial":43,"RT":1829,"MT":299,"sideResp":2,"stimulus":[],"xmouse":[795,795,795,795,795,795,795,795,795,795,795,795,795,795,795,795,795,795,795,795,795,795,795,795,795,795,795,795,795,795,795,795,795,795,795,795,795,795,795,795,795,795,795,795,795,795,795,795,795,795,795,795,795,795,795,795,795,795,795,795,795,795,795,795,795,795,795,795,795,795,795,795,795,795,795,795,795,795,795,795,795,795,795,795,795,795,795,795,798,803,808,816,824,831,838,847,867,883,898,916,933,961,991,1013,1039,1059,1079],"ymouse":[500,500,500,500,500,500,500,500,500,500,500,500,500,500,500,500,500,500,500,500,500,500,500,500,500,500,500,500,500,500,500,500,500,500,500,500,500,500,500,500,500,500,500,500,500,500,500,500,500,500,500,500,500,500,500,500,500,500,500,500,500,500,500,500,500,500,500,500,500,500,500,500,500,500,500,500,500,500,500,500,500,500,500,500,500,500,500,496,492,481,472,456,444,432,418,404,371,351,330,305,280,234,195,170,142,122,98],"timestamp_mouse":[10,30,50,70,89,109,129,149,170,189,208,230,249,270,290,309,329,348,370,389,408,429,450,469,490,510,530,550,569,590,608,629,649,669,689,709,730,749,769,789,809,829,849,869,889,909,928,949,968,990,1010,1028,1049,1069,1090,1109,1129,1148,1170,1190,1209,1229,1249,1270,1290,1308,1329,1349,1369,1390,1409,1429,1449,1469,1489,1510,1529,1549,1570,1590,1609,1629,1650,1668,1689,1709,1728,1750,1769,1789,1810,1829,1850,1869,1890,1909,1929,1950,1969,1990,2010,2029,2049,2069,2089,2110,2128],"xSR":741.5,"ySR":469.95,"xT1":424.9,"yT1":0,"xT2":1058.1,"yT2":0,"toosoon":0,"cond_shown":"Incongruent","ratio_trial":200,"L_num":4,"L_den":5,"R_num":6,"R_den":10,"correct_side":1,"subjID":"nicolemarianacaballeromurillo32","gender":"1","school":"6","age":""},{"start_time":1551794208299,"click_time":1551794210449,"finger_time":1551794209610,"fix_duration":587.6767158604268,"trial":44,"RT":1311,"MT":839,"sideResp":2,"stimulus":[],"xmouse":[768,768,768,768,768,768,768,768,768,768,768,768,768,768,768,768,768,768,768,768,768,768,768,768,768,768,768,768,768,768,768,768,768,768,768,768,768,768,768,768,768,768,768,768,768,768,768,768,768,768,769,772,776,776,776,776,776,776,776,777,777,781,790,798,807,820,840,884,904,921,936,951,974,986,998,1012,1027,1069,1084,1097,1101,1102,1102,1102,1102,1102,1102,1102,1102,1100,1098,1091,1074,1063,1055,1054,1053,1052,1052,1052,1052,1052,1052,1053,1055,1062,1071,1089],"ymouse":[511,511,511,511,511,511,511,511,511,511,511,511,511,511,511,511,511,511,511,511,511,511,511,511,511,511,511,511,511,511,511,511,511,511,511,511,511,511,511,511,511,511,511,511,511,511,511,511,511,512,512,509,507,507,507,507,507,507,507,507,505,501,492,485,472,453,424,350,317,292,271,250,217,203,190,176,164,132,121,112,108,107,107,107,107,107,107,107,107,107,107,110,119,124,129,130,131,131,131,131,131,131,131,131,131,125,117,97],"timestamp_mouse":[10,33,51,70,90,110,130,150,170,190,210,230,250,269,290,310,329,350,370,390,411,430,450,470,490,510,529,550,571,591,610,630,651,670,690,710,730,750,770,790,810,830,849,870,890,911,929,950,971,990,1010,1030,1050,1070,1091,1109,1131,1150,1170,1190,1209,1231,1250,1270,1290,1311,1331,1350,1370,1390,1410,1430,1450,1470,1490,1510,1530,1550,1571,1590,1611,1631,1650,1671,1690,1711,1730,1750,1770,1790,1810,1830,1850,1870,1890,1911,1930,1950,1970,1991,2010,2031,2050,2071,2091,2110,2130,2150],"xSR":741.5,"ySR":469.95,"xT1":424.9,"yT1":0,"xT2":1058.1,"yT2":0,"toosoon":0,"cond_shown":"Incongruent","ratio_trial":300,"L_num":4,"L_den":20,"R_num":2,"R_den":4,"correct_side":2,"subjID":"nicolemarianacaballeromurillo32","gender":"1","school":"6","age":""},{"start_time":1551794212367,"click_time":1551794213629,"finger_time":1551794213209,"fix_duration":1016.3462790013924,"trial":45,"RT":842,"MT":420,"sideResp":2,"stimulus":[],"xmouse":[810,810,810,810,810,810,810,810,810,810,810,810,810,810,810,810,810,810,810,810,810,810,810,810,810,810,810,810,810,810,810,810,810,810,810,810,810,810,810,814,823,836,853,867,898,909,920,929,935,946,955,965,979,992,1024,1033,1043,1049,1056,1066,1072,1078,1084,1092],"ymouse":[531,531,531,531,531,531,531,531,531,531,531,531,531,531,531,531,531,531,531,531,531,531,531,531,531,531,531,531,531,531,531,531,531,531,531,531,531,531,531,526,515,501,482,461,409,389,372,357,345,324,313,302,286,274,235,219,204,189,174,152,138,124,109,92],"timestamp_mouse":[10,28,42,62,82,102,121,142,162,182,202,222,242,262,281,302,323,343,363,381,402,423,443,462,482,502,521,543,562,582,603,622,643,662,682,702,723,742,762,782,802,823,842,861,882,902,921,942,963,982,1002,1023,1042,1061,1081,1103,1122,1143,1162,1182,1202,1223,1242,1262],"xSR":741.5,"ySR":469.95,"xT1":424.9,"yT1":0,"xT2":1058.1,"yT2":0,"toosoon":0,"cond_shown":"Congruent","ratio_trial":300,"L_num":1,"L_den":5,"R_num":6,"R_den":12,"correct_side":2,"subjID":"nicolemarianacaballeromurillo32","gender":"1","school":"6","age":""},{"start_time":1551794215073,"click_time":1551794216248,"finger_time":1551794215689,"fix_duration":440.47299172546894,"trial":46,"RT":616,"MT":559,"sideResp":1,"stimulus":[],"xmouse":[769,769,769,769,769,769,769,769,769,769,769,769,769,769,769,769,769,769,769,769,769,769,769,769,769,769,769,769,766,763,760,752,743,730,722,716,708,700,691,687,684,679,671,653,643,635,628,618,597,587,578,572,564,545,536,533,531,526,506],"ymouse":[525,525,525,525,525,525,525,525,525,525,525,525,525,525,525,525,525,525,525,525,525,525,525,525,525,525,525,525,508,489,464,436,406,357,334,312,295,279,263,258,254,248,242,226,219,211,205,197,178,168,159,151,143,123,117,114,113,110,94],"timestamp_mouse":[17,41,56,77,95,117,137,156,177,197,217,237,256,277,296,317,336,356,376,396,416,437,455,476,496,516,536,557,576,596,616,636,656,676,697,716,736,757,776,795,816,836,856,877,896,916,936,956,976,995,1015,1036,1057,1076,1097,1117,1136,1156,1175],"xSR":741.5,"ySR":469.95,"xT1":424.9,"yT1":0,"xT2":1058.1,"yT2":0,"toosoon":0,"cond_shown":"Incongruent","ratio_trial":300,"L_num":13,"L_den":26,"R_num":12,"R_den":15,"correct_side":2,"subjID":"nicolemarianacaballeromurillo32","gender":"1","school":"6","age":""},{"start_time":1551794219135,"click_time":1551794221649,"finger_time":1551794221048,"fix_duration":1364.2577034555134,"trial":47,"RT":1913,"MT":601,"sideResp":1,"stimulus":[],"xmouse":[791,791,791,791,791,791,791,791,791,791,791,791,791,791,791,791,791,791,791,793,797,798,798,798,798,798,798,798,798,799,801,801,801,801,801,801,801,801,801,801,801,801,803,803,803,803,803,803,803,803,803,803,803,803,803,803,803,803,803,803,803,803,803,803,802,793,789,787,786,786,786,786,786,786,786,786,786,786,786,786,786,786,786,786,786,786,786,786,786,786,786,786,786,786,784,777,772,763,754,747,726,712,695,677,663,647,644,639,629,613,573,557,544,533,525,517,514,512,510,509,509,508,505,502,499,496],"ymouse":[505,505,505,505,505,505,505,505,505,505,505,505,505,505,505,505,505,505,505,505,505,505,505,505,505,505,505,505,505,505,503,502,502,502,502,502,502,502,502,502,502,502,500,499,498,498,498,498,498,498,498,498,498,498,498,498,498,498,498,498,498,498,498,497,496,494,494,494,494,494,494,494,494,494,494,494,494,494,494,494,494,494,494,494,494,494,494,494,494,494,494,494,494,494,492,465,447,428,407,390,355,339,324,311,303,292,291,288,284,277,259,252,243,233,225,207,200,194,187,180,155,138,124,113,100,87],"timestamp_mouse":[14,34,54,74,95,114,134,155,173,194,215,235,254,274,295,314,335,354,375,394,413,435,454,474,494,514,535,555,575,594,613,633,654,674,694,715,735,754,774,794,814,834,853,874,895,914,934,954,974,994,1014,1034,1054,1074,1094,1114,1134,1154,1175,1194,1215,1235,1254,1273,1295,1314,1334,1354,1374,1394,1414,1433,1454,1475,1495,1514,1535,1554,1575,1595,1615,1634,1654,1674,1695,1715,1734,1754,1775,1795,1813,1833,1854,1874,1893,1913,1934,1954,1974,1994,2014,2035,2054,2075,2094,2114,2135,2154,2174,2195,2214,2234,2255,2275,2294,2315,2334,2354,2374,2393,2414,2434,2455,2474,2495,2514],"xSR":741.5,"ySR":469.95,"xT1":424.9,"yT1":0,"xT2":1058.1,"yT2":0,"toosoon":0,"cond_shown":"Congruent","ratio_trial":200,"L_num":8,"L_den":15,"R_num":7,"R_den":21,"correct_side":1,"subjID":"nicolemarianacaballeromurillo32","gender":"1","school":"6","age":""},{"start_time":1551794224126,"click_time":1551794225349,"finger_time":1551794224910,"fix_duration":1274.7953793108538,"trial":48,"RT":784,"MT":439,"sideResp":2,"stimulus":[],"xmouse":[793,793,793,793,793,793,793,793,793,793,793,793,793,793,793,793,793,793,793,793,793,793,793,793,793,793,793,793,793,793,793,793,793,793,793,793,793,793,802,858,923,963,968,976,986,997,1005,1011,1016,1022,1029,1036,1039,1042,1045,1049,1055,1059,1062,1065,1068,1073],"ymouse":[519,519,519,519,519,519,519,519,519,519,519,519,519,519,519,519,519,519,519,519,519,519,519,519,519,519,519,519,519,519,519,519,519,519,519,519,519,519,506,460,417,388,378,360,339,318,304,295,282,267,255,231,220,207,193,180,146,132,119,108,100,81],"timestamp_mouse":[11,38,44,63,83,104,124,144,163,183,203,223,243,264,282,303,323,344,363,384,403,423,443,464,482,504,523,542,562,583,604,623,643,664,684,702,723,742,764,784,804,823,843,862,883,903,923,943,963,983,1003,1024,1043,1063,1083,1104,1122,1143,1163,1183,1204,1223],"xSR":741.5,"ySR":469.95,"xT1":424.9,"yT1":0,"xT2":1058.1,"yT2":0,"toosoon":0,"cond_shown":"Congruent","ratio_trial":300,"L_num":2,"L_den":20,"R_num":10,"R_den":25,"correct_side":2,"subjID":"nicolemarianacaballeromurillo32","gender":"1","school":"6","age":""},{"start_time":1551794226934,"click_time":1551794227689,"finger_time":1551794227449,"fix_duration":684.9171409601624,"trial":49,"RT":515,"MT":240,"sideResp":2,"stimulus":[],"xmouse":[798,798,798,798,798,798,798,798,798,798,798,798,798,798,798,798,798,798,798,798,801,803,807,813,830,875,918,956,992,1022,1070,1085,1098,1107,1115,1130,1133,1137],"ymouse":[547,547,547,547,547,547,547,547,547,547,547,547,547,547,547,547,547,547,547,545,539,536,531,523,502,449,398,351,294,252,190,171,156,145,136,112,103,88],"timestamp_mouse":[16,35,56,74,96,115,135,156,176,196,215,234,255,275,295,315,336,356,375,396,416,435,455,475,495,515,535,555,575,596,614,636,655,675,695,714,736,755],"xSR":741.5,"ySR":469.95,"xT1":424.9,"yT1":0,"xT2":1058.1,"yT2":0,"toosoon":0,"cond_shown":"Congruent","ratio_trial":200,"L_num":3,"L_den":6,"R_num":14,"R_den":20,"correct_side":2,"subjID":"nicolemarianacaballeromurillo32","gender":"1","school":"6","age":""},{"start_time":1551794230885,"click_time":1551794232969,"finger_time":1551794232249,"fix_duration":813.463303362091,"trial":50,"RT":1364,"MT":720,"sideResp":1,"stimulus":[],"xmouse":[798,798,798,798,798,798,798,798,798,798,798,798,798,798,798,798,798,798,798,798,798,798,798,798,798,798,798,798,798,798,798,798,798,798,798,798,798,798,798,798,798,798,798,798,798,798,798,798,798,798,798,798,798,798,798,798,798,798,798,798,798,798,798,792,784,774,764,755,718,702,687,672,661,642,634,623,607,583,519,501,485,466,446,403,385,372,361,356,351,350,353,361,373,386,387,387,387,387,392,395,399,403,407,419,429],"ymouse":[531,531,531,531,531,531,531,531,531,531,531,531,531,531,531,531,531,531,531,531,531,531,531,531,531,531,531,531,531,531,531,531,531,531,531,531,531,531,531,531,531,531,531,531,531,531,531,531,531,531,531,531,531,531,531,531,531,531,531,531,531,529,528,515,505,495,485,474,426,409,397,387,378,359,347,335,324,316,296,286,277,267,258,239,229,218,208,199,186,174,162,148,133,118,117,117,117,117,114,111,106,102,97,84,76],"timestamp_mouse":[10,33,43,65,85,105,123,144,164,185,205,224,245,264,284,305,324,344,364,384,403,425,444,463,485,504,523,544,565,583,604,625,643,664,684,704,723,744,765,784,805,824,844,864,885,904,923,944,963,985,1004,1024,1044,1064,1084,1103,1124,1144,1164,1185,1205,1225,1244,1264,1285,1304,1324,1344,1364,1384,1405,1424,1444,1464,1484,1504,1524,1544,1564,1584,1605,1624,1645,1665,1684,1704,1724,1744,1765,1784,1804,1825,1845,1864,1884,1904,1924,1944,1963,1984,2005,2024,2044,2064,2084],"xSR":741.5,"ySR":469.95,"xT1":424.9,"yT1":0,"xT2":1058.1,"yT2":0,"toosoon":0,"cond_shown":"Incongruent","ratio_trial":300,"L_num":4,"L_den":5,"R_num":6,"R_den":12,"correct_side":1,"subjID":"nicolemarianacaballeromurillo32","gender":"1","school":"6","age":""},{"start_time":1551794234281,"click_time":1551794236189,"finger_time":1551794235149,"fix_duration":250,"trial":51,"RT":868,"MT":1040,"sideResp":2,"stimulus":[],"xmouse":[796,796,796,796,796,796,796,796,796,796,796,796,796,796,796,796,796,796,796,796,796,796,796,796,796,796,796,796,796,796,796,796,796,796,796,796,796,796,796,796,794,791,780,756,747,741,736,724,672,648,642,638,634,615,598,584,571,560,549,547,544,543,541,540,540,540,540,540,540,540,541,541,541,541,541,541,541,542,544,552,561,566,575,593,604,618,634,654,714,747,787,830,881,999,1042,1088],"ymouse":[498,498,498,498,498,498,498,498,498,498,498,498,498,498,498,498,498,498,498,498,498,498,498,498,498,498,498,498,498,498,498,498,498,498,498,498,498,498,498,498,496,492,482,465,458,452,444,426,363,339,334,330,326,300,278,261,248,238,229,227,224,222,217,212,208,204,196,188,175,173,172,172,172,172,172,172,172,172,173,179,183,186,190,195,198,200,202,203,203,194,177,159,138,91,72,52],"timestamp_mouse":[10,30,48,68,88,108,128,148,168,188,208,228,248,268,288,309,329,348,368,388,409,428,448,468,489,508,528,548,568,588,609,628,648,668,688,709,728,748,768,789,809,828,848,868,889,908,928,949,968,988,1009,1028,1048,1068,1089,1108,1128,1149,1168,1188,1209,1229,1248,1268,1289,1309,1328,1348,1368,1388,1409,1428,1449,1469,1488,1509,1528,1549,1569,1588,1609,1629,1649,1668,1688,1709,1728,1749,1768,1789,1809,1828,1848,1867,1889,1908],"xSR":741.5,"ySR":469.95,"xT1":424.9,"yT1":0,"xT2":1058.1,"yT2":0,"toosoon":0,"cond_shown":"Incongruent","ratio_trial":200,"L_num":6,"L_den":20,"R_num":3,"R_den":6,"correct_side":2,"subjID":"nicolemarianacaballeromurillo32","gender":"1","school":"6","age":""},{"start_time":1551794237722,"click_time":1551794239249,"finger_time":1551794238789,"fix_duration":251.0967354359869,"trial":52,"RT":1067,"MT":460,"sideResp":2,"stimulus":[],"xmouse":[777,777,777,777,777,777,777,777,777,777,777,777,777,777,777,777,777,777,777,777,777,777,777,777,777,777,777,777,777,777,777,777,777,777,777,777,777,777,777,777,777,777,777,777,777,777,777,777,777,777,783,813,837,862,882,899,924,937,950,965,979,998,1002,1003,1006,1008,1015,1019,1024,1031,1036,1051,1058,1065,1070,1073,1074],"ymouse":[537,537,537,537,537,537,537,537,537,537,537,537,537,537,537,537,537,537,537,537,537,537,537,537,537,537,537,537,537,537,537,537,537,537,537,537,537,537,537,537,537,537,537,537,537,537,537,537,537,537,537,516,496,474,455,430,375,350,327,308,292,276,274,272,269,265,256,248,237,225,210,177,158,140,120,105,76],"timestamp_mouse":[10,41,48,68,87,107,128,147,167,187,207,227,248,268,287,307,328,348,367,387,407,427,447,467,487,507,527,548,568,588,607,627,647,668,687,708,727,747,768,787,808,827,848,867,887,907,927,946,968,987,1008,1026,1048,1067,1087,1108,1127,1147,1167,1188,1207,1227,1248,1267,1287,1308,1327,1348,1367,1387,1408,1426,1448,1468,1487,1507,1527],"xSR":741.5,"ySR":469.95,"xT1":424.9,"yT1":0,"xT2":1058.1,"yT2":0,"toosoon":0,"cond_shown":"Incongruent","ratio_trial":300,"L_num":4,"L_den":20,"R_num":2,"R_den":4,"correct_side":2,"subjID":"nicolemarianacaballeromurillo32","gender":"1","school":"6","age":""},{"start_time":1551794240656,"click_time":1551794242409,"finger_time":1551794242049,"fix_duratio