[{"start_time":1551790308091,"click_time":1551790313598,"finger_time":1551790308100,"fix_duration":250,"trial":0,"RT":9,"MT":5498,"sideResp":2,"stimulus":[],"xmouse":[1080,1080,1077,1064,1047,1034,1022,1012,987,971,949,925,903,866,855,846,838,835,830,829,829,829,829,828,842,855,859,860,821,786,752,726,709,696,696,696,696,696,702,712,722,732,742,748,762,768,769,772,773,773,773,773,773,773,774,775,775,775,775,776,776,776,776,777,777,777,777,777,777,777,777,777,777,777,777,777,777,777,777,777,779,781,783,784,787,787,787,787,787,787,787,787,787,787,787,787,787,787,787,787,787,787,787,787,787,787,787,787,787,787,787,787,787,787,787,787,787,787,787,787,787,787,787,787,787,787,787,787,787,787,787,787,786,780,773,769,765,765,765,765,764,764,764,764,764,764,764,764,764,764,764,764,764,764,764,764,764,764,764,764,764,764,767,772,774,777,778,778,779,781,781,781,781,783,786,787,789,789,789,789,789,789,789,789,789,789,789,789,789,789,789,789,789,789,789,789,789,789,789,789,789,789,789,789,789,789,789,789,789,789,789,789,789,789,789,789,789,789,789,789,789,789,789,789,789,789,792,794,797,799,799,799,799,799,799,799,799,799,799,801,805,813,823,858,886,916,928,937,949,954,962,970,978,984,992,998,1001,1005,1008,1011,1014,1016,1018,1026,1029,1030,1031,1031,1031,1033,1034,1035,1039,1065,1079,1100],"ymouse":[297,297,297,297,297,297,297,297,297,297,297,297,297,297,297,297,298,299,299,299,299,299,299,301,322,358,381,409,481,523,559,589,606,614,614,614,614,614,612,609,604,599,594,589,580,574,572,570,568,568,568,568,567,566,563,559,555,552,550,548,547,546,545,544,544,544,544,544,544,544,544,544,544,544,544,544,544,544,544,544,544,544,544,544,545,545,545,545,545,545,545,545,545,545,545,545,545,545,545,545,545,545,545,545,545,545,545,545,545,545,545,545,545,545,545,545,545,545,545,545,545,545,545,545,545,545,545,545,545,545,545,545,545,545,544,544,542,542,542,542,542,542,541,541,540,540,540,540,540,540,540,540,540,540,540,540,540,540,540,540,540,540,540,540,540,540,540,540,540,540,540,540,540,540,540,540,541,541,541,541,541,541,541,541,541,541,541,541,541,541,541,541,541,541,541,541,541,541,541,541,541,541,541,541,541,541,541,541,541,541,541,541,541,541,541,541,541,541,541,541,541,541,541,541,541,541,539,537,534,532,532,532,532,532,532,532,532,532,532,530,525,515,501,454,411,360,342,335,316,309,303,298,289,281,263,247,234,224,207,200,191,184,178,167,162,160,160,160,160,157,156,155,151,133,121,95],"timestamp_mouse":[9,27,46,66,86,106,126,146,166,185,206,227,247,267,285,306,325,346,366,385,405,427,447,466,487,507,526,546,567,586,606,626,645,667,687,707,726,746,766,785,806,826,847,866,885,905,927,946,967,986,1005,1026,1046,1066,1087,1107,1127,1147,1166,1187,1206,1227,1246,1266,1287,1306,1325,1347,1366,1386,1406,1426,1447,1467,1486,1507,1525,1547,1566,1586,1607,1626,1646,1666,1687,1706,1726,1745,1766,1787,1806,1827,1846,1866,1886,1907,1927,1947,1966,1987,2006,2027,2046,2066,2086,2107,2127,2146,2167,2187,2206,2227,2247,2267,2285,2306,2327,2346,2366,2385,2406,2427,2447,2466,2487,2506,2526,2547,2567,2586,2607,2627,2646,2666,2686,2706,2727,2747,2767,2785,2807,2826,2846,2867,2886,2906,2927,2946,2966,2985,3006,3026,3046,3066,3087,3106,3126,3147,3166,3185,3206,3225,3247,3267,3286,3306,3327,3346,3366,3386,3407,3427,3446,3466,3487,3505,3526,3546,3566,3586,3605,3627,3647,3665,3686,3705,3727,3745,3766,3787,3806,3826,3847,3867,3887,3907,3925,3946,3966,3987,4006,4026,4046,4067,4087,4106,4126,4146,4165,4186,4207,4227,4247,4267,4287,4307,4325,4347,4366,4386,4406,4426,4446,4465,4487,4506,4527,4546,4565,4587,4607,4627,4646,4667,4686,4707,4726,4747,4767,4785,4807,4827,4847,4867,4886,4906,4926,4947,4966,4986,5006,5026,5046,5066,5086,5106,5127,5147,5166,5187,5207,5226,5246,5266,5286,5306,5327,5347,5366,5386,5406,5426,5446,5467,5485,5507],"xSR":340.5,"ySR":280.15000000000003,"xT1":184.29999999999998,"yT1":0,"xT2":496.69999999999993,"yT2":0,"toosoon":0,"cond_shown":"Congruent","ratio_trial":100,"L_num":11,"L_den":22,"R_num":6,"R_den":15,"correct_side":1,"subjID":"NicollSofiaRinconCuellar30","gender":"1","age":"11","school":"6","test":{"fix_dur":[250,1500],"timestim":1000,"targets_dim":[100,100],"targets_relative_coord":[0.3,0.7],"size_stim":[880,420],"start_dim":[100,100],"size_start":[300,300],"size_fix":60,"samplingrate":20,"img_types":["Congruent","Incongruent"],"ratios":[100,200,300],"rep_conds":19,"nTrials":120,"trials_to_rest":500,"Trials_order":[108,4,101,61,86,95,40,24,48,27,52,84,78,68,10,71,117,1,85,0,44,109,38,77,54,113,43,12,93,81,116,36,55,92,53,70,66,83,63,115,34,31,18,45,33,13,19,23,105,30,50,100,74,89,5,35,98,41,62,47,97,112,73,87,39,79,65,111,56,20,58,14,9,51,118,106,88,29,107,8,28,94,16,82,6,3,7,2,119,21,64,25,76,99,17,69,91,22,11,59,104,114,80,67,72,60,90,96,32,110,15,26,42,75,46,102,49,57,103,37],"cond_shown":["Congruent","Congruent","Incongruent","Incongruent","Congruent","Incongruent","Congruent","Congruent","Congruent","Incongruent","Congruent","Congruent","Congruent","Congruent","Congruent","Incongruent","Incongruent","Incongruent","Incongruent","Congruent","Congruent","Incongruent","Congruent","Incongruent","Congruent","Incongruent","Incongruent","Congruent","Incongruent","Incongruent","Congruent","Congruent","Incongruent","Congruent","Incongruent","Congruent","Congruent","Incongruent","Incongruent","Incongruent","Congruent","Incongruent","Congruent","Incongruent","Incongruent","Incongruent","Incongruent","Incongruent","Incongruent","Congruent","Congruent","Congruent","Congruent","Incongruent","Incongruent","Incongruent","Congruent","Incongruent","Congruent","Incongruent","Incongruent","Congruent","Incongruent","Incongruent","Incongruent","Incongruent","Incongruent","Incongruent","Congruent","Congruent","Congruent","Congruent","Incongruent","Incongruent","Congruent","Congruent","Congruent","Incongruent","Incongruent","Congruent","Congruent","Congruent","Congruent","Congruent","Congruent","Incongruent","Incongruent","Congruent","Incongruent","Incongruent","Congruent","Incongruent","Congruent","Incongruent","Incongruent","Incongruent","Incongruent","Congruent","Incongruent","Incongruent","Congruent","Congruent","Congruent","Incongruent","Congruent","Congruent","Congruent","Congruent","Congruent","Congruent","Incongruent","Congruent","Congruent","Incongruent","Congruent","Congruent","Incongruent","Incongruent","Incongruent","Incongruent"],"ratio_trial":[100,300,300,100,200,300,300,100,100,200,300,100,100,200,300,300,200,100,100,100,200,100,200,300,100,300,100,100,200,200,200,100,100,200,300,300,100,300,200,100,300,100,100,200,200,100,100,300,200,100,200,300,200,300,300,300,200,300,200,300,100,300,100,200,200,100,300,200,200,200,300,200,200,200,300,300,300,300,300,200,300,300,300,300,100,200,100,200,300,200,300,100,300,200,300,200,100,300,300,300,200,100,200,100,100,100,100,100,200,200,200,200,100,200,300,100,100,200,100,100],"left_num":[11,7,8,9,12,1,3,2,12,9,8,11,10,11,20,13,4,13,8,7,6,2,20,4,3,4,8,4,4,4,12,11,3,12,4,20,11,13,7,8,3,9,11,14,4,3,12,3,4,2,15,8,6,13,4,3,21,8,11,1,12,3,17,1,6,9,4,3,6,3,1,4,6,14,20,5,11,13,2,9,24,11,20,1,9,14,6,6,4,4,1,12,4,7,4,7,3,4,1,4,6,15,1,12,6,11,2,7,20,1,4,3,8,14,3,1,4,7,8,6],"right_num":[6,20,9,13,6,2,11,11,13,8,1,6,3,3,8,12,6,12,6,9,7,8,9,2,2,2,6,6,1,6,6,4,11,6,2,9,6,12,12,6,11,13,6,12,14,4,9,4,14,6,4,1,3,12,2,4,2,14,3,2,2,4,10,3,3,6,2,1,3,11,11,3,3,12,8,6,4,12,6,4,2,1,9,3,8,12,11,7,2,14,6,2,13,14,2,8,8,2,2,2,11,13,21,9,15,4,11,9,9,21,6,7,2,6,11,18,8,4,1,7],"left_den":[22,14,10,15,20,2,12,5,30,15,16,22,25,22,25,26,5,26,16,14,12,4,25,20,6,20,16,8,30,5,20,22,5,20,20,25,22,26,10,16,12,15,22,30,6,6,24,6,6,5,25,16,15,26,20,6,30,10,22,2,30,6,30,2,20,18,20,10,15,10,5,8,20,30,25,25,22,26,4,20,30,22,25,5,15,30,10,12,20,6,5,30,20,10,20,10,5,5,2,20,20,25,2,24,12,22,5,14,25,2,5,10,16,30,12,2,8,15,20,10],"right_den":[15,25,18,26,15,10,20,22,26,10,5,15,10,10,16,15,10,20,10,15,10,20,15,4,5,4,10,10,3,10,15,10,22,15,4,18,15,15,24,10,20,26,15,18,30,10,15,20,30,12,10,5,15,15,4,20,4,28,10,10,4,5,15,10,6,10,4,2,15,22,22,10,6,18,16,12,20,15,30,16,4,5,18,6,16,18,22,10,4,30,12,4,26,28,4,16,16,4,10,4,22,26,30,15,25,10,22,15,15,30,10,14,5,9,20,30,20,6,2,14],"correct_side":[1,2,1,1,1,1,2,2,2,2,1,1,1,1,1,2,1,2,2,2,2,1,1,2,1,2,2,2,2,1,1,1,1,1,2,1,1,2,1,2,2,1,1,2,1,1,2,1,1,2,1,1,1,2,2,1,1,1,1,1,2,2,2,1,2,2,2,2,1,2,2,1,2,2,1,2,1,2,1,1,1,1,1,2,1,2,1,2,2,1,2,2,2,1,2,1,1,1,1,2,2,1,2,2,2,1,2,2,1,2,1,2,1,2,2,2,1,2,2,1],"img_shown":["img2/100/Congruent/L/C_Dist_100_LN_11_LD_22_RN_6_RD_15_0.png","img2/300/Congruent/R/C_Dist_300_LN_7_LD_14_RN_20_RD_25_1.png","img2/300/Incongruent/L/I_Dist_300_LN_8_LD_10_RN_9_RD_18_0.png","img2/100/Incongruent/L/I_Dist_100_LN_9_LD_15_RN_13_RD_26_0.png","img2/200/Congruent/L/C_Dist_200_LN_12_LD_20_RN_6_RD_15_0.png","img2/300/Incongruent/L/I_Dist_300_LN_1_LD_2_RN_2_RD_10_0.png","img2/300/Congruent/R/C_Dist_300_LN_3_LD_12_RN_11_RD_20_1.png","img2/100/Congruent/R/C_Dist_100_LN_2_LD_5_RN_11_RD_22_1.png","img2/100/Congruent/R/C_Dist_100_LN_12_LD_30_RN_13_RD_26_1.png","img2/200/Incongruent/R/I_Dist_200_LN_9_LD_15_RN_8_RD_10_1.png","img2/300/Congruent/L/C_Dist_300_LN_8_LD_16_RN_1_RD_5_0.png","img2/100/Congruent/L/C_Dist_100_LN_11_LD_22_RN_6_RD_15_0.png","img2/100/Congruent/L/C_Dist_100_LN_10_LD_25_RN_3_RD_10_0.png","img2/200/Congruent/L/C_Dist_200_LN_11_LD_22_RN_3_RD_10_0.png","img2/300/Congruent/L/C_Dist_300_LN_20_LD_25_RN_8_RD_16_0.png","img2/300/Incongruent/R/I_Dist_300_LN_13_LD_26_RN_12_RD_15_1.png","img2/200/Incongruent/L/I_Dist_200_LN_4_LD_5_RN_6_RD_10_0.png","img2/100/Incongruent/R/I_Dist_100_LN_13_LD_26_RN_12_RD_20_1.png","img2/100/Incongruent/R/I_Dist_100_LN_8_LD_16_RN_6_RD_10_1.png","img2/100/Congruent/R/C_Dist_100_LN_7_LD_14_RN_9_RD_15_1.png","img2/200/Congruent/R/C_Dist_200_LN_6_LD_12_RN_7_RD_10_1.png","img2/100/Incongruent/L/I_Dist_100_LN_2_LD_4_RN_8_RD_20_0.png","img2/200/Congruent/L/C_Dist_200_LN_20_LD_25_RN_9_RD_15_0.png","img2/300/Incongruent/R/I_Dist_300_LN_4_LD_20_RN_2_RD_4_1.png","img2/100/Congruent/L/C_Dist_100_LN_3_LD_6_RN_2_RD_5_0.png","img2/300/Incongruent/R/I_Dist_300_LN_4_LD_20_RN_2_RD_4_1.png","img2/100/Incongruent/R/I_Dist_100_LN_8_LD_16_RN_6_RD_10_1.png","img2/100/Congruent/R/C_Dist_100_LN_4_LD_8_RN_6_RD_10_1.png","img2/200/Incongruent/R/I_Dist_200_LN_4_LD_30_RN_1_RD_3_1.png","img2/200/Incongruent/L/I_Dist_200_LN_4_LD_5_RN_6_RD_10_0.png","img2/200/Congruent/L/C_Dist_200_LN_12_LD_20_RN_6_RD_15_0.png","img2/100/Congruent/L/C_Dist_100_LN_11_LD_22_RN_4_RD_10_0.png","img2/100/Incongruent/L/I_Dist_100_LN_3_LD_5_RN_11_RD_22_0.png","img2/200/Congruent/L/C_Dist_200_LN_12_LD_20_RN_6_RD_15_0.png","img2/300/Incongruent/R/I_Dist_300_LN_4_LD_20_RN_2_RD_4_1.png","img2/300/Congruent/L/C_Dist_300_LN_20_LD_25_RN_9_RD_18_0.png","img2/100/Congruent/L/C_Dist_100_LN_11_LD_22_RN_6_RD_15_0.png","img2/300/Incongruent/R/I_Dist_300_LN_13_LD_26_RN_12_RD_15_1.png","img2/200/Incongruent/L/I_Dist_200_LN_7_LD_10_RN_12_RD_24_0.png","img2/100/Incongruent/R/I_Dist_100_LN_8_LD_16_RN_6_RD_10_1.png","img2/300/Congruent/R/C_Dist_300_LN_3_LD_12_RN_11_RD_20_1.png","img2/100/Incongruent/L/I_Dist_100_LN_9_LD_15_RN_13_RD_26_0.png","img2/100/Congruent/L/C_Dist_100_LN_11_LD_22_RN_6_RD_15_0.png","img2/200/Incongruent/R/I_Dist_200_LN_14_LD_30_RN_12_RD_18_1.png","img2/200/Incongruent/L/I_Dist_200_LN_4_LD_6_RN_14_RD_30_0.png","img2/100/Incongruent/L/I_Dist_100_LN_3_LD_6_RN_4_RD_10_0.png","img2/100/Incongruent/R/I_Dist_100_LN_12_LD_24_RN_9_RD_15_1.png","img2/300/Incongruent/L/I_Dist_300_LN_3_LD_6_RN_4_RD_20_0.png","img2/200/Incongruent/L/I_Dist_200_LN_4_LD_6_RN_14_RD_30_0.png","img2/100/Congruent/R/C_Dist_100_LN_2_LD_5_RN_6_RD_12_1.png","img2/200/Congruent/L/C_Dist_200_LN_15_LD_25_RN_4_RD_10_0.png","img2/300/Congruent/L/C_Dist_300_LN_8_LD_16_RN_1_RD_5_0.png","img2/200/Congruent/L/C_Dist_200_LN_6_LD_15_RN_3_RD_15_0.png","img2/300/Incongruent/R/I_Dist_300_LN_13_LD_26_RN_12_RD_15_1.png","img2/300/Incongruent/R/I_Dist_300_LN_4_LD_20_RN_2_RD_4_1.png","img2/300/Incongruent/L/I_Dist_300_LN_3_LD_6_RN_4_RD_20_0.png","img2/200/Congruent/L/C_Dist_200_LN_21_LD_30_RN_2_RD_4_0.png","img2/300/Incongruent/L/I_Dist_300_LN_8_LD_10_RN_14_RD_28_0.png","img2/200/Congruent/L/C_Dist_200_LN_11_LD_22_RN_3_RD_10_0.png","img2/300/Incongruent/L/I_Dist_300_LN_1_LD_2_RN_2_RD_10_0.png","img2/100/Incongruent/R/I_Dist_100_LN_12_LD_30_RN_2_RD_4_1.png","img2/300/Congruent/R/C_Dist_300_LN_3_LD_6_RN_4_RD_5_1.png","img2/100/Incongruent/R/I_Dist_100_LN_17_LD_30_RN_10_RD_15_1.png","img2/200/Incongruent/L/I_Dist_200_LN_1_LD_2_RN_3_RD_10_0.png","img2/200/Incongruent/R/I_Dist_200_LN_6_LD_20_RN_3_RD_6_1.png","img2/100/Incongruent/R/I_Dist_100_LN_9_LD_18_RN_6_RD_10_1.png","img2/300/Incongruent/R/I_Dist_300_LN_4_LD_20_RN_2_RD_4_1.png","img2/200/Incongruent/R/I_Dist_200_LN_3_LD_10_RN_1_RD_2_1.png","img2/200/Congruent/L/C_Dist_200_LN_6_LD_15_RN_3_RD_15_0.png","img2/200/Congruent/R/C_Dist_200_LN_3_LD_10_RN_11_RD_22_1.png","img2/300/Congruent/R/C_Dist_300_LN_1_LD_5_RN_11_RD_22_1.png","img2/200/Congruent/L/C_Dist_200_LN_4_LD_8_RN_3_RD_10_0.png","img2/200/Incongruent/R/I_Dist_200_LN_6_LD_20_RN_3_RD_6_1.png","img2/200/Incongruent/R/I_Dist_200_LN_14_LD_30_RN_12_RD_18_1.png","img2/300/Congruent/L/C_Dist_300_LN_20_LD_25_RN_8_RD_16_0.png","img2/300/Congruent/R/C_Dist_300_LN_5_LD_25_RN_6_RD_12_1.png","img2/300/Congruent/L/C_Dist_300_LN_11_LD_22_RN_4_RD_20_0.png","img2/300/Incongruent/R/I_Dist_300_LN_13_LD_26_RN_12_RD_15_1.png","img2/300/Incongruent/L/I_Dist_300_LN_2_LD_4_RN_6_RD_30_0.png","img2/200/Congruent/L/C_Dist_200_LN_9_LD_20_RN_4_RD_16_0.png","img2/300/Congruent/L/C_Dist_300_LN_24_LD_30_RN_2_RD_4_0.png","img2/300/Congruent/L/C_Dist_300_LN_11_LD_22_RN_1_RD_5_0.png","img2/300/Congruent/L/C_Dist_300_LN_20_LD_25_RN_9_RD_18_0.png","img2/300/Congruent/R/C_Dist_300_LN_1_LD_5_RN_3_RD_6_1.png","img2/100/Congruent/L/C_Dist_100_LN_9_LD_15_RN_8_RD_16_0.png","img2/200/Incongruent/R/I_Dist_200_LN_14_LD_30_RN_12_RD_18_1.png","img2/100/Incongruent/L/I_Dist_100_LN_6_LD_10_RN_11_RD_22_0.png","img2/200/Congruent/R/C_Dist_200_LN_6_LD_12_RN_7_RD_10_1.png","img2/300/Incongruent/R/I_Dist_300_LN_4_LD_20_RN_2_RD_4_1.png","img2/200/Incongruent/L/I_Dist_200_LN_4_LD_6_RN_14_RD_30_0.png","img2/300/Congruent/R/C_Dist_300_LN_1_LD_5_RN_6_RD_12_1.png","img2/100/Incongruent/R/I_Dist_100_LN_12_LD_30_RN_2_RD_4_1.png","img2/300/Congruent/R/C_Dist_300_LN_4_LD_20_RN_13_RD_26_1.png","img2/200/Incongruent/L/I_Dist_200_LN_7_LD_10_RN_14_RD_28_0.png","img2/300/Incongruent/R/I_Dist_300_LN_4_LD_20_RN_2_RD_4_1.png","img2/200/Incongruent/L/I_Dist_200_LN_7_LD_10_RN_8_RD_16_0.png","img2/100/Incongruent/L/I_Dist_100_LN_3_LD_5_RN_8_RD_16_0.png","img2/300/Congruent/L/C_Dist_300_LN_4_LD_5_RN_2_RD_4_0.png","img2/300/Incongruent/L/I_Dist_300_LN_1_LD_2_RN_2_RD_10_0.png","img2/300/Incongruent/R/I_Dist_300_LN_4_LD_20_RN_2_RD_4_1.png","img2/200/Congruent/R/C_Dist_200_LN_6_LD_20_RN_11_RD_22_1.png","img2/100/Congruent/L/C_Dist_100_LN_15_LD_25_RN_13_RD_26_0.png","img2/200/Congruent/R/C_Dist_200_LN_1_LD_2_RN_21_RD_30_1.png","img2/100/Incongruent/R/I_Dist_100_LN_12_LD_24_RN_9_RD_15_1.png","img2/100/Congruent/R/C_Dist_100_LN_6_LD_12_RN_15_RD_25_1.png","img2/100/Congruent/L/C_Dist_100_LN_11_LD_22_RN_4_RD_10_0.png","img2/100/Congruent/R/C_Dist_100_LN_2_LD_5_RN_11_RD_22_1.png","img2/100/Congruent/R/C_Dist_100_LN_7_LD_14_RN_9_RD_15_1.png","img2/200/Congruent/L/C_Dist_200_LN_20_LD_25_RN_9_RD_15_0.png","img2/200/Congruent/R/C_Dist_200_LN_1_LD_2_RN_21_RD_30_1.png","img2/200/Incongruent/L/I_Dist_200_LN_4_LD_5_RN_6_RD_10_0.png","img2/200/Congruent/R/C_Dist_200_LN_3_LD_10_RN_7_RD_14_1.png","img2/100/Congruent/L/C_Dist_100_LN_8_LD_16_RN_2_RD_5_0.png","img2/200/Incongruent/R/I_Dist_200_LN_14_LD_30_RN_6_RD_9_1.png","img2/300/Congruent/R/C_Dist_300_LN_3_LD_12_RN_11_RD_20_1.png","img2/100/Congruent/R/C_Dist_100_LN_1_LD_2_RN_18_RD_30_1.png","img2/100/Incongruent/L/I_Dist_100_LN_4_LD_8_RN_8_RD_20_0.png","img2/200/Incongruent/R/I_Dist_200_LN_7_LD_15_RN_4_RD_6_1.png","img2/100/Incongruent/R/I_Dist_100_LN_8_LD_20_RN_1_RD_2_1.png","img2/100/Incongruent/L/I_Dist_100_LN_6_LD_10_RN_7_RD_14_0.png"],"dist100_C":[["C_Dist_100_LN_10_LD_25_RN_3_RD_10_0.png","C_Dist_100_LN_11_LD_22_RN_4_RD_10_0.png","C_Dist_100_LN_11_LD_22_RN_6_RD_15_0.png","C_Dist_100_LN_15_LD_25_RN_13_RD_26_0.png","C_Dist_100_LN_3_LD_6_RN_2_RD_5_0.png","C_Dist_100_LN_6_LD_20_RN_5_RD_25_0.png","C_Dist_100_LN_8_LD_16_RN_2_RD_5_0.png","C_Dist_100_LN_9_LD_15_RN_8_RD_16_0.png"],["C_Dist_100_LN_1_LD_2_RN_18_RD_30_1.png","C_Dist_100_LN_1_LD_2_RN_3_RD_5_1.png","C_Dist_100_LN_12_LD_30_RN_13_RD_26_1.png","C_Dist_100_LN_2_LD_5_RN_11_RD_22_1.png","C_Dist_100_LN_2_LD_5_RN_6_RD_12_1.png","C_Dist_100_LN_3_LD_20_RN_4_RD_16_1.png","C_Dist_100_LN_4_LD_10_RN_15_RD_30_1.png","C_Dist_100_LN_4_LD_8_RN_6_RD_10_1.png","C_Dist_100_LN_6_LD_12_RN_15_RD_25_1.png","C_Dist_100_LN_7_LD_14_RN_15_RD_25_1.png","C_Dist_100_LN_7_LD_14_RN_9_RD_15_1.png"]],"dist100_I":[["I_Dist_100_LN_1_LD_2_RN_8_RD_20_0.png","I_Dist_100_LN_2_LD_4_RN_6_RD_15_0.png","I_Dist_100_LN_2_LD_4_RN_8_RD_20_0.png","I_Dist_100_LN_3_LD_5_RN_11_RD_22_0.png","I_Dist_100_LN_3_LD_5_RN_8_RD_16_0.png","I_Dist_100_LN_3_LD_6_RN_4_RD_10_0.png","I_Dist_100_LN_3_LD_9_RN_7_RD_30_0.png","I_Dist_100_LN_4_LD_8_RN_8_RD_20_0.png","I_Dist_100_LN_6_LD_10_RN_11_RD_22_0.png","I_Dist_100_LN_6_LD_10_RN_13_RD_26_0.png","I_Dist_100_LN_6_LD_10_RN_7_RD_14_0.png","I_Dist_100_LN_9_LD_10_RN_20_RD_25_0.png","I_Dist_100_LN_9_LD_15_RN_13_RD_26_0.png","I_Dist_100_LN_9_LD_15_RN_14_RD_28_0.png"],["I_Dist_100_LN_10_LD_25_RN_8_RD_16_1.png","I_Dist_100_LN_10_LD_25_RN_9_RD_18_1.png","I_Dist_100_LN_11_LD_22_RN_9_RD_15_1.png","I_Dist_100_LN_12_LD_24_RN_9_RD_15_1.png","I_Dist_100_LN_12_LD_30_RN_2_RD_4_1.png","I_Dist_100_LN_13_LD_26_RN_12_RD_20_1.png","I_Dist_100_LN_13_LD_26_RN_6_RD_10_1.png","I_Dist_100_LN_17_LD_30_RN_10_RD_15_1.png","I_Dist_100_LN_6_LD_12_RN_3_RD_5_1.png","I_Dist_100_LN_8_LD_16_RN_6_RD_10_1.png","I_Dist_100_LN_8_LD_20_RN_1_RD_2_1.png","I_Dist_100_LN_9_LD_18_RN_6_RD_10_1.png"]],"dist100_S":[["E_Dist_100_LN_2_LD_12_RN_2_RD_30_0.png","E_Dist_100_LN_6_LD_10_RN_6_RD_12_0.png"],["E_Dist_100_LN_6_LD_12_RN_6_RD_10_1.png"]],"dist200_C":[["C_Dist_200_LN_11_LD_22_RN_3_RD_10_0.png","C_Dist_200_LN_12_LD_15_RN_6_RD_10_0.png","C_Dist_200_LN_12_LD_20_RN_6_RD_15_0.png","C_Dist_200_LN_14_LD_28_RN_6_RD_20_0.png","C_Dist_200_LN_15_LD_25_RN_4_RD_10_0.png","C_Dist_200_LN_16_LD_20_RN_12_RD_20_0.png","C_Dist_200_LN_16_LD_30_RN_9_RD_27_0.png","C_Dist_200_LN_20_LD_25_RN_9_RD_15_0.png","C_Dist_200_LN_21_LD_30_RN_2_RD_4_0.png","C_Dist_200_LN_4_LD_10_RN_3_RD_15_0.png","C_Dist_200_LN_4_LD_8_RN_3_RD_10_0.png","C_Dist_200_LN_6_LD_15_RN_3_RD_15_0.png","C_Dist_200_LN_7_LD_21_RN_2_RD_15_0.png","C_Dist_200_LN_8_LD_15_RN_2_RD_6_0.png","C_Dist_200_LN_8_LD_15_RN_3_RD_9_0.png","C_Dist_200_LN_8_LD_15_RN_7_RD_21_0.png","C_Dist_200_LN_9_LD_20_RN_4_RD_16_0.png"],["C_Dist_200_LN_1_LD_2_RN_21_RD_30_1.png","C_Dist_200_LN_13_LD_26_RN_14_RD_20_1.png","C_Dist_200_LN_3_LD_10_RN_11_RD_22_1.png","C_Dist_200_LN_3_LD_10_RN_14_RD_28_1.png","C_Dist_200_LN_3_LD_10_RN_7_RD_14_1.png","C_Dist_200_LN_3_LD_12_RN_9_RD_20_1.png","C_Dist_200_LN_3_LD_6_RN_14_RD_20_1.png","C_Dist_200_LN_5_LD_10_RN_14_RD_20_1.png","C_Dist_200_LN_6_LD_12_RN_7_RD_10_1.png","C_Dist_200_LN_6_LD_20_RN_11_RD_22_1.png","C_Dist_200_LN_7_LD_15_RN_18_RD_27_1.png","C_Dist_200_LN_9_LD_30_RN_13_RD_26_1.png"]],"dist200_I":[["I_Dist_200_LN_1_LD_2_RN_3_RD_10_0.png","I_Dist_200_LN_1_LD_3_RN_2_RD_15_0.png","I_Dist_200_LN_3_LD_4_RN_11_RD_20_0.png","I_Dist_200_LN_4_LD_5_RN_6_RD_10_0.png","I_Dist_200_LN_4_LD_6_RN_14_RD_30_0.png","I_Dist_200_LN_7_LD_10_RN_12_RD_24_0.png","I_Dist_200_LN_7_LD_10_RN_14_RD_28_0.png","I_Dist_200_LN_7_LD_10_RN_8_RD_16_0.png"],["I_Dist_200_LN_11_LD_20_RN_3_RD_4_1.png","I_Dist_200_LN_14_LD_30_RN_12_RD_18_1.png","I_Dist_200_LN_14_LD_30_RN_6_RD_9_1.png","I_Dist_200_LN_3_LD_10_RN_1_RD_2_1.png","I_Dist_200_LN_4_LD_30_RN_1_RD_3_1.png","I_Dist_200_LN_6_LD_20_RN_3_RD_6_1.png","I_Dist_200_LN_7_LD_15_RN_4_RD_6_1.png","I_Dist_200_LN_7_LD_15_RN_6_RD_9_1.png","I_Dist_200_LN_9_LD_15_RN_8_RD_10_1.png"]],"dist200_S":[["E_Dist_200_LN_3_LD_6_RN_3_RD_10_0.png"],["E_Dist_200_LN_3_LD_10_RN_3_RD_6_1.png"]],"dist300_C":[["C_Dist_300_LN_11_LD_22_RN_1_RD_5_0.png","C_Dist_300_LN_11_LD_22_RN_2_RD_10_0.png","C_Dist_300_LN_11_LD_22_RN_4_RD_20_0.png","C_Dist_300_LN_12_LD_24_RN_2_RD_10_0.png","C_Dist_300_LN_18_LD_20_RN_9_RD_15_0.png","C_Dist_300_LN_20_LD_25_RN_13_RD_26_0.png","C_Dist_300_LN_20_LD_25_RN_14_RD_28_0.png","C_Dist_300_LN_20_LD_25_RN_5_RD_10_0.png","C_Dist_300_LN_20_LD_25_RN_8_RD_16_0.png","C_Dist_300_LN_20_LD_25_RN_9_RD_18_0.png","C_Dist_300_LN_24_LD_30_RN_2_RD_4_0.png","C_Dist_300_LN_24_LD_30_RN_8_RD_16_0.png","C_Dist_300_LN_3_LD_6_RN_2_RD_10_0.png","C_Dist_300_LN_4_LD_10_RN_1_RD_10_0.png","C_Dist_300_LN_4_LD_5_RN_2_RD_4_0.png","C_Dist_300_LN_8_LD_16_RN_1_RD_5_0.png","C_Dist_300_LN_9_LD_10_RN_3_RD_5_0.png"],["C_Dist_300_LN_1_LD_20_RN_7_RD_20_1.png","C_Dist_300_LN_1_LD_3_RN_19_RD_30_1.png","C_Dist_300_LN_1_LD_30_RN_8_RD_24_1.png","C_Dist_300_LN_1_LD_5_RN_11_RD_22_1.png","C_Dist_300_LN_1_LD_5_RN_3_RD_6_1.png","C_Dist_300_LN_1_LD_5_RN_6_RD_12_1.png","C_Dist_300_LN_2_LD_10_RN_12_RD_24_1.png","C_Dist_300_LN_2_LD_20_RN_10_RD_25_1.png","C_Dist_300_LN_3_LD_12_RN_11_RD_20_1.png","C_Dist_300_LN_3_LD_6_RN_4_RD_5_1.png","C_Dist_300_LN_4_LD_20_RN_13_RD_26_1.png","C_Dist_300_LN_5_LD_25_RN_6_RD_12_1.png","C_Dist_300_LN_5_LD_25_RN_7_RD_14_1.png","C_Dist_300_LN_7_LD_14_RN_20_RD_25_1.png","C_Dist_300_LN_8_LD_15_RN_10_RD_12_1.png"]],"dist300_I":[["I_Dist_300_LN_1_LD_2_RN_2_RD_10_0.png","I_Dist_300_LN_1_LD_2_RN_3_RD_15_0.png","I_Dist_300_LN_2_LD_4_RN_6_RD_30_0.png","I_Dist_300_LN_3_LD_6_RN_4_RD_20_0.png","I_Dist_300_LN_4_LD_5_RN_6_RD_12_0.png","I_Dist_300_LN_4_LD_5_RN_8_RD_16_0.png","I_Dist_300_LN_7_LD_10_RN_8_RD_20_0.png","I_Dist_300_LN_8_LD_10_RN_14_RD_28_0.png","I_Dist_300_LN_8_LD_10_RN_9_RD_18_0.png"],["I_Dist_300_LN_13_LD_26_RN_12_RD_15_1.png","I_Dist_300_LN_4_LD_20_RN_2_RD_4_1.png"]],"dist300_S":[["E_Dist_300_LN_9_LD_12_RN_9_RD_20_0.png"],["E_Dist_300_LN_18_LD_30_RN_18_RD_20_1.png","E_Dist_300_LN_3_LD_10_RN_3_RD_5_1.png","E_Dist_300_LN_9_LD_20_RN_9_RD_12_1.png"]],"dist500_C":[["C_Dist_500_LN_10_LD_13_RN_7_RD_26_0.png","C_Dist_500_LN_10_LD_15_RN_4_RD_24_0.png","C_Dist_500_LN_12_LD_16_RN_3_RD_12_0.png","C_Dist_500_LN_12_LD_18_RN_4_RD_24_0.png","C_Dist_500_LN_15_LD_18_RN_5_RD_15_0.png","C_Dist_500_LN_15_LD_20_RN_1_RD_4_0.png","C_Dist_500_LN_18_LD_27_RN_1_RD_6_0.png","C_Dist_500_LN_20_LD_24_RN_1_RD_3_0.png","C_Dist_500_LN_20_LD_24_RN_3_RD_9_0.png","C_Dist_500_LN_20_LD_24_RN_7_RD_21_0.png","C_Dist_500_LN_20_LD_28_RN_3_RD_14_0.png","C_Dist_500_LN_21_LD_28_RN_6_RD_24_0.png","C_Dist_500_LN_22_LD_28_RN_2_RD_7_0.png","C_Dist_500_LN_25_LD_30_RN_9_RD_27_0.png","C_Dist_500_LN_4_LD_6_RN_1_RD_6_0.png","C_Dist_500_LN_5_LD_6_RN_2_RD_6_0.png","C_Dist_500_LN_6_LD_9_RN_1_RD_6_0.png","C_Dist_500_LN_7_LD_10_RN_1_RD_5_0.png","C_Dist_500_LN_8_LD_12_RN_1_RD_6_0.png","C_Dist_500_LN_8_LD_12_RN_4_RD_24_0.png"],["C_Dist_500_LN_1_LD_4_RN_12_RD_16_1.png","C_Dist_500_LN_1_LD_4_RN_9_RD_12_1.png","C_Dist_500_LN_1_LD_9_RN_11_RD_18_1.png","C_Dist_500_LN_10_LD_24_RN_22_RD_24_1.png","C_Dist_500_LN_2_LD_12_RN_10_RD_15_1.png","C_Dist_500_LN_2_LD_12_RN_12_RD_18_1.png","C_Dist_500_LN_2_LD_12_RN_4_RD_6_1.png","C_Dist_500_LN_2_LD_24_RN_7_RD_12_1.png","C_Dist_500_LN_2_LD_5_RN_18_RD_20_1.png","C_Dist_500_LN_2_LD_5_RN_9_RD_10_1.png","C_Dist_500_LN_2_LD_8_RN_12_RD_16_1.png","C_Dist_500_LN_2_LD_8_RN_21_RD_28_1.png","C_Dist_500_LN_3_LD_10_RN_4_RD_5_1.png","C_Dist_500_LN_3_LD_12_RN_15_RD_20_1.png","C_Dist_500_LN_3_LD_30_RN_6_RD_10_1.png","C_Dist_500_LN_3_LD_8_RN_14_RD_16_1.png","C_Dist_500_LN_4_LD_16_RN_15_RD_20_1.png","C_Dist_500_LN_4_LD_24_RN_12_RD_18_1.png","C_Dist_500_LN_5_LD_14_RN_6_RD_7_1.png","C_Dist_500_LN_7_LD_21_RN_20_RD_24_1.png","C_Dist_500_LN_7_LD_28_RN_12_RD_16_1.png","C_Dist_500_LN_7_LD_28_RN_9_RD_12_1.png","C_Dist_500_LN_9_LD_27_RN_20_RD_24_1.png"]],"dist500_I":[["I_Dist_500_LN_2_LD_3_RN_4_RD_24_0.png","I_Dist_500_LN_5_LD_6_RN_6_RD_18_0.png","I_Dist_500_LN_7_LD_8_RN_9_RD_24_0.png"],["I_Dist_500_LN_7_LD_21_RN_5_RD_6_1.png"]],"dist500_S":[["E_Dist_500_LN_6_LD_8_RN_6_RD_24_0.png"],["E_Dist_500_LN_2_LD_12_RN_2_RD_3_1.png","E_Dist_500_LN_6_LD_24_RN_6_RD_8_1.png"]]}},{"start_time":1551790315973,"click_time":1551790318596,"finger_time":1551790318376,"fix_duration":1276.9754395730738,"trial":1,"RT":2403,"MT":220,"sideResp":1,"stimulus":[],"xmouse":[787,787,787,787,787,787,787,787,787,787,787,787,788,788,788,788,788,788,788,788,788,788,788,788,788,788,788,788,788,788,788,788,788,788,788,788,788,788,788,788,788,788,788,788,788,788,788,788,788,788,788,788,788,788,788,788,788,788,788,788,788,788,788,788,788,788,788,788,788,788,788,788,788,788,788,788,788,788,788,788,788,788,788,788,788,788,788,788,788,789,791,792,793,794,794,795,795,795,795,795,795,795,795,795,795,795,795,795,795,795,795,795,795,795,795,795,794,793,789,766,741,695,606,544,475,466,464,464,464,462,461,460],"ymouse":[555,555,555,555,555,555,555,555,555,555,555,555,555,555,555,555,555,555,555,555,555,555,555,555,555,555,555,555,555,555,555,555,555,555,555,555,555,555,555,555,555,555,555,555,555,555,555,555,555,555,555,555,555,555,555,555,555,555,555,555,555,555,555,555,555,555,555,555,555,555,555,555,555,555,555,555,555,555,555,555,555,555,555,555,555,555,555,555,556,557,560,561,562,562,562,563,563,563,563,563,563,563,563,563,563,563,563,563,563,563,563,563,563,563,563,563,561,558,548,514,480,410,302,236,170,158,153,147,137,112,103,97],"timestamp_mouse":[10,23,43,76,82,102,122,142,162,182,204,222,244,262,283,304,323,342,362,382,402,423,443,462,482,503,522,544,563,582,604,622,643,662,683,702,722,742,762,784,802,822,843,862,883,902,922,943,962,982,1002,1022,1042,1062,1083,1104,1122,1143,1163,1183,1203,1222,1242,1263,1282,1302,1322,1342,1362,1382,1402,1423,1443,1463,1482,1503,1523,1543,1562,1583,1602,1623,1642,1662,1682,1703,1722,1744,1762,1783,1803,1824,1843,1863,1882,1902,1922,1942,1963,1984,2002,2022,2043,2062,2083,2102,2124,2142,2162,2184,2203,2223,2243,2263,2283,2302,2322,2342,2362,2383,2403,2423,2443,2463,2484,2502,2522,2543,2564,2583,2602,2622],"xSR":741.5,"ySR":501.8,"xT1":424.9,"yT1":0,"xT2":1058.1,"yT2":0,"toosoon":0,"cond_shown":"Congruent","ratio_trial":300,"L_num":7,"L_den":14,"R_num":20,"R_den":25,"correct_side":2,"subjID":"NicollSofiaRinconCuellar30","gender":"1","school":"6","age":"11"},{"start_time":1551790320446,"click_time":1551790322416,"finger_time":1551790322176,"fix_duration":669.9832167562963,"trial":2,"RT":1730,"MT":240,"sideResp":1,"stimulus":[],"xmouse":[795,795,795,795,795,795,795,795,795,795,795,795,795,795,795,795,795,795,795,795,795,795,795,795,795,795,795,795,795,795,795,795,795,795,795,795,795,795,795,795,795,795,795,795,795,795,795,795,795,795,795,795,795,795,795,795,796,797,798,799,799,799,799,799,799,799,799,799,799,799,799,799,799,799,799,799,799,799,799,799,799,799,799,799,791,769,745,720,665,631,591,577,568,560,554,542,533,509,486],"ymouse":[542,542,542,542,542,542,542,542,542,542,542,542,542,542,542,542,542,542,542,542,542,542,542,542,542,542,542,542,542,542,542,542,542,542,542,542,542,542,542,542,542,542,542,542,542,542,542,542,542,542,542,542,542,542,542,542,542,542,543,544,544,544,544,544,544,544,544,544,544,544,544,544,544,544,544,544,544,544,544,544,544,544,544,544,534,507,478,431,332,276,217,198,185,174,164,147,133,101,75],"timestamp_mouse":[10,43,49,69,89,110,131,150,169,190,210,229,250,271,290,309,329,350,369,391,410,429,449,470,489,510,530,551,569,589,609,629,651,670,691,711,730,750,769,789,809,829,850,870,889,910,929,951,970,990,1010,1030,1049,1070,1090,1111,1129,1149,1170,1190,1210,1230,1250,1270,1290,1309,1330,1349,1370,1389,1409,1430,1451,1470,1490,1509,1529,1550,1571,1591,1610,1630,1649,1670,1690,1710,1730,1749,1770,1790,1809,1829,1850,1869,1889,1911,1929,1949,1970],"xSR":741.5,"ySR":501.8,"xT1":424.9,"yT1":0,"xT2":1058.1,"yT2":0,"toosoon":0,"cond_shown":"Incongruent","ratio_trial":300,"L_num":8,"L_den":10,"R_num":9,"R_den":18,"correct_side":1,"subjID":"NicollSofiaRinconCuellar30","gender":"1","school":"6","age":"11"},{"start_time":1551790323966,"click_time":1551790325875,"finger_time":1551790325535,"fix_duration":389.6788199533955,"trial":3,"RT":1569,"MT":340,"sideResp":1,"stimulus":[],"xmouse":[806,806,806,806,806,806,806,806,806,806,805,804,803,803,803,803,803,803,803,803,803,803,803,803,803,803,803,803,803,803,803,803,803,803,803,803,803,803,803,803,803,803,803,803,803,803,803,803,803,803,803,803,803,803,803,803,803,803,803,803,803,803,803,804,804,804,804,804,804,804,804,804,804,804,806,806,803,796,784,763,702,668,651,636,625,608,600,590,581,572,556,551,538,534,528,513],"ymouse":[556,556,556,556,556,556,556,556,556,556,556,557,557,558,558,558,558,558,558,558,558,558,558,558,558,558,558,558,558,558,558,558,558,558,558,558,558,558,558,558,558,559,559,559,559,559,559,559,559,559,559,559,559,559,559,559,559,559,559,559,559,559,559,560,560,560,560,560,560,560,560,560,560,560,559,553,538,512,475,427,323,277,250,224,203,163,146,129,114,103,88,83,76,73,69,59],"timestamp_mouse":[11,47,49,69,89,110,129,150,170,189,209,230,249,269,289,311,330,349,371,390,409,431,450,471,490,510,530,549,569,590,610,629,649,670,690,709,729,750,770,790,811,830,850,871,890,910,929,950,969,989,1010,1029,1050,1071,1089,1110,1129,1149,1170,1189,1209,1230,1250,1269,1289,1310,1329,1351,1369,1390,1409,1430,1449,1470,1489,1510,1531,1550,1569,1590,1610,1629,1649,1670,1689,1709,1730,1749,1769,1790,1811,1829,1849,1870,1890,1909],"xSR":741.5,"ySR":501.8,"xT1":424.9,"yT1":0,"xT2":1058.1,"yT2":0,"toosoon":0,"cond_shown":"Incongruent","ratio_trial":100,"L_num":9,"L_den":15,"R_num":13,"R_den":26,"correct_side":1,"subjID":"NicollSofiaRinconCuellar30","gender":"1","school":"6","age":"11"},{"start_time":1551790327714,"click_time":1551790331796,"finger_time":1551790329777,"fix_duration":936.049941299447,"trial":4,"RT":2063,"MT":2019,"sideResp":2,"stimulus":[],"xmouse":[798,798,798,798,798,798,798,798,798,799,799,799,800,801,801,801,801,801,801,801,801,801,801,801,801,801,801,801,801,802,802,804,804,804,804,805,805,805,805,805,805,805,805,805,805,805,805,805,805,805,805,805,805,805,805,805,805,805,805,805,805,805,805,805,805,805,805,805,805,805,805,805,805,805,805,805,805,805,805,805,805,805,805,805,805,805,805,805,805,805,805,805,805,805,805,806,808,810,813,814,814,815,815,815,810,779,723,537,403,283,232,232,232,232,232,232,232,232,232,232,232,232,291,335,378,401,423,477,507,534,563,588,622,639,661,672,677,685,689,692,696,698,701,704,706,707,710,721,730,745,767,782,795,796,796,796,796,800,801,801,792,777,771,768,778,778,791,796,799,800,800,800,803,810,823,849,866,895,908,927,957,992,1025,1066,1070,1070,1070,1070,1070,1070,1070,1070,1070,1070,1070,1070,1070,1070,1070,1070,1070,1070,1070,1072,1077],"ymouse":[550,550,550,550,550,550,550,550,550,550,550,550,550,550,550,550,550,550,550,550,550,550,550,550,550,550,550,550,550,550,550,549,549,549,549,549,549,549,549,549,549,549,549,549,549,549,549,549,549,549,549,549,549,549,549,549,549,549,549,549,549,549,549,549,549,549,549,549,549,549,549,549,549,549,549,549,549,549,549,549,549,549,549,549,549,549,549,549,549,549,549,549,549,549,548,544,540,534,528,525,523,518,505,499,491,465,405,235,130,40,5,5,5,5,5,5,5,5,5,5,5,5,26,48,76,92,109,162,201,240,284,322,366,388,409,419,425,436,442,446,451,456,461,466,470,473,479,505,524,563,602,622,640,642,642,642,642,638,618,572,512,447,393,310,285,285,249,237,222,216,213,209,194,177,156,128,118,109,107,106,106,106,106,109,110,110,110,110,110,110,110,110,110,110,110,110,110,110,110,110,110,110,110,105,87],"timestamp_mouse":[9,22,53,61,82,102,121,142,162,183,202,222,241,261,281,301,321,341,361,382,401,422,442,461,481,502,521,542,562,581,601,622,642,663,681,702,722,741,761,782,802,822,843,861,881,903,922,942,961,981,1001,1021,1043,1061,1082,1103,1122,1142,1162,1183,1201,1221,1241,1262,1281,1301,1322,1342,1361,1382,1401,1422,1442,1462,1481,1502,1521,1541,1562,1581,1602,1621,1642,1662,1683,1703,1721,1743,1762,1781,1802,1821,1842,1861,1881,1902,1921,1941,1962,1981,2003,2022,2042,2063,2081,2101,2122,2141,2161,2181,2201,2221,2242,2262,2282,2302,2322,2341,2362,2381,2401,2422,2442,2461,2481,2501,2521,2542,2561,2582,2602,2621,2642,2661,2682,2702,2721,2742,2761,2782,2802,2821,2841,2862,2882,2901,2921,2942,2962,2981,3003,3022,3042,3061,3081,3102,3121,3143,3161,3182,3201,3221,3241,3262,3281,3302,3321,3341,3361,3381,3401,3422,3442,3462,3482,3502,3522,3542,3561,3582,3602,3622,3641,3661,3683,3702,3721,3741,3762,3783,3803,3823,3842,3863,3882,3903,3922,3942,3962,3982,4003,4022,4042,4061,4082],"xSR":741.5,"ySR":501.8,"xT1":424.9,"yT1":0,"xT2":1058.1,"yT2":0,"toosoon":0,"cond_shown":"Congruent","ratio_trial":200,"L_num":12,"L_den":20,"R_num":6,"R_den":15,"correct_side":1,"subjID":"NicollSofiaRinconCuellar30","gender":"1","school":"6","age":"11"},{"start_time":1551790333764,"click_time":1551790335257,"finger_time":1551790334876,"fix_duration":1228.4901828318275,"trial":5,"RT":1112,"MT":381,"sideResp":1,"stimulus":[],"xmouse":[793,793,793,793,793,793,793,793,794,794,794,794,795,795,795,795,795,795,795,795,795,795,795,795,795,795,795,795,795,795,795,795,795,795,795,795,795,795,795,795,794,794,792,792,792,792,791,791,789,789,788,787,785,783,768,752,729,696,650,584,584,584,584,584,584,584,584,584,584,584,584,584,584,584,449],"ymouse":[550,550,550,549,548,546,545,544,544,544,544,544,544,544,544,544,544,544,544,544,544,544,544,544,544,544,544,544,544,544,544,544,544,544,544,544,544,544,544,544,544,544,544,544,544,544,544,544,544,544,545,545,545,545,524,489,412,299,166,43,43,43,43,43,43,43,43,43,43,43,43,43,43,43,41],"timestamp_mouse":[12,42,52,71,92,112,133,152,171,191,211,233,252,271,292,313,331,351,371,391,411,431,452,472,492,512,531,551,572,591,612,631,651,672,691,711,732,751,771,793,812,831,851,872,891,912,931,951,972,991,1011,1031,1052,1072,1092,1112,1132,1152,1172,1192,1213,1232,1252,1272,1292,1311,1332,1351,1372,1392,1412,1431,1451,1471,1492],"xSR":741.5,"ySR":501.8,"xT1":424.9,"yT1":0,"xT2":1058.1,"yT2":0,"toosoon":0,"cond_shown":"Incongruent","ratio_trial":300,"L_num":1,"L_den":2,"R_num":2,"R_den":10,"correct_side":1,"subjID":"NicollSofiaRinconCuellar30","gender":"1","school":"6","age":"11"},{"start_time":1551790337433,"click_time":1551790339216,"finger_time":1551790338896,"fix_duration":996.1645410497318,"trial":6,"RT":1463,"MT":320,"sideResp":2,"stimulus":[],"xmouse":[790,790,790,790,790,790,790,790,790,790,790,790,790,790,790,790,790,790,790,790,790,790,790,790,790,790,790,790,790,790,790,790,790,790,790,790,790,790,790,790,790,790,790,790,790,790,790,790,790,790,790,790,790,790,790,790,790,790,790,790,790,790,790,790,790,790,790,790,790,790,790,800,816,844,889,941,995,1090,1140,1169,1193,1214,1217,1218,1218,1218,1205,1194,1180,1154],"ymouse":[540,540,540,540,540,540,540,540,540,540,540,540,540,540,540,540,540,540,540,540,540,540,540,540,540,540,540,540,540,540,540,540,540,540,540,540,540,540,540,540,540,540,540,540,540,540,540,540,540,540,540,540,540,540,540,540,540,540,540,540,540,540,540,540,540,540,540,540,540,540,540,533,519,496,459,410,353,264,229,205,189,163,156,146,135,123,88,69,53,34],"timestamp_mouse":[9,23,43,70,83,102,122,143,164,183,203,222,242,263,282,302,324,342,363,382,403,424,443,462,483,502,522,542,563,583,603,622,642,663,682,702,722,743,762,783,803,822,842,863,882,903,923,943,962,982,1002,1023,1042,1062,1082,1102,1123,1143,1164,1182,1202,1223,1242,1262,1283,1302,1322,1343,1363,1382,1402,1423,1442,1463,1483,1504,1522,1543,1563,1582,1603,1623,1642,1662,1682,1703,1723,1742,1762,1783],"xSR":741.5,"ySR":501.8,"xT1":424.9,"yT1":0,"xT2":1058.1,"yT2":0,"toosoon":0,"cond_shown":"Congruent","ratio_trial":300,"L_num":3,"L_den":12,"R_num":11,"R_den":20,"correct_side":2,"subjID":"NicollSofiaRinconCuellar30","gender":"1","school":"6","age":"11"},{"start_time":1551790375272,"click_time":1551790381715,"finger_time":1551790376615,"fix_duration":794.4494616114994,"trial":7,"RT":1343,"MT":5100,"sideResp":1,"stimulus":[],"xmouse":[777,777,777,777,777,777,777,777,777,777,777,777,777,777,777,777,777,777,777,777,777,777,777,777,777,777,777,777,777,777,777,776,776,776,775,774,773,771,769,766,759,754,749,749,749,749,749,749,749,749,749,749,749,749,749,749,749,749,749,749,749,749,749,749,749,749,773,854,971,1236,1272,1272,1270,1251,1134,1072,1025,1015,1011,1011,1011,1011,1011,1012,1013,1012,1000,976,938,888,781,730,695,670,653,642,641,641,641,643,648,658,673,694,719,764,778,781,782,783,784,786,786,787,787,788,788,788,788,788,788,788,788,788,788,788,788,788,788,788,788,788,788,787,785,780,778,775,773,771,771,771,771,771,771,777,786,795,801,805,806,806,801,797,788,773,762,757,753,751,751,754,757,758,758,759,761,762,762,762,762,763,764,765,765,761,756,747,740,728,724,722,720,719,718,720,730,738,746,765,771,775,778,779,779,779,779,779,779,779,779,779,779,779,779,780,781,783,786,790,792,792,792,792,792,792,792,792,791,786,780,780,780,780,780,780,780,780,780,780,780,780,780,780,780,780,780,780,780,780,780,780,780,780,781,788,797,798,798,798,798,798,798,798,798,798,798,798,798,798,798,798,798,797,796,793,791,789,788,793,800,806,819,840,897,948,975,998,1029,1048,1048,1048,1048,1048,1048,1048,1048,1048,1048,1048,1170,1157,1141,1129,1116,1099,1095,1091,1084,1061,1048,1035,1020,1001,980,931,895,875,858,838,779,727,668,611,558,488,479,476,475,475,474,474,474],"ymouse":[528,528,528,528,528,528,528,528,528,528,528,527,527,527,527,527,527,527,527,527,527,527,527,527,527,527,527,527,527,527,527,525,525,524,522,521,520,518,516,516,516,514,512,512,512,512,512,512,512,512,512,512,512,512,512,512,512,512,512,511,511,511,511,511,511,511,503,481,461,417,361,335,317,303,285,290,305,313,319,323,331,333,335,339,344,375,397,424,450,476,518,539,555,570,580,589,590,590,590,590,590,589,589,589,588,585,581,578,578,576,573,571,569,567,565,562,561,560,559,559,559,559,559,559,559,559,559,559,559,559,559,559,559,558,558,558,560,561,562,564,564,564,564,564,564,564,564,562,559,557,556,554,549,547,543,538,533,529,524,499,486,472,464,461,461,461,462,463,463,464,464,464,464,460,458,445,442,442,441,441,442,445,446,449,458,466,481,490,496,509,515,519,522,523,523,523,523,523,523,523,523,523,523,524,526,530,537,541,545,551,553,554,554,555,555,556,556,556,556,548,538,538,538,538,538,538,538,538,538,538,538,538,538,538,538,538,538,538,538,538,538,538,538,536,536,536,534,534,534,534,534,534,534,534,534,534,534,534,534,534,534,534,534,536,536,535,533,529,520,485,459,431,384,334,240,173,128,83,39,14,14,14,14,14,14,14,14,14,14,14,85,115,135,146,151,156,157,157,157,150,146,142,139,137,134,132,132,132,132,132,132,132,128,118,117,110,110,110,110,110,106,100,93],"timestamp_mouse":[8,23,43,63,83,103,125,143,163,183,205,223,243,264,284,305,324,344,364,385,403,425,444,463,484,504,523,545,564,584,603,623,644,663,684,704,724,743,763,783,803,824,843,863,883,903,923,943,963,984,1002,1023,1044,1064,1083,1103,1123,1143,1164,1182,1203,1223,1242,1262,1283,1304,1323,1343,1363,1384,1403,1424,1444,1463,1484,1503,1523,1543,1564,1584,1604,1624,1643,1663,1683,1704,1723,1743,1764,1783,1803,1823,1843,1864,1883,1904,1923,1944,1963,1984,2004,2024,2043,2063,2083,2104,2124,2143,2163,2184,2203,2223,2243,2264,2283,2304,2323,2343,2364,2383,2403,2423,2443,2462,2482,2504,2523,2544,2563,2583,2603,2622,2643,2663,2684,2703,2723,2743,2763,2783,2803,2823,2844,2863,2883,2903,2924,2944,2963,2983,3004,3024,3043,3063,3084,3103,3124,3143,3163,3183,3203,3223,3243,3263,3284,3304,3323,3343,3363,3384,3403,3424,3443,3463,3483,3504,3524,3543,3563,3584,3603,3623,3644,3664,3684,3702,3723,3743,3763,3784,3804,3823,3843,3864,3884,3904,3923,3943,3964,3984,4003,4024,4043,4064,4084,4103,4124,4143,4163,4183,4204,4223,4244,4263,4283,4303,4323,4343,4364,4382,4404,4423,4443,4464,4484,4503,4524,4543,4564,4583,4604,4623,4643,4664,4684,4704,4724,4743,4764,4783,4804,4823,4843,4863,4884,4904,4924,4943,4964,4983,5003,5024,5043,5063,5083,5103,5123,5143,5164,5184,5203,5222,5244,5264,5284,5304,5324,5343,5363,5384,5403,5423,5444,5464,5484,5503,5523,5544,5563,5584,5604,5624,5643,5664,5683,5703,5724,5744,5763,5783,5803,5824,5843,5863,5884,5904,5924,5943,5963,5984,6003,6024,6043,6063,6083,6103,6123,6143,6163,6183,6204,6224,6244,6263,6283,6303,6324,6343,6363,6383,6403,6423,6443],"xSR":741.5,"ySR":501.8,"xT1":424.9,"yT1":0,"xT2":1058.1,"yT2":0,"toosoon":0,"cond_shown":"Congruent","ratio_trial":100,"L_num":2,"L_den":5,"R_num":11,"R_den":22,"correct_side":2,"subjID":"NicollSofiaRinconCuellar30","gender":"1","school":"6","age":"11"},{"start_time":1551790383125,"click_time":1551790388415,"finger_time":1551790383187,"fix_duration":328.01580345037587,"trial":8,"RT":62,"MT":5228,"sideResp":2,"stimulus":[],"xmouse":[817,822,834,834,843,847,854,859,863,867,871,871,872,872,872,872,871,871,871,873,879,890,894,896,896,896,896,896,896,896,896,896,896,896,896,896,896,896,896,896,896,896,896,896,896,896,896,896,896,896,896,896,896,896,896,896,896,896,896,896,896,896,896,896,896,896,896,896,896,896,897,897,898,899,899,899,899,899,899,899,899,899,899,899,899,899,899,899,899,899,899,899,899,899,899,899,899,899,900,900,900,900,900,901,901,901,901,901,901,901,901,901,901,901,901,901,902,902,903,903,904,905,907,910,911,912,915,916,916,917,918,919,919,919,919,919,919,919,919,919,919,919,919,919,920,921,921,922,922,922,922,922,922,922,922,922,922,922,922,922,924,925,927,928,929,929,929,930,931,931,931,931,931,931,931,931,931,931,931,931,931,931,931,931,931,931,931,931,931,931,931,931,931,931,931,931,931,931,931,932,933,938,940,943,944,946,952,959,967,975,986,994,1006,1014,1018,1021,1024,1025,1025,1025,1025,1025,1025,1025,1025,1023,1019,1018,1017,1015,1015,1014,1014,1014,1014,1014,1014,1014,1014,1014,1014,1014,1014,1014,1014,1015,1017,1025,1029,1035,1039,1043,1050,1051,1051,1052,1052,1052,1050,1050,1049,1049,1068,1092,1109],"ymouse":[523,505,454,454,402,384,354,339,324,312,306,304,301,299,297,295,286,275,262,246,231,207,201,198,198,198,198,198,198,198,198,198,198,198,198,198,198,198,198,198,198,198,198,198,198,198,198,198,198,198,198,198,198,198,198,198,198,198,198,198,198,198,198,198,198,198,198,198,198,197,197,198,200,201,201,201,201,201,201,201,201,201,201,201,201,201,201,201,201,201,201,201,201,201,201,201,202,202,204,204,204,204,204,205,205,205,205,206,206,208,208,208,209,209,209,209,209,210,210,210,210,210,210,210,211,211,212,212,212,212,213,213,213,213,213,213,213,213,213,213,213,213,213,213,214,215,215,215,216,216,216,216,216,216,216,216,216,216,216,216,216,216,216,216,216,216,216,216,217,217,217,217,217,217,217,217,217,217,217,217,217,217,217,217,217,217,217,217,217,217,217,217,217,217,217,217,217,217,217,217,217,217,217,217,217,217,215,212,209,206,203,201,201,205,208,213,222,226,228,228,228,228,228,228,223,218,210,210,210,210,210,210,210,210,210,210,210,210,210,210,210,210,210,210,210,210,209,207,206,205,204,203,201,200,200,200,194,189,185,180,173,162,129,103,87],"timestamp_mouse":[10,30,62,71,91,111,130,150,170,191,210,231,251,271,291,310,331,351,370,390,411,431,450,470,491,510,530,551,570,591,610,631,651,670,689,711,731,750,770,791,809,829,850,871,891,911,929,950,970,989,1010,1031,1051,1071,1091,1110,1131,1151,1171,1190,1211,1230,1251,1270,1291,1310,1330,1351,1370,1390,1411,1429,1450,1470,1491,1510,1531,1551,1570,1590,1610,1631,1651,1670,1691,1710,1730,1750,1770,1791,1811,1831,1850,1871,1889,1910,1931,1951,1970,1991,2011,2031,2049,2070,2090,2111,2131,2150,2170,2191,2210,2230,2250,2270,2291,2310,2331,2351,2371,2390,2410,2430,2450,2470,2491,2511,2531,2550,2571,2591,2611,2630,2649,2671,2690,2710,2730,2750,2770,2791,2810,2830,2851,2870,2890,2911,2930,2950,2971,2990,3009,3031,3051,3070,3091,3111,3131,3151,3171,3191,3210,3230,3250,3271,3290,3310,3330,3350,3370,3391,3410,3431,3450,3470,3490,3510,3531,3551,3571,3590,3611,3629,3651,3670,3690,3711,3731,3750,3770,3790,3810,3830,3850,3870,3890,3910,3931,3951,3970,3990,4011,4031,4050,4071,4091,4110,4130,4150,4171,4190,4211,4230,4250,4271,4290,4310,4331,4350,4370,4390,4410,4431,4451,4470,4490,4510,4530,4549,4571,4590,4611,4630,4651,4670,4690,4710,4731,4751,4770,4790,4810,4831,4851,4870,4891,4910,4930,4951,4969,4990,5010,5030,5050,5071,5091,5110,5131,5149,5170,5190,5210,5230,5251,5270,5290],"xSR":741.5,"ySR":501.8,"xT1":424.9,"yT1":0,"xT2":1058.1,"yT2":0,"toosoon":0,"cond_shown":"Congruent","ratio_trial":100,"L_num":12,"L_den":30,"R_num":13,"R_den":26,"correct_side":2,"subjID":"NicollSofiaRinconCuellar30","gender":"1","school":"6","age":"11"},{"start_time":1551790390029,"click_time":1551790391336,"finger_time":1551790390775,"fix_duration":571.8369162492675,"trial":9,"RT":746,"MT":561,"sideResp":2,"stimulus":[],"xmouse":[808,807,806,806,805,804,804,804,804,804,804,804,804,804,804,804,804,804,804,804,803,803,803,802,802,802,802,802,802,802,802,802,802,802,802,803,815,844,872,895,916,946,956,962,967,975,994,1005,1021,1027,1031,1043,1046,1050,1053,1053,1053,1053,1054,1055,1057,1059,1073,1088,1102,1118],"ymouse":[540,539,536,536,533,531,529,528,528,528,528,528,528,528,528,528,528,528,528,528,527,527,527,527,527,527,527,527,527,527,527,527,527,527,527,524,511,470,426,380,338,287,272,259,249,237,215,204,191,185,181,169,165,161,159,159,159,159,158,157,154,150,136,123,105,82],"timestamp_mouse":[6,26,60,66,87,106,126,147,166,187,206,226,246,267,286,306,327,346,366,385,406,427,446,466,486,506,526,547,565,586,606,627,646,667,686,706,726,746,766,786,806,827,846,867,887,907,927,946,966,986,1006,1027,1046,1066,1086,1106,1127,1146,1167,1185,1207,1226,1245,1266,1285,1306],"xSR":741.5,"ySR":501.8,"xT1":424.9,"yT1":0,"xT2":1058.1,"yT2":0,"toosoon":0,"cond_shown":"Incongruent","ratio_trial":200,"L_num":9,"L_den":15,"R_num":8,"R_den":10,"correct_side":2,"subjID":"NicollSofiaRinconCuellar30","gender":"1","school":"6","age":"11"},{"start_time":1551790392768,"click_time":1551790393556,"finger_time":1551790393376,"fix_duration":629.6098062982943,"trial":10,"RT":608,"MT":180,"sideResp":2,"stimulus":[],"xmouse":[798,798,798,798,798,798,798,798,798,798,798,798,798,798,798,798,798,798,798,798,798,798,798,798,798,798,800,802,806,833,856,895,924,950,1000,1024,1038,1051,1057,1064],"ymouse":[556,556,556,556,556,556,556,556,556,556,556,556,556,556,556,556,556,556,556,556,556,556,555,554,553,553,550,547,543,524,509,475,424,362,232,173,128,96,81,65],"timestamp_mouse":[8,26,47,67,87,108,127,147,167,187,207,227,247,268,287,308,327,348,367,387,407,428,447,468,487,508,527,547,567,588,607,627,648,667,688,707,727,748,767,788],"xSR":741.5,"ySR":501.8,"xT1":424.9,"yT1":0,"xT2":1058.1,"yT2":0,"toosoon":0,"cond_shown":"Congruent","ratio_trial":300,"L_num":8,"L_den":16,"R_num":1,"R_den":5,"correct_side":1,"subjID":"NicollSofiaRinconCuellar30","gender":"1","school":"6","age":"11"},{"start_time":1551790398801,"click_time":1551790400956,"finger_time":1551790400356,"fix_duration":1444.1312666485192,"trial":11,"RT":1555,"MT":600,"sideResp":2,"stimulus":[],"xmouse":[788,788,788,788,788,789,789,790,791,792,793,794,795,797,798,799,799,800,800,800,800,800,800,800,800,800,800,800,800,800,800,800,800,800,800,800,800,800,800,800,800,800,800,800,800,800,800,800,800,800,800,800,800,800,800,800,800,800,800,800,800,800,800,800,800,800,800,800,800,800,800,800,800,800,800,800,802,851,914,1021,1095,1157,1226,1226,1226,1226,1226,1226,1226,1226,1226,1226,1226,1226,1226,1226,1226,1212,1198,1193,1188,1184,1177,1169,1165,1164,1161,1154],"ymouse":[555,555,555,555,555,555,555,555,555,555,555,555,555,555,555,555,555,555,555,555,555,555,555,555,555,555,555,555,555,555,555,555,555,555,555,555,555,555,555,555,555,555,555,555,555,555,555,555,555,555,555,555,555,555,555,555,555,555,555,555,555,555,555,555,555,555,555,555,555,555,555,555,555,555,555,555,554,524,479,377,296,202,41,41,41,41,41,41,41,41,41,41,41,41,41,41,41,3,24,30,37,42,47,53,56,57,58,60],"timestamp_mouse":[15,38,55,75,95,114,134,155,174,194,214,234,254,274,295,314,334,355,374,394,414,434,454,474,496,515,534,555,574,594,614,634,654,675,695,714,734,754,775,795,814,834,854,874,895,915,934,954,975,994,1015,1033,1054,1074,1095,1114,1135,1154,1174,1194,1214,1234,1254,1275,1294,1314,1334,1354,1375,1394,1414,1434,1454,1474,1495,1515,1534,1555,1574,1594,1614,1634,1654,1675,1694,1714,1734,1755,1774,1793,1814,1834,1855,1874,1895,1915,1934,1955,1975,1995,2015,2035,2054,2075,2095,2113,2135,2155],"xSR":741.5,"ySR":501.8,"xT1":424.9,"yT1":0,"xT2":1058.1,"yT2":0,"toosoon":0,"cond_shown":"Congruent","ratio_trial":100,"L_num":11,"L_den":22,"R_num":6,"R_den":15,"correct_side":1,"subjID":"NicollSofiaRinconCuellar30","gender":"1","school":"6","age":"11"},{"start_time":1551790404207,"click_time":1551790405475,"finger_time":1551790405115,"fix_duration":250,"trial":12,"RT":908,"MT":360,"sideResp":2,"stimulus":[],"xmouse":[807,806,806,806,806,806,806,806,806,806,806,806,806,806,806,806,806,806,806,806,806,806,806,806,806,806,806,806,806,806,806,806,806,806,806,806,806,806,806,806,806,807,808,817,832,865,917,1054,1135,1177,1198,1210,1217,1220,1222,1222,1222,1210,1204,1197,1195,1190,1181,1155],"ymouse":[558,558,558,558,558,558,558,558,558,558,558,558,558,558,558,558,558,558,558,558,558,558,558,558,558,558,558,558,558,558,558,558,558,558,558,558,558,558,558,558,558,554,553,543,527,485,416,260,182,148,128,115,104,96,82,64,44,17,13,11,11,11,11,15],"timestamp_mouse":[8,29,48,68,88,108,129,148,168,188,208,228,249,268,289,309,328,348,368,388,408,429,448,468,489,508,528,548,568,589,608,628,648,667,689,709,728,748,768,788,808,828,848,868,888,908,928,949,969,988,1008,1028,1049,1068,1088,1109,1128,1149,1168,1188,1209,1228,1248,1268],"xSR":741.5,"ySR":501.8,"xT1":424.9,"yT1":0,"xT2":1058.1,"yT2":0,"toosoon":0,"cond_shown":"Congruent","ratio_trial":100,"L_num":10,"L_den":25,"R_num":3,"R_den":10,"correct_side":1,"subjID":"NicollSofiaRinconCuellar30","gender":"1","school":"6","age":"11"},{"start_time":1551790412477,"click_time":1551790413475,"finger_time":1551790413275,"fix_duration":1139.222223057355,"trial":13,"RT":798,"MT":200,"sideResp":1,"stimulus":[],"xmouse":[780,780,780,780,780,780,780,780,780,780,780,780,780,780,780,780,780,780,780,780,780,780,780,780,780,780,780,780,780,780,780,780,780,780,780,780,778,770,754,686,636,580,535,505,498,498,496,495,489,479],"ymouse":[575,574,574,574,574,574,574,574,574,574,574,574,574,574,574,574,574,574,574,574,574,574,574,574,574,574,574,574,574,574,574,574,574,574,574,574,570,559,537,424,356,289,236,195,180,177,169,164,129,90],"timestamp_mouse":[18,44,59,77,98,119,139,159,179,198,218,238,259,279,298,317,338,358,379,398,418,439,458,479,499,518,539,558,578,598,618,639,659,679,698,719,739,758,778,798,818,839,858,879,897,918,938,959,979,998],"xSR":741.5,"ySR":501.8,"xT1":424.9,"yT1":0,"xT2":1058.1,"yT2":0,"toosoon":0,"cond_shown":"Congruent","ratio_trial":200,"L_num":11,"L_den":22,"R_num":3,"R_den":10,"correct_side":1,"subjID":"NicollSofiaRinconCuellar30","gender":"1","school":"6","age":"11"},{"start_time":1551790414647,"click_time":1551790415835,"finger_time":1551790415075,"fix_duration":250,"trial":14,"RT":428,"MT":760,"sideResp":1,"stimulus":[],"xmouse":[785,785,785,785,785,785,785,785,785,785,785,785,785,785,785,785,785,785,785,787,799,855,892,926,948,961,974,983,988,995,1002,1004,1005,1005,1005,1000,995,989,987,987,992,999,1006,1013,1021,1039,1043,1045,1045,1045,1045,1039,1024,1001,970,836,705,612,530,474],"ymouse":[562,562,562,562,562,562,562,562,562,562,562,562,562,562,562,562,562,562,561,558,542,464,412,365,335,315,285,265,251,234,208,198,190,185,181,164,153,133,117,99,73,62,54,47,40,33,32,31,31,31,31,33,35,38,40,42,44,39,26,22],"timestamp_mouse":[8,28,48,69,89,109,129,149,169,188,208,229,248,268,289,308,328,348,368,389,408,428,448,468,488,509,528,548,569,589,608,628,648,669,688,709,727,749,768,789,808,828,848,868,888,908,927,948,969,988,1010,1028,1049,1068,1089,1108,1128,1149,1168,1188],"xSR":741.5,"ySR":501.8,"xT1":424.9,"yT1":0,"xT2":1058.1,"yT2":0,"toosoon":0,"cond_shown":"Congruent","ratio_trial":300,"L_num":20,"L_den":25,"R_num":8,"R_den":16,"correct_side":1,"subjID":"NicollSofiaRinconCuellar30","gender":"1","school":"6","age":"11"},{"start_time":1551790417168,"click_time":1551790417976,"finger_time":1551790417656,"fix_duration":250,"trial":15,"RT":488,"MT":320,"sideResp":2,"stimulus":[],"xmouse":[813,812,811,811,807,806,805,805,804,804,804,804,804,804,804,804,803,801,800,797,797,797,796,795,791,783,771,760,753,750,750,750,750,750,757,782,832,908,980,1039,1100],"ymouse":[560,560,560,560,559,559,559,559,559,559,559,559,559,559,559,559,559,559,559,559,559,559,558,551,491,431,380,353,336,328,328,328,328,328,322,305,263,200,139,87,17],"timestamp_mouse":[13,27,55,68,87,108,127,147,168,186,207,228,248,268,287,308,327,347,367,387,407,428,448,467,488,507,527,547,567,587,607,627,647,668,689,707,726,748,767,787,808],"xSR":741.5,"ySR":501.8,"xT1":424.9,"yT1":0,"xT2":1058.1,"yT2":0,"toosoon":0,"cond_shown":"Incongruent","ratio_trial":300,"L_num":13,"L_den":26,"R_num":12,"R_den":15,"correct_side":2,"subjID":"NicollSofiaRinconCuellar30","gender":"1","school":"6","age":"11"},{"start_time":1551790419107,"click_time":1551790419995,"finger_time":1551790419895,"fix_duration":250,"trial":16,"RT":788,"MT":100,"sideResp":1,"stimulus":[],"xmouse":[784,784,784,784,784,784,784,784,784,784,784,784,784,784,784,784,784,784,784,784,784,784,784,784,784,784,784,784,784,784,784,784,784,784,784,782,778,759,744,722,687,652,582,529,508],"ymouse":[584,584,584,583,583,583,583,583,583,583,583,583,583,583,583,583,583,583,583,583,583,583,583,583,583,583,583,583,583,583,583,583,583,583,583,579,576,546,528,491,430,357,188,60,18],"timestamp_mouse":[8,29,48,68,88,109,128,148,168,188,209,228,249,267,289,308,329,348,368,387,408,428,448,468,489,508,528,548,569,588,609,628,648,668,689,709,728,749,769,788,809,828,848,868,888],"xSR":741.5,"ySR":501.8,"xT1":424.9,"yT1":0,"xT2":1058.1,"yT2":0,"toosoon":0,"cond_shown":"Incongruent","ratio_trial":200,"L_num":4,"L_den":5,"R_num":6,"R_den":10,"correct_side":1,"subjID":"NicollSofiaRinconCuellar30","gender":"1","school":"6","age":"11"},{"start_time":1551790421367,"click_time":1551790423656,"finger_time":1551790423195,"fix_duration":250,"trial":17,"RT":1828,"MT":461,"sideResp":2,"stimulus":[],"xmouse":[808,806,806,806,806,806,806,806,803,801,801,800,800,800,800,800,800,800,800,800,800,800,800,800,800,800,800,800,800,800,800,800,800,800,800,800,800,800,800,800,800,800,800,800,800,800,800,800,800,800,800,800,800,800,800,800,800,800,800,800,800,800,800,800,800,800,800,800,800,800,800,800,800,800,800,800,800,800,800,800,800,800,800,800,800,800,800,800,799,802,813,842,875,919,964,1033,1057,1072,1079,1081,1082,1082,1082,1082,1082,1082,1082,1082,1082,1084,1087,1088,1089,1091,1096],"ymouse":[548,548,548,548,548,548,548,549,550,551,551,552,552,552,552,552,552,552,552,552,552,552,552,552,552,552,552,552,552,552,552,552,552,552,552,552,552,552,552,552,552,552,552,552,552,552,552,552,552,552,552,552,552,552,552,552,552,552,552,552,552,552,552,552,552,552,552,552,552,552,552,552,552,552,552,552,552,552,552,552,552,552,552,552,552,552,552,552,552,548,540,511,473,422,368,272,230,197,180,175,171,169,168,165,161,151,147,141,136,129,116,110,107,102,90],"timestamp_mouse":[12,28,56,68,89,108,128,148,169,188,209,228,249,268,288,308,328,348,369,387,409,428,447,468,489,509,528,548,568,589,609,629,649,669,688,708,728,748,768,789,808,828,848,868,889,909,928,949,968,988,1008,1029,1048,1068,1088,1108,1128,1148,1168,1187,1208,1228,1249,1268,1288,1308,1329,1348,1368,1389,1409,1428,1448,1469,1488,1508,1529,1549,1569,1589,1609,1629,1647,1669,1688,1708,1728,1749,1768,1789,1809,1828,1849,1868,1889,1909,1928,1948,1968,1988,2007,2028,2048,2068,2088,2109,2128,2149,2168,2189,2208,2228,2248,2269,2288],"xSR":741.5,"ySR":501.8,"xT1":424.9,"yT1":0,"xT2":1058.1,"yT2":0,"toosoon":0,"cond_shown":"Incongruent","ratio_trial":100,"L_num":13,"L_den":26,"R_num":12,"R_den":20,"correct_side":2,"subjID":"NicollSofiaRinconCuellar30","gender":"1","school":"6","age":"11"},{"start_time":1551790425421,"click_time":1551790427575,"finger_time":1551790427116,"fix_duration":705.2289803094751,"trial":18,"RT":1695,"MT":459,"sideResp":1,"stimulus":[],"xmouse":[812,811,810,809,808,807,806,806,805,805,805,805,805,805,805,805,805,805,805,805,805,805,805,805,805,805,805,805,805,805,805,805,805,805,805,802,800,795,793,791,790,789,789,789,789,789,789,789,789,789,789,789,789,789,789,789,789,789,789,789,789,789,789,789,789,789,789,789,789,789,789,789,789,789,789,789,788,786,785,783,781,780,775,771,766,760,747,740,734,724,715,686,671,661,652,644,631,623,612,603,590,560,550,540,535,532,527,523],"ymouse":[537,537,537,537,537,537,537,537,537,537,537,537,537,537,537,537,537,537,537,537,537,537,537,537,537,537,537,537,537,537,537,537,537,537,537,537,537,536,535,534,533,532,532,532,532,532,532,532,532,532,532,532,532,532,532,532,532,532,532,532,532,532,532,532,532,532,532,532,532,532,532,532,532,532,532,532,531,529,527,525,522,520,513,508,501,494,479,472,467,455,446,406,382,355,328,298,252,236,213,195,173,129,114,103,96,93,90,86],"timestamp_mouse":[15,43,54,75,95,115,134,155,174,194,214,234,254,274,293,315,334,355,374,394,414,435,454,475,494,515,533,555,574,595,614,635,653,674,694,714,734,755,775,794,814,834,855,875,893,914,934,954,975,994,1014,1035,1053,1074,1094,1115,1135,1154,1174,1194,1214,1234,1254,1273,1294,1315,1334,1354,1374,1395,1414,1435,1454,1474,1495,1514,1534,1554,1575,1595,1615,1634,1655,1673,1695,1714,1734,1754,1775,1795,1814,1834,1853,1874,1894,1914,1935,1954,1973,1993,2014,2034,2054,2074,2094,2115,2135,2154],"xSR":741.5,"ySR":501.8,"xT1":424.9,"yT1":0,"xT2":1058.1,"yT2":0,"toosoon":0,"cond_shown":"Incongruent","ratio_trial":100,"L_num":8,"L_den":16,"R_num":6,"R_den":10,"correct_side":2,"subjID":"NicollSofiaRinconCuellar30","gender":"1","school":"6","age":"11"},{"start_time":1551790428707,"click_time":1551790429676,"finger_time":1551790429455,"fix_duration":250,"trial":19,"RT":748,"MT":221,"sideResp":2,"stimulus":[],"xmouse":[800,800,800,800,800,800,800,800,800,800,800,800,800,800,800,800,800,800,800,800,800,800,800,800,800,800,800,800,800,800,800,800,800,800,800,801,805,842,875,934,987,1022,1054,1059,1063,1065,1067,1070,1074],"ymouse":[554,554,554,554,554,554,554,554,554,554,554,554,554,554,554,554,554,554,554,554,554,554,554,554,554,554,554,554,554,554,554,554,554,554,554,554,550,499,450,364,292,231,160,141,126,119,112,105,92],"timestamp_mouse":[8,34,49,69,89,109,128,148,168,189,209,228,247,268,288,309,329,349,368,388,408,428,448,469,488,508,529,548,568,588,608,629,647,667,689,709,728,748,768,788,809,828,849,869,888,907,928,948,969],"xSR":741.5,"ySR":501.8,"xT1":424.9,"yT1":0,"xT2":1058.1,"yT2":0,"toosoon":0,"cond_shown":"Congruent","ratio_trial":100,"L_num":7,"L_den":14,"R_num":9,"R_den":15,"correct_side":2,"subjID":"NicollSofiaRinconCuellar30","gender":"1","school":"6","age":"11"},{"start_time":1551790431703,"click_time":1551790433576,"finger_time":1551790433496,"fix_duration":1225.1310754728183,"trial":20,"RT":1793,"MT":80,"sideResp":2,"stimulus":[],"xmouse":[793,793,793,793,793,793,793,793,793,793,793,793,793,793,793,793,793,793,793,793,793,793,793,793,793,793,793,793,793,793,793,793,793,793,793,793,793,793,793,793,793,793,793,793,793,793,793,793,793,793,793,793,793,793,793,793,793,793,793,793,793,793,793,793,793,793,793,793,793,793,793,793,793,793,793,793,793,793,793,793,793,793,793,793,793,793,793,793,806,831,885,951,1018,1102],"ymouse":[537,537,537,537,537,537,537,537,537,537,537,537,537,537,537,537,537,537,537,537,537,537,537,537,537,537,537,537,537,537,537,537,537,537,537,537,537,537,537,537,537,537,537,537,537,537,537,537,537,537,537,537,537,537,537,537,537,537,537,537,537,537,537,537,537,537,537,537,537,537,537,537,537,537,537,537,537,537,537,537,537,537,537,537,537,537,537,531,507,457,369,279,194,94],"timestamp_mouse":[13,44,53,72,92,112,133,152,172,192,212,232,252,272,292,312,332,352,372,392,412,432,452,472,491,513,532,552,573,592,612,632,651,672,692,712,732,752,772,792,812,831,853,873,892,913,933,953,972,992,1012,1033,1052,1071,1092,1113,1133,1152,1173,1192,1212,1232,1252,1273,1292,1313,1331,1352,1372,1393,1412,1431,1452,1473,1492,1513,1533,1552,1572,1593,1612,1633,1653,1673,1692,1713,1733,1753,1773,1793,1813,1832,1852,1873],"xSR":741.5,"ySR":501.8,"xT1":424.9,"yT1":0,"xT2":1058.1,"yT2":0,"toosoon":0,"cond_shown":"Congruent","ratio_trial":200,"L_num":6,"L_den":12,"R_num":7,"R_den":10,"correct_side":2,"subjID":"NicollSofiaRinconCuellar30","gender":"1","school":"6","age":"11"},{"start_time":1551790435723,"click_time":1551790437015,"finger_time":1551790436635,"fix_duration":1144.3915137184417,"trial":21,"RT":912,"MT":380,"sideResp":1,"stimulus":[],"xmouse":[794,794,794,794,794,794,795,797,799,801,802,803,804,805,805,805,805,806,806,806,806,806,806,806,806,806,806,806,806,806,806,806,806,806,806,806,806,806,806,806,806,806,806,803,793,770,705,670,641,623,614,608,608,607,605,600,582,572,566,563,561,552,541,525,513],"ymouse":[546,546,546,546,546,545,545,546,548,549,550,551,553,553,553,553,554,554,556,556,556,556,556,556,556,556,556,556,556,556,556,556,556,556,556,556,556,556,556,556,556,556,556,551,530,489,363,285,227,191,175,164,163,162,159,155,137,129,124,121,120,117,112,102,96],"timestamp_mouse":[12,34,52,73,92,112,133,152,173,192,213,232,252,271,293,313,332,352,373,393,413,432,452,473,492,511,533,552,573,592,612,633,653,673,692,712,732,752,772,793,812,832,851,872,893,912,932,952,973,992,1012,1033,1052,1072,1093,1113,1133,1152,1172,1192,1213,1232,1252,1273,1292],"xSR":741.5,"ySR":501.8,"xT1":424.9,"yT1":0,"xT2":1058.1,"yT2":0,"toosoon":0,"cond_shown":"Incongruent","ratio_trial":100,"L_num":2,"L_den":4,"R_num":8,"R_den":20,"correct_side":1,"subjID":"NicollSofiaRinconCuellar30","gender":"1","school":"6","age":"11"},{"start_time":1551790443927,"click_time":1551790445175,"finger_time":1551790444715,"fix_duration":250,"trial":22,"RT":788,"MT":460,"sideResp":1,"stimulus":[],"xmouse":[774,774,774,774,774,774,774,774,774,774,774,774,774,774,774,774,774,774,774,774,774,774,774,774,774,774,774,774,774,774,774,774,774,774,774,774,774,769,759,743,716,647,616,587,560,560,560,560,560,560,560,560,560,560,560,560,560,560,560,560,560,560,431],"ymouse":[543,543,543,543,543,543,543,543,543,543,543,543,543,543,543,543,543,543,543,543,543,543,543,543,543,543,543,543,543,543,543,543,543,543,543,543,543,536,513,473,402,228,155,85,23,23,23,23,23,23,23,23,23,23,23,23,23,23,23,23,23,23,5],"timestamp_mouse":[8,27,60,68,89,108,127,148,168,188,207,229,248,268,288,308,327,349,367,387,409,428,447,468,488,509,527,548,569,589,607,629,648,668,688,709,729,749,768,788,808,829,848,868,888,909,929,949,967,988,1009,1028,1047,1068,1088,1109,1128,1148,1168,1189,1209,1229,1248],"xSR":741.5,"ySR":501.8,"xT1":424.9,"yT1":0,"xT2":1058.1,"yT2":0,"toosoon":0,"cond_shown":"Congruent","ratio_trial":200,"L_num":20,"L_den":25,"R_num":9,"R_den":15,"correct_side":1,"subjID":"NicollSofiaRinconCuellar30","gender":"1","school":"6","age":"11"},{"start_time":1551790447922,"click_time":1551790448856,"finger_time":1551790448756,"fix_duration":306.78733916521395,"trial":23,"RT":834,"MT":100,"sideResp":2,"stimulus":[],"xmouse":[795,795,795,795,795,795,795,795,795,795,795,795,795,795,795,795,795,795,795,797,798,799,805,806,807,808,808,808,808,808,808,808,808,808,808,808,808,808,810,813,830,860,960,1032,1060,1072,1084],"ymouse":[571,571,571,571,571,571,571,571,571,571,571,571,571,571,571,571,571,571,571,570,569,568,564,563,562,562,562,562,562,562,562,562,562,562,562,562,562,562,559,556,535,496,344,211,149,119,81],"timestamp_mouse":[13,47,53,72,94,114,133,152,173,193,213,233,252,273,293,313,332,352,373,392,414,432,453,473,494,514,532,554,573,592,614,633,652,673,693,714,732,753,774,792,813,834,853,873,893,914,933],"xSR":741.5,"ySR":501.8,"xT1":424.9,"yT1":0,"xT2":1058.1,"yT2":0,"toosoon":0,"cond_shown":"Incongruent","ratio_trial":300,"L_num":4,"L_den":20,"R_num":2,"R_den":4,"correct_side":2,"subjID":"NicollSofiaRinconCuellar30","gender":"1","school":"6","age":"11"},{"start_time":1551790450541,"click_time":1551790453015,"finger_time":1551790452055,"fix_duration":304.8176802211675,"trial":24,"RT":1514,"MT":960,"sideResp":1,"stimulus":[],"xmouse":[777,777,777,777,777,777,777,777,777,777,777,777,777,777,777,777,777,777,777,777,777,777,777,777,777,777,777,777,777,777,777,777,777,778,778,778,778,779,779,779,779,779,779,779,779,779,779,779,779,779,779,779,779,779,779,779,779,779,779,779,779,779,779,779,779,779,779,779,779,779,780,782,790,801,823,865,962,984,991,993,993,993,993,993,993,993,993,993,993,991,978,962,944,923,903,855,809,752,684,572,572,572,572,572,572,572,572,572,572,572,572,572,380,389,396,398,404,410,416,418,418,419,424,427],"ymouse":[556,556,556,556,556,556,556,556,556,556,556,556,556,556,556,556,556,556,556,556,556,556,556,556,556,556,556,556,556,556,556,556,556,555,554,552,551,550,550,550,549,549,549,549,549,549,549,549,549,549,549,549,549,549,549,549,549,549,549,549,549,549,549,549,549,549,549,549,549,549,548,547,543,536,515,464,351,326,316,313,313,313,313,313,313,313,313,313,313,312,317,326,339,351,358,347,306,241,165,35,35,35,35,35,35,35,35,35,35,35,35,35,23,33,43,46,63,76,86,88,88,88,86,82],"timestamp_mouse":[14,35,54,75,95,115,134,154,174,194,214,235,254,274,295,314,334,354,374,395,414,434,454,473,494,514,533,554,575,594,615,635,653,674,694,715,734,754,774,793,815,834,853,873,895,914,934,954,973,995,1015,1034,1055,1074,1094,1115,1135,1154,1174,1194,1214,1235,1254,1274,1294,1315,1333,1353,1374,1394,1414,1435,1455,1474,1493,1514,1535,1554,1575,1593,1615,1634,1654,1673,1694,1715,1734,1755,1774,1795,1814,1834,1854,1875,1895,1916,1933,1954,1975,1995,2015,2034,2054,2075,2094,2114,2134,2153,2174,2194,2215,2233,2255,2274,2294,2314,2334,2354,2374,2393,2414,2434,2455,2474],"xSR":741.5,"ySR":501.8,"xT1":424.9,"yT1":0,"xT2":1058.1,"yT2":0,"toosoon":0,"cond_shown":"Congruent","ratio_trial":100,"L_num":3,"L_den":6,"R_num":2,"R_den":5,"correct_side":1,"subjID":"NicollSofiaRinconCuellar30","gender":"1","school":"6","age":"11"},{"start_time":1551790455284,"click_time":1551790456376,"finger_time":1551790455976,"fix_duration":1286.0040407221811,"trial":25,"RT":692,"MT":400,"sideResp":2,"stimulus":[],"xmouse":[797,797,796,796,796,798,799,800,801,801,801,801,801,801,801,801,801,801,801,801,801,801,801,801,801,801,801,801,801,801,801,801,805,819,860,897,925,944,962,964,969,970,975,975,975,975,975,975,975,975,975,975,1032,1050,1085],"ymouse":[552,553,555,558,561,566,567,569,569,569,569,569,569,569,569,569,569,569,569,569,569,569,569,569,569,569,569,569,569,569,569,569,564,539,440,347,262,192,102,68,36,16,0,0,0,0,0,0,0,0,0,0,17,37,70],"timestamp_mouse":[13,30,51,72,91,111,132,151,172,192,211,232,250,271,291,310,331,350,372,392,410,430,451,471,491,511,531,551,571,592,611,632,652,671,692,711,732,751,773,791,811,832,851,872,892,911,931,951,971,991,1012,1032,1051,1072,1092],"xSR":741.5,"ySR":501.8,"xT1":424.9,"yT1":0,"xT2":1058.1,"yT2":0,"toosoon":0,"cond_shown":"Incongruent","ratio_trial":300,"L_num":4,"L_den":20,"R_num":2,"R_den":4,"correct_side":2,"subjID":"NicollSofiaRinconCuellar30","gender":"1","school":"6","age":"11"},{"start_time":1551790457860,"click_time":1551790459056,"finger_time":1551790458556,"fix_duration":603.7258266916488,"trial":26,"RT":696,"MT":500,"sideResp":1,"stimulus":[],"xmouse":[806,806,806,806,806,806,806,806,806,806,806,806,806,806,806,806,806,806,805,805,805,805,805,805,805,805,805,805,805,805,804,802,798,792,780,737,701,679,666,653,651,651,651,651,651,651,650,644,637,628,615,610,602,595,585,561,545,536,532,523],"ymouse":[533,533,533,533,533,533,533,533,533,533,533,533,533,533,533,533,533,533,532,531,531,530,530,530,530,530,530,530,530,529,527,525,520,510,492,418,357,324,304,287,285,284,284,284,284,284,282,261,237,212,181,168,151,130,108,72,55,48,46,44],"timestamp_mouse":[15,35,55,75,94,114,136,156,175,195,215,236,255,275,295,315,335,355,376,395,415,435,454,475,496,515,535,555,576,595,615,635,656,675,696,715,735,756,776,795,815,835,855,876,894,914,935,955,974,995,1015,1035,1055,1075,1095,1115,1134,1154,1175,1196],"xSR":741.5,"ySR":501.8,"xT1":424.9,"yT1":0,"xT2":1058.1,"yT2":0,"toosoon":0,"cond_shown":"Incongruent","ratio_trial":100,"L_num":8,"L_den":16,"R_num":6,"R_den":10,"correct_side":2,"subjID":"NicollSofiaRinconCuellar30","gender":"1","school":"6","age":"11"},{"start_time":1551790460980,"click_time":1551790461995,"finger_time":1551790461556,"fix_duration":1003.2588406160413,"trial":27,"RT":576,"MT":439,"sideResp":2,"stimulus":[],"xmouse":[805,804,801,801,801,801,801,801,801,801,801,801,801,801,801,800,801,802,804,808,810,810,811,811,812,813,815,819,827,892,937,981,1018,1018,1018,1018,1018,1018,1018,1018,1018,1018,1018,1018,1018,1018,1018,1018,1018,1018,1076],"ymouse":[552,552,551,551,551,551,551,551,551,551,551,551,551,551,551,550,549,548,547,543,540,539,538,533,532,528,522,509,475,248,141,53,1,1,1,1,1,1,1,1,1,1,1,1,1,1,1,1,1,1,15],"timestamp_mouse":[16,35,56,75,96,116,134,155,174,195,215,235,256,276,294,315,335,355,376,395,415,435,455,475,495,515,535,555,576,595,616,635,656,676,695,716,735,755,774,794,814,835,855,875,895,915,935,956,976,995,1015],"xSR":741.5,"ySR":501.8,"xT1":424.9,"yT1":0,"xT2":1058.1,"yT2":0,"toosoon":0,"cond_shown":"Congruent","ratio_trial":100,"L_num":4,"L_den":8,"R_num":6,"R_den":10,"correct_side":2,"subjID":"NicollSofiaRinconCuellar30","gender":"1","school":"6","age":"11"},{"start_time":1551790464509,"click_time":1551790465776,"finger_time":1551790465515,"fix_duration":1292.0939442962174,"trial":28,"RT":1006,"MT":261,"sideResp":2,"stimulus":[],"xmouse":[774,774,774,774,774,774,774,774,774,774,772,770,769,768,768,768,768,768,768,768,768,770,770,770,770,770,770,770,770,770,770,770,770,770,770,770,770,770,770,770,770,770,771,775,779,785,790,794,814,826,844,870,950,1000,1033,1040,1047,1056,1060,1067,1073,1079,1087,1104],"ymouse":[529,529,529,529,529,529,529,529,529,529,535,539,549,560,560,560,560,560,560,561,561,561,561,561,561,561,561,561,561,561,561,561,561,561,561,561,561,561,561,561,561,561,561,568,570,573,573,573,560,549,535,514,425,354,287,255,229,190,176,161,144,122,100,50],"timestamp_mouse":[9,40,46,65,87,107,127,146,167,186,206,226,246,266,286,306,326,346,366,386,406,426,445,467,486,506,526,546,567,587,606,627,646,666,686,706,727,747,767,786,806,826,846,866,886,907,927,946,965,986,1006,1026,1047,1065,1086,1107,1126,1147,1166,1186,1207,1226,1245,1267],"xSR":741.5,"ySR":501.8,"xT1":424.9,"yT1":0,"xT2":1058.1,"yT2":0,"toosoon":0,"cond_shown":"Incongruent","ratio_trial":200,"L_num":4,"L_den":30,"R_num":1,"R_den":3,"correct_side":2,"subjID":"NicollSofiaRinconCuellar30","gender":"1","school":"6","age":"11"},{"start_time":1551790467982,"click_time":1551790468956,"finger_time":1551790468535,"fix_duration":1005.6187855881512,"trial":29,"RT":553,"MT":421,"sideResp":1,"stimulus":[],"xmouse":[804,804,804,804,804,804,804,804,804,804,804,804,804,804,804,804,804,804,804,804,804,804,804,804,802,794,786,772,741,727,707,689,664,616,602,590,584,580,579,579,579,582,583,579,571,566,557,546,519],"ymouse":[560,560,560,560,560,560,560,560,560,560,560,560,560,560,560,560,560,560,560,560,560,560,560,560,555,538,516,482,433,416,390,365,329,262,243,225,208,192,167,156,137,121,107,96,83,79,75,71,64],"timestamp_mouse":[14,38,52,72,93,113,132,153,173,193,213,233,253,274,294,313,333,353,374,392,413,433,454,474,494,514,533,553,574,593,613,634,652,674,693,713,733,753,774,793,813,834,853,873,894,913,932,953,974],"xSR":741.5,"ySR":501.8,"xT1":424.9,"yT1":0,"xT2":1058.1,"yT2":0,"toosoon":0,"cond_shown":"Incongruent","ratio_trial":200,"L_num":4,"L_den":5,"R_num":6,"R_den":10,"correct_side":1,"subjID":"NicollSofiaRinconCuellar30","gender":"1","school":"6","age":"11"},{"start_time":1551790474317,"click_time":1551790475156,"finger_time":1551790475055,"fix_duration":1300.520325297858,"trial":30,"RT":738,"MT":101,"sideResp":1,"stimulus":[],"xmouse":[814,814,814,814,813,812,810,809,809,808,806,805,803,803,802,802,802,801,801,801,801,801,801,801,801,801,801,801,802,802,802,802,803,803,803,803,781,755,710,653,585,464],"ymouse":[577,577,577,577,577,577,576,576,576,576,575,575,575,575,575,575,574,574,574,574,574,574,574,573,572,572,571,570,570,569,569,569,566,564,560,552,490,425,350,264,176,27],"timestamp_mouse":[17,40,58,78,98,119,139,159,178,199,218,238,259,278,298,318,339,358,378,398,417,439,459,479,498,517,539,557,578,599,618,637,659,679,698,718,738,757,778,799,818,838],"xSR":741.5,"ySR":501.8,"xT1":424.9,"yT1":0,"xT2":1058.1,"yT2":0,"toosoon":0,"cond_shown":"Congruent","ratio_trial":200,"L_num":12,"L_den":20,"R_num":6,"R_den":15,"correct_side":1,"subjID":"NicollSofiaRinconCuellar30","gender":"1","school":"6","age":"11"},{"start_time":1551790477401,"click_time":1551790478496,"finger_time":1551790478395,"fix_duration":1064.5292261717054,"trial":31,"RT":994,"MT":101,"sideResp":2,"stimulus":[],"xmouse":[792,792,792,792,792,792,792,792,792,792,792,792,792,792,792,792,792,792,792,792,793,794,795,797,798,799,800,800,800,800,800,800,800,800,800,800,800,800,800,800,800,800,800,800,800,800,800,800,803,817,845,884,979,1033,1083],"ymouse":[553,553,553,553,553,553,553,553,553,553,553,553,553,553,553,553,553,553,553,553,552,549,547,542,538,536,534,534,534,534,534,534,534,534,534,534,534,534,534,534,534,534,534,534,534,534,534,534,523,491,428,352,194,115,47],"timestamp_mouse":[14,34,55,73,94,114,134,155,173,195,214,247,253,274,294,315,335,355,374,394,414,435,454,475,494,514,535,554,573,595,613,635,655,675,695,714,734,755,774,794,814,834,855,874,895,914,935,954,975,994,1014,1033,1055,1074,1095],"xSR":741.5,"ySR":501.8,"xT1":424.9,"yT1":0,"xT2":1058.1,"yT2":0,"toosoon":0,"cond_shown":"Congruent","ratio_trial":100,"L_num":11,"L_den":22,"R_num":4,"R_den":10,"correct_side":1,"subjID":"NicollSofiaRinconCuellar30","gender":"1","school":"6","age":"11"},{"start_time":1551790481234,"click_time":1551790482355,"finger_time":1551790481756,"fix_duration":1117.4370359570023,"trial":32,"RT":522,"MT":599,"sideResp":1,"stimulus":[],"xmouse":[797,797,797,797,797,797,797,797,797,797,797,797,797,797,797,797,797,797,797,797,797,797,795,788,782,775,759,752,747,741,737,732,730,724,716,705,687,647,634,628,624,612,600,589,574,565,550,545,543,543,543,541,537,535,532,527,522],"ymouse":[531,531,531,531,531,531,531,531,531,531,531,531,531,531,531,531,531,531,531,531,531,531,529,526,521,516,500,490,483,473,468,456,444,426,400,371,325,231,200,191,183,166,151,138,128,121,113,110,110,110,109,107,87,71,53,37,24],"timestamp_mouse":[9,21,41,62,81,101,121,142,162,180,202,221,242,261,281,301,321,340,362,382,402,421,442,461,481,502,522,540,561,581,601,622,641,661,681,702,720,741,761,782,802,822,842,862,882,901,922,940,960,982,1002,1021,1042,1061,1081,1101,1121],"xSR":741.5,"ySR":501.8,"xT1":424.9,"yT1":0,"xT2":1058.1,"yT2":0,"toosoon":0,"cond_shown":"Incongruent","ratio_trial":100,"L_num":3,"L_den":5,"R_num":11,"R_den":22,"correct_side":1,"subjID":"NicollSofiaRinconCuellar30","gender":"1","school":"6","age":"11"},{"start_time":1551790483937,"click_time":1551790485175,"finger_time":1551790484755,"fix_duration":280.39368574627156,"trial":33,"RT":818,"MT":420,"sideResp":1,"stimulus":[],"xmouse":[837,837,837,837,837,837,837,837,835,834,825,819,802,790,776,763,762,762,762,761,761,762,765,766,766,766,766,766,766,766,764,763,760,760,759,759,759,757,755,751,743,721,686,646,603,545,436,404,392,388,387,387,387,387,387,389,395,401,408,415,420,427],"ymouse":[557,557,557,557,557,557,557,557,557,557,556,555,553,551,548,546,545,545,545,544,537,535,530,526,525,524,524,524,523,521,519,518,515,514,514,514,514,512,510,507,501,477,439,388,338,268,125,79,57,47,43,43,43,43,43,43,43,43,43,43,43,46],"timestamp_mouse":[17,38,58,78,97,119,138,158,178,198,219,239,258,278,299,318,338,358,379,399,419,439,458,479,498,517,539,558,579,598,618,638,658,679,698,719,739,758,778,799,818,839,858,878,898,918,939,959,978,998,1019,1038,1058,1078,1099,1118,1138,1159,1179,1199,1217,1237],"xSR":741.5,"ySR":501.8,"xT1":424.9,"yT1":0,"xT2":1058.1,"yT2":0,"toosoon":0,"cond_shown":"Congruent","ratio_trial":200,"L_num":12,"L_den":20,"R_num":6,"R_den":15,"correct_side":1,"subjID":"NicollSofiaRinconCuellar30","gender":"1","school":"6","age":"11"},{"start_time":1551790486839,"click_time":1551790489896,"finger_time":1551790489475,"fix_duration":563.002635826877,"trial":34,"RT":2636,"MT":421,"sideResp":2,"stimulus":[],"xmouse":[789,789,789,789,789,789,789,789,789,789,789,789,789,789,789,789,789,789,789,789,789,789,789,789,789,789,789,789,789,789,789,789,789,789,790,791,792,793,793,793,793,794,794,794,794,794,794,794,794,794,794,794,794,794,794,794,794,794,794,794,794,794,795,795,796,796,796,796,796,796,796,796,795,794,794,792,790,789,788,788,788,788,788,788,788,788,788,788,788,788,788,788,787,787,787,786,786,786,786,786,786,786,786,786,786,786,786,786,786,786,786,786,786,786,786,786,786,786,786,786,786,786,786,787,788,788,789,790,792,796,803,829,861,896,949,990,1050,1050,1050,1050,1050,1050,1050,1050,1050,1050,1050,1050,1050,1050,1050,1050,1067],"ymouse":[548,548,548,548,548,548,548,548,548,548,548,548,548,548,548,548,548,548,548,548,548,548,548,548,548,548,548,548,548,548,548,548,548,548,548,546,543,540,539,539,539,538,538,538,538,538,538,538,538,538,538,538,538,538,538,538,538,538,538,538,538,538,538,537,536,536,536,536,536,536,536,536,538,540,540,542,546,549,552,553,553,553,553,553,553,553,553,553,553,553,555,557,559,559,560,560,560,560,560,560,560,560,560,560,560,560,560,560,560,560,560,560,557,557,557,557,557,557,557,557,556,555,553,552,551,548,545,541,537,529,515,470,419,353,255,155,11,11,11,11,11,11,11,11,11,11,11,11,11,11,11,11,55],"timestamp_mouse":[16,35,57,76,96,117,136,156,176,196,216,236,256,277,295,316,336,357,377,397,416,436,456,476,497,517,536,555,577,597,617,637,656,677,696,717,737,755,776,796,815,836,856,877,895,917,937,956,977,996,1017,1037,1055,1075,1096,1115,1137,1156,1177,1196,1216,1237,1255,1276,1296,1316,1337,1357,1377,1395,1416,1437,1456,1476,1496,1518,1536,1556,1576,1597,1616,1637,1657,1676,1695,1717,1737,1757,1777,1796,1815,1835,1855,1875,1897,1917,1935,1957,1975,1997,2016,2036,2056,2077,2096,2116,2136,2157,2177,2197,2216,2237,2257,2276,2296,2316,2337,2356,2376,2397,2416,2436,2456,2476,2497,2515,2535,2556,2576,2596,2616,2636,2656,2677,2697,2716,2737,2757,2777,2796,2817,2836,2856,2876,2896,2916,2936,2956,2976,2997,3016,3036,3056],"xSR":741.5,"ySR":501.8,"xT1":424.9,"yT1":0,"xT2":1058.1,"yT2":0,"toosoon":0,"cond_shown":"Incongruent","ratio_trial":300,"L_num":4,"L_den":20,"R_num":2,"R_den":4,"correct_side":2,"subjID":"NicollSofiaRinconCuellar30","gender":"1","school":"6","age":"11"},{"start_time":1551790491320,"click_time":1551790492316,"finger_time":1551790491994,"fix_duration":304.2564663112869,"trial":35,"RT":674,"MT":322,"sideResp":1,"stimulus":[],"xmouse":[773,773,773,773,773,773,773,773,773,773,773,773,773,773,773,773,773,773,773,773,773,773,773,773,773,773,773,773,773,773,773,769,753,731,701,654,541,510,501,497,496,495,495,495,495,495,498,505,506,504],"ymouse":[569,569,569,569,569,569,569,569,569,569,569,569,569,569,569,569,569,569,569,569,569,569,569,569,569,569,569,569,569,566,563,545,518,487,448,394,279,240,221,207,196,188,172,168,163,156,144,120,108,95],"timestamp_mouse":[16,36,55,75,95,115,135,155,175,195,215,235,255,275,295,315,334,354,375,395,415,434,454,474,494,514,534,554,575,594,616,635,656,674,696,715,736,755,776,795,816,835,855,875,895,915,935,955,975,996],"xSR":741.5,"ySR":501.8,"xT1":424.9,"yT1":0,"xT2":1058.1,"yT2":0,"toosoon":0,"cond_shown":"Congruent","ratio_trial":300,"L_num":20,"L_den":25,"R_num":9,"R_den":18,"correct_side":1,"subjID":"NicollSofiaRinconCuellar30","gender":"1","school":"6","age":"11"},{"start_time":1551790494466,"click_time":1551790496556,"finger_time":1551790495995,"fix_duration":1150.7089004911793,"trial":36,"RT":1529,"MT":561,"sideResp":1,"stimulus":[],"xmouse":[779,783,783,790,796,798,801,802,804,805,805,805,805,805,805,805,805,805,805,805,805,805,805,805,805,805,805,805,805,803,797,791,781,770,763,754,752,750,749,749,749,749,749,749,749,749,749,749,749,749,749,749,749,750,751,751,752,754,755,758,758,758,758,758,758,758,758,758,758,758,758,759,759,759,759,757,739,716,684,628,443,345,277,246,238,233,233,233,235,242,277,297,314,328,340,356,364,372,382,393,406,410,414,419,426],"ymouse":[549,549,549,549,549,549,549,549,549,549,549,549,549,549,549,549,549,549,549,549,549,549,549,549,549,549,549,549,549,549,549,549,544,541,537,531,529,526,526,525,525,525,525,525,525,525,525,525,525,525,525,525,524,524,524,524,524,524,524,525,525,525,525,525,525,525,525,525,525,525,525,525,525,525,519,506,471,438,401,342,210,145,93,65,49,34,32,31,31,31,33,36,40,42,43,45,45,45,45,42,32,27,21,16,13],"timestamp_mouse":[14,40,48,69,89,109,130,149,169,190,209,228,249,270,290,310,330,349,370,390,409,428,450,469,490,508,529,550,570,588,610,629,649,670,688,709,728,749,770,789,809,830,849,868,890,908,929,949,969,990,1009,1028,1049,1068,1090,1110,1129,1150,1169,1189,1210,1229,1248,1270,1289,1309,1330,1350,1369,1389,1410,1429,1450,1468,1489,1509,1529,1549,1569,1589,1610,1629,1650,1669,1690,1709,1729,1749,1769,1789,1809,1829,1848,1870,1889,1910,1930,1950,1970,1990,2010,2028,2049,2070,2090],"xSR":741.5,"ySR":501.8,"xT1":424.9,"yT1":0,"xT2":1058.1,"yT2":0,"toosoon":0,"cond_shown":"Congruent","ratio_trial":100,"L_num":11,"L_den":22,"R_num":6,"R_den":15,"correct_side":1,"subjID":"NicollSofiaRinconCuellar30","gender":"1","school":"6","age":"11"},{"start_time":1551790499909,"click_time":1551790501015,"finger_time":1551790500635,"fix_duration":1053.014492727137,"trial":37,"RT":726,"MT":380,"sideResp":2,"stimulus":[],"xmouse":[803,803,803,803,803,803,803,803,803,803,803,803,803,803,803,803,803,803,803,803,803,803,803,803,803,803,803,803,803,803,803,803,805,809,816,832,845,872,892,913,935,948,953,960,963,964,966,969,972,978,985,994,1004,1032,1054,1069],"ymouse":[548,548,548,548,548,548,548,548,548,548,548,548,548,548,548,548,548,548,548,548,548,548,548,548,548,548,548,548,548,548,548,548,548,543,530,503,481,425,380,331,280,236,203,154,135,129,125,118,113,107,98,88,77,49,28,16],"timestamp_mouse":[10,32,46,65,85,107,126,145,165,186,207,225,246,266,286,306,325,345,366,387,407,426,445,467,486,506,525,545,565,585,605,626,647,667,686,705,726,747,766,786,806,826,847,866,886,905,926,947,965,986,1006,1026,1046,1067,1085,1106],"xSR":741.5,"ySR":501.8,"xT1":424.9,"yT1":0,"xT2":1058.1,"yT2":0,"toosoon":0,"cond_shown":"Incongruent","ratio_trial":300,"L_num":13,"L_den":26,"R_num":12,"R_den":15,"correct_side":2,"subjID":"NicollSofiaRinconCuellar30","gender":"1","school":"6","age":"11"},{"start_time":1551790502308,"click_time":1551790503356,"finger_time":1551790502955,"fix_duration":250,"trial":38,"RT":647,"MT":401,"sideResp":1,"stimulus":[],"xmouse":[789,789,789,789,789,791,791,792,792,793,793,794,794,795,795,796,796,796,796,796,797,797,797,797,797,797,797,797,796,793,790,783,773,731,706,680,653,603,588,578,574,571,569,569,568,566,563,561,558,553,540,534,522],"ymouse":[560,560,560,558,558,556,556,555,555,555,554,554,554,554,554,553,553,552,552,552,552,551,550,548,548,547,546,544,540,534,526,515,500,451,426,398,370,317,296,277,258,239,218,178,151,135,120,94,82,71,53,45,35],"timestamp_mouse":[8,43,46,67,87,106,126,148,167,187,208,227,247,267,288,308,326,347,368,388,408,427,447,468,486,508,527,547,568,588,606,627,647,667,687,707,727,748,766,788,808,827,847,866,888,907,926,947,967,987,1007,1028,1048],"xSR":741.5,"ySR":501.8,"xT1":424.9,"yT1":0,"xT2":1058.1,"yT2":0,"toosoon":0,"cond_shown":"Incongruent","ratio_trial":200,"L_num":7,"L_den":10,"R_num":12,"R_den":24,"correct_side":1,"subjID":"NicollSofiaRinconCuellar30","gender":"1","school":"6","age":"11"},{"start_time":1551790511935,"click_time":1551790512756,"finger_time":1551790512655,"fix_duration":1079.676980922796,"trial":39,"RT":720,"MT":101,"sideResp":1,"stimulus":[],"xmouse":[776,776,776,776,776,776,776,776,776,776,776,776,776,776,776,776,776,777,778,779,780,782,794,798,802,806,810,816,819,821,822,824,827,829,829,829,800,749,680,601,542,501],"ymouse":[554,554,554,554,554,554,554,554,554,555,556,556,557,558,559,560,562,563,564,564,564,564,565,565,565,565,565,565,564,564,563,562,559,552,546,537,479,405,310,219,142,79],"timestamp_mouse":[1,19,39,59,81,100,120,140,160,180,201,221,241,261,280,301,320,340,361,381,400,421,440,460,479,499,520,540,560,579,599,619,641,660,680,701,720,739,760,781,801,821],"xSR":741.5,"ySR":501.8,"xT1":424.9,"yT1":0,"xT2":1058.1,"yT2":0,"toosoon":0,"cond_shown":"Incongruent","ratio_trial":100,"L_num":8,"L_den":16,"R_num":6,"R_den":10,"correct_side":2,"subjID":"NicollSofiaRinconCuellar30","gender":"1","school":"6","age":"11"},{"start_time":1551790522246,"click_time":1551790523495,"finger_time":1551790522776,"fix_duration":1149.8655387776728,"trial":40,"RT":530,"MT":719,"sideResp":2,"stimulus":[],"xmouse":[788,788,788,788,788,788,788,788,788,788,788,788,788,788,788,788,788,788,788,789,791,798,803,807,810,812,827,833,840,846,855,868,875,878,881,884,886,888,888,889,890,892,894,899,911,926,958,972,984,993,1001,1007,1008,1009,1010,1017,1024,1044,1053,1062,1071,1101,1117],"ymouse":[561,561,561,561,561,561,561,561,561,561,561,561,561,561,561,561,561,561,561,561,554,539,530,522,513,503,466,446,426,404,381,340,320,306,295,271,263,255,252,250,248,245,244,243,243,243,241,238,234,230,227,221,218,214,212,203,195,179,170,160,148,114,94],"timestamp_mouse":[10,43,49,70,90,108,130,149,169,188,210,230,249,269,290,309,330,348,368,390,409,429,449,469,489,508,530,549,569,590,609,629,649,669,689,710,729,748,769,789,809,829,850,870,890,909,929,950,969,989,1010,1030,1048,1070,1089,1110,1129,1148,1169,1189,1209,1229,1249],"xSR":741.5,"ySR":501.8,"xT1":424.9,"yT1":0,"xT2":1058.1,"yT2":0,"toosoon":0,"cond_shown":"Congruent","ratio_trial":300,"L_num":3,"L_den":12,"R_num":11,"R_den":20,"correct_side":2,"subjID":"NicollSofiaRinconCuellar30","gender":"1","school":"6","age":"11"},{"start_time":1551790524863,"click_time":1551790526195,"finger_time":1551790526115,"fix_duration":306.06567338531886,"trial":41,"RT":1252,"MT":80,"sideResp":1,"stimulus":[],"xmouse":[785,785,785,785,785,785,785,785,785,785,785,785,785,785,785,785,785,785,785,785,785,785,785,785,785,785,785,785,786,786,787,787,788,788,788,788,788,788,788,788,788,788,788,788,788,788,788,788,788,788,788,788,788,788,788,788,788,788,788,788,788,786,765,722,671,565,485],"ymouse":[558,558,558,558,558,558,558,558,558,558,558,558,558,558,558,558,558,558,558,558,558,558,558,558,558,558,558,558,557,555,551,549,546,545,543,542,542,542,542,542,542,542,542,542,542,542,542,542,542,542,542,542,542,542,542,542,542,542,542,542,540,523,481,407,316,154,52],"timestamp_mouse":[11,41,51,73,92,111,131,151,173,191,213,233,252,271,291,313,332,352,372,392,413,431,452,472,491,511,532,552,573,592,613,632,652,672,692,711,732,752,771,793,811,831,852,873,892,912,932,953,972,991,1011,1033,1051,1071,1093,1111,1132,1152,1171,1193,1213,1231,1252,1272,1292,1312,1331],"xSR":741.5,"ySR":501.8,"xT1":424.9,"yT1":0,"xT2":1058.1,"yT2":0,"toosoon":0,"cond_shown":"Incongruent","ratio_trial":100,"L_num":9,"L_den":15,"R_num":13,"R_den":26,"correct_side":1,"subjID":"NicollSofiaRinconCuellar30","gender":"1","school":"6","age":"11"},{"start_time":1551790527548,"click_time":1551790529256,"finger_time":1551790528316,"fix_duration":290.9899514660443,"trial":42,"RT":768,"MT":940,"sideResp":1,"stimulus":[],"xmouse":[795,795,795,795,795,795,795,795,795,795,795,795,795,795,795,795,795,795,795,795,795,795,795,795,795,795,795,795,795,795,795,795,795,795,795,798,815,833,853,885,948,977,991,1002,1013,1022,1023,1024,1024,1024,1024,1024,1024,1024,1024,1024,1024,1024,1024,1024,1021,1014,1007,995,981,965,933,921,907,889,830,760,725,703,681,622,615,614,613,612,609,606,596,581,556,487],"ymouse":[546,546,546,546,546,546,546,546,546,546,546,546,546,546,546,546,546,546,546,546,546,546,546,546,546,546,546,546,546,546,546,546,546,546,546,546,530,513,492,456,377,322,283,247,216,185,182,179,177,177,177,177,177,177,177,177,177,177,178,178,181,189,196,210,226,245,281,294,304,310,310,292,279,267,250,193,184,181,179,176,169,163,142,114,80,10],"timestamp_mouse":[10,42,48,67,86,106,127,146,168,187,207,226,247,267,286,308,327,348,367,387,408,428,448,468,488,508,526,548,568,586,608,627,646,667,688,707,728,746,768,787,808,826,848,866,886,908,927,947,968,987,1008,1027,1047,1066,1086,1108,1128,1148,1168,1187,1207,1227,1248,1267,1288,1307,1328,1347,1367,1387,1408,1426,1447,1467,1487,1508,1526,1547,1568,1586,1608,1627,1647,1667,1688,1708],"xSR":741.5,"ySR":501.8,"xT1":424.9,"yT1":0,"xT2":1058.1,"yT2":0,"toosoon":0,"cond_shown":"Congruent","ratio_trial":100,"L_num":11,"L_den":22,"R_num":6,"R_den":15,"correct_side":1,"subjID":"NicollSofiaRinconCuellar30","gender":"1","school":"6","age":"11"},{"start_time":1551790530833,"click_time":1551790532776,"finger_time":1551790532275,"fix_duration":617.9053947882061,"trial":43,"RT":1442,"MT":501,"sideResp":2,"stimulus":[],"xmouse":[794,794,794,794,794,794,794,794,794,794,794,794,794,794,794,794,794,794,794,795,796,796,796,796,796,797,797,797,797,797,797,797,797,797,797,797,797,797,797,797,797,797,797,797,797,797,797,797,797,797,797,797,797,797,797,797,797,797,797,797,797,797,797,797,797,797,797,797,797,797,802,806,840,879,921,957,1003,1003,1003,1003,1003,1003,1003,1003,1003,1003,1003,1003,1029,1029,1030,1031,1036,1040,1043,1048,1057,1076],"ymouse":[554,554,554,554,554,554,554,554,554,554,554,554,554,554,554,554,554,554,554,552,550,549,548,548,547,546,545,544,544,544,544,544,544,544,544,544,544,544,544,544,544,544,544,544,544,544,544,544,544,544,544,544,544,544,544,544,544,544,544,544,544,544,544,544,544,544,544,544,544,544,534,527,442,366,284,183,23,23,23,23,23,23,23,23,23,23,23,23,29,40,46,50,57,58,59,60,61,61],"timestamp_mouse":[10,37,42,63,82,101,122,141,162,181,201,222,241,263,281,302,322,343,362,381,402,421,442,461,481,502,521,542,562,582,601,622,641,661,683,701,723,743,761,782,803,822,842,861,883,903,921,942,963,983,1002,1023,1042,1062,1083,1101,1122,1142,1162,1182,1202,1223,1241,1263,1281,1302,1322,1342,1361,1383,1403,1422,1442,1462,1483,1502,1522,1541,1561,1582,1602,1623,1642,1663,1682,1701,1722,1741,1761,1782,1802,1822,1842,1862,1883,1902,1922,1943],"xSR":741.5,"ySR":501.8,"xT1":424.9,"yT1":0,"xT2":1058.1,"yT2":0,"toosoon":0,"cond_shown":"Incongruent","ratio_trial":200,"L_num":14,"L_den":30,"R_num":12,"R_den":18,"correct_side":2,"subjID":"NicollSofiaRinconCuellar30","gender":"1","school":"6","age":"11"},{"start_time":1551790534025,"click_time":1551790535194,"finger_time":1551790534614,"fix_duration":250,"trial":44,"RT":589,"MT":580,"sideResp":1,"stimulus":[],"xmouse":[797,797,797,797,797,797,797,797,797,797,797,797,797,797,797,797,797,797,797,797,797,797,797,797,797,797,797,797,795,791,787,775,764,749,729,700,644,620,594,573,558,533,524,504,482,471,463,463,463,465,470,476,478,479,479,479,480,481,482],"ymouse":[544,544,544,544,544,544,544,544,544,544,544,544,544,544,544,544,544,544,544,544,544,544,544,544,544,541,539,526,512,500,488,463,448,432,412,390,363,344,324,306,291,256,236,198,159,134,118,117,115,115,114,112,107,106,104,104,103,101,96],"timestamp_mouse":[10,33,50,69,90,109,131,151,169,190,211,230,251,270,290,309,330,349,371,390,409,429,449,469,490,511,530,551,569,589,610,631,650,670,691,709,731,750,769,791,809,831,849,870,891,910,931,950,970,989,1010,1030,1050,1070,1091,1109,1130,1150,1169],"xSR":741.5,"ySR":501.8,"xT1":424.9,"yT1":0,"xT2":1058.1,"yT2":0,"toosoon":0,"cond_shown":"Incongruent","ratio_trial":200,"L_num":4,"L_den":6,"R_num":14,"R_den":30,"correct_side":1,"subjID":"NicollSofiaRinconCuellar30","gender":"1","school":"6","age":"11"},{"start_time":1551790537063,"click_time":1551790537856,"finger_time":1551790537735,"fix_duration":806.0332969376612,"trial":45,"RT":672,"MT":121,"sideResp":1,"stimulus":[],"xmouse":[754,754,754,754,754,754,754,754,754,754,754,754,754,754,754,754,754,754,754,754,754,754,754,754,754,754,754,754,754,754,754,751,747,730,705,648,606,573,528,437],"ymouse":[577,577,577,577,577,577,577,577,577,577,577,577,577,577,577,577,577,577,577,577,577,577,577,577,577,577,577,577,577,577,577,574,560,522,474,374,302,241,161,16],"timestamp_mouse":[11,40,52,72,92,111,132,152,171,192,212,232,251,273,293,311,332,352,372,393,411,431,452,471,491,512,532,551,572,592,613,632,653,672,691,711,732,753,772,793],"xSR":741.5,"ySR":501.8,"xT1":424.9,"yT1":0,"xT2":1058.1,"yT2":0,"toosoon":0,"cond_shown":"Incongruent","ratio_trial":100,"L_num":3,"L_den":6,"R_num":4,"R_den":10,"correct_side":1,"subjID":"NicollSofiaRinconCuellar30","gender":"1","school":"6","age":"11"},{"start_time":1551790540924,"click_time":1551790541855,"finger_time":1551790541754,"fix_duration":1266.6691572681586,"trial":46,"RT":830,"MT":101,"sideResp":2,"stimulus":[],"xmouse":[764,764,764,764,764,764,764,764,764,765,765,766,766,766,766,766,766,766,766,766,766,766,767,767,767,768,769,769,769,769,772,773,774,775,776,777,778,786,797,810,827,844,894,947,988,1033,1072],"ymouse":[562,562,562,562,562,562,562,562,562,561,561,561,561,561,561,561,561,561,561,561,561,561,561,561,561,561,560,560,560,560,560,560,560,559,559,558,558,554,549,540,525,503,407,282,193,98,11],"timestamp_mouse":[11,47,51,71,90,111,132,150,171,192,210,231,250,271,291,310,332,352,371,390,412,430,451,471,491,512,531,551,571,592,611,632,650,671,692,711,731,752,772,791,812,830,851,872,891,912,930],"xSR":741.5,"ySR":501.8,"xT1":424.9,"yT1":0,"xT2":1058.1,"yT2":0,"toosoon":0,"cond_shown":"Incongruent","ratio_trial":100,"L_num":12,"L_den":24,"R_num":9,"R_den":15,"correct_side":2,"subjID":"NicollSofiaRinconCuellar30","gender":"1","school":"6","age":"11"},{"start_time":1551790549698,"click_time":1551790550794,"finger_time":1551790550355,"fix_duration":940.4014751848509,"trial":47,"RT":657,"MT":439,"sideResp":1,"stimulus":[],"xmouse":[789,789,789,789,789,789,789,789,789,789,789,789,789,789,789,789,789,789,789,789,789,789,789,789,789,789,789,789,789,789,789,788,775,667,528,440,371,304,293,291,291,291,291,291,291,291,291,291,291,291,291,291,291,413,432],"ymouse":[525,525,525,525,525,525,525,525,525,525,525,525,525,525,525,525,525,525,525,525,525,525,525,525,525,525,525,525,525,525,524,518,500,402,301,235,177,95,73,53,29,1,1,1,1,1,1,1,1,1,1,1,1,16,38],"timestamp_mouse":[17,39,58,78,96,116,137,158,177,198,216,238,256,277,296,317,337,357,377,397,417,437,458,477,496,517,536,558,576,598,618,637,657,677,698,717,737,757,776,797,817,837,857,877,897,917,937,958,978,997,1017,1038,1056,1076,1096],"xSR":741.5,"ySR":501.8,"xT1":424.9,"yT1":0,"xT2":1058.1,"yT2":0,"toosoon":0,"cond_shown":"Incongruent","ratio_trial":300,"L_num":3,"L_den":6,"R_num":4,"R_den":20,"correct_side":1,"subjID":"NicollSofiaRinconCuellar30","gender":"1","school":"6","age":"11"},{"start_time":1551790553327,"click_time":1551790554034,"finger_time":1551790553794,"fix_duration":250,"trial":48,"RT":467,"MT":240,"sideResp":1,"stimulus":[],"xmouse":[796,796,796,796,796,796,796,796,796,796,796,796,796,796,796,796,796,796,796,796,796,798,798,798,798,798,791,780,768,756,744,732,650,588,538,514],"ymouse":[566,566,566,566,566,566,566,566,566,566,566,566,566,566,566,566,566,566,566,563,561,539,517,464,412,357,253,213,183,162,148,139,111,93,85,83],"timestamp_mouse":[10,34,48,68,87,109,128,148,168,188,208,229,248,268,289,308,328,349,368,388,407,429,448,467,488,508,529,548,568,589,607,629,648,668,689,707],"xSR":741.5,"ySR":501.8,"xT1":424.9,"yT1":0,"xT2":1058.1,"yT2":0,"toosoon":0,"cond_shown":"Incongruent","ratio_trial":200,"L_num":4,"L_den":6,"R_num":14,"R_den":30,"correct_side":1,"subjID":"NicollSofiaRinconCuellar30","gender":"1","school":"6","age":"11"},{"start_time":1551790555461,"click_time":1551790556695,"finger_time":1551790555976,"fix_duration":584.1749967837245,"trial":49,"RT":515,"MT":719,"sideResp":1,"stimulus":[],"xmouse":[819,819,819,819,819,819,819,819,819,819,819,819,819,819,819,819,819,818,817,816,809,800,788,766,744,693,677,663,651,632,627,625,620,611,600,564,557,541,535,531,531,531,531,531,531,531,531,531,531,531,531,531,531,531,531,531,531,483,483,483,483,481],"ymouse":[569,569,569,569,569,569,569,569,569,569,569,569,569,569,569,569,569,569,569,569,568,565,557,544,532,500,487,474,456,422,404,385,362,332,296,183,161,91,48,7,7,7,7,7,7,7,7,7,7,7,7,7,7,7,7,7,7,0,0,0,0,1],"timestamp_mouse":[14,41,53,74,94,114,135,153,175,194,213,235,254,273,294,313,333,354,374,395,413,434,454,474,493,515,534,554,573,594,613,635,655,675,695,714,734,754,774,794,814,834,854,873,894,913,934,955,974,994,1014,1035,1054,1074,1094,1114,1134,1153,1174,1193,1214,1234],"xSR":741.5,"ySR":501.8,"xT1":424.9,"yT1":0,"xT2":1058.1,"yT2":0,"toosoon":0,"cond_shown":"Congruent","ratio_trial":100,"L_num":2,"L_den":5,"R_num":6,"R_den":12,"correct_side":2,"subjID":"NicollSofiaRinconCuellar30","gender":"1","school":"6","age":"11"},{"start_time":1551790560661,"click_time":1551790562315,"finger_time":1551790561674,"fix_duration":285.0583108621574,"trial":50,"RT":1013,"MT":641,"sideResp":2,"stimulus":[],"xmouse":[769,769,769,769,769,769,769,769,769,769,769,769,769,769,769,769,769,769,769,769,769,769,769,769,769,769,769,769,769,769,769,769,769,769,769,769,769,769,769,769,769,769,769,769,769,769,769,769,769,768,765,765,768,778,787,795,795,802,807,814,820,823,829,846,846,846,846,846,846,846,846,846,846,846,846,846,846,846,846,1032,1043,1056,1071],"ymouse":[530,530,530,530,530,530,530,530,530,530,530,530,530,530,530,530,530,530,530,530,530,530,530,530,530,530,530,530,530,530,530,530,530,530,530,530,530,530,530,530,530,530,530,530,530,530,530,530,530,530,483,463,437,397,342,222,132,81,53,36,24,19,13,3,3,3,3,3,3,3,3,3,3,3,3,3,3,3,3,3,15,25,35],"timestamp_mouse":[14,33,53,74,94,114,134,154,174,194,214,233,254,273,295,314,334,353,373,393,413,433,454,475,493,513,534,553,575,593,613,633,654,674,693,714,733,753,773,793,813,835,853,873,894,913,934,953,973,995,1013,1033,1054,1074,1094,1115,1133,1153,1174,1193,1214,1234,1255,1275,1295,1313,1334,1353,1373,1394,1413,1433,1453,1475,1494,1515,1534,1554,1574,1594,1613,1633,1654],"xSR":741.5,"ySR":501.8,"xT1":424.9,"yT1":0,"xT2":1058.1,"yT2":0,"toosoon":0,"cond_shown":"Congruent","ratio_trial":200,"L_num":15,"L_den":25,"R_num":4,"R_den":10,"correct_side":1,"subjID":"NicollSofiaRinconCuellar30","gender":"1","school":"6","age":"11"},{"start_time":1551790564163,"click_time":1551790565255,"finger_time":1551790565096,"fix_duration":587.2688771213353,"trial":51,"RT":933,"MT":159,"sideResp":2,"stimulus":[],"xmouse":[784,784,784,784,784,784,784,784,784,784,784,784,784,784,784,785,785,785,786,786,786,786,786,786,787,787,787,788,788,788,788,788,788,788,788,788,788,788,788,788,788,788,790,797,808,838,853,866,884,927,954,981,1015,1053,1073],"ymouse":[507,507,507,507,507,507,507,507,507,507,507,507,507,507,507,507,509,511,513,518,520,520,521,521,524,526,527,529,531,532,532,532,532,532,532,532,532,532,532,532,532,532,533,532,528,506,489,469,434,332,257,195,129,60,25],"timestamp_mouse":[30,32,53,72,92,112,131,152,171,191,211,231,252,272,291,313,332,352,371,393,412,431,451,471,492,512,531,552,572,591,611,631,651,671,693,713,731,753,771,793,811,832,852,872,892,912,933,952,973,992,1011,1031,1053,1072,1092],"xSR":741.5,"ySR":501.8,"xT1":424.9,"yT1":0,"xT2":1058.1,"yT2":0,"toosoon":0,"cond_shown":"Congruent","ratio_trial":300,"L_num":8,"L_den":16,"R_num":1,"R_den":5,"correct_side":1,"subjID":"NicollSofiaRinconCuellar30","gender":"1","school":"6","age":"11"},{"start_time":1551790570203,"click_time":1551790572435,"finger_time":1551790572256,"fix_duration":1126.4075278084322,"trial":52,"RT":2053,"MT":179,"sideResp":1,"stimulus":[],"xmouse":[755,755,755,755,755,755,755,755,755,755,755,755,755,755,755,755,755,755,755,755,755,755,755,755,755,755,755,755,755,755,755,755,755,755,755,755,755,755,755,755,755,755,755,755,755,755,755,755,755,755,755,755,755,755,755,755,755,755,755,755,755,755,755,755,755,755,755,755,755,755,755,755,755,755,755,755,755,755,755,755,755,755,755,755,755,755,755,755,755,755,755,755,755,755,755,755,755,755,755,755,754,752,740,733,727,722,722,694,669,617,564,489],"ymouse":[568,568,568,568,568,568,568,568,568,568,568,568,568,568,568,568,568,568,568,568,568,568,568,568,568,568,568,568,568,568,568,568,568,568,568,568,568,568,568,568,568,568,568,568,568,568,568,568,568,568,568,568,568,568,568,568,568,568,568,568,568,568,568,568,568,568,568,568,568,568,568,568,568,568,568,568,568,568,568,568,568,568,568,568,568,568,568,568,568,568,568,568,568,568,568,568,568,568,568,568,563,539,488,469,448,422,368,240,185,114,63,3],"timestamp_mouse":[12,31,52,71,91,112,131,152,173,193,211,231,252,273,291,312,332,351,371,392,411,433,453,472,493,512,533,551,571,591,612,632,651,6