[{"start_time":1551791071356,"click_time":1551791072295,"finger_time":1551791072194,"fix_duration":498.17196645334906,"trial":0,"RT":838,"MT":101,"sideResp":2,"stimulus":"img/750/randomdotsizeEA/R/15_Ratio_750_L_9_R_12.png","xmouse":[787,787,787,787,787,787,787,787,787,787,786,785,785,785,785,785,785,785,785,785,785,785,785,785,785,785,785,785,785,785,785,785,785,785,785,785,785,785,785,785,791,833,916,1014,1133,1145,1147],"ymouse":[560,560,560,560,560,560,560,560,560,560,561,561,561,561,561,561,561,561,561,561,561,561,561,561,561,561,561,561,561,561,561,561,561,561,561,561,561,561,561,561,540,453,342,244,127,103,88],"timestamp_mouse":[10,45,59,80,99,119,139,159,179,198,220,239,258,280,299,318,339,360,378,400,419,440,458,479,500,520,540,560,579,598,618,639,659,680,698,719,739,759,780,800,819,838,858,879,899,919,938],"xSR":741.5,"ySR":501.8,"xT1":424.9,"yT1":0,"xT2":1058.1,"yT2":0,"toosoon":0,"cond_shown":"randomdotsizeEA","ratio_trial":750,"smaller_num":"9","larger_num":"12","correct_side":2,"subjID":"nicollsofiarinconcuellar30","gender":"1","age":"11","school":"6","test":{"fix_dur":[250,1500],"timestim":300,"targets_dim":[100,100],"targets_relative_coord":[0.3,0.7],"size_stim":[880,420],"start_dim":[100,100],"size_start":[300,300],"size_fix":60,"samplingrate":20,"img_types":["equaldotsize","equaldotanddens","randomdotsizeEA"],"ratios":[250,500,750,900],"rep_conds":9,"nTrials":120,"trials_to_rest":500,"Trials_order":[116,35,56,108,50,14,42,72,68,96,48,17,57,46,60,119,2,54,16,79,63,4,91,83,39,58,109,15,34,43,10,110,86,31,21,102,37,74,95,6,104,80,113,27,53,5,41,52,59,55,45,13,107,73,23,30,24,81,103,33,118,47,84,25,97,85,18,90,62,111,40,115,66,26,98,38,92,51,8,117,67,12,44,88,87,0,101,65,29,49,20,61,70,94,69,75,77,9,99,93,78,112,7,114,76,28,100,32,106,19,22,1,3,64,36,89,105,11,71,82],"cond_shown":["randomdotsizeEA","randomdotsizeEA","randomdotsizeEA","equaldotsize","randomdotsizeEA","randomdotsizeEA","equaldotsize","equaldotsize","randomdotsizeEA","equaldotsize","equaldotsize","randomdotsizeEA","equaldotsize","equaldotanddens","equaldotsize","randomdotsizeEA","randomdotsizeEA","equaldotsize","equaldotanddens","equaldotanddens","equaldotsize","equaldotanddens","equaldotanddens","randomdotsizeEA","equaldotsize","equaldotanddens","equaldotanddens","equaldotsize","equaldotanddens","equaldotanddens","equaldotanddens","randomdotsizeEA","randomdotsizeEA","equaldotanddens","equaldotsize","equaldotsize","equaldotanddens","randomdotsizeEA","randomdotsizeEA","equaldotsize","randomdotsizeEA","randomdotsizeEA","randomdotsizeEA","equaldotsize","randomdotsizeEA","randomdotsizeEA","randomdotsizeEA","equaldotanddens","randomdotsizeEA","equaldotanddens","equaldotsize","equaldotanddens","randomdotsizeEA","equaldotanddens","randomdotsizeEA","equaldotsize","equaldotsize","equaldotsize","equaldotanddens","equaldotsize","equaldotanddens","randomdotsizeEA","equaldotsize","equaldotanddens","equaldotanddens","equaldotanddens","equaldotsize","equaldotsize","randomdotsizeEA","equaldotsize","equaldotanddens","equaldotanddens","equaldotsize","randomdotsizeEA","randomdotsizeEA","randomdotsizeEA","randomdotsizeEA","equaldotsize","randomdotsizeEA","equaldotsize","equaldotanddens","equaldotsize","randomdotsizeEA","equaldotanddens","equaldotsize","equaldotsize","randomdotsizeEA","randomdotsizeEA","randomdotsizeEA","equaldotanddens","randomdotsizeEA","equaldotanddens","equaldotanddens","equaldotanddens","equaldotsize","equaldotsize","randomdotsizeEA","equaldotsize","equaldotsize","equaldotsize","equaldotsize","equaldotanddens","equaldotanddens","equaldotsize","equaldotanddens","equaldotanddens","equaldotanddens","randomdotsizeEA","equaldotanddens","equaldotanddens","equaldotanddens","equaldotanddens","equaldotsize","equaldotanddens","equaldotsize","randomdotsizeEA","equaldotsize","randomdotsizeEA","randomdotsizeEA","equaldotanddens"],"ratio_trial":[750,900,750,250,250,250,750,250,750,250,250,500,900,900,250,900,250,750,500,750,500,500,750,900,500,900,250,500,900,750,900,250,250,750,900,750,250,250,900,750,750,750,500,500,500,500,500,500,900,750,900,250,900,250,900,750,250,900,750,900,900,900,250,250,250,250,750,750,250,500,500,750,750,250,250,250,750,500,750,900,750,250,750,500,500,250,500,500,500,250,750,250,900,900,900,500,500,900,500,900,750,500,750,750,500,500,500,750,900,750,900,250,500,500,250,500,900,900,900,900],"smaller_num":["9","18","3","2","2","2","6","4","3","4","3","9","18","18","3","18","1","3","5","6","9","6","6","9","5","18","2","10","18","3","9","2","2","6","9","3","4","3","18","6","3","3","10","3","2","2","1","5","18","15","18","3","18","2","18","3","2","18","3","9","18","18","6","5","3","5","9","3","3","9","1","18","15","5","4","1","15","9","9","9","9","4","6","5","2","4","4","9","2","5","3","2","18","18","18","5","5","18","2","18","15","9","3","6","6","6","2","3","18","3","18","3","4","6","2","2","18","18","18","18"],"larger_num":["12","20","4","8","8","8","8","16","4","16","12","18","20","20","12","20","4","4","10","8","18","12","8","10","10","20","8","20","20","4","10","8","8","8","10","4","16","12","20","8","4","4","20","6","4","4","2","10","20","20","20","12","20","8","20","4","8","20","4","10","20","20","24","20","12","20","12","4","12","18","2","24","20","20","16","4","20","18","12","10","12","16","8","10","4","16","8","18","4","20","4","8","20","20","20","10","10","20","4","20","20","18","4","8","12","12","4","4","20","4","20","12","8","12","8","4","20","20","20","20"],"correct_side":[2,1,1,2,1,1,1,2,2,1,1,1,1,1,2,2,2,2,2,1,2,1,2,2,2,1,1,2,1,2,2,2,1,2,1,1,2,2,1,1,2,1,2,2,2,1,2,2,1,1,2,1,2,1,1,2,1,2,2,2,2,2,1,2,2,2,2,2,1,1,2,1,2,2,1,2,2,1,2,2,2,2,2,2,2,1,1,2,2,2,1,1,2,2,2,1,1,1,1,1,2,1,2,1,1,1,1,1,1,2,1,2,1,1,2,2,2,1,1,1],"img_shown":["img/750/randomdotsizeEA/R/15_Ratio_750_L_9_R_12.png","img/900/randomdotsizeEA/L/10_Ratio_900_L_20_R_18.png","img/750/randomdotsizeEA/L/8_Ratio_750_L_4_R_3.png","img/250/equaldotsize/R/13_Ratio_250_L_2_R_8.png","img/250/randomdotsizeEA/L/7_Ratio_250_L_8_R_2.png","img/250/randomdotsizeEA/L/3_Ratio_250_L_8_R_2.png","img/750/equaldotsize/L/13_Ratio_750_L_8_R_6.png","img/250/equaldotsize/R/10_Ratio_250_L_4_R_16.png","img/750/randomdotsizeEA/R/7_Ratio_750_L_3_R_4.png","img/250/equaldotsize/L/2_Ratio_250_L_16_R_4.png","img/250/equaldotsize/L/14_Ratio_250_L_12_R_3.png","img/500/randomdotsizeEA/L/4_Ratio_500_L_18_R_9.png","img/900/equaldotsize/L/2_Ratio_900_L_20_R_18.png","img/900/equaldotanddens/L/8_Ratio_900_L_20_R_18.png","img/250/equaldotsize/R/11_Ratio_250_L_3_R_12.png","img/900/randomdotsizeEA/R/12_Ratio_900_L_18_R_20.png","img/250/randomdotsizeEA/R/8_Ratio_250_L_1_R_4.png","img/750/equaldotsize/R/7_Ratio_750_L_3_R_4.png","img/500/equaldotanddens/R/14_Ratio_500_L_5_R_10.png","img/750/equaldotanddens/L/13_Ratio_750_L_8_R_6.png","img/500/equaldotsize/R/1_Ratio_500_L_9_R_18.png","img/500/equaldotanddens/L/11_Ratio_500_L_12_R_6.png","img/750/equaldotanddens/R/2_Ratio_750_L_6_R_8.png","img/900/randomdotsizeEA/R/3_Ratio_900_L_9_R_10.png","img/500/equaldotsize/R/14_Ratio_500_L_5_R_10.png","img/900/equaldotanddens/L/10_Ratio_900_L_20_R_18.png","img/250/equaldotanddens/L/3_Ratio_250_L_8_R_2.png","img/500/equaldotsize/R/3_Ratio_500_L_10_R_20.png","img/900/equaldotanddens/L/4_Ratio_900_L_20_R_18.png","img/750/equaldotanddens/R/12_Ratio_750_L_3_R_4.png","img/900/equaldotanddens/R/15_Ratio_900_L_9_R_10.png","img/250/randomdotsizeEA/R/13_Ratio_250_L_2_R_8.png","img/250/randomdotsizeEA/L/7_Ratio_250_L_8_R_2.png","img/750/equaldotanddens/R/2_Ratio_750_L_6_R_8.png","img/900/equaldotsize/L/1_Ratio_900_L_10_R_9.png","img/750/equaldotsize/L/9_Ratio_750_L_4_R_3.png","img/250/equaldotanddens/R/10_Ratio_250_L_4_R_16.png","img/250/randomdotsizeEA/R/11_Ratio_250_L_3_R_12.png","img/900/randomdotsizeEA/L/4_Ratio_900_L_20_R_18.png","img/750/equaldotsize/L/14_Ratio_750_L_8_R_6.png","img/750/randomdotsizeEA/R/12_Ratio_750_L_3_R_4.png","img/750/randomdotsizeEA/L/9_Ratio_750_L_4_R_3.png","img/500/randomdotsizeEA/R/3_Ratio_500_L_10_R_20.png","img/500/equaldotsize/R/2_Ratio_500_L_3_R_6.png","img/500/randomdotsizeEA/R/9_Ratio_500_L_2_R_4.png","img/500/randomdotsizeEA/L/10_Ratio_500_L_4_R_2.png","img/500/randomdotsizeEA/R/12_Ratio_500_L_1_R_2.png","img/500/equaldotanddens/R/14_Ratio_500_L_5_R_10.png","img/900/randomdotsizeEA/L/4_Ratio_900_L_20_R_18.png","img/750/equaldotanddens/L/1_Ratio_750_L_20_R_15.png","img/900/equaldotsize/R/14_Ratio_900_L_18_R_20.png","img/250/equaldotanddens/L/15_Ratio_250_L_12_R_3.png","img/900/randomdotsizeEA/R/12_Ratio_900_L_18_R_20.png","img/250/equaldotanddens/L/7_Ratio_250_L_8_R_2.png","img/900/randomdotsizeEA/L/10_Ratio_900_L_20_R_18.png","img/750/equaldotsize/R/12_Ratio_750_L_3_R_4.png","img/250/equaldotsize/L/7_Ratio_250_L_8_R_2.png","img/900/equaldotsize/R/13_Ratio_900_L_18_R_20.png","img/750/equaldotanddens/R/7_Ratio_750_L_3_R_4.png","img/900/equaldotsize/R/15_Ratio_900_L_9_R_10.png","img/900/equaldotanddens/R/14_Ratio_900_L_18_R_20.png","img/900/randomdotsizeEA/R/9_Ratio_900_L_18_R_20.png","img/250/equaldotsize/L/5_Ratio_250_L_24_R_6.png","img/250/equaldotanddens/R/12_Ratio_250_L_5_R_20.png","img/250/equaldotanddens/R/11_Ratio_250_L_3_R_12.png","img/250/equaldotanddens/R/12_Ratio_250_L_5_R_20.png","img/750/equaldotsize/R/15_Ratio_750_L_9_R_12.png","img/750/equaldotsize/R/7_Ratio_750_L_3_R_4.png","img/250/randomdotsizeEA/L/15_Ratio_250_L_12_R_3.png","img/500/equaldotsize/L/4_Ratio_500_L_18_R_9.png","img/500/equaldotanddens/R/12_Ratio_500_L_1_R_2.png","img/750/equaldotanddens/L/6_Ratio_750_L_24_R_18.png","img/750/equaldotsize/R/3_Ratio_750_L_15_R_20.png","img/250/randomdotsizeEA/R/12_Ratio_250_L_5_R_20.png","img/250/randomdotsizeEA/L/2_Ratio_250_L_16_R_4.png","img/250/randomdotsizeEA/R/8_Ratio_250_L_1_R_4.png","img/750/randomdotsizeEA/R/3_Ratio_750_L_15_R_20.png","img/500/equaldotsize/L/4_Ratio_500_L_18_R_9.png","img/750/randomdotsizeEA/R/15_Ratio_750_L_9_R_12.png","img/900/equaldotsize/R/5_Ratio_900_L_9_R_10.png","img/750/equaldotanddens/R/15_Ratio_750_L_9_R_12.png","img/250/equaldotsize/R/10_Ratio_250_L_4_R_16.png","img/750/randomdotsizeEA/R/2_Ratio_750_L_6_R_8.png","img/500/equaldotanddens/R/14_Ratio_500_L_5_R_10.png","img/500/equaldotsize/R/9_Ratio_500_L_2_R_4.png","img/250/equaldotsize/L/2_Ratio_250_L_16_R_4.png","img/500/randomdotsizeEA/L/8_Ratio_500_L_8_R_4.png","img/500/randomdotsizeEA/R/6_Ratio_500_L_9_R_18.png","img/500/randomdotsizeEA/R/9_Ratio_500_L_2_R_4.png","img/250/equaldotanddens/R/12_Ratio_250_L_5_R_20.png","img/750/randomdotsizeEA/L/8_Ratio_750_L_4_R_3.png","img/250/equaldotanddens/L/1_Ratio_250_L_8_R_2.png","img/900/equaldotanddens/R/14_Ratio_900_L_18_R_20.png","img/900/equaldotanddens/R/12_Ratio_900_L_18_R_20.png","img/900/equaldotsize/R/12_Ratio_900_L_18_R_20.png","img/500/equaldotsize/L/7_Ratio_500_L_10_R_5.png","img/500/randomdotsizeEA/L/7_Ratio_500_L_10_R_5.png","img/900/equaldotsize/L/2_Ratio_900_L_20_R_18.png","img/500/equaldotsize/L/10_Ratio_500_L_4_R_2.png","img/900/equaldotsize/L/4_Ratio_900_L_20_R_18.png","img/750/equaldotsize/R/5_Ratio_750_L_15_R_20.png","img/500/equaldotanddens/L/4_Ratio_500_L_18_R_9.png","img/750/equaldotanddens/R/12_Ratio_750_L_3_R_4.png","img/750/equaldotsize/L/14_Ratio_750_L_8_R_6.png","img/500/equaldotanddens/L/13_Ratio_500_L_12_R_6.png","img/500/equaldotanddens/L/11_Ratio_500_L_12_R_6.png","img/500/equaldotanddens/L/5_Ratio_500_L_4_R_2.png","img/750/randomdotsizeEA/L/8_Ratio_750_L_4_R_3.png","img/900/equaldotanddens/L/2_Ratio_900_L_20_R_18.png","img/750/equaldotanddens/R/7_Ratio_750_L_3_R_4.png","img/900/equaldotanddens/L/2_Ratio_900_L_20_R_18.png","img/250/equaldotanddens/R/9_Ratio_250_L_3_R_12.png","img/500/equaldotsize/L/8_Ratio_500_L_8_R_4.png","img/500/equaldotanddens/L/13_Ratio_500_L_12_R_6.png","img/250/equaldotsize/R/13_Ratio_250_L_2_R_8.png","img/500/randomdotsizeEA/R/9_Ratio_500_L_2_R_4.png","img/900/equaldotsize/R/14_Ratio_900_L_18_R_20.png","img/900/randomdotsizeEA/L/4_Ratio_900_L_20_R_18.png","img/900/randomdotsizeEA/L/4_Ratio_900_L_20_R_18.png","img/900/equaldotanddens/L/8_Ratio_900_L_20_R_18.png"],"Rat0":[["12_Ratio_0_L_9_R_0.png","13_Ratio_0_L_6_R_0.png","5_Ratio_0_L_2_R_0.png","6_Ratio_0_L_4_R_0.png","8_Ratio_0_L_6_R_0.png"],["1_Ratio_0_L_0_R_17.png","10_Ratio_0_L_0_R_22.png","11_Ratio_0_L_0_R_1.png","14_Ratio_0_L_0_R_24.png","15_Ratio_0_L_0_R_4.png","2_Ratio_0_L_0_R_5.png","3_Ratio_0_L_0_R_17.png","4_Ratio_0_L_0_R_7.png","7_Ratio_0_L_0_R_19.png","9_Ratio_0_L_0_R_15.png"]],"Rat250":[["1_Ratio_250_L_8_R_2.png","14_Ratio_250_L_12_R_3.png","15_Ratio_250_L_12_R_3.png","2_Ratio_250_L_16_R_4.png","3_Ratio_250_L_8_R_2.png","5_Ratio_250_L_24_R_6.png","7_Ratio_250_L_8_R_2.png"],["10_Ratio_250_L_4_R_16.png","11_Ratio_250_L_3_R_12.png","12_Ratio_250_L_5_R_20.png","13_Ratio_250_L_2_R_8.png","4_Ratio_250_L_3_R_12.png","6_Ratio_250_L_6_R_24.png","8_Ratio_250_L_1_R_4.png","9_Ratio_250_L_3_R_12.png"]],"Rat500":[["10_Ratio_500_L_4_R_2.png","11_Ratio_500_L_12_R_6.png","13_Ratio_500_L_12_R_6.png","4_Ratio_500_L_18_R_9.png","5_Ratio_500_L_4_R_2.png","7_Ratio_500_L_10_R_5.png","8_Ratio_500_L_8_R_4.png"],["1_Ratio_500_L_9_R_18.png","12_Ratio_500_L_1_R_2.png","14_Ratio_500_L_5_R_10.png","15_Ratio_500_L_1_R_2.png","2_Ratio_500_L_3_R_6.png","3_Ratio_500_L_10_R_20.png","6_Ratio_500_L_9_R_18.png","9_Ratio_500_L_2_R_4.png"]],"Rat750":[["1_Ratio_750_L_20_R_15.png","10_Ratio_750_L_4_R_3.png","13_Ratio_750_L_8_R_6.png","14_Ratio_750_L_8_R_6.png","6_Ratio_750_L_24_R_18.png","8_Ratio_750_L_4_R_3.png","9_Ratio_750_L_4_R_3.png"],["11_Ratio_750_L_12_R_16.png","12_Ratio_750_L_3_R_4.png","15_Ratio_750_L_9_R_12.png","2_Ratio_750_L_6_R_8.png","3_Ratio_750_L_15_R_20.png","4_Ratio_750_L_15_R_20.png","5_Ratio_750_L_15_R_20.png","7_Ratio_750_L_3_R_4.png"]],"Rat900":[["1_Ratio_900_L_10_R_9.png","10_Ratio_900_L_20_R_18.png","2_Ratio_900_L_20_R_18.png","4_Ratio_900_L_20_R_18.png","8_Ratio_900_L_20_R_18.png"],["11_Ratio_900_L_18_R_20.png","12_Ratio_900_L_18_R_20.png","13_Ratio_900_L_18_R_20.png","14_Ratio_900_L_18_R_20.png","15_Ratio_900_L_9_R_10.png","3_Ratio_900_L_9_R_10.png","5_Ratio_900_L_9_R_10.png","6_Ratio_900_L_9_R_10.png","7_Ratio_900_L_9_R_10.png","9_Ratio_900_L_18_R_20.png"]],"Rat1000":[["10_Ratio_1000_L_16_R_16.png","11_Ratio_1000_L_6_R_6.png","12_Ratio_1000_L_14_R_14.png","13_Ratio_1000_L_20_R_20.png","15_Ratio_1000_L_15_R_15.png","2_Ratio_1000_L_17_R_17.png","4_Ratio_1000_L_9_R_9.png","5_Ratio_1000_L_6_R_6.png","6_Ratio_1000_L_19_R_19.png","8_Ratio_1000_L_14_R_14.png","9_Ratio_1000_L_25_R_25.png"],["1_Ratio_1000_L_1_R_1.png","14_Ratio_1000_L_17_R_17.png","3_Ratio_1000_L_17_R_17.png","7_Ratio_1000_L_6_R_6.png"]]}},{"start_time":1551791073771,"click_time":1551791074855,"finger_time":1551791074415,"fix_duration":474.38817209332893,"trial":1,"RT":644,"MT":440,"sideResp":1,"stimulus":"img/900/randomdotsizeEA/L/10_Ratio_900_L_20_R_18.png","xmouse":[784,784,784,784,784,784,784,784,784,784,784,784,784,784,784,784,784,784,784,784,784,784,784,784,784,784,784,784,784,781,774,751,730,708,663,631,595,562,532,493,412,387,380,377,377,378,381,385,387,392,392,392,392,392,466],"ymouse":[561,561,561,561,561,561,561,561,561,561,561,561,561,561,561,561,561,561,561,561,561,561,561,561,561,561,561,561,561,559,553,536,522,506,470,440,399,360,320,258,112,59,45,34,24,21,15,11,6,0,0,0,0,0,8],"timestamp_mouse":[11,32,44,64,84,103,123,144,164,184,204,224,244,264,285,304,324,345,365,383,404,423,443,464,485,504,523,544,564,584,603,624,644,663,683,704,724,745,764,784,804,824,843,865,885,903,925,944,964,984,1003,1024,1044,1064,1083],"xSR":741.5,"ySR":501.8,"xT1":424.9,"yT1":0,"xT2":1058.1,"yT2":0,"toosoon":0,"cond_shown":"randomdotsizeEA","ratio_trial":900,"smaller_num":"18","larger_num":"20","correct_side":1,"subjID":"nicollsofiarinconcuellar30","gender":"1","age":"11","school":"6"},{"start_time":1551791076657,"click_time":1551791078236,"finger_time":1551791077535,"fix_duration":939.8009145579281,"trial":2,"RT":878,"MT":701,"sideResp":1,"stimulus":"img/750/randomdotsizeEA/L/8_Ratio_750_L_4_R_3.png","xmouse":[783,783,783,783,783,783,783,783,783,783,783,783,783,783,784,784,784,784,784,784,784,784,784,784,784,784,784,784,784,784,784,784,784,784,784,785,786,786,787,789,795,805,822,847,891,905,908,908,908,902,898,890,878,854,736,581,485,411,375,355,355,355,355,351,332,326,324,324,332,352,359,365,367,371,381,392,407,416,426],"ymouse":[561,561,561,561,561,561,561,561,561,561,561,561,561,561,561,561,561,561,561,561,561,561,561,561,561,561,561,561,561,561,561,561,561,561,561,560,559,559,558,556,551,541,521,491,436,384,358,348,346,342,339,338,334,327,281,217,178,152,136,127,127,127,126,117,87,77,65,60,51,38,33,29,27,24,18,14,11,10,8],"timestamp_mouse":[19,38,63,77,98,118,137,159,179,199,219,238,258,277,298,318,338,358,379,398,419,439,458,479,499,518,538,557,578,598,619,639,658,679,698,718,738,758,778,800,818,838,858,878,898,918,938,957,978,998,1018,1038,1059,1079,1098,1117,1139,1159,1178,1199,1219,1239,1257,1278,1298,1317,1338,1358,1378,1398,1418,1438,1458,1478,1498,1517,1538,1558,1579],"xSR":741.5,"ySR":501.8,"xT1":424.9,"yT1":0,"xT2":1058.1,"yT2":0,"toosoon":0,"cond_shown":"randomdotsizeEA","ratio_trial":750,"smaller_num":"3","larger_num":"4","correct_side":1,"subjID":"nicollsofiarinconcuellar30","gender":"1","age":"11","school":"6"},{"start_time":1551791079427,"click_time":1551791080375,"finger_time":1551791079955,"fix_duration":250,"trial":3,"RT":528,"MT":420,"sideResp":2,"stimulus":"img/250/equaldotsize/R/13_Ratio_250_L_2_R_8.png","xmouse":[796,796,796,796,796,796,796,796,796,796,796,796,796,796,796,796,796,796,796,796,796,796,798,802,814,832,886,904,924,932,937,947,951,956,961,967,981,993,1018,1036,1050,1069,1079,1087,1099,1109,1121,1124],"ymouse":[557,557,557,557,557,557,557,557,557,557,557,557,557,557,557,557,557,557,557,557,557,557,553,547,533,512,448,422,373,346,326,282,268,258,251,242,225,211,188,174,165,153,149,144,134,122,105,95],"timestamp_mouse":[9,28,48,68,88,108,129,147,168,188,208,229,247,269,288,307,329,348,368,387,408,428,448,468,487,509,528,549,568,588,608,628,647,667,688,708,728,748,768,788,808,828,847,868,888,909,928,947],"xSR":741.5,"ySR":501.8,"xT1":424.9,"yT1":0,"xT2":1058.1,"yT2":0,"toosoon":0,"cond_shown":"equaldotsize","ratio_trial":250,"smaller_num":"2","larger_num":"8","correct_side":2,"subjID":"nicollsofiarinconcuellar30","gender":"1","age":"11","school":"6"},{"start_time":1551791082248,"click_time":1551791083316,"finger_time":1551791082936,"fix_duration":992.5780931957197,"trial":4,"RT":688,"MT":380,"sideResp":1,"stimulus":"img/250/randomdotsizeEA/L/7_Ratio_250_L_8_R_2.png","xmouse":[782,782,782,782,782,782,782,782,782,782,782,782,783,783,783,783,783,783,783,783,783,783,783,783,783,783,783,783,783,783,783,783,772,763,736,650,582,555,538,526,519,519,519,519,519,519,519,519,519,519,519,519,519,428],"ymouse":[547,547,547,547,547,547,547,547,547,547,547,547,548,548,548,548,548,548,548,548,548,548,548,548,548,548,548,548,548,548,548,548,541,535,512,376,224,140,75,36,0,0,0,0,0,0,0,0,0,0,0,0,0,1],"timestamp_mouse":[19,27,46,67,86,107,127,146,168,187,206,227,248,267,287,307,327,347,368,386,408,427,447,468,487,507,527,548,567,588,608,627,647,667,688,707,726,747,767,786,806,828,848,867,888,907,928,947,968,987,1007,1027,1048,1068],"xSR":741.5,"ySR":501.8,"xT1":424.9,"yT1":0,"xT2":1058.1,"yT2":0,"toosoon":0,"cond_shown":"randomdotsizeEA","ratio_trial":250,"smaller_num":"2","larger_num":"8","correct_side":1,"subjID":"nicollsofiarinconcuellar30","gender":"1","age":"11","school":"6"},{"start_time":1551791084744,"click_time":1551791085735,"finger_time":1551791085355,"fix_duration":606.939153530775,"trial":5,"RT":611,"MT":380,"sideResp":1,"stimulus":"img/250/randomdotsizeEA/L/3_Ratio_250_L_8_R_2.png","xmouse":[794,794,794,794,794,794,794,794,794,794,794,794,794,794,794,794,794,794,797,799,805,807,807,808,808,808,806,800,788,769,694,644,588,567,551,532,530,528,527,527,530,535,535,535,533,521,513,508,503,495],"ymouse":[577,577,577,577,577,577,577,577,577,577,577,577,577,577,577,577,577,577,573,569,558,555,552,552,551,549,546,542,533,520,466,425,376,350,325,277,255,233,210,191,172,139,133,128,124,113,108,105,102,98],"timestamp_mouse":[11,37,52,71,92,110,132,150,171,191,210,232,251,272,291,311,331,351,371,391,411,432,451,471,491,510,531,551,571,591,611,630,651,670,691,711,731,751,771,791,811,831,851,872,891,911,931,951,972,991],"xSR":741.5,"ySR":501.8,"xT1":424.9,"yT1":0,"xT2":1058.1,"yT2":0,"toosoon":0,"cond_shown":"randomdotsizeEA","ratio_trial":250,"smaller_num":"2","larger_num":"8","correct_side":1,"subjID":"nicollsofiarinconcuellar30","gender":"1","age":"11","school":"6"},{"start_time":1551791087117,"click_time":1551791088375,"finger_time":1551791088235,"fix_duration":441.40533007571617,"trial":6,"RT":1118,"MT":140,"sideResp":2,"stimulus":"img/750/equaldotsize/L/13_Ratio_750_L_8_R_6.png","xmouse":[814,814,814,814,815,815,815,815,815,815,815,815,814,812,811,810,809,808,808,808,808,808,808,808,808,808,808,808,808,808,808,808,808,808,808,808,808,808,808,808,808,808,808,808,808,808,808,808,808,808,808,808,808,813,826,846,915,953,990,1022,1048,1082,1101],"ymouse":[587,587,587,588,588,588,588,588,588,588,588,588,584,580,578,575,571,570,569,569,569,568,568,568,568,568,568,568,568,568,568,568,568,568,568,568,568,568,568,568,568,568,568,568,568,568,568,566,562,560,557,549,542,525,503,467,352,304,252,205,163,109,88],"timestamp_mouse":[18,37,58,77,97,118,138,158,178,198,218,239,259,279,299,318,337,357,378,397,417,437,458,478,499,518,538,559,578,600,618,640,659,679,699,718,738,760,778,798,819,839,859,879,898,918,940,958,978,999,1019,1039,1059,1078,1098,1118,1139,1158,1178,1199,1218,1239,1258],"xSR":741.5,"ySR":501.8,"xT1":424.9,"yT1":0,"xT2":1058.1,"yT2":0,"toosoon":0,"cond_shown":"equaldotsize","ratio_trial":750,"smaller_num":"6","larger_num":"8","correct_side":1,"subjID":"nicollsofiarinconcuellar30","gender":"1","age":"11","school":"6"},{"start_time":1551791090559,"click_time":1551791091796,"finger_time":1551791091416,"fix_duration":1341.1073294439157,"trial":7,"RT":857,"MT":380,"sideResp":2,"stimulus":"img/250/equaldotsize/R/10_Ratio_250_L_4_R_16.png","xmouse":[793,793,793,793,793,793,793,793,793,793,793,793,793,793,793,793,793,793,793,793,793,793,793,793,793,794,795,795,796,796,796,796,796,796,796,796,796,797,800,807,824,837,850,865,880,923,952,979,998,1005,1009,1009,1009,1009,1009,1009,1009,1009,1009,1021,1038,1066],"ymouse":[554,554,554,554,554,554,554,554,554,554,554,554,554,554,554,554,554,554,554,554,554,554,554,554,554,554,554,554,554,554,554,554,554,554,554,554,554,554,552,545,531,518,505,485,464,393,345,295,265,250,236,235,235,235,235,235,233,231,222,177,112,2],"timestamp_mouse":[17,36,57,77,98,118,136,156,177,198,217,237,256,276,297,318,336,357,378,396,417,437,457,476,497,516,537,556,577,598,618,636,657,678,698,717,737,756,778,796,817,836,857,876,896,916,936,957,977,996,1017,1038,1057,1077,1096,1116,1138,1157,1177,1196,1217,1236],"xSR":741.5,"ySR":501.8,"xT1":424.9,"yT1":0,"xT2":1058.1,"yT2":0,"toosoon":0,"cond_shown":"equaldotsize","ratio_trial":250,"smaller_num":"4","larger_num":"16","correct_side":2,"subjID":"nicollsofiarinconcuellar30","gender":"1","age":"11","school":"6"},{"start_time":1551791093782,"click_time":1551791095236,"finger_time":1551791094576,"fix_duration":964.3347937108339,"trial":8,"RT":794,"MT":660,"sideResp":1,"stimulus":"img/750/randomdotsizeEA/R/7_Ratio_750_L_3_R_4.png","xmouse":[786,786,786,786,786,786,786,786,786,786,786,786,786,786,786,786,786,787,789,789,789,789,789,790,790,791,792,793,793,794,794,795,797,798,801,802,804,806,808,809,797,768,730,641,589,568,568,568,568,568,568,568,568,568,568,568,568,568,332,348,354,374,386,398,407,407,407,407,407,410,418,424,430],"ymouse":[553,553,553,553,553,553,553,553,553,553,553,553,553,553,553,553,553,553,553,553,553,553,553,553,552,552,551,550,550,549,548,547,546,544,540,539,537,531,526,499,453,395,329,169,74,29,29,29,29,29,29,29,29,29,29,29,29,29,21,48,55,80,90,99,105,105,105,105,105,105,82,47,10],"timestamp_mouse":[13,44,53,73,94,113,133,153,173,194,214,235,254,273,294,313,334,354,373,393,413,433,454,475,493,513,533,553,574,594,613,634,653,674,693,714,733,754,773,794,813,833,854,874,893,913,933,953,974,993,1015,1035,1055,1073,1093,1113,1134,1154,1174,1193,1214,1235,1254,1274,1293,1314,1333,1354,1373,1394,1414,1433,1454],"xSR":741.5,"ySR":501.8,"xT1":424.9,"yT1":0,"xT2":1058.1,"yT2":0,"toosoon":0,"cond_shown":"randomdotsizeEA","ratio_trial":750,"smaller_num":"3","larger_num":"4","correct_side":2,"subjID":"nicollsofiarinconcuellar30","gender":"1","age":"11","school":"6"},{"start_time":1551791097920,"click_time":1551791098816,"finger_time":1551791097995,"fix_duration":1264.0976773932314,"trial":9,"RT":75,"MT":821,"sideResp":1,"stimulus":"img/250/equaldotsize/L/2_Ratio_250_L_16_R_4.png","xmouse":[831,835,839,844,845,847,850,852,854,857,860,864,868,871,875,879,883,901,912,919,926,930,930,920,897,852,732,667,615,582,562,550,549,549,551,554,562,567,571,571,571,567,553,537,517],"ymouse":[527,526,523,520,519,518,517,514,513,511,509,507,504,502,500,497,494,480,470,460,447,423,404,388,365,339,293,276,260,252,243,235,231,223,212,195,159,140,124,109,96,74,58,50,42],"timestamp_mouse":[16,35,55,75,95,116,136,155,175,196,216,236,255,275,297,316,336,355,376,396,417,436,455,475,495,515,535,556,577,596,616,635,655,676,696,716,736,755,776,795,816,836,855,876,896],"xSR":741.5,"ySR":501.8,"xT1":424.9,"yT1":0,"xT2":1058.1,"yT2":0,"toosoon":0,"cond_shown":"equaldotsize","ratio_trial":250,"smaller_num":"4","larger_num":"16","correct_side":1,"subjID":"nicollsofiarinconcuellar30","gender":"1","age":"11","school":"6"},{"start_time":1551791100348,"click_time":1551791101036,"finger_time":1551791100916,"fix_duration":851.867237800569,"trial":10,"RT":568,"MT":120,"sideResp":1,"stimulus":"img/250/equaldotsize/L/14_Ratio_250_L_12_R_3.png","xmouse":[798,798,798,797,797,796,796,796,796,796,796,796,796,796,796,796,796,796,796,796,796,796,796,796,796,795,790,779,749,695,564,519,475,457,450],"ymouse":[531,529,529,528,526,526,526,526,526,526,526,526,526,526,526,526,526,526,526,526,526,526,526,526,526,524,519,505,472,415,304,257,183,128,89],"timestamp_mouse":[9,39,48,67,87,107,129,147,167,188,208,229,248,267,289,308,328,348,367,388,409,427,448,467,489,509,527,547,568,589,608,627,647,667,687],"xSR":741.5,"ySR":501.8,"xT1":424.9,"yT1":0,"xT2":1058.1,"yT2":0,"toosoon":0,"cond_shown":"equaldotsize","ratio_trial":250,"smaller_num":"3","larger_num":"12","correct_side":1,"subjID":"nicollsofiarinconcuellar30","gender":"1","age":"11","school":"6"},{"start_time":1551791106920,"click_time":1551791107995,"finger_time":1551791107736,"fix_duration":1203.6753089112983,"trial":11,"RT":816,"MT":259,"sideResp":1,"stimulus":"img/500/randomdotsizeEA/L/4_Ratio_500_L_18_R_9.png","xmouse":[778,778,778,778,778,779,781,782,783,784,785,785,785,785,785,785,785,785,785,785,785,785,785,785,785,785,785,785,785,785,785,785,785,785,785,785,785,778,766,748,722,668,636,617,597,582,560,556,554,553,551,538,531,517],"ymouse":[546,546,546,546,546,546,545,545,545,545,545,545,545,545,545,545,545,545,545,545,545,545,545,545,545,545,545,545,545,545,545,545,545,545,545,545,545,538,529,516,495,444,374,309,239,187,146,141,138,136,132,103,87,68],"timestamp_mouse":[15,46,55,76,95,116,136,155,175,196,216,236,256,276,295,315,337,355,375,396,417,437,457,476,496,515,536,555,575,595,615,636,656,675,696,716,736,755,775,795,816,835,855,875,896,915,936,955,976,995,1017,1036,1056,1075],"xSR":741.5,"ySR":501.8,"xT1":424.9,"yT1":0,"xT2":1058.1,"yT2":0,"toosoon":0,"cond_shown":"randomdotsizeEA","ratio_trial":500,"smaller_num":"9","larger_num":"18","correct_side":1,"subjID":"nicollsofiarinconcuellar30","gender":"1","age":"11","school":"6"},{"start_time":1551791109790,"click_time":1551791111116,"finger_time":1551791110616,"fix_duration":891.9390154169798,"trial":12,"RT":826,"MT":500,"sideResp":2,"stimulus":"img/900/equaldotsize/L/2_Ratio_900_L_20_R_18.png","xmouse":[774,774,774,774,776,777,777,777,777,777,777,777,777,777,777,777,777,777,777,777,777,777,777,777,777,777,777,777,777,777,777,777,777,780,782,783,783,786,787,795,808,821,834,865,882,898,911,919,925,943,955,964,972,993,1002,1010,1019,1030,1055,1055,1055,1055,1055,1055,1055,1055,1101],"ymouse":[532,532,532,532,532,532,532,532,532,532,532,532,532,532,532,532,532,532,532,532,532,532,532,532,532,532,532,532,532,532,532,532,532,531,530,530,530,530,529,523,511,501,488,448,407,362,321,281,243,172,136,120,107,82,72,60,48,33,5,5,5,5,5,5,5,5,5],"timestamp_mouse":[9,26,45,65,85,106,126,145,165,185,205,226,247,267,285,306,325,346,365,386,407,426,445,467,486,505,525,547,566,585,605,626,645,665,686,706,725,747,766,785,805,826,846,865,885,905,926,946,965,986,1005,1027,1046,1066,1086,1107,1125,1146,1166,1186,1205,1226,1245,1265,1286,1306,1325],"xSR":741.5,"ySR":501.8,"xT1":424.9,"yT1":0,"xT2":1058.1,"yT2":0,"toosoon":0,"cond_shown":"equaldotsize","ratio_trial":900,"smaller_num":"18","larger_num":"20","correct_side":1,"subjID":"nicollsofiarinconcuellar30","gender":"1","age":"11","school":"6"},{"start_time":1551791112107,"click_time":1551791113217,"finger_time":1551791112755,"fix_duration":250,"trial":13,"RT":648,"MT":462,"sideResp":1,"stimulus":"img/900/equaldotanddens/L/8_Ratio_900_L_20_R_18.png","xmouse":[792,793,793,794,795,795,795,795,796,796,796,796,796,796,796,796,796,796,796,796,796,796,796,796,796,796,796,796,796,795,790,775,704,615,558,506,457,392,385,385,385,385,385,385,385,385,385,385,385,385,385,385,385,385,385,454],"ymouse":[566,565,565,564,564,563,563,563,562,562,562,562,562,562,562,562,562,562,562,562,562,562,562,562,562,562,562,562,562,558,553,542,492,406,332,251,163,25,5,5,5,5,5,5,5,5,5,5,5,5,5,5,5,5,5,19],"timestamp_mouse":[8,30,49,69,89,110,128,148,168,188,209,228,248,269,288,308,328,348,368,388,409,428,448,468,488,510,529,550,569,588,610,629,648,668,688,709,729,748,768,788,808,828,849,870,890,909,928,948,968,988,1009,1030,1050,1069,1089,1110],"xSR":741.5,"ySR":501.8,"xT1":424.9,"yT1":0,"xT2":1058.1,"yT2":0,"toosoon":0,"cond_shown":"equaldotanddens","ratio_trial":900,"smaller_num":"18","larger_num":"20","correct_side":1,"subjID":"nicollsofiarinconcuellar30","gender":"1","age":"11","school":"6"},{"start_time":1551791118646,"click_time":1551791119596,"finger_time":1551791119275,"fix_duration":250,"trial":14,"RT":629,"MT":321,"sideResp":2,"stimulus":"img/250/equaldotsize/R/11_Ratio_250_L_3_R_12.png","xmouse":[795,795,795,795,795,795,795,795,795,795,795,795,795,795,795,795,795,795,795,795,795,795,795,795,795,795,795,794,797,806,833,849,877,906,932,975,990,1014,1024,1029,1031,1031,1031,1031,1032,1039,1045,1061],"ymouse":[567,567,567,567,567,567,567,567,567,567,567,567,567,567,567,567,567,567,567,567,567,567,567,567,567,567,567,566,563,557,535,512,469,416,362,240,183,111,89,77,71,71,71,71,71,71,70,65],"timestamp_mouse":[9,31,49,70,90,109,129,151,171,189,210,230,250,270,289,310,329,350,369,389,411,429,451,469,489,510,530,549,570,591,610,629,649,669,689,710,729,749,770,790,810,831,849,870,889,909,929,949],"xSR":741.5,"ySR":501.8,"xT1":424.9,"yT1":0,"xT2":1058.1,"yT2":0,"toosoon":0,"cond_shown":"equaldotsize","ratio_trial":250,"smaller_num":"3","larger_num":"12","correct_side":2,"subjID":"nicollsofiarinconcuellar30","gender":"1","age":"11","school":"6"},{"start_time":1551791121275,"click_time":1551791122076,"finger_time":1551791121936,"fix_duration":857.5012984695254,"trial":15,"RT":661,"MT":140,"sideResp":1,"stimulus":"img/900/randomdotsizeEA/R/12_Ratio_900_L_18_R_20.png","xmouse":[800,800,800,800,800,800,799,799,799,799,799,799,799,799,799,797,795,792,790,788,788,788,788,788,788,788,788,788,788,786,781,772,756,724,636,591,536,507,492,483,476],"ymouse":[556,556,556,556,555,555,554,554,554,554,554,554,554,554,554,553,552,549,547,546,546,545,545,545,545,545,545,545,545,543,537,527,508,472,365,302,216,168,123,100,67],"timestamp_mouse":[8,22,40,60,82,101,121,141,160,180,200,222,240,260,281,300,320,341,360,380,400,420,441,461,480,501,520,540,560,580,600,622,640,661,680,700,720,741,761,781,801],"xSR":741.5,"ySR":501.8,"xT1":424.9,"yT1":0,"xT2":1058.1,"yT2":0,"toosoon":0,"cond_shown":"randomdotsizeEA","ratio_trial":900,"smaller_num":"18","larger_num":"20","correct_side":2,"subjID":"nicollsofiarinconcuellar30","gender":"1","age":"11","school":"6"},{"start_time":1551791123711,"click_time":1551791124735,"finger_time":1551791124195,"fix_duration":874.2241940077132,"trial":16,"RT":484,"MT":540,"sideResp":2,"stimulus":"img/250/randomdotsizeEA/R/8_Ratio_250_L_1_R_4.png","xmouse":[800,800,800,800,800,800,800,800,800,800,800,800,800,800,800,800,800,800,800,801,802,804,816,820,834,843,853,874,887,900,912,918,931,936,946,953,962,981,991,1000,1011,1021,1033,1041,1049,1056,1066,1076,1082,1088,1094,1101],"ymouse":[562,562,562,562,562,562,562,562,562,562,562,562,562,562,562,562,562,561,560,559,555,553,532,524,490,466,445,413,397,382,367,353,312,291,258,240,222,191,180,176,171,167,161,153,143,136,129,120,114,108,100,92],"timestamp_mouse":[11,25,52,65,84,106,125,144,165,185,204,224,244,264,284,304,325,344,364,384,404,424,446,466,484,504,526,545,564,585,604,624,644,664,684,704,724,744,764,784,804,825,845,864,884,904,925,944,964,984,1004,1024],"xSR":741.5,"ySR":501.8,"xT1":424.9,"yT1":0,"xT2":1058.1,"yT2":0,"toosoon":0,"cond_shown":"randomdotsizeEA","ratio_trial":250,"smaller_num":"1","larger_num":"4","correct_side":2,"subjID":"nicollsofiarinconcuellar30","gender":"1","age":"11","school":"6"},{"start_time":1551791125728,"click_time":1551791126936,"finger_time":1551791126795,"fix_duration":250,"trial":17,"RT":1067,"MT":141,"sideResp":2,"stimulus":"img/750/equaldotsize/R/7_Ratio_750_L_3_R_4.png","xmouse":[772,774,774,777,777,777,779,779,779,780,781,789,795,802,805,808,811,813,814,814,815,816,818,818,818,818,818,818,819,820,820,820,820,820,820,820,820,820,820,820,819,818,816,815,814,814,814,814,814,814,814,817,824,835,849,868,891,952,993,1034,1070],"ymouse":[562,562,562,562,562,562,562,562,562,562,562,560,558,556,555,554,553,552,552,551,551,551,550,550,550,550,550,550,551,551,552,552,552,552,552,552,552,552,552,551,549,541,536,532,530,529,528,528,527,526,525,520,513,492,461,420,366,226,149,75,8],"timestamp_mouse":[8,41,47,68,89,107,128,147,168,187,207,227,247,267,288,308,327,347,369,387,407,428,449,468,487,507,528,547,568,587,607,629,647,667,687,707,728,748,767,787,807,827,848,868,888,908,928,947,967,987,1007,1028,1049,1067,1088,1108,1128,1147,1167,1187,1208],"xSR":741.5,"ySR":501.8,"xT1":424.9,"yT1":0,"xT2":1058.1,"yT2":0,"toosoon":0,"cond_shown":"equaldotsize","ratio_trial":750,"smaller_num":"3","larger_num":"4","correct_side":2,"subjID":"nicollsofiarinconcuellar30","gender":"1","age":"11","school":"6"},{"start_time":1551791128927,"click_time":1551791129856,"finger_time":1551791129536,"fix_duration":1271.5488256838678,"trial":18,"RT":609,"MT":320,"sideResp":2,"stimulus":"img/500/equaldotanddens/R/14_Ratio_500_L_5_R_10.png","xmouse":[797,797,797,797,797,797,797,797,797,797,797,797,797,797,797,797,797,797,797,797,797,797,797,797,797,797,797,797,803,808,828,872,894,940,953,953,953,953,953,953,953,953,953,953,953,953,1087],"ymouse":[555,555,555,555,555,555,555,555,555,555,555,555,555,555,555,555,555,555,555,555,555,555,555,555,555,555,555,555,545,524,443,286,210,76,33,33,33,33,33,33,33,33,33,33,33,33,39],"timestamp_mouse":[9,28,61,69,88,109,128,148,168,189,208,228,249,268,288,308,328,349,370,390,409,430,448,468,489,510,529,548,569,588,609,628,648,668,689,709,729,750,769,789,810,830,849,868,888,908,929],"xSR":741.5,"ySR":501.8,"xT1":424.9,"yT1":0,"xT2":1058.1,"yT2":0,"toosoon":0,"cond_shown":"equaldotanddens","ratio_trial":500,"smaller_num":"5","larger_num":"10","correct_side":2,"subjID":"nicollsofiarinconcuellar30","gender":"1","age":"11","school":"6"},{"start_time":1551791131007,"click_time":1551791131577,"finger_time":1551791131415,"fix_duration":250,"trial":19,"RT":408,"MT":162,"sideResp":1,"stimulus":"img/750/equaldotanddens/L/13_Ratio_750_L_8_R_6.png","xmouse":[792,792,792,792,792,792,792,792,792,792,792,792,792,792,792,792,793,798,802,804,805,805,755,701,642,596,565,534,516],"ymouse":[531,531,531,531,531,531,531,531,531,531,531,531,531,531,531,531,530,525,518,509,494,473,361,292,227,171,136,88,49],"timestamp_mouse":[8,38,48,70,88,109,129,150,168,188,208,230,249,269,290,308,328,348,370,389,408,429,449,468,488,509,529,548,570],"xSR":741.5,"ySR":501.8,"xT1":424.9,"yT1":0,"xT2":1058.1,"yT2":0,"toosoon":0,"cond_shown":"equaldotanddens","ratio_trial":750,"smaller_num":"6","larger_num":"8","correct_side":1,"subjID":"nicollsofiarinconcuellar30","gender":"1","age":"11","school":"6"},{"start_time":1551791133247,"click_time":1551791133716,"finger_time":1551791133556,"fix_duration":670.5965330325533,"trial":20,"RT":309,"MT":160,"sideResp":2,"stimulus":"img/500/equaldotsize/R/1_Ratio_500_L_9_R_18.png","xmouse":[796,797,797,797,799,800,800,800,800,800,801,801,802,802,803,812,827,849,882,921,1015,1057,1093,1111],"ymouse":[530,528,527,527,524,522,521,521,521,520,519,519,517,516,515,499,470,430,376,326,216,165,120,93],"timestamp_mouse":[16,29,61,68,88,110,129,149,168,189,209,229,249,268,289,309,328,348,370,389,408,428,448,469],"xSR":741.5,"ySR":501.8,"xT1":424.9,"yT1":0,"xT2":1058.1,"yT2":0,"toosoon":0,"cond_shown":"equaldotsize","ratio_trial":500,"smaller_num":"9","larger_num":"18","correct_side":2,"subjID":"nicollsofiarinconcuellar30","gender":"1","age":"11","school":"6"},{"start_time":1551791136085,"click_time":1551791137416,"finger_time":1551791136416,"fix_duration":1408.2907404562952,"trial":21,"RT":331,"MT":1000,"sideResp":1,"stimulus":"img/500/equaldotanddens/L/11_Ratio_500_L_12_R_6.png","xmouse":[813,813,813,813,813,813,813,813,813,813,813,814,815,819,826,834,845,858,899,922,945,967,979,988,990,991,992,992,992,993,994,994,995,998,999,1000,1000,1000,1000,1000,1000,1000,1000,1000,1000,1000,1000,1000,1000,1000,1000,1000,999,991,981,953,926,893,808,765,722,678,647,617,551,530,506],"ymouse":[529,529,529,529,529,529,529,529,529,529,529,528,526,523,518,510,499,479,397,344,290,241,207,174,167,165,164,164,163,162,161,161,160,160,160,160,160,160,160,160,160,160,160,160,160,160,160,160,160,160,160,160,160,160,158,154,149,142,117,106,96,83,77,69,57,52,44],"timestamp_mouse":[10,42,50,72,91,110,131,150,171,191,210,230,251,271,290,310,331,351,370,390,410,430,452,471,490,510,530,552,570,590,610,632,651,672,691,711,730,750,770,790,810,830,850,872,891,910,930,950,970,990,1011,1031,1051,1071,1090,1110,1131,1150,1170,1190,1210,1231,1251,1270,1290,1310,1331],"xSR":741.5,"ySR":501.8,"xT1":424.9,"yT1":0,"xT2":1058.1,"yT2":0,"toosoon":0,"cond_shown":"equaldotanddens","ratio_trial":500,"smaller_num":"6","larger_num":"12","correct_side":1,"subjID":"nicollsofiarinconcuellar30","gender":"1","age":"11","school":"6"},{"start_time":1551791139025,"click_time":1551791140056,"finger_time":1551791139835,"fix_duration":867.8271329417807,"trial":22,"RT":810,"MT":221,"sideResp":2,"stimulus":"img/750/equaldotanddens/R/2_Ratio_750_L_6_R_8.png","xmouse":[791,791,791,791,791,791,791,791,791,791,791,791,791,791,791,791,791,791,791,791,791,791,791,791,791,791,791,791,791,791,791,791,791,792,795,798,803,807,815,828,846,916,966,1008,1039,1054,1070,1072,1074,1074,1075,1077],"ymouse":[542,542,542,542,542,542,542,542,542,542,542,542,542,542,542,542,542,542,542,542,542,542,542,542,542,542,542,542,542,542,542,542,542,542,541,538,533,530,520,507,487,393,324,252,194,162,124,112,108,104,101,93],"timestamp_mouse":[11,30,62,70,90,112,131,151,170,190,210,231,251,271,291,311,331,351,370,391,411,432,451,470,490,511,530,550,570,590,611,631,651,670,691,710,731,751,770,791,810,830,850,870,890,911,931,950,970,991,1011,1031],"xSR":741.5,"ySR":501.8,"xT1":424.9,"yT1":0,"xT2":1058.1,"yT2":0,"toosoon":0,"cond_shown":"equaldotanddens","ratio_trial":750,"smaller_num":"6","larger_num":"8","correct_side":2,"subjID":"nicollsofiarinconcuellar30","gender":"1","age":"11","school":"6"},{"start_time":1551791142008,"click_time":1551791142696,"finger_time":1551791142615,"fix_duration":1031.2535457273254,"trial":23,"RT":607,"MT":81,"sideResp":2,"stimulus":"img/900/randomdotsizeEA/R/3_Ratio_900_L_9_R_10.png","xmouse":[770,771,772,772,772,773,774,774,776,776,777,777,777,777,777,777,777,777,777,777,779,780,783,784,785,787,789,791,809,823,847,878,927,1065,1127],"ymouse":[542,541,541,541,541,541,540,540,539,539,539,539,539,539,539,539,539,539,539,539,537,537,536,535,534,533,532,531,520,510,486,451,375,182,90],"timestamp_mouse":[8,27,47,68,89,109,127,147,167,189,207,228,249,268,288,308,327,348,368,388,408,427,447,468,487,507,528,547,567,587,607,628,647,668,687],"xSR":741.5,"ySR":501.8,"xT1":424.9,"yT1":0,"xT2":1058.1,"yT2":0,"toosoon":0,"cond_shown":"randomdotsizeEA","ratio_trial":900,"smaller_num":"9","larger_num":"10","correct_side":2,"subjID":"nicollsofiarinconcuellar30","gender":"1","age":"11","school":"6"},{"start_time":1551791144851,"click_time":1551791145436,"finger_time":1551791145356,"fix_duration":1212.5002594836023,"trial":24,"RT":505,"MT":80,"sideResp":2,"stimulus":"img/500/equaldotsize/R/14_Ratio_500_L_5_R_10.png","xmouse":[783,783,783,783,783,783,783,783,783,783,783,783,783,783,783,783,783,783,783,783,783,784,785,789,797,850,936,995,1046,1064],"ymouse":[550,550,550,550,550,550,550,550,550,550,550,550,550,550,550,550,550,550,550,548,545,543,540,534,525,474,342,222,86,29],"timestamp_mouse":[9,24,45,64,102,104,124,145,165,185,205,225,245,264,285,306,324,345,366,385,405,424,445,464,485,505,524,545,564,585],"xSR":741.5,"ySR":501.8,"xT1":424.9,"yT1":0,"xT2":1058.1,"yT2":0,"toosoon":0,"cond_shown":"equaldotsize","ratio_trial":500,"smaller_num":"5","larger_num":"10","correct_side":2,"subjID":"nicollsofiarinconcuellar30","gender":"1","age":"11","school":"6"},{"start_time":1551791149290,"click_time":1551791150635,"finger_time":1551791150295,"fix_duration":1394.3572120253275,"trial":25,"RT":1005,"MT":340,"sideResp":1,"stimulus":"img/900/equaldotanddens/L/10_Ratio_900_L_20_R_18.png","xmouse":[781,781,781,781,781,781,781,781,781,781,781,781,781,781,781,781,781,781,781,781,781,781,781,781,781,781,781,781,781,781,781,781,781,781,781,781,781,781,781,781,781,781,781,781,781,781,781,781,781,768,752,739,727,707,694,685,678,671,655,652,649,647,647,641,625,595,550,499],"ymouse":[533,533,533,533,533,533,533,533,533,533,533,533,533,533,533,533,533,533,533,533,533,533,533,533,533,533,533,533,533,533,533,533,533,533,533,533,533,533,533,533,533,533,533,533,533,533,533,533,531,513,488,474,459,428,405,389,372,352,312,298,286,278,268,248,213,170,116,72],"timestamp_mouse":[8,24,44,65,84,105,125,144,166,185,205,225,245,266,285,305,325,345,365,385,406,425,446,464,485,506,525,545,566,585,604,624,646,665,684,704,726,745,765,784,804,824,844,865,885,904,925,946,965,985,1005,1025,1045,1064,1085,1105,1125,1146,1165,1185,1204,1225,1244,1265,1284,1304,1325,1345],"xSR":741.5,"ySR":501.8,"xT1":424.9,"yT1":0,"xT2":1058.1,"yT2":0,"toosoon":0,"cond_shown":"equaldotanddens","ratio_trial":900,"smaller_num":"18","larger_num":"20","correct_side":1,"subjID":"nicollsofiarinconcuellar30","gender":"1","age":"11","school":"6"},{"start_time":1551791152840,"click_time":1551791153755,"finger_time":1551791153354,"fix_duration":1482.68017618665,"trial":26,"RT":514,"MT":401,"sideResp":1,"stimulus":"img/250/equaldotanddens/L/3_Ratio_250_L_8_R_2.png","xmouse":[781,781,781,781,781,781,781,781,781,781,781,781,781,781,781,781,781,781,781,781,781,781,782,781,772,731,706,683,681,681,681,681,681,681,681,681,679,677,673,666,643,618,589,551,517,449],"ymouse":[544,544,544,544,544,544,544,544,544,544,544,544,544,544,544,544,544,544,544,544,544,544,543,538,526,488,470,457,455,455,455,455,455,455,453,453,434,421,401,381,319,260,202,148,105,54],"timestamp_mouse":[15,42,55,75,95,114,135,154,174,194,216,234,255,276,294,315,334,356,374,395,416,435,455,474,495,514,534,555,576,595,615,635,655,674,695,714,735,755,775,795,815,835,854,875,895,915],"xSR":741.5,"ySR":501.8,"xT1":424.9,"yT1":0,"xT2":1058.1,"yT2":0,"toosoon":0,"cond_shown":"equaldotanddens","ratio_trial":250,"smaller_num":"2","larger_num":"8","correct_side":1,"subjID":"nicollsofiarinconcuellar30","gender":"1","age":"11","school":"6"},{"start_time":1551791154727,"click_time":1551791155375,"finger_time":1551791155254,"fix_duration":250,"trial":27,"RT":527,"MT":121,"sideResp":2,"stimulus":"img/500/equaldotsize/R/3_Ratio_500_L_10_R_20.png","xmouse":[817,817,815,815,814,814,813,813,813,813,813,813,812,810,807,801,791,791,790,790,790,790,790,792,797,805,816,854,891,939,990,1062,1082],"ymouse":[572,572,572,572,571,571,570,570,570,570,570,570,570,569,567,564,558,558,557,557,557,557,553,548,537,520,494,400,324,244,180,103,84],"timestamp_mouse":[8,27,47,67,88,108,128,147,168,189,208,227,247,268,289,308,329,348,367,387,407,428,448,468,489,508,527,548,568,587,609,627,648],"xSR":741.5,"ySR":501.8,"xT1":424.9,"yT1":0,"xT2":1058.1,"yT2":0,"toosoon":0,"cond_shown":"equaldotsize","ratio_trial":500,"smaller_num":"10","larger_num":"20","correct_side":2,"subjID":"nicollsofiarinconcuellar30","gender":"1","age":"11","school":"6"},{"start_time":1551791160880,"click_time":1551791162194,"finger_time":1551791161734,"fix_duration":1104.358661673562,"trial":28,"RT":854,"MT":460,"sideResp":1,"stimulus":"img/900/equaldotanddens/L/4_Ratio_900_L_20_R_18.png","xmouse":[796,796,796,796,796,796,796,796,796,796,796,796,796,796,796,796,796,796,796,796,796,796,796,796,796,796,796,796,796,796,796,796,796,795,794,793,791,790,785,780,772,757,740,719,715,712,710,707,695,687,678,665,647,598,569,558,551,548,542,534,520,501,484,470,467,466],"ymouse":[542,542,542,542,542,542,542,542,542,542,542,542,542,542,542,542,542,542,542,542,542,542,542,542,542,542,542,542,542,542,542,542,542,542,542,541,540,539,535,531,525,516,507,496,493,488,483,478,456,438,417,387,344,257,210,192,180,174,168,164,157,146,135,120,107,78],"timestamp_mouse":[15,42,55,75,94,115,135,154,176,195,214,234,255,274,294,315,334,354,374,395,415,436,455,476,494,514,535,555,575,595,615,634,654,676,695,715,734,754,775,795,815,834,854,874,894,914,936,954,975,994,1015,1035,1054,1074,1094,1115,1136,1156,1174,1194,1214,1234,1254,1274,1294,1314],"xSR":741.5,"ySR":501.8,"xT1":424.9,"yT1":0,"xT2":1058.1,"yT2":0,"toosoon":0,"cond_shown":"equaldotanddens","ratio_trial":900,"smaller_num":"18","larger_num":"20","correct_side":1,"subjID":"nicollsofiarinconcuellar30","gender":"1","age":"11","school":"6"},{"start_time":1551791163148,"click_time":1551791164074,"finger_time":1551791163774,"fix_duration":250,"trial":29,"RT":626,"MT":300,"sideResp":2,"stimulus":"img/750/equaldotanddens/R/12_Ratio_750_L_3_R_4.png","xmouse":[797,797,797,797,797,797,797,797,797,797,797,797,797,797,797,797,797,797,797,797,797,797,797,797,797,799,800,803,807,812,821,843,852,859,864,883,897,912,927,947,995,1021,1048,1061,1073,1097,1110],"ymouse":[566,566,566,566,566,566,566,566,566,566,566,566,566,566,566,566,566,566,566,566,566,566,566,566,565,563,560,557,551,544,530,488,468,442,412,341,308,276,248,219,178,162,147,139,129,103,84],"timestamp_mouse":[7,28,47,67,87,107,127,147,166,188,207,227,246,266,288,307,327,347,367,387,406,428,447,466,487,506,527,547,567,588,606,626,647,667,687,707,726,747,767,788,807,826,846,867,887,907,926],"xSR":741.5,"ySR":501.8,"xT1":424.9,"yT1":0,"xT2":1058.1,"yT2":0,"toosoon":0,"cond_shown":"equaldotanddens","ratio_trial":750,"smaller_num":"3","larger_num":"4","correct_side":2,"subjID":"nicollsofiarinconcuellar30","gender":"1","age":"11","school":"6"},{"start_time":1551791167642,"click_time":1551791171014,"finger_time":1551791170515,"fix_duration":1366.1665367092521,"trial":30,"RT":2873,"MT":499,"sideResp":1,"stimulus":"img/900/equaldotanddens/R/15_Ratio_900_L_9_R_10.png","xmouse":[798,798,798,798,798,798,798,798,798,798,798,798,798,798,798,798,798,798,798,798,798,798,798,798,798,798,798,798,798,798,798,798,798,798,798,798,798,798,798,798,798,798,798,798,798,798,796,793,791,788,787,787,787,787,787,787,787,787,787,787,787,787,787,787,787,787,787,787,787,787,787,787,787,787,787,787,787,787,787,787,787,787,787,787,787,787,787,787,787,787,787,787,787,787,787,796,804,805,805,805,811,820,826,828,828,828,816,809,808,807,807,806,806,805,804,802,801,798,797,795,795,795,795,795,795,795,795,795,795,795,795,795,795,795,795,795,795,795,795,795,795,795,795,792,790,786,779,769,754,729,608,542,469,401,336,255,242,237,237,237,237,237,237,237,237,237,392,422,433],"ymouse":[556,556,556,556,556,556,556,556,556,556,556,556,556,556,556,556,556,556,556,556,556,556,556,556,556,556,556,556,556,556,556,556,556,556,556,556,556,556,556,556,556,556,556,556,556,556,556,556,556,554,554,554,554,554,554,554,554,554,554,554,554,554,554,554,554,554,554,554,554,554,554,554,554,554,554,554,554,554,554,554,554,554,554,554,554,554,554,554,554,554,554,554,554,554,554,547,536,533,533,533,539,554,563,566,566,566,545,532,527,525,522,520,517,515,513,511,511,511,511,511,511,511,511,511,511,511,511,511,511,511,511,511,511,511,511,511,511,511,511,511,511,511,511,496,492,490,488,485,481,471,408,361,298,229,159,53,25,2,2,2,2,2,2,2,2,2,3,10,11],"timestamp_mouse":[13,41,52,73,92,114,133,153,173,192,213,233,252,273,292,313,332,354,372,393,412,433,452,473,492,514,532,552,572,593,612,633,653,672,693,713,732,752,773,793,813,833,852,874,892,912,933,953,972,993,1013,1032,1052,1074,1092,1114,1133,1152,1174,1194,1213,1232,1252,1274,1292,1312,1332,1352,1372,1393,1414,1432,1452,1474,1493,1513,1532,1553,1574,1593,1613,1633,1652,1674,1693,1713,1734,1753,1773,1794,1813,1832,1854,1874,1894,1913,1932,1953,1972,1992,2012,2032,2053,2073,2092,2113,2132,2153,2174,2193,2213,2233,2253,2273,2293,2313,2333,2353,2373,2392,2414,2433,2454,2474,2494,2513,2534,2553,2573,2592,2612,2633,2653,2672,2693,2712,2733,2754,2773,2792,2812,2833,2853,2873,2893,2913,2933,2953,2973,2993,3013,3032,3053,3072,3092,3113,3132,3152,3172,3193,3213,3233,3253,3273,3293,3313,3333,3353,3372],"xSR":741.5,"ySR":501.8,"xT1":424.9,"yT1":0,"xT2":1058.1,"yT2":0,"toosoon":0,"cond_shown":"equaldotanddens","ratio_trial":900,"smaller_num":"9","larger_num":"10","correct_side":2,"subjID":"nicollsofiarinconcuellar30","gender":"1","age":"11","school":"6"},{"start_time":1551791173206,"click_time":1551791175655,"finger_time":1551791173756,"fix_duration":1310.3431215820792,"trial":31,"RT":550,"MT":1899,"sideResp":1,"stimulus":"img/250/randomdotsizeEA/R/13_Ratio_250_L_2_R_8.png","xmouse":[798,798,798,798,798,798,798,798,798,798,798,798,798,798,798,798,798,798,798,798,798,798,798,798,799,800,801,803,805,805,805,805,805,805,805,805,805,805,805,805,805,805,805,805,803,795,783,738,718,698,693,693,693,693,693,692,691,686,685,684,684,684,684,684,684,684,684,684,684,684,684,684,685,685,685,685,685,684,683,683,683,683,676,667,656,647,642,632,626,624,622,622,622,622,622,622,622,621,615,610,601,588,567,557,551,544,538,532,516,510,506,501,500,500,500,500,500,500,500,498,495,489,467],"ymouse":[515,515,515,515,515,515,515,515,515,515,515,515,515,515,515,515,515,515,515,515,515,515,515,515,513,509,506,498,494,492,491,488,484,482,481,480,479,479,479,479,479,479,479,477,471,463,449,418,408,399,396,396,396,396,396,396,396,401,403,405,406,406,406,406,406,406,406,406,406,406,407,407,408,411,413,415,416,419,421,421,421,421,416,400,380,360,340,304,286,280,279,279,279,279,279,279,278,278,277,275,271,266,255,250,247,243,239,235,219,212,206,200,199,199,196,193,189,178,162,146,130,106,47],"timestamp_mouse":[8,28,49,68,88,109,130,149,168,189,209,229,249,270,290,308,329,349,369,389,409,428,449,469,489,509,528,550,568,589,609,629,649,668,689,709,729,749,770,789,808,828,849,869,888,910,929,949,969,988,1009,1029,1049,1068,1088,1109,1130,1149,1168,1188,1210,1229,1248,1270,1289,1309,1328,1349,1369,1389,1409,1429,1448,1468,1489,1508,1529,1549,1568,1589,1609,1629,1649,1668,1688,1709,1729,1749,1768,1788,1810,1829,1849,1869,1890,1908,1928,1948,1968,1989,2009,2029,2049,2068,2089,2109,2129,2148,2170,2189,2210,2229,2250,2268,2289,2308,2329,2349,2368,2389,2409,2429,2449],"xSR":741.5,"ySR":501.8,"xT1":424.9,"yT1":0,"xT2":1058.1,"yT2":0,"toosoon":0,"cond_shown":"randomdotsizeEA","ratio_trial":250,"smaller_num":"2","larger_num":"8","correct_side":2,"subjID":"nicollsofiarinconcuellar30","gender":"1","age":"11","school":"6"},{"start_time":1551791178353,"click_time":1551791179216,"finger_time":1551791178955,"fix_duration":1296.37347234721,"trial":32,"RT":602,"MT":261,"sideResp":1,"stimulus":"img/250/randomdotsizeEA/L/7_Ratio_250_L_8_R_2.png","xmouse":[791,791,791,790,790,790,790,790,790,790,790,790,790,790,790,790,790,790,790,790,790,790,790,790,790,790,790,790,789,787,763,743,714,700,694,689,681,658,624,587,514,500,492,491],"ymouse":[550,550,550,549,549,549,549,549,549,549,549,549,549,549,549,549,549,549,549,549,549,549,549,549,549,549,549,549,538,530,481,457,430,420,416,407,388,350,301,239,142,120,103,99],"timestamp_mouse":[10,35,42,62,81,101,121,142,161,181,202,222,242,262,281,302,323,341,362,381,401,423,441,463,483,502,522,542,562,582,602,621,642,662,683,702,722,743,761,782,802,822,841,863],"xSR":741.5,"ySR":501.8,"xT1":424.9,"yT1":0,"xT2":1058.1,"yT2":0,"toosoon":0,"cond_shown":"randomdotsizeEA","ratio_trial":250,"smaller_num":"2","larger_num":"8","correct_side":1,"subjID":"nicollsofiarinconcuellar30","gender":"1","age":"11","school":"6"},{"start_time":1551791180229,"click_time":1551791181074,"finger_time":1551791180655,"fix_duration":273.0766246212889,"trial":33,"RT":426,"MT":419,"sideResp":2,"stimulus":"img/750/equaldotanddens/R/2_Ratio_750_L_6_R_8.png","xmouse":[813,812,808,806,806,805,805,805,805,805,805,805,805,805,805,805,805,804,804,805,811,839,872,910,944,970,986,1003,1005,1007,1008,1009,1011,1012,1013,1015,1019,1030,1032,1037,1039,1061,1087],"ymouse":[571,569,565,563,562,562,562,562,562,562,562,562,562,562,562,562,562,559,555,550,539,499,457,413,373,339,306,233,211,195,186,177,174,171,168,163,158,142,138,130,126,105,91],"timestamp_mouse":[5,26,45,66,85,107,126,146,165,187,206,226,245,267,287,306,327,346,365,386,407,426,445,465,487,505,525,545,566,587,606,626,645,665,686,706,725,746,766,787,806,826,845],"xSR":741.5,"ySR":501.8,"xT1":424.9,"yT1":0,"xT2":1058.1,"yT2":0,"toosoon":0,"cond_shown":"equaldotanddens","ratio_trial":750,"smaller_num":"6","larger_num":"8","correct_side":2,"subjID":"nicollsofiarinconcuellar30","gender":"1","age":"11","school":"6"},{"start_time":1551791182256,"click_time":1551791183136,"finger_time":1551791182654,"fix_duration":499.16225386544,"trial":34,"RT":398,"MT":482,"sideResp":1,"stimulus":"img/900/equaldotsize/L/1_Ratio_900_L_10_R_9.png","xmouse":[809,809,809,809,809,809,809,809,809,809,809,809,809,809,809,809,809,809,801,752,700,636,566,501,424,398,392,391,392,397,398,399,399,399,401,403,404,406,407,409,410,412,419,430],"ymouse":[580,577,577,577,577,577,577,577,577,577,577,577,577,577,577,577,576,569,549,478,419,356,295,233,124,75,53,40,28,16,13,11,10,10,7,5,4,3,3,3,3,3,8,19],"timestamp_mouse":[19,41,59,78,99,119,139,159,178,200,218,239,260,279,299,320,339,358,379,398,418,439,459,479,499,518,539,558,578,598,619,640,658,679,698,719,738,759,779,799,818,838,860,880],"xSR":741.5,"ySR":501.8,"xT1":424.9,"yT1":0,"xT2":1058.1,"yT2":0,"toosoon":0,"cond_shown":"equaldotsize","ratio_trial":900,"smaller_num":"9","larger_num":"10","correct_side":1,"subjID":"nicollsofiarinconcuellar30","gender":"1","age":"11","school":"6"},{"start_time":1551791184206,"click_time":1551791185136,"finger_time":1551791184595,"fix_duration":250,"trial":35,"RT":389,"MT":541,"sideResp":2,"stimulus":"img/750/equaldotsize/L/9_Ratio_750_L_4_R_3.png","xmouse":[785,785,785,785,785,785,785,785,785,785,785,785,785,785,785,785,785,786,797,814,829,853,915,932,940,942,943,943,943,943,943,943,943,943,943,943,944,948,953,959,966,977,1010,1028,1040,1053,1062],"ymouse":[524,524,524,524,524,524,524,524,524,524,524,524,524,524,524,524,524,524,516,492,469,424,313,277,257,248,245,244,244,244,244,244,244,244,244,241,233,210,186,169,150,130,94,81,73,64,59],"timestamp_mouse":[8,29,49,69,90,110,130,149,169,190,208,229,249,268,288,308,329,349,369,389,409,429,449,469,490,508,530,549,568,590,608,628,648,668,688,708,728,749,770,789,808,828,850,868,888,909,930],"xSR":741.5,"ySR":501.8,"xT1":424.9,"yT1":0,"xT2":1058.1,"yT2":0,"toosoon":0,"cond_shown":"equaldotsize","ratio_trial":750,"smaller_num":"3","larger_num":"4","correct_side":1,"subjID":"nicollsofiarinconcuellar30","gender":"1","age":"11","school":"6"},{"start_time":1551791187127,"click_time":1551791188235,"finger_time":1551791187794,"fix_duration":851.9013903095672,"trial":36,"RT":667,"MT":441,"sideResp":2,"stimulus":"img/250/equaldotanddens/R/10_Ratio_250_L_4_R_16.png","xmouse":[795,795,795,795,795,795,795,795,795,795,795,795,795,795,795,795,795,795,795,795,795,794,790,787,784,783,783,783,783,783,783,789,813,843,887,931,1011,1051,1089,1115,1137,1162,1174,1182,1185,1187,1187,1184,1179,1175,1172,1169,1167,1165,1160,1155],"ymouse":[552,552,552,552,552,552,552,552,552,552,552,552,552,552,552,552,552,552,552,552,552,552,552,550,549,548,548,548,548,547,546,538,513,488,447,405,326,282,237,199,168,124,106,93,81,69,51,43,36,33,32,32,31,31,32,36],"timestamp_mouse":[10,28,58,67,88,109,128,148,167,188,208,228,247,268,288,309,328,348,368,387,407,427,448,468,487,508,529,548,567,588,607,627,648,667,688,708,728,747,767,788,807,828,847,868,887,909,928,947,968,988,1008,1027,1047,1068,1088,1107],"xSR":741.5,"ySR":501.8,"xT1":424.9,"yT1":0,"xT2":1058.1,"yT2":0,"toosoon":0,"cond_shown":"equaldotanddens","ratio_trial":250,"smaller_num":"4","larger_num":"16","correct_side":2,"subjID":"nicollsofiarinconcuellar30","gender":"1","age":"11","school":"6"},{"start_time":1551791189687,"click_time":1551791195654,"finger_time":1551791195174,"fix_duration":810.2090206909812,"trial":37,"RT":5487,"MT":480,"sideResp":2,"stimulus":"img/250/randomdotsizeEA/R/11_Ratio_250_L_3_R_12.png","xmouse":[779,779,779,779,779,779,779,779,779,779,779,779,779,779,779,779,779,779,779,779,779,779,779,779,779,779,779,779,779,779,779,779,779,779,779,779,779,779,779,779,779,779,779,779,779,779,779,779,779,779,779,779,779,779,779,779,779,779,779,779,779,779,779,779,779,779,779,779,779,779,779,779,779,779,779,779,779,779,779,779,779,779,779,779,779,779,779,779,779,779,779,779,779,779,779,779,779,779,779,779,779,779,779,779,779,779,779,779,779,779,779,779,779,779,779,779,779,779,779,779,779,779,779,779,779,779,779,779,779,779,779,779,779,779,779,779,779,779,779,779,779,779,779,779,779,779,779,779,779,779,779,779,779,779,779,779,779,779,779,779,779,779,779,779,779,779,779,779,779,779,779,779,779,779,779,779,779,779,779,779,779,779,779,779,779,779,779,779,779,779,779,779,779,779,779,779,779,779,779,779,779,779,779,779,779,779,779,779,779,779,779,779,779,779,779,779,779,779,779,779,779,779,779,779,779,779,779,779,779,779,779,779,779,779,779,779,779,779,779,779,779,779,779,779,779,779,779,779,779,779,779,779,779,779,779,779,779,779,779,779,779,779,779,779,779,779,779,779,779,779,779,779,768,752,736,759,774,801,812,812,812,812,812,812,812,812,812,854,906,945,961,966,972,991,1009,1033,1051,1086],"ymouse":[583,583,583,583,583,583,583,583,583,583,583,583,583,583,583,583,583,583,583,583,583,583,583,583,583,583,583,583,583,583,583,583,583,583,583,583,583,583,583,583,583,583,583,583,583,583,583,583,583,583,583,583,583,583,583,583,583,583,583,583,583,583,583,583,583,583,583,583,583,583,583,583,583,583,583,583,583,583,583,583,583,583,583,583,583,583,583,583,583,583,583,583,583,583,583,583,583,583,583,583,583,583,583,583,583,583,583,583,583,583,583,583,583,583,583,583,583,583,583,583,583,583,583,583,583,583,583,583,583,583,583,583,583,583,583,583,583,583,583,583,583,583,583,583,583,583,583,583,583,583,583,583,583,583,583,583,583,583,583,583,583,583,583,583,583,583,583,583,583,583,583,583,583,583,583,583,583,583,583,583,583,583,583,583,583,583,583,583,583,583,583,583,583,583,583,583,583,583,583,583,583,583,583,583,583,583,583,583,583,583,583,583,583,583,583,583,583,583,583,583,583,583,583,583,583,583,583,583,583,583,583,583,583,583,583,583,583,583,583,583,583,583,583,583,583,583,583,583,583,583,583,583,583,583,583,583,583,583,583,583,583,583,583,583,583,583,583,583,583,583,583,575,510,399,221,152,117,36,8,8,8,8,8,8,8,8,8,120,182,213,218,218,215,189,156,114,85,63],"timestamp_mouse":[9,32,47,67,89,108,128,148,168,188,208,228,248,267,287,307,327,348,369,388,408,427,449,468,488,508,529,548,568,589,609,629,649,668,688,709,747,750,768,788,808,829,848,867,888,908,927,947,968,987,1007,1028,1047,1068,1088,1107,1128,1148,1168,1187,1208,1227,1247,1269,1288,1307,1329,1349,1367,1410,1428,1447,1467,1488,1508,1528,1547,1569,1588,1607,1628,1648,1667,1688,1707,1727,1747,1767,1788,1808,1827,1848,1868,1889,1908,1927,1948,1968,1988,2008,2028,2048,2068,2088,2108,2129,2148,2168,2187,2207,2228,2249,2267,2288,2307,2328,2348,2368,2387,2409,2428,2447,2469,2488,2507,2529,2549,2568,2589,2609,2628,2649,2669,2687,2709,2727,2747,2767,2788,2808,2828,2848,2868,2887,2908,2928,2948,2967,2987,3008,3029,3047,3068,3088,3108,3128,3149,3167,3188,3207,3227,3247,3267,3288,3307,3327,3347,3367,3389,3408,3427,3447,3469,3487,3509,3528,3547,3568,3588,3608,3627,3648,3669,3688,3707,3727,3749,3768,3787,3809,3827,3847,3869,3888,3908,3927,3949,3968,3988,4008,4027,4049,4069,4087,4109,4129,4147,4169,4188,4208,4228,4248,4268,4288,4308,4327,4349,4367,4388,4408,4428,4448,4467,4488,4508,4528,4547,4567,4588,4608,4628,4647,4668,4688,4707,4727,4748,4769,4787,4807,4829,4847,4867,4889,4907,4927,4948,4968,4988,5008,5028,5047,5069,5088,5108,5129,5147,5167,5189,5208,5229,5248,5269,5287,5307,5329,5348,5367,5387,5408,5427,5448,5468,5487,5508,5528,5547,5568,5587,5607,5628,5649,5667,5688,5708,5728,5749,5768,5788,5808,5827,5849,5867,5887,5908,5928,5947,5967],"xSR":741.5,"ySR":501.8,"xT1":424.9,"yT1":0,"xT2":1058.1,"yT2":0,"toosoon":0,"cond_shown":"randomdotsizeEA","ratio_trial":250,"smaller_num":"3","larger_num":"12","correct_side":2,"subjID":"nicollsofiarinconcuellar30","gender":"1","age":"11","school":"6"},{"start_time":1551791196948,"click_time":1551791198195,"finger_time":1551791197355,"fix_duration":250,"trial":38,"RT":407,"MT":840,"sideResp":1,"stimulus":"img/900/randomdotsizeEA/L/4_Ratio_900_L_20_R_18.png","xmouse":[766,766,766,766,766,766,766,766,766,766,766,766,766,768,769,769,774,778,785,796,829,846,868,876,883,892,896,899,899,899,896,894,894,894,894,899,906,915,921,924,924,924,921,910,893,844,816,773,719,667,622,613,608,606,605,595,587,579,571,560,548,499,477],"ymouse":[581,581,581,581,581,581,581,581,581,581,581,580,578,576,576,575,569,565,555,539,489,457,428,416,404,385,374,366,360,355,345,339,337,335,332,317,308,297,290,286,285,285,285,285,284,272,254,234,220,206,184,175,166,162,157,149,147,144,141,134,127,105,94],"timestamp_mouse":[8,41,47,68,86,108,127,148,166,187,207,226,247,267,287,306,326,348,367,387,407,426,447,467,486,507,526,546,567,587,607,627,646,667,688,707,727,747,767,787,806,826,847,867,887,907,927,946,966,987,1007,1026,1046,1068,1088,1107,1126,1147,1168,1187,1207,1228,1247],"xSR":741.5,"ySR":501.8,"xT1":424.9,"yT1":0,"xT2":1058.1,"yT2":0,"toosoon":0,"cond_shown":"randomdotsizeEA","ratio_trial":900,"smaller_num":"18","larger_num":"20","correct_side":1,"subjID":"nicollsofiarinconcuellar30","gender":"1","age":"11","school":"6"},{"start_time":1551791199487,"click_time":1551791200216,"finger_time":1551791200095,"fix_duration":250,"trial":39,"RT":608,"MT":121,"sideResp":2,"stimulus":"img/750/equaldotsize/L/14_Ratio_750_L_8_R_6.png","xmouse":[796,796,796,796,796,796,796,796,796,796,796,796,796,796,796,796,796,796,796,796,796,796,796,796,796,796,796,796,810,823,846,885,927,1023,1067,1125,1152],"ymouse":[563,563,563,563,563,563,563,563,563,563,563,563,563,563,563,563,563,563,563,563,563,563,563,563,563,563,562,559,536,518,490,445,387,251,188,110,74],"timestamp_mouse":[8,34,48,68,87,109,128,148,168,188,209,227,247,269,288,308,329,348,368,387,409,428,447,467,488,508,528,549,568,588,608,628,648,668,688,707,728],"xSR":741.5,"ySR":501.8,"xT1":424.9,"yT1":0,"xT2":1058.1,"yT2":0,"toosoon":0,"cond_shown":"equaldotsize","ratio_trial":750,"smaller_num":"6","larger_num":"8","correct_side":1,"subjID":"nicollsofiarinconcuellar30","gender":"1","age":"11","school":"6"},{"start_time":1551791203378,"click_time":1551791206315,"finger_time":1551791204215,"fix_duration":861.7257331708672,"trial":40,"RT":837,"MT":2100,"sideResp":1,"stimulus":"img/750/randomdotsizeEA/R/12_Ratio_750_L_3_R_4.png","xmouse":[833,833,833,833,833,833,833,833,833,833,833,833,833,833,833,833,833,833,833,833,833,833,833,833,833,833,833,833,833,833,833,833,833,837,838,838,838,838,838,840,841,842,842,842,842,842,842,842,842,842,842,842,842,842,842,837,826,816,807,800,800,800,800,800,800,800,800,803,809,810,810,810,810,810,810,810,810,810,810,810,810,810,810,810,810,810,810,810,810,810,807,800,795,785,779,773,772,771,771,771,771,771,771,771,772,774,775,777,781,790,797,804,808,811,811,811,811,811,780,684,587,474,349,230,230,230,230,230,230,230,230,230,230,230,230,230,230,230,230,331,345,361,376,388,406,416,428],"ymouse":[565,565,565,565,565,565,565,565,565,565,565,565,565,565,565,565,565,565,565,565,565,565,565,565,565,565,565,565,565,565,565,565,565,563,563,563,563,563,563,566,568,569,569,569,569,569,569,569,569,569,569,569,569,569,569,569,565,561,556,553,553,553,553,553,553,553,553,553,553,553,553,553,553,553,553,553,553,553,553,553,553,553,553,553,553,553,553,553,553,552,552,550,549,547,546,546,546,546,546,546,546,546,546,546,546,546,546,546,546,546,546,546,546,546,546,546,545,544,487,371,280,182,85,4,4,4,4,4,4,4,4,4,4,4,4,4,4,4,4,5,13,24,35,45,60,66,72],"timestamp_mouse":[18,42,57,77,97,117,138,156,178,196,217,237,257,277,297,317,337,358,378,396,417,437,458,477,496,517,538,556,578,597,617,638,657,676,696,718,736,756,778,797,817,837,856,877,897,918,936,956,977,996,1016,1037,1056,1078,1097,1116,1137,1157,1176,1196,1216,1236,1257,1277,1297,1316,1337,1357,1377,1397,1417,1437,1457,1478,1497,1516,1537,1558,1577,1596,1618,1638,1658,1677,1697,1718,1737,1757,1777,1797,1817,1836,1857,1877,1897,1917,1936,1957,1978,1997,2016,2036,2058,2077,2096,2117,2137,2156,2177,2197,2217,2237,2258,2278,2296,2318,2337,2357,2377,2397,2417,2438,2456,2477,2497,2516,2536,2556,2576,2597,2616,2636,2657,2677,2696,2717,2738,2758,2777,2797,2816,2837,2858,2877,2897,2917,2937],"xSR":741.5,"ySR":501.8,"xT1":424.9,"yT1":0,"xT2":1058.1,"yT2":0,"toosoon":0,"cond_shown":"randomdotsizeEA","ratio_trial":750,"smaller_num":"3","larger_num":"4","correct_side":2,"subjID":"nicollsofiarinconcuellar30","gender":"1","age":"11","school":"6"},{"start_time":1551791208346,"click_time":1551791209136,"finger_time":1551791208755,"fix_duration":1070.048869118019,"trial":41,"RT":409,"MT":381,"sideResp":2,"stimulus":"img/750/randomdotsizeEA/L/9_Ratio_750_L_4_R_3.png","xmouse":[780,780,778,773,769,766,766,766,767,777,800,811,813,813,813,813,813,818,831,890,935,954,964,971,987,1002,1019,1031,1042,1050,1069,1083,1096,1107,1112,1117,1119,1121,1123],"ymouse":[537,534,533,531,529,528,528,528,533,544,564,572,573,573,573,573,573,573,563,529,490,462,436,410,347,312,280,259,238,223,182,158,138,123,115,107,103,100,97],"timestamp_mouse":[29,48,69,88,108,129,150,168,188,208,229,249,269,289,309,328,348,368,389,409,428,449,469,488,510,529,548,569,590,608,630,649,668,688,708,728,750,769,790],"xSR":741.5,"ySR":501.8,"xT1":424.9,"yT1":0,"xT2":1058.1,"yT2":0,"toosoon":0,"cond_shown":"randomdotsizeEA","ratio_trial":750,"smaller_num":"3","larger_num":"4","correct_side":1,"subjID":"nicollsofiarinconcuellar30","gender":"1","age":"11","school":"6"},{"start_time":1551791218339,"click_time":1551791219236,"finger_time":1551791218935,"fix_duration":802.9093553397773,"trial":42,"RT":596,"MT":301,"sideResp":2,"stimulus":"img/500/randomdotsizeEA/R/3_Ratio_500_L_10_R_20.png","xmouse":[786,786,786,786,786,786,786,786,786,786,786,786,786,786,786,786,786,786,786,786,785,782,781,780,780,780,780,785,804,850,995,1063,1090,1105,1113,1116,1122,1122,1122,1124,1129,1137,1139,1140,1141],"ymouse":[539,539,539,539,539,539,539,539,539,539,539,539,539,539,539,539,539,539,539,539,537,532,530,528,527,527,526,524,521,515,491,457,434,410,384,354,262,219,191,173,149,126,112,102,97],"timestamp_mouse":[23,45,57,76,96,116,136,156,176,196,216,237,256,277,297,317,337,357,378,396,417,437,456,476,496,516,536,556,577,596,616,636,656,677,697,716,736,757,777,796,817,836,857,876,897],"xSR":741.5,"ySR":501.8,"xT1":424.9,"yT1":0,"xT2":1058.1,"yT2":0,"toosoon":0,"cond_shown":"randomdotsizeEA","ratio_trial":500,"smaller_num":"10","larger_num":"20","correct_side":2,"subjID":"nicollsofiarinconcuellar30","gender":"1","age":"11","school":"6"},{"start_time":1551791221578,"click_time":1551791222716,"finger_time":1551791222255,"fix_duration":1480.6781636022538,"trial":43,"RT":677,"MT":461,"sideResp":2,"stimulus":"img/500/equaldotsize/R/2_Ratio_500_L_3_R_6.png","xmouse":[790,790,790,790,790,790,790,790,790,791,791,791,791,791,791,791,791,791,791,791,791,791,791,791,791,791,791,791,791,800,811,819,832,844,882,906,933,955,979,986,989,995,999,1003,1015,1022,1028,1032,1039,1040,1041,1042,1043,1048,1052,1058,1063],"ymouse":[547,547,546,545,545,544,543,543,543,541,541,541,541,540,540,540,540,540,540,540,540,540,540,540,540,540,540,540,540,533,524,517,507,495,439,387,330,274,208,184,175,162,148,135,110,99,89,80,66,65,63,62,61,58,56,53,52],"timestamp_mouse":[18,41,57,77,97,118,137,157,177,197,217,239,257,277,297,317,337,359,378,397,418,438,457,477,497,518,537,557,577,598,617,637,657,677,697,717,738,758,777,797,817,838,857,878,897,917,938,958,978,998,1018,1037,1057,1077,1097,1118,1138],"xSR":741.5,"ySR":501.8,"xT1":424.9,"yT1":0,"xT2":1058.1,"yT2":0,"toosoon":0,"cond_shown":"equaldotsize","ratio_trial":500,"smaller_num":"3","larger_num":"6","correct_side":2,"subjID":"nicollsofiarinconcuellar30","gender":"1","age":"11","school":"6"},{"start_time":1551791224547,"click_time":1551791225756,"finger_time":1551791225176,"fix_duration":1150.9715964938655,"trial":44,"RT":629,"MT":580,"sideResp":2,"stimulus":"img/500/randomdotsizeEA/R/9_Ratio_500_L_2_R_4.png","xmouse":[786,786,786,787,787,788,788,788,788,788,788,788,788,788,788,789,789,789,789,790,790,790,790,790,790,790,791,792,792,792,792,789,777,763,747,739,734,734,739,746,787,834,848,860,873,898,906,912,916,919,922,924,924,925,927,933,959,983,1010,1037,1086],"ymouse":[554,554,554,553,553,553,553,553,553,553,553,553,553,553,553,552,550,550,550,549,549,549,549,548,547,544,542,539,538,531,502,458,412,363,311,269,215,197,187,178,161,150,145,139,132,112,97,83,73,61,52,47,46,45,43,42,36,35,35,34,34],"timestamp_mouse":[9,40,49,68,89,108,128,149,168,188,208,228,248,269,289,308,329,349,368,389,408,428,448,468,488,508,528,549,569,588,608,629,648,668,689,708,728,749,768,788,808,828,848,869,888,909,928,948,968,989,1008,1028,1048,1068,1088,1108,1128,1148,1168,1188,1209],"xSR":741.5,"ySR":501.8,"xT1":424.9,"yT1":0,"xT2":1058.1,"yT2":0,"toosoon":0,"cond_shown":"randomdotsizeEA","ratio_trial":500,"smaller_num":"2","larger_num":"4","correct_side":2,"subjID":"nicollsofiarinconcuellar30","gender":"1","age":"11","school":"6"},{"start_time":1551791228626,"click_time":1551791229775,"finger_time":1551791229356,"fix_duration":250,"trial":45,"RT":730,"MT":419,"sideResp":1,"stimulus":"img/500/randomdotsizeEA/L/10_Ratio_500_L_4_R_2.png","xmouse":[792,822,822,828,828,828,828,828,828,828,828,828,828,828,828,828,828,828,825,815,801,784,783,783,783,783,783,783,783,783,783,781,779,775,771,766,742,716,659,617,583,563,563,566,568,571,574,574,575,574,574,569,563,557,551,545,528,519],"ymouse":[563,559,559,558,558,558,558,558,558,558,558,558,558,558,558,558,558,558,558,558,555,553,552,552,552,552,552,552,552,552,552,551,549,547,544,537,494,446,350,280,222,159,143,129,119,110,103,99,93,91,89,87,86,85,83,82,77,74],"timestamp_mouse":[10,43,50,69,89,110,129,149,169,190,210,229,249,270,289,309,329,349,369,390,409,429,450,469,489,509,529,550,570,590,610,630,649,669,690,709,730,750,770,789,810,830,849,869,889,910,930,949,969,989,1009,1029,1049,1069,1089,1109,1130,1149],"xSR":741.5,"ySR":501.8,"xT1":424.9,"yT1":0,"xT2":1058.1,"yT2":0,"toosoon":0,"cond_shown":"randomdotsizeEA","ratio_trial":500,"smaller_num":"2","larger_num":"4","correct_side":1,"subjID":"nicollsofiarinconcuellar30","gender":"1","age":"11","school":"6"},{"start_time":1551791231328,"click_time":1551791232636,"finger_time":1551791231897,"fix_duration":672.5198631994562,"trial":46,"RT":569,"MT":739,"sideResp":2,"stimulus":"img/500/randomdotsizeEA/R/12_Ratio_500_L_1_R_2.png","xmouse":[801,801,801,801,801,801,801,801,801,801,801,801,801,801,801,801,801,801,801,801,801,801,801,801,801,801,803,820,833,844,857,871,874,874,874,875,877,879,881,884,891,907,924,941,957,976,1018,1035,1044,1047,1048,1048,1048,1048,1050,1050,1053,1056,1059,1064,1070,1079,1083,1084,1086,1087],"ymouse":[541,541,541,541,541,541,541,541,541,541,541,541,541,541,541,541,541,541,541,541,541,541,541,541,541,540,534,504,484,462,426,362,299,288,281,275,268,265,262,260,256,249,242,235,228,217,189,174,157,141,130,124,118,116,115,114,111,110,109,107,106,104,102,101,100,99],"timestamp_mouse":[9,44,48,68,89,109,128,149,167,188,207,227,247,268,287,307,328,347,367,388,407,427,448,467,487,507,527,547,569,587,608,627,647,667,688,708,728,747,768,788,808,828,847,868,887,908,928,947,967,987,1007,1027,1048,1067,1088,1107,1127,1147,1167,1187,1208,1227,1247,1267,1287,1307],"xSR":741.5,"ySR":501.8,"xT1":424.9,"yT1":0,"xT2":1058.1,"yT2":0,"toosoon":0,"cond_shown":"randomdotsizeEA","ratio_trial":500,"smaller_num":"1","larger_num":"2","correct_side":2,"subjID":"nicollsofiarinconcuellar30","gender":"1","age":"11","school":"6"},{"start_time":1551791238593,"click_time":1551791239356,"finger_time":1551791239216,"fix_duration":1196.5361936412082,"trial":47,"RT":623,"MT":140,"sideResp":2,"stimulus":"img/500/equaldotanddens/R/14_Ratio_500_L_5_R_10.png","xmouse":[796,796,796,798,798,798,798,798,798,798,798,798,798,798,798,798,798,798,798,798,798,798,798,798,798,798,798,798,798,804,841,892,942,1033,1075,1092,1111,1114,1108],"ymouse":[553,553,553,558,558,558,558,558,558,558,558,558,558,558,558,558,558,558,558,558,558,558,558,558,558,558,558,558,559,559,548,526,500,408,344,279,191,122,28],"timestamp_mouse":[10,30,43,63,82,102,122,143,162,182,202,222,242,262,282,302,323,343,362,382,402,423,443,463,482,503,522,543,562,582,602,623,643,663,682,702,723,743,763],"xSR":741.5,"ySR":501.8,"xT1":424.9,"yT1":0,"xT2":1058.1,"yT2":0,"toosoon":0,"cond_shown":"equaldotanddens","ratio_trial":500,"smaller_num":"5","larger_num":"10","correct_side":2,"subjID":"nicollsofiarinconcuellar30","gender":"1","age":"11","school":"6"},{"start_time":1551791240368,"click_time":1551791241075,"finger_time":1551791240875,"fix_duration":250,"trial":48,"RT":507,"MT":200,"sideResp":1,"stimulus":"img/900/randomdotsizeEA/L/4_Ratio_900_L_20_R_18.png","xmouse":[788,788,788,788,788,788,788,788,788,788,788,788,788,788,788,788,788,788,788,788,789,793,801,808,813,819,820,820,820,820,811,794,751,687,535,474],"ymouse":[563,563,563,563,563,563,563,563,563,563,563,563,563,563,563,563,563,563,563,563,559,552,543,531,518,491,483,479,476,471,455,425,353,263,119,56],"timestamp_mouse":[7,38,47,67,87,108,129,148,168,188,208,227,247,267,288,307,328,348,368,387,408,427,448,467,487,507,527,547,568,588,607,627,647,667,687,707],"xSR":741.5,"ySR":501.8,"xT1":424.9,"yT1":0,"xT2":1058.1,"yT2":0,"toosoon":0,"cond_shown":"randomdotsizeEA","ratio_trial":900,"smaller_num":"18","larger_num":"20","correct_side":1,"subjID":"nicollsofiarinconcuellar30","gender":"1","age":"11","school":"6"},{"start_time":1551791243907,"click_time":1551791245296,"finger_time":1551791244715,"fix_duration":250,"trial":49,"RT":808,"MT":581,"sideResp":1,"stimulus":"img/750/equaldotanddens/L/1_Ratio_750_L_20_R_15.png","xmouse":[791,791,791,791,791,791,791,791,791,791,791,791,791,791,791,791,791,791,791,791,791,791,791,791,791,791,791,791,791,791,791,791,791,791,791,791,791,789,777,754,713,655,507,409,358,319,296,268,267,267,267,269,275,291,306,319,334,355,360,364,366,369,378,382,384,386,389,391,413,441],"ymouse":[553,553,553,553,553,553,553,553,553,553,553,553,553,553,553,553,553,553,553,553,553,553,553,553,553,553,553,553,553,553,553,553,553,553,553,553,553,551,538,512,478,430,320,255,222,195,171,146,144,143,141,133,119,94,81,75,70,62,58,55,53,52,50,49,48,48,47,47,47,52],"timestamp_mouse":[8,37,49,69,88,109,128,150,168,188,208,229,249,268,289,310,328,348,369,388,409,428,448,469,488,508,528,548,568,588,609,628,649,668,688,708,728,749,768,789,808,828,848,868,888,909,929,948,968,989,1008,1028,1048,1068,1088,1108,1128,1148,1168,1189,1208,1228,1249,1269,1289,1309,1329,1348,1368,1389],"xSR":741.5,"ySR":501.8,"xT1":424.9,"yT1":0,"xT2":1058.1,"yT2":0,"toosoon":0,"cond_shown":"equaldotanddens","ratio_trial":750,"smaller_num":"15","larger_num":"20","correct_side":1,"subjID":"nicollsofiarinconcuellar30","gender":"1","age":"11","school":"6"},{"start_time":1551791246720,"click_time":1551791247816,"finger_time":1551791247455,"fix_duration":423.31085953859906,"trial":50,"RT":735,"MT":361,"sideResp":2,"stimulus":"img/900/equaldotsize/R/14_Ratio_900_L_18_R_20.png","xmouse":[802,802,802,802,802,802,802,802,802,802,802,802,802,802,802,802,802,802,802,802,802,802,802,802,802,802,802,802,802,802,802,802,806,813,822,836,881,911,940,974,994,1009,1009,1009,1009,1009,1009,1009,1009,1014,1019,1029,1036,1050,1061],"ymouse":[584,584,584,584,584,584,584,584,584,584,584,584,584,584,584,584,584,584,584,584,584,584,584,584,584,584,584,584,584,584,584,584,581,569,552,526,447,396,334,256,190,121,95,90,90,90,90,89,86,81,76,63,55,41,31],"timestamp_mouse":[15,49,56,75,95,116,137,156,176,196,215,235,255,275,295,315,335,356,377,395,415,435,455,475,495,515,535,555,575,596,615,636,656,675,696,715,735,755,776,796,815,835,855,876,896,916,936,955,975,995,1015,1035,1055,1075,1096],"xSR":741.5,"ySR":501.8,"xT1":424.9,"yT1":0,"xT2":1058.1,"yT2":0,"toosoon":0,"cond_shown":"equaldotsize","ratio_trial":900,"smaller_num":"18","larger_num":"20","correct_side":2,"subjID":"nicollsofiarinconcuellar30","gender":"1","age":"11","school":"6"},{"start_time":1551791248946,"click_time":1551791249575,"finger_time":1551791249455,"fix_duration":489.5164181296052,"trial":51,"RT":509,"MT":120,"sideResp":1,"stimulus":"img/250/equaldotanddens/L/15_Ratio_250_L_12_R_3.png","xmouse":[753,753,753,753,753,753,753,753,753,753,753,753,753,753,753,756,758,759,759,761,762,765,768,771,772,772,746,717,688,650,567,519],"ymouse":[601,601,601,601,601,601,601,601,601,601,601,601,601,601,601,601,600,599,599,598,597,588,577,563,541,501,384,323,263,197,67,9],"timestamp_mouse":[12,39,49,69,89,111,129,150,171,190,210,229,249,269,289,310,329,349,369,390,410,430,449,469,490,509,529,550,570,590,611,629],"xSR":741.5,"ySR":501.8,"xT1":424.9,"yT1":0,"xT2":1058.1,"yT2":0,"toosoon":0,"cond_shown":"equaldotanddens","ratio_trial":250,"smaller_num":"3","larger_num":"12","correct_side":1,"subjID":"nicollsofiarinconcuellar30","gender":"1","age":"11","school":"6"},{"start_time":1551791254926,"click_time":1551791256655,"finger_time":1551791255816,"fix_duration":250,"trial":52,"RT":890,"MT":839,"sideResp":1,"stimulus":"img/900/randomdotsizeEA/R/12_Ratio_900_L_18_R_20.png","xmouse":[836,835,832,830,828,825,819,818,818,818,817,817,814,813,812,812,812,812,812,812,812,812,812,812,812,812,812,812,812,812,812,812,812,812,812,812,812,812,812,812,812,811,817,820,830,839,866,880,881,881,881,881,881,883,883,883,883,883,883,883,883,883,876,867,854,842,795,767,736,693,649,616,571,565,563,563,563,563,563,563,562,558,554,549,544,537,519],"ymouse":[592,591,587,585,583,581,578,577,577,577,577,577,577,577,577,577,577,577,577,577,577,577,577,577,577,577,577,577,577,577,577,577,577,577,577,577,577,577,577,577,577,576,542,515,470,422,320,248,196,168,148,126,121,115,113,112,111,111,111,111,111,110,109,107,103,99,86,77,69,58,44,35,23,21,21,21,21,21,21,21,21,22,25,28,31,34,43],"timestamp_mouse":[12,39,50,69,90,110,129,149,169,190,210,230,250,270,289,309,329,349,369,390,409,430,450,469,489,509,530,549,570,590,610,630,649,671,689,710,731,750,771,790,810,830,849,869,890,909,930,949,969,989,1010,1030,1050,1070,1089,1109,1130,1150,1169,1190,1210,1229,1249,1269,1289,1309,1329,1349,1369,1389,1409,1429,1450,1470,1490,1510,1530,1549,1570,1589,1609,1629,1649,1670,1691,1711,1729],"xSR":741.5,"ySR":501.8,"xT1":424.9,"yT1":0,"xT2":1058.1,"yT2":0,"toosoon":0,"cond_shown":"randomdotsizeEA","ratio_trial":900,"smaller_num":"18","larger_num":"20","correct_side":2,"subjID":"nicollsofiarinconcuellar30","gender":"1","age":"11","school":"6"},{"start_time":1551791260958,"click_time":1551791261596,"finger_time":1551791261515,"fix_duration":1280.9459807863689,"trial":53,"RT":557,"MT":81,"sideResp":1,"stimulus":"img/250/equaldotanddens/L/7_Ratio_250_L_8_R_2.png","xmouse":[797,797,797,797,797,797,797,797,797,797,797,797,797,797,797,797,797,797,797,797,797,797,797,797,797,788,768,739,699,602,516,465],"ymouse":[552,552,552,552,552,552,552,552,552,552,552,552,552,552,552,552,552,552,552,552,552,552,552,552,551,542,520,486,435,269,107,14],"timestamp_mouse":[18,37,57,77,97,117,137,157,179,198,218,237,258,278,298,318,338,357,377,397,417,437,457,478,498,517,537,557,577,598,617,638],"xSR":741.5,"ySR":501.8,"xT1":424.9,"yT1":0,"xT2":1058.1,"yT2":0,"toosoon":0,"cond_shown":"equaldotanddens","ratio_trial":250,"smaller_num":"2","larger_num":"8","correct_side":1,"subjID":"nicollsofiarinconcuellar30","gender":"1","age":"11","school":"6"},{"start_time":1551791264677,"click_time":1551791266195,"finger_time":1551791265695,"fix_duration":281.9080593742116,"trial":54,"RT":1018,"MT":500,"sideResp":1,"stimulus":"img/900/randomdotsizeEA/L/10_Ratio_900_L_20_R_18.png","xmouse":[791,791,791,791,791,791,791,791,791,791,791,791,791,791,791,791,791,791,791,791,791,791,791,791,791,791,791,791,791,791,791,791,791,791,791,791,791,791,791,791,791,791,791,791,791,791,791,791,790,775,763,756,745,705,684,656,645,636,625,625,625,625,625,625,625,625,625,625,625,625,625,625,625,625,530,517],"ymouse":[537,537,537,537,537,537,537,537,537,537,537,537,537,537,537,537,537,537,537,537,537,537,537,537,537,537,537,537,537,537,537,537,537,537,537,537,537,537,537,537,537,537,537,537,537,537,537,537,532,509,492,475,457,384,340,272,229,184,66,6,6,6,6,6,6,6,6,6,6,6,6,6,6,6,16,32],"timestamp_mouse":[35,38,59,78,99,119,139,159,179,199,219,240,259,279,298,319,338,359,378,399,418,440,459,478,498,518,538,559,579,599,618,638,659,679,700,719,738,759,779,798,819,838,858,879,898,918,938,958,978,998,1018,1038,1059,1078,1098,1119,1138,1159,1178,1198,1219,1238,1259,1279,1298,1318,1338,1358,1380,1399,1418,1438,1459,1478,1498,1518],"xSR":741.5,"ySR":501.8,"xT1":424.9,"yT1":0,"xT2":1058.1,"yT2":0,"toosoon":0,"cond_shown":"randomdotsizeEA","ratio_trial":900,"smaller_num":"18","larger_num":"20","correct_side":1,"subjID":"nicollsofiarinconcuellar30","gender":"1","age":"11","school":"6"},{"start_time":1551791268687,"click_time":1551791270015,"finger_time":1551791269375,"fix_duration":250,"trial":55,"RT":688,"MT":640,"sideResp":2,"stimulus":"img/750/equaldotsize/R/12_Ratio_750_L_3_R_4.png","xmouse":[787,786,784,783,783,783,783,783,783,783,783,783,783,783,783,783,783,783,782,782,782,782,782,782,782,782,781,781,781,781,781,781,781,781,796,818,854,896,959,959,959,959,959,959,959,959,959,959,959,959,959,959,959,959,959,959,959,959,959,959,959,959,959,959,959,959,1115],"ymouse":[548,549,550,551,551,551,551,551,551,551,551,551,551,551,551,551,551,551,552,552,552,552,552,552,552,552,552,552,552,552,552,552,551,528,477,413,312,182,33,33,33,33,33,33,33,33,33,33,33,33,33,33,33,33,33,33,33,33,33,33,33,33,33,33,33,33,12],"timestamp_mouse":[10,28,49,69,88,109,129,149,168,189,209,229,249,268,289,309,328,348,368,388,408,428,448,469,489,509,529,549,568,589,609,629,649,668,688,708,728,748,768,789,808,828,849,869,889,908,928,948,968,988,1009,1029,1049,1068,1088,1109,1129,1150,1170,1189,1209,1228,1249,1268,1288,1309,1328],"xSR":741.5,"ySR":501.8,"xT1":424.9,"yT1":0,"xT2":1058.1,"yT2":0,"toosoon":0,"cond_shown":"equaldotsize","ratio_trial":750,"smaller_num":"3","larger_num":"4","correct_side":2,"subjID":"nicollsofiarinconcuellar30","gender":"1","age":"11","school":"6"},{"start_time":1551791273775,"click_time":1551791274557,"finger_time":1551791274395,"fix_duration":1316.446547951872,"trial":56,"RT":620,"MT":162,"sideResp":1,"stimulus":"img/250/equaldotsize/L/7_Ratio_250_L_8_R_2.png","xmouse":[774,774,774,774,774,774,774,774,774,774,774,774,774,774,774,774,774,774,774,774,774,774,774,774,774,774,774,774,774,774,766,746,718,683,616,591,568,545,529,506],"ymouse":[560,560,560,560,560,560,560,560,560,560,560,560,560,560,560,560,560,560,560,560,560,560,560,560,560,560,560,560,558,549,508,453,388,329,238,200,162,115,88,63],"timestamp_mouse":[8,20,43,60,81,101,120,140,161,181,200,221,241,260,280,301,320,340,360,381,400,420,440,461,480,500,520,540,561,580,601,620,640,661,680,700,720,741,760,782],"xSR":741.5,"ySR":501.8,"xT1":424.9,"yT1":0,"xT2":1058.1,"yT2":0,"toosoon":0,"cond_shown":"equaldotsize","ratio_trial":250,"smaller_num":"2","larger_num":"8","correct_side":1,"subjID":"nicollsofiarinconcuellar30","gender":"1","age":"11","school":"6"},{"start_time":1551791276532,"click_time":1551791277475,"finger_time":1551791276935,"fix_duration":1034.9571770119264,"trial":57,"RT":403,"MT":540,"sideResp":2,"stimulus":"img/900/equaldotsize/R/13_Ratio_900_L_18_R_20.png","xmouse":[802,802,802,801,801,800,800,799,799,799,799,799,799,799,799,799,799,799,802,805,810,817,823,830,835,844,878,901,926,961,992,1045,1065,1076,1084,1087,1090,1091,1092,1095,1095,1097,1097,1098,1099,1099,1099,1103],"ymouse":[551,551,551,551,551,551,551,551,551,551,551,551,551,551,551,551,549,540,523,503,481,457,422,414,408,399,375,358,335,305,274,208,175,161,150,145,142,141,138,134,131,125,119,116,111,107,103,91],"timestamp_mouse":[8,23,43,64,83,103,123,143,163,184,203,223,243,263,283,303,323,343,364,383,403,423,443,464,483,503,524,543,564,584,603,624,643,663,683,704,723,743,763,783,804,823,843,864,883,903,923,943],"xSR":741.5,"ySR":501.8,"xT1":424.9,"yT1":0,"xT2":1058.1,"yT2":0,"toosoon":0,"cond_shown":"equaldotsize","ratio_trial":900,"smaller_num":"18","larger_num":"20","correct_side":2,"subjID":"nicollsofiarinconcuellar30","gender":"1","age":"11","school":"6"},{"start_time":1551791280127,"click_time":1551791281136,"finger_time":1551791280956,"fix_duration":250,"trial":58,"RT":829,"MT":180,"sideResp":2,"stimulus":"img/750/equaldotanddens/R/7_Ratio_750_L_3_R_4.png","xmouse":[819,819,819,819,819,819,819,819,819,819,819,819,819,819,819,819,819,819,819,819,819,819,819,819,819,819,819,819,819,819,819,819,819,819,819,819,819,819,819,819,819,847,1012,1315,1408,1425,1428,1372,1288,1185,1069],"ymouse":[577,577,577,577,577,577,577,577,577,577,577,577,577,577,577,577,577,577,577,577,577,577,577,577,577,577,577,577,577,577,577,577,577,577,577,577,577,577,577,577,577,558,410,227,180,172,157,149,127,97,79],"timestamp_mouse":[9,29,60,69,88,109,129,149,169,190,209,229,248,269,288,309,330,348,368,389,409,429,448,469,488,509,529,548,568,589,608,628,648,668,689,709,729,748,768,788,809,829,848,868,888,908,928,948,968,988,1008],"xSR":741.5,"ySR":501.8,"xT1":424.9,"yT1":0,"xT2":1058.1,"yT2":0,"toosoon":0,"cond_shown":"equaldotanddens","ratio_trial":750,"smaller_num":"3","larger_num":"4","correct_side":2,"subjID":"nicollsofiarinconcuellar30","gender":"1","age":"11","school":"6"},{"start_time":1551791284108,"click_time":1551791285755,"finger_time":1551791284775,"fix_duration":250,"trial":59,"RT":667,"MT":980,"sideResp":1,"stimulus":"img/900/equaldotsize/R/15_Ratio_900_L_9_R_10.png","xmouse":[778,778,778,778,778,778,778,778,778,778,778,778,778,778,778,778,778,778,778,778,778,778,778,778,778,778,778,778,778,778,778,778,778,757,735,727,726,726,726,726,726,726,726,726,726,726,726,726,726,726,726,726,726,726,726,726,726,724,712,685,627,556,413,372,364,363,363,373,377,382,389,397,413,413,413,413,413,413,413,413,413,413,441],"ymouse":[540,540,540,540,540,540,540,540,540,540,540,540,540,540,540,540,540,540,540,540,540,540,540,540,540,540,540,540,540,540,534,529,510,444,403,389,382,382,382,382,382,382,382,382,382,382,382,382,382,382,382,382,382,382,382,382,382,380,373,352,306,254,147,108,92,77,65,48,43,39,35,27,1,1,1,1,1,1,1,1,1,1,25],"timestamp_mouse":[11,39,47,67,87,108,127,149,167,188,208,227,247,267,287,307,327,348,367,387,408,427,447,467,487,508,527,548,568,588,607,628,647,667,687,707,728,747,767,788,808,828,848,867,887,907,927,948,967,987,1007,1028,1048,1067,1087,1107,1128,1147,1167,1187,1207,1227,1248,1267,1287,1307,1327,1348,1367,1387,1408,1428,1448,1467,1487,1508,1527,1548,1567,1588,1608,1627,1647],"xSR":741.5,"ySR":501.8,"xT1":424.9,"yT1":0,"xT2":1058.1,"yT2":0,"toosoon":0,"cond_shown":"equaldotsize","ratio_trial":900,"smaller_num":"9","larger_num":"10","correct_side":2,"subjID":"nicollsofiarinconcuellar30","gender":"1","age":"11","school":"6"},{"start_time":1551791289688,"click_time":1551791290995,"finger_time":1551791290556,"fix_duration":1412.7977939588961,"trial":60,"RT":868,"MT":439,"sideResp":2,"stimulus":"img/900/equaldotanddens/R/14_Ratio_900_L_18_R_20.png","xmouse":[771,771,771,771,771,771,771,771,771,771,771,771,771,771,771,771,771,771,772,774,775,777,778,778,780,781,783,784,785,785,787,788,790,792,796,797,798,798,800,802,805,809,815,839,866,913,938,954,971,974,976,977,978,978,979,979,982,985,991,997,1004,1013,1022,1049,1056,1070],"ymouse":[552,552,552,552,552,552,552,552,552,552,552,552,552,552,552,552,552,552,552,552,552,551,551,551,550,549,548,547,546,546,545,543,542,540,537,536,535,534,532,530,526,521,512,473,413,307,250,217,187,183,179,177,177,176,176,175,172,169,161,154,146,136,125,100,94,81],"timestamp_mouse":[8,37,48,68,87,108,128,148,167,187,207,227,247,269,287,308,327,348,368,388,408,427,447,467,488,507,528,547,568,587,608,627,648,667,687,707,727,747,768,787,807,827,849,868,887,907,927,948,967,987,1007,1028,1047,1067,1087,1107,1127,1147,1168,1188,1208,1228,1248,1268,1287,1307],"xSR":741.5,"ySR":501.8,"xT1":424.9,"yT1":0,"xT2":1058.1,"yT2":0,"toosoon":0,"cond_shown":"equaldotanddens","ratio_trial":900,"smaller_num":"18","larger_num":"20","correct_side":2,"subjID":"nicollsofiarinconcuellar30","gender":"1","age":"11","school":"6"},{"start_time":1551791292430,"click_time":1551791294656,"finger_time":1551791293975,"fix_duration":353.4113969917174,"trial":61,"RT":1545,"MT":681,"sideResp":1,"stimulus":"img/900/randomdotsizeEA/R/9_Ratio_900_L_18_R_20.png","xmouse":[792,792,792,792,792,792,792,792,792,792,792,792,792,792,792,792,792,792,792,792,792,792,792,792,792,792,792,792,792,792,792,792,792,792,792,792,792,792,792,792,792,792,792,792,792,792,792,792,792,792,792,792,792,792,792,792,792,792,792,792,792,792,792,792,792,792,792,792,792,792,792,792,792,793,796,806,816,838,847,853,863,874,891,897,901,903,907,908,909,910,910,910,910,910,911,911,911,911,911,911,911,911,911,911,911,911,908,889,836,748,658,501],"ymouse":[550,550,550,550,550,550,550,550,550,550,550,550,550,550,550,550,550,550,550,550,550,550,550,550,550,550,550,550,550,550,550,550,550,550,550,550,550,550,550,550,550,550,550,550,550,550,550,550,550,550,550,550,550,550,550,550,550,550,550,550,550,550,550,550,550,550,550,550,550,550,550,550,550,550,546,526,503,456,433,416,388,350,298,285,276,272,266,265,264,263,263,263,263,263,263,263,263,263,263,263,263,263,263,263,263,261,241,214,173,141,114,72],"timestamp_mouse":[9,39,45,65,85,105,126,146,166,185,206,225,245,265,285,305,325,346,366,386,405,425,445,467,485,505,526,546,565,585,605,625,645,665,685,706,726,746,765,785,805,825,845,865,885,905,925,945,965,986,1005,1026,1046,1066,1086,1105,1125,1145,1165,1186,1205,1226,1245,1265,1285,1305,1327,1345,1365,1387,1406,1425,1446,1465,1486,1506,1526,1545,1565,1586,1605,1625,1645,1666,1685,1705,1725,1745,1765,1786,1806,1826,1846,1866,1885,1906,1925,1946,1966,1985,2006,2025,2045,2065,2085,2105,2126,2145,2165,2185,2205,2225],"xSR":741.5,"ySR":501.8,"xT1":424.9,"yT1":0,"xT2":1058.1,"yT2":0,"toosoon":0,"cond_shown":"randomdotsizeEA","ratio_trial":900,"smaller_num":"18","larger_num":"20","correct_side":2,"subjID":"nicollsofiarinconcuellar30","gender":"1","age":"11","school":"6"},{"start_time":1551791301027,"click_time":1551791303975,"finger_time":1551791303335,"fix_duration":250,"trial":62,"RT":2308,"MT":640,"sideResp":2,"stimulus":"img/250/equaldotsize/L/5_Ratio_250_L_24_R_6.png","xmouse":[789,789,789,789,789,789,789,789,789,789,789,789,789,789,789,789,789,789,789,789,789,789,789,789,789,789,789,789,789,789,789,789,789,789,788,788,788,788,788,788,788,788,788,788,788,788,788,788,788,788,788,788,788,788,788,788,788,788,788,788,788,786,786,786,786,786,786,786,786,786,786,786,786,786,786,786,786,786,786,786,786,786,786,786,786,786,786,786,786,786,786,786,786,786,786,786,786,786,786,786,786,786,786,786,786,786,786,786,786,786,787,793,798,809,823,839,887,932,1033,1106,1176,1250,1267,1274,1277,1278,1279,1280,1281,1282,1282,1282,1277,1265,1250,1229,1210,1180,1172,1168,1165,1162,1162,1162,1162,1162,1160,1156],"ymouse":[551,551,551,551,551,551,551,551,551,551,551,551,551,551,551,551,551,551,551,551,551,551,551,551,551,551,551,552,552,552,552,552,552,552,552,552,552,552,552,552,552,552,552,552,552,552,552,552,552,552,552,552,552,552,552,553,553,553,553,553,553,553,553,553,553,553,554,554,554,554,554,554,554,554,554,554,554,554,554,554,554,554,554,554,554,554,554,554,554,554,554,554,554,554,554,554,554,554,554,554,554,554,554,554,554,554,554,554,554,554,553,549,544,533,518,499,432,371,286,239,204,159,149,144,141,141,138,136,131,128,121,103,94,87,81,74,69,60,58,58,58,57,57,57,57,56,56,55],"timestamp_mouse":[8,39,49,68,88,108,129,148,169,188,208,228,248,268,289,309,328,348,369,388,408,429,449,468,488,508,528,548,569,588,608,628,648,669,689,708,728,748,768,788,808,829,848,868,888,909,928,949,968,988,1008,1028,1048,1068,1088,1109,1129,1148,1168,1188,1209,1228,1248,1270,1288,1309,1328,1348,1368,1388,1409,1428,1449,1468,1488,1509,1528,1548,1568,1588,1608,1628,1649,1668,1688,1709,1729,1748,1768,1788,1808,1828,1848,1868,1888,1909,1928,1948,1969,1988,2008,2028,2049,2068,2088,2109,2128,2149,2168,2189,2208,2229,2248,2268,2289,2308,2329,2348,2368,2388,2408,2428,2449,2468,2488,2508,2528,2548,2568,2588,2608,2628,2648,2668,2688,2709,2728,2750,2768,2788,2809,2828,2848,2868,2888,2908,2928,2948],"xSR":741.5,"ySR":501.8,"xT1":424.9,"yT1":0,"xT2":1058.1,"yT2":0,"toosoon":0,"cond_shown":"equaldotsize","ratio_trial":250,"smaller_num":"6","larger_num":"24","correct_side":1,"subjID":"nicollsofiarinconcuellar30","gender":"1","age":"11","school":"6"},{"start_time":1551791305379,"click_time":1551791306596,"finger_time":1551791305956,"fix_duration":322.79445164439716,"trial":63,"RT":577,"MT":640,"sideResp":2,"stimulus":"img/250/equaldotanddens/R/12_Ratio_250_L_5_R_20.png","xmouse":[800,800,800,800,800,800,802,802,803,803,803,803,803,803,803,803,803,803,803,803,803,803,803,805,810,815,822,832,859,905,943,994,1048,1177,1216,1252,1282,1304,1319,1337,1337,1337,1337,1337,1337,1337,1319,1299,1275,1267,1262,1253,1242,1206,1186,1174,1166,1163,1161,1155,1140],"ymouse":[572,572,572,572,572,572,572,572,572,572,572,572,572,572,572,572,572,572,572,571,565,558,552,541,532,524,516,505,473,421,378,323,266,157,128,102,81,66,55,42,42,42,42,42,42,42,41,41,41,44,47,53,60,84,95,102,105,107,107,106,95],"timestamp_mouse":[18,42,56,77,96,116,137,157,177,197,216,236,256,278,296,317,337,356,377,396,416,437,456,476,497,516,536,556,577,596,616,636,657,676,696,716,736,756,777,796,816,836,856,877,896,916,936,956,977,996,1016,1037,1057,1076,1096,1116,1136,1157,1176,1196,1216],"xSR":741.5,"ySR":501.8,"xT1":424.9,"yT1":0,"xT2":1058.1,"yT2":0,"toosoon":0,"cond_shown":"equaldotanddens","ratio_trial":250,"smaller_num":"5","larger_num":"20","correct_side":2,"subjID":"nicollsofiarinconcuellar30","gender":"1","age":"11","school":"6"},{"start_time":1551791308711,"click_time":1551791310235,"finger_time":1551791309795,"fix_duration":1173.2380879180341,"trial":64,"RT":1084,"MT":440,"sideResp":2,"stimulus":"img/250/equaldotanddens/R/11_Ratio_250_L_3_R_12.png","xmouse":[798,798,798,798,798,798,798,798,798,798,798,798,798,798,798,798,798,798,798,798,798,798,798,797,797,797,797,797,797,797,797,797,797,797,797,797,797,797,797,797,797,797,797,797,797,797,797,797,797,797,797,797,801,822,886,942,1005,1128,1161,1176,1182,1182,1182,1182,1182,1182,1182,1182,1182,1182,1182,1182,1182,1182,1182,1182,1094],"ymouse":[558,558,558,558,558,558,558,558,558,558,558,558,558,558,558,558,558,558,558,558,558,558,558,559,559,559,559,559,559,559,559,559,559,559,559,559,559,559,559,559,559,559,559,559,559,559,559,559,559,559,559,559,558,524,464,406,324,133,57,22,0,0,0,0,0,0,0,0,0,0,0,0,0,0,0,0,4],"timestamp_mouse":[4,24,46,64,84,105,124,144,165,184,204,225,245,264,284,305,324,345,365,384,405,425,445,464,485,504,524,545,565,584,605,625,645,665,685,705,725,744,765,784,804,825,845,864,884,904,924,945,964,984,1004,1024,1045,1064,1084,1105,1125,1145,1164,1184,1204,1226,1244,1265,1284,1304,1324,1344,1364,1384,1405,1424,1445,1464,1484,1504,1524],"xSR":741.5,"ySR":501.8,"xT1":424.9,"yT1":0,"xT2":1058.1,"yT2":0,"toosoon":0,"cond_shown":"equaldotanddens","ratio_trial":250,"smaller_num":"3","larger_num":"12","correct_side":2,"subjID":"nicollsofiarinconcuellar30","gender":"1","age":"11","school":"6"},{"start_time":1551791312451,"click_time":1551791313495,"finger_time":1551791313296,"fix_duration":1294.0534008418624,"trial":65,"RT":845,"MT":199,"sideResp":2,"stimulus":"img/250/equaldotanddens/R/12_Ratio_250_L_5_R_20.png","xmouse":[800,800,800,800,800,800,800,800,800,800,800,800,800,800,800,800,800,800,800,800,800,800,800,800,800,800,800,800,800,800,800,800,800,800,800,800,801,803,806,810,821,834,851,878,914,988,1030,1046,1061,1072,1089,1095,1102],"ymouse":[554,554,554,554,554,554,554,554,554,554,554,554,554,554,554,554,554,554,554,554,554,554,554,554,554,554,554,554,554,554,554,554,554,554,554,554,553,552,549,545,537,526,510,480,440,342,275,233,193,169,128,113,96],"timestamp_mouse":[11,24,45,64,84,105,124,144,165,184,205,224,245,264,284,304,325,345,365,385,405,424,444,465,484,504,524,545,565,586,605,624,644,664,684,705,724,744,764,784,804,824,845,864,884,904,924,944,964,984,1004,1024,1044],"xSR":741.5,"ySR":501.8,"xT1":424.9,"yT1":0,"xT2":1058.1,"yT2":0,"toosoon":0,"cond_shown":"equaldotanddens","ratio_trial":250,"smaller_num":"5","larger_num":"20","correct_side":2,"subjID":"nicollsofiarinconcuellar30","gender":"1","age":"11","school":"6"},{"start_time":1551791315316,"click_time":1551791321237,"finger_time":1551791319615,"fix_duration":960.3189316260966,"trial":66,"RT":4299,"MT":1622,"sideResp":2,"stimulus":"img/750/equaldotsize/R/15_Ratio_750_L_9_R_12.png","xmouse":[757,757,757,757,757,755,755,753,752,752,752,752,752,752,752,752,752,752,752,752,752,752,752,752,752,752,752,752,752,752,752,752,752,752,752,752,752,752,752,752,752,752,752,752,752,752,752,752,752,752,752,752,752,752,752,752,752,752,752,752,752,752,752,752,752,752,752,752,752,752,752,752,752,752,752,752,752,752,752,752,752,752,752,752,752,752,752,752,752,752,752,752,752,752,752,752,752,752,752,752,752,752,752,752,752,752,752,752,752,752,752,752,752,752,752,752,752,752,752,752,752,752,752,752,752,752,752,752,752,752,752,752,752,752,752,752,752,752,752,752,752,752,752,752,752,752,752,752,752,752,752,752,752,752,752,752,752,752,752,752,752,752,752,752,752,752,752,752,752,752,752,752,752,752,752,752,752,752,752,752,752,752,752,752,752,752,752,752,752,752,752,752,752,752,752,752,752,752,752,752,752,752,752,752,752,752,752,752,752,752,752,752,750,743,722,671,534,510,508,508,508,508,508,508,508,508,508,508,508,510,523,537,562,577,581,584,606,624,639,657,680,713,736,749,759,767,772,779,785,787,787,788,790,798,804,808,811,814,814,815,815,815,815,815,815,815,816,816,816,816,816,816,816,817,819,822,827,851,873,900,925,948,990,1001,1009,1017,1030,1034,1036,1038,1040,1044,1048,1052,1056,1060],"ymouse":[575,575,575,575,575,577,579,581,583,583,583,583,583,583,583,583,583,583,583,583,583,583,583,583,583,583,583,583,583,583,583,583,583,583,583,583,583,583,583,583,583,583,583,583,583,583,583,583,583,583,583,583,583,583,583,583,583,583,583,583,583,583,583,583,583,583,583,583,583,583,583,583,583,583,583,583,583,583,583,583,583,583,583,583,583,583,583,583,583,583,583,583,583,583,583,583,583,583,583,583,583,583,583,583,583,583,583,583,583,583,583,583,583,583,583,583,583,583,583,583,583,583,583,583,583,583,583,583,583,583,583,583,583,583,583,583,583,583,583,583,583,583,583,583,583,583,583,583,583,583,583,583,583,583,583,583,583,583,583,583,583,583,583,583,583,583,583,583,583,583,583,583,583,583,583,5