[{"start_time":1551790882496,"click_time":1551790885004,"finger_time":1551790884584,"fix_duration":290.1812175946613,"trial":0,"RT":2088,"MT":420,"sideResp":2,"stimulus":[],"xmouse":[670,672,672,672,673,673,674,674,674,674,674,674,674,674,674,674,674,674,674,674,674,674,674,674,674,674,674,674,674,674,674,674,674,674,674,674,674,674,674,674,674,674,674,674,674,674,674,674,674,674,674,674,674,674,674,674,674,674,674,674,674,674,674,674,674,674,674,674,674,674,674,674,674,674,674,674,674,674,674,674,674,674,674,674,674,674,674,674,674,674,674,674,674,674,674,674,674,674,674,674,677,679,679,717,747,811,824,837,847,854,859,866,872,875,876,876,877,878,883,891,896,906,918,921,929,929],"ymouse":[445,444,444,444,444,444,444,444,444,444,444,444,444,444,444,444,444,444,444,444,444,444,444,444,444,444,444,444,444,444,444,444,444,444,444,444,444,444,444,444,444,444,444,444,444,444,444,444,444,444,444,444,444,444,444,444,444,444,444,444,444,444,444,444,444,444,444,444,444,444,444,444,444,444,444,444,444,444,444,444,444,444,444,444,444,444,444,444,444,444,444,444,444,444,444,444,444,444,444,444,442,442,441,390,360,298,280,260,235,221,212,202,194,191,190,190,190,188,185,174,168,153,133,124,102,92],"timestamp_mouse":[7,27,47,68,87,107,127,147,167,187,208,227,248,268,288,307,327,347,367,387,407,428,448,467,487,507,527,547,568,587,608,628,648,668,687,707,728,748,768,788,808,828,848,867,894,908,927,948,968,988,1008,1028,1048,1067,1088,1108,1128,1147,1167,1188,1208,1228,1248,1268,1288,1308,1328,1348,1368,1388,1408,1428,1448,1468,1488,1508,1528,1548,1568,1588,1608,1628,1648,1668,1688,1708,1728,1748,1768,1788,1808,1828,1848,1868,1888,1911,1928,1948,1968,1988,2008,2028,2048,2068,2088,2108,2128,2148,2168,2188,2208,2228,2248,2268,2288,2308,2328,2348,2368,2388,2408,2428,2448,2468,2488,2508],"xSR":622,"ySR":384.15000000000003,"xT1":353.2,"yT1":0,"xT2":890.8,"yT2":0,"toosoon":0,"cond_shown":"Congruent","ratio_trial":100,"L_num":3,"L_den":20,"R_num":4,"R_den":16,"correct_side":2,"subjID":"oscarsantiagorozogonzalez","gender":"0","age":"12","school":"6","test":{"fix_dur":[250,1500],"timestim":1000,"targets_dim":[100,100],"targets_relative_coord":[0.3,0.7],"size_stim":[880,420],"start_dim":[100,100],"size_start":[300,300],"size_fix":60,"samplingrate":20,"img_types":["Congruent","Incongruent"],"ratios":[100,200,300],"rep_conds":19,"nTrials":120,"trials_to_rest":500,"Trials_order":[102,69,116,84,24,50,76,95,41,31,108,101,86,23,3,59,25,113,18,82,70,14,44,6,40,109,103,5,96,45,30,115,57,94,118,17,32,104,93,38,16,37,74,78,43,92,48,11,99,34,29,15,13,19,0,55,36,90,54,63,33,4,71,62,72,107,89,35,83,42,58,2,66,117,60,10,79,56,53,46,81,87,75,47,8,114,21,85,80,51,106,77,28,68,119,7,61,1,64,65,98,105,110,88,12,52,67,111,73,100,9,22,39,26,20,49,27,91,97,112],"cond_shown":["Congruent","Incongruent","Congruent","Congruent","Congruent","Congruent","Congruent","Incongruent","Incongruent","Incongruent","Congruent","Incongruent","Congruent","Incongruent","Incongruent","Incongruent","Incongruent","Incongruent","Congruent","Congruent","Congruent","Congruent","Congruent","Congruent","Congruent","Incongruent","Incongruent","Incongruent","Congruent","Incongruent","Congruent","Incongruent","Incongruent","Congruent","Congruent","Incongruent","Congruent","Congruent","Incongruent","Congruent","Congruent","Incongruent","Congruent","Congruent","Incongruent","Congruent","Congruent","Incongruent","Incongruent","Congruent","Incongruent","Incongruent","Incongruent","Incongruent","Congruent","Incongruent","Congruent","Congruent","Congruent","Incongruent","Incongruent","Congruent","Incongruent","Congruent","Congruent","Incongruent","Incongruent","Incongruent","Incongruent","Congruent","Congruent","Congruent","Congruent","Incongruent","Congruent","Congruent","Incongruent","Congruent","Incongruent","Congruent","Incongruent","Incongruent","Incongruent","Incongruent","Congruent","Congruent","Incongruent","Incongruent","Congruent","Incongruent","Congruent","Incongruent","Congruent","Congruent","Incongruent","Incongruent","Incongruent","Incongruent","Congruent","Incongruent","Congruent","Incongruent","Congruent","Congruent","Congruent","Congruent","Incongruent","Incongruent","Incongruent","Congruent","Incongruent","Congruent","Incongruent","Congruent","Congruent","Incongruent","Incongruent","Incongruent","Incongruent","Congruent"],"ratio_trial":[100,200,200,100,100,200,300,300,300,100,100,300,200,300,200,300,100,300,100,300,300,200,200,100,300,100,100,300,100,200,100,100,200,300,300,300,200,200,200,200,300,100,200,100,100,200,100,300,200,300,300,200,100,100,100,100,100,100,100,200,200,300,300,200,100,300,300,300,300,100,300,200,100,200,100,300,100,200,300,300,200,200,200,300,200,100,200,100,200,200,300,300,300,200,300,100,100,100,300,300,200,200,200,300,100,300,100,200,100,300,200,300,200,200,200,100,200,100,100,300],"left_num":[3,7,1,4,9,12,2,4,4,3,9,3,7,4,9,1,3,13,4,3,1,21,7,1,20,4,13,4,10,7,11,9,7,9,11,3,3,3,4,6,1,12,4,1,8,16,7,8,4,20,7,6,3,10,11,9,15,3,3,3,7,8,3,9,3,13,1,7,13,9,20,4,2,4,7,8,13,12,4,7,7,7,7,4,3,10,9,6,5,11,5,1,8,6,13,9,6,9,20,4,14,11,6,5,1,1,6,7,10,2,6,20,7,20,13,8,7,6,17,20],"right_num":[4,4,21,6,8,6,12,2,2,11,8,4,18,2,8,2,8,12,6,4,3,2,2,3,5,8,12,2,3,6,6,6,12,3,2,4,7,7,6,7,7,2,3,18,6,12,15,9,14,13,8,3,11,9,6,13,13,2,2,11,14,1,4,4,4,12,3,8,12,8,14,3,11,1,9,10,6,6,2,20,6,4,12,6,14,3,8,3,14,3,6,3,10,3,12,14,13,14,5,2,6,3,7,7,18,3,11,12,9,10,3,14,6,9,14,1,14,3,10,5],"left_den":[20,15,2,8,15,20,10,20,20,5,15,6,15,20,15,2,5,26,8,6,5,30,21,2,25,8,26,20,25,15,22,18,10,10,22,6,10,10,5,12,20,30,10,2,16,20,14,10,6,25,10,20,5,25,22,15,25,6,6,4,10,16,6,20,20,26,2,10,26,15,25,8,5,30,14,15,26,15,20,14,15,15,10,5,10,25,15,12,10,20,25,2,15,15,26,15,10,15,25,20,28,20,12,25,2,5,10,10,25,20,20,25,15,25,26,20,10,12,30,25],"right_den":[16,6,30,10,16,15,24,4,4,22,16,20,27,4,10,10,16,15,10,5,6,4,15,5,10,20,20,4,10,9,15,10,24,5,10,20,14,14,10,10,20,4,15,30,10,20,25,18,30,26,20,6,22,18,15,26,26,5,5,20,28,5,20,16,16,15,15,20,15,16,28,10,22,3,15,12,10,10,4,25,9,6,24,12,28,10,10,5,20,4,12,15,12,15,15,28,26,28,10,4,20,4,10,14,30,6,22,24,18,25,6,28,9,15,20,2,28,5,15,10],"correct_side":[2,2,2,2,1,1,2,2,2,1,1,1,2,2,2,1,1,2,2,2,2,1,1,2,1,1,2,2,1,2,1,2,1,1,1,1,2,2,1,2,2,2,1,2,2,1,2,1,1,1,1,2,1,2,1,1,1,1,1,1,1,1,1,1,2,2,1,1,2,1,1,1,2,2,2,2,2,1,2,2,2,2,1,1,2,1,2,2,2,2,2,1,2,1,2,1,1,1,1,2,1,2,2,2,2,2,1,1,2,2,2,1,2,1,2,2,1,2,2,1],"img_shown":["img2/100/Congruent/R/C_Dist_100_LN_3_LD_20_RN_4_RD_16_1.png","img2/200/Incongruent/R/I_Dist_200_LN_7_LD_15_RN_4_RD_6_1.png","img2/200/Congruent/R/C_Dist_200_LN_1_LD_2_RN_21_RD_30_1.png","img2/100/Congruent/R/C_Dist_100_LN_4_LD_8_RN_6_RD_10_1.png","img2/100/Congruent/L/C_Dist_100_LN_9_LD_15_RN_8_RD_16_0.png","img2/200/Congruent/L/C_Dist_200_LN_12_LD_20_RN_6_RD_15_0.png","img2/300/Congruent/R/C_Dist_300_LN_2_LD_10_RN_12_RD_24_1.png","img2/300/Incongruent/R/I_Dist_300_LN_4_LD_20_RN_2_RD_4_1.png","img2/300/Incongruent/R/I_Dist_300_LN_4_LD_20_RN_2_RD_4_1.png","img2/100/Incongruent/L/I_Dist_100_LN_3_LD_5_RN_11_RD_22_0.png","img2/100/Congruent/L/C_Dist_100_LN_9_LD_15_RN_8_RD_16_0.png","img2/300/Incongruent/L/I_Dist_300_LN_3_LD_6_RN_4_RD_20_0.png","img2/200/Congruent/R/C_Dist_200_LN_7_LD_15_RN_18_RD_27_1.png","img2/300/Incongruent/R/I_Dist_300_LN_4_LD_20_RN_2_RD_4_1.png","img2/200/Incongruent/R/I_Dist_200_LN_9_LD_15_RN_8_RD_10_1.png","img2/300/Incongruent/L/I_Dist_300_LN_1_LD_2_RN_2_RD_10_0.png","img2/100/Incongruent/L/I_Dist_100_LN_3_LD_5_RN_8_RD_16_0.png","img2/300/Incongruent/R/I_Dist_300_LN_13_LD_26_RN_12_RD_15_1.png","img2/100/Congruent/R/C_Dist_100_LN_4_LD_8_RN_6_RD_10_1.png","img2/300/Congruent/R/C_Dist_300_LN_3_LD_6_RN_4_RD_5_1.png","img2/300/Congruent/R/C_Dist_300_LN_1_LD_5_RN_3_RD_6_1.png","img2/200/Congruent/L/C_Dist_200_LN_21_LD_30_RN_2_RD_4_0.png","img2/200/Congruent/L/C_Dist_200_LN_7_LD_21_RN_2_RD_15_0.png","img2/100/Congruent/R/C_Dist_100_LN_1_LD_2_RN_3_RD_5_1.png","img2/300/Congruent/L/C_Dist_300_LN_20_LD_25_RN_5_RD_10_0.png","img2/100/Incongruent/L/I_Dist_100_LN_4_LD_8_RN_8_RD_20_0.png","img2/100/Incongruent/R/I_Dist_100_LN_13_LD_26_RN_12_RD_20_1.png","img2/300/Incongruent/R/I_Dist_300_LN_4_LD_20_RN_2_RD_4_1.png","img2/100/Congruent/L/C_Dist_100_LN_10_LD_25_RN_3_RD_10_0.png","img2/200/Incongruent/R/I_Dist_200_LN_7_LD_15_RN_6_RD_9_1.png","img2/100/Congruent/L/C_Dist_100_LN_11_LD_22_RN_6_RD_15_0.png","img2/100/Incongruent/R/I_Dist_100_LN_9_LD_18_RN_6_RD_10_1.png","img2/200/Incongruent/L/I_Dist_200_LN_7_LD_10_RN_12_RD_24_0.png","img2/300/Congruent/L/C_Dist_300_LN_9_LD_10_RN_3_RD_5_0.png","img2/300/Congruent/L/C_Dist_300_LN_11_LD_22_RN_2_RD_10_0.png","img2/300/Incongruent/L/I_Dist_300_LN_3_LD_6_RN_4_RD_20_0.png","img2/200/Congruent/R/C_Dist_200_LN_3_LD_10_RN_7_RD_14_1.png","img2/200/Congruent/R/C_Dist_200_LN_3_LD_10_RN_7_RD_14_1.png","img2/200/Incongruent/L/I_Dist_200_LN_4_LD_5_RN_6_RD_10_0.png","img2/200/Congruent/R/C_Dist_200_LN_6_LD_12_RN_7_RD_10_1.png","img2/300/Congruent/R/C_Dist_300_LN_1_LD_20_RN_7_RD_20_1.png","img2/100/Incongruent/R/I_Dist_100_LN_12_LD_30_RN_2_RD_4_1.png","img2/200/Congruent/L/C_Dist_200_LN_4_LD_10_RN_3_RD_15_0.png","img2/100/Congruent/R/C_Dist_100_LN_1_LD_2_RN_18_RD_30_1.png","img2/100/Incongruent/R/I_Dist_100_LN_8_LD_16_RN_6_RD_10_1.png","img2/200/Congruent/L/C_Dist_200_LN_16_LD_20_RN_12_RD_20_0.png","img2/100/Congruent/R/C_Dist_100_LN_7_LD_14_RN_15_RD_25_1.png","img2/300/Incongruent/L/I_Dist_300_LN_8_LD_10_RN_9_RD_18_0.png","img2/200/Incongruent/L/I_Dist_200_LN_4_LD_6_RN_14_RD_30_0.png","img2/300/Congruent/L/C_Dist_300_LN_20_LD_25_RN_13_RD_26_0.png","img2/300/Incongruent/L/I_Dist_300_LN_7_LD_10_RN_8_RD_20_0.png","img2/200/Incongruent/R/I_Dist_200_LN_6_LD_20_RN_3_RD_6_1.png","img2/100/Incongruent/L/I_Dist_100_LN_3_LD_5_RN_11_RD_22_0.png","img2/100/Incongruent/R/I_Dist_100_LN_10_LD_25_RN_9_RD_18_1.png","img2/100/Congruent/L/C_Dist_100_LN_11_LD_22_RN_6_RD_15_0.png","img2/100/Incongruent/L/I_Dist_100_LN_9_LD_15_RN_13_RD_26_0.png","img2/100/Congruent/L/C_Dist_100_LN_15_LD_25_RN_13_RD_26_0.png","img2/100/Congruent/L/C_Dist_100_LN_3_LD_6_RN_2_RD_5_0.png","img2/100/Congruent/L/C_Dist_100_LN_3_LD_6_RN_2_RD_5_0.png","img2/200/Incongruent/L/I_Dist_200_LN_3_LD_4_RN_11_RD_20_0.png","img2/200/Incongruent/L/I_Dist_200_LN_7_LD_10_RN_14_RD_28_0.png","img2/300/Congruent/L/C_Dist_300_LN_8_LD_16_RN_1_RD_5_0.png","img2/300/Incongruent/L/I_Dist_300_LN_3_LD_6_RN_4_RD_20_0.png","img2/200/Congruent/L/C_Dist_200_LN_9_LD_20_RN_4_RD_16_0.png","img2/100/Congruent/R/C_Dist_100_LN_3_LD_20_RN_4_RD_16_1.png","img2/300/Incongruent/R/I_Dist_300_LN_13_LD_26_RN_12_RD_15_1.png","img2/300/Incongruent/L/I_Dist_300_LN_1_LD_2_RN_3_RD_15_0.png","img2/300/Incongruent/L/I_Dist_300_LN_7_LD_10_RN_8_RD_20_0.png","img2/300/Incongruent/R/I_Dist_300_LN_13_LD_26_RN_12_RD_15_1.png","img2/100/Congruent/L/C_Dist_100_LN_9_LD_15_RN_8_RD_16_0.png","img2/300/Congruent/L/C_Dist_300_LN_20_LD_25_RN_14_RD_28_0.png","img2/200/Congruent/L/C_Dist_200_LN_4_LD_8_RN_3_RD_10_0.png","img2/100/Congruent/R/C_Dist_100_LN_2_LD_5_RN_11_RD_22_1.png","img2/200/Incongruent/R/I_Dist_200_LN_4_LD_30_RN_1_RD_3_1.png","img2/100/Congruent/R/C_Dist_100_LN_7_LD_14_RN_9_RD_15_1.png","img2/300/Congruent/R/C_Dist_300_LN_8_LD_15_RN_10_RD_12_1.png","img2/100/Incongruent/R/I_Dist_100_LN_13_LD_26_RN_6_RD_10_1.png","img2/200/Congruent/L/C_Dist_200_LN_12_LD_15_RN_6_RD_10_0.png","img2/300/Incongruent/R/I_Dist_300_LN_4_LD_20_RN_2_RD_4_1.png","img2/300/Congruent/R/C_Dist_300_LN_7_LD_14_RN_20_RD_25_1.png","img2/200/Incongruent/R/I_Dist_200_LN_7_LD_15_RN_6_RD_9_1.png","img2/200/Incongruent/R/I_Dist_200_LN_7_LD_15_RN_4_RD_6_1.png","img2/200/Incongruent/L/I_Dist_200_LN_7_LD_10_RN_12_RD_24_0.png","img2/300/Incongruent/L/I_Dist_300_LN_4_LD_5_RN_6_RD_12_0.png","img2/200/Congruent/R/C_Dist_200_LN_3_LD_10_RN_14_RD_28_1.png","img2/100/Congruent/L/C_Dist_100_LN_10_LD_25_RN_3_RD_10_0.png","img2/200/Incongruent/R/I_Dist_200_LN_9_LD_15_RN_8_RD_10_1.png","img2/100/Incongruent/R/I_Dist_100_LN_6_LD_12_RN_3_RD_5_1.png","img2/200/Congruent/R/C_Dist_200_LN_5_LD_10_RN_14_RD_20_1.png","img2/200/Incongruent/R/I_Dist_200_LN_11_LD_20_RN_3_RD_4_1.png","img2/300/Congruent/R/C_Dist_300_LN_5_LD_25_RN_6_RD_12_1.png","img2/300/Incongruent/L/I_Dist_300_LN_1_LD_2_RN_3_RD_15_0.png","img2/300/Congruent/R/C_Dist_300_LN_8_LD_15_RN_10_RD_12_1.png","img2/200/Congruent/L/C_Dist_200_LN_6_LD_15_RN_3_RD_15_0.png","img2/300/Incongruent/R/I_Dist_300_LN_13_LD_26_RN_12_RD_15_1.png","img2/100/Incongruent/L/I_Dist_100_LN_9_LD_15_RN_14_RD_28_0.png","img2/100/Incongruent/L/I_Dist_100_LN_6_LD_10_RN_13_RD_26_0.png","img2/100/Incongruent/L/I_Dist_100_LN_9_LD_15_RN_14_RD_28_0.png","img2/300/Congruent/L/C_Dist_300_LN_20_LD_25_RN_5_RD_10_0.png","img2/300/Incongruent/R/I_Dist_300_LN_4_LD_20_RN_2_RD_4_1.png","img2/200/Congruent/L/C_Dist_200_LN_14_LD_28_RN_6_RD_20_0.png","img2/200/Incongruent/R/I_Dist_200_LN_11_LD_20_RN_3_RD_4_1.png","img2/200/Congruent/R/C_Dist_200_LN_6_LD_12_RN_7_RD_10_1.png","img2/300/Congruent/R/C_Dist_300_LN_5_LD_25_RN_7_RD_14_1.png","img2/100/Congruent/R/C_Dist_100_LN_1_LD_2_RN_18_RD_30_1.png","img2/300/Congruent/R/C_Dist_300_LN_1_LD_5_RN_3_RD_6_1.png","img2/100/Incongruent/L/I_Dist_100_LN_6_LD_10_RN_11_RD_22_0.png","img2/200/Incongruent/L/I_Dist_200_LN_7_LD_10_RN_12_RD_24_0.png","img2/100/Incongruent/R/I_Dist_100_LN_10_LD_25_RN_9_RD_18_1.png","img2/300/Congruent/R/C_Dist_300_LN_2_LD_20_RN_10_RD_25_1.png","img2/200/Incongruent/R/I_Dist_200_LN_6_LD_20_RN_3_RD_6_1.png","img2/300/Congruent/L/C_Dist_300_LN_20_LD_25_RN_14_RD_28_0.png","img2/200/Incongruent/R/I_Dist_200_LN_7_LD_15_RN_6_RD_9_1.png","img2/200/Congruent/L/C_Dist_200_LN_20_LD_25_RN_9_RD_15_0.png","img2/200/Congruent/R/C_Dist_200_LN_13_LD_26_RN_14_RD_20_1.png","img2/100/Incongruent/R/I_Dist_100_LN_8_LD_20_RN_1_RD_2_1.png","img2/200/Incongruent/L/I_Dist_200_LN_7_LD_10_RN_14_RD_28_0.png","img2/100/Incongruent/R/I_Dist_100_LN_6_LD_12_RN_3_RD_5_1.png","img2/100/Incongruent/R/I_Dist_100_LN_17_LD_30_RN_10_RD_15_1.png","img2/300/Congruent/L/C_Dist_300_LN_20_LD_25_RN_5_RD_10_0.png"],"dist100_C":[["C_Dist_100_LN_10_LD_25_RN_3_RD_10_0.png","C_Dist_100_LN_11_LD_22_RN_4_RD_10_0.png","C_Dist_100_LN_11_LD_22_RN_6_RD_15_0.png","C_Dist_100_LN_15_LD_25_RN_13_RD_26_0.png","C_Dist_100_LN_3_LD_6_RN_2_RD_5_0.png","C_Dist_100_LN_6_LD_20_RN_5_RD_25_0.png","C_Dist_100_LN_8_LD_16_RN_2_RD_5_0.png","C_Dist_100_LN_9_LD_15_RN_8_RD_16_0.png"],["C_Dist_100_LN_1_LD_2_RN_18_RD_30_1.png","C_Dist_100_LN_1_LD_2_RN_3_RD_5_1.png","C_Dist_100_LN_12_LD_30_RN_13_RD_26_1.png","C_Dist_100_LN_2_LD_5_RN_11_RD_22_1.png","C_Dist_100_LN_2_LD_5_RN_6_RD_12_1.png","C_Dist_100_LN_3_LD_20_RN_4_RD_16_1.png","C_Dist_100_LN_4_LD_10_RN_15_RD_30_1.png","C_Dist_100_LN_4_LD_8_RN_6_RD_10_1.png","C_Dist_100_LN_6_LD_12_RN_15_RD_25_1.png","C_Dist_100_LN_7_LD_14_RN_15_RD_25_1.png","C_Dist_100_LN_7_LD_14_RN_9_RD_15_1.png"]],"dist100_I":[["I_Dist_100_LN_1_LD_2_RN_8_RD_20_0.png","I_Dist_100_LN_2_LD_4_RN_6_RD_15_0.png","I_Dist_100_LN_2_LD_4_RN_8_RD_20_0.png","I_Dist_100_LN_3_LD_5_RN_11_RD_22_0.png","I_Dist_100_LN_3_LD_5_RN_8_RD_16_0.png","I_Dist_100_LN_3_LD_6_RN_4_RD_10_0.png","I_Dist_100_LN_3_LD_9_RN_7_RD_30_0.png","I_Dist_100_LN_4_LD_8_RN_8_RD_20_0.png","I_Dist_100_LN_6_LD_10_RN_11_RD_22_0.png","I_Dist_100_LN_6_LD_10_RN_13_RD_26_0.png","I_Dist_100_LN_6_LD_10_RN_7_RD_14_0.png","I_Dist_100_LN_9_LD_10_RN_20_RD_25_0.png","I_Dist_100_LN_9_LD_15_RN_13_RD_26_0.png","I_Dist_100_LN_9_LD_15_RN_14_RD_28_0.png"],["I_Dist_100_LN_10_LD_25_RN_8_RD_16_1.png","I_Dist_100_LN_10_LD_25_RN_9_RD_18_1.png","I_Dist_100_LN_11_LD_22_RN_9_RD_15_1.png","I_Dist_100_LN_12_LD_24_RN_9_RD_15_1.png","I_Dist_100_LN_12_LD_30_RN_2_RD_4_1.png","I_Dist_100_LN_13_LD_26_RN_12_RD_20_1.png","I_Dist_100_LN_13_LD_26_RN_6_RD_10_1.png","I_Dist_100_LN_17_LD_30_RN_10_RD_15_1.png","I_Dist_100_LN_6_LD_12_RN_3_RD_5_1.png","I_Dist_100_LN_8_LD_16_RN_6_RD_10_1.png","I_Dist_100_LN_8_LD_20_RN_1_RD_2_1.png","I_Dist_100_LN_9_LD_18_RN_6_RD_10_1.png"]],"dist100_S":[["E_Dist_100_LN_2_LD_12_RN_2_RD_30_0.png","E_Dist_100_LN_6_LD_10_RN_6_RD_12_0.png"],["E_Dist_100_LN_6_LD_12_RN_6_RD_10_1.png"]],"dist200_C":[["C_Dist_200_LN_11_LD_22_RN_3_RD_10_0.png","C_Dist_200_LN_12_LD_15_RN_6_RD_10_0.png","C_Dist_200_LN_12_LD_20_RN_6_RD_15_0.png","C_Dist_200_LN_14_LD_28_RN_6_RD_20_0.png","C_Dist_200_LN_15_LD_25_RN_4_RD_10_0.png","C_Dist_200_LN_16_LD_20_RN_12_RD_20_0.png","C_Dist_200_LN_16_LD_30_RN_9_RD_27_0.png","C_Dist_200_LN_20_LD_25_RN_9_RD_15_0.png","C_Dist_200_LN_21_LD_30_RN_2_RD_4_0.png","C_Dist_200_LN_4_LD_10_RN_3_RD_15_0.png","C_Dist_200_LN_4_LD_8_RN_3_RD_10_0.png","C_Dist_200_LN_6_LD_15_RN_3_RD_15_0.png","C_Dist_200_LN_7_LD_21_RN_2_RD_15_0.png","C_Dist_200_LN_8_LD_15_RN_2_RD_6_0.png","C_Dist_200_LN_8_LD_15_RN_3_RD_9_0.png","C_Dist_200_LN_8_LD_15_RN_7_RD_21_0.png","C_Dist_200_LN_9_LD_20_RN_4_RD_16_0.png"],["C_Dist_200_LN_1_LD_2_RN_21_RD_30_1.png","C_Dist_200_LN_13_LD_26_RN_14_RD_20_1.png","C_Dist_200_LN_3_LD_10_RN_11_RD_22_1.png","C_Dist_200_LN_3_LD_10_RN_14_RD_28_1.png","C_Dist_200_LN_3_LD_10_RN_7_RD_14_1.png","C_Dist_200_LN_3_LD_12_RN_9_RD_20_1.png","C_Dist_200_LN_3_LD_6_RN_14_RD_20_1.png","C_Dist_200_LN_5_LD_10_RN_14_RD_20_1.png","C_Dist_200_LN_6_LD_12_RN_7_RD_10_1.png","C_Dist_200_LN_6_LD_20_RN_11_RD_22_1.png","C_Dist_200_LN_7_LD_15_RN_18_RD_27_1.png","C_Dist_200_LN_9_LD_30_RN_13_RD_26_1.png"]],"dist200_I":[["I_Dist_200_LN_1_LD_2_RN_3_RD_10_0.png","I_Dist_200_LN_1_LD_3_RN_2_RD_15_0.png","I_Dist_200_LN_3_LD_4_RN_11_RD_20_0.png","I_Dist_200_LN_4_LD_5_RN_6_RD_10_0.png","I_Dist_200_LN_4_LD_6_RN_14_RD_30_0.png","I_Dist_200_LN_7_LD_10_RN_12_RD_24_0.png","I_Dist_200_LN_7_LD_10_RN_14_RD_28_0.png","I_Dist_200_LN_7_LD_10_RN_8_RD_16_0.png"],["I_Dist_200_LN_11_LD_20_RN_3_RD_4_1.png","I_Dist_200_LN_14_LD_30_RN_12_RD_18_1.png","I_Dist_200_LN_14_LD_30_RN_6_RD_9_1.png","I_Dist_200_LN_3_LD_10_RN_1_RD_2_1.png","I_Dist_200_LN_4_LD_30_RN_1_RD_3_1.png","I_Dist_200_LN_6_LD_20_RN_3_RD_6_1.png","I_Dist_200_LN_7_LD_15_RN_4_RD_6_1.png","I_Dist_200_LN_7_LD_15_RN_6_RD_9_1.png","I_Dist_200_LN_9_LD_15_RN_8_RD_10_1.png"]],"dist200_S":[["E_Dist_200_LN_3_LD_6_RN_3_RD_10_0.png"],["E_Dist_200_LN_3_LD_10_RN_3_RD_6_1.png"]],"dist300_C":[["C_Dist_300_LN_11_LD_22_RN_1_RD_5_0.png","C_Dist_300_LN_11_LD_22_RN_2_RD_10_0.png","C_Dist_300_LN_11_LD_22_RN_4_RD_20_0.png","C_Dist_300_LN_12_LD_24_RN_2_RD_10_0.png","C_Dist_300_LN_18_LD_20_RN_9_RD_15_0.png","C_Dist_300_LN_20_LD_25_RN_13_RD_26_0.png","C_Dist_300_LN_20_LD_25_RN_14_RD_28_0.png","C_Dist_300_LN_20_LD_25_RN_5_RD_10_0.png","C_Dist_300_LN_20_LD_25_RN_8_RD_16_0.png","C_Dist_300_LN_20_LD_25_RN_9_RD_18_0.png","C_Dist_300_LN_24_LD_30_RN_2_RD_4_0.png","C_Dist_300_LN_24_LD_30_RN_8_RD_16_0.png","C_Dist_300_LN_3_LD_6_RN_2_RD_10_0.png","C_Dist_300_LN_4_LD_10_RN_1_RD_10_0.png","C_Dist_300_LN_4_LD_5_RN_2_RD_4_0.png","C_Dist_300_LN_8_LD_16_RN_1_RD_5_0.png","C_Dist_300_LN_9_LD_10_RN_3_RD_5_0.png"],["C_Dist_300_LN_1_LD_20_RN_7_RD_20_1.png","C_Dist_300_LN_1_LD_3_RN_19_RD_30_1.png","C_Dist_300_LN_1_LD_30_RN_8_RD_24_1.png","C_Dist_300_LN_1_LD_5_RN_11_RD_22_1.png","C_Dist_300_LN_1_LD_5_RN_3_RD_6_1.png","C_Dist_300_LN_1_LD_5_RN_6_RD_12_1.png","C_Dist_300_LN_2_LD_10_RN_12_RD_24_1.png","C_Dist_300_LN_2_LD_20_RN_10_RD_25_1.png","C_Dist_300_LN_3_LD_12_RN_11_RD_20_1.png","C_Dist_300_LN_3_LD_6_RN_4_RD_5_1.png","C_Dist_300_LN_4_LD_20_RN_13_RD_26_1.png","C_Dist_300_LN_5_LD_25_RN_6_RD_12_1.png","C_Dist_300_LN_5_LD_25_RN_7_RD_14_1.png","C_Dist_300_LN_7_LD_14_RN_20_RD_25_1.png","C_Dist_300_LN_8_LD_15_RN_10_RD_12_1.png"]],"dist300_I":[["I_Dist_300_LN_1_LD_2_RN_2_RD_10_0.png","I_Dist_300_LN_1_LD_2_RN_3_RD_15_0.png","I_Dist_300_LN_2_LD_4_RN_6_RD_30_0.png","I_Dist_300_LN_3_LD_6_RN_4_RD_20_0.png","I_Dist_300_LN_4_LD_5_RN_6_RD_12_0.png","I_Dist_300_LN_4_LD_5_RN_8_RD_16_0.png","I_Dist_300_LN_7_LD_10_RN_8_RD_20_0.png","I_Dist_300_LN_8_LD_10_RN_14_RD_28_0.png","I_Dist_300_LN_8_LD_10_RN_9_RD_18_0.png"],["I_Dist_300_LN_13_LD_26_RN_12_RD_15_1.png","I_Dist_300_LN_4_LD_20_RN_2_RD_4_1.png"]],"dist300_S":[["E_Dist_300_LN_9_LD_12_RN_9_RD_20_0.png"],["E_Dist_300_LN_18_LD_30_RN_18_RD_20_1.png","E_Dist_300_LN_3_LD_10_RN_3_RD_5_1.png","E_Dist_300_LN_9_LD_20_RN_9_RD_12_1.png"]],"dist500_C":[["C_Dist_500_LN_10_LD_13_RN_7_RD_26_0.png","C_Dist_500_LN_10_LD_15_RN_4_RD_24_0.png","C_Dist_500_LN_12_LD_16_RN_3_RD_12_0.png","C_Dist_500_LN_12_LD_18_RN_4_RD_24_0.png","C_Dist_500_LN_15_LD_18_RN_5_RD_15_0.png","C_Dist_500_LN_15_LD_20_RN_1_RD_4_0.png","C_Dist_500_LN_18_LD_27_RN_1_RD_6_0.png","C_Dist_500_LN_20_LD_24_RN_1_RD_3_0.png","C_Dist_500_LN_20_LD_24_RN_3_RD_9_0.png","C_Dist_500_LN_20_LD_24_RN_7_RD_21_0.png","C_Dist_500_LN_20_LD_28_RN_3_RD_14_0.png","C_Dist_500_LN_21_LD_28_RN_6_RD_24_0.png","C_Dist_500_LN_22_LD_28_RN_2_RD_7_0.png","C_Dist_500_LN_25_LD_30_RN_9_RD_27_0.png","C_Dist_500_LN_4_LD_6_RN_1_RD_6_0.png","C_Dist_500_LN_5_LD_6_RN_2_RD_6_0.png","C_Dist_500_LN_6_LD_9_RN_1_RD_6_0.png","C_Dist_500_LN_7_LD_10_RN_1_RD_5_0.png","C_Dist_500_LN_8_LD_12_RN_1_RD_6_0.png","C_Dist_500_LN_8_LD_12_RN_4_RD_24_0.png"],["C_Dist_500_LN_1_LD_4_RN_12_RD_16_1.png","C_Dist_500_LN_1_LD_4_RN_9_RD_12_1.png","C_Dist_500_LN_1_LD_9_RN_11_RD_18_1.png","C_Dist_500_LN_10_LD_24_RN_22_RD_24_1.png","C_Dist_500_LN_2_LD_12_RN_10_RD_15_1.png","C_Dist_500_LN_2_LD_12_RN_12_RD_18_1.png","C_Dist_500_LN_2_LD_12_RN_4_RD_6_1.png","C_Dist_500_LN_2_LD_24_RN_7_RD_12_1.png","C_Dist_500_LN_2_LD_5_RN_18_RD_20_1.png","C_Dist_500_LN_2_LD_5_RN_9_RD_10_1.png","C_Dist_500_LN_2_LD_8_RN_12_RD_16_1.png","C_Dist_500_LN_2_LD_8_RN_21_RD_28_1.png","C_Dist_500_LN_3_LD_10_RN_4_RD_5_1.png","C_Dist_500_LN_3_LD_12_RN_15_RD_20_1.png","C_Dist_500_LN_3_LD_30_RN_6_RD_10_1.png","C_Dist_500_LN_3_LD_8_RN_14_RD_16_1.png","C_Dist_500_LN_4_LD_16_RN_15_RD_20_1.png","C_Dist_500_LN_4_LD_24_RN_12_RD_18_1.png","C_Dist_500_LN_5_LD_14_RN_6_RD_7_1.png","C_Dist_500_LN_7_LD_21_RN_20_RD_24_1.png","C_Dist_500_LN_7_LD_28_RN_12_RD_16_1.png","C_Dist_500_LN_7_LD_28_RN_9_RD_12_1.png","C_Dist_500_LN_9_LD_27_RN_20_RD_24_1.png"]],"dist500_I":[["I_Dist_500_LN_2_LD_3_RN_4_RD_24_0.png","I_Dist_500_LN_5_LD_6_RN_6_RD_18_0.png","I_Dist_500_LN_7_LD_8_RN_9_RD_24_0.png"],["I_Dist_500_LN_7_LD_21_RN_5_RD_6_1.png"]],"dist500_S":[["E_Dist_500_LN_6_LD_8_RN_6_RD_24_0.png"],["E_Dist_500_LN_2_LD_12_RN_2_RD_3_1.png","E_Dist_500_LN_6_LD_24_RN_6_RD_8_1.png"]]}},{"start_time":1551790889176,"click_time":1551790891024,"finger_time":1551790890464,"fix_duration":351.15733692444996,"trial":1,"RT":1288,"MT":560,"sideResp":1,"stimulus":[],"xmouse":[640,640,640,640,640,640,640,640,640,640,640,640,640,640,640,640,640,640,640,640,640,640,640,640,640,640,640,640,640,640,640,640,640,640,640,640,640,640,640,640,640,640,640,640,640,640,640,640,640,640,640,640,640,640,640,640,640,640,640,640,640,634,632,629,624,613,610,608,607,607,608,608,608,607,604,597,572,562,538,520,511,485,460,444,440,432,396,373,370,369,369,365,365],"ymouse":[431,431,431,431,431,431,431,431,431,431,431,431,431,431,431,431,431,431,431,431,431,431,431,431,431,431,431,431,431,431,431,431,431,431,431,431,431,431,431,431,431,431,431,431,431,431,431,431,431,431,431,431,431,431,431,431,431,431,431,431,430,406,397,387,371,335,315,306,286,266,258,258,258,255,253,248,231,224,207,189,181,160,145,139,139,139,135,128,126,126,126,112,94],"timestamp_mouse":[8,28,48,68,88,108,128,148,168,188,208,228,248,268,288,308,328,348,368,388,408,428,448,468,488,508,528,548,568,588,608,628,648,668,688,708,728,748,768,788,808,828,848,868,888,908,928,948,968,988,1008,1028,1048,1068,1088,1108,1128,1148,1168,1188,1208,1228,1248,1268,1288,1308,1328,1348,1368,1388,1407,1428,1447,1468,1488,1508,1528,1548,1568,1588,1608,1628,1648,1668,1688,1708,1728,1748,1768,1788,1808,1828,1848],"xSR":622,"ySR":384.15000000000003,"xT1":353.2,"yT1":0,"xT2":890.8,"yT2":0,"toosoon":0,"cond_shown":"Incongruent","ratio_trial":200,"L_num":7,"L_den":15,"R_num":4,"R_den":6,"correct_side":2,"subjID":"oscarsantiagorozogonzalez","gender":"0","school":"6","age":"12"},{"start_time":1551790893376,"click_time":1551790895224,"finger_time":1551790894884,"fix_duration":751.2603772613904,"trial":2,"RT":1508,"MT":340,"sideResp":2,"stimulus":[],"xmouse":[681,681,681,681,681,681,681,681,681,681,681,681,681,681,681,681,681,681,681,681,681,681,681,681,681,681,681,681,681,681,681,681,681,681,681,681,681,681,681,681,681,681,681,681,681,681,681,681,681,681,681,681,681,681,681,681,681,681,681,681,681,681,681,681,681,681,681,681,681,681,686,690,691,695,706,723,730,747,776,792,833,853,862,873,880,890,893,895,897,899,901,905,917],"ymouse":[445,445,445,445,445,445,445,445,445,445,445,445,445,445,445,445,445,445,445,445,445,445,445,445,445,445,445,445,445,445,445,445,445,445,445,445,445,445,445,445,445,445,445,445,445,445,445,445,445,445,445,445,445,445,445,445,445,445,445,445,445,445,445,445,445,445,445,445,445,445,443,441,441,440,436,417,404,378,342,320,251,214,196,177,165,146,143,135,129,125,121,113,98],"timestamp_mouse":[7,28,48,68,88,108,128,148,168,188,208,228,248,268,288,308,328,348,368,388,408,428,448,468,488,508,528,548,568,588,608,628,648,668,688,708,728,748,768,788,808,828,848,868,888,908,928,948,968,988,1008,1028,1048,1068,1088,1108,1128,1148,1168,1188,1208,1228,1248,1268,1288,1308,1328,1348,1368,1388,1408,1428,1448,1468,1488,1508,1528,1548,1568,1588,1608,1628,1648,1668,1688,1708,1728,1748,1768,1788,1807,1828,1848],"xSR":622,"ySR":384.15000000000003,"xT1":353.2,"yT1":0,"xT2":890.8,"yT2":0,"toosoon":0,"cond_shown":"Congruent","ratio_trial":200,"L_num":1,"L_den":2,"R_num":21,"R_den":30,"correct_side":2,"subjID":"oscarsantiagorozogonzalez","gender":"0","school":"6","age":"12"},{"start_time":1551790898096,"click_time":1551790900405,"finger_time":1551790900004,"fix_duration":250,"trial":3,"RT":1908,"MT":401,"sideResp":2,"stimulus":[],"xmouse":[658,658,658,658,658,658,658,658,658,658,658,658,658,658,658,658,658,658,658,658,658,658,658,658,658,658,658,658,658,658,658,658,658,658,658,658,658,658,658,658,658,658,658,658,658,658,658,658,658,658,658,658,658,658,658,658,658,658,658,658,658,658,658,658,658,658,658,658,658,658,658,658,658,658,658,658,658,658,658,658,658,658,658,658,658,658,658,658,658,659,662,666,669,671,704,795,803,811,822,862,869,876,877,881,888,891,892,893,895,895,895,900,913,924,947,962],"ymouse":[430,430,430,430,430,430,430,430,430,430,430,430,430,430,430,430,430,430,430,430,430,430,430,430,430,430,430,430,430,430,430,430,430,430,430,430,430,430,430,430,430,430,430,430,430,430,430,430,430,430,430,430,430,430,430,430,430,430,430,430,430,430,430,430,430,430,430,430,430,430,430,430,430,430,430,430,430,430,430,430,430,430,430,430,430,430,430,430,430,430,430,428,428,426,408,344,325,306,283,229,225,219,216,208,193,184,181,175,172,169,166,155,133,121,101,79],"timestamp_mouse":[16,27,48,68,88,108,128,148,168,188,208,228,248,268,288,308,328,348,368,388,408,428,449,468,488,508,528,548,568,588,608,628,648,668,688,708,728,748,768,788,808,828,848,868,888,908,928,948,968,988,1008,1028,1048,1068,1088,1108,1128,1148,1168,1188,1208,1228,1248,1268,1288,1308,1328,1348,1368,1388,1408,1428,1448,1468,1488,1508,1528,1548,1568,1588,1609,1628,1648,1668,1688,1708,1728,1748,1768,1788,1808,1828,1848,1868,1888,1908,1928,1948,1968,1988,2007,2028,2047,2068,2088,2108,2128,2148,2168,2188,2208,2228,2247,2268,2288,2308],"xSR":622,"ySR":384.15000000000003,"xT1":353.2,"yT1":0,"xT2":890.8,"yT2":0,"toosoon":0,"cond_shown":"Congruent","ratio_trial":100,"L_num":4,"L_den":8,"R_num":6,"R_den":10,"correct_side":2,"subjID":"oscarsantiagorozogonzalez","gender":"0","school":"6","age":"12"},{"start_time":1551790901880,"click_time":1551790903824,"finger_time":1551790903183,"fix_duration":254.50437104456725,"trial":4,"RT":1303,"MT":641,"sideResp":1,"stimulus":[],"xmouse":[674,674,674,674,674,674,674,674,674,674,674,674,674,674,674,674,674,674,674,674,674,674,674,674,674,674,674,674,674,674,674,674,674,674,674,674,674,674,674,674,674,674,674,674,674,674,674,674,674,674,674,674,674,674,674,674,674,674,674,674,674,674,674,670,667,658,612,604,597,581,577,575,573,570,556,553,549,546,541,515,502,500,500,500,491,487,482,481,479,474,467,461,449,444,434,427,400,374],"ymouse":[432,432,432,432,432,432,432,432,432,432,432,432,432,432,432,432,432,432,432,432,432,432,432,432,432,432,432,432,432,432,432,432,432,432,432,432,432,432,432,432,432,432,432,432,432,432,432,432,432,432,432,432,432,432,432,432,432,432,432,432,432,432,424,410,399,369,292,280,269,243,235,231,227,221,198,193,187,183,179,149,134,131,131,131,131,131,129,128,127,124,121,118,112,109,107,106,103,99],"timestamp_mouse":[8,23,43,63,83,103,123,143,163,183,203,223,243,263,284,303,323,343,363,383,403,423,443,463,483,503,523,543,563,583,603,623,643,663,683,703,723,743,763,783,804,824,843,863,883,903,923,943,963,983,1004,1023,1043,1063,1083,1103,1123,1143,1164,1183,1203,1223,1244,1264,1283,1303,1323,1343,1363,1383,1404,1423,1443,1463,1483,1504,1525,1544,1563,1583,1604,1624,1644,1663,1684,1704,1723,1743,1763,1783,1803,1823,1843,1863,1884,1903,1924,1943],"xSR":622,"ySR":384.15000000000003,"xT1":353.2,"yT1":0,"xT2":890.8,"yT2":0,"toosoon":0,"cond_shown":"Congruent","ratio_trial":100,"L_num":9,"L_den":15,"R_num":8,"R_den":16,"correct_side":1,"subjID":"oscarsantiagorozogonzalez","gender":"0","school":"6","age":"12"},{"start_time":1551790906027,"click_time":1551790907764,"finger_time":1551790907544,"fix_duration":1482.0813886167068,"trial":5,"RT":1517,"MT":220,"sideResp":1,"stimulus":[],"xmouse":[686,686,686,686,686,686,686,686,686,686,686,686,686,686,686,686,686,686,686,686,686,686,686,686,686,686,686,686,686,686,686,686,686,686,686,686,686,686,686,686,686,686,686,686,686,686,686,686,686,686,686,686,686,686,686,686,686,686,686,686,686,686,686,686,686,686,686,686,686,686,686,683,672,664,658,615,552,479,459,452,443,439,436,418,409,394,370],"ymouse":[457,457,457,457,457,457,457,457,457,457,457,457,457,457,457,457,457,457,457,457,457,457,457,457,457,457,457,457,457,457,457,457,457,457,457,457,457,457,457,457,457,457,457,457,457,457,457,457,457,457,457,457,457,457,457,457,457,457,457,457,457,457,457,457,457,457,457,457,457,457,457,448,432,422,417,346,259,188,171,164,147,142,138,125,118,107,84],"timestamp_mouse":[22,37,57,76,96,117,136,157,177,201,217,237,257,277,297,317,337,357,377,397,417,437,456,477,497,517,537,557,577,597,617,637,657,677,697,717,737,757,777,797,817,837,857,876,897,917,937,957,977,997,1017,1037,1057,1077,1097,1117,1137,1157,1177,1197,1217,1237,1257,1277,1297,1317,1337,1357,1377,1397,1417,1437,1457,1477,1497,1517,1536,1557,1577,1597,1616,1637,1657,1677,1697,1717,1737],"xSR":622,"ySR":384.15000000000003,"xT1":353.2,"yT1":0,"xT2":890.8,"yT2":0,"toosoon":0,"cond_shown":"Congruent","ratio_trial":200,"L_num":12,"L_den":20,"R_num":6,"R_den":15,"correct_side":1,"subjID":"oscarsantiagorozogonzalez","gender":"0","school":"6","age":"12"},{"start_time":1551790909810,"click_time":1551790911044,"finger_time":1551790910724,"fix_duration":1005.78483675441,"trial":6,"RT":914,"MT":320,"sideResp":2,"stimulus":[],"xmouse":[689,689,689,689,689,689,689,689,689,689,689,689,689,689,689,689,689,689,689,689,689,689,689,689,689,689,689,689,689,689,689,689,689,689,689,689,689,689,689,689,689,690,698,703,719,741,748,761,773,802,816,851,868,874,883,890,892,894,894,894,897,900],"ymouse":[411,411,411,411,411,411,411,411,411,411,411,411,411,411,411,411,411,411,411,411,411,411,411,411,411,411,411,411,411,411,411,411,411,411,411,411,411,411,411,411,411,411,411,410,403,396,392,377,354,288,259,201,175,165,144,121,115,108,108,107,100,94],"timestamp_mouse":[14,34,54,74,94,114,134,154,174,194,214,234,254,274,294,314,334,354,374,394,414,434,454,474,494,514,534,554,574,594,614,634,654,674,694,714,734,754,774,794,814,834,854,874,894,914,934,954,974,994,1014,1033,1054,1074,1094,1114,1134,1154,1174,1194,1214,1234],"xSR":622,"ySR":384.15000000000003,"xT1":353.2,"yT1":0,"xT2":890.8,"yT2":0,"toosoon":0,"cond_shown":"Congruent","ratio_trial":300,"L_num":2,"L_den":10,"R_num":12,"R_den":24,"correct_side":2,"subjID":"oscarsantiagorozogonzalez","gender":"0","school":"6","age":"12"},{"start_time":1551790912195,"click_time":1551790913784,"finger_time":1551790913664,"fix_duration":250,"trial":7,"RT":1469,"MT":120,"sideResp":2,"stimulus":[],"xmouse":[694,694,694,694,694,694,694,694,694,694,694,694,694,694,694,694,694,694,694,694,694,694,694,694,694,694,694,694,694,694,694,694,694,694,694,694,694,694,694,694,694,694,694,694,694,694,694,694,694,694,694,694,694,694,694,694,694,694,694,694,691,691,691,691,691,691,691,691,691,690,690,695,707,724,756,771,819,849,887,905],"ymouse":[425,425,425,425,425,425,425,425,425,425,425,425,425,425,425,425,425,425,425,425,425,425,425,425,425,425,425,425,425,425,425,425,425,425,425,425,425,425,425,425,425,425,425,425,425,425,425,425,425,425,425,425,425,425,425,425,425,425,425,425,426,426,426,426,426,426,426,426,426,426,426,426,422,417,391,349,221,156,62,16],"timestamp_mouse":[9,29,49,69,89,109,129,149,169,189,209,229,249,269,289,309,329,349,369,389,409,429,449,469,489,509,529,549,569,589,609,629,649,669,689,709,729,749,769,789,809,829,849,869,889,909,929,949,969,989,1009,1029,1049,1069,1089,1109,1129,1149,1169,1189,1209,1229,1249,1269,1289,1309,1329,1349,1369,1389,1409,1429,1449,1469,1489,1509,1529,1549,1569,1589],"xSR":622,"ySR":384.15000000000003,"xT1":353.2,"yT1":0,"xT2":890.8,"yT2":0,"toosoon":0,"cond_shown":"Incongruent","ratio_trial":300,"L_num":4,"L_den":20,"R_num":2,"R_den":4,"correct_side":2,"subjID":"oscarsantiagorozogonzalez","gender":"0","school":"6","age":"12"},{"start_time":1551790915376,"click_time":1551790917144,"finger_time":1551790916744,"fix_duration":570.5909342070245,"trial":8,"RT":1368,"MT":400,"sideResp":2,"stimulus":[],"xmouse":[680,680,680,680,680,680,680,680,680,680,680,680,680,680,680,680,680,680,680,680,680,680,680,680,680,680,680,680,680,680,680,680,680,680,680,680,680,680,680,680,680,680,680,680,680,680,680,680,680,680,680,680,680,680,680,680,680,680,680,680,680,680,680,680,680,680,680,683,780,841,919,933,942,947,947,947,950,958,962,962,957,957,957,957,957,956,956,950,944],"ymouse":[415,415,415,415,415,415,415,415,415,415,415,415,415,415,415,415,415,415,415,415,415,415,415,415,415,415,415,415,415,415,415,415,415,415,415,415,415,415,415,415,415,415,415,415,415,415,415,415,415,415,415,415,415,415,415,415,415,415,415,415,415,415,415,415,415,415,415,415,358,317,265,254,242,218,213,212,203,183,152,145,140,139,139,139,139,139,139,123,98],"timestamp_mouse":[9,27,48,68,88,108,128,148,168,188,208,228,248,268,288,308,328,348,368,388,408,428,448,468,488,508,528,548,568,588,608,628,648,668,688,708,728,748,768,788,808,828,848,868,888,908,928,948,968,988,1008,1028,1048,1068,1088,1108,1128,1148,1168,1188,1208,1228,1248,1268,1288,1308,1328,1348,1368,1388,1408,1428,1448,1468,1488,1508,1528,1548,1568,1588,1608,1628,1648,1668,1688,1708,1728,1748,1768],"xSR":622,"ySR":384.15000000000003,"xT1":353.2,"yT1":0,"xT2":890.8,"yT2":0,"toosoon":0,"cond_shown":"Incongruent","ratio_trial":300,"L_num":4,"L_den":20,"R_num":2,"R_den":4,"correct_side":2,"subjID":"oscarsantiagorozogonzalez","gender":"0","school":"6","age":"12"},{"start_time":1551790919248,"click_time":1551790920505,"finger_time":1551790920364,"fix_duration":1282.8291760437173,"trial":9,"RT":1116,"MT":141,"sideResp":2,"stimulus":[],"xmouse":[701,701,701,701,701,701,701,701,701,701,701,701,701,701,701,701,701,701,701,701,701,701,701,701,701,701,701,701,701,701,701,701,701,701,701,701,701,701,701,701,701,701,701,701,701,711,713,719,719,719,719,719,719,719,719,731,742,782,832,848,908,934,963],"ymouse":[416,416,416,416,416,416,416,416,416,416,416,416,416,416,416,416,416,416,416,416,416,416,416,416,416,416,416,416,416,416,416,416,416,416,416,416,416,416,416,416,416,416,416,416,416,414,412,409,409,409,409,409,409,409,409,403,393,355,282,250,154,105,39],"timestamp_mouse":[16,36,56,76,96,116,136,156,176,196,216,236,256,276,296,316,336,356,376,396,416,436,456,476,496,516,536,556,576,596,616,636,656,676,696,716,736,756,776,796,816,836,856,876,896,916,936,956,976,996,1016,1036,1056,1076,1096,1116,1136,1156,1176,1196,1216,1236,1257],"xSR":622,"ySR":384.15000000000003,"xT1":353.2,"yT1":0,"xT2":890.8,"yT2":0,"toosoon":0,"cond_shown":"Incongruent","ratio_trial":100,"L_num":3,"L_den":5,"R_num":11,"R_den":22,"correct_side":1,"subjID":"oscarsantiagorozogonzalez","gender":"0","school":"6","age":"12"},{"start_time":1551790928029,"click_time":1551790929764,"finger_time":1551790929584,"fix_duration":1184.6535308363505,"trial":10,"RT":1555,"MT":180,"sideResp":1,"stimulus":[],"xmouse":[655,655,655,655,655,655,655,655,655,655,655,655,655,655,655,655,655,655,655,655,655,655,655,655,655,655,655,655,655,655,655,655,655,655,655,655,655,655,655,655,655,655,655,655,655,655,655,655,655,655,655,655,655,655,655,655,655,655,655,655,655,655,648,646,645,644,644,644,643,643,643,643,642,642,640,625,586,524,430,420,408,400,392,386,377,375],"ymouse":[474,474,474,474,474,474,474,474,474,474,474,474,474,474,474,474,474,474,474,474,474,474,474,474,474,474,474,474,474,474,474,474,474,474,474,474,474,474,474,474,474,474,474,474,474,474,474,474,474,474,474,474,474,474,474,474,474,474,474,474,474,474,469,468,468,468,466,462,459,459,459,459,459,459,448,425,367,283,169,154,138,130,121,111,100,97],"timestamp_mouse":[35,54,75,95,115,135,155,174,195,215,234,255,275,295,315,335,355,375,395,415,435,455,475,495,515,535,555,575,595,615,635,655,675,695,715,735,755,775,795,815,835,855,875,895,915,934,954,974,995,1015,1035,1055,1075,1095,1115,1135,1155,1175,1195,1215,1235,1255,1275,1294,1315,1335,1355,1375,1395,1415,1434,1455,1475,1494,1515,1535,1555,1575,1595,1615,1635,1655,1675,1695,1715,1735],"xSR":622,"ySR":384.15000000000003,"xT1":353.2,"yT1":0,"xT2":890.8,"yT2":0,"toosoon":0,"cond_shown":"Congruent","ratio_trial":100,"L_num":9,"L_den":15,"R_num":8,"R_den":16,"correct_side":1,"subjID":"oscarsantiagorozogonzalez","gender":"0","school":"6","age":"12"},{"start_time":1551790931775,"click_time":1551790934464,"finger_time":1551790933524,"fix_duration":1051.6858339493513,"trial":11,"RT":1749,"MT":940,"sideResp":1,"stimulus":[],"xmouse":[681,681,681,681,681,681,681,681,681,681,681,681,681,681,681,681,681,681,681,681,681,681,681,681,681,681,681,681,681,681,681,681,681,681,681,681,681,681,681,681,681,681,681,680,678,662,661,661,661,661,661,661,661,661,661,661,661,661,661,661,661,661,661,661,661,660,660,658,657,656,655,654,649,648,646,642,641,641,641,641,638,635,632,630,630,626,622,619,618,618,618,616,616,616,616,616,616,616,616,615,614,614,614,613,613,611,608,605,605,598,594,560,545,514,481,478,478,478,478,478,476,464,459,458,453,453,452,448,446,446,446,446,442,438,425],"ymouse":[456,456,456,456,456,456,456,456,456,456,456,456,456,456,456,456,456,456,456,456,456,456,456,456,456,456,456,456,456,456,456,456,456,456,456,456,456,456,456,456,456,456,456,456,456,461,462,462,462,462,462,462,462,462,462,462,462,462,462,462,462,462,462,462,462,462,462,463,463,463,464,464,466,466,467,468,468,468,468,468,468,468,468,468,468,465,463,462,462,462,462,462,462,462,462,462,462,462,462,462,462,462,462,462,462,458,450,447,446,439,431,366,327,265,217,214,213,213,213,212,210,193,188,187,183,183,182,177,176,176,176,176,164,142,87],"timestamp_mouse":[9,29,49,69,89,109,129,149,169,189,209,229,249,269,289,309,329,349,369,389,409,429,449,469,489,509,529,549,569,589,609,629,649,669,689,709,729,749,769,789,809,829,849,869,889,909,929,949,969,989,1009,1029,1049,1069,1089,1109,1129,1149,1169,1189,1209,1229,1249,1269,1289,1309,1329,1349,1369,1389,1409,1429,1448,1469,1489,1509,1529,1549,1569,1589,1609,1629,1649,1669,1689,1709,1729,1749,1769,1789,1809,1829,1849,1869,1889,1909,1929,1949,1969,1989,2009,2029,2049,2069,2089,2109,2129,2149,2169,2189,2209,2229,2249,2269,2289,2309,2329,2349,2369,2389,2409,2428,2449,2469,2489,2509,2529,2549,2569,2589,2609,2629,2649,2669,2689],"xSR":622,"ySR":384.15000000000003,"xT1":353.2,"yT1":0,"xT2":890.8,"yT2":0,"toosoon":0,"cond_shown":"Incongruent","ratio_trial":300,"L_num":3,"L_den":6,"R_num":4,"R_den":20,"correct_side":1,"subjID":"oscarsantiagorozogonzalez","gender":"0","school":"6","age":"12"},{"start_time":1551790936785,"click_time":1551790938344,"finger_time":1551790938283,"fix_duration":1160.560145458629,"trial":12,"RT":1498,"MT":61,"sideResp":2,"stimulus":[],"xmouse":[696,695,694,694,694,694,694,694,694,694,694,694,694,694,694,694,694,694,694,694,694,694,694,694,694,694,694,694,694,694,694,694,694,694,694,694,694,694,694,694,694,694,694,694,693,693,693,693,693,693,693,693,693,693,693,693,693,693,693,693,693,693,693,693,693,693,693,693,693,693,693,693,693,706,773,838,880,894],"ymouse":[459,459,460,460,460,460,460,460,460,460,460,460,460,460,460,460,460,460,460,460,460,460,460,460,460,460,460,460,460,460,460,460,460,460,460,460,460,460,460,460,460,460,460,460,460,460,460,460,460,460,460,460,460,460,460,460,460,460,460,460,460,460,460,460,460,460,460,460,460,460,460,460,460,457,376,249,134,87],"timestamp_mouse":[20,39,59,79,99,120,142,159,179,199,219,239,259,279,299,319,339,359,379,399,419,439,459,479,499,519,539,559,579,599,619,639,659,679,699,719,739,759,779,799,819,839,859,879,899,919,939,959,979,999,1019,1039,1059,1079,1099,1119,1140,1162,1179,1199,1219,1239,1273,1279,1299,1319,1339,1359,1379,1399,1419,1439,1459,1479,1498,1519,1539,1559],"xSR":622,"ySR":384.15000000000003,"xT1":353.2,"yT1":0,"xT2":890.8,"yT2":0,"toosoon":0,"cond_shown":"Congruent","ratio_trial":200,"L_num":7,"L_den":15,"R_num":18,"R_den":27,"correct_side":2,"subjID":"oscarsantiagorozogonzalez","gender":"0","school":"6","age":"12"},{"start_time":1551790941666,"click_time":1551790943887,"finger_time":1551790943207,"fix_duration":638.6716624395714,"trial":13,"RT":1541,"MT":680,"sideResp":2,"stimulus":[],"xmouse":[676,676,676,676,676,676,676,676,676,676,676,676,676,676,676,676,676,676,676,676,676,676,676,676,676,676,676,676,676,676,676,676,676,676,676,676,676,676,676,676,676,676,676,676,676,676,676,676,676,676,676,676,676,676,676,676,676,676,676,676,676,676,676,675,675,675,675,675,675,675,675,675,675,675,675,676,681,694,703,714,725,746,760,761,761,761,762,766,776,795,805,828,843,853,857,861,861,861,862,867,870,876,877,877,877,878,879,879,879,880,884,891],"ymouse":[418,418,418,418,418,418,418,418,418,418,418,418,418,418,418,418,418,418,418,418,418,418,418,418,418,418,418,418,418,418,418,418,418,418,418,418,418,418,418,418,418,418,418,418,418,418,418,418,418,418,418,418,418,418,418,418,418,418,418,418,418,418,418,418,418,418,418,418,418,418,418,418,418,418,418,417,396,323,269,235,211,176,156,154,154,154,154,152,149,141,138,126,115,104,99,93,92,92,91,82,80,76,75,75,75,75,75,75,75,75,75,75],"timestamp_mouse":[4,23,41,61,81,101,121,141,161,181,201,221,241,261,281,301,321,341,361,381,401,421,441,461,481,501,521,541,561,581,601,621,641,661,681,701,721,741,761,781,801,821,841,861,881,901,921,941,961,981,1001,1021,1041,1061,1081,1101,1121,1141,1161,1181,1201,1221,1241,1261,1281,1301,1321,1341,1361,1381,1401,1421,1441,1463,1481,1501,1521,1541,1561,1581,1601,1621,1641,1661,1681,1701,1721,1741,1761,1780,1801,1821,1841,1861,1881,1901,1921,1941,1961,1981,2001,2021,2041,2061,2081,2101,2121,2141,2161,2181,2201,2221],"xSR":622,"ySR":384.15000000000003,"xT1":353.2,"yT1":0,"xT2":890.8,"yT2":0,"toosoon":0,"cond_shown":"Incongruent","ratio_trial":300,"L_num":4,"L_den":20,"R_num":2,"R_den":4,"correct_side":2,"subjID":"oscarsantiagorozogonzalez","gender":"0","school":"6","age":"12"},{"start_time":1551790945078,"click_time":1551790947047,"finger_time":1551790946627,"fix_duration":250,"trial":14,"RT":1549,"MT":420,"sideResp":1,"stimulus":[],"xmouse":[651,651,651,651,651,651,651,651,651,651,651,651,651,651,651,651,651,651,651,651,651,651,651,651,651,651,651,651,651,651,651,651,651,651,651,651,651,651,651,651,651,651,651,651,651,651,651,651,651,651,651,651,651,651,651,651,651,651,651,651,651,651,651,651,651,651,651,651,651,651,648,645,640,638,637,636,624,606,550,510,405,390,382,377,366,331,309,308,308,308,311,320,332,338,348,348,349,352,370],"ymouse":[450,450,450,450,450,450,450,450,450,450,450,450,450,450,450,450,450,450,450,450,450,450,450,450,450,450,450,450,450,450,450,450,450,450,450,450,450,450,450,450,450,450,450,450,450,450,450,450,450,450,450,450,450,450,450,450,450,450,450,450,450,450,450,450,450,450,450,450,450,450,450,450,450,449,448,444,419,396,343,310,204,179,166,157,134,77,52,49,49,49,43,38,31,29,29,29,29,29,29],"timestamp_mouse":[9,29,49,69,89,109,129,149,169,189,209,229,249,269,289,309,329,349,369,389,409,429,449,469,489,509,529,549,569,589,609,629,649,669,689,709,729,749,769,789,809,829,849,869,889,909,929,949,969,989,1009,1029,1049,1069,1089,1109,1129,1149,1169,1189,1209,1229,1249,1269,1289,1309,1329,1349,1369,1389,1409,1429,1449,1469,1489,1509,1529,1549,1569,1588,1609,1629,1649,1669,1688,1709,1729,1749,1769,1788,1809,1829,1849,1869,1889,1909,1929,1949,1969],"xSR":622,"ySR":384.15000000000003,"xT1":353.2,"yT1":0,"xT2":890.8,"yT2":0,"toosoon":0,"cond_shown":"Incongruent","ratio_trial":200,"L_num":9,"L_den":15,"R_num":8,"R_den":10,"correct_side":2,"subjID":"oscarsantiagorozogonzalez","gender":"0","school":"6","age":"12"},{"start_time":1551790951291,"click_time":1551790953627,"finger_time":1551790952886,"fix_duration":1403.8635782034503,"trial":15,"RT":1595,"MT":741,"sideResp":1,"stimulus":[],"xmouse":[654,654,654,654,654,654,654,654,654,654,654,654,654,654,654,654,654,654,654,654,654,654,654,654,654,654,654,654,654,654,654,654,654,654,654,654,654,654,654,654,654,654,654,654,654,654,654,654,654,654,654,654,654,654,654,654,654,654,654,654,654,654,654,654,654,654,654,654,654,654,654,654,654,654,654,652,645,633,630,620,600,597,597,597,597,591,582,566,556,548,548,548,548,548,548,547,544,539,529,513,483,482,482,482,482,482,482,477,470,464,457,457,457,457,456,456,450],"ymouse":[434,434,434,434,434,434,434,434,434,434,434,434,434,434,434,434,434,434,434,434,434,434,434,434,434,434,434,434,434,434,434,434,434,434,434,434,434,434,434,434,434,434,434,434,434,434,434,434,434,434,434,434,434,434,434,434,434,434,434,434,434,434,434,434,434,434,434,434,434,434,434,434,434,434,434,433,429,426,426,421,398,376,369,362,360,318,283,203,162,122,120,120,120,120,120,120,120,120,116,109,89,88,87,87,87,87,87,81,62,55,49,49,49,49,49,49,49],"timestamp_mouse":[15,38,55,75,95,115,135,155,175,195,215,235,255,275,295,315,335,355,375,395,416,435,455,475,495,515,535,555,575,595,615,635,655,675,695,724,735,755,775,795,815,835,855,875,895,915,935,955,975,995,1015,1035,1055,1075,1095,1115,1135,1155,1175,1195,1215,1235,1255,1275,1295,1317,1335,1355,1375,1395,1416,1435,1455,1475,1495,1515,1535,1555,1575,1595,1615,1635,1655,1675,1695,1715,1735,1755,1775,1795,1815,1835,1855,1875,1895,1915,1935,1955,1975,1995,2015,2035,2055,2075,2095,2115,2135,2155,2175,2195,2215,2235,2255,2275,2295,2316,2335],"xSR":622,"ySR":384.15000000000003,"xT1":353.2,"yT1":0,"xT2":890.8,"yT2":0,"toosoon":0,"cond_shown":"Incongruent","ratio_trial":300,"L_num":1,"L_den":2,"R_num":2,"R_den":10,"correct_side":1,"subjID":"oscarsantiagorozogonzalez","gender":"0","school":"6","age":"12"},{"start_time":1551790955868,"click_time":1551790959107,"finger_time":1551790957347,"fix_duration":700.279066979219,"trial":16,"RT":1479,"MT":1760,"sideResp":2,"stimulus":[],"xmouse":[698,698,698,698,698,698,698,698,698,698,698,698,698,698,698,698,698,698,698,698,698,698,698,698,698,698,698,698,698,698,698,698,698,698,698,698,698,698,698,698,698,698,698,698,698,698,698,698,698,698,698,698,698,698,698,698,698,698,698,698,698,698,698,693,687,679,664,658,658,658,658,656,653,629,588,581,577,577,577,577,577,574,570,570,570,570,570,570,570,570,570,570,570,570,570,570,570,570,570,570,570,570,570,570,570,570,570,570,570,570,570,570,570,570,570,570,570,570,570,570,570,570,570,570,570,570,570,577,595,628,694,774,820,822,823,823,823,829,829,829,829,829,829,833,845,858,860,865,866,867,867,867,867,867,867,868,868,890,896,907,908,910],"ymouse":[439,439,439,439,439,439,439,439,439,439,439,439,439,439,439,439,439,439,439,439,439,439,439,439,439,439,439,439,439,439,439,439,439,439,439,439,439,439,439,439,439,439,439,439,439,439,439,439,439,439,439,439,439,439,439,439,439,439,439,439,439,439,439,439,439,436,429,425,424,424,424,420,409,365,311,302,298,298,298,298,298,296,293,293,293,293,293,293,293,293,293,293,293,293,293,293,293,293,293,293,293,293,293,293,293,293,293,293,293,293,293,293,293,293,293,293,293,293,293,293,293,293,293,293,293,293,293,291,286,277,250,199,156,153,152,152,152,134,132,132,132,132,132,131,129,123,121,120,119,119,119,119,119,119,119,119,119,110,108,101,100,98],"timestamp_mouse":[27,39,58,78,98,119,138,158,178,198,218,238,259,279,299,319,339,358,379,399,419,439,459,479,499,519,539,559,579,599,619,639,659,679,699,719,739,759,779,799,819,839,859,879,899,919,939,959,979,999,1019,1039,1059,1079,1099,1119,1138,1158,1179,1199,1219,1239,1259,1279,1299,1319,1339,1359,1379,1399,1419,1439,1459,1479,1499,1519,1539,1559,1579,1599,1619,1639,1659,1679,1699,1719,1739,1759,1779,1799,1819,1839,1859,1879,1899,1919,1939,1959,1979,1999,2018,2039,2059,2079,2099,2119,2139,2159,2179,2199,2219,2238,2259,2279,2299,2319,2339,2359,2379,2399,2419,2439,2458,2479,2499,2519,2539,2558,2579,2599,2619,2639,2659,2679,2699,2719,2739,2759,2779,2799,2819,2839,2859,2879,2899,2919,2939,2958,2979,2999,3019,3039,3059,3079,3099,3119,3139,3159,3179,3199,3219,3239],"xSR":622,"ySR":384.15000000000003,"xT1":353.2,"yT1":0,"xT2":890.8,"yT2":0,"toosoon":0,"cond_shown":"Incongruent","ratio_trial":100,"L_num":3,"L_den":5,"R_num":8,"R_den":16,"correct_side":1,"subjID":"oscarsantiagorozogonzalez","gender":"0","school":"6","age":"12"},{"start_time":1551790960322,"click_time":1551790962307,"finger_time":1551790961727,"fix_duration":314.66597527383846,"trial":17,"RT":1405,"MT":580,"sideResp":1,"stimulus":[],"xmouse":[704,704,704,704,704,704,704,704,704,704,704,704,704,704,704,704,704,704,704,704,704,704,704,704,704,704,704,704,704,704,704,704,704,704,704,704,704,704,704,704,704,704,704,704,704,704,704,704,704,704,704,704,704,704,704,704,704,704,704,704,704,693,685,682,682,681,675,671,666,653,613,596,582,581,580,572,545,531,518,516,509,503,502,491,480,477,473,470,467,451,439,433,433,432,432,431,429,424,421,417],"ymouse":[396,396,396,396,396,396,396,396,396,396,396,396,396,396,396,396,396,396,396,396,396,396,396,396,396,396,396,396,396,396,396,396,396,396,396,396,396,396,396,396,396,396,396,396,396,396,396,396,396,396,396,396,396,396,396,396,396,396,396,396,397,402,403,405,405,405,405,402,401,399,397,395,392,392,392,385,353,327,298,292,275,256,251,229,206,200,194,189,185,162,146,135,134,133,132,127,122,108,102,92],"timestamp_mouse":[9,25,45,65,85,105,125,145,165,185,205,225,245,265,285,305,325,345,365,385,405,425,445,465,485,505,525,545,565,585,605,625,645,665,685,705,725,745,765,785,805,825,845,865,885,905,925,945,965,985,1005,1025,1045,1065,1085,1105,1125,1145,1165,1185,1204,1225,1245,1265,1285,1305,1325,1345,1365,1385,1405,1425,1445,1465,1485,1505,1525,1545,1565,1585,1605,1625,1645,1665,1685,1705,1725,1745,1765,1785,1805,1825,1845,1865,1885,1905,1925,1945,1965,1985],"xSR":622,"ySR":384.15000000000003,"xT1":353.2,"yT1":0,"xT2":890.8,"yT2":0,"toosoon":0,"cond_shown":"Incongruent","ratio_trial":300,"L_num":13,"L_den":26,"R_num":12,"R_den":15,"correct_side":2,"subjID":"oscarsantiagorozogonzalez","gender":"0","school":"6","age":"12"},{"start_time":1551790967733,"click_time":1551790972506,"finger_time":1551790969607,"fix_duration":904.9479070955261,"trial":18,"RT":1874,"MT":2899,"sideResp":1,"stimulus":[],"xmouse":[687,687,687,687,687,687,687,687,687,687,687,687,687,687,687,687,687,687,687,687,687,687,687,687,687,687,687,687,687,687,687,687,687,687,687,687,687,687,687,687,687,687,687,687,687,687,687,687,687,687,687,687,687,687,687,687,687,687,687,687,687,687,687,687,687,687,687,687,687,687,687,687,687,684,684,684,684,684,684,684,684,684,684,684,684,684,684,684,684,684,684,684,681,675,674,667,625,602,551,531,505,502,502,501,495,491,475,475,475,475,475,474,471,470,467,465,462,461,461,460,460,457,453,445,441,432,425,413,407,399,396,388,384,382,382,382,382,387,393,401,404,413,417,417,417,416,418,422,422,424,424,424,424,424,424,424,424,424,424,424,424,424,428,443,449,450,450,456,460,476,495,504,522,537,571,588,634,670,670,670,670,670,670,670,670,670,670,670,670,670,670,670,670,670,670,670,670,670,670,670,670,670,670,670,670,670,670,670,670,670,670,670,670,669,669,660,632,608,604,604,604,604,604,604,604,597,590,578,554,549,547,541,540,530,507,490,479,444,412],"ymouse":[405,405,405,405,405,405,405,405,405,405,405,405,405,405,405,405,405,405,405,405,405,405,405,405,405,405,405,405,405,405,405,405,405,405,405,405,405,405,405,405,405,405,405,405,405,405,405,405,405,405,405,405,405,405,405,405,405,405,405,405,405,405,405,405,405,405,405,405,405,405,405,404,404,402,402,402,402,402,402,402,402,402,402,402,402,402,402,402,402,402,402,402,390,378,373,368,334,312,261,238,203,201,200,199,194,191,186,186,186,186,186,186,185,185,185,185,185,185,185,185,185,185,185,185,185,185,185,187,188,189,189,190,191,192,192,192,192,192,192,192,192,192,192,192,193,202,222,225,225,225,225,225,225,225,225,225,225,225,225,225,225,225,224,192,175,174,174,173,171,170,167,166,166,166,166,166,178,193,193,193,193,193,193,193,193,193,193,193,193,193,193,193,193,193,193,193,193,193,193,193,193,193,193,193,193,193,193,193,193,193,193,193,193,193,192,190,209,245,253,253,253,253,253,253,253,246,237,232,233,233,233,231,231,227,213,196,179,129,86],"timestamp_mouse":[16,34,54,74,94,114,134,154,174,194,214,234,254,274,294,314,334,354,374,394,414,434,454,474,494,514,534,554,574,594,614,634,654,674,694,714,734,754,774,794,814,834,854,874,894,914,934,954,974,994,1014,1034,1054,1074,1094,1114,1134,1154,1174,1194,1214,1234,1254,1274,1294,1314,1334,1354,1374,1394,1414,1434,1454,1474,1494,1514,1534,1554,1574,1594,1614,1634,1654,1674,1694,1714,1734,1754,1774,1794,1814,1834,1854,1874,1894,1914,1934,1954,1974,1994,2014,2034,2054,2074,2094,2114,2134,2154,2174,2194,2214,2234,2254,2274,2294,2315,2334,2354,2374,2394,2414,2434,2454,2474,2494,2514,2533,2554,2574,2594,2614,2634,2654,2674,2694,2714,2734,2754,2774,2794,2814,2833,2854,2874,2894,2914,2934,2954,2974,2994,3014,3034,3054,3074,3094,3114,3135,3153,3174,3194,3214,3235,3254,3274,3294,3314,3334,3354,3374,3394,3414,3434,3453,3473,3495,3514,3534,3553,3574,3594,3614,3634,3654,3674,3694,3714,3734,3754,3774,3794,3814,3834,3854,3874,3894,3913,3934,3955,3974,3994,4013,4034,4054,4073,4094,4114,4134,4155,4174,4194,4214,4234,4254,4274,4293,4314,4334,4354,4374,4394,4414,4434,4454,4474,4493,4514,4533,4554,4573,4594,4613,4634,4653,4673,4693,4713,4733,4754,4773],"xSR":622,"ySR":384.15000000000003,"xT1":353.2,"yT1":0,"xT2":890.8,"yT2":0,"toosoon":0,"cond_shown":"Congruent","ratio_trial":100,"L_num":4,"L_den":8,"R_num":6,"R_den":10,"correct_side":2,"subjID":"oscarsantiagorozogonzalez","gender":"0","school":"6","age":"12"},{"start_time":1551790974660,"click_time":1551790976786,"finger_time":1551790976186,"fix_duration":812.091165336952,"trial":19,"RT":1526,"MT":600,"sideResp":1,"stimulus":[],"xmouse":[676,676,676,676,676,676,676,676,676,676,676,676,676,676,676,676,676,676,676,676,676,676,676,676,676,676,676,676,676,676,676,676,676,676,676,676,676,676,676,676,676,676,676,676,676,676,676,676,676,676,676,676,676,676,676,676,676,676,676,676,676,676,676,676,676,676,675,671,670,669,669,669,669,669,669,665,661,637,612,601,591,588,580,577,574,572,570,565,563,561,551,526,508,501,482,474,471,471,471,471,471,471,471,471,469,463,451],"ymouse":[414,414,414,414,414,414,414,414,414,414,414,414,414,414,414,414,414,414,414,414,414,414,414,414,414,414,414,414,414,414,414,414,414,414,414,414,414,414,414,414,414,414,414,414,414,414,414,414,414,414,414,414,414,414,414,414,414,414,414,414,414,414,414,414,414,415,415,415,416,416,416,416,416,416,416,400,373,294,241,220,200,193,173,155,149,146,144,139,137,134,126,109,99,96,91,89,88,88,88,88,88,88,88,88,88,87,82],"timestamp_mouse":[8,34,46,66,86,106,126,146,166,186,206,226,246,266,286,306,326,346,366,386,406,426,446,466,486,506,526,546,566,586,606,626,646,666,686,706,726,746,766,786,806,826,846,866,886,906,926,946,966,986,1006,1026,1047,1066,1086,1106,1126,1146,1166,1186,1206,1226,1246,1266,1286,1306,1326,1346,1366,1386,1406,1426,1446,1466,1486,1506,1526,1546,1566,1586,1606,1626,1646,1666,1686,1706,1726,1746,1766,1786,1808,1828,1846,1866,1886,1906,1926,1946,1966,1986,2006,2026,2046,2066,2086,2106,2126],"xSR":622,"ySR":384.15000000000003,"xT1":353.2,"yT1":0,"xT2":890.8,"yT2":0,"toosoon":0,"cond_shown":"Congruent","ratio_trial":300,"L_num":3,"L_den":6,"R_num":4,"R_den":5,"correct_side":2,"subjID":"oscarsantiagorozogonzalez","gender":"0","school":"6","age":"12"},{"start_time":1551790978038,"click_time":1551790979427,"finger_time":1551790979347,"fix_duration":250,"trial":20,"RT":1309,"MT":80,"sideResp":2,"stimulus":[],"xmouse":[679,679,679,679,679,679,679,679,679,679,679,679,679,679,679,679,679,679,679,679,679,679,679,679,679,679,679,679,679,679,679,679,679,679,679,679,679,679,679,679,679,679,679,679,679,679,679,679,679,679,679,679,679,679,679,679,679,679,679,679,679,679,680,680,684,733,814,839,880,911],"ymouse":[426,426,426,426,426,426,426,426,426,426,426,426,426,426,426,426,426,426,426,426,426,426,426,426,426,426,426,426,426,426,426,426,426,426,426,426,426,426,426,426,426,426,426,426,426,426,426,426,426,426,426,426,426,426,426,426,426,426,426,426,426,426,426,426,423,350,223,187,125,81],"timestamp_mouse":[24,28,48,68,88,108,128,148,168,188,208,228,248,268,288,308,328,348,368,388,408,428,448,468,488,508,528,548,568,588,608,628,648,669,688,708,728,748,768,788,808,828,848,868,888,908,928,948,968,988,1008,1028,1048,1068,1088,1108,1128,1148,1168,1188,1208,1228,1249,1268,1288,1309,1328,1349,1368,1388],"xSR":622,"ySR":384.15000000000003,"xT1":353.2,"yT1":0,"xT2":890.8,"yT2":0,"toosoon":0,"cond_shown":"Congruent","ratio_trial":300,"L_num":1,"L_den":5,"R_num":3,"R_den":6,"correct_side":2,"subjID":"oscarsantiagorozogonzalez","gender":"0","school":"6","age":"12"},{"start_time":1551790980951,"click_time":1551790982467,"finger_time":1551790982147,"fix_duration":463.93292011583986,"trial":21,"RT":1196,"MT":320,"sideResp":1,"stimulus":[],"xmouse":[674,674,674,674,674,674,674,674,674,674,674,674,674,674,674,674,674,674,674,674,674,674,674,674,674,674,674,674,674,674,674,674,674,674,674,674,674,674,674,674,674,674,674,674,674,674,674,674,674,674,674,673,672,672,672,672,672,671,659,643,597,578,572,562,544,532,500,482,448,445,440,440,440,438,435,432],"ymouse":[433,433,433,433,433,433,433,433,433,433,433,433,433,433,433,433,433,433,433,433,433,433,433,433,433,433,433,433,433,433,433,433,433,433,433,433,433,433,433,433,433,433,433,433,433,433,433,433,433,433,433,433,433,433,433,433,433,433,400,370,315,294,288,284,259,244,206,185,140,135,125,124,124,113,102,97],"timestamp_mouse":[16,35,56,76,96,116,136,156,176,196,216,236,256,276,296,316,336,356,376,396,416,436,456,476,496,516,536,556,576,596,616,636,656,676,696,716,736,756,776,796,816,836,856,876,896,916,936,956,976,996,1016,1036,1056,1076,1096,1116,1136,1156,1176,1196,1215,1236,1256,1276,1296,1315,1336,1356,1376,1396,1416,1436,1456,1476,1496,1516],"xSR":622,"ySR":384.15000000000003,"xT1":353.2,"yT1":0,"xT2":890.8,"yT2":0,"toosoon":0,"cond_shown":"Congruent","ratio_trial":200,"L_num":21,"L_den":30,"R_num":2,"R_den":4,"correct_side":1,"subjID":"oscarsantiagorozogonzalez","gender":"0","school":"6","age":"12"},{"start_time":1551790983727,"click_time":1551790985367,"finger_time":1551790985287,"fix_duration":479.3783793187828,"trial":22,"RT":1560,"MT":80,"sideResp":1,"stimulus":[],"xmouse":[673,669,669,668,668,668,668,668,668,668,668,668,668,668,668,668,668,668,668,668,668,668,668,668,668,668,668,668,668,668,668,668,668,668,668,668,668,668,668,668,668,668,668,668,668,668,668,668,668,668,668,668,668,668,668,668,668,668,668,668,668,668,666,665,664,664,662,661,661,658,656,655,654,653,651,646,641,634,606,537,478,450,410],"ymouse":[452,453,453,453,453,453,453,453,453,453,453,453,453,453,453,453,453,453,453,453,453,453,453,453,453,453,453,453,453,453,453,453,453,453,453,453,453,453,453,453,453,453,453,453,453,453,453,453,453,453,453,453,453,453,453,453,453,453,453,453,453,453,453,453,453,453,454,454,454,455,455,456,456,456,457,457,454,449,415,295,191,144,83],"timestamp_mouse":[1,33,40,60,80,100,120,140,160,180,200,220,240,260,280,300,320,340,360,380,400,420,440,460,480,500,520,540,560,580,600,620,640,660,680,700,720,740,760,780,800,820,840,860,880,900,920,940,960,980,1000,1020,1040,1060,1080,1100,1120,1140,1160,1180,1200,1220,1240,1260,1280,1300,1320,1340,1359,1380,1400,1420,1440,1460,1480,1500,1520,1540,1560,1580,1600,1620,1640],"xSR":622,"ySR":384.15000000000003,"xT1":353.2,"yT1":0,"xT2":890.8,"yT2":0,"toosoon":0,"cond_shown":"Congruent","ratio_trial":200,"L_num":7,"L_den":21,"R_num":2,"R_den":15,"correct_side":1,"subjID":"oscarsantiagorozogonzalez","gender":"0","school":"6","age":"12"},{"start_time":1551790987540,"click_time":1551790989507,"finger_time":1551790989107,"fix_duration":871.8185198146647,"trial":23,"RT":1567,"MT":400,"sideResp":1,"stimulus":[],"xmouse":[662,662,662,662,660,659,659,659,659,659,659,659,659,659,659,659,659,659,659,659,659,659,659,659,659,658,658,658,658,657,657,657,657,657,657,657,657,657,657,657,657,657,657,657,657,657,657,657,657,657,657,657,657,657,657,657,657,657,657,657,657,657,657,656,656,656,656,656,656,656,653,649,638,638,638,638,638,638,638,638,630,609,601,580,558,546,509,495,486,486,486,485,483,481,478,477,460,455,451],"ymouse":[426,426,426,426,426,426,426,426,426,426,426,426,426,426,426,426,426,426,426,426,426,426,426,426,426,426,426,426,426,426,426,426,426,426,426,426,426,426,426,426,426,426,426,426,426,426,426,426,426,426,426,426,426,426,426,426,426,426,426,426,426,426,426,426,426,426,426,426,426,426,421,411,392,392,392,391,389,387,382,378,366,338,326,294,251,229,167,140,123,119,114,111,107,102,93,92,86,86,86],"timestamp_mouse":[16,34,47,67,87,107,127,147,167,187,207,227,247,267,287,307,327,347,367,387,407,427,447,467,487,507,527,547,567,587,607,627,647,667,687,707,727,747,767,787,807,827,847,867,887,907,927,947,967,987,1007,1027,1047,1067,1087,1107,1127,1147,1167,1187,1207,1227,1247,1267,1287,1307,1327,1347,1367,1387,1407,1427,1447,1467,1487,1507,1527,1547,1567,1587,1607,1627,1647,1667,1687,1707,1726,1747,1767,1787,1807,1827,1847,1867,1887,1907,1927,1947,1967],"xSR":622,"ySR":384.15000000000003,"xT1":353.2,"yT1":0,"xT2":890.8,"yT2":0,"toosoon":0,"cond_shown":"Congruent","ratio_trial":100,"L_num":1,"L_den":2,"R_num":3,"R_den":5,"correct_side":2,"subjID":"oscarsantiagorozogonzalez","gender":"0","school":"6","age":"12"},{"start_time":1551790991268,"click_time":1551790993327,"finger_time":1551790993067,"fix_duration":820.1745107460065,"trial":24,"RT":1799,"MT":260,"sideResp":2,"stimulus":[],"xmouse":[709,709,709,709,709,709,709,708,708,708,708,706,705,703,702,702,702,702,702,700,700,699,699,699,699,699,699,697,697,697,697,697,697,697,697,697,696,694,693,693,693,693,693,693,693,693,693,693,693,693,693,693,693,692,692,692,692,692,692,692,692,692,692,692,692,692,692,692,692,692,692,692,692,692,692,692,692,692,692,692,692,692,692,692,692,692,692,695,722,735,743,748,755,774,782,807,840,849,864,870,880,891,922],"ymouse":[473,473,473,473,473,473,473,473,473,473,473,473,474,474,475,475,475,475,475,475,476,476,476,476,476,476,476,476,476,476,476,476,476,476,476,476,476,477,477,477,477,477,477,477,477,477,477,477,477,477,477,477,477,477,477,477,477,477,477,477,477,477,477,477,477,477,477,477,476,476,476,476,476,476,476,476,476,476,476,476,476,476,476,476,476,476,475,471,406,379,361,353,342,320,312,280,240,223,202,193,171,144,95],"timestamp_mouse":[19,39,59,79,99,119,139,159,179,199,219,239,259,279,299,319,339,359,379,399,419,439,459,479,499,519,539,559,579,599,619,639,659,679,699,719,739,759,779,799,819,839,859,879,899,919,939,959,979,999,1019,1039,1059,1079,1099,1119,1139,1159,1179,1199,1219,1239,1259,1279,1299,1319,1339,1359,1379,1399,1419,1439,1459,1479,1499,1519,1539,1559,1579,1599,1619,1639,1659,1679,1699,1719,1739,1759,1779,1799,1819,1839,1859,1879,1899,1919,1939,1959,1979,1999,2019,2039,2059],"xSR":622,"ySR":384.15000000000003,"xT1":353.2,"yT1":0,"xT2":890.8,"yT2":0,"toosoon":0,"cond_shown":"Congruent","ratio_trial":300,"L_num":20,"L_den":25,"R_num":5,"R_den":10,"correct_side":1,"subjID":"oscarsantiagorozogonzalez","gender":"0","school":"6","age":"12"},{"start_time":1551790995261,"click_time":1551790997306,"finger_time":1551790996807,"fix_duration":932.4829281015836,"trial":25,"RT":1546,"MT":499,"sideResp":1,"stimulus":[],"xmouse":[699,699,699,699,699,699,699,699,699,699,699,699,699,699,699,699,699,699,699,699,699,699,699,699,699,699,699,699,699,699,699,699,699,699,699,699,699,699,699,699,699,699,699,699,699,699,699,699,699,699,699,699,699,699,699,699,699,699,699,699,699,699,699,699,699,699,699,699,699,699,699,699,699,694,689,674,666,625,579,568,565,557,550,532,529,519,512,506,505,503,500,490,482,477,459,450,447,443,439,433,432,429,427],"ymouse":[415,415,415,415,415,415,415,415,415,415,415,415,415,415,415,415,415,415,415,415,415,415,415,415,415,415,415,415,415,415,415,415,415,415,415,415,415,415,415,415,415,415,415,415,415,415,415,415,415,415,415,415,415,415,415,415,415,415,415,415,415,415,415,415,415,415,415,415,415,415,415,415,415,415,415,406,403,377,350,339,334,319,309,284,281,264,254,237,224,214,206,190,175,169,148,133,127,120,115,105,104,102,99],"timestamp_mouse":[8,25,46,66,86,106,126,146,166,186,206,226,246,266,286,306,326,346,366,386,406,426,446,466,486,506,526,546,566,586,606,626,646,666,685,706,726,746,766,786,806,825,845,865,885,905,925,945,965,985,1005,1025,1045,1065,1086,1106,1126,1146,1166,1186,1206,1226,1246,1266,1286,1306,1326,1346,1366,1386,1406,1426,1446,1466,1485,1506,1526,1546,1565,1585,1606,1626,1645,1665,1686,1706,1725,1745,1765,1786,1806,1826,1846,1865,1885,1905,1925,1945,1965,1985,2005,2025,2045],"xSR":622,"ySR":384.15000000000003,"xT1":353.2,"yT1":0,"xT2":890.8,"yT2":0,"toosoon":0,"cond_shown":"Incongruent","ratio_trial":100,"L_num":4,"L_den":8,"R_num":8,"R_den":20,"correct_side":1,"subjID":"oscarsantiagorozogonzalez","gender":"0","school":"6","age":"12"},{"start_time":1551791000685,"click_time":1551791002549,"finger_time":1551791002109,"fix_duration":917.6385159466632,"trial":26,"RT":1424,"MT":440,"sideResp":1,"stimulus":[],"xmouse":[627,627,627,627,627,627,627,627,627,627,627,627,627,627,627,627,627,627,626,626,626,626,626,626,626,626,626,626,626,626,626,626,626,626,626,626,626,626,626,626,626,626,626,626,626,626,626,626,626,626,626,626,626,626,626,626,626,626,626,626,626,626,626,626,626,626,626,626,626,626,624,619,608,580,570,567,566,566,565,563,563,555,551,505,495,479,472,461,447,441,437,433,430,425],"ymouse":[402,402,402,402,402,402,402,402,402,402,402,402,402,402,402,402,402,402,402,402,402,402,402,402,402,402,402,402,402,402,402,402,402,402,402,402,402,402,402,402,402,402,402,402,402,402,402,402,402,402,402,402,402,402,402,402,402,402,402,402,402,402,402,402,402,402,402,402,402,402,402,401,393,373,368,367,366,366,366,361,357,339,326,224,202,182,175,158,135,128,123,114,106,89],"timestamp_mouse":[8,35,41,61,81,101,121,141,161,181,201,221,241,261,281,301,321,341,361,381,401,421,441,461,481,501,521,541,561,581,601,621,641,661,681,701,721,741,761,781,801,821,841,861,881,901,921,941,961,984,1004,1024,1044,1064,1084,1104,1124,1144,1164,1184,1204,1224,1244,1264,1284,1304,1324,1344,1364,1384,1404,1424,1444,1464,1484,1504,1524,1544,1564,1584,1604,1624,1644,1664,1684,1704,1724,1744,1764,1784,1804,1824,1844,1864],"xSR":622,"ySR":384.15000000000003,"xT1":353.2,"yT1":0,"xT2":890.8,"yT2":0,"toosoon":0,"cond_shown":"Incongruent","ratio_trial":100,"L_num":13,"L_den":26,"R_num":12,"R_den":20,"correct_side":2,"subjID":"oscarsantiagorozogonzalez","gender":"0","school":"6","age":"12"},{"start_time":1551791003881,"click_time":1551791005009,"finger_time":1551791004889,"fix_duration":250,"trial":27,"RT":1008,"MT":120,"sideResp":2,"stimulus":[],"xmouse":[687,687,687,687,687,687,687,687,687,687,687,687,687,687,687,686,685,684,684,684,684,684,684,684,684,684,684,684,684,684,684,684,684,684,684,684,684,684,684,684,684,684,684,684,684,684,684,684,684,703,749,867,895,895,897,897,900],"ymouse":[441,441,441,441,441,441,441,441,441,441,441,441,441,441,441,428,425,425,425,425,425,425,425,425,425,425,425,425,425,425,425,425,425,425,425,425,425,425,425,425,425,425,425,425,425,425,425,425,425,405,344,172,118,118,116,116,93],"timestamp_mouse":[8,35,48,68,88,108,128,148,168,188,208,228,248,268,288,308,328,348,368,388,408,428,448,468,488,508,528,548,568,588,608,628,648,668,688,708,728,748,768,788,808,828,848,868,888,908,928,948,968,988,1008,1028,1048,1068,1088,1108,1128],"xSR":622,"ySR":384.15000000000003,"xT1":353.2,"yT1":0,"xT2":890.8,"yT2":0,"toosoon":0,"cond_shown":"Incongruent","ratio_trial":300,"L_num":4,"L_den":20,"R_num":2,"R_den":4,"correct_side":2,"subjID":"oscarsantiagorozogonzalez","gender":"0","school":"6","age":"12"},{"start_time":1551791006708,"click_time":1551791009809,"finger_time":1551791008909,"fix_duration":677.2604226241168,"trial":28,"RT":2201,"MT":900,"sideResp":1,"stimulus":[],"xmouse":[715,715,715,715,715,715,715,715,715,715,715,715,715,715,715,715,715,715,715,715,715,715,715,715,715,715,715,715,715,715,715,715,715,715,715,715,715,715,715,715,715,715,715,715,715,715,715,715,715,715,715,715,715,715,715,715,715,715,715,715,715,715,715,715,715,715,715,715,715,715,715,715,715,715,715,715,714,711,710,709,709,709,709,709,709,709,709,709,709,709,709,709,709,709,709,709,709,709,709,709,709,709,709,708,704,701,695,672,654,633,604,516,408,384,334,310,284,275,265,265,265,265,270,272,282,287,302,306,308,309,310,310,314,318,324,324,326,328,335,338,339,340,341,345,346,347,347,348,348,350,352,352,352,352,353,355],"ymouse":[461,461,461,461,461,461,461,461,461,461,461,461,461,461,461,461,461,461,461,461,461,461,461,461,461,461,461,461,461,461,461,461,461,461,461,461,461,461,461,461,461,461,461,461,461,461,461,461,461,461,461,461,461,461,461,461,461,461,461,461,461,461,461,461,461,461,461,461,461,461,461,461,461,461,461,461,454,445,444,444,444,444,444,444,444,444,444,444,444,444,444,444,444,444,444,444,444,444,444,444,444,444,444,444,444,444,446,447,440,434,423,388,342,331,277,207,141,120,105,102,98,95,84,80,64,57,40,35,33,32,32,32,32,32,31,31,31,31,31,31,31,31,31,28,28,28,28,28,28,28,28,28,28,28,28,28],"timestamp_mouse":[6,34,41,61,81,101,121,141,161,181,201,221,241,261,281,301,321,341,361,381,401,421,441,461,481,501,521,541,561,581,601,621,641,661,681,701,721,741,761,781,801,821,841,861,881,901,921,941,961,981,1001,1021,1041,1061,1081,1101,1121,1141,1161,1181,1201,1221,1241,1261,1281,1301,1321,1341,1361,1381,1401,1421,1441,1461,1481,1501,1521,1541,1561,1581,1601,1621,1641,1661,1681,1701,1721,1741,1761,1781,1801,1821,1841,1861,1881,1901,1921,1941,1961,1981,2001,2021,2041,2061,2081,2101,2121,2141,2161,2181,2201,2221,2241,2260,2281,2301,2321,2341,2361,2381,2401,2421,2441,2461,2481,2501,2521,2541,2561,2581,2601,2621,2641,2661,2681,2701,2721,2741,2761,2781,2801,2821,2841,2861,2881,2901,2921,2941,2961,2981,3001,3021,3041,3061,3081,3101],"xSR":622,"ySR":384.15000000000003,"xT1":353.2,"yT1":0,"xT2":890.8,"yT2":0,"toosoon":0,"cond_shown":"Congruent","ratio_trial":100,"L_num":10,"L_den":25,"R_num":3,"R_den":10,"correct_side":1,"subjID":"oscarsantiagorozogonzalez","gender":"0","school":"6","age":"12"},{"start_time":1551791011861,"click_time":1551791014769,"finger_time":1551791014329,"fix_duration":250,"trial":29,"RT":2468,"MT":440,"sideResp":1,"stimulus":[],"xmouse":[674,674,674,674,674,674,674,674,674,674,674,674,674,674,674,674,674,674,674,674,674,674,674,674,674,674,674,674,674,674,674,674,674,674,674,674,674,674,674,674,674,674,674,674,674,674,674,674,674,674,674,674,674,674,674,674,674,674,674,674,674,674,674,674,674,674,674,674,674,674,674,674,675,675,675,675,675,675,675,675,675,675,675,675,675,675,675,675,675,676,676,677,677,677,677,677,677,677,677,677,677,677,677,677,677,677,677,677,677,677,677,677,677,678,678,678,677,674,673,668,666,659,635,600,585,562,554,554,552,526,501,425,388,370,358,354,352,343,333,329,329,329,334,339,345,357],"ymouse":[428,428,428,428,428,428,428,428,428,428,428,428,428,428,428,428,428,428,428,428,428,428,428,428,428,428,428,428,428,428,428,428,428,428,428,428,428,428,428,428,428,428,428,428,428,428,428,428,428,428,428,428,428,428,428,428,428,428,428,428,428,428,428,428,428,428,428,428,428,428,428,428,428,428,428,428,428,428,428,428,428,428,428,428,428,428,428,428,428,428,428,428,428,428,428,428,428,428,428,428,428,428,428,428,428,428,428,428,428,428,428,428,428,428,428,428,428,427,427,425,424,418,400,370,356,336,331,331,329,300,262,177,147,134,123,120,119,109,94,87,85,81,73,69,65,59],"timestamp_mouse":[10,33,48,68,88,108,128,148,168,188,208,228,248,268,288,308,328,348,368,388,408,428,448,468,488,508,528,548,568,588,608,628,648,668,688,708,728,748,768,788,808,828,848,868,888,908,928,948,968,988,1008,1028,1048,1068,1088,1108,1128,1148,1168,1188,1208,1228,1248,1268,1288,1308,1328,1348,1368,1388,1408,1428,1448,1468,1488,1508,1528,1548,1568,1588,1608,1628,1648,1668,1688,1708,1728,1748,1768,1788,1808,1828,1848,1868,1888,1908,1928,1948,1968,1988,2008,2028,2048,2068,2088,2108,2128,2148,2168,2188,2208,2228,2248,2268,2288,2308,2328,2348,2368,2388,2408,2428,2448,2468,2488,2508,2528,2548,2568,2588,2608,2629,2648,2668,2688,2708,2728,2748,2768,2788,2808,2829,2848,2868,2888,2908],"xSR":622,"ySR":384.15000000000003,"xT1":353.2,"yT1":0,"xT2":890.8,"yT2":0,"toosoon":0,"cond_shown":"Incongruent","ratio_trial":200,"L_num":7,"L_den":15,"R_num":6,"R_den":9,"correct_side":2,"subjID":"oscarsantiagorozogonzalez","gender":"0","school":"6","age":"12"},{"start_time":1551791018334,"click_time":1551791031469,"finger_time":1551791019889,"fix_duration":1163.047029458755,"trial":30,"RT":1555,"MT":11580,"sideResp":2,"stimulus":[],"xmouse":[685,685,685,685,685,685,685,685,686,687,687,687,687,687,687,687,687,687,687,687,687,687,687,687,687,687,687,687,689,689,689,689,689,689,689,689,689,689,689,689,689,689,690,690,690,690,690,690,690,690,690,690,690,690,690,690,690,690,690,690,690,690,690,690,690,690,690,690,689,688,688,688,688,688,689,695,709,723,760,784,788,793,801,818,823,824,824,824,824,824,827,829,830,830,831,832,832,832,832,832,832,832,832,832,832,832,832,832,832,833,835,835,837,838,840,840,840,840,840,840,840,839,836,833,832,832,832,832,832,832,832,832,832,832,832,832,832,832,832,832,832,832,832,832,832,832,832,832,832,832,832,832,832,832,832,832,832,832,832,832,832,822,819,819,819,819,813,811,811,811,811,811,811,811,811,811,811,811,811,811,811,811,811,811,811,811,811,811,811,811,811,811,811,811,811,811,811,811,811,811,811,811,811,811,811,811,811,811,811,811,811,811,811,811,811,811,811,811,811,811,811,811,811,811,811,811,811,811,811,811,811,811,811,810,810,810,810,810,810,810,810,810,810,810,810,810,810,810,810,810,810,810,810,810,810,810,810,810,810,810,810,810,810,810,810,810,810,810,810,810,810,810,810,810,810,810,809,808,808,808,808,808,808,808,808,808,808,808,808,808,808,808,808,808,808,808,808,808,808,808,808,808,808,808,808,808,808,808,808,808,808,808,808,808,808,808,808,808,808,808,808,808,808,808,808,808,808,808,808,807,807,807,807,807,807,807,807,807,807,807,807,807,807,807,807,807,807,807,807,807,807,807,807,807,807,807,807,807,807,807,807,807,807,807,807,807,807,807,807,807,807,807,807,807,807,807,807,807,807,807,807,807,807,807,807,807,807,807,807,807,807,807,807,807,807,807,807,807,807,807,807,807,807,807,807,807,807,807,807,807,807,807,807,807,807,807,807,807,807,807,807,807,807,807,807,807,807,807,807,807,807,807,807,807,807,807,807,807,807,807,807,807,807,807,807,807,807,807,807,807,807,807,807,807,807,807,807,807,807,807,807,807,807,807,807,807,807,807,807,807,807,807,807,807,807,807,807,807,807,807,807,807,807,807,807,807,807,807,807,807,807,807,807,807,807,807,807,807,807,807,807,807,807,807,807,807,807,807,807,807,807,807,807,807,807,807,807,807,807,807,807,807,807,807,807,807,807,807,807,807,807,807,807,807,807,807,807,807,807,807,807,807,807,807,807,807,807,807,807,807,807,807,807,807,807,807,807,807,807,807,807,807,807,807,807,807,807,807,807,807,807,807,807,807,807,807,807,807,807,807,807,807,807,807,807,807,807,807,807,807,807,807,807,807,807,807,807,807,807,807,807,807,807,807,807,807,807,807,807,807,807,807,807,807,807,807,807,807,807,807,807,807,807,807,807,807,807,807,807,807,807,807,807,807,807,807,807,807,807,807,807,807,807,807,807,815,824,830,833,840,853,859,862,868,873,885,920],"ymouse":[421,421,421,421,421,421,421,421,421,422,422,422,422,422,422,422,422,422,422,422,422,422,422,422,422,422,422,422,423,424,426,426,426,426,426,426,426,426,426,427,427,427,427,427,427,427,427,427,427,427,427,427,428,428,428,428,428,428,428,428,428,428,428,428,429,429,429,430,431,431,431,431,431,431,431,428,421,408,373,348,344,334,321,302,298,297,297,297,296,287,280,271,270,269,266,260,257,257,257,257,257,257,257,257,257,257,257,257,257,249,247,246,243,237,232,232,231,231,231,231,231,231,232,234,235,236,236,236,236,236,236,236,236,236,236,236,236,236,236,236,236,236,236,236,236,236,236,236,236,236,236,236,236,236,236,236,236,236,236,236,236,225,223,223,223,223,224,225,225,225,225,225,225,225,225,225,225,225,225,225,225,225,225,225,225,225,225,225,225,225,225,225,225,225,225,225,225,225,225,225,225,225,225,225,225,225,225,225,225,225,225,225,225,225,225,225,225,225,225,225,225,225,225,225,225,225,225,225,225,225,225,222,213,199,194,192,192,192,192,192,192,192,192,192,192,192,192,192,192,192,192,192,192,192,192,192,192,192,192,192,192,192,192,192,192,192,192,192,192,192,192,192,192,192,192,192,192,192,192,192,192,192,192,192,192,192,192,192,192,192,192,192,192,192,192,192,192,192,192,192,192,192,192,192,192,192,192,192,192,192,192,192,192,192,192,192,192,192,192,192,192,192,192,192,192,192,192,192,192,192,192,192,192,192,192,192,192,192,192,192,192,192,192,192,192,192,192,192,192,192,192,192,192,192,192,192,192,192,192,192,192,192,192,192,192,192,192,192,192,192,192,192,192,192,192,192,192,192,192,192,192,192,192,192,192,192,192,192,192,192,192,192,192,192,192,192,192,192,192,192,192,192,192,192,192,192,192,192,192,192,192,192,192,192,192,192,192,192,192,192,192,192,192,192,192,192,192,192,192,192,192,192,192,192,192,192,192,192,192,192,192,192,192,192,192,192,192,192,192,192,192,192,192,192,192,192,192,192,192,192,192,192,192,192,192,192,192,192,192,192,192,192,192,192,192,192,192,192,192,192,192,192,192,192,192,192,192,192,192,192,192,192,192,192,192,192,192,192,192,192,192,192,192,192,192,192,192,192,192,192,192,192,192,192,192,192,192,192,192,192,192,192,192,192,192,192,192,192,192,192,192,192,192,192,192,192,192,192,192,192,192,192,192,192,192,192,192,192,192,192,192,192,192,192,192,192,192,192,192,192,192,192,192,192,192,192,192,192,192,192,192,192,192,192,192,192,192,192,192,192,192,192,192,192,192,192,192,192,192,192,192,192,192,192,192,192,192,192,192,192,192,192,192,192,192,192,192,192,192,192,192,192,192,192,192,192,192,192,192,192,192,192,192,192,192,192,192,192,192,192,192,192,192,192,192,192,192,192,192,192,192,192,192,192,190,172,157,149,147,137,119,110,108,104,102,95,80],"timestamp_mouse":[15,35,55,75,95,115,135,155,175,195,215,235,255,275,295,315,335,355,376,395,415,435,455,475,495,515,535,555,575,595,615,635,655,675,695,715,735,755,775,795,815,835,855,875,895,915,935,955,975,995,1015,1035,1055,1075,1095,1115,1135,1155,1175,1195,1215,1235,1255,1275,1295,1315,1335,1355,1375,1395,1415,1435,1455,1475,1495,1515,1535,1555,1575,1595,1615,1635,1655,1675,1695,1715,1735,1755,1776,1795,1816,1835,1855,1876,1895,1916,1935,1955,1975,1995,2015,2035,2055,2075,2095,2115,2135,2155,2176,2195,2215,2235,2255,2275,2295,2315,2335,2355,2375,2395,2415,2436,2455,2475,2495,2515,2535,2555,2575,2595,2615,2635,2655,2675,2695,2715,2735,2755,2775,2795,2815,2835,2855,2875,2895,2915,2935,2955,2975,2995,3015,3035,3055,3075,3095,3115,3135,3155,3175,3195,3215,3235,3255,3275,3295,3315,3335,3355,3375,3395,3415,3435,3455,3475,3495,3516,3536,3555,3575,3595,3615,3635,3655,3675,3695,3715,3735,3755,3775,3795,3815,3835,3855,3875,3895,3915,3935,3955,3975,3995,4015,4035,4055,4075,4095,4115,4135,4155,4175,4195,4215,4235,4255,4275,4295,4315,4335,4355,4375,4395,4415,4435,4454,4475,4495,4515,4535,4555,4575,4595,4615,4635,4655,4675,4695,4715,4735,4755,4775,4795,4815,4835,4855,4875,4895,4915,4935,4955,4975,4995,5015,5035,5055,5075,5095,5115,5135,5155,5175,5195,5215,5235,5255,5275,5295,5315,5335,5355,5375,5395,5415,5435,5455,5475,5495,5515,5535,5555,5575,5595,5615,5635,5655,5675,5695,5715,5735,5755,5775,5795,5815,5835,5855,5875,5895,5915,5935,5955,5975,5995,6015,6035,6055,6075,6095,6115,6135,6155,6175,6195,6215,6235,6255,6275,6295,6315,6335,6355,6375,6395,6415,6435,6455,6475,6495,6515,6535,6555,6575,6595,6615,6635,6655,6675,6695,6715,6735,6755,6775,6795,6815,6835,6855,6875,6895,6915,6935,6955,6975,6995,7015,7035,7055,7075,7095,7115,7135,7155,7175,7195,7215,7235,7255,7275,7295,7315,7335,7355,7375,7395,7415,7435,7455,7475,7495,7515,7535,7555,7575,7595,7615,7635,7655,7675,7695,7715,7735,7755,7775,7795,7815,7835,7855,7875,7895,7915,7935,7955,7975,7995,8015,8035,8055,8075,8095,8115,8135,8155,8175,8195,8215,8235,8255,8275,8295,8315,8335,8355,8375,8395,8415,8435,8455,8475,8495,8515,8535,8555,8575,8595,8615,8635,8655,8675,8695,8715,8735,8755,8775,8795,8815,8835,8855,8875,8895,8915,8935,8955,8975,8995,9015,9035,9055,9075,9095,9115,9135,9155,9175,9195,9215,9235,9255,9275,9295,9315,9335,9355,9375,9395,9415,9435,9455,9475,9495,9515,9535,9555,9575,9595,9615,9635,9655,9675,9695,9715,9735,9755,9775,9795,9815,9835,9855,9875,9895,9915,9935,9955,9975,9995,10015,10035,10055,10075,10095,10115,10135,10155,10175,10195,10215,10235,10255,10275,10295,10315,10335,10355,10375,10395,10415,10435,10455,10475,10495,10515,10535,10555,10575,10595,10615,10635,10655,10675,10695,10715,10735,10755,10775,10795,10815,10835,10855,10875,10895,10915,10935,10955,10975,10995,11015,11035,11055,11075,11095,11115,11135,11155,11175,11195,11215,11235,11255,11275,11295,11315,11335,11355,11375,11395,11415,11435,11455,11475,11495,11515,11535,11555,11575,11595,11615,11635,11655,11675,11695,11715,11735,11755,11775,11795,11815,11835,11855,11875,11895,11915,11935,11955,11975,11995,12015,12035,12055,12075,12095,12115,12135,12155,12175,12195,12215,12235,12255,12275,12295,12315,12335,12355,12375,12395,12415,12435,12455,12475,12495,12515,12535,12555,12575,12595,12615,12635,12655,12675,12695,12715,12735,12755,12775,12795,12815,12835,12855,12875,12895,12915,12935,12955,12975,12995,13015,13035,13055,13075,13095,13115,13135],"xSR":622,"ySR":384.15000000000003,"xT1":353.2,"yT1":0,"xT2":890.8,"yT2":0,"toosoon":0,"cond_shown":"Congruent","ratio_trial":100,"L_num":11,"L_den":22,"R_num":6,"R_den":15,"correct_side":1,"subjID":"oscarsantiagorozogonzalez","gender":"0","school":"6","age":"12"},{"start_time":1551791036595,"click_time":1551791038569,"finger_time":1551791038089,"fix_duration":884.4204306371898,"trial":31,"RT":1494,"MT":480,"sideResp":1,"stimulus":[],"xmouse":[658,658,658,658,658,658,658,658,658,658,658,658,658,658,658,658,658,658,658,658,658,658,658,658,658,658,658,658,658,658,658,658,658,658,658,658,658,658,658,658,658,658,658,658,658,658,658,658,658,658,658,658,658,658,658,658,658,658,658,658,658,658,658,658,658,658,658,658,658,658,658,653,649,640,638,638,638,636,630,611,608,607,605,601,588,555,546,539,530,523,494,473,464,460,451,440,435,432,431],"ymouse":[450,450,450,450,450,450,450,450,450,450,450,450,450,450,450,450,450,450,450,450,450,450,450,450,450,450,450,450,450,450,450,450,450,450,450,450,450,450,450,450,450,450,450,450,450,450,450,450,450,450,450,450,450,450,450,450,450,450,450,450,450,450,450,450,450,450,450,450,450,450,449,443,429,385,344,324,312,277,255,194,189,189,189,188,180,160,158,158,157,155,150,148,145,142,133,120,110,104,90],"timestamp_mouse":[14,36,54,74,94,114,134,154,174,194,214,234,254,274,294,314,334,354,374,394,414,434,454,474,494,514,534,554,574,594,614,634,654,674,694,714,734,754,774,794,814,834,854,874,894,914,934,954,974,994,1014,1034,1054,1074,1094,1114,1134,1154,1174,1194,1214,1234,1254,1274,1294,1314,1334,1354,1374,1394,1414,1434,1454,1474,1494,1515,1534,1554,1574,1594,1614,1634,1654,1674,1694,1714,1734,1754,1774,1794,1814,1834,1854,1874,1895,1914,1934,1954,1974],"xSR":622,"ySR":384.15000000000003,"xT1":353.2,"yT1":0,"xT2":890.8,"yT2":0,"toosoon":0,"cond_shown":"Incongruent","ratio_trial":100,"L_num":9,"L_den":18,"R_num":6,"R_den":10,"correct_side":2,"subjID":"oscarsantiagorozogonzalez","gender":"0","school":"6","age":"12"},{"start_time":1551791042065,"click_time":1551791044230,"finger_time":1551791043669,"fix_duration":1034.0188999876066,"trial":32,"RT":1604,"MT":561,"sideResp":2,"stimulus":[],"xmouse":[666,666,666,666,666,666,666,666,666,666,666,666,666,666,666,666,666,666,666,666,666,666,666,666,666,666,666,666,666,666,666,666,666,666,666,666,666,666,666,666,666,666,666,666,666,666,666,666,666,666,666,666,666,666,666,666,666,666,666,666,666,666,666,666,666,666,666,666,666,666,666,666,666,666,666,666,666,672,686,716,730,740,776,807,811,813,821,825,833,840,847,851,859,867,869,870,870,871,873,874,876,877,880,886,889,889,889,890,892],"ymouse":[463,463,463,463,463,463,463,463,463,463,463,463,463,463,463,463,463,463,463,463,463,463,463,463,463,463,463,463,463,463,463,463,463,463,463,463,463,463,463,463,463,463,463,463,463,463,463,463,463,463,463,463,463,463,463,463,463,463,463,463,463,463,463,463,463,463,463,463,463,463,463,463,463,463,463,463,462,459,441,407,388,363,265,194,182,177,165,163,156,150,140,135,125,117,116,116,116,114,111,111,108,106,102,96,93,93,93,92,91],"timestamp_mouse":[9,32,44,64,84,104,124,144,164,184,204,224,244,264,284,304,324,344,364,384,404,424,444,464,484,504,524,544,564,584,604,624,645,664,684,704,724,744,764,784,804,824,844,864,884,904,924,944,964,984,1005,1024,1044,1064,1084,1104,1124,1144,1164,1184,1204,1224,1244,1264,1284,1304,1324,1344,1364,1384,1404,1424,1444,1464,1484,1504,1524,1544,1564,1584,1604,1624,1644,1665,1685,1704,1724,1744,1764,1785,1804,1824,1844,1864,1884,1904,1924,1945,1964,1984,2004,2025,2044,2065,2084,2104,2124,2144,2165],"xSR":622,"ySR":384.15000000000003,"xT1":353.2,"yT1":0,"xT2":890.8,"yT2":0,"toosoon":0,"cond_shown":"Incongruent","ratio_trial":200,"L_num":7,"L_den":10,"R_num":12,"R_den":24,"correct_side":1,"subjID":"oscarsantiagorozogonzalez","gender":"0","school":"6","age":"12"},{"start_time":1551791047314,"click_time":1551791049909,"finger_time":1551791049349,"fix_duration":364.97466313847696,"trial":33,"RT":2035,"MT":560,"sideResp":2,"stimulus":[],"xmouse":[659,659,659,659,659,659,659,659,659,659,659,659,659,659,659,659,659,659,659,659,659,659,659,659,659,659,659,659,659,659,659,659,659,659,659,659,659,659,659,659,659,659,659,659,659,659,659,659,659,659,659,659,659,659,659,659,659,659,659,659,659,659,659,659,659,659,659,659,659,659,659,659,659,659,659,659,659,659,659,659,659,659,659,659,659,659,659,659,659,659,659,659,659,659,659,659,659,659,665,668,670,685,690,734,779,966,1075,1156,1161,1163,1163,1163,1163,1162,1160,1151,1127,1124,1122,1119,1118,1117,1117,1113,1109,1097,1078,1033,1003,990],"ymouse":[450,450,450,450,450,450,450,450,450,450,450,450,450,450,450,450,450,450,450,450,450,450,450,450,450,450,450,450,450,450,450,450,450,450,450,450,450,450,450,450,450,450,450,450,450,450,450,450,450,450,450,450,450,450,450,450,450,450,450,450,450,450,450,450,450,450,450,450,450,450,450,450,450,450,450,450,450,450,450,450,450,450,450,450,450,450,450,450,450,450,450,450,450,450,450,450,450,450,437,430,420,383,375,339,309,239,197,157,154,154,154,154,154,152,150,143,129,127,126,125,124,124,124,123,122,118,112,86,70,60],"timestamp_mouse":[15,38,55,75,95,115,135,155,175,195,215,235,255,275,295,315,335,355,375,395,415,435,455,475,495,515,535,555,575,595,615,635,655,675,695,715,735,755,775,795,815,835,855,875,895,915,935,955,975,995,1015,1035,1055,1075,1095,1115,1135,1155,1175,1195,1215,1235,1255,1275,1295,1315,1335,1355,1375,1395,1415,1435,1455,1475,1495,1515,1535,1555,1575,1595,1615,1635,1655,1675,1695,1715,1735,1755,1775,1795,1815,1835,1855,1875,1895,1915,1935,1955,1975,1995,2015,2035,2055,2075,2095,2115,2135,2155,2175,2195,2215,2235,2255,2275,2295,2315,2335,2355,2375,2395,2415,2435,2455,2475,2495,2515,2535,2555,2575,2595],"xSR":622,"ySR":384.15000000000003,"xT1":353.2,"yT1":0,"xT2":890.8,"yT2":0,"toosoon":0,"cond_shown":"Congruent","ratio_trial":300,"L_num":9,"L_den":10,"R_num":3,"R_den":5,"correct_side":1,"subjID":"oscarsantiagorozogonzalez","gender":"0","school":"6","age":"12"},{"start_time":1551791051609,"click_time":1551791053909,"finger_time":1551791053329,"fix_duration":618.2551858952824,"trial":34,"RT":1720,"MT":580,"sideResp":1,"stimulus":[],"xmouse":[665,665,665,665,665,665,665,665,665,665,665,665,665,665,665,665,665,665,665,665,665,665,665,665,665,665,665,665,665,665,665,665,665,665,665,665,665,665,665,665,665,665,665,665,665,665,665,665,665,665,665,665,665,665,665,665,665,665,665,665,665,665,665,665,665,665,665,665,665,665,665,665,665,665,665,665,665,665,665,665,665,665,665,665,661,656,639,622,597,560,554,535,528,514,512,502,489,484,481,479,477,473,470,465,463,460,456,451,450,447,445,444,442,441,439,438],"ymouse":[422,422,422,422,422,422,422,422,422,422,422,422,422,422,422,422,422,422,422,422,422,422,422,422,422,422,422,422,422,422,422,422,422,422,422,422,422,422,422,422,422,422,422,422,422,422,422,422,422,422,422,422,422,422,422,422,422,422,422,422,422,422,422,422,422,422,422,422,422,422,422,422,422,422,422,422,422,422,422,422,422,422,422,422,418,408,380,362,345,321,314,296,288,272,269,253,230,224,221,216,209,202,196,185,179,171,155,141,135,125,114,107,105,103,101,99],"timestamp_mouse":[5,23,40,60,80,100,120,140,160,180,200,220,240,260,280,300,320,340,360,380,400,420,440,460,480,500,520,540,560,580,600,620,640,660,680,700,720,741,760,780,800,820,840,860,880,900,920,940,960,980,1000,1020,1040,1060,1080,1100,1120,1140,1160,1180,1200,1220,1240,1260,1280,1300,1320,1340,1360,1380,1400,1420,1440,1460,1480,1500,1520,1540,1560,1580,1600,1620,1640,1660,1680,1700,1720,1740,1760,1780,1800,1820,1840,1860,1880,1900,1920,1940,1960,1980,2001,2020,2040,2060,2080,2100,2120,2140,2160,2180,2200,2220,2240,2260,2280,2300],"xSR":622,"ySR":384.15000000000003,"xT1":353.2,"yT1":0,"xT2":890.8,"yT2":0,"toosoon":0,"cond_shown":"Congruent","ratio_trial":300,"L_num":11,"L_den":22,"R_num":2,"R_den":10,"correct_side":1,"subjID":"oscarsantiagorozogonzalez","gender":"0","school":"6","age":"12"},{"start_time":1551791056916,"click_time":1551791058389,"finger_time":1551791058069,"fix_duration":665.8202210959442,"trial":35,"RT":1153,"MT":320,"sideResp":1,"stimulus":[],"xmouse":[683,683,681,681,681,681,681,681,681,681,681,681,681,681,681,681,681,681,681,681,681,681,681,681,681,681,681,681,681,681,681,681,681,681,681,681,681,681,681,681,681,681,681,681,681,681,681,681,681,681,681,681,681,681,671,652,622,619,619,619,619,619,619,619,619,619,619,618,618,618,577,506,468,434],"ymouse":[417,417,418,418,418,418,418,418,418,418,418,418,418,418,418,418,418,418,418,418,418,418,418,418,418,418,418,418,418,418,418,418,418,418,418,418,418,418,418,418,418,418,418,418,418,418,418,418,418,418,418,418,418,418,416,415,410,409,409,409,409,409,409,409,409,409,409,401,393,362,239,116,63,13],"timestamp_mouse":[24,33,53,73,93,113,133,153,173,193,213,233,253,273,293,313,333,353,373,393,413,433,453,473,493,513,533,553,573,593,613,633,653,673,693,713,733,753,773,793,813,833,853,873,893,913,933,953,973,993,1013,1033,1053,1073,1093,1113,1133,1153,1173,1193,1213,1233,1253,1273,1293,1313,1333,1353,1373,1394,1413,1433,1453,1473],"xSR":622,"ySR":384.15000000000003,"xT1":353.2,"yT1":0,"xT2":890.8,"yT2":0,"toosoon":0,"cond_shown":"Incongruent","ratio_trial":300,"L_num":3,"L_den":6,"R_num":4,"R_den":20,"correct_side":1,"subjID":"oscarsantiagorozogonzalez","gender":"0","school":"6","age":"12"},{"start_time":1551791063208,"click_time":1551791065333,"finger_time":1551791064993,"fix_duration":1294.6393796716875,"trial":36,"RT":1785,"MT":340,"sideResp":2,"stimulus":[],"xmouse":[694,693,692,691,691,690,689,688,688,687,687,687,687,687,687,687,687,687,687,687,687,687,687,687,687,687,687,687,687,687,687,687,687,687,687,687,687,687,687,687,687,687,687,687,687,687,687,687,687,687,687,687,687,687,687,687,687,687,687,687,687,687,687,687,687,687,687,687,687,687,687,687,687,687,687,687,687,687,687,687,687,687,687,687,687,687,687,687,687,691,697,716,766,873,900,929,938,945,945,946,946,946,946,946,946,946,946],"ymouse":[460,460,460,460,459,458,456,455,453,452,452,452,452,452,452,452,452,452,452,452,452,452,452,452,452,452,452,452,452,452,452,452,452,452,452,452,452,452,452,452,452,452,452,452,452,452,452,452,452,452,452,452,452,452,452,452,452,452,452,452,452,452,452,452,452,452,452,452,452,452,452,452,452,452,452,452,452,452,452,452,452,452,452,452,452,452,452,452,448,380,360,336,304,206,179,152,145,129,125,117,115,110,107,107,106,103,99],"timestamp_mouse":[9,36,45,65,85,105,125,145,165,185,205,225,245,265,285,305,325,345,365,385,405,425,445,465,485,505,525,545,565,585,605,625,645,665,685,705,725,745,765,785,805,825,845,865,885,905,925,945,965,985,1005,1025,1045,1065,1085,1105,1125,1145,1165,1185,1205,1225,1245,1265,1285,1305,1325,1345,1365,1385,1405,1425,1445,1465,1485,1505,1525,1545,1565,1585,1605,1625,1645,1665,1685,1705,1725,1745,1765,1785,1805,1825,1845,1865,1885,1905,1925,1946,1964,1985,2005,2025,2045,2065,2085,2104,2125],"xSR":622,"ySR":384.15000000000003,"xT1":353.2,"yT1":0,"xT2":890.8,"yT2":0,"toosoon":0,"cond_shown":"Congruent","ratio_trial":200,"L_num":3,"L_den":10,"R_num":7,"R_den":14,"correct_side":2,"subjID":"oscarsantiagorozogonzalez","gender":"0","school":"6","age":"12"},{"start_time":1551791066546,"click_time":1551791073132,"finger_time":1551791068152,"fix_duration":431.1611791007013,"trial":37,"RT":1606,"MT":4980,"sideResp":2,"stimulus":[],"xmouse":[642,642,642,642,642,642,642,642,642,642,642,642,642,642,642,642,642,642,642,642,642,642,642,642,642,642,642,642,642,642,642,642,642,642,642,642,642,642,642,642,642,642,642,642,642,642,642,642,642,642,642,642,642,642,643,643,643,643,643,643,643,643,643,643,643,643,643,643,643,643,643,643,643,643,643,643,643,643,643,646,662,677,728,752,793,798,803,807,824,844,854,855,861,862,879,880,884,886,891,891,892,892,893,894,895,895,897,898,898,899,899,899,899,899,899,899,899,899,899,899,899,899,899,899,899,899,899,899,899,899,899,899,899,899,899,899,899,899,899,899,899,899,899,899,899,899,899,899,899,899,899,899,899,899,899,899,899,899,899,899,899,899,899,899,899,899,899,899,899,899,899,899,899,899,899,899,899,899,899,899,899,899,899,899,899,899,899,899,899,899,899,899,899,899,899,899,899,893,891,891,891,889,888,887,887,887,887,886,886,886,885,882,882,882,882,882,882,882,882,882,882,882,882,882,883,884,884,884,884,884,884,884,884,884,884,884,884,884,884,884,884,884,884,884,884,884,884,884,884,884,884,884,884,884,884,884,884,884,884,884,884,884,884,884,884,884,884,884,884,884,886,886,886,886,887,887,887,887,887,887,887,887,887,887,887,887,887,887,887,887,887,889,890,890,890,890,890,890,890,890,890,890,890,890,890,890,890,890,890,890,890,890,890,890,890,890,890,890,890,890,890,890,890,890,890,890,890,890,890,892],"ymouse":[444,444,444,444,444,444,444,444,444,444,444,444,444,444,444,444,444,444,444,444,444,444,444,444,444,444,444,444,444,444,444,444,444,444,444,444,444,444,444,444,444,444,444,444,444,444,444,444,444,444,444,444,444,444,444,444,444,444,444,444,444,444,444,444,444,444,444,444,444,444,444,444,444,444,445,445,446,446,446,442,382,343,282,258,201,194,188,182,164,148,140,139,135,133,123,122,120,120,117,117,116,115,114,114,113,112,111,110,109,109,108,108,108,108,108,108,108,108,108,108,108,108,108,108,108,108,108,108,108,108,108,108,108,108,108,108,108,108,108,108,108,108,108,108,108,108,108,108,108,108,108,108,108,108,108,108,108,108,108,108,108,108,108,108,108,108,108,108,108,108,108,108,108,108,108,108,108,108,108,108,108,108,108,108,108,108,108,108,108,108,108,108,107,107,107,107,107,105,104,104,104,104,104,103,103,103,103,103,103,103,103,103,103,103,103,103,103,103,103,103,103,103,102,100,98,97,97,97,97,97,97,97,97,97,97,97,96,96,96,96,96,96,96,96,96,96,96,96,96,96,96,96,96,96,96,96,96,96,96,96,96,96,96,96,96,96,96,96,96,96,95,95,95,95,95,95,95,95,95,95,95,95,95,95,95,95,95,95,95,95,95,94,94,94,94,94,94,94,94,94,94,94,94,94,94,94,94,94,94,94,94,94,94,94,94,94,94,94,94,94,94,94,94,94,94,94,94,94,94,93],"timestamp_mouse":[6,27,47,67,87,107,127,147,167,187,207,227,247,267,287,307,327,347,367,387,407,427,447,467,487,507,527,547,567,587,607,627,647,667,687,707,727,747,767,787,807,827,847,867,887,907,927,947,967,987,1007,1026,1047,1066,1086,1106,1126,1146,1167,1186,1206,1227,1246,1266,1286,1306,1326,1346,1366,1386,1406,1426,1446,1466,1486,1506,1526,1546,1566,1586,1606,1627,1646,1667,1686,1707,1727,1746,1766,1786,1807,1827,1846,1866,1886,1906,1927,1946,1966,1986,2006,2026,2046,2066,2087,2106,2126,2146,2166,2186,2207,2226,2246,2266,2286,2306,2326,2346,2366,2386,2406,2426,2446,2466,2486,2506,2526,2546,2566,2586,2606,2626,2646,2666,2686,2706,2726,2746,2766,2786,2807,2827,2846,2866,2886,2906,2927,2946,2966,2986,3006,3027,3046,3066,3086,3106,3126,3146,3166,3186,3206,3226,3246,3266,3286,3306,3326,3346,3366,3386,3406,3426,3446,3466,3486,3506,3526,3546,3566,3586,3606,3626,3646,3666,3686,3706,3726,3746,3766,3786,3806,3826,3846,3866,3886,3906,3926,3946,3966,3986,4006,4026,4046,4066,4086,4106,4126,4146,4166,4186,4206,4226,4246,4266,4286,4306,4326,4346,4366,4386,4406,4426,4446,4466,4486,4506,4526,4546,4566,4586,4606,4626,4646,4666,4686,4706,4726,4746,4766,4786,4806,4826,4846,4866,4886,4906,4926,4946,4966,4986,5006,5026,5046,5066,5086,5106,5126,5146,5166,5186,5206,5226,5246,5266,5286,5306,5326,5346,5366,5386,5406,5426,5446,5466,5486,5506,5526,5546,5566,5586,5606,5626,5646,5666,5686,5706,5726,5746,5766,5786,5806,5826,5846,5866,5886,5906,5926,5946,5966,5986,6006,6026,6046,6066,6086,6106,6126,6146,6166,6186,6206,6226,6246,6266,6288,6307,6326,6346,6366,6386,6406,6426,6446,6466,6486,6506,6526,6546,6566,6586],"xSR":622,"ySR":384.15000000000003,"xT1":353.2,"yT1":0,"xT2":890.8,"yT2":0,"toosoon":0,"cond_shown":"Congruent","ratio_trial":200,"L_num":3,"L_den":10,"R_num":7,"R_den":14,"correct_side":2,"subjID":"oscarsantiagorozogonzalez","gender":"0","school":"6","age":"12"},{"start_time":1551791075334,"click_time":1551791077132,"finger_time":1551791076952,"fix_duration":900.4688948270084,"trial":38,"RT":1618,"MT":180,"sideResp":2,"stimulus":[],"xmouse":[682,682,682,682,682,682,682,682,682,682,682,682,682,682,682,682,682,682,683,683,683,683,683,683,683,683,683,683,683,683,683,683,683,683,683,683,683,683,683,684,684,684,684,684,684,684,684,684,684,684,684,684,684,684,684,684,684,684,684,684,684,684,685,685,685,685,686,686,686,686,686,686,686,686,686,686,686,686,686,701,722,781,812,856,865,870,874,880,889,892],"ymouse":[422,422,422,422,422,422,422,422,422,422,422,422,422,422,422,422,422,421,421,421,421,421,421,421,421,421,421,421,421,421,421,421,421,421,421,421,421,422,422,422,422,422,422,422,422,422,422,422,422,422,422,422,422,422,422,422,422,422,422,422,422,422,422,422,422,422,423,423,423,423,423,423,423,423,423,423,423,423,423,393,355,276,241,163,143,130,123,111,94,90],"timestamp_mouse":[18,38,58,78,98,118,138,158,178,198,218,238,258,278,298,318,338,358,378,398,418,438,458,478,498,518,538,558,578,598,618,638,658,678,698,718,738,758,778,798,818,838,858,878,898,918,938,958,978,998,1018,1038,1058,1078,1098,1118,1138,1158,1178,1198,1218,1238,1258,1278,1298,1318,1338,1358,1378,1398,1418,1438,1458,1478,1498,1518,1538,1558,1578,1598,1618,1638,1658,1678,1698,1718,1738,1758,1778,1798],"xSR":622,"ySR":384.15000000000003,"xT1":353.2,"yT1":0,"xT2":890.8,"yT2":0,"toosoon":0,"cond_shown":"Incongruent","ratio_trial":200,"L_num":4,"L_den":5,"R_num":6,"R_den":10,"correct_side":1,"subjID":"oscarsantiagorozogonzalez","gender":"0","school":"6","age":"12"},{"start_time":1551791079168,"click_time":1551791081412,"finger_time":1551791081152,"fix_duration":1054.0002089826296,"trial":39,"RT":1984,"MT":260,"sideResp":2,"stimulus":[],"xmouse":[694,694,696,696,696,696,696,696,696,696,696,696,696,696,696,696,696,696,696,696,696,696,696,696,696,696,696,696,696,696,696,696,696,696,696,696,696,696,696,696,696,696,696,696,696,696,696,696,696,696,696,696,696,696,696,696,696,696,696,696,696,696,696,696,696,696,696,696,696,696,696,696,696,696,696,696,696,696,696,696,696,696,696,696,696,696,696,696,696,696,694,694,692,692,692,692,692,694,697,713,726,752,777,783,791,801,807,822,833,839,845,863,894],"ymouse":[41