[{"start_time":1551791536576,"click_time":1551791538334,"finger_time":1551791537974,"fix_duration":1378.0089442148892,"trial":0,"RT":1398,"MT":360,"sideResp":1,"stimulus":"img/750/equaldotsize/L/9_Ratio_750_L_4_R_3.png","xmouse":[650,650,650,650,650,650,650,650,650,650,650,650,650,650,650,650,650,650,650,650,650,650,650,650,650,650,650,650,650,650,650,650,650,650,650,650,650,650,650,650,650,650,650,650,650,650,650,650,650,650,650,650,650,650,650,650,650,650,650,650,650,650,650,650,650,650,650,650,649,644,643,643,637,634,587,571,547,543,534,527,523,520,511,509,492,485,469,460,434],"ymouse":[392,392,392,392,392,392,392,392,392,392,392,392,392,392,392,392,392,392,392,392,392,392,392,392,392,392,392,392,392,392,392,392,392,392,392,392,392,392,392,392,392,392,392,392,392,392,392,392,392,392,392,392,392,392,392,392,392,392,392,392,392,392,392,392,392,392,392,392,392,386,349,318,280,274,206,183,145,135,111,88,81,76,71,71,71,71,69,68,63],"timestamp_mouse":[6,18,44,58,78,98,118,138,158,178,198,218,238,258,278,297,318,338,358,378,398,418,438,458,478,498,518,538,558,578,598,618,638,658,678,698,718,738,758,778,798,818,838,858,878,898,918,938,958,978,998,1018,1038,1058,1078,1098,1118,1138,1158,1178,1198,1218,1238,1258,1278,1298,1318,1338,1358,1378,1398,1418,1438,1458,1478,1498,1517,1538,1558,1578,1598,1618,1638,1658,1678,1698,1718,1738,1758],"xSR":622,"ySR":352.3,"xT1":353.2,"yT1":0,"xT2":890.8,"yT2":0,"toosoon":0,"cond_shown":"equaldotsize","ratio_trial":750,"smaller_num":"3","larger_num":"4","correct_side":1,"subjID":"oscarsantiagorozogonzalez","gender":"0","age":"12","school":"6","test":{"fix_dur":[250,1500],"timestim":300,"targets_dim":[100,100],"targets_relative_coord":[0.3,0.7],"size_stim":[880,420],"start_dim":[100,100],"size_start":[300,300],"size_fix":60,"samplingrate":20,"img_types":["equaldotsize","equaldotanddens","randomdotsizeEA"],"ratios":[250,500,750,900],"rep_conds":9,"nTrials":120,"trials_to_rest":500,"Trials_order":[54,73,1,13,14,28,59,62,17,115,20,108,32,9,10,94,86,15,91,97,63,64,30,44,50,8,56,67,92,55,80,11,38,106,96,88,70,77,66,45,87,114,3,18,39,40,42,65,85,104,105,84,116,112,29,16,58,41,26,22,37,48,79,93,31,81,100,117,25,27,60,78,7,68,33,52,89,102,75,19,69,95,72,98,6,35,103,23,53,109,82,12,24,119,49,61,118,5,99,74,43,71,110,83,2,113,36,34,90,101,0,111,107,46,4,47,57,21,76,51],"cond_shown":["equaldotsize","equaldotanddens","equaldotanddens","equaldotanddens","randomdotsizeEA","equaldotanddens","randomdotsizeEA","randomdotsizeEA","randomdotsizeEA","equaldotanddens","randomdotsizeEA","equaldotsize","randomdotsizeEA","equaldotsize","equaldotanddens","equaldotanddens","randomdotsizeEA","equaldotsize","equaldotanddens","equaldotanddens","equaldotsize","equaldotanddens","equaldotsize","randomdotsizeEA","randomdotsizeEA","randomdotsizeEA","randomdotsizeEA","equaldotanddens","randomdotsizeEA","equaldotanddens","randomdotsizeEA","randomdotsizeEA","randomdotsizeEA","equaldotanddens","equaldotsize","equaldotanddens","equaldotanddens","randomdotsizeEA","equaldotsize","equaldotsize","equaldotsize","equaldotsize","equaldotsize","equaldotsize","equaldotsize","equaldotanddens","equaldotsize","randomdotsizeEA","equaldotanddens","randomdotsizeEA","equaldotsize","equaldotsize","randomdotsizeEA","equaldotanddens","randomdotsizeEA","equaldotanddens","equaldotanddens","randomdotsizeEA","randomdotsizeEA","equaldotanddens","equaldotanddens","equaldotsize","equaldotanddens","equaldotsize","equaldotanddens","equaldotsize","equaldotanddens","equaldotsize","equaldotanddens","equaldotsize","equaldotsize","equaldotsize","equaldotanddens","randomdotsizeEA","equaldotsize","equaldotanddens","randomdotsizeEA","equaldotsize","equaldotsize","equaldotanddens","equaldotsize","randomdotsizeEA","equaldotsize","randomdotsizeEA","equaldotsize","randomdotsizeEA","equaldotanddens","randomdotsizeEA","randomdotsizeEA","equaldotanddens","equaldotanddens","equaldotsize","equaldotsize","randomdotsizeEA","equaldotanddens","equaldotanddens","equaldotanddens","randomdotsizeEA","equaldotsize","randomdotsizeEA","equaldotanddens","randomdotsizeEA","randomdotsizeEA","randomdotsizeEA","randomdotsizeEA","randomdotsizeEA","equaldotsize","equaldotanddens","equaldotsize","randomdotsizeEA","equaldotsize","equaldotsize","randomdotsizeEA","equaldotanddens","equaldotanddens","randomdotsizeEA","equaldotsize","equaldotsize","equaldotanddens","equaldotsize"],"ratio_trial":[750,250,250,250,250,500,900,250,500,750,750,250,750,900,900,900,250,500,750,250,500,500,750,750,250,750,750,750,750,750,750,900,250,900,250,500,900,500,750,900,500,750,500,750,500,500,750,500,250,750,900,250,750,500,500,500,900,500,250,900,250,250,750,900,750,900,500,900,250,500,250,750,750,750,900,500,500,750,500,750,900,900,250,250,750,900,750,900,500,250,900,250,250,900,250,250,900,500,500,250,750,900,250,900,250,500,250,900,750,500,250,500,900,900,500,900,900,900,500,500],"smaller_num":["3","4","5","1","2","4","9","3","5","18","12","2","6","18","18","18","2","6","3","2","9","6","18","3","2","3","3","12","15","15","6","18","3","18","2","5","9","5","6","18","6","15","1","6","2","2","18","2","3","15","18","4","15","6","6","5","18","5","3","18","2","6","3","9","15","18","1","18","3","2","3","3","6","9","18","3","2","15","9","15","9","18","3","3","15","9","3","18","5","6","18","1","3","18","3","6","18","1","4","3","3","18","6","18","4","4","1","18","18","9","2","5","18","18","5","9","9","18","6","6"],"larger_num":["4","16","20","4","8","8","10","12","10","24","16","8","8","20","20","20","8","12","4","8","18","12","24","4","8","4","4","16","20","20","8","20","12","20","8","10","10","10","8","20","12","20","2","8","4","4","24","4","12","20","20","16","20","12","12","10","20","10","12","20","8","24","4","10","20","20","2","20","12","4","12","4","8","12","20","6","4","20","18","20","10","20","12","12","20","10","4","20","10","24","20","4","12","20","12","24","20","2","8","12","4","20","24","20","16","8","4","20","24","18","8","10","20","20","10","10","10","20","12","12"],"correct_side":[1,1,2,2,1,1,2,1,1,1,2,2,2,2,2,1,1,1,2,1,1,1,1,1,1,1,2,2,2,1,1,1,2,1,1,1,2,1,1,1,1,1,2,1,1,1,1,2,1,1,1,2,2,1,1,2,2,1,2,1,1,2,1,1,2,2,2,1,1,1,2,2,2,2,1,2,1,1,1,2,2,1,2,1,2,1,2,2,1,1,1,2,2,2,1,2,1,2,1,2,2,1,2,2,1,1,2,2,1,2,1,1,1,2,2,2,2,1,1,1],"img_shown":["img/750/equaldotsize/L/9_Ratio_750_L_4_R_3.png","img/250/equaldotanddens/L/2_Ratio_250_L_16_R_4.png","img/250/equaldotanddens/R/12_Ratio_250_L_5_R_20.png","img/250/equaldotanddens/R/8_Ratio_250_L_1_R_4.png","img/250/randomdotsizeEA/L/7_Ratio_250_L_8_R_2.png","img/500/equaldotanddens/L/8_Ratio_500_L_8_R_4.png","img/900/randomdotsizeEA/R/7_Ratio_900_L_9_R_10.png","img/250/randomdotsizeEA/L/15_Ratio_250_L_12_R_3.png","img/500/randomdotsizeEA/L/7_Ratio_500_L_10_R_5.png","img/750/equaldotanddens/L/6_Ratio_750_L_24_R_18.png","img/750/randomdotsizeEA/R/11_Ratio_750_L_12_R_16.png","img/250/equaldotsize/R/13_Ratio_250_L_2_R_8.png","img/750/randomdotsizeEA/R/2_Ratio_750_L_6_R_8.png","img/900/equaldotsize/R/11_Ratio_900_L_18_R_20.png","img/900/equaldotanddens/R/12_Ratio_900_L_18_R_20.png","img/900/equaldotanddens/L/2_Ratio_900_L_20_R_18.png","img/250/randomdotsizeEA/L/3_Ratio_250_L_8_R_2.png","img/500/equaldotsize/L/11_Ratio_500_L_12_R_6.png","img/750/equaldotanddens/R/12_Ratio_750_L_3_R_4.png","img/250/equaldotanddens/L/1_Ratio_250_L_8_R_2.png","img/500/equaldotsize/L/4_Ratio_500_L_18_R_9.png","img/500/equaldotanddens/L/11_Ratio_500_L_12_R_6.png","img/750/equaldotsize/L/6_Ratio_750_L_24_R_18.png","img/750/randomdotsizeEA/L/10_Ratio_750_L_4_R_3.png","img/250/randomdotsizeEA/L/1_Ratio_250_L_8_R_2.png","img/750/randomdotsizeEA/L/10_Ratio_750_L_4_R_3.png","img/750/randomdotsizeEA/R/7_Ratio_750_L_3_R_4.png","img/750/equaldotanddens/R/11_Ratio_750_L_12_R_16.png","img/750/randomdotsizeEA/R/4_Ratio_750_L_15_R_20.png","img/750/equaldotanddens/L/1_Ratio_750_L_20_R_15.png","img/750/randomdotsizeEA/L/13_Ratio_750_L_8_R_6.png","img/900/randomdotsizeEA/L/4_Ratio_900_L_20_R_18.png","img/250/randomdotsizeEA/R/9_Ratio_250_L_3_R_12.png","img/900/equaldotanddens/L/4_Ratio_900_L_20_R_18.png","img/250/equaldotsize/L/7_Ratio_250_L_8_R_2.png","img/500/equaldotanddens/L/7_Ratio_500_L_10_R_5.png","img/900/equaldotanddens/R/5_Ratio_900_L_9_R_10.png","img/500/randomdotsizeEA/L/7_Ratio_500_L_10_R_5.png","img/750/equaldotsize/L/14_Ratio_750_L_8_R_6.png","img/900/equaldotsize/L/10_Ratio_900_L_20_R_18.png","img/500/equaldotsize/L/13_Ratio_500_L_12_R_6.png","img/750/equaldotsize/L/1_Ratio_750_L_20_R_15.png","img/500/equaldotsize/R/12_Ratio_500_L_1_R_2.png","img/750/equaldotsize/L/13_Ratio_750_L_8_R_6.png","img/500/equaldotsize/L/5_Ratio_500_L_4_R_2.png","img/500/equaldotanddens/L/5_Ratio_500_L_4_R_2.png","img/750/equaldotsize/L/6_Ratio_750_L_24_R_18.png","img/500/randomdotsizeEA/R/9_Ratio_500_L_2_R_4.png","img/250/equaldotanddens/L/15_Ratio_250_L_12_R_3.png","img/750/randomdotsizeEA/L/1_Ratio_750_L_20_R_15.png","img/900/equaldotsize/L/2_Ratio_900_L_20_R_18.png","img/250/equaldotsize/R/10_Ratio_250_L_4_R_16.png","img/750/randomdotsizeEA/R/4_Ratio_750_L_15_R_20.png","img/500/equaldotanddens/L/13_Ratio_500_L_12_R_6.png","img/500/randomdotsizeEA/L/13_Ratio_500_L_12_R_6.png","img/500/equaldotanddens/R/14_Ratio_500_L_5_R_10.png","img/900/equaldotanddens/R/11_Ratio_900_L_18_R_20.png","img/500/randomdotsizeEA/L/7_Ratio_500_L_10_R_5.png","img/250/randomdotsizeEA/R/4_Ratio_250_L_3_R_12.png","img/900/equaldotanddens/L/2_Ratio_900_L_20_R_18.png","img/250/equaldotanddens/L/3_Ratio_250_L_8_R_2.png","img/250/equaldotsize/R/6_Ratio_250_L_6_R_24.png","img/750/equaldotanddens/L/10_Ratio_750_L_4_R_3.png","img/900/equaldotsize/L/1_Ratio_900_L_10_R_9.png","img/750/equaldotanddens/R/3_Ratio_750_L_15_R_20.png","img/900/equaldotsize/R/9_Ratio_900_L_18_R_20.png","img/500/equaldotanddens/R/15_Ratio_500_L_1_R_2.png","img/900/equaldotsize/L/10_Ratio_900_L_20_R_18.png","img/250/equaldotanddens/L/15_Ratio_250_L_12_R_3.png","img/500/equaldotsize/L/5_Ratio_500_L_4_R_2.png","img/250/equaldotsize/R/11_Ratio_250_L_3_R_12.png","img/750/equaldotsize/R/12_Ratio_750_L_3_R_4.png","img/750/equaldotanddens/R/2_Ratio_750_L_6_R_8.png","img/750/randomdotsizeEA/R/15_Ratio_750_L_9_R_12.png","img/900/equaldotsize/L/10_Ratio_900_L_20_R_18.png","img/500/equaldotanddens/R/2_Ratio_500_L_3_R_6.png","img/500/randomdotsizeEA/L/5_Ratio_500_L_4_R_2.png","img/750/equaldotsize/L/1_Ratio_750_L_20_R_15.png","img/500/equaldotsize/L/4_Ratio_500_L_18_R_9.png","img/750/equaldotanddens/R/5_Ratio_750_L_15_R_20.png","img/900/equaldotsize/R/6_Ratio_900_L_9_R_10.png","img/900/randomdotsizeEA/L/2_Ratio_900_L_20_R_18.png","img/250/equaldotsize/R/11_Ratio_250_L_3_R_12.png","img/250/randomdotsizeEA/L/15_Ratio_250_L_12_R_3.png","img/750/equaldotsize/R/5_Ratio_750_L_15_R_20.png","img/900/randomdotsizeEA/L/1_Ratio_900_L_10_R_9.png","img/750/equaldotanddens/R/7_Ratio_750_L_3_R_4.png","img/900/randomdotsizeEA/R/13_Ratio_900_L_18_R_20.png","img/500/randomdotsizeEA/L/7_Ratio_500_L_10_R_5.png","img/250/equaldotanddens/L/5_Ratio_250_L_24_R_6.png","img/900/equaldotanddens/L/4_Ratio_900_L_20_R_18.png","img/250/equaldotsize/R/8_Ratio_250_L_1_R_4.png","img/250/equaldotsize/R/9_Ratio_250_L_3_R_12.png","img/900/randomdotsizeEA/R/11_Ratio_900_L_18_R_20.png","img/250/equaldotanddens/L/14_Ratio_250_L_12_R_3.png","img/250/equaldotanddens/R/6_Ratio_250_L_6_R_24.png","img/900/equaldotanddens/L/8_Ratio_900_L_20_R_18.png","img/500/randomdotsizeEA/R/15_Ratio_500_L_1_R_2.png","img/500/equaldotsize/L/8_Ratio_500_L_8_R_4.png","img/250/randomdotsizeEA/R/4_Ratio_250_L_3_R_12.png","img/750/equaldotanddens/R/12_Ratio_750_L_3_R_4.png","img/900/randomdotsizeEA/L/2_Ratio_900_L_20_R_18.png","img/250/randomdotsizeEA/R/6_Ratio_250_L_6_R_24.png","img/900/randomdotsizeEA/R/9_Ratio_900_L_18_R_20.png","img/250/randomdotsizeEA/L/2_Ratio_250_L_16_R_4.png","img/500/randomdotsizeEA/L/8_Ratio_500_L_8_R_4.png","img/250/equaldotsize/R/8_Ratio_250_L_1_R_4.png","img/900/equaldotanddens/R/14_Ratio_900_L_18_R_20.png","img/750/equaldotsize/L/6_Ratio_750_L_24_R_18.png","img/500/randomdotsizeEA/R/1_Ratio_500_L_9_R_18.png","img/250/equaldotsize/L/3_Ratio_250_L_8_R_2.png","img/500/equaldotsize/L/7_Ratio_500_L_10_R_5.png","img/900/randomdotsizeEA/L/8_Ratio_900_L_20_R_18.png","img/900/equaldotanddens/R/12_Ratio_900_L_18_R_20.png","img/500/equaldotanddens/R/14_Ratio_500_L_5_R_10.png","img/900/randomdotsizeEA/R/6_Ratio_900_L_9_R_10.png","img/900/equaldotsize/R/15_Ratio_900_L_9_R_10.png","img/900/equaldotsize/L/10_Ratio_900_L_20_R_18.png","img/500/equaldotanddens/L/11_Ratio_500_L_12_R_6.png","img/500/equaldotsize/L/11_Ratio_500_L_12_R_6.png"],"Rat0":[["12_Ratio_0_L_9_R_0.png","13_Ratio_0_L_6_R_0.png","5_Ratio_0_L_2_R_0.png","6_Ratio_0_L_4_R_0.png","8_Ratio_0_L_6_R_0.png"],["1_Ratio_0_L_0_R_17.png","10_Ratio_0_L_0_R_22.png","11_Ratio_0_L_0_R_1.png","14_Ratio_0_L_0_R_24.png","15_Ratio_0_L_0_R_4.png","2_Ratio_0_L_0_R_5.png","3_Ratio_0_L_0_R_17.png","4_Ratio_0_L_0_R_7.png","7_Ratio_0_L_0_R_19.png","9_Ratio_0_L_0_R_15.png"]],"Rat250":[["1_Ratio_250_L_8_R_2.png","14_Ratio_250_L_12_R_3.png","15_Ratio_250_L_12_R_3.png","2_Ratio_250_L_16_R_4.png","3_Ratio_250_L_8_R_2.png","5_Ratio_250_L_24_R_6.png","7_Ratio_250_L_8_R_2.png"],["10_Ratio_250_L_4_R_16.png","11_Ratio_250_L_3_R_12.png","12_Ratio_250_L_5_R_20.png","13_Ratio_250_L_2_R_8.png","4_Ratio_250_L_3_R_12.png","6_Ratio_250_L_6_R_24.png","8_Ratio_250_L_1_R_4.png","9_Ratio_250_L_3_R_12.png"]],"Rat500":[["10_Ratio_500_L_4_R_2.png","11_Ratio_500_L_12_R_6.png","13_Ratio_500_L_12_R_6.png","4_Ratio_500_L_18_R_9.png","5_Ratio_500_L_4_R_2.png","7_Ratio_500_L_10_R_5.png","8_Ratio_500_L_8_R_4.png"],["1_Ratio_500_L_9_R_18.png","12_Ratio_500_L_1_R_2.png","14_Ratio_500_L_5_R_10.png","15_Ratio_500_L_1_R_2.png","2_Ratio_500_L_3_R_6.png","3_Ratio_500_L_10_R_20.png","6_Ratio_500_L_9_R_18.png","9_Ratio_500_L_2_R_4.png"]],"Rat750":[["1_Ratio_750_L_20_R_15.png","10_Ratio_750_L_4_R_3.png","13_Ratio_750_L_8_R_6.png","14_Ratio_750_L_8_R_6.png","6_Ratio_750_L_24_R_18.png","8_Ratio_750_L_4_R_3.png","9_Ratio_750_L_4_R_3.png"],["11_Ratio_750_L_12_R_16.png","12_Ratio_750_L_3_R_4.png","15_Ratio_750_L_9_R_12.png","2_Ratio_750_L_6_R_8.png","3_Ratio_750_L_15_R_20.png","4_Ratio_750_L_15_R_20.png","5_Ratio_750_L_15_R_20.png","7_Ratio_750_L_3_R_4.png"]],"Rat900":[["1_Ratio_900_L_10_R_9.png","10_Ratio_900_L_20_R_18.png","2_Ratio_900_L_20_R_18.png","4_Ratio_900_L_20_R_18.png","8_Ratio_900_L_20_R_18.png"],["11_Ratio_900_L_18_R_20.png","12_Ratio_900_L_18_R_20.png","13_Ratio_900_L_18_R_20.png","14_Ratio_900_L_18_R_20.png","15_Ratio_900_L_9_R_10.png","3_Ratio_900_L_9_R_10.png","5_Ratio_900_L_9_R_10.png","6_Ratio_900_L_9_R_10.png","7_Ratio_900_L_9_R_10.png","9_Ratio_900_L_18_R_20.png"]],"Rat1000":[["10_Ratio_1000_L_16_R_16.png","11_Ratio_1000_L_6_R_6.png","12_Ratio_1000_L_14_R_14.png","13_Ratio_1000_L_20_R_20.png","15_Ratio_1000_L_15_R_15.png","2_Ratio_1000_L_17_R_17.png","4_Ratio_1000_L_9_R_9.png","5_Ratio_1000_L_6_R_6.png","6_Ratio_1000_L_19_R_19.png","8_Ratio_1000_L_14_R_14.png","9_Ratio_1000_L_25_R_25.png"],["1_Ratio_1000_L_1_R_1.png","14_Ratio_1000_L_17_R_17.png","3_Ratio_1000_L_17_R_17.png","7_Ratio_1000_L_6_R_6.png"]]}},{"start_time":1551791540313,"click_time":1551791541610,"finger_time":1551791541070,"fix_duration":721.0902258499432,"trial":1,"RT":757,"MT":540,"sideResp":1,"stimulus":"img/250/equaldotanddens/L/2_Ratio_250_L_16_R_4.png","xmouse":[682,682,682,682,682,682,682,682,682,682,682,682,682,682,682,682,682,682,682,682,682,682,682,682,682,682,682,682,682,681,680,679,669,644,641,638,632,622,614,613,612,612,612,606,598,589,581,568,546,540,532,526,525,515,508,497,492,481,477,463,461,459,459,459,438],"ymouse":[438,438,438,438,438,438,438,438,438,438,438,438,438,438,438,438,438,438,438,438,438,438,438,438,438,438,438,438,438,437,437,437,434,421,416,407,359,297,267,265,265,265,264,256,246,235,227,217,203,199,194,192,191,180,168,150,143,132,128,119,119,119,119,118,97],"timestamp_mouse":[17,37,57,77,97,117,137,157,177,197,217,237,257,277,297,317,337,357,377,397,417,437,457,477,497,517,537,557,577,597,617,637,657,677,697,717,737,757,777,797,817,837,857,877,897,917,937,957,977,997,1017,1037,1057,1077,1097,1117,1137,1157,1177,1197,1217,1237,1257,1277,1297],"xSR":622,"ySR":352.3,"xT1":353.2,"yT1":0,"xT2":890.8,"yT2":0,"toosoon":0,"cond_shown":"equaldotanddens","ratio_trial":250,"smaller_num":"4","larger_num":"16","correct_side":1,"subjID":"oscarsantiagorozogonzalez","gender":"0","age":"12","school":"6"},{"start_time":1551791543923,"click_time":1551791544891,"finger_time":1551791544590,"fix_duration":1431.7550168329833,"trial":2,"RT":667,"MT":301,"sideResp":2,"stimulus":"img/250/equaldotanddens/R/12_Ratio_250_L_5_R_20.png","xmouse":[651,651,651,651,651,651,651,651,651,651,651,651,651,651,651,651,651,651,651,651,651,651,651,651,651,651,651,651,651,654,659,667,715,729,784,847,876,924,930,931,933,938,944,944,944,943,942,936,939],"ymouse":[405,405,405,405,405,405,405,405,405,405,405,405,405,405,405,405,405,405,405,405,405,405,405,405,405,405,405,405,405,405,402,400,384,379,358,331,319,294,289,285,276,258,218,204,184,167,160,127,99],"timestamp_mouse":[7,27,47,67,87,107,127,147,167,187,207,227,247,267,287,307,327,347,367,387,407,427,447,467,487,507,527,547,567,587,607,627,647,667,687,707,727,747,767,787,807,827,847,867,887,907,927,947,967],"xSR":622,"ySR":352.3,"xT1":353.2,"yT1":0,"xT2":890.8,"yT2":0,"toosoon":0,"cond_shown":"equaldotanddens","ratio_trial":250,"smaller_num":"5","larger_num":"20","correct_side":2,"subjID":"oscarsantiagorozogonzalez","gender":"0","age":"12","school":"6"},{"start_time":1551791545941,"click_time":1551791547130,"finger_time":1551791546750,"fix_duration":250,"trial":3,"RT":809,"MT":380,"sideResp":2,"stimulus":"img/250/equaldotanddens/R/8_Ratio_250_L_1_R_4.png","xmouse":[697,697,697,697,697,697,697,697,697,697,697,697,697,697,697,697,697,697,697,697,697,696,695,695,695,695,695,695,695,695,695,695,695,695,695,695,695,695,695,695,732,763,814,874,900,909,919,926,941,943,944,945,945,945,943,942,940,940,935,932],"ymouse":[376,376,376,376,376,376,376,376,376,376,376,376,376,376,376,376,376,376,376,376,376,376,377,377,377,377,377,377,377,377,377,377,377,377,377,377,377,377,377,377,368,357,331,288,267,258,242,229,196,190,186,184,184,182,174,166,150,141,101,91],"timestamp_mouse":[9,28,48,69,89,109,129,149,169,189,209,229,249,269,289,309,329,349,369,389,409,429,449,469,489,509,529,549,569,589,609,629,649,669,689,709,729,749,769,789,809,829,849,869,889,909,929,949,969,989,1009,1029,1049,1069,1089,1109,1129,1149,1169,1189],"xSR":622,"ySR":352.3,"xT1":353.2,"yT1":0,"xT2":890.8,"yT2":0,"toosoon":0,"cond_shown":"equaldotanddens","ratio_trial":250,"smaller_num":"1","larger_num":"4","correct_side":2,"subjID":"oscarsantiagorozogonzalez","gender":"0","age":"12","school":"6"},{"start_time":1551791548773,"click_time":1551791550670,"finger_time":1551791550250,"fix_duration":781.0850765332918,"trial":4,"RT":1477,"MT":420,"sideResp":1,"stimulus":"img/250/randomdotsizeEA/L/7_Ratio_250_L_8_R_2.png","xmouse":[666,666,666,666,666,666,666,666,666,666,666,666,666,666,666,666,666,666,666,666,666,666,666,666,666,666,666,666,666,666,666,666,666,666,666,666,666,666,666,666,666,666,666,666,666,666,666,666,666,666,666,666,666,666,666,666,666,666,666,666,666,666,666,666,666,666,666,666,666,666,666,662,649,607,586,556,548,538,528,524,506,492,483,460,447,430,424,418,417,417,415,407,398,396,394],"ymouse":[378,378,378,378,378,378,378,378,378,378,378,378,378,378,378,378,378,378,378,378,378,378,378,378,378,378,378,378,378,378,378,378,378,378,378,378,378,378,378,378,378,378,378,378,378,378,378,378,378,378,378,378,378,378,378,378,378,378,378,378,378,378,378,378,378,378,378,378,378,378,379,379,372,342,321,287,278,267,255,252,234,217,210,188,172,151,144,139,138,138,132,119,106,103,96],"timestamp_mouse":[17,39,57,77,97,117,137,157,177,197,217,237,257,277,297,317,337,357,377,397,417,437,457,477,497,517,537,557,577,597,617,637,657,677,697,717,737,757,777,797,817,837,857,877,897,917,937,957,977,997,1017,1037,1057,1077,1097,1117,1137,1157,1177,1197,1217,1237,1257,1277,1297,1317,1337,1357,1377,1397,1417,1437,1457,1477,1497,1517,1537,1557,1577,1598,1617,1637,1657,1677,1697,1717,1737,1757,1777,1797,1817,1837,1857,1877,1897],"xSR":622,"ySR":352.3,"xT1":353.2,"yT1":0,"xT2":890.8,"yT2":0,"toosoon":0,"cond_shown":"randomdotsizeEA","ratio_trial":250,"smaller_num":"2","larger_num":"8","correct_side":1,"subjID":"oscarsantiagorozogonzalez","gender":"0","age":"12","school":"6"},{"start_time":1551791552539,"click_time":1551791553750,"finger_time":1551791553269,"fix_duration":1287.5682350174202,"trial":5,"RT":730,"MT":481,"sideResp":1,"stimulus":"img/500/equaldotanddens/L/8_Ratio_500_L_8_R_4.png","xmouse":[669,669,669,669,669,669,669,669,669,669,669,669,669,669,669,669,669,669,669,669,669,669,669,669,669,669,669,669,669,669,669,669,669,669,666,648,608,566,545,522,484,459,447,419,412,398,397,397,397,397,397,397,397,397,397,397,397,397,396,394,394],"ymouse":[429,429,429,429,429,429,429,429,429,429,429,429,429,429,429,429,429,429,429,429,429,429,429,429,429,429,429,429,429,429,429,429,429,428,423,398,351,304,287,263,230,207,195,166,157,135,131,130,130,130,130,130,130,130,130,130,129,129,129,111,64],"timestamp_mouse":[11,35,51,71,91,111,131,151,171,191,211,231,251,271,291,311,331,351,371,391,411,431,451,471,491,511,531,551,571,591,611,631,651,671,691,711,730,751,771,791,811,831,851,871,891,911,931,951,971,991,1011,1031,1051,1071,1091,1111,1131,1151,1171,1191,1211],"xSR":622,"ySR":352.3,"xT1":353.2,"yT1":0,"xT2":890.8,"yT2":0,"toosoon":0,"cond_shown":"equaldotanddens","ratio_trial":500,"smaller_num":"4","larger_num":"8","correct_side":1,"subjID":"oscarsantiagorozogonzalez","gender":"0","age":"12","school":"6"},{"start_time":1551791556914,"click_time":1551791558610,"finger_time":1551791558049,"fix_duration":963.3111950250891,"trial":6,"RT":1135,"MT":561,"sideResp":2,"stimulus":"img/900/randomdotsizeEA/R/7_Ratio_900_L_9_R_10.png","xmouse":[662,662,662,662,662,662,662,662,662,662,662,662,662,662,662,662,662,662,662,662,662,662,662,662,662,662,662,662,662,662,662,662,662,662,662,662,662,662,662,662,662,662,662,662,662,662,662,662,662,662,662,662,662,662,662,663,771,828,946,994,1026,1029,1029,1029,1028,1028,1025,1024,1019,1016,1009,990,979,975,968,968,967,965,965,964,964,964,964,964,964],"ymouse":[389,389,389,389,389,389,389,389,389,389,389,389,389,389,389,389,389,389,389,389,389,389,389,389,389,389,389,389,389,389,389,389,389,389,389,389,389,389,389,389,389,389,389,389,389,389,389,389,389,389,389,389,389,389,389,388,344,319,270,250,235,229,225,224,224,224,212,207,191,183,171,143,132,126,118,118,115,110,107,107,107,107,107,104,99],"timestamp_mouse":[26,35,55,75,95,115,135,155,175,196,215,235,255,275,296,315,335,355,375,395,415,435,455,475,495,515,535,555,575,595,615,635,655,675,695,715,735,755,775,795,815,835,855,875,895,915,935,955,975,995,1015,1035,1055,1075,1095,1115,1135,1156,1176,1195,1215,1235,1255,1275,1295,1315,1335,1356,1375,1396,1415,1436,1455,1475,1495,1515,1536,1555,1575,1596,1615,1635,1655,1675,1695],"xSR":622,"ySR":352.3,"xT1":353.2,"yT1":0,"xT2":890.8,"yT2":0,"toosoon":0,"cond_shown":"randomdotsizeEA","ratio_trial":900,"smaller_num":"9","larger_num":"10","correct_side":2,"subjID":"oscarsantiagorozogonzalez","gender":"0","age":"12","school":"6"},{"start_time":1551791560323,"click_time":1551791561770,"finger_time":1551791561530,"fix_duration":793.3587964711601,"trial":7,"RT":1207,"MT":240,"sideResp":1,"stimulus":"img/250/randomdotsizeEA/L/15_Ratio_250_L_12_R_3.png","xmouse":[649,649,649,649,649,649,649,649,649,649,649,649,649,649,649,649,649,649,649,649,649,649,649,649,649,649,649,649,649,649,649,649,649,649,649,649,649,649,649,649,649,649,649,649,649,649,649,649,649,649,649,649,649,649,649,649,649,645,639,622,493,408,395,395,395,395,395,395,395,395,395,396,404],"ymouse":[379,379,379,379,379,379,379,379,379,379,379,379,379,379,379,379,379,379,379,379,379,379,379,379,379,379,379,379,379,379,379,379,379,379,379,379,379,379,379,379,379,379,379,379,379,379,379,379,379,379,379,379,379,379,379,379,379,378,370,354,231,144,128,128,128,128,128,128,128,128,127,110,91],"timestamp_mouse":[8,29,47,67,86,106,127,147,167,186,207,227,247,267,287,307,327,347,367,387,407,427,447,467,487,507,527,547,567,587,607,627,647,667,687,707,727,747,767,787,807,827,847,867,887,907,927,947,967,987,1007,1027,1047,1067,1087,1107,1127,1147,1167,1187,1207,1227,1247,1267,1287,1307,1327,1347,1367,1387,1407,1426,1447],"xSR":622,"ySR":352.3,"xT1":353.2,"yT1":0,"xT2":890.8,"yT2":0,"toosoon":0,"cond_shown":"randomdotsizeEA","ratio_trial":250,"smaller_num":"3","larger_num":"12","correct_side":1,"subjID":"oscarsantiagorozogonzalez","gender":"0","age":"12","school":"6"},{"start_time":1551791563058,"click_time":1551791564990,"finger_time":1551791564510,"fix_duration":347.17084671644284,"trial":8,"RT":1452,"MT":480,"sideResp":1,"stimulus":"img/500/randomdotsizeEA/L/7_Ratio_500_L_10_R_5.png","xmouse":[655,655,655,655,655,655,655,655,655,655,655,655,655,655,655,655,655,655,655,655,655,655,655,655,655,655,655,655,655,655,655,655,655,655,655,655,655,655,655,655,655,655,655,655,655,655,655,655,655,655,655,655,655,655,655,655,655,655,655,655,655,655,655,655,655,655,655,655,655,655,655,651,642,636,621,615,592,582,570,561,542,521,515,511,505,501,494,489,485,483,480,477,474,471,461,456,444],"ymouse":[366,366,366,366,366,366,366,366,366,366,366,366,366,366,366,366,366,366,366,366,366,366,366,366,366,366,366,366,366,366,366,366,366,366,366,366,366,366,366,366,366,366,366,366,366,366,366,366,366,366,366,366,366,366,366,366,366,366,366,366,366,366,366,366,366,366,366,366,366,366,366,363,351,343,322,313,283,270,257,252,235,212,201,195,179,172,162,155,143,137,127,121,117,112,97,88,71],"timestamp_mouse":[12,38,52,72,92,112,132,152,172,192,212,232,252,272,292,312,332,352,372,392,412,432,452,472,492,512,532,552,572,592,612,632,652,672,692,712,732,752,772,792,812,832,852,872,892,912,932,952,972,992,1012,1032,1052,1072,1092,1112,1132,1152,1172,1192,1212,1232,1252,1272,1292,1312,1332,1352,1372,1392,1412,1432,1452,1472,1492,1512,1532,1552,1572,1592,1612,1632,1652,1672,1692,1712,1732,1752,1772,1792,1812,1832,1852,1872,1892,1912,1932],"xSR":622,"ySR":352.3,"xT1":353.2,"yT1":0,"xT2":890.8,"yT2":0,"toosoon":0,"cond_shown":"randomdotsizeEA","ratio_trial":500,"smaller_num":"5","larger_num":"10","correct_side":1,"subjID":"oscarsantiagorozogonzalez","gender":"0","age":"12","school":"6"},{"start_time":1551791566266,"click_time":1551791567490,"finger_time":1551791567170,"fix_duration":714.0639019084064,"trial":9,"RT":904,"MT":320,"sideResp":1,"stimulus":"img/750/equaldotanddens/L/6_Ratio_750_L_24_R_18.png","xmouse":[688,688,688,688,688,688,688,688,688,688,688,688,688,688,688,688,688,688,688,688,688,688,688,688,688,688,688,688,688,688,688,688,688,688,688,688,688,688,688,685,682,674,644,630,624,616,613,613,602,546,511,499,498,497,495,491,487,482,480,469,463,434],"ymouse":[406,406,406,406,406,406,406,406,406,406,406,406,406,406,406,406,406,406,406,406,406,406,406,406,406,406,406,406,406,406,406,406,406,406,406,406,406,406,406,406,406,406,406,403,402,398,395,394,375,308,271,255,254,252,243,226,215,195,185,156,142,95],"timestamp_mouse":[7,25,44,64,84,104,124,144,164,184,204,224,244,264,284,304,324,344,364,384,404,424,444,464,484,504,524,544,564,584,604,624,644,664,684,704,724,744,764,784,804,824,844,864,884,904,924,944,964,984,1004,1024,1044,1064,1084,1104,1124,1144,1164,1184,1204,1224],"xSR":622,"ySR":352.3,"xT1":353.2,"yT1":0,"xT2":890.8,"yT2":0,"toosoon":0,"cond_shown":"equaldotanddens","ratio_trial":750,"smaller_num":"18","larger_num":"24","correct_side":1,"subjID":"oscarsantiagorozogonzalez","gender":"0","age":"12","school":"6"},{"start_time":1551791568622,"click_time":1551791572110,"finger_time":1551791569870,"fix_duration":250,"trial":10,"RT":1248,"MT":2240,"sideResp":2,"stimulus":"img/750/randomdotsizeEA/R/11_Ratio_750_L_12_R_16.png","xmouse":[665,665,665,665,665,665,665,665,665,665,665,665,665,665,665,665,665,665,665,665,665,665,665,665,665,665,665,665,665,665,665,665,665,665,665,665,665,665,665,665,665,665,665,665,665,665,665,665,665,665,665,665,665,665,665,665,665,665,665,667,691,722,794,856,861,865,866,866,869,871,871,872,873,874,885,887,889,891,891,894,897,897,900,900,902,902,902,902,902,902,902,902,902,902,902,902,902,902,902,902,902,902,902,902,902,902,902,902,902,902,902,902,902,902,902,902,902,902,902,902,902,902,902,902,902,902,902,902,902,902,902,902,902,902,902,902,902,902,902,902,902,902,902,902,902,902,902,902,902,902,902,902,902,902,902,902,902,903,903,903,904,906,908,910,913,913,913,914,915,916,916,916,918,921,931],"ymouse":[407,407,407,407,407,407,407,407,407,407,407,407,407,407,407,407,407,407,407,407,407,407,407,407,407,407,407,407,407,407,407,407,407,407,407,407,407,407,407,407,407,407,407,407,407,407,407,407,407,407,407,407,407,407,407,407,407,407,407,405,389,367,318,256,246,233,226,222,207,203,202,201,200,198,185,181,177,176,175,170,167,166,159,154,146,145,144,144,144,143,142,142,141,141,139,139,139,139,139,139,139,139,139,139,139,139,139,139,139,139,139,139,139,139,139,139,139,139,139,139,139,139,139,139,139,139,139,139,139,139,139,139,139,139,139,139,139,139,139,139,139,139,139,139,139,139,139,139,139,139,139,139,139,139,139,139,139,138,138,138,137,135,133,132,128,128,128,127,126,126,126,126,123,116,96],"timestamp_mouse":[7,27,48,68,88,108,128,148,168,188,208,228,248,268,288,308,328,348,368,388,408,428,448,468,488,508,528,548,568,588,608,628,648,668,688,708,728,748,768,788,808,828,848,868,888,908,928,948,968,988,1008,1028,1048,1068,1088,1108,1128,1148,1168,1188,1208,1228,1248,1268,1288,1308,1328,1348,1368,1388,1408,1428,1448,1468,1488,1508,1528,1548,1568,1588,1608,1628,1648,1668,1688,1708,1728,1748,1768,1788,1808,1828,1848,1868,1888,1908,1928,1948,1968,1988,2008,2028,2048,2068,2088,2108,2128,2148,2168,2188,2208,2228,2248,2268,2288,2308,2328,2348,2368,2388,2408,2428,2448,2468,2489,2508,2528,2548,2568,2588,2608,2628,2648,2668,2688,2708,2728,2748,2768,2788,2808,2828,2848,2868,2888,2908,2928,2948,2968,2988,3008,3028,3048,3068,3088,3108,3128,3148,3168,3188,3208,3228,3248,3268,3288,3308,3328,3348,3368,3388,3408,3428,3448,3468,3488],"xSR":622,"ySR":352.3,"xT1":353.2,"yT1":0,"xT2":890.8,"yT2":0,"toosoon":0,"cond_shown":"randomdotsizeEA","ratio_trial":750,"smaller_num":"12","larger_num":"16","correct_side":2,"subjID":"oscarsantiagorozogonzalez","gender":"0","age":"12","school":"6"},{"start_time":1551791575699,"click_time":1551791577290,"finger_time":1551791576590,"fix_duration":807.7429855239263,"trial":11,"RT":891,"MT":700,"sideResp":2,"stimulus":"img/250/equaldotsize/R/13_Ratio_250_L_2_R_8.png","xmouse":[650,650,650,650,650,650,650,650,650,650,650,650,650,650,650,650,650,650,650,650,650,650,650,650,650,650,650,650,650,650,650,650,650,650,650,650,650,650,650,650,650,650,652,694,732,750,783,811,815,816,816,816,816,816,816,816,822,843,847,850,850,850,851,851,851,851,852,855,856,857,858,858,861,863,865,866,868,878,889,893],"ymouse":[425,425,425,425,425,425,425,425,425,425,425,425,425,425,425,425,425,425,425,425,425,425,425,425,425,425,425,425,425,425,425,425,425,425,425,425,425,425,425,425,425,425,423,386,308,278,230,195,189,187,187,187,187,185,182,174,161,141,139,136,136,136,136,136,135,135,135,130,128,126,125,125,121,118,116,115,114,104,94,90],"timestamp_mouse":[23,31,51,71,91,111,131,151,171,191,211,231,251,271,291,312,331,351,371,391,411,431,451,471,491,511,531,551,571,591,611,631,651,671,691,711,731,751,771,791,811,831,851,871,891,911,930,951,971,991,1011,1031,1051,1071,1091,1111,1131,1151,1171,1191,1211,1232,1251,1271,1291,1311,1332,1351,1371,1391,1411,1431,1451,1471,1491,1511,1531,1551,1571,1591],"xSR":622,"ySR":352.3,"xT1":353.2,"yT1":0,"xT2":890.8,"yT2":0,"toosoon":0,"cond_shown":"equaldotsize","ratio_trial":250,"smaller_num":"2","larger_num":"8","correct_side":2,"subjID":"oscarsantiagorozogonzalez","gender":"0","age":"12","school":"6"},{"start_time":1551791579491,"click_time":1551791581110,"finger_time":1551791580431,"fix_duration":1179.1791523051868,"trial":12,"RT":940,"MT":679,"sideResp":2,"stimulus":"img/750/randomdotsizeEA/R/2_Ratio_750_L_6_R_8.png","xmouse":[678,678,678,678,678,678,678,678,678,678,678,678,678,678,678,678,678,678,678,678,678,678,678,678,678,678,678,678,678,678,678,678,678,678,678,678,678,678,678,678,678,678,678,678,678,678,672,651,645,639,638,638,638,638,638,638,638,638,638,638,641,665,676,710,720,744,747,748,749,749,750,766,776,803,828,841,889,922,955,965,985],"ymouse":[368,368,368,368,368,368,368,368,368,368,368,368,368,368,368,368,368,368,368,368,368,368,368,368,368,368,368,368,368,368,368,368,368,368,368,368,368,368,368,368,368,368,368,368,368,368,352,312,304,297,296,296,296,296,296,296,296,296,296,296,296,310,318,337,343,360,363,364,364,364,364,346,335,295,249,227,166,136,109,101,89],"timestamp_mouse":[29,38,59,79,99,119,139,159,179,199,219,239,259,279,299,318,338,359,379,399,419,439,459,479,499,519,539,559,579,599,619,639,659,679,698,718,739,758,778,798,818,838,858,878,898,919,939,958,978,998,1019,1038,1058,1078,1098,1120,1139,1160,1178,1198,1218,1238,1258,1278,1298,1321,1339,1358,1378,1398,1418,1439,1459,1478,1499,1519,1539,1560,1579,1598,1618],"xSR":622,"ySR":352.3,"xT1":353.2,"yT1":0,"xT2":890.8,"yT2":0,"toosoon":0,"cond_shown":"randomdotsizeEA","ratio_trial":750,"smaller_num":"6","larger_num":"8","correct_side":2,"subjID":"oscarsantiagorozogonzalez","gender":"0","age":"12","school":"6"},{"start_time":1551791583646,"click_time":1551791585230,"finger_time":1551791584610,"fix_duration":1475.38621385713,"trial":13,"RT":964,"MT":620,"sideResp":2,"stimulus":"img/900/equaldotsize/R/11_Ratio_900_L_18_R_20.png","xmouse":[688,688,688,688,688,688,688,688,688,688,688,688,688,688,688,688,688,688,688,688,688,688,688,688,688,688,688,688,688,688,688,688,688,688,688,688,688,688,688,688,688,687,687,687,687,687,687,685,644,639,634,633,633,633,633,632,632,632,632,631,630,630,630,630,630,630,630,637,664,693,710,741,758,798,838,877,893,912,917,931],"ymouse":[370,370,370,370,370,370,370,370,370,370,370,370,370,370,370,370,370,370,370,370,370,370,370,370,370,370,370,370,370,370,370,370,370,370,370,370,370,370,370,370,370,370,370,370,370,370,370,370,320,310,304,302,302,302,302,301,301,301,301,301,301,301,301,301,301,301,301,300,299,292,287,271,260,223,185,149,135,113,104,73],"timestamp_mouse":[8,23,43,63,83,103,123,143,163,183,203,223,243,263,283,304,324,343,364,384,404,424,444,463,483,503,523,543,563,583,603,623,644,664,684,704,724,744,764,784,804,824,844,864,884,904,924,944,964,983,1004,1024,1044,1064,1084,1104,1124,1144,1164,1184,1204,1224,1244,1263,1284,1304,1324,1344,1364,1383,1404,1424,1444,1464,1484,1504,1524,1544,1564,1584],"xSR":622,"ySR":352.3,"xT1":353.2,"yT1":0,"xT2":890.8,"yT2":0,"toosoon":0,"cond_shown":"equaldotsize","ratio_trial":900,"smaller_num":"18","larger_num":"20","correct_side":2,"subjID":"oscarsantiagorozogonzalez","gender":"0","age":"12","school":"6"},{"start_time":1551791586487,"click_time":1551791587630,"finger_time":1551791587290,"fix_duration":636.7867056057896,"trial":14,"RT":803,"MT":340,"sideResp":2,"stimulus":"img/900/equaldotanddens/R/12_Ratio_900_L_18_R_20.png","xmouse":[662,662,662,662,662,662,662,662,662,662,662,662,662,662,662,662,662,662,662,662,662,662,662,662,662,662,662,662,662,662,662,662,662,662,662,662,662,662,677,698,718,760,780,814,849,856,856,856,856,856,856,857,861,864,877,883,887,891],"ymouse":[423,423,423,423,423,423,423,423,423,423,423,423,423,423,423,423,423,423,423,423,423,423,423,423,423,423,423,423,423,423,423,423,423,423,423,423,423,418,395,363,342,292,269,225,185,174,173,173,173,173,167,164,154,146,122,113,103,98],"timestamp_mouse":[7,24,43,63,83,103,123,143,163,183,203,223,243,263,283,303,323,343,363,383,403,423,443,463,483,503,523,543,563,583,603,623,643,663,683,703,723,743,762,783,803,823,843,863,883,903,923,943,963,983,1003,1023,1043,1063,1083,1103,1123,1143],"xSR":622,"ySR":352.3,"xT1":353.2,"yT1":0,"xT2":890.8,"yT2":0,"toosoon":0,"cond_shown":"equaldotanddens","ratio_trial":900,"smaller_num":"18","larger_num":"20","correct_side":2,"subjID":"oscarsantiagorozogonzalez","gender":"0","age":"12","school":"6"},{"start_time":1551791589141,"click_time":1551791590530,"finger_time":1551791589990,"fix_duration":469.93603323782804,"trial":15,"RT":849,"MT":540,"sideResp":1,"stimulus":"img/900/equaldotanddens/L/2_Ratio_900_L_20_R_18.png","xmouse":[682,682,682,682,682,682,682,682,682,682,682,682,682,682,682,682,682,682,682,682,682,682,682,682,682,682,682,682,682,682,682,682,682,682,682,682,682,682,682,682,669,657,642,611,607,601,597,595,578,532,505,494,477,472,466,465,462,459,448,442,440,440,437,435,428,426,425,423,419,414],"ymouse":[384,384,384,384,384,384,384,384,384,384,384,384,384,384,384,384,384,384,384,384,384,384,384,384,384,384,384,384,384,384,384,384,384,384,384,384,384,384,384,384,373,364,352,333,332,329,327,325,308,248,208,194,173,168,161,159,158,154,145,141,139,137,133,131,121,119,115,112,100,82],"timestamp_mouse":[15,34,49,69,89,109,129,149,169,189,209,229,249,269,289,309,329,349,369,389,409,429,449,469,489,509,529,549,569,589,609,629,649,669,689,709,729,749,769,789,809,829,849,869,889,909,929,949,969,989,1009,1029,1049,1069,1089,1109,1129,1149,1169,1189,1209,1229,1249,1269,1289,1309,1328,1349,1369,1389],"xSR":622,"ySR":352.3,"xT1":353.2,"yT1":0,"xT2":890.8,"yT2":0,"toosoon":0,"cond_shown":"equaldotanddens","ratio_trial":900,"smaller_num":"18","larger_num":"20","correct_side":1,"subjID":"oscarsantiagorozogonzalez","gender":"0","age":"12","school":"6"},{"start_time":1551791592470,"click_time":1551791593670,"finger_time":1551791593250,"fix_duration":1138.499914780559,"trial":16,"RT":780,"MT":420,"sideResp":1,"stimulus":"img/250/randomdotsizeEA/L/3_Ratio_250_L_8_R_2.png","xmouse":[659,659,659,659,659,659,659,659,659,659,659,659,659,659,659,659,659,659,659,659,659,659,659,659,659,659,659,659,659,659,659,659,659,659,659,659,659,658,652,627,599,534,522,513,511,504,501,495,492,486,482,465,460,451,449,442,432,429,428,424,421],"ymouse":[370,370,370,370,370,370,370,370,370,370,370,370,370,370,370,370,370,370,370,370,370,370,370,370,370,370,370,370,370,370,370,370,370,370,370,370,370,368,359,332,300,237,230,223,222,215,211,205,201,190,183,160,153,142,140,131,117,112,110,104,99],"timestamp_mouse":[5,26,40,60,80,100,120,140,160,180,200,220,240,260,280,301,320,340,360,380,400,420,440,460,480,500,520,540,560,580,600,620,640,660,680,700,720,740,760,780,800,820,840,860,880,900,920,940,960,980,1000,1020,1040,1060,1080,1100,1120,1140,1160,1180,1200],"xSR":622,"ySR":352.3,"xT1":353.2,"yT1":0,"xT2":890.8,"yT2":0,"toosoon":0,"cond_shown":"randomdotsizeEA","ratio_trial":250,"smaller_num":"2","larger_num":"8","correct_side":1,"subjID":"oscarsantiagorozogonzalez","gender":"0","age":"12","school":"6"},{"start_time":1551791594762,"click_time":1551791596150,"finger_time":1551791595690,"fix_duration":250,"trial":17,"RT":928,"MT":460,"sideResp":1,"stimulus":"img/500/equaldotsize/L/11_Ratio_500_L_12_R_6.png","xmouse":[644,644,644,644,644,644,644,644,644,644,644,644,644,644,644,644,644,644,644,644,644,644,644,644,644,644,644,644,644,644,644,644,644,644,644,644,644,644,644,644,644,644,644,644,637,628,626,622,618,588,558,539,529,519,512,505,500,484,479,472,470,467,465,455,446,439,433,428,426,418],"ymouse":[363,363,363,363,363,363,363,363,363,363,363,363,363,363,363,363,363,363,363,363,363,363,363,363,363,363,363,363,363,363,363,363,363,363,363,363,363,363,363,363,363,363,363,363,361,355,352,346,342,319,300,290,286,279,270,261,255,236,229,220,218,210,206,180,156,139,126,112,106,88],"timestamp_mouse":[8,28,48,68,88,108,128,148,168,188,208,228,248,268,288,308,328,348,368,388,408,428,448,468,488,508,528,548,568,588,608,628,648,668,688,708,728,748,768,788,808,828,848,868,888,908,928,948,968,988,1008,1028,1048,1068,1088,1108,1128,1148,1168,1188,1208,1228,1248,1270,1288,1308,1328,1348,1368,1388],"xSR":622,"ySR":352.3,"xT1":353.2,"yT1":0,"xT2":890.8,"yT2":0,"toosoon":0,"cond_shown":"equaldotsize","ratio_trial":500,"smaller_num":"6","larger_num":"12","correct_side":1,"subjID":"oscarsantiagorozogonzalez","gender":"0","age":"12","school":"6"},{"start_time":1551791597769,"click_time":1551791599432,"finger_time":1551791599070,"fix_duration":1017.9677841463144,"trial":18,"RT":1301,"MT":362,"sideResp":2,"stimulus":"img/750/equaldotanddens/R/12_Ratio_750_L_3_R_4.png","xmouse":[653,653,653,653,653,653,653,653,653,653,653,653,653,653,653,653,653,653,653,653,653,653,653,653,653,653,653,653,653,653,653,653,653,653,653,653,653,653,653,653,653,653,653,653,653,653,653,654,654,660,670,674,692,695,697,698,698,698,698,698,698,698,698,698,703,727,750,799,817,825,846,867,888,889,890,890,890,897,900,903,907,909,911,911],"ymouse":[385,385,385,385,385,385,385,385,385,385,385,385,385,385,385,385,385,385,385,385,385,385,385,385,385,385,385,385,385,385,385,385,385,385,385,385,385,385,385,385,385,385,385,385,385,385,385,385,385,384,377,375,362,360,358,358,358,358,358,358,358,358,358,358,353,332,316,268,245,236,212,187,163,161,159,158,156,143,135,131,119,110,100,99],"timestamp_mouse":[6,30,41,61,81,101,121,141,161,181,201,221,241,261,281,301,321,341,361,381,401,421,441,461,481,501,521,541,561,581,601,621,641,661,681,701,721,741,761,781,801,821,841,861,881,901,921,941,961,981,1001,1021,1041,1061,1081,1101,1121,1141,1161,1181,1201,1221,1241,1261,1281,1301,1321,1341,1361,1381,1401,1421,1441,1461,1481,1501,1521,1540,1561,1581,1601,1624,1644,1663],"xSR":622,"ySR":352.3,"xT1":353.2,"yT1":0,"xT2":890.8,"yT2":0,"toosoon":0,"cond_shown":"equaldotanddens","ratio_trial":750,"smaller_num":"3","larger_num":"4","correct_side":2,"subjID":"oscarsantiagorozogonzalez","gender":"0","age":"12","school":"6"},{"start_time":1551791601164,"click_time":1551791602513,"finger_time":1551791601993,"fix_duration":1129.662476680809,"trial":19,"RT":829,"MT":520,"sideResp":1,"stimulus":"img/250/equaldotanddens/L/1_Ratio_250_L_8_R_2.png","xmouse":[656,656,656,656,656,656,656,656,656,656,656,656,656,656,656,656,656,656,656,656,656,656,656,656,656,656,656,656,656,656,656,656,656,656,656,656,656,656,656,650,626,601,596,593,588,571,567,558,554,548,539,529,523,512,509,501,491,487,485,481,478,472,467,463,455,453,442,437],"ymouse":[422,422,422,422,422,422,422,422,422,422,422,422,422,422,422,422,422,422,422,422,422,422,422,422,422,422,422,422,422,422,422,422,422,422,422,422,422,422,422,414,383,361,357,353,346,308,297,274,264,245,220,204,194,180,177,165,154,150,146,142,139,135,132,128,121,118,103,97],"timestamp_mouse":[8,31,49,69,89,109,129,149,169,189,209,229,249,269,289,309,329,349,369,389,409,429,449,469,489,509,529,549,569,589,609,629,649,669,689,709,729,749,769,789,809,829,849,869,889,909,929,949,969,989,1008,1029,1049,1069,1089,1108,1129,1148,1169,1189,1208,1229,1249,1269,1289,1309,1329,1349],"xSR":622,"ySR":352.3,"xT1":353.2,"yT1":0,"xT2":890.8,"yT2":0,"toosoon":0,"cond_shown":"equaldotanddens","ratio_trial":250,"smaller_num":"2","larger_num":"8","correct_side":1,"subjID":"oscarsantiagorozogonzalez","gender":"0","age":"12","school":"6"},{"start_time":1551791604342,"click_time":1551791605752,"finger_time":1551791605472,"fix_duration":947.8445290836432,"trial":20,"RT":1130,"MT":280,"sideResp":1,"stimulus":"img/500/equaldotsize/L/4_Ratio_500_L_18_R_9.png","xmouse":[673,673,673,673,673,673,673,673,673,673,673,673,673,673,673,673,673,673,673,673,673,673,673,673,673,673,673,673,673,673,673,673,673,673,673,673,673,673,673,673,673,673,673,673,673,673,673,673,673,673,673,673,673,673,673,669,642,624,594,581,546,526,511,506,500,489,477,466,451,447,443],"ymouse":[391,391,391,391,391,391,391,391,391,391,391,391,391,391,391,391,391,391,391,391,391,391,391,391,391,391,391,391,391,391,391,391,391,391,391,391,391,391,391,391,391,391,391,391,391,391,391,391,391,391,391,391,391,391,391,387,352,332,294,277,244,230,220,216,211,196,172,154,122,110,83],"timestamp_mouse":[11,32,50,70,91,111,131,151,171,191,210,230,271,272,290,310,330,350,370,390,410,430,450,470,490,510,530,550,570,590,610,630,650,671,690,710,730,750,770,790,810,830,850,870,890,910,930,950,970,990,1010,1030,1050,1070,1090,1110,1130,1150,1170,1190,1211,1230,1250,1270,1290,1311,1330,1350,1370,1390,1410],"xSR":622,"ySR":352.3,"xT1":353.2,"yT1":0,"xT2":890.8,"yT2":0,"toosoon":0,"cond_shown":"equaldotsize","ratio_trial":500,"smaller_num":"9","larger_num":"18","correct_side":1,"subjID":"oscarsantiagorozogonzalez","gender":"0","age":"12","school":"6"},{"start_time":1551791607815,"click_time":1551791609032,"finger_time":1551791608592,"fix_duration":1360.3937482416527,"trial":21,"RT":777,"MT":440,"sideResp":1,"stimulus":"img/500/equaldotanddens/L/11_Ratio_500_L_12_R_6.png","xmouse":[680,680,680,680,680,680,680,680,680,680,680,680,680,680,680,680,680,680,680,680,680,680,680,680,680,680,680,680,680,680,680,680,680,680,680,680,680,679,665,646,617,594,584,567,547,541,530,519,513,499,489,478,472,460,446,436,432,425,422,416,413],"ymouse":[371,371,371,371,371,371,371,371,371,371,371,371,371,371,371,371,371,371,371,371,371,371,371,371,371,371,371,371,371,371,371,371,371,371,371,371,371,369,349,323,300,285,280,268,253,248,240,232,228,217,208,198,192,179,161,148,142,128,121,106,83],"timestamp_mouse":[20,37,57,77,97,117,137,157,177,197,217,237,257,277,297,317,337,357,377,397,417,437,457,477,497,517,537,557,577,597,617,637,657,677,697,717,737,757,777,797,817,837,857,877,897,918,937,957,977,998,1018,1037,1057,1077,1098,1117,1137,1157,1177,1197,1217],"xSR":622,"ySR":352.3,"xT1":353.2,"yT1":0,"xT2":890.8,"yT2":0,"toosoon":0,"cond_shown":"equaldotanddens","ratio_trial":500,"smaller_num":"6","larger_num":"12","correct_side":1,"subjID":"oscarsantiagorozogonzalez","gender":"0","age":"12","school":"6"},{"start_time":1551791611025,"click_time":1551791615873,"finger_time":1551791615553,"fix_duration":991.3591870468274,"trial":22,"RT":4528,"MT":320,"sideResp":1,"stimulus":"img/750/equaldotsize/L/6_Ratio_750_L_24_R_18.png","xmouse":[680,680,680,680,680,680,680,680,680,680,680,680,680,680,680,680,680,680,680,680,680,680,680,680,680,680,680,680,680,680,680,680,680,680,680,680,680,680,680,680,680,680,680,680,680,680,680,679,676,676,675,675,675,675,675,675,675,675,675,675,675,675,675,675,675,675,675,675,675,675,675,675,675,675,675,675,675,675,675,675,675,675,675,675,675,675,675,675,675,675,675,675,675,675,675,675,675,675,675,675,675,675,675,675,675,675,675,675,675,675,675,675,675,675,675,675,675,675,675,675,675,675,675,675,675,675,675,675,675,675,675,675,675,675,675,675,675,675,675,675,675,675,675,675,675,675,675,675,675,675,675,675,675,675,675,675,675,675,675,675,675,675,675,675,675,675,675,675,675,675,675,675,675,675,675,675,675,675,675,675,675,675,675,675,675,675,675,675,675,675,675,675,675,675,675,675,675,675,675,675,675,675,675,675,675,675,675,675,675,675,675,675,675,675,675,675,675,675,675,675,675,675,675,671,648,633,613,586,555,546,530,513,503,497,486,481,472,461,454,450,447,445,444],"ymouse":[402,402,402,402,402,402,402,402,402,402,402,402,402,402,402,402,402,402,402,402,402,402,402,402,402,402,402,402,402,402,402,402,402,402,402,402,402,402,402,402,402,402,402,402,402,402,401,396,391,391,391,391,391,391,391,391,391,391,391,391,391,391,391,391,391,391,391,391,391,391,391,391,391,391,391,391,391,391,391,391,391,391,391,391,391,391,391,391,391,391,391,391,391,391,391,391,391,391,391,391,391,391,391,391,391,391,391,391,391,391,391,391,391,391,391,391,391,391,391,391,391,391,391,391,391,391,391,391,391,391,391,391,391,391,391,391,391,391,391,391,391,391,391,391,391,391,391,391,391,391,391,391,391,391,391,391,391,391,391,391,391,391,391,391,391,391,391,391,391,391,391,391,391,391,391,391,391,391,391,391,391,391,391,391,391,391,391,391,391,391,391,391,391,391,391,391,391,391,391,391,391,391,391,391,391,391,391,391,391,391,391,391,391,391,391,391,391,391,391,391,391,391,391,386,369,359,345,325,302,296,286,277,270,266,257,252,240,218,194,174,146,119,90],"timestamp_mouse":[8,29,47,67,87,107,127,147,167,187,207,227,247,267,287,307,327,347,367,387,407,427,447,467,487,507,527,547,567,588,607,627,647,667,687,707,727,747,767,787,807,827,847,867,887,907,927,947,967,987,1007,1027,1047,1067,1087,1107,1127,1147,1167,1187,1207,1227,1247,1267,1287,1307,1327,1347,1367,1387,1407,1427,1447,1467,1487,1507,1527,1547,1567,1588,1608,1628,1648,1668,1688,1707,1728,1748,1768,1788,1808,1828,1848,1868,1888,1908,1928,1948,1967,1988,2008,2028,2048,2068,2087,2107,2127,2147,2167,2187,2207,2227,2247,2267,2287,2308,2328,2348,2368,2388,2408,2428,2448,2468,2488,2508,2528,2548,2568,2588,2608,2628,2648,2668,2688,2708,2728,2748,2768,2788,2808,2828,2848,2868,2888,2908,2928,2948,2968,2988,3008,3028,3048,3068,3088,3108,3128,3148,3168,3188,3208,3228,3248,3268,3288,3308,3328,3348,3368,3388,3408,3428,3448,3468,3488,3508,3528,3548,3568,3588,3608,3628,3648,3668,3688,3708,3728,3748,3768,3788,3808,3828,3848,3868,3888,3908,3928,3948,3968,3988,4008,4028,4048,4068,4088,4108,4128,4148,4168,4188,4208,4228,4248,4268,4288,4308,4328,4349,4368,4388,4411,4430,4448,4467,4487,4507,4527,4547,4568,4588,4608,4628,4648,4668,4688,4708,4728,4748,4768,4788,4808,4828,4848],"xSR":622,"ySR":352.3,"xT1":353.2,"yT1":0,"xT2":890.8,"yT2":0,"toosoon":0,"cond_shown":"equaldotsize","ratio_trial":750,"smaller_num":"18","larger_num":"24","correct_side":1,"subjID":"oscarsantiagorozogonzalez","gender":"0","age":"12","school":"6"},{"start_time":1551791617803,"click_time":1551791621213,"finger_time":1551791621093,"fix_duration":1128.013462958335,"trial":23,"RT":3290,"MT":120,"sideResp":1,"stimulus":"img/750/randomdotsizeEA/L/10_Ratio_750_L_4_R_3.png","xmouse":[683,683,683,683,683,683,683,683,683,683,683,683,683,683,683,683,683,683,683,683,683,683,683,683,683,683,683,683,683,683,683,683,683,683,683,683,683,683,683,683,683,683,683,683,683,683,683,683,683,683,683,683,683,683,683,683,683,683,683,683,683,683,683,683,683,683,683,683,683,683,683,683,683,683,683,683,683,683,683,683,683,683,683,683,683,683,683,683,683,683,683,683,683,683,683,683,683,683,683,683,683,683,683,683,683,683,683,683,683,683,683,683,683,683,683,683,683,683,683,683,683,683,683,683,683,683,683,683,683,683,683,683,683,683,683,683,683,683,683,683,683,683,683,683,683,683,683,683,683,683,683,683,683,683,683,683,683,683,683,683,676,665,655,632,602,495,471,454,389,382,372],"ymouse":[403,403,403,403,403,403,403,403,403,403,403,403,403,403,403,403,403,403,403,403,403,403,403,403,403,403,403,403,403,403,403,403,403,403,403,403,403,403,403,403,403,403,403,403,403,403,403,403,403,403,403,403,403,403,403,403,403,403,403,403,403,403,403,403,403,403,403,403,403,403,403,403,403,403,403,403,403,403,403,403,403,403,403,403,403,403,403,403,403,403,403,403,403,403,403,403,403,403,403,403,403,403,403,403,403,403,403,403,403,403,403,403,403,403,403,403,403,403,403,403,403,403,403,403,403,403,403,403,403,403,403,403,403,403,403,403,403,403,403,403,403,403,403,403,403,403,403,403,403,403,403,403,403,403,403,403,403,403,403,403,398,388,383,372,366,305,281,253,134,117,95],"timestamp_mouse":[10,36,50,70,90,110,130,150,170,190,210,230,250,270,290,310,330,350,370,390,410,430,450,470,490,510,530,550,570,590,610,630,650,670,690,710,730,750,770,790,810,830,850,870,890,910,930,950,970,990,1010,1030,1050,1070,1090,1110,1130,1150,1170,1190,1210,1230,1250,1270,1290,1310,1330,1350,1370,1390,1410,1430,1450,1470,1490,1510,1530,1550,1570,1590,1610,1630,1650,1670,1690,1710,1730,1750,1770,1790,1810,1830,1850,1870,1890,1910,1930,1950,1970,1990,2010,2030,2050,2070,2090,2110,2130,2150,2170,2190,2210,2230,2250,2270,2290,2310,2330,2350,2370,2390,2410,2430,2450,2470,2490,2510,2530,2550,2570,2590,2610,2630,2650,2670,2690,2710,2730,2750,2770,2790,2810,2830,2850,2870,2890,2910,2930,2950,2970,2990,3010,3030,3050,3070,3090,3110,3130,3150,3170,3190,3210,3230,3250,3270,3290,3310,3330,3350,3369,3390,3410],"xSR":622,"ySR":352.3,"xT1":353.2,"yT1":0,"xT2":890.8,"yT2":0,"toosoon":0,"cond_shown":"randomdotsizeEA","ratio_trial":750,"smaller_num":"3","larger_num":"4","correct_side":1,"subjID":"oscarsantiagorozogonzalez","gender":"0","age":"12","school":"6"},{"start_time":1551791624056,"click_time":1551791626153,"finger_time":1551791626013,"fix_duration":1461.014550817815,"trial":24,"RT":1957,"MT":140,"sideResp":1,"stimulus":"img/250/randomdotsizeEA/L/1_Ratio_250_L_8_R_2.png","xmouse":[691,691,691,691,691,691,691,691,691,691,691,691,691,691,691,691,691,691,691,691,691,691,691,691,691,691,691,691,691,691,691,691,691,691,691,691,691,691,691,691,691,691,691,691,691,691,691,691,691,691,691,691,691,691,691,691,691,691,691,691,691,691,691,691,691,691,691,691,691,691,691,691,691,691,691,691,691,691,691,691,691,691,691,691,691,691,691,691,691,691,691,691,691,684,679,641,633,618,599,588,509,484,474,460,449],"ymouse":[380,380,380,380,380,380,380,380,380,380,380,380,380,380,380,380,380,380,380,380,380,380,380,380,380,380,380,380,380,380,380,380,380,380,380,380,380,380,380,380,380,380,380,380,380,380,380,380,380,380,380,380,380,380,380,380,380,380,380,380,380,380,380,380,380,380,380,380,380,380,380,380,380,380,380,380,380,380,380,380,380,380,380,380,380,380,380,380,380,380,380,380,380,380,380,374,371,362,341,324,236,183,155,110,75],"timestamp_mouse":[20,37,57,77,97,117,137,157,177,197,217,237,257,277,297,317,337,357,377,397,417,437,457,477,497,517,537,557,577,597,617,637,657,677,697,717,737,757,777,797,817,837,857,877,897,917,937,957,977,997,1017,1037,1057,1077,1097,1117,1137,1157,1177,1197,1217,1237,1257,1277,1297,1317,1337,1357,1377,1397,1417,1437,1457,1477,1497,1517,1537,1557,1577,1597,1617,1637,1657,1677,1697,1717,1737,1757,1777,1797,1817,1837,1857,1877,1897,1917,1937,1957,1977,1997,2017,2036,2057,2077,2097],"xSR":622,"ySR":352.3,"xT1":353.2,"yT1":0,"xT2":890.8,"yT2":0,"toosoon":0,"cond_shown":"randomdotsizeEA","ratio_trial":250,"smaller_num":"2","larger_num":"8","correct_side":1,"subjID":"oscarsantiagorozogonzalez","gender":"0","age":"12","school":"6"},{"start_time":1551791629576,"click_time":1551791642533,"finger_time":1551791642213,"fix_duration":822.344155381403,"trial":25,"RT":12637,"MT":320,"sideResp":1,"stimulus":"img/750/randomdotsizeEA/L/10_Ratio_750_L_4_R_3.png","xmouse":[676,676,676,676,676,676,676,676,676,676,676,676,676,676,676,676,676,676,676,676,676,676,676,676,676,676,676,676,676,676,676,676,676,676,676,676,676,676,676,676,676,676,676,676,676,676,676,676,676,676,676,676,676,676,676,676,676,676,676,676,676,676,676,676,676,676,676,676,676,676,676,676,676,676,676,676,676,676,676,676,676,676,676,676,676,676,676,676,676,676,676,676,676,676,676,676,676,676,676,676,676,676,676,676,676,676,676,676,676,676,676,676,676,676,676,676,676,676,676,676,676,676,676,676,676,676,676,676,676,676,676,676,676,676,676,676,676,676,676,676,676,676,676,676,676,676,676,676,676,676,676,676,676,676,676,676,676,676,676,676,676,676,676,676,676,676,676,676,676,676,676,676,676,676,676,676,676,676,676,676,676,676,676,676,676,676,676,676,676,676,676,676,676,676,676,676,676,676,676,676,676,676,676,676,676,676,676,676,676,676,676,676,676,676,676,676,676,676,676,676,676,676,676,676,676,676,676,676,676,676,676,676,676,676,676,676,676,676,676,676,676,676,676,676,676,676,676,676,676,676,676,676,676,676,676,676,676,676,676,676,676,676,676,676,676,676,676,676,676,676,676,676,676,676,676,676,676,676,676,676,676,676,676,676,676,676,676,676,676,676,676,676,676,676,676,676,676,676,676,676,676,676,676,676,676,676,676,676,676,676,676,676,676,676,676,676,676,676,676,676,676,676,676,676,676,676,676,676,676,676,676,676,676,676,676,676,676,676,676,676,676,676,676,676,676,676,676,676,676,676,676,676,676,676,676,676,676,676,676,676,676,676,676,676,676,676,676,676,676,676,676,676,676,676,676,676,676,676,676,676,676,676,676,676,676,676,676,676,676,676,676,676,676,676,676,676,676,676,676,676,676,676,676,676,676,676,676,676,676,676,676,676,676,676,676,676,676,676,676,676,676,676,676,676,676,676,676,676,676,676,676,676,676,676,676,676,676,676,676,676,676,676,676,676,676,676,676,676,676,676,676,676,676,676,676,676,676,676,676,676,676,676,676,676,676,676,676,676,676,676,676,676,676,676,676,676,676,676,676,676,676,676,676,676,676,676,676,676,676,676,676,676,676,676,676,676,676,676,676,676,676,676,676,676,676,676,676,676,676,676,676,676,676,676,676,676,676,676,676,676,676,676,676,676,676,676,676,676,676,676,676,676,676,676,676,676,676,676,676,676,676,676,676,676,676,676,676,676,676,676,676,676,676,676,676,676,676,676,676,676,676,676,676,676,676,676,676,676,676,676,676,676,676,676,676,676,676,676,676,676,676,676,676,676,676,676,676,676,676,676,676,676,676,676,676,676,676,676,676,676,676,676,676,676,676,676,676,676,676,676,676,676,676,676,676,676,676,676,676,676,676,676,676,676,676,676,670,669,665,657,641,587,554,501,453,433,392,371,358,356,348,332,327,321,324,327,341,357],"ymouse":[437,437,437,437,437,437,437,437,437,437,437,437,437,437,437,437,437,437,437,437,437,437,437,437,437,437,437,437,437,437,437,437,437,437,437,437,437,437,437,437,437,437,437,437,437,437,437,437,437,437,437,437,437,437,437,437,437,437,437,437,437,437,437,437,437,437,437,437,437,437,437,437,437,437,437,437,437,437,437,437,437,437,437,437,437,437,437,437,437,437,437,437,437,437,437,437,437,437,437,437,437,437,437,437,437,437,437,437,437,437,437,437,437,437,437,437,437,437,437,437,437,437,437,437,437,437,437,437,437,437,437,437,437,437,437,437,437,437,437,437,437,437,437,437,437,437,437,437,437,437,437,437,437,437,437,437,437,437,437,437,437,437,437,437,437,437,437,437,437,437,437,437,437,437,437,437,437,437,437,437,437,437,437,437,437,437,437,437,437,437,437,437,437,437,437,437,437,437,437,437,437,437,437,437,437,437,437,437,437,437,437,437,437,437,437,437,437,437,437,437,437,437,437,437,437,437,437,437,437,437,437,437,437,437,437,437,437,437,437,437,437,437,437,437,437,437,437,437,437,437,437,437,437,437,437,437,437,437,437,437,437,437,437,437,437,437,437,437,437,437,437,437,437,437,437,437,437,437,437,437,437,437,437,437,437,437,437,437,437,437,437,437,437,437,437,437,437,437,437,437,437,437,437,437,437,437,437,437,437,437,437,437,437,437,437,437,437,437,437,437,437,437,437,437,437,437,437,437,437,437,437,437,437,437,437,437,437,437,437,437,437,437,437,437,437,437,437,437,437,437,437,437,437,437,437,437,437,437,437,437,437,437,437,437,437,437,437,437,437,437,437,437,437,437,437,437,437,437,437,437,437,437,437,437,437,437,437,437,437,437,437,437,437,437,437,437,437,437,437,437,437,437,437,437,437,437,437,437,437,437,437,437,437,437,437,437,437,437,437,437,437,437,437,437,437,437,437,437,437,437,437,437,437,437,437,437,437,437,437,437,437,437,437,437,437,437,437,437,437,437,437,437,437,437,437,437,437,437,437,437,437,437,437,437,437,437,437,437,437,437,437,437,437,437,437,437,437,437,437,437,437,437,437,437,437,437,437,437,437,437,437,437,437,437,437,437,437,437,437,437,437,437,437,437,437,437,437,437,437,437,437,437,437,437,437,437,437,437,437,437,437,437,437,437,437,437,437,437,437,437,437,437,437,437,437,437,437,437,437,437,437,437,437,437,437,437,437,437,437,437,437,437,437,437,437,437,437,437,437,437,437,437,437,437,437,437,437,437,437,437,437,437,437,437,437,437,437,437,437,437,437,437,437,437,437,437,437,437,437,437,437,437,437,437,437,437,437,437,437,437,437,437,437,437,437,437,437,437,437,437,437,437,437,437,437,437,437,437,437,437,437,437,437,437,437,437,430,426,423,415,407,394,385,368,347,339,311,292,268,257,239,216,207,184,153,137,99,73],"timestamp_mouse":[16,38,56,76,96,116,136,156,176,196,216,236,256,276,296,316,336,356,376,396,416,436,456,476,496,516,536,556,576,596,616,636,656,676,696,716,736,756,776,796,816,836,856,876,896,916,936,956,976,996,1016,1036,1056,1076,1096,1116,1136,1156,1176,1196,1216,1236,1256,1276,1296,1316,1336,1356,1376,1396,1416,1436,1456,1476,1496,1516,1536,1556,1576,1596,1616,1636,1656,1676,1696,1716,1736,1756,1776,1796,1816,1836,1856,1876,1896,1916,1936,1956,1976,1996,2016,2036,2056,2076,2096,2116,2136,2156,2176,2196,2216,2236,2256,2276,2296,2316,2336,2356,2376,2396,2416,2436,2456,2476,2496,2516,2536,2556,2576,2596,2616,2636,2656,2676,2696,2716,2736,2756,2776,2796,2816,2836,2856,2876,2896,2916,2936,2956,2976,2996,3016,3036,3056,3076,3096,3116,3136,3156,3176,3199,3216,3236,3256,3276,3296,3316,3336,3356,3376,3396,3416,3436,3456,3476,3496,3516,3536,3556,3576,3596,3616,3636,3656,3676,3696,3716,3736,3756,3776,3796,3816,3836,3856,3876,3896,3916,3936,3956,3976,3996,4016,4037,4056,4076,4096,4116,4136,4156,4176,4196,4216,4236,4256,4276,4296,4316,4336,4356,4376,4396,4416,4436,4456,4476,4496,4516,4536,4556,4576,4596,4616,4636,4656,4676,4696,4716,4736,4756,4776,4796,4816,4836,4856,4876,4896,4916,4936,4956,4976,4996,5016,5037,5056,5076,5096,5116,5136,5156,5176,5196,5216,5236,5256,5276,5296,5316,5336,5356,5376,5396,5416,5436,5456,5476,5496,5516,5536,5556,5576,5596,5616,5636,5656,5676,5696,5716,5736,5756,5776,5796,5816,5836,5856,5876,5896,5916,5936,5956,5976,5996,6016,6037,6056,6076,6096,6116,6136,6156,6176,6196,6216,6236,6256,6276,6296,6316,6336,6356,6376,6396,6416,6436,6456,6476,6496,6516,6536,6556,6576,6596,6616,6636,6656,6676,6696,6716,6736,6756,6776,6796,6816,6836,6856,6877,6896,6917,6937,6957,6977,6997,7017,7037,7057,7077,7096,7117,7137,7157,7177,7197,7217,7236,7256,7277,7297,7317,7337,7357,7377,7397,7417,7437,7457,7477,7497,7517,7537,7557,7576,7596,7617,7637,7657,7677,7697,7717,7737,7757,7777,7797,7817,7837,7857,7877,7897,7917,7937,7957,7977,7997,8017,8037,8057,8077,8097,8117,8137,8157,8177,8197,8217,8237,8257,8277,8297,8317,8337,8357,8377,8397,8417,8437,8457,8477,8497,8517,8537,8557,8577,8597,8617,8637,8657,8677,8697,8717,8737,8757,8777,8797,8817,8837,8857,8877,8897,8917,8937,8957,8977,8997,9017,9037,9057,9077,9097,9117,9137,9157,9177,9197,9217,9237,9257,9277,9297,9317,9337,9357,9377,9397,9417,9437,9457,9477,9497,9517,9537,9557,9577,9597,9617,9637,9657,9677,9697,9717,9737,9757,9777,9797,9817,9837,9857,9877,9897,9917,9937,9957,9977,9997,10017,10037,10057,10077,10097,10117,10137,10157,10177,10197,10217,10237,10257,10277,10297,10317,10337,10357,10377,10397,10417,10437,10457,10477,10497,10517,10537,10557,10577,10597,10617,10637,10657,10677,10697,10717,10737,10757,10777,10797,10817,10837,10857,10877,10897,10917,10937,10957,10977,10997,11017,11037,11057,11077,11097,11117,11137,11157,11177,11197,11217,11237,11257,11277,11297,11317,11337,11357,11377,11397,11417,11437,11457,11477,11497,11517,11537,11557,11577,11597,11617,11637,11657,11677,11697,11717,11737,11757,11777,11797,11817,11837,11857,11877,11897,11917,11937,11957,11977,11997,12017,12037,12057,12077,12097,12117,12137,12157,12177,12197,12217,12237,12257,12277,12297,12317,12337,12357,12377,12397,12417,12437,12457,12477,12497,12517,12537,12557,12577,12597,12617,12637,12657,12677,12696,12717,12737,12757,12777,12797,12817,12837,12856,12877,12897,12917,12937,12957],"xSR":622,"ySR":352.3,"xT1":353.2,"yT1":0,"xT2":890.8,"yT2":0,"toosoon":0,"cond_shown":"randomdotsizeEA","ratio_trial":750,"smaller_num":"3","larger_num":"4","correct_side":1,"subjID":"oscarsantiagorozogonzalez","gender":"0","age":"12","school":"6"},{"start_time":1551791644456,"click_time":1551791646953,"finger_time":1551791646553,"fix_duration":1142.7268852634393,"trial":26,"RT":2097,"MT":400,"sideResp":2,"stimulus":"img/750/randomdotsizeEA/R/7_Ratio_750_L_3_R_4.png","xmouse":[679,679,679,679,679,679,679,679,679,679,679,679,679,679,679,679,679,679,679,679,679,679,679,679,679,679,679,679,679,679,679,679,679,679,679,679,679,679,679,679,679,679,679,679,679,679,679,679,679,679,679,679,679,679,679,679,679,679,679,679,679,679,679,679,679,679,679,679,679,679,679,679,679,679,679,679,679,679,679,679,679,679,679,679,679,679,679,679,679,679,679,679,679,679,679,679,679,679,679,679,679,679,679,709,758,795,804,812,812,812,812,812,823,824,825,825,825,825,825,826,827,827,855,880,916],"ymouse":[410,410,410,410,410,410,410,410,410,410,410,410,410,410,410,410,410,410,410,410,410,410,410,410,410,410,410,410,410,410,410,410,410,410,410,410,410,410,410,410,410,410,410,410,410,410,410,410,410,410,410,410,410,410,410,410,410,410,410,410,410,410,410,410,410,410,410,410,410,410,410,410,410,410,410,410,410,410,410,410,410,410,410,410,410,410,410,410,410,410,410,410,410,410,410,410,410,410,410,410,410,410,408,353,292,251,240,225,223,223,218,213,187,183,177,176,167,141,125,118,112,112,106,98,84],"timestamp_mouse":[21,37,57,77,97,117,137,157,177,197,217,237,257,277,297,317,337,357,377,397,417,437,457,477,497,517,537,557,577,597,617,637,657,677,697,717,737,757,777,797,817,837,857,877,897,917,937,957,977,997,1017,1037,1057,1077,1097,1117,1137,1157,1177,1197,1217,1237,1257,1277,1297,1317,1337,1357,1377,1397,1417,1437,1457,1477,1497,1517,1537,1557,1577,1597,1617,1637,1657,1677,1697,1717,1737,1757,1777,1797,1817,1837,1857,1877,1897,1917,1937,1957,1977,1997,2017,2037,2057,2077,2097,2117,2137,2157,2177,2197,2217,2237,2257,2277,2297,2317,2337,2356,2377,2397,2417,2437,2457,2477,2497],"xSR":622,"ySR":352.3,"xT1":353.2,"yT1":0,"xT2":890.8,"yT2":0,"toosoon":0,"cond_shown":"randomdotsizeEA","ratio_trial":750,"smaller_num":"3","larger_num":"4","correct_side":2,"subjID":"oscarsantiagorozogonzalez","gender":"0","age":"12","school":"6"},{"start_time":1551791650217,"click_time":1551791689956,"finger_time":1551791677477,"fix_duration":1082.2061393324068,"trial":27,"RT":27260,"MT":12479,"sideResp":2,"stimulus":"img/750/equaldotanddens/R/11_Ratio_750_L_12_R_16.png","xmouse":[690,690,690,690,690,690,690,690,690,690,690,690,690,690,690,690,690,690,690,690,690,690,690,690,690,690,690,690,690,690,690,690,690,690,690,690,690,690,690,690,690,690,690,690,690,690,690,690,690,690,690,690,690,690,690,690,690,690,690,690,690,690,690,690,690,690,690,690,690,690,689,689,689,688,688,688,688,688,688,688,688,688,688,688,688,688,688,688,688,688,688,688,688,688,688,688,688,688,688,688,688,688,688,688,688,688,688,688,688,688,688,688,688,688,688,688,688,688,688,688,688,688,688,688,688,688,688,688,688,688,688,688,688,688,688,688,688,688,688,688,688,688,688,688,688,688,688,688,688,688,688,688,688,688,688,688,688,688,688,688,688,688,688,688,688,688,688,688,688,688,688,688,688,688,688,688,688,688,688,688,688,688,688,688,688,688,688,688,688,688,688,688,688,688,688,688,688,688,688,688,688,688,688,688,688,688,688,688,688,688,688,688,688,688,688,688,688,688,688,688,688,688,688,688,688,688,688,688,688,688,688,688,688,688,688,688,688,688,688,688,688,688,688,688,688,688,688,688,688,688,688,688,688,688,688,688,688,688,688,688,688,688,688,688,688,688,688,688,688,688,688,688,688,688,688,688,688,688,688,688,688,688,688,688,688,688,688,688,688,688,688,688,688,688,688,688,688,688,688,688,688,688,688,688,688,688,688,688,688,688,688,688,688,688,688,688,688,688,688,688,688,688,688,688,688,688,688,688,688,688,688,688,688,688,688,688,688,688,688,688,688,688,688,688,688,688,688,688,688,688,688,688,688,688,688,688,688,688,688,688,688,688,688,688,688,688,688,688,688,688,688,688,688,688,688,688,688,688,688,688,688,688,688,688,688,688,688,688,688,688,688,688,688,688,688,688,688,688,688,688,688,688,688,688,688,688,688,688,688,688,688,688,688,688,688,688,688,688,688,688,688,688,688,688,688,688,688,688,688,688,688,688,688,688,688,688,688,688,688,688,688,688,688,688,688,688,688,688,688,688,688,688,688,688,688,688,688,688,688,688,688,688,688,688,688,688,688,688,688,688,688,688,688,688,688,688,688,688,688,688,688,688,688,688,688,688,688,688,688,688,688,688,688,688,688,688,688,688,688,688,688,688,688,688,688,688,688,688,688,688,688,688,688,688,688,688,688,688,688,688,688,688,688,688,688,688,688,688,688,688,688,688,688,688,688,688,688,688,688,688,688,688,688,688,688,688,688,688,688,688,688,688,688,688,688,688,688,688,688,688,688,688,688,688,688,688,688,688,688,688,688,688,688,688,688,688,688,688,688,688,688,688,688,688,688,688,688,688,688,688,688,688,688,688,688,688,688,688,688,688,688,688,688,688,688,688,688,688,688,688,688,688,688,688,688,688,688,688,688,688,688,688,688,688,688,688,688,688,688,688,688,688,688,688,688,688,688,688,688,688,688,688,688,688,688,688,688,688,688,688,688,688,688,688,688,688,688,688,688,688,688,688,688,688,688,688,688,688,688,688,688,688,688,688,688,688,688,688,688,688,688,688,688,688,688,688,688,688,688,688,688,688,688,688,688,688,688,688,688,688,688,688,688,688,688,688,688,688,688,688,688,688,688,688,688,688,688,688,688,688,688,688,688,688,688,688,688,688,688,688,688,688,688,688,688,688,688,688,688,688,688,688,688,688,688,688,688,688,688,688,688,688,688,688,688,688,688,688,688,688,688,688,688,688,688,688,688,688,688,688,688,688,688,688,688,688,688,688,688,688,688,688,688,688,688,688,688,688,688,688,688,688,688,688,688,688,688,688,688,688,688,688,688,688,688,688,688,688,688,688,688,688,688,688,688,688,688,688,688,688,688,688,688,688,688,688,688,688,688,688,688,688,688,688,688,688,688,688,688,688,688,688,688,688,688,688,688,688,688,688,688,688,688,688,688,688,688,688,688,688,688,688,688,688,688,688,688,688,688,688,688,688,688,688,688,688,688,688,688,688,688,688,688,688,688,688,688,688,688,688,688,688,688,688,688,688,688,688,688,688,688,688,688,688,688,688,688,688,688,688,688,688,688,688,688,688,688,688,688,688,688,688,688,688,688,688,688,688,688,688,688,688,688,688,688,688,688,688,688,688,688,688,688,688,688,688,688,688,688,688,688,688,688,688,688,688,688,688,688,688,688,688,688,688,688,688,688,688,688,688,688,688,688,688,688,688,688,688,688,688,688,688,688,688,688,688,688,688,688,688,688,688,688,688,688,688,688,688,688,688,688,688,688,688,688,688,688,688,688,688,688,688,688,688,688,688,688,688,688,688,688,688,688,688,688,688,688,688,688,688,688,688,688,688,688,688,688,688,688,688,688,688,688,688,688,688,688,688,688,688,688,688,688,688,688,688,688,688,688,688,688,688,688,688,688,688,688,688,688,688,688,688,688,688,688,688,688,688,688,688,688,688,688,688,688,688,688,688,688,688,688,688,688,688,688,688,688,688,688,688,688,688,688,688,688,688,688,688,688,688,688,688,688,688,688,688,688,688,688,688,688,688,688,688,688,688,688,688,688,688,688,688,688,688,688,688,688,688,688,688,688,688,688,688,688,688,688,688,688,688,688,688,688,688,688,688,688,688,688,688,688,688,688,688,688,688,688,688,688,688,688,688,688,688,688,688,688,688,688,688,688,688,688,688,688,688,688,688,688,688,688,688,688,688,688,688,688,688,688,688,688,688,688,688,688,688,688,688,688,688,688,688,688,688,688,688,688,688,688,688,688,688,688,688,688,688,688,688,688,688,688,688,688,688,688,688,688,688,688,688,688,688,688,688,688,688,688,688,688,688,688,688,688,688,688,688,688,688,688,688,688,688,688,688,688,688,688,688,688,688,688,688,688,688,688,688,688,688,688,688,688,688,688,688,688,688,688,688,688,688,688,688,688,688,688,688,688,688,688,688,688,688,688,688,688,688,688,688,688,688,688,688,688,688,688,688,688,688,688,688,688,688,688,688,688,688,688,688,688,688,688,688,688,688,688,688,688,688,688,688,688,688,688,688,688,688,688,688,688,688,688,688,688,688,688,688,688,688,688,690,704,717,772,782,782,782,782,787,792,803,811,812,813,814,824,828,837,846,845,845,845,845,845,845,845,845,845,845,845,845,845,845,845,845,845,845,845,845,845,845,845,845,845,845,845,845,845,845,845,845,845,845,845,845,845,845,845,845,845,845,845,845,845,845,845,845,845,840,840,840,840,840,840,850,859,894,920,970,1017,1037,1046,1065,1071,1123,1141,1170,1179,1188,1188,1188,1188,1182,1164,1121,1113,1095,1091,1085,1085,1085,1085,1085,1085,1085,1085,1085,1085,1085,1085,1085,1085,1085,1085,1085,1085,1085,1085,1085,1085,1085,1085,1085,1085,1085,1085,1085,1085,1085,1085,1085,1085,1085,1085,1085,1085,1085,1085,1085,1085,1085,1085,1085,1085,1085,1085,1085,1085,1085,1085,1085,1085,1085,1085,1085,1085,1085,1085,1085,1085,1085,1085,1085,1085,1085,1085,1085,1085,1085,1085,1085,1085,1085,1085,1085,1085,1085,1085,1085,1085,1085,1085,1085,1085,1085,1085,1085,1085,1085,1085,1085,1085,1085,1085,1085,1085,1085,1085,1085,1085,1085,1085,1085,1085,1085,1085,1085,1085,1085,1085,1085,1085,1085,1085,1085,1085,1085,1085,1085,1085,1085,1085,1085,1085,1085,1085,1085,1085,1085,1085,1085,1085,1085,1085,1085,1085,1085,1085,1085,1085,1085,1085,1085,1085,1085,1085,1085,1085,1085,1085,1085,1085,1085,1085,1085,1085,1085,1085,1085,1085,1085,1085,1085,1085,1085,1085,1085,1085,1085,1085,1085,1085,1085,1085,1085,1085,1085,1085,1085,1085,1085,1085,1085,1085,1085,1085,1085,1085,1085,1085,1085,1085,1085,1085,1085,1085,1085,1085,1085,1085,1085,1085,1085,1085,1085,1085,1085,1085,1085,1085,1085,1085,1085,1085,1085,1085,1085,1085,1085,1085,1085,1085,1085,1085,1085,1085,1085,1085,1085,1085,1085,1085,1085,1085,1085,1085,1085,1085,1085,1085,1085,1085,1085,1085,1085,1085,1085,1085,1085,1085,1085,1085,1085,1085,1085,1085,1085,1085,1085,1085,1085,1085,1085,1085,1085,1085,1085,1085,1085,1085,1085,1085,1085,1085,1085,1085,1085,1085,1085,1085,1085,1085,1085,1085,1085,1085,1085,1085,1085,1085,1085,1085,1085,1085,1085,1085,1085,1085,1085,1085,1085,1085,1085,1085,1085,1085,1085,1085,1085,1085,1085,1085,1085,1085,1085,1085,1085,1085,1085,1085,1085,1085,1085,1085,1085,1085,1085,1085,1085,1085,1085,1085,1085,1085,1085,1085,1085,1085,1085,1085,1085,1085,1085,1085,1085,1085,1085,1085,1085,1085,1085,1085,1085,1085,1085,1085,1085,1085,1085,1085,1085,1085,1085,1085,1085,1085,1085,1085,1085,1085,1085,1085,1085,1085,1085,1085,1085,1085,1085,1085,1085,1085,1085,1085,1085,1085,1085,1085,1085,1085,1085,1085,1085,1085,1085,1085,1085,1085,1085,1085,1085,1085,1085,1085,1085,1085,1085,1085,1085,1085,1085,1085,1085,1085,1085,1085,1085,1085,1085,1085,1085,1085,1085,1085,1085,1085,1085,1085,1085,1085,1085,1085,1085,1085,1085,1085,1085,1085,1085,1085,1085,1085,1085,1085,1085,1085,1085,1085,1085,1085,1085,1085,1085,1085,1085,1085,1085,1085,1085,1085,1085,1085,1085,1085,1085,1085,1085,1085,1085,1085,1085,1085,1085,1085,1085,1085,1085,1085,1085,1085,1085,1085,1085,1085,1085,1085,1085,1085,1085,1085,1085,1085,1085,1085,1085,1085,1085,1085,1085,1085,1085,1083,1080,1064,1058,1035,1032,1027,1026,1024,1015,1010,1007,1003,1003,998,998,998,998,998,998,998,998,998,998,998,998,954],"ymouse":[410,410,410,410,410,410,410,410,410,410,410,410,410,410,410,410,410,410,410,410,410,410,410,410,410,410,410,410,410,410,410,410,410,410,410,410,410,410,410,410,410,410,410,410,410,410,410,410,410,410,410,410,410,410,410,410,410,410,410,410,410,410,410,410,410,410,410,410,410,410,410,410,410,410,410,410,410,410,410,410,410,410,410,410,410,410,410,410,410,410,410,410,410,410,410,410,410,410,410,410,410,410,410,410,410,410,410,410,410,410,410,410,410,410,410,410,410,410,410,410,410,410,410,410,410,410,410,410,410,410,410,410,410,410,410,410,410,410,410,410,410,410,410,410,410,410,410,410,410,410,410,410,410,410,410,410,410,410,410,410,410,410,410,410,410,410,410,410,410,410,410,410,410,410,410,410,410,410,410,410,410,410,410,410,410,410,410,410,410,410,410,410,410,410,410,410,410,410,410,410,410,410,410,410,410,410,410,410,410,410,410,410,410,410,410,410,410,410,410,410,410,410,410,410,410,410,410,410,410,410,410,410,410,410,410,410,410,410,410,410,410,410,410,410,410,410,410,410,410,410,410,410,410,410,410,410,410,410,410,410,410,410,410,410,410,410,410,410,410,410,410,410,410,410,410,410,410,410,410,410,410,410,410,410,410,410,410,410,410,410,410,410,410,410,410,410,410,410,410,410,410,410,410,410,410,410,410,410,410,410,410,410,410,410,410,410,410,410,410,410,410,410,410,410,410,410,410,410,410,410,410,410,410,410,410,410,410,410,410,410,410,410,410,410,410,410,410,410,410,410,410,410,410,410,410,410,410,410,410,410,410,410,410,410,410,410,410,410,410,410,410,410,410,410,410,410,410,410,410,410,410,410,410,410,410,410,410,410,410,410,410,410,410,410,410,410,410,410,410,410,410,410,410,410,410,410,410,410,410,410,410,410,410,410,410,410,410,410,410,410,410,410,410,410,410,410,410,410,410,410,410,410,410,410,410,410,410,410,410,410,410,410,410,410,410,410,410,410,410,410,410,410,410,410,410,410,410,410,410,410,410,410,410,410,410,410,410,410,410,410,410,410,410,410,410,410,410,410,410,410,410,410,410,410,410,410,410,410,410,410,410,410,410,410,410,410,410,410,410,410,410,410,410,410,410,410,410,410,410,410,410,410,410,410,410,410,410,410,410,410,410,410,410,410,410,410,410,410,410,410,410,410,410,410,410,410,410,410,410,410,410,410,410,410,410,410,410,410,410,410,410,410,410,410,410,410,410,410,410,410,410,410,410,410,410,410,410,410,410,410,410,410,410,410,410,410,410,410,410,410,410,410,410,410,410,410,410,410,410,410,410,410,410,410,410,410,410,410,410,410,410,410,410,410,410,410,410,410,410,410,410,410,410,410,410,410,410,410,410,410,410,410,410,410,410,410,410,410,410,410,410,410,410,410,410,410,410,410,410,410,410,410,410,410,410,410,410,410,410,410,410,410,410,410,410,410,410,410,410,410,410,410,410,410,410,410,410,410,410,410,410,410,410,410,410,410,410,410,410,410,410,410,410,410,410,410,410,410,410,410,410,410,410,410,410,410,410,410,410,410,410,410,410,410,410,410,410,410,410,410,410,410,410,410,410,410,410,410,410,410,410,410,410,410,410,410,410,410,410,410,410,410,410,410,410,410,410,410,410,410,410,410,410,410,410,410,410,410,410,410,410,410,410,410,410,410,410,410,410,410,410,410,410,410,410,410,410,410,410,410,410,410,410,410,410,410,410,410,410,410,410,410,410,410,410,410,410,410,410,410,410,410,410,410,410,410,410,410,410,410,410,410,410,410,410,410,410,410,410,410,410,410,410,410,410,410,410,410,410,410,410,410,410,410,410,410,410,410,410,410,410,410,410,410,410,410,410,410,410,410,410,410,410,410,410,410,410,410,410,410,410,410,410,410,410,410,410,410,410,410,410,410,410,410,410,410,410,410,410,410,410,410,410,410,410,410,410,410,410,410,410,410,410,410,410,410,410,410,410,410,410,410,410,410,410,410,410,410,410,410,410,410,410,410,410,410,410,410,410,410,410,410,410,410,410,410,410,410,410,410,410,410,410,410,410,410,410,410,410,410,410,410,410,410,410,410,410,410,410,410,410,410,410,410,410,410,410,410,410,410,410,410,410,410,410,410,410,410,410,410,410,410,410,410,410,410,410,410,410,410,410,410,410,410,410,410,410,410,410,410,410,410,410,410,410,410,410,410,410,410,410,410,410,410,410,410,410,410,410,410,410,410,410,410,410,410,410,410,410,410,410,410,410,410,410,410,410,410,410,410,410,410,410,410,410,410,410,410,410,410,410,410,410,410,410,410,410,410,410,410,410,410,410,410,410,410,410,410,410,410,410,410,410,410,410,410,410,410,410,410,410,410,410,410,410,410,410,410,410,410,410,410,410,410,410,410,410,410,410,410,410,410,410,410,410,410,410,410,410,410,410,410,410,410,410,410,410,410,410,410,410,410,410,410,410,410,410,410,410,410,410,410,410,410,410,410,410,410,410,410,410,410,410,410,410,410,410,410,410,410,410,410,410,410,410,410,410,410,410,410,410,410,410,410,410,410,410,410,410,410,410,410,410,410,410,410,410,410,410,410,410,410,410,410,410,410,410,410,410,410,410,410,410,410,410,410,410,410,410,410,410,410,410,410,410,410,410,410,410,410,410,410,410,410,410,410,410,410,410,410,410,410,410,410,410,410,410,410,410,410,410,410,410,410,410,410,410,410,410,410,410,410,410,410,410,410,410,410,410,410,410,410,410,410,410,410,410,410,410,410,410,410,410,410,410,410,410,410,410,410,410,410,410,410,410,410,410,410,410,410,410,410,410,410,410,410,410,410,410,410,410,410,410,410,410,410,410,410,410,410,410,410,410,410,410,410,410,410,410,410,410,410,410,410,410,410,410,410,410,410,410,410,410,410,410,410,410,410,410,410,410,410,410,410,410,410,410,410,410,410,410,410,410,410,410,410,410,410,410,410,410,410,410,410,410,410,410,410,410,410,410,410,410,410,410,410,410,410,410,410,410,410,410,410,410,410,410,410,408,404,391,374,276,255,255,255,254,241,228,208,196,194,194,192,186,182,170,155,149,147,147,147,147,147,147,147,147,147,147,147,147,147,147,147,147,147,147,147,147,147,147,147,147,147,147,147,147,147,147,147,147,147,147,147,147,147,147,147,147,147,147,147,147,147,147,147,146,145,145,145,145,145,145,145,145,148,156,170,186,198,203,216,221,249,257,264,266,269,269,269,269,270,271,271,271,271,271,271,271,271,271,271,271,271,271,271,271,271,271,271,271,271,271,271,271,271,271,271,271,271,271,271,271,271,271,271,271,271,271,271,271,271,271,271,271,271,271,271,271,271,271,271,271,271,271,271,271,271,271,271,271,271,271,271,271,271,271,271,271,271,271,271,271,271,271,271,271,271,271,271,271,271,271,271,271,271,271,271,271,271,271,271,271,271,271,271,271,271,271,271,271,271,271,271,271,271,271,271,271,271,271,271,271,271,271,271,271,271,271,271,271,271,271,271,271,271,271,271,271,271,271,271,271,271,271,271,271,271,271,271,271,271,271,271,271,271,271,271,271,271,271,271,271,271,271,271,271,271,271,271,271,271,271,271,271,271,271,271,271,271,271,271,271,271,271,271,271,271,271,271,271,271,271,271,271,271,271,271,271,271,271,271,271,271,271,271,271,271,271,271,271,271,271,271,271,271,271,271,271,271,271,271,271,271,271,271,271,271,271,271,271,271,271,271,271,271,271,271,271,271,271,271,271,271,271,271,271,271,271,271,271,271,271,271,271,271,271,271,271,271,271,271,271,271,271,271,271,271,271,271,271,271,271,271,271,271,271,271,271,271,271,271,271,271,271,271,271,271,271,271,271,271,271,271,271,271,271,271,271,271,271,271,271,271,271,271,271,271,271,271,271,271,271,271,271,271,271,271,271,271,271,271,271,271,271,271,271,271,271,271,271,271,271,271,271,271,271,271,271,271,271,271,271,271,271,271,271,271,271,271,271,271,271,271,271,271,271,271,271,271,271,271,271,271,271,271,271,271,271,271,271,271,271,271,271,271,271,271,271,271,271,271,271,271,271,271,271,271,271,271,271,271,271,271,271,271,271,271,271,271,271,271,271,271,271,271,271,271,271,271,271,271,271,271,271,271,271,271,271,271,271,271,271,271,271,271,271,271,271,271,271,271,271,271,271,271,271,271,271,271,271,271,271,271,271,271,271,271,271,271,271,271,271,271,271,271,271,271,271,271,271,271,271,271,271,271,271,271,271,271,271,271,271,271,271,271,271,271,271,271,271,271,271,271,271,271,271,271,271,271,271,271,271,271,271,271,271,271,271,271,271,271,271,271,271,271,271,271,271,271,271,271,271,271,271,271,271,271,271,271,271,269,241,234,203,198,193,191,188,169,135,117,78,42,1,1,1,1,1,1,1,1,1,1,1,1,33],"timestamp_mouse":[16,36,56,75,96,116,136,156,176,196,216,236,256,276,296,316,336,356,376,396,416,436,456,476,496,516,536,556,576,596,616,636,656,676,696,716,736,756,776,796,816,836,856,876,896,916,936,956,976,996,1016,1036,1056,1076,1096,1116,1136,1155,1176,1195,1215,1235,1255,1276,1295,1315,1335,1355,1375,1395,1415,1436,1456,1475,1495,1515,1536,1556,1576,1596,1616,1636,1656,1676,1696,1716,1736,1756,1776,1796,1815,1835,1855,1875,1895,1915,1935,1955,1975,1995,2016,2036,2055,2075,2095,2115,2135,2155,2175,2195,2215,2235,2255,2275,2295,2315,2335,2355,2375,2395,2415,2435,2455,2475,2495,2515,2535,2555,2575,2595,2615,2635,2655,2675,2695,2715,2735,2755,2775,2795,2815,2835,2855,2875,2895,2915,2935,2955,2975,2995,3015,3035,3055,3075,3095,3115,3135,3155,3175,3195,3215,3235,3255,3275,3295,3315,3335,3355,3375,3395,3415,3435,3455,3475,3495,3515,3535,3555,3575,3595,3615,3635,3655,3675,3695,3715,3735,3755,3775,3795,3815,3835,3855,3875,3895,3915,3935,3955,3975,3995,4015,4035,4055,4075,4095,4115,4135,4155,4175,4195,4215,4235,4255,4275,4295,4315,4335,4355,4375,4395,4415,4435,4455,4475,4495,4515,4535,4555,4575,4595,4615,4635,4655,4675,4695,4715,4735,4755,4775,4795,4815,4835,4855,4875,4895,4915,4935,4955,4975,4995,5015,5035,5055,5075,5095,5115,5135,5155,5175,5195,5215,5235,5255,5275,5295,5315,5335,5355,5375,5395,5415,5435,5455,5475,5495,5515,5535,5555,5575,5595,5615,5635,5655,5675,5695,5715,5735,5755,5775,5795,5815,5835,5855,5875,5895,5916,5935,5955,5975,5995,6015,6035,6055,6075,6095,6115,6135,6155,6175,6195,6215,6235,6255,6275,6295,6315,6335,6355,6375,6395,6415,6435,6455,6475,6495,6515,6535,6555,6575,6595,6615,6635,6655,6675,6695,6715,6735,6755,6775,6795,6815,6835,6855,6875,6895,6915,6935,6955,6975,6995,7015,7035,7055,7075,7095,7115,7135,7155,7175,7195,7215,7235,7255,7275,7295,7315,7335,7355,7375,7395,7415,7435,7455,7475,7495,7515,7535,7555,7575,7595,7615,7635,7655,7675,7695,7715,7735,7755,7775,7795,7815,7835,7855,7875,7895,7915,7935,7955,7975,7995,8015,8035,8055,8075,8095,8115,8135,8155,8175,8195,8215,8235,8255,8275,8295,8315,8335,8355,8375,8396,8415,8435,8455,8475,8495,8515,8535,8555,8575,8595,8615,8635,8655,8675,8695,8715,8735,8755,8775,8795,8815,8835,8855,8875,8895,8915,8935,8955,8975,8995,9015,9035,9055,9075,9095,9115,9135,9155,9175,9199,9219,9239,9259,9279,9299,9319,9339,9359,9379,9399,9419,9439,9459,9479,9499,9519,9539,9559,9579,9599,9619,9639,9659,9679,9699,9719,9739,9759,9779,9799,9819,9839,9859,9879,9899,9919,9939,9959,9979,9999,10019,10039,10059,10079,10099,10119,10139,10159,10179,10199,10219,10239,10259,10279,10299,10319,10339,10359,10379,10399,10419,10439,10459,10479,10499,10519,10539,10559,10579,10599,10619,10639,10659,10679,10699,10719,10739,10759,10779,10799,10819,10839,10859,10879,10899,10919,10939,10959,10979,10999,11019,11039,11059,11079,11099,11119,11139,11159,11179,11199,11219,11239,11259,11279,11299,11319,11339,11359,11379,11399,11419,11439,11459,11479,11499,11519,11539,11559,11579,11599,11619,11639,11659,11679,11699,11719,11739,11759,11779,11799,11819,11839,11859,11879,11899,11919,11939,11959,11979,11999,12019,12039,12059,12079,12099,12119,12139,12159,12179,12199,12219,12239,12259,12279,12299,12319,12339,12359,12379,12399,12419,12439,12459,12479,12499,12519,12539,12559,12579,12599,12619,12639,12659,12679,12699,12719,12739,12759,12779,12799,12819,12839,12859,12879,12899,12919,12939,12959,12979,12999,13019,13039,13059,13079,13099,13119,13139,13159,13179,13199,13219,13239,13259,13279,13299,13319,13339,13359,13379,13399,13419,13439,13459,13479,13499,13519,13539,13559,13579,13599,13619,13639,13659,13679,13699,13719,13739,13759,13779,13799,13819,13839,13859,13879,13899,13919,13939,13959,13979,13999,14019,14039,14059,14079,14099,14119,14139,14159,14179,14199,14219,14239,14259,14279,14299,14319,14339,14359,14379,14399,14419,14439,14459,14479,14499,14519,14539,14559,14579,14599,14619,14639,14659,14679,14699,14719,14739,14759,14779,14799,14819,14839,14859,14879,14899,14919,14939,14959,14979,14999,15019,15039,15059,15079,15099,15119,15139,15159,15179,15199,15219,15239,15259,15279,15299,15319,15339,15359,15379,15399,15419,15439,15459,15479,15499,15519,15539,15559,15579,15599,15619,15639,15659,15679,15699,15719,15739,15759,15779,15799,15819,15839,15859,15879,15899,15919,15939,15959,15979,15999,16019,16039,16059,16079,16099,16119,16139,16159,16179,16199,16219,16239,16259,16279,16299,16319,16339,16359,16379,16399,16419,16439,16459,16479,16499,16519,16539,16559,16579,16599,16619,16639,16659,16679,16699,16719,16739,16759,16779,16799,16819,16839,16859,16879,16899,16919,16939,16959,16979,16999,17019,17039,17059,17079,17099,17119,17139,17159,17179,17199,17219,17239,17259,17279,17299,17319,17339,17359,17379,17399,17419,17439,17459,17479,17499,17519,17539,17559,17579,17599,17619,17639,17659,17679,17699,17719,17739,17759,17779,17799,17819,17839,17859,17879,17899,17919,17939,17959,17979,17999,18019,18039,18059,18079,18099,18119,18139,18159,18179,18199,18219,18239,18259,18279,18299,18319,18339,18359,18379,18399,18419,18439,18459,18479,18499,18519,18539,18559,18579,18599,18619,18639,18659,18679,18699,18719,18739,18759,18779,18799,18819,18839,18859,18879,18899,18919,18939,18959,18979,18999,19019,19039,19059,19079,19099,19119,19139,19159,19179,19199,19219,19239,19259,19279,19299,19319,19339,19359,19379,19399,19419,19439,19459,19479,19499,19519,19539,19559,19579,19599,19619,19639,19659,19679,19699,19719,19739,19759,19779,19799,19819,19839,19859,19879,19899,19919,19939,19959,19979,19999,20019,20039,20059,20079,20099,20119,20139,20159,20179,20199,20219,20239,20259,20279,20299,20319,20339,20359,20379,20400,20419,20439,20459,20479,20499,20519,20539,20559,20579,20599,20619,20639,20659,20679,20699,20719,20739,20759,20779,20799,20819,20839,20859,20879,20899,20919,20939,20959,20979,20999,21019,21039,21059,21079,21099,21119,21139,21159,21179,21199,21219,21239,21259,21279,21299,21319,21339,21359,21379,21400,21419,21439,21459,21479,21499,21519,21539,21559,21579,21599,21619,21639,21659,21679,21699,21719,21739,21759,21779,21799,21819,21839,21859,21879,21899,21919,21939,21959,21979,21999,22019,22039,22059,22079,22099,22119,22139,22159,22179,22199,22219,22239,22259,22279,22299,22319,22339,22359,22379,22400,22419,22439,22459,22479,22499,22519,22539,22559,22579,22599,22619,22639,22659,22679,22699,22719,22739,22759,22779,22799,22819,22839,22859,22879,22899,22919,22939,22959,22979,22999,23019,23040,23059,23079,23099,23119,23139,23159,23179,23199,23219,23239,23259,23279,23300,23319,23340,23360,23380,23400,23420,23440,23460,23480,23500,23520,23539,23559,23580,23600,23620,23640,23660,23680,23700,23720,23740,23760,23780,23800,23820,23840,23860,23880,23899,23920,23940,23960,23980,24000,24020,24040,24060,24080,24100,24120,24140,24160,24179,24200,24219,24240,24260,24280,24300,24320,24340,24360,24380,24400,24420,24440,24460,24480,24500,24520,24540,24560,24580,24600,24620,24640,24660,24680,24700,24720,24740,24760,24780,24800,24820,24840,24860,24880,24900,24920,24940,24959,24980,25000,25020,25039,25059,25079,25099,25120,25139,25159,25179,25199,25219,25240,25260,25280,25300,25320,25339,25359,25379,25399,25420,25440,25460,25479,25499,25519,25540,25559,25579,25600,25620,25639,25660,25679,25700,25719,25740,25759,25780,25799,25819,25839,25859,25880,25900,25919,25939,25959,25979,25999,26019,26039,26060,26079,26099,26119,26139,26159,26179,26199,26219,26239,26259,26279,26299,26319,26339,26359,26379,26399,26419,26439,26459,26479,26499,26519,26539,26559,26579,26599,26619,26639,26659,26679,26699,26719,26739,26759,26779,26799,26819,26839,26859,26879,26899,26919,26939,26959,26979,26999,27019,27039,27059,27079,27099,27119,27139,27159,27179,27199,27219,27239,27260,27279,27299,27319,27339,27359,27379,27399,27419,27439,27459,27479,27499,27519,27539,27559,27579,27599,27619,27639,27659,27679,27699,27719,27739,27759,27779,27799,27819,27839,27859,27879,27899,27919,27939,27959,27979,27999,28019,28039,28059,28079,28099,28119,28139,28159,28179,28199,28219,28239,28259,28279,28299,28319,28339,28359,28379,28399,28419,28439,28459,28479,28499,28519,28539,28559,28579,28599,28619,28639,28659,28679,28699,28719,28739,28759,28779,28799,28819,28839,28859,28879,28899,28919,28939,28959,28979,28999,29019,29039,29059,29079,29099,29119,29139,29159,29179,29199,29219,29239,29259,29279,29299,29319,29339,29359,29379,29399,29419,29439,29459,29479,29499,29519,29539,29559,29579,29599,29619,29639,29659,29679,29699,29719,29739,29759,29779,29799,29819,29839,29859,29879,29899,29919,29939,29959,29979,29999,30019,30039,30059,30079,30099,30119,30139,30159,30179,30199,30219,30239,30259,30279,30299,30319,30339,30359,30379,30400,30419,30439,30459,30479,30499,30519,30539,30559,30579,30599,30619,30639,30659,30679,30699,30719,30739,30759,30779,30799,30819,30839,30859,30879,30899,30919,30939,30959,30979,30999,31019,31039,31059,31079,31099,31119,31139,31159,31179,31199,31219,31239,31259,31279,31299,31319,31339,31359,31379,31399,31419,31439,31459,31479,31499,31519,31539,31559,31579,31599,31619,31639,31659,31679,31699,31719,31739,31759,31779,31799,31819,31839,31859,31879,31899,31919,31939,31959,31979,31999,32019,32039,32059,32079,32099,32119,32139,32159,32179,32199,32219,32239,32259,32279,32299,32319,32340,32359,32379,32399,32419,32439,32459,32479,32499,32519,32539,32559,32579,32599,32619,32639,32659,32679,32699,32719,32739,32759,32779,32799,32819,32839,32859,32879,32899,32919,32939,32959,32979,32999,33019,33039,33059,33079,33099,33119,33139,33159,33179,33199,33219,33239,33260,33279,33299,33319,33339,33359,33379,33399,33419,33439,33459,33479,33499,33519,33539,33559,33579,33599,33619,33639,33659,33679,33699,33719,33739,33759,33779,33799,33819,33839,33859,33879,33899,33919,33939,33959,33979,33999,34019,34039,34059,34079,34099,34119,34139,34159,34179,34199,34219,34239,34259,34279,34299,34319,34339,34359,34379,34399,34419,34439,34459,34479,34499,34519,34539,34559,34579,34599,34619,34639,34659,34679,34699,34719,34739,34759,34779,34799,34819,34839,34859,34879,34899,34919,34939,34959,34979,34999,35019,35039,35059,35079,35099,35119,35139,35159,35179,35200,35219,35239,35259,35279,35299,35319,35339,35359,35379,35399,35419,35439,35459,35479,35499,35519,35539,35559,35579,35599,35619,35639,35659,35679,35699,35719,35739,35759,35779,35799,35819,35839,35859,35879,35899,35919,35939,35959,35979,35999,36019,36039,36059,36079,36099,36119,36139,36159,36179,36199,36219,36239,36259,36279,36299,36319,36339,36359,36379,36399,36419,36439,36459,36479,36499,36519,36539,36559,36579,36599,36619,36639,36659,36679,36699,36719,36739,36759,36779,36799,36819,36839,36859,36879,36899,36919,36939,36959,36979,36999,37019,37040,37059,37079,37099,37119,37140,37159,37179,37199,37219,37239,37259,37279,37299,37319,37339,37359,37379,37399,37419,37439,37459,37479,37499,37519,37539,37559,37579,37599,37619,37639,37659,37679,37699,37719,37739,37759,37779,37799,37819,37839,37860,37879,37899,37919,37939,37959,37979,37999,38019,38039,38060,38079,38099,38119,38139,38159,38179,38199,38219,38239,38259,38279,38299,38319,38339,38359,38379,38399,38419,38439,38459,38479,38499,38519,38539,38559,38579,38599,38619,38639,38659,38679,38699,38719,38739,38759,38779,38799,38819,38839,38859,38879,38899,38919,38939,38959,38979,38999,39019,39039,39059,39080,39099,39119,39139,39159,39179,39199,39219,39239,39259,39279,39299,39319,39339,39359,39379,39399,39419,39439,39459,39479,39499,39519,39539,39559,39579,39599,39619,39639,39659,39679,39699,39719,39739],"xSR":622,"ySR":352.3,"xT1":353.2,"yT1":0,"xT2":890.8,"yT2":0,"toosoon":0,"cond_shown":"equaldotanddens","ratio_trial":750,"smaller_num":"12","larger_num":"16","correct_side":2,"subjID":"oscarsantiagorozogonzalez","gender":"0","age":"12","school":"6"},{"start_time":1551791691788,"click_time":1551791719720,"finger_time":1551791711756,"fix_duration":250,"trial":28,"RT":19968,"MT":7964,"sideResp":2,"stimulus":"img/750/randomdotsizeEA/R/4_Ratio_750_L_15_R_20.png","xmouse":[639,640,640,640,640,641,641,642,644,647,648,648,648,650,650,650,650,650,650,650,650,650,650,650,650,650,650,650,650,650,650,650,650,650,650,650,650,650,650,650,650,650,650,650,650,650,650,650,650,650,650,650,650,650,650,650,650,650,650,650,650,650,650,650,650,650,650,650,650,650,650,650,650,650,650,650,650,650,650,650,650,650,650,650,650,650,650,650,650,650,650,650,650,650,650,650,650,650,650,650,650,650,650,650,650,650,650,650,650,650,650,650,650,650,650,650,650,650,650,650,650,650,650,650,650,650,650,650,650,650,650,650,650,650,650,650,650,650,650,650,650,650,650,650,650,650,650,650,650,650,650,650,650,650,650,650,650,650,650,650,650,650,650,650,650,650,650,650,650,650,650,650,650,650,650,650,650,650,650,650,650,650,650,650,650,650,650,650,650,650,650,650,650,650,650,650,650,650,650,650,650,650,650,650,650,650,650,650,650,650,650,650,650,650,650,650,650,650,650,650,650,650,650,650,650,650,650,650,650,650,650,650,650,650,650,650,650,650,650,650,650,650,650,650,650,650,650,650,650,650,650,650,650,650,650,650,650,650,650,650,650,650,650,650,650,650,650,650,650,650,650,650,650,650,650,650,650,650,650,650,650,650,650,650,650,650,650,650,650,650,650,650,650,650,650,650,650,650,650,650,650,650,650,650,650,650,650,650,650,650,650,650,650,650,650,650,650,650,650,650,650,650,650,650,650,650,650,650,650,650,650,650,650,650,650,650,650,650,650,650,650,650,650,650,650,650,650,650,650,650,650,650,650,650,650,650,650,650,650,650,650,650,650,650,650,650,650,650,650,650,650,650,650,650,650,650,650,650,650,650,650,650,650,650,650,650,650,650,650,650,650,650,650,650,650,650,650,650,650,650,650,650,650,650,650,650,650,650,650,650,650,650,650,650,650,650,650,650,650,650,650,650,650,650,650,650,650,650,650,650,650,650,650,650,650,650,650,650,650,650,650,650,650,650,650,650,650,650,650,650,650,650,650,650,650,650,650,650,650,650,650,650,650,650,650,650,650,650,650,650,650,650,650,650,650,650,650,650,650,650,650,650,650,650,650,650,650,650,650,650,650,650,650,650,650,650,650,650,650,650,650,650,650,650,650,650,650,650,650,650,650,650,650,650,650,650,650,650,650,650,650,650,650,650,650,650,650,650,650,650,650,650,650,650,650,650,650,650,650,650,650,650,650,650,650,650,650,650,650,650,650,650,650,650,650,650,650,650,650,650,650,650,650,650,650,650,650,650,650,650,650,650,650,650,650,650,650,650,650,650,650,650,650,650,650,650,650,650,650,650,650,650,650,650,650,650,650,650,650,650,650,650,650,650,650,650,650,650,650,650,645,635,624,623,623,623,623,623,623,623,623,623,623,623,623,622,622,624,630,632,636,640,652,664,668,672,675,675,675,675,675,675,675,675,675,675,675,675,675,675,675,675,675,675,675,675,675,675,675,675,675,675,675,675,675,675,675,675,675,675,675,675,675,675,675,675,675,675,675,675,675,675,675,675,675,675,675,675,675,675,675,675,675,675,675,675,675,675,675,675,675,675,675,675,675,675,675,675,675,675,675,675,675,675,675,675,675,675,675,675,675,675,675,675,675,675,675,675,675,675,675,675,675,675,675,675,675,675,675,675,675,675,675,675,675,675,675,675,675,675,675,675,675,675,675,675,675,675,675,675,675,675,675,675,675,675,675,675,675,675,675,675,675,675,675,675,675,675,675,676,677,677,678,678,678,678,678,679,680,681,681,682,682,683,684,684,684,684,684,684,684,684,685,685,685,685,685,685,685,685,685,685,685,685,685,685,685,685,685,685,685,685,685,685,685,685,685,685,686,688,688,689,689,689,689,689,689,689,689,689,689,689,689,689,689,689,689,689,689,689,689,689,689,689,689,689,689,689,689,689,689,689,689,689,689,689,689,689,689,689,689,689,689,689,689,689,689,689,689,689,689,689,689,689,689,689,689,689,689,689,689,689,689,689,689,689,689,689,689,689,689,689,689,690,690,690,690,690,690,690,691,692,692,692,692,693,693,693,693,693,693,693,694,694,694,694,694,694,694,694,694,694,694,694,694,694,695,695,695,695,696,696,696,696,696,696,696,696,697,697,697,698,701,703,705,709,710,712,712,712,712,712,712,712,712,712,712,712,712,712,712,712,712,712,712,712,712,712,712,712,712,713,715,717,717,717,717,717,718,719,720,720,720,721,721,721,721,722,723,723,723,723,723,723,723,724,724,724,724,725,726,728,729,729,729,733,734,734,734,734,735,736,737,737,738,742,743,743,743,743,743,743,743,743,743,743,743,743,743,743,743,743,743,743,743,743,743,743,743,743,743,743,743,743,743,743,743,743,743,743,743,743,743,743,743,743,743,743,743,743,743,743,743,743,743,743,743,743,743,743,743,743,743,743,743,743,743,743,743,743,743,743,743,743,743,743,743,743,743,743,743,743,743,743,743,743,743,743,743,743,743,743,743,743,743,743,743,743,743,743,743,743,743,743,743,743,743,743,743,743,743,743,743,743,743,743,743,743,743,743,743,743,743,743,743,743,743,743,743,743,743,743,743,743,743,743,743,743,743,743,743,743,743,743,743,743,743,743,743,743,743,743,743,743,743,743,743,743,744,744,744,744,744,744,744,744,744,744,744,744,744,744,744,744,744,744,744,744,744,744,744,744,744,744,744,744,744,744,744,744,744,744,744,744,744,745,745,745,745,745,745,745,745,745,745,745,745,745,745,745,745,743,742,742,740,740,740,740,740,740,740,740,740,740,740,740,740,740,740,740,740,740,740,740,740,740,740,740,740,740,740,740,740,740,740,740,740,740,740,740,740,740,740,740,740,740,740,740,740,740,740,740,740,740,740,740,740,740,740,740,740,740,740,740,740,740,740,740,740,740,740,740,740,740,740,740,740,740,740,740,740,740,740,740,740,740,740,739,737,736,736,736,736,734,734,734,733,732,723,722,719,680,670,666,666,666,666,666,666,666,666,666,666,666,666,666,666,666,666,666,666,666,666,666,666,666,666,666,666,666,666,666,666,666,666,666,666,666,666,667,675,689,708,716,718,726,729,737,743,758,776,788,815,834,834,834,834,835,847,859,864,868,873,881,884,887,892],"ymouse":[424,423,423,423,423,423,423,423,423,423,423,423,423,423,423,423,423,423,423,423,423,423,423,423,423,423,423,423,423,423,423,423,423,423,423,423,423,423,423,423,423,423,423,423,423,423,423,423,423,423,423,423,423,423,423,423,423,423,423,423,423,423,423,423,423,423,423,423,423,423,423,423,423,423,423,423,423,423,423,423,423,423,423,423,423,423,423,423,423,423,423,423,423,423,423,423,423,423,423,423,423,423,423,423,423,423,423,423,423,423,423,423,423,423,423,423,423,423,423,423,423,423,423,423,423,423,423,423,423,423,423,423,423,423,423,423,423,423,423,423,423,423,423,423,423,423,423,423,423,423,423,423,423,423,423,423,423,423,423,423,423,423,423,423,423,423,423,423,423,423,423,423,423,423,423,423,423,423,423,423,423,423,423,423,423,423,423,423,423,423,423,423,423,423,423,423,423,423,423,423,423,423,423,423,423,423,423,423,423,423,423,423,423,423,423,423,423,423,423,423,423,423,423,423,423,423,423,423,423,423,423,423,423,423,423,423,423,423,423,423,423,423,423,423,423,423,423,423,423,423,423,423,423,423,423,423,423,423,423,423,423,423,423,423,423,423,423,423,423,423,423,423,423,423,423,423,423,423,4