[{"start_time":1551891439497,"click_time":1551891445532,"finger_time":1551891439513,"fix_duration":740.131405489232,"trial":0,"RT":16,"MT":6019,"sideResp":2,"stimulus":[],"xmouse":[781,781,781,781,781,781,781,781,781,781,781,781,781,781,781,781,781,781,781,781,781,781,781,781,781,781,781,781,781,781,781,781,781,781,781,781,781,781,781,781,781,781,781,781,781,781,781,781,781,781,781,781,781,781,781,781,781,781,781,781,781,781,781,781,781,781,781,781,781,781,781,781,781,781,781,781,781,781,781,781,781,781,781,781,781,781,781,781,781,781,781,781,781,781,781,781,781,781,781,781,781,781,781,781,781,781,781,781,781,781,781,781,781,781,781,781,781,781,781,781,781,781,781,781,781,781,781,781,781,781,781,781,781,781,781,781,781,780,780,780,780,780,780,780,780,780,780,780,780,780,780,780,781,781,781,781,781,781,781,781,781,781,781,781,781,781,781,781,781,781,781,781,781,781,781,782,782,782,782,782,782,782,782,782,782,782,782,782,782,782,782,782,782,782,782,782,782,782,782,782,782,782,782,782,782,782,782,782,782,782,782,782,782,782,782,782,782,782,782,782,782,782,782,782,782,782,782,782,782,782,782,782,782,782,782,782,782,782,782,782,782,782,782,782,782,782,782,782,782,782,782,782,782,782,782,782,782,792,810,828,846,869,901,906,907,909,909,922,948,969,997,1008,1014,1023,1025,1031,1033,1042,1045,1045,1045,1045,1049,1055,1059,1060,1060,1060,1060,1060,1060,1060,1060,1060,1060,1060,1060,1092,1105,1120,1131,1131],"ymouse":[566,566,566,566,566,566,566,566,566,566,566,566,566,566,566,566,566,566,566,566,566,566,566,566,566,566,566,566,566,566,566,566,566,566,566,566,566,566,566,566,566,566,566,566,566,566,566,566,566,566,566,566,566,566,566,566,566,566,566,566,566,566,566,566,566,566,566,566,566,566,566,566,566,566,566,566,566,566,566,566,566,566,566,566,566,566,566,566,566,566,566,566,566,566,566,566,566,566,566,566,566,566,566,566,566,566,566,566,566,566,566,566,566,566,566,566,566,566,566,566,566,566,566,566,566,566,566,566,566,566,566,566,566,566,566,566,566,568,571,573,575,578,587,592,595,599,602,605,607,609,610,611,612,612,612,612,612,612,612,612,612,612,612,612,612,612,612,612,612,612,612,612,612,612,612,612,612,612,612,612,612,612,612,612,612,612,612,612,612,612,612,612,612,612,612,612,612,612,612,612,612,612,612,612,612,612,612,612,612,612,612,612,612,612,612,612,612,612,612,612,612,612,612,612,612,612,612,612,612,612,612,612,612,612,612,612,612,612,612,612,612,612,612,612,612,612,612,612,612,612,612,612,612,612,612,612,612,605,575,552,527,489,419,404,398,392,390,381,367,355,344,337,330,313,304,291,285,260,244,241,240,240,237,234,232,231,231,231,231,231,231,231,231,231,231,231,230,201,183,148,110,99],"timestamp_mouse":[16,36,55,76,95,115,136,156,175,195,216,235,255,275,295,315,336,355,376,395,415,435,456,475,496,515,536,556,576,595,616,636,655,676,695,716,736,755,775,796,815,835,856,875,895,916,936,955,976,996,1016,1035,1056,1076,1096,1115,1136,1156,1176,1195,1216,1236,1255,1275,1296,1315,1336,1355,1375,1395,1415,1436,1455,1475,1495,1515,1536,1556,1576,1596,1615,1635,1655,1675,1695,1716,1735,1755,1775,1795,1816,1835,1855,1875,1895,1915,1936,1955,1975,1996,2016,2035,2055,2075,2096,2115,2136,2155,2176,2196,2215,2236,2256,2275,2295,2315,2335,2355,2375,2395,2416,2435,2455,2475,2495,2515,2535,2556,2575,2596,2615,2636,2655,2675,2696,2715,2735,2755,2775,2795,2816,2836,2855,2875,2896,2915,2936,2955,2975,2995,3015,3035,3055,3075,3094,3114,3135,3154,3176,3196,3215,3235,3256,3275,3295,3315,3336,3355,3376,3395,3415,3435,3456,3475,3495,3516,3535,3555,3575,3595,3615,3635,3656,3676,3695,3715,3735,3755,3775,3795,3815,3835,3856,3875,3895,3916,3936,3955,3975,3995,4015,4036,4055,4075,4095,4115,4135,4155,4175,4195,4215,4235,4255,4276,4295,4315,4335,4356,4375,4396,4415,4436,4456,4476,4496,4516,4536,4555,4576,4595,4615,4635,4655,4675,4695,4715,4735,4756,4776,4796,4816,4835,4856,4875,4895,4915,4936,4955,4976,4995,5015,5035,5055,5076,5095,5115,5135,5155,5176,5196,5215,5236,5255,5276,5296,5316,5336,5355,5375,5395,5415,5435,5456,5476,5496,5516,5536,5555,5576,5595,5615,5635,5655,5676,5695,5715,5735,5755,5774,5795,5816,5836,5856,5875,5896,5915,5935,5955,5975,5995,6016,6035],"xSR":741.5,"ySR":501.8,"xT1":424.9,"yT1":0,"xT2":1058.1,"yT2":0,"toosoon":0,"cond_shown":"Congruent","ratio_trial":100,"L_num":8,"L_den":16,"R_num":2,"R_den":5,"correct_side":1,"subjID":"paulaandreatoropedreros11","gender":"1","age":"11","school":"6","test":{"fix_dur":[250,1500],"timestim":1000,"targets_dim":[100,100],"targets_relative_coord":[0.3,0.7],"size_stim":[880,420],"start_dim":[100,100],"size_start":[300,300],"size_fix":60,"samplingrate":20,"img_types":["Congruent","Incongruent"],"ratios":[100,200,300],"rep_conds":19,"nTrials":120,"trials_to_rest":500,"Trials_order":[36,64,100,65,8,12,81,49,112,71,93,33,85,86,119,90,67,73,105,32,50,63,27,38,5,34,22,74,78,118,18,29,102,10,30,11,28,45,76,39,43,113,44,14,101,98,37,23,6,106,19,79,51,77,110,9,116,117,89,68,17,3,94,1,103,70,35,16,72,58,42,0,69,13,107,99,82,91,115,54,57,104,56,92,21,75,2,61,47,24,96,80,66,108,48,41,84,83,87,53,25,88,20,60,31,114,62,52,40,4,111,109,26,46,7,59,95,55,15,97],"cond_shown":["Congruent","Congruent","Congruent","Incongruent","Congruent","Congruent","Incongruent","Incongruent","Congruent","Incongruent","Incongruent","Incongruent","Incongruent","Congruent","Incongruent","Congruent","Incongruent","Incongruent","Incongruent","Congruent","Congruent","Incongruent","Incongruent","Congruent","Incongruent","Congruent","Congruent","Congruent","Congruent","Congruent","Congruent","Incongruent","Congruent","Congruent","Congruent","Incongruent","Congruent","Incongruent","Congruent","Incongruent","Incongruent","Incongruent","Congruent","Congruent","Incongruent","Congruent","Incongruent","Incongruent","Congruent","Congruent","Incongruent","Incongruent","Incongruent","Incongruent","Congruent","Incongruent","Congruent","Incongruent","Incongruent","Congruent","Incongruent","Incongruent","Congruent","Incongruent","Incongruent","Congruent","Incongruent","Congruent","Congruent","Congruent","Congruent","Congruent","Incongruent","Incongruent","Incongruent","Incongruent","Congruent","Incongruent","Incongruent","Congruent","Incongruent","Congruent","Congruent","Congruent","Incongruent","Incongruent","Congruent","Incongruent","Incongruent","Congruent","Congruent","Congruent","Congruent","Congruent","Congruent","Incongruent","Congruent","Incongruent","Incongruent","Incongruent","Incongruent","Congruent","Congruent","Congruent","Incongruent","Congruent","Congruent","Congruent","Congruent","Congruent","Incongruent","Incongruent","Congruent","Congruent","Incongruent","Incongruent","Incongruent","Incongruent","Incongruent","Incongruent"],"ratio_trial":[100,300,300,300,200,100,200,100,300,300,200,200,100,200,300,100,100,100,200,200,200,200,200,200,300,300,300,200,100,300,100,300,100,300,100,300,300,200,300,200,100,300,200,200,300,200,100,300,100,300,100,100,200,300,200,200,200,200,300,200,300,200,300,100,100,300,300,300,100,300,100,100,200,100,300,200,300,100,100,100,200,200,200,200,200,200,200,100,300,100,100,200,100,100,100,300,100,300,200,300,100,300,200,100,100,100,200,300,300,300,200,100,200,300,100,300,300,100,200,100],"left_num":[8,20,1,13,1,6,1,17,4,13,4,4,6,9,4,3,13,3,3,4,16,7,3,12,4,24,5,13,7,1,6,4,6,24,3,13,1,4,20,7,12,2,3,3,8,4,9,7,11,1,6,3,7,4,6,7,14,3,13,8,2,4,5,11,12,20,4,12,8,1,4,4,7,3,1,7,12,12,10,9,4,6,6,5,6,1,6,10,4,2,7,21,10,8,6,13,3,8,11,1,8,5,3,7,17,2,6,12,5,2,3,9,12,4,4,3,1,8,7,9],"right_num":[2,14,6,12,21,5,3,10,2,12,6,1,3,13,2,2,6,4,1,3,12,12,1,6,2,2,7,14,15,8,15,2,15,2,2,12,19,14,14,6,2,6,11,9,14,3,14,8,6,11,13,7,4,6,11,6,6,11,12,3,6,14,7,9,9,14,2,2,2,6,15,15,14,4,2,8,2,9,8,8,6,3,11,14,3,2,11,8,2,11,9,2,3,2,5,12,2,14,3,3,1,6,9,9,10,11,3,2,6,10,11,14,6,1,8,4,2,1,12,6],"left_den":[16,25,5,26,2,20,2,30,5,26,5,30,12,30,20,6,26,6,10,8,20,10,10,20,20,30,25,26,14,30,12,20,12,30,6,26,3,6,25,15,30,4,10,12,10,8,15,10,22,5,10,9,15,5,20,15,28,4,26,15,4,6,25,22,24,25,20,24,16,5,10,10,10,6,2,10,24,24,25,15,5,15,20,10,20,3,20,25,20,5,14,30,25,16,20,26,6,10,20,2,20,25,12,14,30,5,15,24,25,20,4,15,15,10,8,6,2,20,10,18],"right_den":[5,28,12,15,30,25,10,15,4,15,10,3,5,26,4,5,10,10,2,10,20,24,2,15,4,4,14,20,25,24,25,4,25,4,5,15,30,30,28,9,4,30,22,20,28,10,28,20,15,22,26,30,6,12,22,9,20,20,15,9,30,30,14,15,15,28,4,10,5,12,30,30,28,10,10,16,10,15,16,16,10,15,22,20,6,15,22,16,4,22,15,4,10,5,25,15,5,28,4,15,2,12,20,15,15,22,15,10,12,25,20,28,10,10,20,20,10,2,24,10],"correct_side":[1,1,2,2,2,1,1,2,1,2,1,2,2,2,2,1,2,1,2,1,1,1,2,1,2,1,2,2,2,2,2,2,2,1,1,2,2,1,1,2,2,1,2,2,1,1,1,1,1,2,1,1,2,1,2,2,1,1,2,1,1,1,2,2,2,1,2,1,1,2,2,2,1,1,1,1,1,2,2,1,1,1,2,2,2,1,2,2,2,2,2,1,1,1,1,2,1,1,2,1,2,2,2,2,2,2,1,1,2,2,1,1,1,1,1,1,1,2,1,2],"img_shown":["img2/100/Congruent/L/C_Dist_100_LN_8_LD_16_RN_2_RD_5_0.png","img2/300/Congruent/L/C_Dist_300_LN_20_LD_25_RN_14_RD_28_0.png","img2/300/Congruent/R/C_Dist_300_LN_1_LD_5_RN_6_RD_12_1.png","img2/300/Incongruent/R/I_Dist_300_LN_13_LD_26_RN_12_RD_15_1.png","img2/200/Congruent/R/C_Dist_200_LN_1_LD_2_RN_21_RD_30_1.png","img2/100/Congruent/L/C_Dist_100_LN_6_LD_20_RN_5_RD_25_0.png","img2/200/Incongruent/L/I_Dist_200_LN_1_LD_2_RN_3_RD_10_0.png","img2/100/Incongruent/R/I_Dist_100_LN_17_LD_30_RN_10_RD_15_1.png","img2/300/Congruent/L/C_Dist_300_LN_4_LD_5_RN_2_RD_4_0.png","img2/300/Incongruent/R/I_Dist_300_LN_13_LD_26_RN_12_RD_15_1.png","img2/200/Incongruent/L/I_Dist_200_LN_4_LD_5_RN_6_RD_10_0.png","img2/200/Incongruent/R/I_Dist_200_LN_4_LD_30_RN_1_RD_3_1.png","img2/100/Incongruent/R/I_Dist_100_LN_6_LD_12_RN_3_RD_5_1.png","img2/200/Congruent/R/C_Dist_200_LN_9_LD_30_RN_13_RD_26_1.png","img2/300/Incongruent/R/I_Dist_300_LN_4_LD_20_RN_2_RD_4_1.png","img2/100/Congruent/L/C_Dist_100_LN_3_LD_6_RN_2_RD_5_0.png","img2/100/Incongruent/R/I_Dist_100_LN_13_LD_26_RN_6_RD_10_1.png","img2/100/Incongruent/L/I_Dist_100_LN_3_LD_6_RN_4_RD_10_0.png","img2/200/Incongruent/R/I_Dist_200_LN_3_LD_10_RN_1_RD_2_1.png","img2/200/Congruent/L/C_Dist_200_LN_4_LD_8_RN_3_RD_10_0.png","img2/200/Congruent/L/C_Dist_200_LN_16_LD_20_RN_12_RD_20_0.png","img2/200/Incongruent/L/I_Dist_200_LN_7_LD_10_RN_12_RD_24_0.png","img2/200/Incongruent/R/I_Dist_200_LN_3_LD_10_RN_1_RD_2_1.png","img2/200/Congruent/L/C_Dist_200_LN_12_LD_20_RN_6_RD_15_0.png","img2/300/Incongruent/R/I_Dist_300_LN_4_LD_20_RN_2_RD_4_1.png","img2/300/Congruent/L/C_Dist_300_LN_24_LD_30_RN_2_RD_4_0.png","img2/300/Congruent/R/C_Dist_300_LN_5_LD_25_RN_7_RD_14_1.png","img2/200/Congruent/R/C_Dist_200_LN_13_LD_26_RN_14_RD_20_1.png","img2/100/Congruent/R/C_Dist_100_LN_7_LD_14_RN_15_RD_25_1.png","img2/300/Congruent/R/C_Dist_300_LN_1_LD_30_RN_8_RD_24_1.png","img2/100/Congruent/R/C_Dist_100_LN_6_LD_12_RN_15_RD_25_1.png","img2/300/Incongruent/R/I_Dist_300_LN_4_LD_20_RN_2_RD_4_1.png","img2/100/Congruent/R/C_Dist_100_LN_6_LD_12_RN_15_RD_25_1.png","img2/300/Congruent/L/C_Dist_300_LN_24_LD_30_RN_2_RD_4_0.png","img2/100/Congruent/L/C_Dist_100_LN_3_LD_6_RN_2_RD_5_0.png","img2/300/Incongruent/R/I_Dist_300_LN_13_LD_26_RN_12_RD_15_1.png","img2/300/Congruent/R/C_Dist_300_LN_1_LD_3_RN_19_RD_30_1.png","img2/200/Incongruent/L/I_Dist_200_LN_4_LD_6_RN_14_RD_30_0.png","img2/300/Congruent/L/C_Dist_300_LN_20_LD_25_RN_14_RD_28_0.png","img2/200/Incongruent/R/I_Dist_200_LN_7_LD_15_RN_6_RD_9_1.png","img2/100/Incongruent/R/I_Dist_100_LN_12_LD_30_RN_2_RD_4_1.png","img2/300/Incongruent/L/I_Dist_300_LN_2_LD_4_RN_6_RD_30_0.png","img2/200/Congruent/R/C_Dist_200_LN_3_LD_10_RN_11_RD_22_1.png","img2/200/Congruent/R/C_Dist_200_LN_3_LD_12_RN_9_RD_20_1.png","img2/300/Incongruent/L/I_Dist_300_LN_8_LD_10_RN_14_RD_28_0.png","img2/200/Congruent/L/C_Dist_200_LN_4_LD_8_RN_3_RD_10_0.png","img2/100/Incongruent/L/I_Dist_100_LN_9_LD_15_RN_14_RD_28_0.png","img2/300/Incongruent/L/I_Dist_300_LN_7_LD_10_RN_8_RD_20_0.png","img2/100/Congruent/L/C_Dist_100_LN_11_LD_22_RN_6_RD_15_0.png","img2/300/Congruent/R/C_Dist_300_LN_1_LD_5_RN_11_RD_22_1.png","img2/100/Incongruent/L/I_Dist_100_LN_6_LD_10_RN_13_RD_26_0.png","img2/100/Incongruent/L/I_Dist_100_LN_3_LD_9_RN_7_RD_30_0.png","img2/200/Incongruent/R/I_Dist_200_LN_7_LD_15_RN_4_RD_6_1.png","img2/300/Incongruent/L/I_Dist_300_LN_4_LD_5_RN_6_RD_12_0.png","img2/200/Congruent/R/C_Dist_200_LN_6_LD_20_RN_11_RD_22_1.png","img2/200/Incongruent/R/I_Dist_200_LN_7_LD_15_RN_6_RD_9_1.png","img2/200/Congruent/L/C_Dist_200_LN_14_LD_28_RN_6_RD_20_0.png","img2/200/Incongruent/L/I_Dist_200_LN_3_LD_4_RN_11_RD_20_0.png","img2/300/Incongruent/R/I_Dist_300_LN_13_LD_26_RN_12_RD_15_1.png","img2/200/Congruent/L/C_Dist_200_LN_8_LD_15_RN_3_RD_9_0.png","img2/300/Incongruent/L/I_Dist_300_LN_2_LD_4_RN_6_RD_30_0.png","img2/200/Incongruent/L/I_Dist_200_LN_4_LD_6_RN_14_RD_30_0.png","img2/300/Congruent/R/C_Dist_300_LN_5_LD_25_RN_7_RD_14_1.png","img2/100/Incongruent/R/I_Dist_100_LN_11_LD_22_RN_9_RD_15_1.png","img2/100/Incongruent/R/I_Dist_100_LN_12_LD_24_RN_9_RD_15_1.png","img2/300/Congruent/L/C_Dist_300_LN_20_LD_25_RN_14_RD_28_0.png","img2/300/Incongruent/R/I_Dist_300_LN_4_LD_20_RN_2_RD_4_1.png","img2/300/Congruent/L/C_Dist_300_LN_12_LD_24_RN_2_RD_10_0.png","img2/100/Congruent/L/C_Dist_100_LN_8_LD_16_RN_2_RD_5_0.png","img2/300/Congruent/R/C_Dist_300_LN_1_LD_5_RN_6_RD_12_1.png","img2/100/Congruent/R/C_Dist_100_LN_4_LD_10_RN_15_RD_30_1.png","img2/100/Congruent/R/C_Dist_100_LN_4_LD_10_RN_15_RD_30_1.png","img2/200/Incongruent/L/I_Dist_200_LN_7_LD_10_RN_14_RD_28_0.png","img2/100/Incongruent/L/I_Dist_100_LN_3_LD_6_RN_4_RD_10_0.png","img2/300/Incongruent/L/I_Dist_300_LN_1_LD_2_RN_2_RD_10_0.png","img2/200/Incongruent/L/I_Dist_200_LN_7_LD_10_RN_8_RD_16_0.png","img2/300/Congruent/L/C_Dist_300_LN_12_LD_24_RN_2_RD_10_0.png","img2/100/Incongruent/R/I_Dist_100_LN_12_LD_24_RN_9_RD_15_1.png","img2/100/Incongruent/R/I_Dist_100_LN_10_LD_25_RN_8_RD_16_1.png","img2/100/Congruent/L/C_Dist_100_LN_9_LD_15_RN_8_RD_16_0.png","img2/200/Incongruent/L/I_Dist_200_LN_4_LD_5_RN_6_RD_10_0.png","img2/200/Congruent/L/C_Dist_200_LN_6_LD_15_RN_3_RD_15_0.png","img2/200/Congruent/R/C_Dist_200_LN_6_LD_20_RN_11_RD_22_1.png","img2/200/Congruent/R/C_Dist_200_LN_5_LD_10_RN_14_RD_20_1.png","img2/200/Incongruent/R/I_Dist_200_LN_6_LD_20_RN_3_RD_6_1.png","img2/200/Incongruent/L/I_Dist_200_LN_1_LD_3_RN_2_RD_15_0.png","img2/200/Congruent/R/C_Dist_200_LN_6_LD_20_RN_11_RD_22_1.png","img2/100/Incongruent/R/I_Dist_100_LN_10_LD_25_RN_8_RD_16_1.png","img2/300/Incongruent/R/I_Dist_300_LN_4_LD_20_RN_2_RD_4_1.png","img2/100/Congruent/R/C_Dist_100_LN_2_LD_5_RN_11_RD_22_1.png","img2/100/Congruent/R/C_Dist_100_LN_7_LD_14_RN_9_RD_15_1.png","img2/200/Congruent/L/C_Dist_200_LN_21_LD_30_RN_2_RD_4_0.png","img2/100/Congruent/L/C_Dist_100_LN_10_LD_25_RN_3_RD_10_0.png","img2/100/Congruent/L/C_Dist_100_LN_8_LD_16_RN_2_RD_5_0.png","img2/100/Congruent/L/C_Dist_100_LN_6_LD_20_RN_5_RD_25_0.png","img2/300/Incongruent/R/I_Dist_300_LN_13_LD_26_RN_12_RD_15_1.png","img2/100/Congruent/L/C_Dist_100_LN_3_LD_6_RN_2_RD_5_0.png","img2/300/Incongruent/L/I_Dist_300_LN_8_LD_10_RN_14_RD_28_0.png","img2/200/Incongruent/R/I_Dist_200_LN_11_LD_20_RN_3_RD_4_1.png","img2/300/Incongruent/L/I_Dist_300_LN_1_LD_2_RN_3_RD_15_0.png","img2/100/Incongruent/R/I_Dist_100_LN_8_LD_20_RN_1_RD_2_1.png","img2/300/Congruent/R/C_Dist_300_LN_5_LD_25_RN_6_RD_12_1.png","img2/200/Congruent/R/C_Dist_200_LN_3_LD_12_RN_9_RD_20_1.png","img2/100/Congruent/R/C_Dist_100_LN_7_LD_14_RN_9_RD_15_1.png","img2/100/Incongruent/R/I_Dist_100_LN_17_LD_30_RN_10_RD_15_1.png","img2/100/Congruent/R/C_Dist_100_LN_2_LD_5_RN_11_RD_22_1.png","img2/200/Congruent/L/C_Dist_200_LN_6_LD_15_RN_3_RD_15_0.png","img2/300/Congruent/L/C_Dist_300_LN_12_LD_24_RN_2_RD_10_0.png","img2/300/Congruent/R/C_Dist_300_LN_5_LD_25_RN_6_RD_12_1.png","img2/300/Congruent/R/C_Dist_300_LN_2_LD_20_RN_10_RD_25_1.png","img2/200/Incongruent/L/I_Dist_200_LN_3_LD_4_RN_11_RD_20_0.png","img2/100/Incongruent/L/I_Dist_100_LN_9_LD_15_RN_14_RD_28_0.png","img2/200/Congruent/L/C_Dist_200_LN_12_LD_15_RN_6_RD_10_0.png","img2/300/Congruent/L/C_Dist_300_LN_4_LD_10_RN_1_RD_10_0.png","img2/100/Incongruent/L/I_Dist_100_LN_4_LD_8_RN_8_RD_20_0.png","img2/300/Incongruent/L/I_Dist_300_LN_3_LD_6_RN_4_RD_20_0.png","img2/300/Incongruent/L/I_Dist_300_LN_1_LD_2_RN_2_RD_10_0.png","img2/100/Incongruent/R/I_Dist_100_LN_8_LD_20_RN_1_RD_2_1.png","img2/200/Incongruent/L/I_Dist_200_LN_7_LD_10_RN_12_RD_24_0.png","img2/100/Incongruent/R/I_Dist_100_LN_9_LD_18_RN_6_RD_10_1.png"],"dist100_C":[["C_Dist_100_LN_10_LD_25_RN_3_RD_10_0.png","C_Dist_100_LN_11_LD_22_RN_4_RD_10_0.png","C_Dist_100_LN_11_LD_22_RN_6_RD_15_0.png","C_Dist_100_LN_15_LD_25_RN_13_RD_26_0.png","C_Dist_100_LN_3_LD_6_RN_2_RD_5_0.png","C_Dist_100_LN_6_LD_20_RN_5_RD_25_0.png","C_Dist_100_LN_8_LD_16_RN_2_RD_5_0.png","C_Dist_100_LN_9_LD_15_RN_8_RD_16_0.png"],["C_Dist_100_LN_1_LD_2_RN_18_RD_30_1.png","C_Dist_100_LN_1_LD_2_RN_3_RD_5_1.png","C_Dist_100_LN_12_LD_30_RN_13_RD_26_1.png","C_Dist_100_LN_2_LD_5_RN_11_RD_22_1.png","C_Dist_100_LN_2_LD_5_RN_6_RD_12_1.png","C_Dist_100_LN_3_LD_20_RN_4_RD_16_1.png","C_Dist_100_LN_4_LD_10_RN_15_RD_30_1.png","C_Dist_100_LN_4_LD_8_RN_6_RD_10_1.png","C_Dist_100_LN_6_LD_12_RN_15_RD_25_1.png","C_Dist_100_LN_7_LD_14_RN_15_RD_25_1.png","C_Dist_100_LN_7_LD_14_RN_9_RD_15_1.png"]],"dist100_I":[["I_Dist_100_LN_1_LD_2_RN_8_RD_20_0.png","I_Dist_100_LN_2_LD_4_RN_6_RD_15_0.png","I_Dist_100_LN_2_LD_4_RN_8_RD_20_0.png","I_Dist_100_LN_3_LD_5_RN_11_RD_22_0.png","I_Dist_100_LN_3_LD_5_RN_8_RD_16_0.png","I_Dist_100_LN_3_LD_6_RN_4_RD_10_0.png","I_Dist_100_LN_3_LD_9_RN_7_RD_30_0.png","I_Dist_100_LN_4_LD_8_RN_8_RD_20_0.png","I_Dist_100_LN_6_LD_10_RN_11_RD_22_0.png","I_Dist_100_LN_6_LD_10_RN_13_RD_26_0.png","I_Dist_100_LN_6_LD_10_RN_7_RD_14_0.png","I_Dist_100_LN_9_LD_10_RN_20_RD_25_0.png","I_Dist_100_LN_9_LD_15_RN_13_RD_26_0.png","I_Dist_100_LN_9_LD_15_RN_14_RD_28_0.png"],["I_Dist_100_LN_10_LD_25_RN_8_RD_16_1.png","I_Dist_100_LN_10_LD_25_RN_9_RD_18_1.png","I_Dist_100_LN_11_LD_22_RN_9_RD_15_1.png","I_Dist_100_LN_12_LD_24_RN_9_RD_15_1.png","I_Dist_100_LN_12_LD_30_RN_2_RD_4_1.png","I_Dist_100_LN_13_LD_26_RN_12_RD_20_1.png","I_Dist_100_LN_13_LD_26_RN_6_RD_10_1.png","I_Dist_100_LN_17_LD_30_RN_10_RD_15_1.png","I_Dist_100_LN_6_LD_12_RN_3_RD_5_1.png","I_Dist_100_LN_8_LD_16_RN_6_RD_10_1.png","I_Dist_100_LN_8_LD_20_RN_1_RD_2_1.png","I_Dist_100_LN_9_LD_18_RN_6_RD_10_1.png"]],"dist100_S":[["E_Dist_100_LN_2_LD_12_RN_2_RD_30_0.png","E_Dist_100_LN_6_LD_10_RN_6_RD_12_0.png"],["E_Dist_100_LN_6_LD_12_RN_6_RD_10_1.png"]],"dist200_C":[["C_Dist_200_LN_11_LD_22_RN_3_RD_10_0.png","C_Dist_200_LN_12_LD_15_RN_6_RD_10_0.png","C_Dist_200_LN_12_LD_20_RN_6_RD_15_0.png","C_Dist_200_LN_14_LD_28_RN_6_RD_20_0.png","C_Dist_200_LN_15_LD_25_RN_4_RD_10_0.png","C_Dist_200_LN_16_LD_20_RN_12_RD_20_0.png","C_Dist_200_LN_16_LD_30_RN_9_RD_27_0.png","C_Dist_200_LN_20_LD_25_RN_9_RD_15_0.png","C_Dist_200_LN_21_LD_30_RN_2_RD_4_0.png","C_Dist_200_LN_4_LD_10_RN_3_RD_15_0.png","C_Dist_200_LN_4_LD_8_RN_3_RD_10_0.png","C_Dist_200_LN_6_LD_15_RN_3_RD_15_0.png","C_Dist_200_LN_7_LD_21_RN_2_RD_15_0.png","C_Dist_200_LN_8_LD_15_RN_2_RD_6_0.png","C_Dist_200_LN_8_LD_15_RN_3_RD_9_0.png","C_Dist_200_LN_8_LD_15_RN_7_RD_21_0.png","C_Dist_200_LN_9_LD_20_RN_4_RD_16_0.png"],["C_Dist_200_LN_1_LD_2_RN_21_RD_30_1.png","C_Dist_200_LN_13_LD_26_RN_14_RD_20_1.png","C_Dist_200_LN_3_LD_10_RN_11_RD_22_1.png","C_Dist_200_LN_3_LD_10_RN_14_RD_28_1.png","C_Dist_200_LN_3_LD_10_RN_7_RD_14_1.png","C_Dist_200_LN_3_LD_12_RN_9_RD_20_1.png","C_Dist_200_LN_3_LD_6_RN_14_RD_20_1.png","C_Dist_200_LN_5_LD_10_RN_14_RD_20_1.png","C_Dist_200_LN_6_LD_12_RN_7_RD_10_1.png","C_Dist_200_LN_6_LD_20_RN_11_RD_22_1.png","C_Dist_200_LN_7_LD_15_RN_18_RD_27_1.png","C_Dist_200_LN_9_LD_30_RN_13_RD_26_1.png"]],"dist200_I":[["I_Dist_200_LN_1_LD_2_RN_3_RD_10_0.png","I_Dist_200_LN_1_LD_3_RN_2_RD_15_0.png","I_Dist_200_LN_3_LD_4_RN_11_RD_20_0.png","I_Dist_200_LN_4_LD_5_RN_6_RD_10_0.png","I_Dist_200_LN_4_LD_6_RN_14_RD_30_0.png","I_Dist_200_LN_7_LD_10_RN_12_RD_24_0.png","I_Dist_200_LN_7_LD_10_RN_14_RD_28_0.png","I_Dist_200_LN_7_LD_10_RN_8_RD_16_0.png"],["I_Dist_200_LN_11_LD_20_RN_3_RD_4_1.png","I_Dist_200_LN_14_LD_30_RN_12_RD_18_1.png","I_Dist_200_LN_14_LD_30_RN_6_RD_9_1.png","I_Dist_200_LN_3_LD_10_RN_1_RD_2_1.png","I_Dist_200_LN_4_LD_30_RN_1_RD_3_1.png","I_Dist_200_LN_6_LD_20_RN_3_RD_6_1.png","I_Dist_200_LN_7_LD_15_RN_4_RD_6_1.png","I_Dist_200_LN_7_LD_15_RN_6_RD_9_1.png","I_Dist_200_LN_9_LD_15_RN_8_RD_10_1.png"]],"dist200_S":[["E_Dist_200_LN_3_LD_6_RN_3_RD_10_0.png"],["E_Dist_200_LN_3_LD_10_RN_3_RD_6_1.png"]],"dist300_C":[["C_Dist_300_LN_11_LD_22_RN_1_RD_5_0.png","C_Dist_300_LN_11_LD_22_RN_2_RD_10_0.png","C_Dist_300_LN_11_LD_22_RN_4_RD_20_0.png","C_Dist_300_LN_12_LD_24_RN_2_RD_10_0.png","C_Dist_300_LN_18_LD_20_RN_9_RD_15_0.png","C_Dist_300_LN_20_LD_25_RN_13_RD_26_0.png","C_Dist_300_LN_20_LD_25_RN_14_RD_28_0.png","C_Dist_300_LN_20_LD_25_RN_5_RD_10_0.png","C_Dist_300_LN_20_LD_25_RN_8_RD_16_0.png","C_Dist_300_LN_20_LD_25_RN_9_RD_18_0.png","C_Dist_300_LN_24_LD_30_RN_2_RD_4_0.png","C_Dist_300_LN_24_LD_30_RN_8_RD_16_0.png","C_Dist_300_LN_3_LD_6_RN_2_RD_10_0.png","C_Dist_300_LN_4_LD_10_RN_1_RD_10_0.png","C_Dist_300_LN_4_LD_5_RN_2_RD_4_0.png","C_Dist_300_LN_8_LD_16_RN_1_RD_5_0.png","C_Dist_300_LN_9_LD_10_RN_3_RD_5_0.png"],["C_Dist_300_LN_1_LD_20_RN_7_RD_20_1.png","C_Dist_300_LN_1_LD_3_RN_19_RD_30_1.png","C_Dist_300_LN_1_LD_30_RN_8_RD_24_1.png","C_Dist_300_LN_1_LD_5_RN_11_RD_22_1.png","C_Dist_300_LN_1_LD_5_RN_3_RD_6_1.png","C_Dist_300_LN_1_LD_5_RN_6_RD_12_1.png","C_Dist_300_LN_2_LD_10_RN_12_RD_24_1.png","C_Dist_300_LN_2_LD_20_RN_10_RD_25_1.png","C_Dist_300_LN_3_LD_12_RN_11_RD_20_1.png","C_Dist_300_LN_3_LD_6_RN_4_RD_5_1.png","C_Dist_300_LN_4_LD_20_RN_13_RD_26_1.png","C_Dist_300_LN_5_LD_25_RN_6_RD_12_1.png","C_Dist_300_LN_5_LD_25_RN_7_RD_14_1.png","C_Dist_300_LN_7_LD_14_RN_20_RD_25_1.png","C_Dist_300_LN_8_LD_15_RN_10_RD_12_1.png"]],"dist300_I":[["I_Dist_300_LN_1_LD_2_RN_2_RD_10_0.png","I_Dist_300_LN_1_LD_2_RN_3_RD_15_0.png","I_Dist_300_LN_2_LD_4_RN_6_RD_30_0.png","I_Dist_300_LN_3_LD_6_RN_4_RD_20_0.png","I_Dist_300_LN_4_LD_5_RN_6_RD_12_0.png","I_Dist_300_LN_4_LD_5_RN_8_RD_16_0.png","I_Dist_300_LN_7_LD_10_RN_8_RD_20_0.png","I_Dist_300_LN_8_LD_10_RN_14_RD_28_0.png","I_Dist_300_LN_8_LD_10_RN_9_RD_18_0.png"],["I_Dist_300_LN_13_LD_26_RN_12_RD_15_1.png","I_Dist_300_LN_4_LD_20_RN_2_RD_4_1.png"]],"dist300_S":[["E_Dist_300_LN_9_LD_12_RN_9_RD_20_0.png"],["E_Dist_300_LN_18_LD_30_RN_18_RD_20_1.png","E_Dist_300_LN_3_LD_10_RN_3_RD_5_1.png","E_Dist_300_LN_9_LD_20_RN_9_RD_12_1.png"]],"dist500_C":[["C_Dist_500_LN_10_LD_13_RN_7_RD_26_0.png","C_Dist_500_LN_10_LD_15_RN_4_RD_24_0.png","C_Dist_500_LN_12_LD_16_RN_3_RD_12_0.png","C_Dist_500_LN_12_LD_18_RN_4_RD_24_0.png","C_Dist_500_LN_15_LD_18_RN_5_RD_15_0.png","C_Dist_500_LN_15_LD_20_RN_1_RD_4_0.png","C_Dist_500_LN_18_LD_27_RN_1_RD_6_0.png","C_Dist_500_LN_20_LD_24_RN_1_RD_3_0.png","C_Dist_500_LN_20_LD_24_RN_3_RD_9_0.png","C_Dist_500_LN_20_LD_24_RN_7_RD_21_0.png","C_Dist_500_LN_20_LD_28_RN_3_RD_14_0.png","C_Dist_500_LN_21_LD_28_RN_6_RD_24_0.png","C_Dist_500_LN_22_LD_28_RN_2_RD_7_0.png","C_Dist_500_LN_25_LD_30_RN_9_RD_27_0.png","C_Dist_500_LN_4_LD_6_RN_1_RD_6_0.png","C_Dist_500_LN_5_LD_6_RN_2_RD_6_0.png","C_Dist_500_LN_6_LD_9_RN_1_RD_6_0.png","C_Dist_500_LN_7_LD_10_RN_1_RD_5_0.png","C_Dist_500_LN_8_LD_12_RN_1_RD_6_0.png","C_Dist_500_LN_8_LD_12_RN_4_RD_24_0.png"],["C_Dist_500_LN_1_LD_4_RN_12_RD_16_1.png","C_Dist_500_LN_1_LD_4_RN_9_RD_12_1.png","C_Dist_500_LN_1_LD_9_RN_11_RD_18_1.png","C_Dist_500_LN_10_LD_24_RN_22_RD_24_1.png","C_Dist_500_LN_2_LD_12_RN_10_RD_15_1.png","C_Dist_500_LN_2_LD_12_RN_12_RD_18_1.png","C_Dist_500_LN_2_LD_12_RN_4_RD_6_1.png","C_Dist_500_LN_2_LD_24_RN_7_RD_12_1.png","C_Dist_500_LN_2_LD_5_RN_18_RD_20_1.png","C_Dist_500_LN_2_LD_5_RN_9_RD_10_1.png","C_Dist_500_LN_2_LD_8_RN_12_RD_16_1.png","C_Dist_500_LN_2_LD_8_RN_21_RD_28_1.png","C_Dist_500_LN_3_LD_10_RN_4_RD_5_1.png","C_Dist_500_LN_3_LD_12_RN_15_RD_20_1.png","C_Dist_500_LN_3_LD_30_RN_6_RD_10_1.png","C_Dist_500_LN_3_LD_8_RN_14_RD_16_1.png","C_Dist_500_LN_4_LD_16_RN_15_RD_20_1.png","C_Dist_500_LN_4_LD_24_RN_12_RD_18_1.png","C_Dist_500_LN_5_LD_14_RN_6_RD_7_1.png","C_Dist_500_LN_7_LD_21_RN_20_RD_24_1.png","C_Dist_500_LN_7_LD_28_RN_12_RD_16_1.png","C_Dist_500_LN_7_LD_28_RN_9_RD_12_1.png","C_Dist_500_LN_9_LD_27_RN_20_RD_24_1.png"]],"dist500_I":[["I_Dist_500_LN_2_LD_3_RN_4_RD_24_0.png","I_Dist_500_LN_5_LD_6_RN_6_RD_18_0.png","I_Dist_500_LN_7_LD_8_RN_9_RD_24_0.png"],["I_Dist_500_LN_7_LD_21_RN_5_RD_6_1.png"]],"dist500_S":[["E_Dist_500_LN_6_LD_8_RN_6_RD_24_0.png"],["E_Dist_500_LN_2_LD_12_RN_2_RD_3_1.png","E_Dist_500_LN_6_LD_24_RN_6_RD_8_1.png"]]}},{"start_time":1551891448355,"click_time":1551891450153,"finger_time":1551891449852,"fix_duration":1461.9055391482013,"trial":1,"RT":1497,"MT":301,"sideResp":1,"stimulus":[],"xmouse":[791,791,791,791,791,791,791,791,791,791,791,791,791,791,791,791,791,791,791,791,791,791,791,791,791,791,791,791,791,791,791,791,791,791,791,791,791,791,791,791,791,791,791,791,791,791,791,791,791,791,791,791,791,791,791,791,791,791,791,791,791,791,791,791,791,791,791,791,791,791,791,791,791,791,777,751,723,691,658,627,601,594,590,589,587,584,574,560,545,523],"ymouse":[641,641,641,641,641,641,641,641,641,641,641,641,641,641,641,641,641,641,641,641,641,641,641,641,641,641,641,641,641,641,641,641,641,641,641,641,641,641,641,641,641,641,641,641,641,641,641,641,641,641,641,641,641,641,641,641,641,641,641,641,641,641,641,641,641,641,641,641,641,641,641,641,637,617,427,360,307,254,203,161,133,130,128,127,126,119,108,93,83,69],"timestamp_mouse":[22,36,57,77,98,117,138,157,178,197,218,237,257,278,297,318,337,357,377,398,417,437,458,478,497,518,538,558,578,598,618,638,658,678,697,718,738,757,778,798,817,837,858,877,898,917,937,957,977,997,1017,1038,1057,1077,1097,1117,1137,1157,1178,1197,1217,1237,1257,1277,1297,1317,1337,1357,1377,1397,1417,1437,1458,1477,1497,1517,1537,1558,1577,1597,1618,1638,1658,1678,1697,1718,1737,1758,1778,1798],"xSR":741.5,"ySR":573.95,"xT1":424.9,"yT1":0,"xT2":1058.1,"yT2":0,"toosoon":0,"cond_shown":"Congruent","ratio_trial":300,"L_num":20,"L_den":25,"R_num":14,"R_den":28,"correct_side":1,"subjID":"paulaandreatoropedreros11","gender":"1","school":"6","age":"11"},{"start_time":1551891458881,"click_time":1551891460514,"finger_time":1551891460053,"fix_duration":767.743520376802,"trial":2,"RT":1172,"MT":461,"sideResp":2,"stimulus":[],"xmouse":[780,780,780,780,780,780,780,780,780,780,780,780,780,780,780,780,780,780,780,780,780,780,780,780,780,780,780,780,780,780,780,780,780,780,780,780,780,780,780,780,780,780,780,782,793,799,803,805,805,805,805,805,805,805,805,805,810,818,849,863,880,894,913,938,949,958,968,987,998,998,998,998,998,998,998,998,999,1006,1020,1034,1054,1074],"ymouse":[662,662,662,662,662,662,662,662,662,662,662,662,662,662,662,662,662,662,662,662,662,662,662,662,662,662,662,662,662,662,662,662,662,662,662,662,662,662,662,662,662,662,662,662,644,635,628,625,625,625,625,625,625,625,625,625,619,607,565,545,525,503,479,440,415,390,366,334,313,310,306,300,292,272,250,223,197,158,108,84,62,43],"timestamp_mouse":[11,31,51,72,92,111,132,151,171,192,211,231,252,271,291,311,332,351,371,392,411,432,452,471,491,512,530,551,572,590,612,632,651,672,692,712,732,750,772,791,811,830,852,871,891,912,932,952,971,991,1012,1031,1052,1071,1092,1110,1131,1152,1172,1191,1211,1231,1252,1272,1291,1312,1332,1351,1371,1391,1412,1431,1451,1471,1491,1511,1532,1551,1572,1591,1611,1632],"xSR":741.5,"ySR":573.95,"xT1":424.9,"yT1":0,"xT2":1058.1,"yT2":0,"toosoon":0,"cond_shown":"Congruent","ratio_trial":300,"L_num":1,"L_den":5,"R_num":6,"R_den":12,"correct_side":2,"subjID":"paulaandreatoropedreros11","gender":"1","school":"6","age":"11"},{"start_time":1551891465054,"click_time":1551891467952,"finger_time":1551891467212,"fix_duration":1342.2489168275406,"trial":3,"RT":2158,"MT":740,"sideResp":2,"stimulus":[],"xmouse":[804,804,804,804,804,804,804,804,804,804,804,804,804,804,804,804,804,804,804,804,804,804,804,804,804,804,804,804,804,804,804,804,804,804,804,804,804,804,804,804,804,804,804,804,804,804,804,804,804,804,804,804,804,804,804,804,804,804,804,804,804,804,804,804,804,804,804,804,804,804,804,804,804,804,804,804,804,804,804,804,804,804,804,804,804,804,804,804,804,804,804,804,804,804,804,804,804,804,804,804,804,808,815,831,835,835,839,850,870,907,930,972,1011,1024,1029,1031,1035,1043,1045,1046,1046,1046,1046,1046,1046,1046,1046,1046,1047,1052,1054,1054,1054,1054,1054,1058,1058,1058,1058,1058,1058,1058,1058,1058,1059],"ymouse":[634,634,634,634,634,634,634,634,634,634,634,634,634,634,634,634,634,634,634,634,634,634,634,634,634,634,634,634,634,634,634,634,634,634,634,634,634,634,634,634,634,634,634,634,634,634,634,634,634,634,634,634,634,634,634,634,634,634,634,634,634,634,634,634,634,634,634,634,634,634,634,634,634,634,634,634,634,634,634,634,634,634,634,634,634,634,634,634,634,634,634,634,634,634,634,634,634,634,634,634,634,627,620,603,597,595,590,574,551,494,449,362,271,220,179,162,142,114,91,52,47,44,44,44,44,44,44,44,44,44,44,44,44,44,44,44,44,44,44,44,44,44,44,44,44],"timestamp_mouse":[29,39,58,78,98,118,139,159,178,198,219,238,259,278,299,319,339,359,378,398,418,438,458,479,499,518,539,558,578,599,618,638,659,679,698,719,738,759,778,799,818,839,859,879,898,918,938,958,978,999,1018,1039,1059,1078,1098,1118,1138,1158,1179,1199,1218,1238,1258,1279,1298,1319,1338,1359,1378,1398,1418,1439,1459,1479,1499,1518,1538,1558,1578,1599,1618,1638,1658,1679,1698,1719,1738,1758,1778,1798,1818,1838,1858,1878,1898,1919,1938,1958,1978,1999,2018,2039,2058,2078,2098,2119,2139,2158,2179,2198,2219,2238,2259,2279,2297,2318,2338,2359,2379,2398,2418,2438,2458,2478,2499,2519,2539,2558,2578,2598,2618,2639,2658,2678,2698,2718,2738,2758,2778,2799,2819,2837,2857,2878,2897],"xSR":741.5,"ySR":573.95,"xT1":424.9,"yT1":0,"xT2":1058.1,"yT2":0,"toosoon":0,"cond_shown":"Incongruent","ratio_trial":300,"L_num":13,"L_den":26,"R_num":12,"R_den":15,"correct_side":2,"subjID":"paulaandreatoropedreros11","gender":"1","school":"6","age":"11"},{"start_time":1551891472504,"click_time":1551891474092,"finger_time":1551891473612,"fix_duration":731.1429974109874,"trial":4,"RT":1108,"MT":480,"sideResp":2,"stimulus":[],"xmouse":[831,831,831,831,831,831,831,831,831,831,831,831,831,831,831,831,831,831,831,831,831,831,831,831,831,831,831,831,831,831,831,831,831,831,831,831,831,831,831,831,831,831,831,831,831,831,831,831,831,831,831,831,831,831,831,861,879,930,939,948,960,980,1000,1020,1029,1035,1047,1079,1085,1089,1092,1094,1094,1094,1092,1092,1092,1092,1092,1093],"ymouse":[661,661,661,661,661,661,661,661,661,661,661,661,661,661,661,661,661,661,661,661,661,661,661,661,661,661,661,661,661,661,661,661,661,661,661,661,661,661,661,661,661,661,661,661,661,661,661,661,661,661,661,661,661,661,656,616,591,506,489,475,456,429,405,380,368,361,340,248,226,206,183,165,140,132,126,125,124,111,102,95],"timestamp_mouse":[9,31,48,68,88,108,128,149,169,188,209,228,249,268,289,308,330,349,369,388,408,429,448,468,489,508,529,549,568,589,608,628,650,669,689,708,728,748,769,789,808,829,849,869,888,909,928,949,969,988,1008,1028,1048,1069,1088,1108,1128,1149,1168,1188,1209,1228,1248,1268,1293,1308,1328,1348,1368,1388,1409,1429,1449,1468,1488,1508,1528,1548,1568,1588],"xSR":741.5,"ySR":573.95,"xT1":424.9,"yT1":0,"xT2":1058.1,"yT2":0,"toosoon":0,"cond_shown":"Congruent","ratio_trial":200,"L_num":1,"L_den":2,"R_num":21,"R_den":30,"correct_side":2,"subjID":"paulaandreatoropedreros11","gender":"1","school":"6","age":"11"},{"start_time":1551891477296,"click_time":1551891485074,"finger_time":1551891481372,"fix_duration":1241.0837333272893,"trial":5,"RT":4076,"MT":3702,"sideResp":1,"stimulus":[],"xmouse":[822,822,822,822,822,822,822,822,822,822,822,822,822,822,822,822,822,822,822,822,822,822,822,822,822,822,822,822,822,822,822,822,822,822,822,822,822,822,822,822,822,822,822,822,822,822,822,822,822,822,822,822,822,822,822,822,822,822,822,822,822,822,822,822,822,822,822,822,822,822,822,822,822,822,822,822,822,822,822,822,822,822,822,822,822,822,822,822,822,822,822,822,822,822,822,822,822,822,822,822,822,822,822,822,822,822,822,822,822,822,822,822,822,822,822,822,822,822,822,822,822,822,822,822,822,822,822,822,822,822,822,822,822,822,822,822,822,822,822,822,822,822,822,822,822,822,822,822,822,822,822,822,822,822,822,822,822,822,822,822,822,822,822,822,822,822,822,822,822,822,822,822,822,822,822,822,822,822,820,811,806,803,790,784,782,782,782,782,782,782,781,782,789,791,793,794,794,794,794,794,794,797,814,836,858,876,892,896,896,896,896,896,896,897,891,880,864,825,818,817,817,817,819,821,821,820,812,811,811,811,810,810,809,809,809,809,809,809,809,809,809,809,809,809,809,809,809,809,809,809,809,809,809,809,809,809,809,809,809,809,809,809,809,809,809,809,809,809,809,809,809,804,798,790,776,756,739,733,732,740,743,744,748,749,749,749,749,754,755,755,755,755,755,756,758,767,769,776,776,776,776,776,776,776,776,776,776,776,776,776,776,776,776,776,776,776,776,776,776,776,776,776,776,776,776,776,776,776,776,776,776,776,776,776,776,776,776,776,776,776,776,776,776,776,776,776,776,776,776,776,776,776,776,776,776,776,776,776,776,776,776,776,776,776,776,776,776,776,776,776,776,776,776,776,776,776,776,776,781,802,821,824,823,803,790,767,730,573,506],"ymouse":[602,602,602,602,602,602,602,602,602,602,602,602,602,602,602,602,602,602,602,602,602,602,602,602,602,602,602,602,602,602,602,602,602,602,602,602,602,602,602,602,602,602,602,602,602,602,602,602,602,602,602,602,602,602,602,602,602,602,602,602,602,602,602,602,602,602,602,602,602,602,602,602,602,602,602,602,602,602,602,602,602,602,602,602,602,602,602,602,602,602,602,602,602,602,602,602,602,602,602,602,602,602,602,602,602,602,602,602,602,602,602,602,602,602,602,602,602,602,602,602,602,602,602,602,602,602,602,602,602,602,602,602,602,602,602,602,602,602,602,602,602,602,602,602,602,602,602,602,602,602,602,602,602,602,602,602,602,602,602,602,602,602,602,602,602,602,602,602,602,602,602,602,602,602,602,602,602,602,603,611,613,615,622,626,628,628,628,628,628,628,629,629,629,629,628,627,627,627,627,627,627,627,659,699,736,758,773,776,776,776,776,776,776,776,768,757,746,712,701,697,694,692,689,681,668,649,630,625,625,625,625,625,625,625,625,625,625,625,625,625,625,625,625,625,625,625,625,625,625,625,625,625,625,625,625,625,625,625,625,625,625,625,625,625,625,625,625,625,625,625,625,627,634,642,651,663,675,678,678,670,665,661,655,654,653,653,653,649,648,648,648,648,648,648,646,633,630,622,622,622,622,622,622,622,622,622,622,622,622,622,622,622,622,622,622,622,622,622,622,622,622,622,622,622,622,622,622,622,622,622,622,622,622,622,622,622,622,622,622,622,622,622,622,622,622,622,622,622,622,622,622,622,622,622,622,622,622,622,622,622,622,622,622,622,622,622,622,622,622,622,622,622,622,622,622,622,622,622,608,515,421,380,357,293,264,222,177,64,34],"timestamp_mouse":[16,37,57,77,96,116,136,156,177,197,216,236,257,276,297,317,336,357,377,397,417,437,456,476,497,516,537,557,577,596,616,636,656,676,696,716,736,757,776,796,817,836,857,876,897,917,937,957,977,998,1017,1037,1057,1077,1097,1116,1136,1157,1177,1197,1216,1237,1256,1276,1296,1316,1336,1357,1377,1396,1417,1437,1456,1476,1497,1516,1536,1557,1576,1597,1616,1637,1657,1677,1697,1717,1736,1756,1777,1796,1816,1837,1857,1876,1897,1917,1936,1956,1977,1996,2017,2036,2057,2076,2096,2117,2136,2156,2177,2197,2217,2236,2256,2276,2296,2316,2336,2357,2376,2396,2416,2436,2457,2476,2497,2517,2536,2556,2576,2596,2617,2636,2656,2676,2697,2716,2736,2757,2776,2797,2817,2836,2857,2877,2897,2917,2936,2956,2976,2997,3016,3037,3056,3076,3097,3117,3136,3157,3176,3196,3216,3237,3256,3276,3297,3316,3336,3357,3376,3397,3416,3436,3457,3476,3497,3516,3536,3557,3577,3596,3616,3636,3657,3676,3697,3716,3736,3757,3776,3796,3817,3836,3856,3877,3896,3916,3937,3956,3976,3996,4016,4037,4055,4076,4096,4117,4136,4156,4176,4196,4217,4236,4257,4276,4296,4316,4336,4356,4376,4396,4417,4436,4457,4477,4496,4516,4536,4556,4577,4597,4616,4638,4656,4677,4697,4716,4737,4756,4776,4796,4816,4837,4857,4876,4897,4917,4937,4957,4977,4996,5017,5036,5056,5077,5097,5116,5136,5156,5177,5197,5217,5236,5257,5277,5296,5317,5336,5356,5377,5396,5416,5436,5456,5476,5496,5517,5536,5556,5577,5596,5616,5636,5657,5676,5696,5716,5736,5756,5776,5796,5816,5836,5857,5876,5896,5916,5937,5956,5976,5996,6016,6037,6057,6076,6096,6116,6136,6156,6176,6197,6217,6236,6257,6277,6296,6317,6336,6357,6376,6396,6417,6436,6456,6477,6496,6516,6536,6557,6577,6597,6616,6637,6656,6676,6696,6717,6736,6756,6777,6796,6817,6837,6857,6876,6896,6916,6937,6956,6977,6996,7017,7036,7056,7077,7097,7116,7136,7156,7177,7196,7216,7236,7257,7277,7297,7316,7336,7356,7376,7397,7416,7436,7457,7477,7496,7516,7537,7557,7576,7597,7616,7636,7657,7676,7697,7716,7737,7756,7777],"xSR":741.5,"ySR":573.95,"xT1":424.9,"yT1":0,"xT2":1058.1,"yT2":0,"toosoon":0,"cond_shown":"Congruent","ratio_trial":100,"L_num":6,"L_den":20,"R_num":5,"R_den":25,"correct_side":1,"subjID":"paulaandreatoropedreros11","gender":"1","school":"6","age":"11"},{"start_time":1551891489148,"click_time":1551891496354,"finger_time":1551891491414,"fix_duration":894.8448689765842,"trial":6,"RT":2266,"MT":4940,"sideResp":1,"stimulus":[],"xmouse":[807,807,807,807,807,807,807,807,807,807,807,807,807,807,807,807,807,807,807,807,807,807,807,807,807,807,807,807,807,807,807,807,807,807,807,807,807,807,807,807,807,807,807,807,807,807,807,807,807,807,807,807,807,807,807,807,807,807,807,807,807,807,807,807,807,807,807,807,807,807,807,807,807,807,807,807,807,807,807,807,807,807,807,807,807,807,807,807,807,807,807,807,807,807,807,807,807,807,807,807,807,807,807,807,807,807,807,807,807,807,807,813,820,846,852,859,859,859,859,859,859,859,859,859,859,852,846,843,840,840,840,840,840,840,840,840,840,840,840,840,840,840,840,840,840,840,840,840,840,840,840,840,840,840,840,840,840,840,840,842,848,848,848,845,840,836,828,826,822,818,811,808,803,798,790,755,740,730,723,719,719,719,719,719,719,719,719,719,719,719,719,719,719,719,719,719,719,717,713,707,697,678,668,659,651,640,639,639,639,639,639,639,639,639,638,633,630,626,624,623,620,619,618,617,615,614,613,612,610,607,597,592,588,584,581,574,571,567,564,560,555,553,552,549,549,546,541,533,526,515,509,508,507,507,507,506,505,504,502,498,494,490,489,488,487,486,485,485,485,485,484,484,484,483,482,481,481,481,481,481,481,481,481,481,481,481,481,481,481,481,481,481,481,481,481,481,481,481,481,481,481,482,482,482,482,482,482,483,483,483,484,484,484,484,484,485,487,488,489,489,490,490,491,492,493,503,510,517,522,526,531,534,537,543,552,555,563,566,569,575,581,583,583,583,583,583,583,583,583,582,581,576,572,568,564,563,552,549,543,539,524],"ymouse":[635,635,635,635,635,635,635,635,635,635,635,635,635,635,635,635,635,635,635,635,635,635,635,635,635,635,635,635,635,635,635,635,635,635,635,635,635,635,635,635,635,635,635,635,635,635,635,635,635,635,635,635,635,635,635,635,635,635,635,635,635,635,635,635,635,635,635,635,635,635,635,635,635,635,635,635,635,635,635,635,635,635,635,635,635,635,635,635,635,635,635,635,635,635,635,635,635,635,635,635,635,635,635,635,635,635,635,635,635,635,635,629,618,572,560,550,550,550,550,550,550,550,550,550,551,567,578,584,588,588,588,588,588,588,588,588,588,588,588,588,588,588,588,588,588,588,588,588,588,588,588,588,588,588,588,588,588,585,576,558,530,523,516,511,505,499,491,488,484,480,471,468,464,459,454,430,421,416,412,410,410,410,410,410,410,410,410,410,410,410,410,410,410,410,410,410,410,408,404,396,386,365,356,343,323,275,263,259,256,256,256,256,256,255,252,243,239,234,233,231,227,225,223,222,221,220,220,219,218,217,213,211,210,208,206,204,204,202,202,200,197,196,194,193,192,191,189,187,184,180,176,174,173,173,172,171,170,168,165,161,157,151,149,147,146,143,141,141,140,140,138,137,135,134,132,128,128,128,128,128,128,128,128,128,128,128,128,128,128,128,128,128,128,128,128,128,127,126,125,123,122,121,119,119,119,119,119,119,119,119,118,117,117,117,117,116,114,114,112,112,111,111,110,110,110,108,108,108,108,108,108,108,108,110,111,111,111,111,111,111,111,111,111,111,111,111,111,111,111,111,111,109,107,105,103,103,97,95,92,89,79],"timestamp_mouse":[9,31,44,64,85,105,125,146,165,185,205,225,244,265,285,305,324,344,365,384,405,424,444,466,485,505,525,545,565,586,606,626,646,665,684,705,724,745,765,784,804,826,846,865,886,904,924,945,966,985,1005,1025,1046,1065,1085,1105,1125,1145,1164,1184,1204,1224,1244,1264,1284,1304,1324,1344,1364,1384,1404,1424,1444,1464,1484,1504,1525,1544,1564,1584,1604,1624,1644,1664,1684,1705,1726,1746,1766,1785,1805,1825,1846,1865,1884,1905,1925,1945,1966,1986,2006,2026,2045,2064,2086,2106,2125,2145,2165,2185,2205,2225,2245,2266,2286,2306,2326,2346,2365,2385,2405,2426,2445,2466,2484,2505,2526,2546,2565,2586,2605,2626,2646,2665,2684,2706,2725,2745,2765,2785,2805,2824,2845,2864,2885,2905,2926,2946,2965,2985,3005,3024,3046,3066,3085,3104,3124,3145,3165,3185,3205,3225,3245,3266,3284,3304,3324,3344,3365,3384,3405,3425,3445,3465,3486,3505,3524,3544,3565,3585,3605,3625,3646,3665,3685,3705,3725,3745,3766,3785,3806,3825,3845,3866,3885,3905,3924,3944,3965,3985,4005,4025,4045,4065,4085,4105,4125,4145,4165,4186,4205,4225,4245,4264,4286,4305,4324,4344,4366,4385,4404,4425,4445,4465,4484,4505,4525,4545,4565,4586,4604,4625,4645,4665,4684,4705,4724,4745,4776,4785,4805,4825,4845,4865,4885,4905,4925,4944,4965,4984,5005,5024,5045,5066,5085,5105,5125,5146,5166,5185,5204,5224,5245,5266,5285,5305,5324,5345,5365,5385,5405,5426,5446,5465,5486,5505,5525,5546,5565,5584,5605,5624,5645,5666,5684,5705,5725,5745,5765,5785,5805,5826,5844,5864,5885,5904,5925,5945,5966,5985,6005,6025,6045,6065,6086,6106,6126,6144,6166,6184,6205,6226,6244,6264,6284,6304,6325,6345,6364,6385,6405,6425,6445,6465,6485,6505,6524,6544,6564,6584,6605,6624,6646,6666,6685,6704,6725,6745,6765,6786,6805,6825,6845,6864,6884,6904,6925,6946,6965,6985,7005,7025,7045,7066,7086,7104,7124,7144,7164,7184,7206],"xSR":741.5,"ySR":573.95,"xT1":424.9,"yT1":0,"xT2":1058.1,"yT2":0,"toosoon":0,"cond_shown":"Incongruent","ratio_trial":200,"L_num":1,"L_den":2,"R_num":3,"R_den":10,"correct_side":1,"subjID":"paulaandreatoropedreros11","gender":"1","school":"6","age":"11"},{"start_time":1551891503497,"click_time":1551891506073,"finger_time":1551891505434,"fix_duration":1004.3342874192755,"trial":7,"RT":1937,"MT":639,"sideResp":2,"stimulus":[],"xmouse":[799,799,799,799,799,799,799,799,799,799,799,799,799,799,799,799,799,799,799,799,799,799,799,799,799,799,799,799,799,799,799,799,799,799,799,799,799,799,799,799,799,799,799,799,799,799,799,799,799,799,799,799,799,799,799,799,799,799,799,799,799,799,799,799,799,799,799,799,799,799,799,799,799,799,799,799,799,799,799,799,799,799,799,799,799,799,799,799,799,799,799,799,799,799,809,838,869,962,1027,1097,1159,1200,1228,1231,1231,1231,1231,1231,1231,1231,1232,1229,1189,1176,1171,1170,1170,1170,1170,1170,1170,1170,1170,1170,1170,1170,1170,1168,1149],"ymouse":[636,636,636,636,636,636,636,636,636,636,636,636,636,636,636,636,636,636,636,636,636,636,636,636,636,636,636,636,636,636,636,636,636,636,636,636,636,636,636,636,636,636,636,636,636,636,636,636,636,636,636,636,636,636,636,636,636,636,636,636,636,636,636,636,636,636,636,636,636,636,636,636,636,636,636,636,636,636,636,636,636,636,636,636,636,636,636,636,636,636,636,636,636,632,623,598,569,458,378,285,198,142,113,112,112,112,112,112,112,112,111,107,83,75,71,70,70,70,70,70,70,70,70,70,70,70,70,68,62],"timestamp_mouse":[20,41,56,76,97,116,137,156,176,197,216,235,257,276,296,316,336,356,376,397,416,435,456,476,496,516,536,557,575,596,617,637,656,675,697,716,737,755,776,795,817,837,856,877,897,917,936,957,977,996,1017,1036,1056,1075,1095,1115,1136,1156,1177,1196,1216,1236,1256,1276,1295,1315,1337,1357,1376,1397,1416,1436,1455,1476,1496,1516,1537,1556,1577,1596,1617,1636,1656,1677,1697,1716,1736,1757,1775,1797,1816,1837,1857,1876,1895,1916,1937,1956,1975,1996,2016,2035,2056,2075,2097,2116,2137,2156,2176,2196,2216,2235,2256,2276,2297,2316,2336,2357,2376,2397,2417,2437,2456,2476,2495,2515,2536,2555,2576],"xSR":741.5,"ySR":573.95,"xT1":424.9,"yT1":0,"xT2":1058.1,"yT2":0,"toosoon":0,"cond_shown":"Incongruent","ratio_trial":100,"L_num":17,"L_den":30,"R_num":10,"R_den":15,"correct_side":2,"subjID":"paulaandreatoropedreros11","gender":"1","school":"6","age":"11"},{"start_time":1551891512335,"click_time":1551891513972,"finger_time":1551891513534,"fix_duration":801.8686449077993,"trial":8,"RT":1199,"MT":438,"sideResp":1,"stimulus":[],"xmouse":[821,821,821,821,821,821,821,821,821,821,821,821,821,821,821,821,821,821,821,821,821,821,821,821,821,821,821,821,821,821,821,821,821,821,821,821,821,821,821,821,821,821,821,821,821,821,821,821,821,821,821,821,821,821,821,807,792,781,764,745,705,694,683,676,666,633,621,612,606,599,597,592,584,573,558,541,530,530,530,530,528,523],"ymouse":[647,647,647,647,647,647,647,647,647,647,647,647,647,647,647,647,647,647,647,647,647,647,647,647,647,647,647,647,647,647,647,647,647,647,647,647,647,647,647,647,647,647,647,647,647,647,647,647,647,647,647,647,647,647,647,644,634,618,589,552,490,472,449,425,393,300,280,263,250,236,193,158,128,109,90,71,57,57,57,57,56,55],"timestamp_mouse":[17,38,58,77,98,119,138,157,177,198,218,237,259,279,298,318,338,358,377,398,418,439,459,478,498,518,538,558,578,598,618,638,658,678,697,719,738,758,779,798,818,837,858,878,898,918,939,958,977,997,1017,1039,1059,1079,1097,1118,1138,1158,1179,1199,1218,1238,1258,1278,1298,1318,1337,1357,1378,1399,1418,1437,1458,1477,1497,1518,1537,1558,1578,1598,1618,1637],"xSR":741.5,"ySR":573.95,"xT1":424.9,"yT1":0,"xT2":1058.1,"yT2":0,"toosoon":0,"cond_shown":"Congruent","ratio_trial":300,"L_num":4,"L_den":5,"R_num":2,"R_den":4,"correct_side":1,"subjID":"paulaandreatoropedreros11","gender":"1","school":"6","age":"11"},{"start_time":1551891516853,"click_time":1551891518633,"finger_time":1551891518153,"fix_duration":1297.180472976636,"trial":9,"RT":1300,"MT":480,"sideResp":2,"stimulus":[],"xmouse":[789,789,789,789,789,789,789,789,789,789,789,789,789,789,789,789,789,789,789,789,789,789,789,789,789,789,789,789,789,789,789,789,789,789,789,789,789,789,789,789,789,789,789,789,789,789,789,789,789,789,789,789,789,789,789,789,789,789,789,789,789,789,789,802,816,955,995,1018,1035,1057,1144,1156,1159,1165,1167,1170,1170,1170,1170,1170,1170,1170,1170,1170,1170,1166,1164,1163,1162,1156],"ymouse":[628,628,628,628,628,628,628,628,628,628,628,628,628,628,628,628,628,628,628,628,628,628,628,628,628,628,628,628,628,628,628,628,628,628,628,628,628,628,628,628,628,628,628,628,628,628,628,628,628,628,628,628,628,628,628,628,628,628,628,628,628,628,628,616,602,506,484,471,458,430,222,161,132,117,108,103,103,101,98,91,84,84,84,84,84,80,79,77,70,62],"timestamp_mouse":[9,28,40,61,80,100,121,140,161,180,199,220,240,261,280,300,319,340,360,380,400,420,440,460,480,501,520,541,559,580,601,620,641,661,679,701,721,741,759,780,800,820,840,860,880,901,920,940,961,980,1000,1021,1041,1061,1081,1101,1120,1140,1160,1179,1199,1220,1240,1260,1281,1300,1320,1340,1360,1380,1400,1421,1441,1460,1481,1501,1520,1541,1559,1579,1600,1619,1641,1660,1680,1700,1719,1739,1759,1780],"xSR":741.5,"ySR":573.95,"xT1":424.9,"yT1":0,"xT2":1058.1,"yT2":0,"toosoon":0,"cond_shown":"Incongruent","ratio_trial":300,"L_num":13,"L_den":26,"R_num":12,"R_den":15,"correct_side":2,"subjID":"paulaandreatoropedreros11","gender":"1","school":"6","age":"11"},{"start_time":1551891520833,"click_time":1551891521953,"finger_time":1551891521592,"fix_duration":919.1073393870091,"trial":10,"RT":759,"MT":361,"sideResp":1,"stimulus":[],"xmouse":[801,801,801,801,801,801,801,801,801,801,801,801,801,801,801,801,801,801,801,801,801,801,801,801,801,801,801,801,801,801,801,801,799,794,788,768,756,747,745,745,745,745,743,742,736,714,699,684,670,646,628,584,565,544,526,494],"ymouse":[621,621,621,621,621,621,621,621,621,621,621,621,621,621,621,621,621,621,621,621,621,621,621,621,621,621,621,621,621,621,621,621,621,619,613,592,578,569,566,566,566,566,566,566,563,548,535,517,500,475,461,402,361,305,230,93],"timestamp_mouse":[20,41,60,80,101,120,139,161,181,200,220,240,261,279,300,319,339,361,380,401,421,439,459,479,499,520,540,560,580,599,620,641,661,680,699,719,741,759,779,800,821,841,860,880,901,919,940,960,980,1001,1020,1041,1060,1080,1099,1120],"xSR":741.5,"ySR":573.95,"xT1":424.9,"yT1":0,"xT2":1058.1,"yT2":0,"toosoon":0,"cond_shown":"Incongruent","ratio_trial":200,"L_num":4,"L_den":5,"R_num":6,"R_den":10,"correct_side":1,"subjID":"paulaandreatoropedreros11","gender":"1","school":"6","age":"11"},{"start_time":1551891523969,"click_time":1551891525513,"finger_time":1551891524953,"fix_duration":534.2007465081617,"trial":11,"RT":984,"MT":560,"sideResp":2,"stimulus":[],"xmouse":[781,781,781,781,781,781,781,781,781,781,781,781,781,781,781,781,781,781,781,781,781,781,781,781,781,778,772,769,767,767,767,767,767,767,767,767,767,767,767,767,767,767,767,768,774,782,796,816,835,844,844,844,844,844,851,863,878,902,932,1014,1064,1107,1133,1154,1185,1207,1214,1216,1216,1214,1213,1212,1209,1200,1177,1167,1159,1151],"ymouse":[620,620,620,620,620,620,620,620,620,620,620,620,620,620,620,620,620,620,620,620,620,620,620,620,620,614,601,596,594,594,594,594,594,594,594,594,594,594,594,594,594,594,594,594,593,591,587,582,580,580,580,580,580,580,576,568,555,529,498,380,318,268,232,197,141,76,50,29,10,0,0,0,1,16,40,46,51,60],"timestamp_mouse":[8,28,45,65,83,105,124,144,164,183,204,225,244,264,284,305,324,344,363,384,403,423,443,463,485,503,523,543,564,584,604,625,645,664,684,704,723,743,763,783,804,825,845,863,884,905,924,944,963,984,1004,1025,1045,1065,1084,1104,1124,1144,1164,1184,1204,1225,1245,1264,1283,1305,1324,1343,1363,1384,1404,1423,1444,1464,1483,1503,1523,1544],"xSR":741.5,"ySR":573.95,"xT1":424.9,"yT1":0,"xT2":1058.1,"yT2":0,"toosoon":0,"cond_shown":"Incongruent","ratio_trial":200,"L_num":4,"L_den":30,"R_num":1,"R_den":3,"correct_side":2,"subjID":"paulaandreatoropedreros11","gender":"1","school":"6","age":"11"},{"start_time":1551891530170,"click_time":1551891531633,"finger_time":1551891531092,"fix_duration":795.2162199937718,"trial":12,"RT":922,"MT":541,"sideResp":1,"stimulus":[],"xmouse":[777,777,777,777,777,777,777,777,779,781,781,781,782,782,782,782,782,782,782,782,782,782,782,782,782,782,782,782,782,782,782,782,782,782,782,782,782,782,782,782,782,782,782,782,782,770,764,760,757,753,747,735,713,681,653,630,618,609,601,599,595,590,585,581,579,578,574,567,560,543,538,534,529,524],"ymouse":[632,632,632,632,632,632,632,632,630,627,627,627,626,626,626,626,626,626,626,626,626,626,626,626,626,626,626,626,626,626,626,626,626,626,626,626,626,626,626,626,626,626,626,626,624,580,563,555,552,541,504,407,318,250,200,151,132,119,109,83,67,54,46,41,40,40,40,40,40,50,53,54,56,56],"timestamp_mouse":[3,25,43,63,84,103,122,144,163,183,204,222,243,263,283,304,324,344,364,383,402,424,443,464,483,504,524,543,563,583,604,624,644,664,683,704,724,742,762,782,802,824,843,862,883,902,922,943,963,983,1003,1022,1043,1064,1082,1103,1123,1143,1163,1183,1202,1223,1243,1263,1283,1304,1324,1343,1363,1383,1402,1422,1443,1463],"xSR":741.5,"ySR":573.95,"xT1":424.9,"yT1":0,"xT2":1058.1,"yT2":0,"toosoon":0,"cond_shown":"Incongruent","ratio_trial":100,"L_num":6,"L_den":12,"R_num":3,"R_den":5,"correct_side":2,"subjID":"paulaandreatoropedreros11","gender":"1","school":"6","age":"11"},{"start_time":1551891534246,"click_time":1551891535474,"finger_time":1551891534952,"fix_duration":1204.610283056341,"trial":13,"RT":706,"MT":522,"sideResp":2,"stimulus":[],"xmouse":[815,815,815,815,815,815,815,815,815,815,815,815,815,815,815,815,815,815,815,815,815,815,815,815,815,815,815,815,815,815,815,815,815,815,814,854,879,911,955,970,1017,1030,1042,1051,1060,1075,1077,1078,1078,1078,1075,1069,1063,1058,1054,1051,1051,1055,1061,1063,1066,1068],"ymouse":[624,624,624,624,624,624,624,624,624,624,624,624,624,624,624,624,624,624,624,624,624,624,624,624,624,624,624,624,624,624,624,624,624,624,621,563,525,479,413,394,335,320,303,288,278,254,243,233,224,207,185,174,164,155,150,142,137,128,115,108,100,96],"timestamp_mouse":[7,29,47,67,87,107,126,148,167,188,207,228,247,268,287,307,327,348,367,387,406,426,446,466,486,506,528,547,568,588,607,626,647,667,686,706,727,748,768,787,807,827,847,866,887,907,927,946,968,987,1007,1027,1046,1066,1087,1107,1127,1147,1167,1186,1207,1228],"xSR":741.5,"ySR":573.95,"xT1":424.9,"yT1":0,"xT2":1058.1,"yT2":0,"toosoon":0,"cond_shown":"Congruent","ratio_trial":200,"L_num":9,"L_den":30,"R_num":13,"R_den":26,"correct_side":2,"subjID":"paulaandreatoropedreros11","gender":"1","school":"6","age":"11"},{"start_time":1551891537786,"click_time":1551891538973,"finger_time":1551891538674,"fix_duration":1193.272502297813,"trial":14,"RT":888,"MT":299,"sideResp":2,"stimulus":[],"xmouse":[778,778,778,778,778,778,778,778,778,778,778,778,778,778,778,778,778,778,778,778,778,778,778,778,778,778,778,778,778,778,778,778,778,778,778,778,778,778,778,778,778,778,778,809,883,956,997,1008,1008,1008,1010,1018,1038,1054,1059,1062,1070,1082,1092,1100],"ymouse":[614,614,614,614,614,614,614,614,614,614,614,614,614,614,614,614,614,614,614,614,614,614,614,614,614,614,614,614,614,614,614,614,614,614,614,614,614,614,614,614,614,614,614,579,510,459,438,434,434,434,432,407,344,286,260,232,180,129,100,72],"timestamp_mouse":[9,28,47,68,87,107,127,148,166,188,207,227,247,267,288,307,327,347,366,387,407,427,447,467,488,507,527,546,567,587,608,627,647,667,687,707,726,747,767,787,808,828,847,867,888,907,927,946,967,987,1008,1027,1047,1068,1088,1107,1127,1148,1167,1187],"xSR":741.5,"ySR":573.95,"xT1":424.9,"yT1":0,"xT2":1058.1,"yT2":0,"toosoon":0,"cond_shown":"Incongruent","ratio_trial":300,"L_num":4,"L_den":20,"R_num":2,"R_den":4,"correct_side":2,"subjID":"paulaandreatoropedreros11","gender":"1","school":"6","age":"11"},{"start_time":1551891540782,"click_time":1551891543014,"finger_time":1551891542694,"fix_duration":687.7901312965561,"trial":15,"RT":1912,"MT":320,"sideResp":1,"stimulus":[],"xmouse":[820,820,820,820,820,820,820,820,820,820,820,820,820,820,820,820,820,820,820,820,820,820,820,820,820,820,820,820,820,820,820,820,820,820,820,820,820,820,820,820,820,820,820,820,820,820,820,820,820,820,820,820,820,820,820,820,820,820,820,820,820,820,820,820,820,820,820,820,820,820,820,820,820,820,820,820,820,820,820,820,820,820,820,820,820,820,820,820,820,820,820,820,820,821,817,804,771,724,649,637,633,631,618,582,567,561,559,559,555,542,527,512],"ymouse":[600,600,600,600,600,600,600,600,600,600,600,600,600,600,600,600,600,600,600,600,600,600,600,600,600,600,600,600,600,600,600,600,600,600,600,600,600,600,600,600,600,600,600,600,600,600,600,600,600,600,600,600,600,600,600,600,600,600,600,600,600,600,600,600,600,600,600,600,600,600,600,600,600,600,600,600,600,600,600,600,600,600,600,600,600,600,600,600,600,600,600,600,600,596,574,530,455,382,302,289,278,265,231,177,157,142,130,119,93,76,61,49],"timestamp_mouse":[10,41,51,71,92,111,132,152,171,191,210,231,252,271,292,311,331,351,371,391,412,432,452,471,491,511,530,550,570,591,611,631,650,671,691,711,731,751,772,791,810,830,852,871,891,912,931,950,972,991,1011,1031,1052,1071,1091,1111,1131,1151,1170,1191,1212,1232,1251,1272,1290,1310,1330,1352,1372,1391,1411,1431,1450,1472,1492,1511,1531,1551,1571,1592,1611,1631,1651,1671,1691,1712,1731,1750,1771,1791,1812,1831,1852,1871,1891,1912,1932,1951,1971,1991,2011,2031,2051,2070,2091,2112,2131,2151,2171,2190,2211,2232],"xSR":741.5,"ySR":573.95,"xT1":424.9,"yT1":0,"xT2":1058.1,"yT2":0,"toosoon":0,"cond_shown":"Congruent","ratio_trial":100,"L_num":3,"L_den":6,"R_num":2,"R_den":5,"correct_side":1,"subjID":"paulaandreatoropedreros11","gender":"1","school":"6","age":"11"},{"start_time":1551891544404,"click_time":1551891546834,"finger_time":1551891546633,"fix_duration":250,"trial":16,"RT":2229,"MT":201,"sideResp":2,"stimulus":[],"xmouse":[778,778,778,778,778,778,778,778,777,777,777,777,777,777,777,777,777,777,777,777,777,777,777,777,777,777,777,777,777,777,777,777,777,777,777,777,777,777,777,777,777,777,777,777,777,777,777,777,777,777,777,777,777,777,777,777,777,777,777,777,777,777,777,777,777,777,777,777,777,777,777,777,777,777,777,777,777,777,777,777,777,777,777,777,777,777,777,777,777,777,777,777,777,777,777,777,777,777,777,777,777,777,777,777,777,777,776,772,769,768,771,797,860,890,917,946,976,1012,1030,1052,1085,1099],"ymouse":[622,622,622,622,622,622,624,625,625,625,625,625,625,625,625,625,625,625,625,625,625,625,625,625,625,625,625,625,625,625,625,625,625,625,625,625,625,625,625,625,625,625,625,625,625,625,625,625,625,625,625,625,625,625,625,625,625,625,625,625,625,625,625,625,625,625,625,625,625,625,625,625,625,625,625,625,625,625,625,625,625,625,625,625,625,625,625,625,625,625,625,625,625,625,625,625,625,625,625,625,625,625,625,625,625,625,625,625,620,615,606,561,457,411,365,315,264,203,178,154,118,94],"timestamp_mouse":[8,29,50,68,90,109,128,148,169,188,209,228,249,268,289,308,329,350,370,389,410,428,448,468,489,509,529,550,569,590,610,629,650,670,689,710,728,748,769,789,810,829,850,870,888,909,929,948,970,989,1010,1029,1049,1069,1090,1110,1128,1149,1169,1190,1210,1230,1249,1268,1288,1310,1329,1350,1370,1388,1408,1429,1450,1470,1489,1510,1528,1548,1570,1590,1609,1630,1649,1670,1689,1709,1729,1748,1769,1789,1808,1830,1849,1869,1890,1908,1930,1949,1970,1990,2010,2030,2049,2068,2088,2110,2130,2149,2169,2189,2209,2229,2248,2269,2288,2308,2330,2348,2370,2390,2410,2430],"xSR":741.5,"ySR":573.95,"xT1":424.9,"yT1":0,"xT2":1058.1,"yT2":0,"toosoon":0,"cond_shown":"Incongruent","ratio_trial":100,"L_num":13,"L_den":26,"R_num":6,"R_den":10,"correct_side":2,"subjID":"paulaandreatoropedreros11","gender":"1","school":"6","age":"11"},{"start_time":1551891548484,"click_time":1551891550915,"finger_time":1551891550595,"fix_duration":250,"trial":17,"RT":2111,"MT":320,"sideResp":1,"stimulus":[],"xmouse":[796,796,796,796,796,796,796,796,796,796,796,796,796,796,796,796,796,796,796,796,796,796,796,796,796,796,796,796,796,796,796,796,796,796,796,796,796,796,796,796,796,796,796,796,796,796,796,796,796,796,796,796,796,796,796,796,796,796,796,796,796,796,796,796,796,796,796,796,796,796,796,796,796,796,796,796,796,796,796,796,796,796,796,796,796,796,796,796,796,796,796,796,796,796,796,796,796,796,796,796,796,796,796,796,785,751,684,666,606,588,564,545,528,505,496,491,488,488,493,497,501,503],"ymouse":[613,613,613,613,613,613,613,613,613,613,613,613,613,613,613,613,613,613,613,613,613,613,613,613,613,613,613,613,613,613,613,613,613,613,613,613,613,613,613,613,613,613,613,613,613,613,613,613,613,613,613,613,613,613,613,613,613,613,613,613,613,613,613,613,613,613,613,613,613,613,613,613,613,613,613,613,613,613,613,613,613,613,613,613,613,613,613,613,613,613,613,613,613,613,613,613,613,613,613,613,613,613,613,613,581,515,417,395,312,276,236,199,180,167,161,156,153,151,141,124,101,76],"timestamp_mouse":[9,31,49,69,90,110,129,150,169,188,209,230,248,270,290,308,329,348,370,389,409,429,449,470,488,508,528,550,569,589,609,630,648,668,688,708,729,750,769,789,809,829,851,870,891,910,931,951,971,991,1010,1030,1051,1070,1091,1111,1130,1151,1171,1190,1210,1230,1250,1270,1289,1310,1330,1350,1370,1389,1411,1431,1451,1469,1491,1511,1531,1551,1570,1590,1610,1630,1650,1670,1690,1711,1730,1749,1771,1790,1809,1831,1850,1870,1890,1911,1931,1950,1971,1990,2011,2031,2050,2071,2091,2111,2130,2151,2170,2191,2210,2231,2251,2269,2291,2310,2331,2350,2370,2390,2410,2431],"xSR":741.5,"ySR":573.95,"xT1":424.9,"yT1":0,"xT2":1058.1,"yT2":0,"toosoon":0,"cond_shown":"Incongruent","ratio_trial":100,"L_num":3,"L_den":6,"R_num":4,"R_den":10,"correct_side":1,"subjID":"paulaandreatoropedreros11","gender":"1","school":"6","age":"11"},{"start_time":1551891553016,"click_time":1551891555614,"finger_time":1551891555175,"fix_duration":942.0902813138692,"trial":18,"RT":2159,"MT":439,"sideResp":2,"stimulus":[],"xmouse":[791,791,791,791,791,791,791,791,791,791,791,791,791,791,791,791,791,791,791,791,791,791,791,791,791,791,791,791,791,791,791,791,791,791,791,791,791,791,791,791,791,791,791,791,791,791,791,791,791,791,791,791,791,791,791,791,791,791,791,791,791,791,791,791,791,791,791,791,791,791,791,791,791,791,791,791,791,791,791,791,791,791,791,791,791,791,791,791,791,791,791,791,791,791,791,791,791,792,793,794,794,794,794,794,794,794,808,856,937,1022,1114,1147,1170,1174,1185,1203,1227,1230,1230,1230,1230,1227,1223,1211,1198,1184,1169,1167,1159,1138],"ymouse":[606,606,606,606,606,606,606,606,606,606,606,606,606,606,606,606,606,606,606,606,606,606,606,606,606,606,606,606,606,606,606,606,606,606,606,606,606,606,606,606,606,606,606,606,606,606,606,606,606,606,606,606,606,606,606,606,606,606,606,606,606,606,606,606,606,606,606,606,606,606,606,606,606,606,606,606,606,606,606,606,606,606,606,606,606,606,606,606,606,606,606,606,606,606,606,606,606,606,606,605,605,605,605,605,605,605,593,552,481,396,282,221,146,128,101,76,49,42,38,36,36,37,40,43,44,47,53,55,58,66],"timestamp_mouse":[18,38,59,78,99,119,139,158,178,198,218,238,258,279,298,319,338,359,379,398,418,439,459,479,498,518,538,558,579,599,619,638,658,678,698,718,738,758,779,799,818,838,858,879,898,919,939,959,978,998,1018,1038,1059,1079,1098,1117,1138,1158,1179,1198,1219,1238,1257,1278,1298,1318,1339,1358,1378,1398,1418,1439,1458,1479,1498,1517,1537,1559,1578,1598,1618,1638,1659,1677,1699,1718,1739,1758,1779,1799,1818,1838,1858,1878,1899,1919,1938,1958,1978,1998,2018,2038,2059,2078,2098,2118,2138,2159,2178,2199,2218,2238,2259,2278,2298,2318,2339,2358,2378,2398,2419,2437,2458,2479,2498,2519,2538,2558,2579,2598],"xSR":741.5,"ySR":573.95,"xT1":424.9,"yT1":0,"xT2":1058.1,"yT2":0,"toosoon":0,"cond_shown":"Incongruent","ratio_trial":200,"L_num":3,"L_den":10,"R_num":1,"R_den":2,"correct_side":2,"subjID":"paulaandreatoropedreros11","gender":"1","school":"6","age":"11"},{"start_time":1551891557326,"click_time":1551891559515,"finger_time":1551891559215,"fix_duration":690.5191298798791,"trial":19,"RT":1889,"MT":300,"sideResp":1,"stimulus":[],"xmouse":[799,799,799,799,799,799,799,799,799,799,799,799,799,799,799,799,799,799,799,799,799,799,799,799,799,799,799,799,799,799,799,799,799,799,799,799,799,799,799,799,799,799,799,799,799,799,799,799,799,799,799,799,799,799,799,799,799,799,799,799,799,799,799,799,799,799,799,799,799,799,799,799,799,799,799,799,799,799,799,799,799,799,799,799,799,799,799,799,799,799,799,799,798,795,781,763,708,599,534,479,440,415,412,411,409,408,408,411,415,426],"ymouse":[619,619,619,619,619,619,619,619,619,619,619,619,619,619,619,619,619,619,619,619,619,619,619,619,619,619,619,619,619,619,619,619,619,619,619,619,619,619,619,619,619,619,619,619,619,619,619,619,619,619,619,619,619,619,619,619,619,619,619,619,619,619,619,619,619,619,619,619,619,619,619,619,619,619,619,619,619,619,619,619,619,619,619,619,619,619,619,619,619,619,619,619,615,600,554,506,412,279,222,182,156,131,122,112,99,91,89,85,83,75],"timestamp_mouse":[9,28,47,69,88,108,128,149,169,187,208,229,248,268,289,308,329,349,368,388,408,428,448,468,488,509,529,548,569,588,608,628,649,668,688,708,728,749,768,789,808,828,848,868,888,908,928,949,968,989,1009,1028,1048,1068,1088,1108,1129,1149,1168,1188,1208,1228,1248,1269,1289,1308,1328,1349,1369,1388,1408,1429,1449,1469,1489,1509,1529,1549,1568,1589,1608,1628,1648,1668,1688,1709,1728,1748,1768,1789,1808,1829,1849,1868,1889,1908,1928,1949,1969,1989,2009,2028,2049,2068,2089,2108,2128,2149,2168,2189],"xSR":741.5,"ySR":573.95,"xT1":424.9,"yT1":0,"xT2":1058.1,"yT2":0,"toosoon":0,"cond_shown":"Congruent","ratio_trial":200,"L_num":4,"L_den":8,"R_num":3,"R_den":10,"correct_side":1,"subjID":"paulaandreatoropedreros11","gender":"1","school":"6","age":"11"},{"start_time":1551891560672,"click_time":1551891561634,"finger_time":1551891561554,"fix_duration":276.6755778556453,"trial":20,"RT":882,"MT":80,"sideResp":1,"stimulus":[],"xmouse":[797,797,797,797,797,797,797,797,797,797,797,797,797,797,797,797,797,797,797,797,797,797,797,797,797,797,797,797,797,797,797,797,797,797,797,797,797,797,797,797,797,797,797,777,741,634,581,524,475],"ymouse":[634,634,634,634,634,634,634,634,634,634,634,634,634,634,634,634,634,634,634,634,634,634,634,634,634,634,634,634,634,634,634,634,634,634,634,634,634,634,634,634,634,633,626,581,495,301,207,121,67],"timestamp_mouse":[11,32,42,62,82,103,122,143,162,183,203,223,243,262,282,303,322,343,362,383,402,422,442,462,482,502,523,542,562,583,602,622,642,663,682,702,722,743,762,783,802,823,843,863,882,902,922,942,962],"xSR":741.5,"ySR":573.95,"xT1":424.9,"yT1":0,"xT2":1058.1,"yT2":0,"toosoon":0,"cond_shown":"Congruent","ratio_trial":200,"L_num":16,"L_den":20,"R_num":12,"R_den":20,"correct_side":1,"subjID":"paulaandreatoropedreros11","gender":"1","school":"6","age":"11"},{"start_time":1551891564057,"click_time":1551891564954,"finger_time":1551891564874,"fix_duration":1021.5929667914542,"trial":21,"RT":817,"MT":80,"sideResp":1,"stimulus":[],"xmouse":[777,777,777,777,777,777,777,777,777,777,777,777,777,777,777,777,777,777,777,777,777,777,777,777,777,777,777,777,777,777,777,777,777,777,777,777,777,777,777,777,761,732,680,610,495],"ymouse":[606,606,606,606,606,606,606,606,606,606,606,606,606,606,606,606,606,606,606,606,606,606,606,606,606,606,606,606,606,606,606,606,606,606,606,606,606,606,606,607,558,470,349,226,63],"timestamp_mouse":[17,38,57,77,97,118,137,158,178,198,218,238,257,278,298,318,338,357,378,398,418,437,456,478,498,517,537,558,578,597,617,637,658,678,697,717,738,758,777,797,817,837,857,877,897],"xSR":741.5,"ySR":573.95,"xT1":424.9,"yT1":0,"xT2":1058.1,"yT2":0,"toosoon":0,"cond_shown":"Incongruent","ratio_trial":200,"L_num":7,"L_den":10,"R_num":12,"R_den":24,"correct_side":1,"subjID":"paulaandreatoropedreros11","gender":"1","school":"6","age":"11"},{"start_time":1551891567156,"click_time":1551891569314,"finger_time":1551891568235,"fix_duration":1079.3676180734935,"trial":22,"RT":1079,"MT":1079,"sideResp":2,"stimulus":[],"xmouse":[781,781,781,781,781,781,781,781,781,781,781,781,781,781,781,781,781,781,781,781,781,781,780,779,779,779,779,779,779,779,779,779,779,779,779,779,778,778,788,796,801,801,801,801,801,801,801,801,801,801,801,807,814,825,835,835,835,835,835,835,835,835,835,833,832,831,830,828,826,823,811,805,803,802,802,802,802,802,802,802,802,802,802,802,802,803,806,808,809,809,810,810,810,810,811,811,811,811,812,825,844,867,919,983,1036,1050,1060,1064],"ymouse":[646,646,646,646,646,646,646,646,646,646,646,646,646,646,646,646,646,646,646,646,645,644,642,642,642,642,642,642,642,642,642,642,642,642,642,642,641,639,629,618,610,610,610,610,610,610,610,610,610,610,610,599,590,564,527,527,527,527,527,527,527,527,527,527,530,532,533,536,538,540,546,548,548,548,548,548,548,548,548,548,548,548,548,548,550,556,563,568,571,572,575,577,580,582,583,583,583,583,583,575,558,530,466,371,262,187,116,45],"timestamp_mouse":[18,37,59,78,98,118,138,158,178,198,219,239,259,279,298,319,338,358,378,399,419,438,458,479,499,518,538,557,579,597,619,639,658,679,699,718,738,758,778,798,819,838,858,878,899,918,939,958,978,998,1018,1038,1059,1079,1099,1118,1139,1158,1178,1198,1218,1239,1259,1279,1297,1318,1339,1358,1379,1398,1419,1439,1459,1478,1498,1518,1538,1559,1579,1597,1618,1638,1659,1679,1697,1719,1739,1757,1778,1798,1819,1838,1858,1878,1898,1918,1938,1958,1979,1999,2018,2038,2058,2078,2098,2118,2138,2158],"xSR":741.5,"ySR":573.95,"xT1":424.9,"yT1":0,"xT2":1058.1,"yT2":0,"toosoon":0,"cond_shown":"Incongruent","ratio_trial":200,"L_num":3,"L_den":10,"R_num":1,"R_den":2,"correct_side":2,"subjID":"paulaandreatoropedreros11","gender":"1","school":"6","age":"11"},{"start_time":1551891571403,"click_time":1551891572515,"finger_time":1551891572215,"fix_duration":908.6237942052363,"trial":23,"RT":812,"MT":300,"sideResp":1,"stimulus":[],"xmouse":[805,805,805,805,805,805,805,805,805,805,805,805,805,805,805,805,805,805,805,805,805,805,805,805,805,805,805,805,805,805,805,805,805,805,805,805,805,805,801,796,779,722,657,635,622,611,598,555,536,521,515,515,515,515,515,515],"ymouse":[624,624,624,624,624,624,624,624,624,624,624,624,624,624,624,624,624,624,624,624,624,624,624,624,624,624,624,624,624,624,624,624,624,624,624,624,624,624,622,608,549,398,237,197,168,141,107,31,8,0,0,0,0,0,0,1],"timestamp_mouse":[11,31,56,71,91,112,131,151,171,192,212,231,251,271,291,312,332,351,371,392,412,432,451,471,491,512,531,551,571,591,612,632,651,672,692,711,732,752,772,791,812,832,851,871,891,911,932,951,971,992,1011,1030,1052,1071,1091,1112],"xSR":741.5,"ySR":573.95,"xT1":424.9,"yT1":0,"xT2":1058.1,"yT2":0,"toosoon":0,"cond_shown":"Congruent","ratio_trial":200,"L_num":12,"L_den":20,"R_num":6,"R_den":15,"correct_side":1,"subjID":"paulaandreatoropedreros11","gender":"1","school":"6","age":"11"},{"start_time":1551891574397,"click_time":1551891575175,"finger_time":1551891575074,"fix_duration":722.9755541396487,"trial":24,"RT":677,"MT":101,"sideResp":2,"stimulus":[],"xmouse":[793,793,793,793,793,793,793,793,793,793,793,793,793,793,793,793,793,793,793,793,793,793,793,793,793,793,793,793,793,793,793,798,826,909,935,950,972,1064,1117],"ymouse":[635,635,635,635,635,635,635,635,635,635,635,635,635,635,635,635,635,635,635,635,635,635,635,635,635,635,635,635,635,635,632,626,597,465,420,392,353,148,19],"timestamp_mouse":[17,38,57,77,98,117,138,157,177,198,217,237,256,278,298,317,338,357,377,397,416,437,458,478,497,517,538,557,577,598,617,637,657,677,697,717,737,758,778],"xSR":741.5,"ySR":573.95,"xT1":424.9,"yT1":0,"xT2":1058.1,"yT2":0,"toosoon":0,"cond_shown":"Incongruent","ratio_trial":300,"L_num":4,"L_den":20,"R_num":2,"R_den":4,"correct_side":2,"subjID":"paulaandreatoropedreros11","gender":"1","school":"6","age":"11"},{"start_time":1551891577656,"click_time":1551891578795,"finger_time":1551891578415,"fix_duration":1260.745742840881,"trial":25,"RT":759,"MT":380,"sideResp":1,"stimulus":[],"xmouse":[797,797,797,797,797,797,797,797,797,797,797,797,797,797,797,797,797,797,797,797,797,797,797,797,797,797,797,797,797,797,797,797,797,797,797,796,789,762,747,620,586,568,557,557,551,537,524,513,506,506,506,505,504,503,503,503,502],"ymouse":[635,635,635,635,635,635,635,635,635,635,635,635,635,635,635,635,635,635,635,635,635,635,635,635,635,635,635,635,635,635,635,635,635,635,635,627,610,564,544,455,416,356,270,178,48,0,0,0,0,0,0,0,0,0,0,0,2],"timestamp_mouse":[27,38,58,79,99,118,139,158,179,199,218,238,259,278,298,318,338,359,378,398,419,439,459,479,499,518,538,559,578,598,619,638,658,677,699,718,739,759,778,798,819,838,859,879,898,919,938,959,977,999,1019,1038,1057,1077,1099,1119,1139],"xSR":741.5,"ySR":573.95,"xT1":424.9,"yT1":0,"xT2":1058.1,"yT2":0,"toosoon":0,"cond_shown":"Congruent","ratio_trial":300,"L_num":24,"L_den":30,"R_num":2,"R_den":4,"correct_side":1,"subjID":"paulaandreatoropedreros11","gender":"1","school":"6","age":"11"},{"start_time":1551891581113,"click_time":1551891582354,"finger_time":1551891582215,"fix_duration":1176.7584788228191,"trial":26,"RT":1102,"MT":139,"sideResp":2,"stimulus":[],"xmouse":[769,769,769,769,769,769,769,769,769,769,769,769,769,769,769,769,769,769,769,769,769,769,769,769,769,769,769,769,769,769,769,769,769,769,769,769,769,769,769,769,769,769,769,769,769,769,769,769,769,769,769,769,769,772,777,827,892,1003,1029,1049,1071,1094,1127],"ymouse":[601,601,601,601,601,601,601,601,601,601,601,601,601,601,601,601,601,601,601,601,601,601,601,601,601,601,601,601,601,601,601,601,601,601,601,601,601,601,601,601,601,601,601,601,601,601,601,601,601,601,601,601,601,601,599,557,488,357,321,284,236,177,75],"timestamp_mouse":[12,21,41,62,81,101,122,142,162,181,202,221,242,261,281,301,322,342,361,381,401,421,441,462,481,502,522,541,561,582,601,621,641,662,682,702,722,741,762,782,802,821,840,861,881,902,922,941,961,981,1002,1021,1041,1062,1081,1102,1122,1141,1161,1182,1201,1221,1241],"xSR":741.5,"ySR":573.95,"xT1":424.9,"yT1":0,"xT2":1058.1,"yT2":0,"toosoon":0,"cond_shown":"Congruent","ratio_trial":300,"L_num":5,"L_den":25,"R_num":7,"R_den":14,"correct_side":2,"subjID":"paulaandreatoropedreros11","gender":"1","school":"6","age":"11"},{"start_time":1551891584540,"click_time":1551891585855,"finger_time":1551891585295,"fix_duration":1285.5301680524485,"trial":27,"RT":755,"MT":560,"sideResp":1,"stimulus":[],"xmouse":[818,818,818,818,818,818,818,818,818,818,818,818,818,818,818,818,818,818,818,818,818,818,818,818,818,818,818,818,818,818,818,818,818,818,818,805,768,685,586,491,355,331,318,312,307,309,317,323,326,328,329,329,329,329,329,329,329,336,349,366,420,447,464,474,475,485],"ymouse":[631,631,631,631,631,631,631,631,631,631,631,631,631,631,631,631,631,631,631,631,631,631,631,631,631,631,631,631,631,631,631,631,631,631,631,628,604,532,431,319,96,0,0,0,0,0,0,0,0,0,0,0,0,0,0,0,0,7,21,43,93,107,112,113,112,86],"timestamp_mouse":[19,35,55,73,94,115,134,155,175,195,215,235,254,274,294,313,334,355,374,394,414,433,455,474,495,514,535,554,575,594,615,635,654,674,695,713,735,755,773,793,814,834,854,874,894,914,934,955,974,994,1016,1034,1054,1075,1094,1114,1134,1154,1175,1195,1214,1234,1254,1274,1294,1315],"xSR":741.5,"ySR":573.95,"xT1":424.9,"yT1":0,"xT2":1058.1,"yT2":0,"toosoon":0,"cond_shown":"Congruent","ratio_trial":200,"L_num":13,"L_den":26,"R_num":14,"R_den":20,"correct_side":2,"subjID":"paulaandreatoropedreros11","gender":"1","school":"6","age":"11"},{"start_time":1551891587892,"click_time":1551891588574,"finger_time":1551891588453,"fix_duration":537.2052100378137,"trial":28,"RT":561,"MT":121,"sideResp":2,"stimulus":[],"xmouse":[802,802,802,802,802,802,802,802,802,802,802,802,802,802,802,802,802,802,802,802,802,802,802,802,802,802,802,810,881,935,986,1024,1041,1063,1078],"ymouse":[656,656,656,656,656,656,656,656,656,656,656,656,656,656,656,656,656,656,656,656,656,656,656,656,656,656,656,649,574,493,402,306,238,142,98],"timestamp_mouse":[5,22,43,62,82,103,122,142,163,182,202,222,242,262,282,301,323,343,361,382,402,422,442,463,483,501,521,541,561,582,603,622,642,663,682],"xSR":741.5,"ySR":573.95,"xT1":424.9,"yT1":0,"xT2":1058.1,"yT2":0,"toosoon":0,"cond_shown":"Congruent","ratio_trial":100,"L_num":7,"L_den":14,"R_num":15,"R_den":25,"correct_side":2,"subjID":"paulaandreatoropedreros11","gender":"1","school":"6","age":"11"},{"start_time":1551891590485,"click_time":1551891591234,"finger_time":1551891591094,"fix_duration":1110.2369858612533,"trial":29,"RT":609,"MT":140,"sideResp":2,"stimulus":[],"xmouse":[786,786,786,786,786,786,786,786,786,786,786,786,786,786,786,786,786,786,786,786,786,786,786,786,786,786,786,786,787,836,892,945,999,1046,1108,1118,1121,1121],"ymouse":[639,639,639,639,639,639,639,639,639,639,639,639,639,639,639,639,639,639,639,639,639,639,639,639,639,639,639,639,638,587,532,468,406,343,215,152,101,68],"timestamp_mouse":[9,29,50,69,90,109,130,149,170,189,209,229,250,269,290,309,328,348,369,389,410,429,449,469,490,509,530,549,569,590,609,630,649,669,689,709,730,749],"xSR":741.5,"ySR":573.95,"xT1":424.9,"yT1":0,"xT2":1058.1,"yT2":0,"toosoon":0,"cond_shown":"Congruent","ratio_trial":300,"L_num":1,"L_den":30,"R_num":8,"R_den":24,"correct_side":2,"subjID":"paulaandreatoropedreros11","gender":"1","school":"6","age":"11"},{"start_time":1551891592954,"click_time":1551891594615,"finger_time":1551891594074,"fix_duration":778.7254542582723,"trial":30,"RT":1120,"MT":541,"sideResp":1,"stimulus":[],"xmouse":[831,831,831,831,831,831,831,831,831,831,831,831,831,831,831,831,831,831,831,831,831,831,831,831,831,831,831,831,831,831,831,831,831,831,831,831,831,831,831,831,831,831,831,831,831,831,831,831,831,831,831,831,831,831,831,816,783,712,620,519,377,342,323,312,306,306,306,306,305,305,300,298,297,296,296,296,296,304,317,330,359,380,406,440],"ymouse":[594,594,594,594,594,594,594,594,594,594,594,594,594,594,594,594,594,594,594,594,594,594,594,594,594,594,594,594,594,594,594,594,594,594,594,594,594,594,594,594,594,594,594,594,594,594,594,594,594,594,594,594,594,594,595,584,509,345,133,0,0,0,0,0,0,0,0,0,0,2,22,28,31,34,34,34,34,34,35,37,42,42,42,45],"timestamp_mouse":[11,24,40,61,81,101,120,140,160,180,201,221,240,260,280,300,320,340,360,380,401,421,440,461,480,500,521,541,560,580,601,620,641,661,681,700,720,741,760,780,800,821,840,860,881,899,919,941,960,980,1000,1020,1041,1060,1079,1100,1120,1140,1159,1180,1200,1221,1240,1261,1280,1300,1320,1340,1361,1379,1400,1421,1440,1460,1480,1500,1521,1541,1561,1580,1600,1620,1640,1661],"xSR":741.5,"ySR":573.95,"xT1":424.9,"yT1":0,"xT2":1058.1,"yT2":0,"toosoon":0,"cond_shown":"Congruent","ratio_trial":100,"L_num":6,"L_den":12,"R_num":15,"R_den":25,"correct_side":2,"subjID":"paulaandreatoropedreros11","gender":"1","school":"6","age":"11"},{"start_time":1551891596939,"click_time":1551891597915,"finger_time":1551891597754,"fix_duration":1084.9985187132345,"trial":31,"RT":815,"MT":161,"sideResp":2,"stimulus":[],"xmouse":[785,785,785,785,785,785,785,785,785,785,785,785,785,785,785,785,785,785,785,785,785,785,785,785,785,785,785,785,785,785,785,785,785,785,785,785,785,785,792,801,863,898,940,971,999,1039,1049,1057,1064],"ymouse":[612,612,612,612,612,612,612,612,612,612,612,612,612,612,612,612,612,612,612,612,612,612,612,612,612,612,612,612,612,612,612,612,612,612,612,612,612,612,602,588,498,432,355,280,213,122,98,80,62],"timestamp_mouse":[15,36,55,76,96,116,134,155,176,195,215,235,256,275,296,316,334,355,375,395,414,435,455,476,496,516,535,556,575,595,615,636,655,675,695,716,735,755,776,795,815,835,855,876,895,915,935,954,975],"xSR":741.5,"ySR":573.95,"xT1":424.9,"yT1":0,"xT2":1058.1,"yT2":0,"toosoon":0,"cond_shown":"Incongruent","ratio_trial":300,"L_num":4,"L_den":20,"R_num":2,"R_den":4,"correct_side":2,"subjID":"paulaandreatoropedreros11","gender":"1","school":"6","age":"11"},{"start_time":1551891600049,"click_time":1551891601374,"finger_time":1551891601233,"fix_duration":814.8917044830495,"trial":32,"RT":1184,"MT":141,"sideResp":2,"stimulus":[],"xmouse":[787,787,786,786,786,786,786,786,786,786,786,786,786,786,786,786,786,786,786,786,786,786,786,786,786,786,786,786,786,786,786,786,786,786,786,786,786,786,786,786,786,786,786,786,786,786,786,786,786,786,786,786,790,793,793,795,797,805,813,860,893,963,997,1024,1041,1057,1067],"ymouse":[639,639,639,639,639,639,639,639,639,639,639,639,639,639,639,639,639,639,639,639,639,639,639,639,639,639,639,639,639,639,639,639,639,639,639,639,639,639,639,639,639,639,639,639,639,639,639,639,639,639,639,636,631,629,628,626,623,609,598,529,478,356,278,203,141,52,7],"timestamp_mouse":[9,25,45,65,85,105,125,145,166,185,205,225,245,266,286,306,326,345,366,385,405,426,446,465,486,506,525,544,566,585,605,626,646,665,685,705,726,745,765,785,806,826,846,865,886,905,926,945,966,985,1004,1025,1045,1066,1085,1104,1124,1144,1166,1184,1205,1226,1246,1266,1285,1306,1325],"xSR":741.5,"ySR":573.95,"xT1":424.9,"yT1":0,"xT2":1058.1,"yT2":0,"toosoon":0,"cond_shown":"Congruent","ratio_trial":100,"L_num":6,"L_den":12,"R_num":15,"R_den":25,"correct_side":2,"subjID":"paulaandreatoropedreros11","gender":"1","school":"6","age":"11"},{"start_time":1551891603174,"click_time":1551891604075,"finger_time":1551891603794,"fix_duration":939.4479224567267,"trial":33,"RT":620,"MT":281,"sideResp":1,"stimulus":[],"xmouse":[804,804,804,804,804,804,804,804,804,804,804,804,804,804,804,804,804,804,804,804,804,804,804,804,804,801,796,793,791,778,772,760,738,716,671,654,637,618,603,577,568,560,555,551,542,522],"ymouse":[625,625,625,625,625,625,625,625,625,625,625,625,625,625,625,625,625,625,625,625,625,625,625,625,625,623,618,613,607,585,574,555,527,498,430,392,359,327,304,260,241,219,194,164,125,88],"timestamp_mouse":[4,20,40,60,81,101,120,141,161,179,201,221,240,260,280,300,320,340,360,380,400,420,441,461,480,501,520,540,560,580,601,620,640,661,681,700,720,740,761,780,801,821,840,860,880,901],"xSR":741.5,"ySR":573.95,"xT1":424.9,"yT1":0,"xT2":1058.1,"yT2":0,"toosoon":0,"cond_shown":"Congruent","ratio_trial":300,"L_num":24,"L_den":30,"R_num":2,"R_den":4,"correct_side":1,"subjID":"paulaandreatoropedreros11","gender":"1","school":"6","age":"11"},{"start_time":1551891605507,"click_time":1551891608914,"finger_time":1551891608454,"fix_duration":371.9930790099103,"trial":34,"RT":2947,"MT":460,"sideResp":1,"stimulus":[],"xmouse":[783,783,783,783,783,783,783,783,783,783,783,782,781,781,781,781,781,781,781,781,781,781,781,781,781,781,781,781,781,781,781,781,781,781,781,781,781,781,781,781,781,781,781,781,781,781,781,781,781,781,781,781,780,778,778,778,778,778,778,778,778,778,778,778,778,778,778,778,778,778,778,778,778,778,778,778,778,778,778,778,778,778,778,778,778,778,778,778,778,778,778,778,778,778,778,778,778,778,778,778,778,778,778,778,778,778,778,778,778,778,778,778,778,778,778,778,778,778,778,778,778,778,778,777,779,783,784,786,789,792,795,797,797,797,797,797,797,797,797,797,797,797,797,797,797,803,809,818,819,820,820,814,789,775,761,747,727,688,652,613,578,544,518,512,503,488,472,452,452,452,455],"ymouse":[608,608,608,608,608,608,608,608,608,608,608,610,611,612,612,612,612,612,612,612,612,612,612,612,612,612,612,612,612,612,612,612,612,612,612,612,612,612,612,612,612,612,612,612,612,612,612,612,612,612,612,612,613,613,613,613,613,613,613,613,613,613,613,613,613,613,613,613,613,613,613,613,613,613,613,613,613,613,613,613,613,613,613,613,613,613,613,613,613,613,613,613,613,613,613,613,613,613,613,613,613,613,613,613,613,613,613,613,613,613,613,613,613,613,613,613,613,613,613,613,613,613,613,612,611,609,608,607,604,601,599,597,597,597,597,597,597,597,597,597,597,597,597,597,597,589,580,565,560,553,542,524,485,467,447,426,391,324,270,208,142,81,0,0,0,0,0,0,0,0,5],"timestamp_mouse":[12,27,48,68,87,107,127,148,167,187,207,228,247,268,287,307,327,347,367,388,408,427,447,467,488,507,528,547,567,587,607,627,647,667,688,707,728,747,768,787,807,827,848,866,888,907,927,948,967,987,1008,1027,1047,1068,1087,1107,1128,1147,1167,1187,1208,1227,1247,1267,1287,1307,1327,1348,1368,1387,1408,1428,1448,1467,1487,1508,1528,1547,1567,1587,1607,1627,1647,1668,1688,1708,1728,1747,1768,1787,1807,1828,1847,1867,1887,1908,1927,1947,1967,1987,2008,2028,2047,2067,2087,2107,2127,2147,2168,2187,2208,2227,2247,2267,2287,2308,2328,2347,2368,2388,2407,2426,2447,2467,2488,2508,2528,2547,2568,2586,2607,2627,2647,2668,2687,2707,2726,2747,2768,2788,2807,2827,2847,2868,2888,2908,2928,2947,2967,2987,3008,3028,3047,3068,3087,3107,3127,3147,3168,3187,3207,3228,3247,3267,3288,3307,3328,3347,3367,3387,3407],"xSR":741.5,"ySR":573.95,"xT1":424.9,"yT1":0,"xT2":1058.1,"yT2":0,"toosoon":0,"cond_shown":"Congruent","ratio_trial":100,"L_num":3,"L_den":6,"R_num":2,"R_den":5,"correct_side":1,"subjID":"paulaandreatoropedreros11","gender":"1","school":"6","age":"11"},{"start_time":1551891611721,"click_time":1551891613216,"finger_time":1551891612755,"fix_duration":424.6721181280383,"trial":35,"RT":1034,"MT":461,"sideResp":2,"stimulus":[],"xmouse":[810,810,809,809,809,808,807,807,807,807,807,807,807,807,807,807,807,807,807,807,807,807,807,807,807,807,807,807,807,807,807,807,807,807,807,807,807,807,807,807,807,807,807,807,807,807,807,807,807,813,819,843,852,860,876,910,968,975,975,975,975,975,980,986,992,999,1003,1022,1047,1095,1140,1175,1177,1174,1148],"ymouse":[601,601,602,602,602,602,603,603,603,603,603,603,603,603,603,603,603,603,603,603,603,603,603,603,603,603,603,603,603,603,603,603,603,603,603,603,603,603,603,603,603,603,603,603,603,603,603,603,603,601,597,569,551,527,483,397,235,209,195,184,179,165,152,140,130,120,116,115,117,117,121,128,122,105,76],"timestamp_mouse":[14,34,55,75,94,115,134,154,175,194,213,234,254,275,294,315,335,354,374,394,414,435,454,474,494,515,535,553,575,594,614,634,655,674,695,715,735,754,774,794,814,834,855,875,894,914,935,956,975,994,1015,1034,1054,1074,1094,1114,1134,1154,1174,1194,1215,1234,1254,1275,1295,1315,1334,1355,1374,1395,1415,1434,1454,1474,1495],"xSR":741.5,"ySR":573.95,"xT1":424.9,"yT1":0,"xT2":1058.1,"yT2":0,"toosoon":0,"cond_shown":"Incongruent","ratio_trial":300,"L_num":13,"L_den":26,"R_num":12,"R_den":15,"correct_side":2,"subjID":"paulaandreatoropedreros11","gender":"1","school":"6","age":"11"},{"start_time":1551891614641,"click_time":1551891616375,"finger_time":1551891616116,"fix_duration":344.46369576681667,"trial":36,"RT":1475,"MT":259,"sideResp":2,"stimulus":[],"xmouse":[792,792,792,792,792,792,792,792,792,792,792,792,792,792,792,792,792,792,792,792,792,792,792,792,792,792,798,803,805,806,806,806,806,806,806,806,806,806,806,806,800,793,786,780,778,778,778,778,778,778,778,778,778,778,778,778,778,778,778,778,778,778,778,778,778,778,780,785,787,793,796,802,829,894,951,991,997,1004,1013,1041,1053,1059,1059,1059,1059,1059,1060],"ymouse":[669,669,669,669,669,669,669,669,669,669,669,669,669,669,669,669,669,669,669,669,669,669,669,669,669,669,667,662,659,658,658,658,658,658,658,658,658,658,656,655,645,638,633,629,627,627,627,627,627,627,627,627,627,626,626,626,626,626,626,626,626,626,626,626,625,624,623,620,619,616,615,610,586,513,421,301,270,234,184,73,7,0,0,0,0,0,1],"timestamp_mouse":[18,35,54,74,94,115,134,153,174,195,214,234,255,275,293,315,334,355,374,394,415,435,455,475,494,514,535,555,574,594,614,634,654,674,694,715,735,754,774,794,815,834,854,875,894,914,935,955,975,994,1015,1035,1054,1075,1094,1114,1133,1155,1175,1194,1214,1234,1254,1275,1295,1314,1334,1353,1375,1395,1414,1435,1454,1475,1494,1515,1535,1555,1575,1594,1614,1634,1655,1674,1694,1715,1734],"xSR":741.5,"ySR":573.95,"xT1":424.9,"yT1":0,"xT2":1058.1,"yT2":0,"toosoon":0,"cond_shown":"Congruent","ratio_trial":300,"L_num":1,"L_den":3,"R_num":19,"R_den":30,"correct_side":2,"subjID":"paulaandreatoropedreros11","gender":"1","school":"6","age":"11"},{"start_time":1551891618261,"click_time":1551891619516,"finger_time":1551891619155,"fix_duration":866.2601495580438,"trial":37,"RT":894,"MT":361,"sideResp":1,"stimulus":[],"xmouse":[813,813,813,813,813,813,813,813,813,813,813,813,813,813,813,813,813,813,813,813,813,813,813,813,813,813,813,813,813,813,813,813,813,813,813,813,813,813,813,813,813,813,813,811,790,768,747,731,723,709,689,666,650,639,637,637,635,632,622,579,561,542,524],"ymouse":[615,615,615,615,615,615,615,615,615,615,615,615,615,615,615,615,615,615,615,615,615,615,615,615,615,615,615,615,615,615,615,615,615,615,615,615,615,615,615,615,615,615,615,610,540,488,445,411,388,277,219,175,151,140,138,138,138,137,131,105,96,91,86],"timestamp_mouse":[14,35,54,74,94,114,135,154,174,195,214,234,254,274,294,314,335,354,374,394,414,435,454,475,494,515,534,554,574,594,614,634,655,674,694,715,734,755,774,794,814,835,854,875,894,914,934,954,974,994,1014,1034,1054,1075,1095,1114,1134,1154,1174,1194,1213,1234,1255],"xSR":741.5,"ySR":573.95,"xT1":424.9,"yT1":0,"xT2":1058.1,"yT2":0,"toosoon":0,"cond_shown":"Incongruent","ratio_trial":200,"L_num":4,"L_den":6,"R_num":14,"R_den":30,"correct_side":1,"subjID":"paulaandreatoropedreros11","gender":"1","school":"6","age":"11"},{"start_time":1551891623516,"click_time":1551891624716,"finger_time":1551891624375,"fix_duration":1499.4310095204476,"trial":38,"RT":859,"MT":341,"sideResp":1,"stimulus":[],"xmouse":[802,802,802,802,802,802,802,802,802,802,802,802,802,802,802,802,802,802,802,802,802,802,802,802,802,802,802,802,802,802,802,802,802,802,802,802,802,802,802,799,793,766,743,709,639,590,517,492,470,456,446,443,440,440,440,440,441,446,450,454],"ymouse":[615,615,615,615,615,615,615,615,615,615,615,615,615,615,615,615,615,615,615,615,615,615,615,615,615,615,615,615,615,615,615,615,615,615,615,615,615,615,615,613,609,583,550,503,417,375,326,316,306,300,293,289,272,264,247,194,139,121,107,93],"timestamp_mouse":[20,39,60,79,99,119,139,159,180,199,220,239,260,279,299,319,339,360,380,400,420,439,459,479,500,520,539,560,579,599,619,639,660,679,699,719,740,759,779,799,819,838,859,879,900,919,939,958,979,999,1020,1039,1059,1080,1099,1120,1139,1159,1180,1200],"xSR":741.5,"ySR":573.95,"xT1":424.9,"yT1":0,"xT2":1058.1,"yT2":0,"toosoon":0,"cond_shown":"Congruent","ratio_trial":300,"L_num":20,"L_den":25,"R_num":14,"R_den":28,"correct_side":1,"subjID":"paulaandreatoropedreros11","gender":"1","school":"6","age":"11"},{"start_time":1551891626652,"click_time":1551891628155,"finger_time":1551891627775,"fix_duration":896.4298272035869,"trial":39,"RT":1123,"MT":380,"sideResp":2,"stimulus":[],"xmouse":[790,790,790,790,790,790,790,790,790,790,790,790,790,790,790,790,790,790,790,790,790,790,790,790,790,790,790,790,790,790,790,790,790,790,790,790,790,790,790,790,790,790,790,790,790,790,790,790,790,790,790,790,790,790,790,793,805,812,828,833,876,900,922,938,950,971,980,985,987,989,991,993,1003,1019,1039,1059],"ymouse":[594,594,594,594,594,594,594,594,594,594,594,594,594,594,594,594,594,594,594,594,594,594,594,594,594,594,594,594,594,594,594,594,594,594,594,594,594,594,594,594,594,594,594,594,594,594,594,594,594,594,594,594,594,594,594,593,572,559,532,523,420,364,312,277,250,205,182,162,147,134,126,120,105,86,71,61],"timestamp_mouse":[6,25,44,64,84,103,124,144,163,184,203,223,243,264,283,303,323,343,364,383,404,423,443,463,483,503,523,543,563,583,604,624,643,662,683,703,724,744,762,784,804,824,844,864,883,903,923,943,964,983,1003,1023,1043,1063,1084,1103,1123,1143,1163,1184,1203,1223,1243,1263,1283,1303,1324,1343,1364,1383,1404,1423,1443,1464,1483,1503],"xSR":741.5,"ySR":573.95,"xT1":424.9,"yT1":0,"xT2":1058.1,"yT2":0,"toosoon":0,"cond_shown":"Incongruent","ratio_trial":200,"L_num":7,"L_den":15,"R_num":6,"R_den":9,"correct_side":2,"subjID":"paulaandreatoropedreros11","gender":"1","school":"6","age":"11"},{"start_time":1551891630197,"click_time":1551891631936,"finger_time":1551891631696,"fix_duration":1220.0776425612733,"trial":40,"RT":1499,"MT":240,"sideResp":2,"stimulus":[],"xmouse":[788,788,788,788,788,788,788,788,788,788,788,788,788,788,788,788,788,788,788,788,788,788,788,788,788,788,788,788,788,788,788,788,788,788,790,791,792,792,792,792,792,792,792,792,792,792,792,792,792,792,792,792,792,792,795,799,802,802,802,802,802,802,802,802,802,802,802,802,802,802,802,802,803,813,833,861,890,919,964,996,1004,1022,1032,1036,1041,1049,1060],"ymouse":[640,640,640,640,640,640,640,640,640,640,640,640,640,640,640,640,640,640,640,640,640,640,640,640,640,640,640,640,640,640,640,640,640,637,625,615,613,613,613,613,613,613,613,613,613,613,613,613,613,613,613,613,613,613,613,612,610,609,609,609,609,609,609,609,609,609,609,609,609,609,609,609,608,598,570,508,405,285,71,0,0,0,0,0,0,0,4],"timestamp_mouse":[19,38,59,78,99,118,138,159,178,198,218,238,259,278,298,318,338,358,379,398,419,439,458,478,499,518,539,558,578,598,619,639,658,678,698,719,739,758,778,798,817,837,857,879,899,918,939,958,978,998,1019,1038,1059,1078,1098,1119,1138,1159,1179,1198,1218,1239,1258,1277,1298,1319,1338,1358,1378,1398,1418,1439,1458,1479,1499,1518,1538,1558,1579,1598,1619,1638,1658,1678,1699,1718,1739],"xSR":741.5,"ySR":573.95,"xT1":424.9,"yT1":0,"xT2":1058.1,"yT2":0,"toosoon":0,"cond_shown":"Incongruent","ratio_trial":100,"L_num":12,"L_den":30,"R_num":2,"R_den":4,"correct_side":2,"subjID":"paulaandreatoropedreros11","gender":"1","school":"6","age":"11"},{"start_time":1551891633767,"click_time":1551891634875,"finger_time":1551891634795,"fix_duration":730.0231226123517,"trial":41,"RT":1028,"MT":80,"sideResp":1,"stimulus":[],"xmouse":[778,778,778,778,778,778,778,778,778,778,778,778,778,778,778,778,778,778,778,778,778,778,778,778,778,778,778,778,778,778,778,778,778,778,778,778,778,778,778,778,778,778,778,778,778,778,778,778,778,779,774,759,697,669,532,511],"ymouse":[616,616,616,616,616,616,616,616,616,616,616,616,616,616,616,616,616,616,616,616,616,616,616,616,616,616,616,616,616,616,616,616,616,616,616,616,616,616,616,616,616,616,616,616,616,616,616,616,616,610,577,492,315,262,112,89],"timestamp_mouse":[11,36,49,67,88,108,127,149,168,189,209,228,248,269,288,308,329,348,369,388,408,429,449,468,488,509,528,549,569,588,608,628,649,667,687,708,729,748,768,789,808,828,848,868,888,908,928,949,968,988,1009,1028,1048,1069,1088,1108],"xSR":741.5,"ySR":573.95,"xT1":424.9,"yT1":0,"xT2":1058.1,"yT2":0,"toosoon":0,"cond_shown":"Incongruent","ratio_trial":300,"L_num":2,"L_den":4,"R_num":6,"R_den":30,"correct_side":1,"subjID":"paulaandreatoropedreros11","gender":"1","school":"6","age":"11"},{"start_time":1551891637523,"click_time":1551891639375,"finger_time":1551891638996,"fix_duration":1406.4980796457428,"trial":42,"RT":1473,"MT":379,"sideResp":2,"stimulus":[],"xmouse":[769,769,769,769,769,769,769,769,769,769,769,769,769,769,769,769,769,769,769,769,769,769,769,769,769,769,769,769,769,769,769,769,769,769,769,769,769,769,769,769,769,769,769,769,769,769,769,769,769,769,769,769,769,769,769,769,769,769,769,769,769,769,769,769,769,769,769,769,769,769,769,773,802,849,937,998,1068,1083,1095,1107,1119,1145,1159,1170,1182,1186,1184,1179,1172,1168,1165,1161,1158],"ymouse":[626,626,626,626,626,626,626,626,626,626,626,626,626,626,626,626,626,626,626,626,626,626,626,626,626,626,626,626,626,626,626,626,626,626,626,626,626,626,626,626,626,626,626,626,626,626,626,626,626,626,626,626,626,626,626,626,626,626,626,626,626,626,626,626,626,626,626,626,626,626,626,626,605,562,456,376,270,242,221,204,193,174,166,153,125,106,83,72,63,57,55,55,55],"timestamp_mouse":[12,31,51,71,91,111,132,152,173,192,212,232,252,272,292,312,332,352,372,392,412,432,452,472,492,512,533,552,572,592,612,632,652,672,692,711,733,752,773,793,813,833,852,873,892,912,932,952,972,992,1013,1032,1052,1073,1092,1113,1133,1152,1172,1192,1213,1232,1253,1273,1291,1312,1332,1353,1373,1393,1412,1432,1453,1473,1492,1513,1532,1552,1572,1593,1613,1633,1652,1673,1693,1712,1733,1753,1773,1792,1813,1832,1852],"xSR":741.5,"ySR":573.95,"xT1":424.9,"yT1":0,"xT2":1058.1,"yT2":0,"toosoon":0,"cond_shown":"Congruent","ratio_trial":200,"L_num":3,"L_den":10,"R_num":11,"R_den":22,"correct_side":2,"subjID":"paulaandreatoropedreros11","gender":"1","school":"6","age":"11"},{"start_time":1551891641177,"click_time":1551891647975,"finger_time":1551891643075,"fix_duration":661.8613575643693,"trial":43,"RT":1898,"MT":4900,"sideResp":1,"stimulus":[],"xmouse":[828,828,828,828,828,828,828,828,828,828,828,828,828,828,828,828,828,828,828,828,828,828,828,828,828,828,828,828,828,828,828,828,828,828,828,828,828,828,828,828,828,828,828,828,828,828,828,828,828,828,828,828,828,828,828,828,828,828,828,828,828,828,828,828,828,828,828,828,828,828,828,828,828,828,828,828,828,828,828,828,828,828,828,828,828,828,828,828,828,828,828,828,828,831,845,869,884,890,891,891,891,891,891,891,891,891,891,889,866,852,836,811,796,767,746,725,703,685,669,650,642,635,633,633,633,633,632,630,620,614,609,601,593,585,579,575,574,572,568,566,560,557,552,543,541,541,541,541,538,536,534,533,533,533,533,533,533,533,533,533,533,533,533,533,533,535,544,559,607,635,657,674,680,681,681,681,684,698,732,747,760,773,785,802,808,816,826,836,859,872,882,891,896,903,905,908,910,912,915,915,915,915,915,919,922,927,932,940,945,957,963,964,964,964,964,964,964,964,965,967,967,967,967,967,967,966,965,964,964,964,965,966,970,980,985,989,993,996,1003,1005,1007,1010,1010,1012,1014,1015,1018,1022,1034,1041,1047,1048,1051,1059,1070,1080,1088,1090,1090,1090,1090,1092,1092,1098,1101,1103,1105,1106,1107,1107,1107,1107,1107,1107,1107,1107,1107,1107,1107,1107,1107,1107,1107,1107,1107,1107,1107,1107,1107,1107,1107,1107,1107,1107,1107,1107,1107,1107,1107,1107,1107,1107,1107,1107,1107,1107,1107,1107,1107,1107,1107,1107,1107,1107,1107,1103,1096,1091,1081,1073,1061,1039,1000,781,675,583,544,531,528,528,527,524,524,531,541,543,543,540,530,517],"ymouse":[647,647,647,647,647,647,647,647,647,647,647,647,647,647,647,647,647,647,647,647,647,647,647,647,647,647,647,647,647,647,647,647,647,647,647,647,647,647,647,647,647,647,647,647,647,647,647,647,647,647,647,647,647,647,647,647,647,647,647,647,647,647,647,647,647,647,647,647,647,647,647,647,647,647,647,647,647,647,647,647,647,647,647,647,647,647,647,647,647,647,647,647,647,639,615,573,546,533,528,528,528,528,528,528,528,528,526,523,492,476,462,443,434,407,377,340,301,276,255,229,220,213,213,213,213,213,213,213,207,203,201,197,192,187,184,182,182,180,177,176,170,168,164,157,157,157,157,157,155,154,153,152,152,152,152,152,152,150,150,150,150,149,149,149,149,148,146,144,142,142,142,144,146,146,146,146,146,144,141,141,140,140,140,140,140,143,145,148,155,159,160,163,165,166,166,166,166,166,164,164,163,163,163,160,157,155,152,148,145,140,134,129,126,124,124,124,123,123,122,122,122,122,122,122,123,123,124,124,124,125,125,125,125,125,125,124,122,121,118,117,117,116,116,116,116,116,116,118,126,133,140,142,144,145,148,151,154,154,154,154,154,154,154,152,148,146,144,142,141,141,141,141,141,141,141,141,141,141,141,141,141,141,141,141,141,141,141,141,141,141,141,141,141,141,141,140,139,138,138,137,136,134,131,129,128,128,128,128,128,128,128,128,128,128,128,128,131,132,134,134,134,134,134,147,163,174,176,168,137,126,119,111,108,77,61,51,43,39,37,42],"timestamp_mouse":[19,39,58,79,99,118,139,158,179,199,218,239,258,278,299,318,339,358,379,398,418,439,458,478,498,518,538,558,579,598,618,639,659,678,698,718,738,758,778,798,818,839,858,878,898,918,938,958,978,998,1018,1038,1059,1078,1098,1118,1138,1158,1179,1198,1218,1238,1258,1278,1299,1318,1338,1358,1379,1397,1418,1438,1458,1478,1498,1519,1539,1558,1578,1598,1618,1639,1658,1679,1698,1719,1738,1758,1778,1798,1819,1839,1858,1878,1898,1917,1938,1958,1978,1999,2017,2038,2058,2079,2098,2118,2139,2158,2177,2198,2219,2239,2259,2279,2299,2318,2339,2359,2378,2399,2419,2438,2458,2478,2497,2519,2539,2559,2578,2598,2618,2639,2659,2678,2697,2718,2739,2758,2778,2799,2818,2838,2858,2878,2898,2918,2939,2958,2979,2999,3018,3038,3059,3079,3098,3119,3138,3158,3179,3198,3218,3238,3258,3278,3298,3319,3338,3359,3378,3399,3418,3438,3458,3478,3498,3519,3538,3559,3579,3598,3619,3638,3658,3678,3698,3718,3739,3758,3778,3798,3819,3839,3858,3879,3898,3918,3938,3959,3977,3998,4018,4038,4058,4078,4099,4118,4137,4158,4178,4198,4218,4238,4258,4278,4298,4319,4337,4358,4379,4399,4418,4438,4459,4479,4499,4518,4538,4559,4578,4599,4618,4639,4658,4679,4699,4718,4738,4759,4779,4798,4819,4839,4859,4877,4898,4918,4939,4958,4978,4999,5018,5038,5057,5078,5099,5118,5138,5159,5179,5199,5218,5238,5258,5278,5298,5319,5338,5358,5378,5399,5419,5438,5458,5478,5498,5519,5539,5558,5579,5599,5618,5638,5658,5679,5698,5719,5738,5759,5778,5799,5818,5839,5857,5879,5899,5919,5938,5959,5978,5999,6018,6039,6058,6078,6099,6118,6139,6158,6178,6198,6219,6239,6259,6277,6298,6318,6339,6358,6379,6398,6419,6439,6459,6479,6498,6518,6539,6559,6579,6598,6618,6639,6659,6678,6698,6718,6738,6758,6778,6798],"xSR":741.5,"ySR":573.95,"xT1":424.9,"yT1":0,"xT2":1058.1,"yT2":0,"toosoon":0,"cond_shown":"Congruent","ratio_trial":200,"L_num":3,"L_den":12,"R_num":9,"R_den":20,"correct_side":2,"subjID":"paulaandreatoropedreros11","gender":"1","school":"6","age":"11"},{"start_time":1551891650162,"click_time":1551891651395,"finger_time":1551891650855,"fix_duration":885.9538602164289,"trial":44,"RT":693,"MT":540,"sideResp":1,"stimulus":[],"xmouse":[816,816,816,816,816,816,816,816,816,816,816,816,816,816,816,816,816,816,816,816,816,816,816,816,816,817,818,818,818,819,818,807,776,760,639,589,560,531,500,441,412,383,353,339,332,336,345,360,370,374,374,375,381,394,419,440,452,455,455,455,455,459],"ymouse":[645,645,645,645,645,645,645,645,645,645,645,645,645,645,645,645,645,645,645,645,645,645,645,645,645,644,644,644,644,643,640,629,594,576,455,416,392,367,338,288,264,246,228,216,204,183,172,149,126,90,78,70,61,44,0,0,0,0,0,0,0,2],"timestamp_mouse":[17,33,53,73,93,113,133,153,173,193,213,233,253,273,294,313,334,354,374,393,413,433,453,474,493,514,533,554,574,593,612,633,654,674,693,714,733,754,774,794,812,833,853,873,893,914,933,953,973,993,1013,1034,1053,1074,1093,1114,1134,1154,1173,1193,1213,1233],"xSR":741.5,"ySR":573.95,"xT1":424.9,"yT1":0,"xT2":1058.1,"yT2":0,"toosoon":0,"cond_shown":"Incongruent","ratio_trial":300,"L_num":8,"L_den":10,"R_num":14,"R_den":28,"correct_side":1,"subjID":"paulaandreatoropedreros11","gender":"1","school":"6","age":"11"},{"start_time":1551891653742,"click_time":1551891655435,"finger_time":1551891654475,"fix_duration":547.7621071476837,"trial":45,"RT":733,"MT":960,"sideResp":1,"stimulus":[],"xmouse":[806,806,806,806,806,806,806,806,806,806,806,806,806,806,806,806,806,806,806,806,806,806,806,806,806,806,806,806,806,806,806,806,806,805,799,778,708,680,659,643,590,553,529,516,504,456,428,402,382,369,362,357,356,355,355,355,355,356,359,364,381,383,385,386,391,397,397,397,398,398,400,403,404,406,407,409,409,410,411,413,414,414,415,416,429],"ymouse":[652,652,652,652,652,652,652,652,652,652,652,652,652,652,652,652,652,652,652,652,652,652,652,652,652,652,652,652,652,652,652,652,652,652,649,632,595,578,557,526,436,384,351,331,312,248,221,202,185,168,152,131,122,115,113,102,97,91,84,75,54,52,51,50,49,47,46,46,46,46,46,46,46,46,46,4