[{"start_time":1551892705405,"click_time":1551892710090,"finger_time":1551892705414,"fix_duration":1371.6799573424275,"trial":0,"RT":9,"MT":4676,"sideResp":2,"stimulus":"img/500/equaldotanddens/L/7_Ratio_500_L_10_R_5.png","xmouse":[799,799,799,799,799,799,799,799,799,799,799,799,799,799,799,799,799,799,799,799,799,799,799,799,799,799,799,799,799,799,799,799,799,799,799,799,799,799,799,799,799,799,799,799,799,799,799,799,799,799,799,799,799,799,799,799,799,799,799,799,799,799,799,799,799,799,799,799,799,799,798,798,805,807,808,808,808,808,808,808,808,808,808,808,808,808,808,808,808,808,808,810,812,812,812,812,812,812,812,812,812,812,812,813,814,815,817,817,817,819,819,819,819,819,819,819,819,819,819,819,819,819,819,819,819,819,819,819,819,819,819,819,819,819,819,819,819,819,819,819,819,819,819,819,819,819,819,819,819,819,819,819,819,819,819,819,819,819,819,819,819,819,819,819,819,819,819,819,819,819,819,819,819,819,819,819,819,819,819,819,819,819,823,828,844,851,854,856,857,857,861,868,876,882,888,902,910,917,923,929,933,940,948,961,982,989,993,996,998,1007,1017,1024,1031,1036,1041,1042,1043,1043,1043,1043,1043,1043,1043,1043,1043,1043,1046,1050,1054,1059,1075,1080,1084,1093,1115],"ymouse":[521,521,521,521,521,521,521,521,521,521,521,521,521,521,521,521,521,521,521,521,521,521,521,521,521,521,521,521,521,521,521,521,521,521,521,521,521,521,521,521,521,521,521,521,521,521,521,521,521,521,521,521,521,521,521,521,521,521,521,521,521,521,521,521,521,521,521,521,521,521,521,521,520,519,519,519,519,519,519,519,519,519,519,519,519,519,519,519,519,519,519,517,514,514,514,514,514,514,514,514,514,514,514,513,511,510,509,508,508,507,507,507,507,507,507,507,507,507,507,507,507,507,507,507,507,507,507,507,507,507,507,507,507,507,507,507,507,507,507,507,507,507,507,507,507,507,507,507,507,507,507,507,507,507,507,507,507,507,507,507,507,507,507,507,507,507,507,507,507,507,507,507,507,507,507,507,507,507,507,507,507,507,502,496,485,481,480,479,479,479,474,468,461,455,449,431,419,406,397,385,380,367,354,333,297,286,278,273,271,260,246,234,222,210,189,184,179,176,176,176,176,176,176,176,176,176,172,167,161,154,135,129,123,108,70],"timestamp_mouse":[9,25,45,65,85,105,125,145,166,186,206,226,245,266,285,305,326,346,365,386,406,425,445,466,485,506,525,545,566,585,605,625,646,666,686,706,725,745,765,786,805,826,845,866,885,905,926,945,966,986,1005,1025,1045,1066,1085,1105,1124,1146,1165,1186,1205,1226,1246,1265,1285,1305,1326,1345,1365,1386,1406,1425,1446,1466,1485,1505,1526,1545,1565,1585,1606,1625,1645,1666,1686,1705,1725,1745,1765,1785,1806,1825,1845,1865,1885,1906,1926,1945,1965,1985,2005,2026,2045,2065,2085,2105,2126,2146,2166,2185,2205,2225,2246,2266,2285,2305,2325,2345,2365,2386,2405,2426,2446,2466,2484,2505,2525,2544,2566,2586,2605,2625,2645,2665,2685,2706,2726,2745,2765,2786,2806,2825,2845,2866,2885,2905,2926,2945,2965,2986,3006,3026,3045,3065,3085,3105,3125,3145,3166,3185,3206,3225,3245,3266,3285,3305,3326,3346,3366,3386,3405,3426,3445,3465,3486,3506,3526,3546,3566,3586,3606,3625,3646,3665,3685,3705,3725,3746,3766,3785,3806,3826,3845,3865,3884,3905,3925,3946,3965,3985,4005,4025,4045,4065,4085,4106,4125,4146,4165,4185,4205,4225,4246,4266,4285,4305,4325,4345,4366,4385,4405,4425,4445,4465,4485,4505,4526,4545,4565,4585,4605,4625,4646,4665,4685],"xSR":741.5,"ySR":501.8,"xT1":424.9,"yT1":0,"xT2":1058.1,"yT2":0,"toosoon":0,"cond_shown":"equaldotanddens","ratio_trial":500,"smaller_num":"5","larger_num":"10","correct_side":1,"subjID":"paulaandreatoropedreros","gender":"1","age":"11","school":"6","test":{"fix_dur":[250,1500],"timestim":300,"targets_dim":[100,100],"targets_relative_coord":[0.3,0.7],"size_stim":[880,420],"start_dim":[100,100],"size_start":[300,300],"size_fix":60,"samplingrate":20,"img_types":["equaldotsize","equaldotanddens","randomdotsizeEA"],"ratios":[250,500,750,900],"rep_conds":9,"nTrials":120,"trials_to_rest":500,"Trials_order":[88,66,20,25,114,33,40,80,90,79,116,7,35,29,11,73,113,30,43,64,77,24,39,44,37,1,85,91,59,0,72,92,53,62,104,71,106,89,118,93,68,119,36,117,99,57,8,87,110,98,100,82,4,21,107,115,38,83,54,69,32,51,15,103,76,112,102,9,45,95,41,18,56,78,55,27,12,22,5,108,109,47,61,86,13,52,94,84,14,26,58,111,97,10,70,60,42,16,65,46,34,96,28,74,75,3,48,50,19,105,81,6,63,49,67,23,31,2,17,101],"cond_shown":["equaldotanddens","equaldotsize","randomdotsizeEA","equaldotanddens","equaldotsize","equaldotsize","equaldotanddens","randomdotsizeEA","equaldotsize","equaldotanddens","randomdotsizeEA","equaldotanddens","randomdotsizeEA","randomdotsizeEA","randomdotsizeEA","equaldotanddens","randomdotsizeEA","equaldotsize","equaldotanddens","equaldotanddens","randomdotsizeEA","equaldotsize","equaldotsize","randomdotsizeEA","equaldotanddens","equaldotanddens","equaldotanddens","equaldotanddens","randomdotsizeEA","equaldotsize","equaldotsize","randomdotsizeEA","randomdotsizeEA","randomdotsizeEA","randomdotsizeEA","randomdotsizeEA","equaldotanddens","randomdotsizeEA","equaldotanddens","equaldotsize","randomdotsizeEA","randomdotsizeEA","equaldotsize","equaldotsize","equaldotsize","equaldotsize","randomdotsizeEA","equaldotsize","randomdotsizeEA","randomdotsizeEA","equaldotanddens","equaldotanddens","equaldotanddens","equaldotsize","randomdotsizeEA","equaldotanddens","randomdotsizeEA","randomdotsizeEA","equaldotsize","equaldotsize","randomdotsizeEA","equaldotsize","equaldotsize","equaldotanddens","equaldotanddens","equaldotanddens","equaldotsize","equaldotsize","equaldotsize","randomdotsizeEA","randomdotsizeEA","equaldotsize","randomdotsizeEA","equaldotsize","equaldotanddens","equaldotsize","equaldotsize","equaldotanddens","randomdotsizeEA","equaldotsize","equaldotanddens","randomdotsizeEA","equaldotanddens","randomdotsizeEA","equaldotanddens","equaldotanddens","equaldotanddens","equaldotsize","randomdotsizeEA","randomdotsizeEA","equaldotanddens","equaldotsize","equaldotanddens","equaldotanddens","equaldotanddens","equaldotsize","equaldotsize","equaldotanddens","randomdotsizeEA","equaldotanddens","equaldotanddens","equaldotsize","equaldotanddens","randomdotsizeEA","equaldotsize","equaldotsize","equaldotsize","randomdotsizeEA","equaldotanddens","equaldotsize","equaldotsize","equaldotsize","equaldotsize","equaldotanddens","equaldotanddens","randomdotsizeEA","equaldotanddens","randomdotsizeEA","randomdotsizeEA","randomdotsizeEA"],"ratio_trial":[500,750,750,250,750,900,500,750,750,750,750,750,900,500,900,250,500,750,750,500,500,250,500,750,250,250,250,750,900,250,250,750,500,250,750,900,900,500,900,900,750,900,250,900,500,900,750,500,250,250,500,900,500,900,900,750,250,900,750,900,750,500,500,750,500,500,750,900,900,900,500,750,750,750,750,500,250,900,500,250,250,900,250,250,250,500,900,250,250,250,900,500,250,900,900,250,750,500,500,900,900,250,500,250,500,500,250,250,750,900,900,750,500,250,750,900,750,250,500,500],"smaller_num":["5","3","15","3","12","9","4","3","6","3","6","6","9","2","9","2","3","15","3","1","3","3","2","9","1","1","4","3","18","2","3","6","9","3","15","9","9","10","18","18","6","18","2","18","6","9","12","3","3","5","2","18","5","9","9","9","6","18","15","18","6","9","3","9","6","4","18","18","18","9","5","3","3","3","3","2","2","18","9","6","2","18","6","4","3","1","9","4","6","6","18","6","3","18","18","2","3","5","5","18","18","4","2","2","10","5","2","3","15","18","9","18","3","4","3","9","3","6","2","9"],"larger_num":["10","4","20","12","16","10","8","4","8","4","8","8","10","4","10","8","6","20","4","2","6","12","4","12","4","4","16","4","20","8","12","8","18","12","20","10","10","20","20","20","8","20","8","20","12","10","16","6","12","20","4","20","10","10","10","12","24","20","20","20","8","18","6","12","12","8","24","20","20","10","10","4","4","4","4","4","8","20","18","24","8","20","24","16","12","2","10","16","24","24","20","12","12","20","20","8","4","10","10","20","20","16","4","8","20","10","8","12","20","20","10","24","6","16","4","10","4","24","4","18"],"correct_side":[1,1,1,1,2,2,1,2,1,1,1,1,1,1,2,1,2,2,2,2,2,2,1,2,2,2,1,1,1,1,1,1,1,2,2,2,2,2,1,2,2,2,1,2,1,1,2,2,2,2,2,1,1,2,2,2,2,1,2,1,1,2,2,2,1,1,1,1,1,2,2,1,1,1,1,2,1,1,2,1,1,1,1,1,2,2,1,1,2,2,1,1,1,1,1,1,1,2,1,2,1,2,2,1,2,1,1,2,2,1,2,1,2,1,1,1,1,2,1,2],"img_shown":["img/500/equaldotanddens/L/7_Ratio_500_L_10_R_5.png","img/750/equaldotsize/L/8_Ratio_750_L_4_R_3.png","img/750/randomdotsizeEA/L/1_Ratio_750_L_20_R_15.png","img/250/equaldotanddens/L/15_Ratio_250_L_12_R_3.png","img/750/equaldotsize/R/11_Ratio_750_L_12_R_16.png","img/900/equaldotsize/R/3_Ratio_900_L_9_R_10.png","img/500/equaldotanddens/L/8_Ratio_500_L_8_R_4.png","img/750/randomdotsizeEA/R/7_Ratio_750_L_3_R_4.png","img/750/equaldotsize/L/13_Ratio_750_L_8_R_6.png","img/750/equaldotanddens/L/10_Ratio_750_L_4_R_3.png","img/750/randomdotsizeEA/L/14_Ratio_750_L_8_R_6.png","img/750/equaldotanddens/L/14_Ratio_750_L_8_R_6.png","img/900/randomdotsizeEA/L/1_Ratio_900_L_10_R_9.png","img/500/randomdotsizeEA/L/5_Ratio_500_L_4_R_2.png","img/900/randomdotsizeEA/R/3_Ratio_900_L_9_R_10.png","img/250/equaldotanddens/L/7_Ratio_250_L_8_R_2.png","img/500/randomdotsizeEA/R/2_Ratio_500_L_3_R_6.png","img/750/equaldotsize/R/3_Ratio_750_L_15_R_20.png","img/750/equaldotanddens/R/7_Ratio_750_L_3_R_4.png","img/500/equaldotanddens/R/15_Ratio_500_L_1_R_2.png","img/500/randomdotsizeEA/R/2_Ratio_500_L_3_R_6.png","img/250/equaldotsize/R/11_Ratio_250_L_3_R_12.png","img/500/equaldotsize/L/5_Ratio_500_L_4_R_2.png","img/750/randomdotsizeEA/R/15_Ratio_750_L_9_R_12.png","img/250/equaldotanddens/R/8_Ratio_250_L_1_R_4.png","img/250/equaldotanddens/R/8_Ratio_250_L_1_R_4.png","img/250/equaldotanddens/L/2_Ratio_250_L_16_R_4.png","img/750/equaldotanddens/L/9_Ratio_750_L_4_R_3.png","img/900/randomdotsizeEA/L/10_Ratio_900_L_20_R_18.png","img/250/equaldotsize/L/1_Ratio_250_L_8_R_2.png","img/250/equaldotsize/L/14_Ratio_250_L_12_R_3.png","img/750/randomdotsizeEA/L/13_Ratio_750_L_8_R_6.png","img/500/randomdotsizeEA/L/4_Ratio_500_L_18_R_9.png","img/250/randomdotsizeEA/R/4_Ratio_250_L_3_R_12.png","img/750/randomdotsizeEA/R/5_Ratio_750_L_15_R_20.png","img/900/randomdotsizeEA/R/15_Ratio_900_L_9_R_10.png","img/900/equaldotanddens/R/7_Ratio_900_L_9_R_10.png","img/500/randomdotsizeEA/R/3_Ratio_500_L_10_R_20.png","img/900/equaldotanddens/L/10_Ratio_900_L_20_R_18.png","img/900/equaldotsize/R/13_Ratio_900_L_18_R_20.png","img/750/randomdotsizeEA/R/2_Ratio_750_L_6_R_8.png","img/900/randomdotsizeEA/R/9_Ratio_900_L_18_R_20.png","img/250/equaldotsize/L/7_Ratio_250_L_8_R_2.png","img/900/equaldotsize/R/12_Ratio_900_L_18_R_20.png","img/500/equaldotsize/L/13_Ratio_500_L_12_R_6.png","img/900/equaldotsize/L/1_Ratio_900_L_10_R_9.png","img/750/randomdotsizeEA/R/11_Ratio_750_L_12_R_16.png","img/500/equaldotsize/R/2_Ratio_500_L_3_R_6.png","img/250/randomdotsizeEA/R/4_Ratio_250_L_3_R_12.png","img/250/randomdotsizeEA/R/12_Ratio_250_L_5_R_20.png","img/500/equaldotanddens/R/9_Ratio_500_L_2_R_4.png","img/900/equaldotanddens/L/2_Ratio_900_L_20_R_18.png","img/500/equaldotanddens/L/7_Ratio_500_L_10_R_5.png","img/900/equaldotsize/R/6_Ratio_900_L_9_R_10.png","img/900/randomdotsizeEA/R/3_Ratio_900_L_9_R_10.png","img/750/equaldotanddens/R/15_Ratio_750_L_9_R_12.png","img/250/randomdotsizeEA/R/6_Ratio_250_L_6_R_24.png","img/900/randomdotsizeEA/L/10_Ratio_900_L_20_R_18.png","img/750/equaldotsize/R/5_Ratio_750_L_15_R_20.png","img/900/equaldotsize/L/8_Ratio_900_L_20_R_18.png","img/750/randomdotsizeEA/L/13_Ratio_750_L_8_R_6.png","img/500/equaldotsize/R/1_Ratio_500_L_9_R_18.png","img/500/equaldotsize/R/2_Ratio_500_L_3_R_6.png","img/750/equaldotanddens/R/15_Ratio_750_L_9_R_12.png","img/500/equaldotanddens/L/11_Ratio_500_L_12_R_6.png","img/500/equaldotanddens/L/8_Ratio_500_L_8_R_4.png","img/750/equaldotsize/L/6_Ratio_750_L_24_R_18.png","img/900/equaldotsize/L/4_Ratio_900_L_20_R_18.png","img/900/equaldotsize/L/2_Ratio_900_L_20_R_18.png","img/900/randomdotsizeEA/R/3_Ratio_900_L_9_R_10.png","img/500/randomdotsizeEA/R/14_Ratio_500_L_5_R_10.png","img/750/equaldotsize/L/10_Ratio_750_L_4_R_3.png","img/750/randomdotsizeEA/L/10_Ratio_750_L_4_R_3.png","img/750/equaldotsize/L/9_Ratio_750_L_4_R_3.png","img/750/equaldotanddens/L/8_Ratio_750_L_4_R_3.png","img/500/equaldotsize/R/9_Ratio_500_L_2_R_4.png","img/250/equaldotsize/L/7_Ratio_250_L_8_R_2.png","img/900/equaldotanddens/L/4_Ratio_900_L_20_R_18.png","img/500/randomdotsizeEA/R/6_Ratio_500_L_9_R_18.png","img/250/equaldotsize/L/5_Ratio_250_L_24_R_6.png","img/250/equaldotanddens/L/3_Ratio_250_L_8_R_2.png","img/900/randomdotsizeEA/L/8_Ratio_900_L_20_R_18.png","img/250/equaldotanddens/L/5_Ratio_250_L_24_R_6.png","img/250/randomdotsizeEA/L/2_Ratio_250_L_16_R_4.png","img/250/equaldotanddens/R/11_Ratio_250_L_3_R_12.png","img/500/equaldotanddens/R/15_Ratio_500_L_1_R_2.png","img/900/equaldotanddens/L/1_Ratio_900_L_10_R_9.png","img/250/equaldotsize/L/2_Ratio_250_L_16_R_4.png","img/250/randomdotsizeEA/R/6_Ratio_250_L_6_R_24.png","img/250/randomdotsizeEA/R/6_Ratio_250_L_6_R_24.png","img/900/equaldotanddens/L/10_Ratio_900_L_20_R_18.png","img/500/equaldotsize/L/13_Ratio_500_L_12_R_6.png","img/250/equaldotanddens/L/15_Ratio_250_L_12_R_3.png","img/900/equaldotanddens/L/10_Ratio_900_L_20_R_18.png","img/900/equaldotanddens/L/10_Ratio_900_L_20_R_18.png","img/250/equaldotsize/L/1_Ratio_250_L_8_R_2.png","img/750/equaldotsize/L/9_Ratio_750_L_4_R_3.png","img/500/equaldotanddens/R/14_Ratio_500_L_5_R_10.png","img/500/randomdotsizeEA/L/7_Ratio_500_L_10_R_5.png","img/900/equaldotanddens/R/14_Ratio_900_L_18_R_20.png","img/900/equaldotanddens/L/2_Ratio_900_L_20_R_18.png","img/250/equaldotsize/R/10_Ratio_250_L_4_R_16.png","img/500/equaldotanddens/R/9_Ratio_500_L_2_R_4.png","img/250/randomdotsizeEA/L/1_Ratio_250_L_8_R_2.png","img/500/equaldotsize/R/3_Ratio_500_L_10_R_20.png","img/500/equaldotsize/L/7_Ratio_500_L_10_R_5.png","img/250/equaldotsize/L/1_Ratio_250_L_8_R_2.png","img/250/randomdotsizeEA/R/4_Ratio_250_L_3_R_12.png","img/750/equaldotanddens/R/5_Ratio_750_L_15_R_20.png","img/900/equaldotsize/L/10_Ratio_900_L_20_R_18.png","img/900/equaldotsize/R/15_Ratio_900_L_9_R_10.png","img/750/equaldotsize/L/6_Ratio_750_L_24_R_18.png","img/500/equaldotsize/R/2_Ratio_500_L_3_R_6.png","img/250/equaldotanddens/L/2_Ratio_250_L_16_R_4.png","img/750/equaldotanddens/L/10_Ratio_750_L_4_R_3.png","img/900/randomdotsizeEA/L/1_Ratio_900_L_10_R_9.png","img/750/equaldotanddens/L/10_Ratio_750_L_4_R_3.png","img/250/randomdotsizeEA/R/6_Ratio_250_L_6_R_24.png","img/500/randomdotsizeEA/L/5_Ratio_500_L_4_R_2.png","img/500/randomdotsizeEA/R/1_Ratio_500_L_9_R_18.png"],"Rat0":[["12_Ratio_0_L_9_R_0.png","13_Ratio_0_L_6_R_0.png","5_Ratio_0_L_2_R_0.png","6_Ratio_0_L_4_R_0.png","8_Ratio_0_L_6_R_0.png"],["1_Ratio_0_L_0_R_17.png","10_Ratio_0_L_0_R_22.png","11_Ratio_0_L_0_R_1.png","14_Ratio_0_L_0_R_24.png","15_Ratio_0_L_0_R_4.png","2_Ratio_0_L_0_R_5.png","3_Ratio_0_L_0_R_17.png","4_Ratio_0_L_0_R_7.png","7_Ratio_0_L_0_R_19.png","9_Ratio_0_L_0_R_15.png"]],"Rat250":[["1_Ratio_250_L_8_R_2.png","14_Ratio_250_L_12_R_3.png","15_Ratio_250_L_12_R_3.png","2_Ratio_250_L_16_R_4.png","3_Ratio_250_L_8_R_2.png","5_Ratio_250_L_24_R_6.png","7_Ratio_250_L_8_R_2.png"],["10_Ratio_250_L_4_R_16.png","11_Ratio_250_L_3_R_12.png","12_Ratio_250_L_5_R_20.png","13_Ratio_250_L_2_R_8.png","4_Ratio_250_L_3_R_12.png","6_Ratio_250_L_6_R_24.png","8_Ratio_250_L_1_R_4.png","9_Ratio_250_L_3_R_12.png"]],"Rat500":[["10_Ratio_500_L_4_R_2.png","11_Ratio_500_L_12_R_6.png","13_Ratio_500_L_12_R_6.png","4_Ratio_500_L_18_R_9.png","5_Ratio_500_L_4_R_2.png","7_Ratio_500_L_10_R_5.png","8_Ratio_500_L_8_R_4.png"],["1_Ratio_500_L_9_R_18.png","12_Ratio_500_L_1_R_2.png","14_Ratio_500_L_5_R_10.png","15_Ratio_500_L_1_R_2.png","2_Ratio_500_L_3_R_6.png","3_Ratio_500_L_10_R_20.png","6_Ratio_500_L_9_R_18.png","9_Ratio_500_L_2_R_4.png"]],"Rat750":[["1_Ratio_750_L_20_R_15.png","10_Ratio_750_L_4_R_3.png","13_Ratio_750_L_8_R_6.png","14_Ratio_750_L_8_R_6.png","6_Ratio_750_L_24_R_18.png","8_Ratio_750_L_4_R_3.png","9_Ratio_750_L_4_R_3.png"],["11_Ratio_750_L_12_R_16.png","12_Ratio_750_L_3_R_4.png","15_Ratio_750_L_9_R_12.png","2_Ratio_750_L_6_R_8.png","3_Ratio_750_L_15_R_20.png","4_Ratio_750_L_15_R_20.png","5_Ratio_750_L_15_R_20.png","7_Ratio_750_L_3_R_4.png"]],"Rat900":[["1_Ratio_900_L_10_R_9.png","10_Ratio_900_L_20_R_18.png","2_Ratio_900_L_20_R_18.png","4_Ratio_900_L_20_R_18.png","8_Ratio_900_L_20_R_18.png"],["11_Ratio_900_L_18_R_20.png","12_Ratio_900_L_18_R_20.png","13_Ratio_900_L_18_R_20.png","14_Ratio_900_L_18_R_20.png","15_Ratio_900_L_9_R_10.png","3_Ratio_900_L_9_R_10.png","5_Ratio_900_L_9_R_10.png","6_Ratio_900_L_9_R_10.png","7_Ratio_900_L_9_R_10.png","9_Ratio_900_L_18_R_20.png"]],"Rat1000":[["10_Ratio_1000_L_16_R_16.png","11_Ratio_1000_L_6_R_6.png","12_Ratio_1000_L_14_R_14.png","13_Ratio_1000_L_20_R_20.png","15_Ratio_1000_L_15_R_15.png","2_Ratio_1000_L_17_R_17.png","4_Ratio_1000_L_9_R_9.png","5_Ratio_1000_L_6_R_6.png","6_Ratio_1000_L_19_R_19.png","8_Ratio_1000_L_14_R_14.png","9_Ratio_1000_L_25_R_25.png"],["1_Ratio_1000_L_1_R_1.png","14_Ratio_1000_L_17_R_17.png","3_Ratio_1000_L_17_R_17.png","7_Ratio_1000_L_6_R_6.png"]]}},{"start_time":1551892712732,"click_time":1551892714210,"finger_time":1551892713910,"fix_duration":279.9383175196317,"trial":1,"RT":1178,"MT":300,"sideResp":1,"stimulus":"img/750/equaldotsize/L/8_Ratio_750_L_4_R_3.png","xmouse":[801,801,801,801,801,801,801,801,801,801,801,801,801,801,801,801,801,801,801,801,801,801,801,801,801,801,801,801,801,801,801,801,801,801,801,801,801,801,801,796,793,789,789,789,789,789,789,789,789,789,789,789,789,789,789,785,779,758,742,723,704,685,647,633,615,608,604,596,592,586,577,564,535,505],"ymouse":[649,649,649,649,649,649,649,649,649,649,649,649,649,649,649,649,649,649,649,649,649,649,649,649,649,649,649,649,649,649,649,649,649,649,649,649,649,649,649,649,649,649,649,649,649,649,649,649,649,649,649,649,649,649,649,645,633,585,552,520,486,456,394,359,299,269,248,221,207,193,173,156,126,96],"timestamp_mouse":[23,41,58,79,98,119,139,159,178,198,219,238,259,279,299,318,339,358,379,398,418,438,458,478,498,518,538,559,579,598,618,638,657,678,699,718,738,758,778,799,818,839,858,879,899,918,939,958,978,998,1018,1038,1059,1079,1098,1118,1138,1158,1178,1199,1218,1239,1258,1277,1299,1319,1338,1358,1378,1398,1419,1438,1458,1478],"xSR":741.5,"ySR":573.95,"xT1":424.9,"yT1":0,"xT2":1058.1,"yT2":0,"toosoon":0,"cond_shown":"equaldotsize","ratio_trial":750,"smaller_num":"3","larger_num":"4","correct_side":1,"subjID":"paulaandreatoropedreros","gender":"1","age":"11","school":"6"},{"start_time":1551892715433,"click_time":1551892716871,"finger_time":1551892716571,"fix_duration":442.8155727742936,"trial":2,"RT":1138,"MT":300,"sideResp":1,"stimulus":"img/750/randomdotsizeEA/L/1_Ratio_750_L_20_R_15.png","xmouse":[793,793,793,793,793,793,793,793,793,793,793,793,793,793,793,793,793,793,793,793,793,793,793,793,793,793,793,793,793,793,793,793,793,793,793,793,793,793,793,793,793,793,792,789,784,775,764,755,752,751,751,751,751,751,751,750,739,703,685,654,635,618,605,602,595,584,570,547,542,535,528,517],"ymouse":[593,593,593,593,593,593,593,593,593,593,593,593,593,593,593,593,593,593,593,593,593,593,593,593,593,593,593,593,593,593,593,593,593,593,593,593,593,593,593,593,593,593,593,593,593,593,592,591,590,590,590,590,590,590,587,584,558,428,363,267,204,157,122,115,103,90,79,70,70,76,79,84],"timestamp_mouse":[18,38,57,78,98,118,137,158,177,198,217,237,257,277,297,318,338,357,378,397,417,438,457,478,498,517,538,557,578,597,617,637,657,678,697,718,738,757,777,797,817,838,857,877,897,917,937,957,977,998,1018,1038,1057,1077,1097,1117,1138,1157,1177,1197,1218,1236,1258,1277,1298,1317,1337,1357,1377,1397,1417,1437],"xSR":741.5,"ySR":573.95,"xT1":424.9,"yT1":0,"xT2":1058.1,"yT2":0,"toosoon":0,"cond_shown":"randomdotsizeEA","ratio_trial":750,"smaller_num":"15","larger_num":"20","correct_side":1,"subjID":"paulaandreatoropedreros","gender":"1","age":"11","school":"6"},{"start_time":1551892720945,"click_time":1551892721810,"finger_time":1551892721570,"fix_duration":1472.4945804703207,"trial":3,"RT":625,"MT":240,"sideResp":1,"stimulus":"img/250/equaldotanddens/L/15_Ratio_250_L_12_R_3.png","xmouse":[802,803,803,804,804,804,804,804,804,804,804,804,804,804,804,804,804,804,804,804,804,804,804,804,804,804,804,804,804,800,790,769,703,653,599,529,497,453,431,414,404,400,405,426],"ymouse":[631,632,632,633,633,633,633,633,633,633,633,633,633,633,633,633,633,633,633,633,633,633,633,633,633,634,634,632,621,605,581,537,440,381,321,239,199,142,102,71,51,36,28,27],"timestamp_mouse":[5,26,45,66,85,105,125,146,166,185,205,225,246,266,285,306,326,345,366,386,406,425,445,466,486,506,525,545,565,585,605,625,645,665,685,706,725,745,765,785,806,826,845,865],"xSR":741.5,"ySR":573.95,"xT1":424.9,"yT1":0,"xT2":1058.1,"yT2":0,"toosoon":0,"cond_shown":"equaldotanddens","ratio_trial":250,"smaller_num":"3","larger_num":"12","correct_side":1,"subjID":"paulaandreatoropedreros","gender":"1","age":"11","school":"6"},{"start_time":1551892745385,"click_time":1551892746190,"finger_time":1551892746090,"fix_duration":673.8062558310493,"trial":4,"RT":705,"MT":100,"sideResp":2,"stimulus":"img/750/equaldotsize/R/11_Ratio_750_L_12_R_16.png","xmouse":[799,799,799,799,799,799,799,799,799,799,799,799,799,799,799,799,799,799,799,799,799,799,799,799,799,799,799,799,799,799,799,799,799,801,814,884,938,988,1023,1046,1079],"ymouse":[606,606,606,606,606,606,606,606,606,606,606,606,606,606,606,606,606,606,606,606,606,606,606,606,606,606,606,606,606,606,606,606,606,604,586,481,399,321,246,172,58],"timestamp_mouse":[10,38,46,66,86,105,125,145,166,185,205,225,246,265,285,304,326,345,365,385,405,425,445,466,485,506,526,545,565,585,605,625,645,665,685,705,725,745,765,785,805],"xSR":741.5,"ySR":573.95,"xT1":424.9,"yT1":0,"xT2":1058.1,"yT2":0,"toosoon":0,"cond_shown":"equaldotsize","ratio_trial":750,"smaller_num":"12","larger_num":"16","correct_side":2,"subjID":"paulaandreatoropedreros","gender":"1","age":"11","school":"6"},{"start_time":1551892751862,"click_time":1551892753010,"finger_time":1551892752650,"fix_duration":250,"trial":5,"RT":788,"MT":360,"sideResp":1,"stimulus":"img/900/equaldotsize/R/3_Ratio_900_L_9_R_10.png","xmouse":[783,783,783,783,783,783,783,783,783,783,783,783,783,783,783,783,783,783,783,783,783,783,783,783,783,783,783,783,783,783,783,783,783,783,783,783,780,766,753,735,714,694,661,643,634,621,611,611,603,592,581,575,575,575,574,573,546,515],"ymouse":[633,633,633,633,633,633,633,633,633,633,633,633,633,633,633,633,633,633,633,633,633,633,633,633,633,633,633,633,633,633,633,633,633,633,633,633,633,629,623,614,600,587,552,527,508,461,208,86,24,0,0,0,0,0,0,0,10,27],"timestamp_mouse":[8,33,48,68,89,108,128,149,170,189,208,229,248,268,288,308,329,348,369,388,408,428,448,468,488,509,528,549,568,588,609,629,649,669,689,708,727,749,768,788,809,828,848,868,888,908,928,948,969,988,1008,1029,1048,1068,1088,1109,1128,1147],"xSR":741.5,"ySR":573.95,"xT1":424.9,"yT1":0,"xT2":1058.1,"yT2":0,"toosoon":0,"cond_shown":"equaldotsize","ratio_trial":900,"smaller_num":"9","larger_num":"10","correct_side":2,"subjID":"paulaandreatoropedreros","gender":"1","age":"11","school":"6"},{"start_time":1551892754820,"click_time":1551892755510,"finger_time":1551892755451,"fix_duration":788.5013769949048,"trial":6,"RT":631,"MT":59,"sideResp":1,"stimulus":"img/500/equaldotanddens/L/8_Ratio_500_L_8_R_4.png","xmouse":[784,784,784,784,784,784,784,784,784,784,784,785,785,785,785,785,785,785,785,785,785,785,785,785,785,785,784,781,766,760,745,715,667,523,445],"ymouse":[631,631,631,631,631,631,631,631,631,631,631,632,632,632,632,632,632,632,632,632,632,632,632,632,632,632,631,627,613,606,586,546,473,211,69],"timestamp_mouse":[10,31,50,70,90,110,130,150,170,191,210,231,250,270,290,310,331,350,370,391,410,431,450,471,490,511,530,551,571,590,610,631,650,670,690],"xSR":741.5,"ySR":573.95,"xT1":424.9,"yT1":0,"xT2":1058.1,"yT2":0,"toosoon":0,"cond_shown":"equaldotanddens","ratio_trial":500,"smaller_num":"4","larger_num":"8","correct_side":1,"subjID":"paulaandreatoropedreros","gender":"1","age":"11","school":"6"},{"start_time":1551892758025,"click_time":1551892759390,"finger_time":1551892759130,"fix_duration":1373.6869623371017,"trial":7,"RT":1105,"MT":260,"sideResp":2,"stimulus":"img/750/randomdotsizeEA/R/7_Ratio_750_L_3_R_4.png","xmouse":[787,787,787,787,787,787,787,787,787,787,787,787,787,787,787,787,787,787,787,787,787,787,787,787,787,787,787,787,787,787,787,787,787,787,787,787,787,787,787,787,787,787,787,787,787,787,787,787,787,787,787,787,787,794,838,902,981,1041,1147,1174,1178,1174,1166,1159,1158,1154,1151,1145,1126],"ymouse":[625,629,633,640,643,643,643,643,643,643,643,643,643,643,643,643,643,643,643,643,643,643,643,643,643,643,643,643,643,643,643,643,643,643,643,643,643,643,643,643,643,643,643,643,643,643,643,643,643,643,643,643,643,642,596,547,493,447,311,216,101,47,21,0,0,0,0,0,11],"timestamp_mouse":[5,26,48,65,85,105,126,146,166,186,205,225,245,266,285,305,326,346,366,385,406,425,446,465,485,505,525,545,566,585,606,625,646,666,686,705,725,745,765,785,806,826,845,865,885,905,925,945,965,985,1005,1025,1045,1066,1085,1105,1125,1145,1165,1186,1205,1225,1246,1265,1285,1306,1325,1345,1364],"xSR":741.5,"ySR":573.95,"xT1":424.9,"yT1":0,"xT2":1058.1,"yT2":0,"toosoon":0,"cond_shown":"randomdotsizeEA","ratio_trial":750,"smaller_num":"3","larger_num":"4","correct_side":2,"subjID":"paulaandreatoropedreros","gender":"1","age":"11","school":"6"},{"start_time":1551892760722,"click_time":1551892761471,"finger_time":1551892761290,"fix_duration":250,"trial":8,"RT":568,"MT":181,"sideResp":1,"stimulus":"img/750/equaldotsize/L/13_Ratio_750_L_8_R_6.png","xmouse":[781,781,781,781,781,781,781,781,781,781,781,781,781,781,781,781,781,781,781,781,781,781,781,781,781,781,781,780,757,733,709,684,665,631,595,564,535,514],"ymouse":[647,647,647,647,647,647,647,647,647,647,647,647,647,647,647,647,647,647,647,647,647,647,647,647,647,647,645,628,519,435,348,264,197,106,59,38,25,20],"timestamp_mouse":[8,34,49,68,88,109,128,148,168,189,208,229,248,268,288,310,329,349,368,389,408,428,448,470,489,510,529,549,568,588,609,629,649,669,689,709,729,749],"xSR":741.5,"ySR":573.95,"xT1":424.9,"yT1":0,"xT2":1058.1,"yT2":0,"toosoon":0,"cond_shown":"equaldotsize","ratio_trial":750,"smaller_num":"6","larger_num":"8","correct_side":1,"subjID":"paulaandreatoropedreros","gender":"1","age":"11","school":"6"},{"start_time":1551892763852,"click_time":1551892764932,"finger_time":1551892764591,"fix_duration":1139.1926851929052,"trial":9,"RT":739,"MT":341,"sideResp":1,"stimulus":"img/750/equaldotanddens/L/10_Ratio_750_L_4_R_3.png","xmouse":[784,784,784,784,784,784,784,784,784,784,784,784,784,784,784,784,784,784,784,784,784,784,784,784,784,784,784,784,784,784,784,784,784,784,784,784,784,784,784,777,759,731,656,633,617,611,609,602,594,586,576,563,550,529,524],"ymouse":[605,605,605,605,605,605,605,605,605,605,605,605,605,605,605,605,605,605,605,605,605,605,605,605,605,605,605,605,603,602,601,600,595,593,591,589,587,564,526,373,246,136,26,10,4,3,3,4,9,16,26,40,52,62,62],"timestamp_mouse":[1,19,39,59,79,99,119,139,158,180,199,219,239,260,279,300,320,339,359,379,399,420,439,460,480,499,519,539,559,579,598,618,638,658,678,699,719,739,759,779,799,819,839,859,879,898,920,939,958,979,1000,1020,1039,1059,1080],"xSR":741.5,"ySR":573.95,"xT1":424.9,"yT1":0,"xT2":1058.1,"yT2":0,"toosoon":0,"cond_shown":"equaldotanddens","ratio_trial":750,"smaller_num":"3","larger_num":"4","correct_side":1,"subjID":"paulaandreatoropedreros","gender":"1","age":"11","school":"6"},{"start_time":1551892767195,"click_time":1551892768251,"finger_time":1551892768010,"fix_duration":1183.0569701628283,"trial":10,"RT":815,"MT":241,"sideResp":1,"stimulus":"img/750/randomdotsizeEA/L/14_Ratio_750_L_8_R_6.png","xmouse":[781,781,781,781,781,781,781,781,781,781,781,781,781,781,781,781,781,781,781,781,781,781,781,781,781,781,781,781,781,781,781,781,781,781,781,781,781,781,781,781,769,745,719,693,661,656,649,637,620,582,540,470,445],"ymouse":[601,601,601,601,601,601,601,601,601,601,601,601,601,601,601,601,601,601,601,601,601,601,601,601,601,601,601,601,601,601,601,601,601,601,601,601,601,601,601,585,523,459,395,328,259,252,246,238,228,200,169,111,98],"timestamp_mouse":[16,35,56,76,96,116,135,155,175,195,216,236,256,277,297,316,336,357,376,396,416,436,456,476,496,516,536,556,576,596,616,636,656,676,697,716,736,755,777,795,815,835,857,877,896,916,936,956,976,996,1016,1036,1056],"xSR":741.5,"ySR":573.95,"xT1":424.9,"yT1":0,"xT2":1058.1,"yT2":0,"toosoon":0,"cond_shown":"randomdotsizeEA","ratio_trial":750,"smaller_num":"6","larger_num":"8","correct_side":1,"subjID":"paulaandreatoropedreros","gender":"1","age":"11","school":"6"},{"start_time":1551892770221,"click_time":1551892771311,"finger_time":1551892771111,"fix_duration":1088.6241846987816,"trial":11,"RT":890,"MT":200,"sideResp":1,"stimulus":"img/750/equaldotanddens/L/14_Ratio_750_L_8_R_6.png","xmouse":[799,799,799,798,798,798,798,798,798,798,798,798,798,798,798,798,798,798,798,798,798,798,798,798,798,798,798,798,798,798,798,798,798,798,798,798,798,798,798,798,798,798,798,792,782,761,738,715,671,638,615,593,574,533,504],"ymouse":[613,613,613,613,613,613,613,613,613,613,613,613,613,613,613,613,613,613,613,613,613,613,613,613,613,613,613,613,613,613,613,613,613,613,613,613,613,613,613,613,613,613,613,599,571,517,461,417,359,323,289,243,193,91,60],"timestamp_mouse":[10,36,49,70,90,111,130,150,170,191,210,231,250,271,290,310,330,351,371,390,411,429,451,470,491,510,529,551,570,590,611,630,649,671,691,711,730,751,769,790,810,830,850,870,890,910,930,950,970,990,1010,1030,1049,1069,1089],"xSR":741.5,"ySR":573.95,"xT1":424.9,"yT1":0,"xT2":1058.1,"yT2":0,"toosoon":0,"cond_shown":"equaldotanddens","ratio_trial":750,"smaller_num":"6","larger_num":"8","correct_side":1,"subjID":"paulaandreatoropedreros","gender":"1","age":"11","school":"6"},{"start_time":1551892773271,"click_time":1551892774671,"finger_time":1551892774011,"fix_duration":897.4011380034173,"trial":12,"RT":740,"MT":660,"sideResp":2,"stimulus":"img/900/randomdotsizeEA/L/1_Ratio_900_L_10_R_9.png","xmouse":[791,791,791,791,791,791,791,791,791,791,791,791,791,791,791,791,791,791,791,791,791,791,791,791,791,791,791,791,791,791,791,791,791,791,794,799,809,857,862,862,861,848,846,845,845,848,858,859,859,859,859,859,859,865,887,927,1027,1093,1187,1206,1241,1247,1247,1247,1247,1247,1244,1222,1201,1180,1158],"ymouse":[640,640,640,640,640,640,640,640,640,640,640,640,640,640,640,640,640,640,640,640,640,640,640,640,640,640,640,640,640,640,640,640,640,640,623,611,576,454,443,441,441,443,445,445,445,445,436,435,435,435,437,461,465,466,457,427,324,239,80,39,0,0,0,0,0,0,0,16,29,38,45],"timestamp_mouse":[8,20,46,60,81,101,119,140,160,180,200,219,240,259,279,299,319,339,360,380,401,420,440,460,481,499,519,541,560,580,600,620,640,661,680,700,720,740,760,780,800,820,840,860,880,900,919,941,961,980,1001,1020,1040,1061,1080,1100,1120,1140,1160,1180,1199,1220,1239,1261,1280,1300,1319,1340,1360,1381,1400],"xSR":741.5,"ySR":573.95,"xT1":424.9,"yT1":0,"xT2":1058.1,"yT2":0,"toosoon":0,"cond_shown":"randomdotsizeEA","ratio_trial":900,"smaller_num":"9","larger_num":"10","correct_side":1,"subjID":"paulaandreatoropedreros","gender":"1","age":"11","school":"6"},{"start_time":1551892781092,"click_time":1551892782012,"finger_time":1551892781950,"fix_duration":1199.1429104338404,"trial":13,"RT":858,"MT":62,"sideResp":1,"stimulus":"img/500/randomdotsizeEA/L/5_Ratio_500_L_4_R_2.png","xmouse":[769,769,769,769,769,769,769,769,769,769,769,769,769,769,769,769,769,769,769,769,769,769,769,769,769,769,769,769,769,769,769,769,769,769,769,769,769,769,769,769,769,769,761,737,689,517,427],"ymouse":[619,619,619,619,619,619,619,619,619,619,619,619,619,619,619,619,619,619,619,619,619,619,619,619,619,619,619,619,619,619,619,619,619,619,619,619,619,619,619,619,619,619,610,551,436,139,31],"timestamp_mouse":[1,33,39,59,78,99,118,140,160,179,198,219,238,258,279,299,319,339,359,380,398,420,440,459,479,500,519,540,559,579,598,619,639,659,679,700,719,740,759,780,800,819,839,858,878,899,919],"xSR":741.5,"ySR":573.95,"xT1":424.9,"yT1":0,"xT2":1058.1,"yT2":0,"toosoon":0,"cond_shown":"randomdotsizeEA","ratio_trial":500,"smaller_num":"2","larger_num":"4","correct_side":1,"subjID":"paulaandreatoropedreros","gender":"1","age":"11","school":"6"},{"start_time":1551892783073,"click_time":1551892784210,"finger_time":1551892784110,"fix_duration":281.5451407384135,"trial":14,"RT":1037,"MT":100,"sideResp":2,"stimulus":"img/900/randomdotsizeEA/R/3_Ratio_900_L_9_R_10.png","xmouse":[790,790,790,790,789,789,789,789,789,789,788,788,787,786,786,786,786,786,786,786,786,786,786,786,786,786,786,786,786,786,786,786,786,786,786,786,786,786,786,786,786,786,786,786,786,786,786,786,784,784,794,853,927,986,1034,1073,1133],"ymouse":[620,620,620,620,620,620,620,620,620,620,620,620,620,621,621,621,621,621,621,621,621,621,621,621,621,621,621,621,621,621,621,621,621,621,621,621,621,621,621,621,621,621,621,621,621,621,621,621,621,621,614,564,490,406,313,214,56],"timestamp_mouse":[18,40,58,77,98,118,138,158,178,198,218,238,257,277,299,319,344,358,378,398,419,438,458,478,497,519,538,558,578,598,618,637,659,678,697,718,738,758,778,798,818,838,858,877,898,919,938,958,978,998,1018,1037,1058,1077,1097,1117,1137],"xSR":741.5,"ySR":573.95,"xT1":424.9,"yT1":0,"xT2":1058.1,"yT2":0,"toosoon":0,"cond_shown":"randomdotsizeEA","ratio_trial":900,"smaller_num":"9","larger_num":"10","correct_side":2,"subjID":"paulaandreatoropedreros","gender":"1","age":"11","school":"6"},{"start_time":1551892785462,"click_time":1551892786172,"finger_time":1551892786090,"fix_duration":250,"trial":15,"RT":628,"MT":82,"sideResp":1,"stimulus":"img/250/equaldotanddens/L/7_Ratio_250_L_8_R_2.png","xmouse":[771,771,771,771,771,771,771,771,771,771,771,771,771,771,771,771,771,771,771,771,771,771,771,771,771,771,771,771,771,772,772,758,662,598,540,504],"ymouse":[630,630,630,630,630,630,630,630,630,630,630,630,630,630,630,630,630,630,630,630,630,630,630,630,630,630,630,630,630,620,584,505,294,185,93,32],"timestamp_mouse":[9,34,49,69,88,109,129,149,168,189,208,228,250,269,289,309,329,349,368,389,409,429,449,468,488,508,528,548,568,588,608,628,648,668,688,709],"xSR":741.5,"ySR":573.95,"xT1":424.9,"yT1":0,"xT2":1058.1,"yT2":0,"toosoon":0,"cond_shown":"equaldotanddens","ratio_trial":250,"smaller_num":"2","larger_num":"8","correct_side":1,"subjID":"paulaandreatoropedreros","gender":"1","age":"11","school":"6"},{"start_time":1551892788443,"click_time":1551892789611,"finger_time":1551892789291,"fix_duration":651.3936405338795,"trial":16,"RT":848,"MT":320,"sideResp":2,"stimulus":"img/500/randomdotsizeEA/R/2_Ratio_500_L_3_R_6.png","xmouse":[778,778,778,778,778,778,778,778,778,778,778,778,778,778,778,778,778,778,778,778,778,778,778,778,778,778,778,778,778,778,778,778,778,778,778,778,778,778,778,784,801,823,877,904,940,990,1046,1083,1084,1084,1084,1084,1084,1084,1084,1084,1083,1081,1081],"ymouse":[614,614,614,614,614,614,614,614,614,614,614,614,614,614,614,614,614,614,614,614,614,614,614,614,614,614,614,614,614,614,614,614,614,614,614,614,614,614,614,612,602,585,530,498,455,396,320,229,213,211,210,210,208,206,199,188,175,119,73],"timestamp_mouse":[12,36,47,67,88,108,128,147,167,188,208,228,247,268,288,309,328,348,369,387,409,428,448,469,489,508,529,548,567,588,608,628,648,668,688,708,729,748,768,788,807,827,848,868,888,908,928,948,967,987,1009,1029,1048,1068,1088,1108,1127,1148,1168],"xSR":741.5,"ySR":573.95,"xT1":424.9,"yT1":0,"xT2":1058.1,"yT2":0,"toosoon":0,"cond_shown":"randomdotsizeEA","ratio_trial":500,"smaller_num":"3","larger_num":"6","correct_side":2,"subjID":"paulaandreatoropedreros","gender":"1","age":"11","school":"6"},{"start_time":1551892791679,"click_time":1551892792571,"finger_time":1551892792411,"fix_duration":1186.698612637204,"trial":17,"RT":732,"MT":160,"sideResp":1,"stimulus":"img/750/equaldotsize/R/3_Ratio_750_L_15_R_20.png","xmouse":[790,790,790,790,790,790,790,790,790,790,790,790,790,790,790,790,790,790,790,790,790,790,790,790,790,790,790,790,790,790,790,790,789,785,782,775,738,715,686,654,594,562,538,518,511],"ymouse":[631,631,631,631,631,631,631,631,631,631,631,631,631,631,631,631,631,631,631,631,631,631,631,631,631,631,631,631,631,631,631,631,631,631,628,615,537,483,435,388,296,228,169,123,98],"timestamp_mouse":[13,32,53,72,93,112,133,153,171,191,213,232,252,272,292,312,331,351,373,393,411,431,453,472,492,512,532,552,572,591,612,632,652,672,692,711,732,752,772,792,812,832,853,872,891],"xSR":741.5,"ySR":573.95,"xT1":424.9,"yT1":0,"xT2":1058.1,"yT2":0,"toosoon":0,"cond_shown":"equaldotsize","ratio_trial":750,"smaller_num":"15","larger_num":"20","correct_side":2,"subjID":"paulaandreatoropedreros","gender":"1","age":"11","school":"6"},{"start_time":1551892794242,"click_time":1551892795172,"finger_time":1551892795051,"fix_duration":250,"trial":18,"RT":809,"MT":121,"sideResp":2,"stimulus":"img/750/equaldotanddens/R/7_Ratio_750_L_3_R_4.png","xmouse":[802,802,802,802,802,802,802,802,802,802,802,802,802,802,802,802,802,802,802,802,802,802,802,803,804,804,804,804,804,804,804,804,804,804,804,804,804,804,810,814,821,837,927,985,1028,1057,1074],"ymouse":[626,626,626,626,626,626,626,626,626,626,626,626,626,626,626,626,626,626,626,626,626,626,626,626,622,618,617,616,616,616,616,616,616,616,616,616,616,614,598,582,559,522,343,236,156,96,49],"timestamp_mouse":[11,37,49,70,89,109,129,148,170,189,209,229,249,269,289,309,328,349,368,388,409,429,449,469,490,509,529,549,569,588,610,629,648,670,689,710,729,748,769,789,809,829,849,868,888,909,930],"xSR":741.5,"ySR":573.95,"xT1":424.9,"yT1":0,"xT2":1058.1,"yT2":0,"toosoon":0,"cond_shown":"equaldotanddens","ratio_trial":750,"smaller_num":"3","larger_num":"4","correct_side":2,"subjID":"paulaandreatoropedreros","gender":"1","age":"11","school":"6"},{"start_time":1551892796384,"click_time":1551892797151,"finger_time":1551892796852,"fix_duration":250,"trial":19,"RT":468,"MT":299,"sideResp":2,"stimulus":"img/500/equaldotanddens/R/15_Ratio_500_L_1_R_2.png","xmouse":[786,786,786,786,786,786,786,786,786,786,786,786,786,786,786,786,786,786,786,786,786,789,803,832,876,917,955,955,955,955,952,952,956,970,1004,1073,1088,1093,1096],"ymouse":[616,616,616,616,616,615,615,615,615,615,615,615,615,615,615,615,615,615,615,615,615,610,590,554,498,445,397,397,397,396,396,395,380,354,288,154,123,108,99],"timestamp_mouse":[8,39,47,67,87,107,126,147,168,187,208,227,247,267,287,307,327,347,367,386,408,428,447,468,487,507,527,547,566,587,607,627,647,667,687,706,726,746,766],"xSR":741.5,"ySR":573.95,"xT1":424.9,"yT1":0,"xT2":1058.1,"yT2":0,"toosoon":0,"cond_shown":"equaldotanddens","ratio_trial":500,"smaller_num":"1","larger_num":"2","correct_side":2,"subjID":"paulaandreatoropedreros","gender":"1","age":"11","school":"6"},{"start_time":1551892798848,"click_time":1551892799751,"finger_time":1551892799511,"fix_duration":916.0452949338733,"trial":20,"RT":663,"MT":240,"sideResp":1,"stimulus":"img/500/randomdotsizeEA/R/2_Ratio_500_L_3_R_6.png","xmouse":[778,778,778,778,778,778,778,778,778,778,778,778,778,778,778,778,778,778,778,778,778,778,778,778,778,778,778,778,778,778,777,775,770,765,760,750,740,705,682,659,636,623,587,567,540,512],"ymouse":[642,642,642,642,642,642,642,642,642,642,642,642,642,642,642,642,642,642,642,642,642,642,642,642,642,642,642,642,639,633,625,614,581,552,514,474,441,369,331,298,269,241,153,105,57,24],"timestamp_mouse":[16,34,43,63,84,103,123,144,164,183,203,224,243,263,283,303,323,342,363,383,403,423,443,463,482,503,523,543,563,583,602,623,643,663,683,703,722,743,763,783,803,823,843,862,883,903],"xSR":741.5,"ySR":573.95,"xT1":424.9,"yT1":0,"xT2":1058.1,"yT2":0,"toosoon":0,"cond_shown":"randomdotsizeEA","ratio_trial":500,"smaller_num":"3","larger_num":"6","correct_side":2,"subjID":"paulaandreatoropedreros","gender":"1","age":"11","school":"6"},{"start_time":1551892800864,"click_time":1551892802091,"finger_time":1551892801211,"fix_duration":250,"trial":21,"RT":347,"MT":880,"sideResp":2,"stimulus":"img/250/equaldotsize/R/11_Ratio_250_L_3_R_12.png","xmouse":[809,809,809,809,809,809,809,809,809,809,809,809,809,809,814,817,830,833,834,834,834,834,834,834,834,834,834,834,834,834,834,832,830,830,830,830,830,831,847,884,946,1099,1179,1248,1282,1287,1275,1273,1271,1269,1265,1253,1243,1232,1216,1198,1173,1166,1166,1166,1166,1158],"ymouse":[614,614,614,614,614,614,614,614,614,614,614,614,614,614,609,604,580,571,570,570,570,570,570,570,570,570,570,570,570,570,570,573,575,575,575,575,575,573,550,498,418,231,120,19,0,0,0,0,0,1,7,34,49,58,70,81,94,96,96,96,96,80],"timestamp_mouse":[8,43,47,67,87,107,127,146,168,187,207,227,247,266,287,307,327,347,367,387,407,427,447,467,487,507,526,546,567,587,607,627,647,667,687,707,728,747,767,787,806,827,846,867,886,906,926,946,967,988,1008,1027,1048,1067,1087,1108,1127,1147,1167,1187,1207,1227],"xSR":741.5,"ySR":573.95,"xT1":424.9,"yT1":0,"xT2":1058.1,"yT2":0,"toosoon":0,"cond_shown":"equaldotsize","ratio_trial":250,"smaller_num":"3","larger_num":"12","correct_side":2,"subjID":"paulaandreatoropedreros","gender":"1","age":"11","school":"6"},{"start_time":1551892805786,"click_time":1551892806812,"finger_time":1551892806571,"fix_duration":1253.2196166259669,"trial":22,"RT":785,"MT":241,"sideResp":1,"stimulus":"img/500/equaldotsize/L/5_Ratio_500_L_4_R_2.png","xmouse":[778,778,778,778,778,778,778,778,778,778,778,778,778,778,778,778,778,778,778,778,778,778,778,778,778,778,778,778,778,778,778,778,778,778,776,773,764,755,745,728,674,614,560,515,486,460,459,459,461,465,466,466],"ymouse":[615,615,615,615,615,615,615,615,615,615,615,615,615,615,615,615,615,615,615,615,615,615,615,615,615,615,615,615,615,615,615,615,615,615,615,609,594,583,574,561,497,381,302,253,224,192,181,168,149,121,100,88],"timestamp_mouse":[12,29,45,65,85,105,125,146,165,186,205,225,245,266,285,306,326,345,365,385,404,425,445,465,485,505,525,545,565,584,605,625,645,665,685,705,724,745,765,785,805,825,845,865,885,906,925,946,965,985,1004,1026],"xSR":741.5,"ySR":573.95,"xT1":424.9,"yT1":0,"xT2":1058.1,"yT2":0,"toosoon":0,"cond_shown":"equaldotsize","ratio_trial":500,"smaller_num":"2","larger_num":"4","correct_side":1,"subjID":"paulaandreatoropedreros","gender":"1","age":"11","school":"6"},{"start_time":1551892809869,"click_time":1551892810932,"finger_time":1551892810611,"fix_duration":337.0411608759575,"trial":23,"RT":742,"MT":321,"sideResp":1,"stimulus":"img/750/randomdotsizeEA/R/15_Ratio_750_L_9_R_12.png","xmouse":[790,790,790,790,790,790,790,790,790,790,790,790,790,790,790,790,790,790,790,790,790,790,790,790,790,790,790,790,790,790,790,790,790,790,790,791,791,785,783,782,782,782,782,782,782,776,742,702,677,649,619,554,516,466],"ymouse":[620,620,620,620,620,620,620,620,620,620,620,620,620,620,620,620,620,620,620,620,620,620,620,620,620,620,620,620,620,620,620,620,620,620,620,617,606,566,560,559,557,557,557,557,553,529,450,395,365,338,313,229,157,89],"timestamp_mouse":[9,24,47,63,82,101,121,141,162,182,202,222,243,263,282,302,322,341,362,383,401,422,442,462,482,503,523,543,562,582,601,622,642,661,681,703,722,742,762,782,802,822,842,862,882,902,922,942,962,982,1002,1022,1042,1063],"xSR":741.5,"ySR":573.95,"xT1":424.9,"yT1":0,"xT2":1058.1,"yT2":0,"toosoon":0,"cond_shown":"randomdotsizeEA","ratio_trial":750,"smaller_num":"9","larger_num":"12","correct_side":2,"subjID":"paulaandreatoropedreros","gender":"1","age":"11","school":"6"},{"start_time":1551892813582,"click_time":1551892814291,"finger_time":1551892814111,"fix_duration":250,"trial":24,"RT":529,"MT":180,"sideResp":2,"stimulus":"img/250/equaldotanddens/R/8_Ratio_250_L_1_R_4.png","xmouse":[792,792,792,792,792,792,792,792,792,792,792,792,792,792,792,792,792,792,792,792,792,792,792,793,800,806,823,850,894,955,1055,1095,1110,1121,1132,1144],"ymouse":[616,616,616,616,616,616,616,616,616,616,616,616,616,616,616,616,616,616,616,616,616,616,616,613,600,581,534,486,419,337,225,180,158,135,113,76],"timestamp_mouse":[9,39,48,69,88,110,129,149,169,190,209,229,249,269,290,309,329,349,369,389,409,429,449,468,489,509,529,549,568,588,609,628,649,669,689,709],"xSR":741.5,"ySR":573.95,"xT1":424.9,"yT1":0,"xT2":1058.1,"yT2":0,"toosoon":0,"cond_shown":"equaldotanddens","ratio_trial":250,"smaller_num":"1","larger_num":"4","correct_side":2,"subjID":"paulaandreatoropedreros","gender":"1","age":"11","school":"6"},{"start_time":1551892815295,"click_time":1551892816171,"finger_time":1551892816091,"fix_duration":301.0844914579296,"trial":25,"RT":796,"MT":80,"sideResp":2,"stimulus":"img/250/equaldotanddens/R/8_Ratio_250_L_1_R_4.png","xmouse":[780,780,780,780,780,780,780,780,780,780,780,780,780,780,780,780,780,780,780,780,780,780,780,780,780,780,780,780,780,780,780,780,780,780,780,780,780,783,798,859,910,973,1026,1063],"ymouse":[637,637,637,637,637,637,637,637,637,637,637,637,637,637,637,637,637,637,637,637,637,637,637,637,637,637,637,637,637,637,637,637,637,637,637,637,637,621,584,449,339,219,113,22],"timestamp_mouse":[15,36,57,77,96,116,135,156,177,196,216,235,256,277,296,316,336,356,376,396,416,436,457,477,496,516,537,556,577,596,616,637,657,676,696,716,735,756,776,796,816,836,856,876],"xSR":741.5,"ySR":573.95,"xT1":424.9,"yT1":0,"xT2":1058.1,"yT2":0,"toosoon":0,"cond_shown":"equaldotanddens","ratio_trial":250,"smaller_num":"1","larger_num":"4","correct_side":2,"subjID":"paulaandreatoropedreros","gender":"1","age":"11","school":"6"},{"start_time":1551892819268,"click_time":1551892820271,"finger_time":1551892819890,"fix_duration":856.471182562495,"trial":26,"RT":622,"MT":381,"sideResp":1,"stimulus":"img/250/equaldotanddens/L/2_Ratio_250_L_16_R_4.png","xmouse":[795,795,795,795,795,795,795,795,795,795,795,795,795,795,795,795,795,795,795,795,795,795,795,795,795,795,795,795,795,795,793,737,700,663,627,595,542,537,535,541,543,543,543,543,541,536,536,534,529,519,509],"ymouse":[630,630,630,630,630,630,630,630,630,630,630,630,630,630,630,630,630,630,630,630,630,630,630,630,630,630,630,630,630,627,620,556,517,479,438,391,273,234,188,172,167,166,166,165,165,164,164,158,140,118,95],"timestamp_mouse":[9,38,43,63,83,103,123,143,163,183,203,223,243,263,283,303,323,343,362,383,403,422,443,463,482,502,522,543,564,583,603,622,642,662,682,703,723,743,763,783,803,824,844,863,882,902,923,943,963,983,1003],"xSR":741.5,"ySR":573.95,"xT1":424.9,"yT1":0,"xT2":1058.1,"yT2":0,"toosoon":0,"cond_shown":"equaldotanddens","ratio_trial":250,"smaller_num":"4","larger_num":"16","correct_side":1,"subjID":"paulaandreatoropedreros","gender":"1","age":"11","school":"6"},{"start_time":1551892822582,"click_time":1551892823510,"finger_time":1551892823310,"fix_duration":1471.50023987591,"trial":27,"RT":728,"MT":200,"sideResp":2,"stimulus":"img/750/equaldotanddens/L/9_Ratio_750_L_4_R_3.png","xmouse":[816,816,816,816,816,816,816,816,816,816,816,816,816,816,816,816,816,816,816,816,816,816,816,816,816,816,816,816,816,816,816,816,816,816,816,832,848,877,910,945,990,1006,1027,1038,1045,1057,1059],"ymouse":[628,628,628,628,628,628,628,628,628,628,628,628,628,628,628,628,628,628,628,628,628,628,628,628,628,628,628,628,628,628,628,628,628,628,628,611,588,549,488,409,268,208,142,117,99,72,64],"timestamp_mouse":[9,38,48,68,89,110,129,149,170,190,208,228,249,269,289,309,328,348,368,388,408,428,448,468,489,509,529,549,569,588,610,628,648,669,689,708,728,749,768,789,808,828,848,869,889,909,928],"xSR":741.5,"ySR":573.95,"xT1":424.9,"yT1":0,"xT2":1058.1,"yT2":0,"toosoon":0,"cond_shown":"equaldotanddens","ratio_trial":750,"smaller_num":"3","larger_num":"4","correct_side":1,"subjID":"paulaandreatoropedreros","gender":"1","age":"11","school":"6"},{"start_time":1551892826662,"click_time":1551892827710,"finger_time":1551892827410,"fix_duration":771.7223142100643,"trial":28,"RT":748,"MT":300,"sideResp":1,"stimulus":"img/900/randomdotsizeEA/L/10_Ratio_900_L_20_R_18.png","xmouse":[785,785,785,785,785,785,785,785,785,785,785,785,785,785,785,785,785,785,785,785,785,785,785,785,785,785,785,785,785,785,785,785,785,785,785,785,783,735,703,663,622,573,561,555,553,553,553,553,551,549,545,532,520],"ymouse":[620,620,620,620,620,620,620,620,620,620,620,620,620,620,620,620,620,620,620,620,620,620,620,620,620,620,620,620,620,620,620,620,620,620,620,606,589,451,385,328,282,223,207,195,189,186,164,153,141,134,125,105,91],"timestamp_mouse":[13,40,49,70,89,109,129,149,168,189,209,228,249,268,288,308,329,348,369,388,408,429,449,470,488,509,528,548,569,590,609,628,648,668,688,708,728,748,768,788,808,829,848,869,888,909,928,948,969,989,1008,1029,1048],"xSR":741.5,"ySR":573.95,"xT1":424.9,"yT1":0,"xT2":1058.1,"yT2":0,"toosoon":0,"cond_shown":"randomdotsizeEA","ratio_trial":900,"smaller_num":"18","larger_num":"20","correct_side":1,"subjID":"paulaandreatoropedreros","gender":"1","age":"11","school":"6"},{"start_time":1551892829138,"click_time":1551892830270,"finger_time":1551892829810,"fix_duration":347.651523602755,"trial":29,"RT":672,"MT":460,"sideResp":1,"stimulus":"img/250/equaldotsize/L/1_Ratio_250_L_8_R_2.png","xmouse":[782,782,782,782,782,782,782,782,782,782,782,782,782,782,782,782,782,782,782,782,782,782,782,779,778,778,778,778,778,778,778,776,764,740,702,646,577,416,349,303,290,272,270,272,272,274,275,287,300,319,337,358,375,406,415,424,431],"ymouse":[615,615,615,615,615,615,615,615,615,615,615,615,615,615,615,615,615,615,615,615,615,615,615,615,615,615,615,615,615,615,615,615,597,556,484,393,298,127,65,23,11,0,0,0,0,0,0,0,0,0,0,0,0,7,9,11,13],"timestamp_mouse":[12,33,52,73,93,112,133,152,172,193,212,232,253,273,293,313,333,352,372,392,412,432,453,473,493,512,532,552,573,593,613,633,653,672,692,712,732,752,772,792,812,832,852,872,892,913,932,952,972,992,1012,1032,1052,1072,1092,1112,1132],"xSR":741.5,"ySR":573.95,"xT1":424.9,"yT1":0,"xT2":1058.1,"yT2":0,"toosoon":0,"cond_shown":"equaldotsize","ratio_trial":250,"smaller_num":"2","larger_num":"8","correct_side":1,"subjID":"paulaandreatoropedreros","gender":"1","age":"11","school":"6"},{"start_time":1551892833617,"click_time":1551892834591,"finger_time":1551892834291,"fix_duration":1044.5199343729516,"trial":30,"RT":674,"MT":300,"sideResp":1,"stimulus":"img/250/equaldotsize/L/14_Ratio_250_L_12_R_3.png","xmouse":[789,789,789,789,789,789,789,789,789,789,789,789,789,789,789,789,789,789,789,789,789,789,789,789,789,789,789,789,789,789,789,787,785,730,666,596,532,483,450,455,465,475,478,479,480,483,488,494,497],"ymouse":[617,617,617,617,617,617,617,617,617,617,617,617,617,617,617,617,617,617,617,617,617,617,617,617,617,617,617,617,617,617,617,617,615,563,492,409,329,256,158,123,110,104,104,104,104,104,104,102,99],"timestamp_mouse":[14,40,53,74,93,113,133,153,174,193,213,233,254,274,294,315,333,354,373,394,414,434,453,474,493,513,533,553,574,593,613,634,653,674,693,714,734,754,773,794,814,834,855,874,893,913,934,953,974],"xSR":741.5,"ySR":573.95,"xT1":424.9,"yT1":0,"xT2":1058.1,"yT2":0,"toosoon":0,"cond_shown":"equaldotsize","ratio_trial":250,"smaller_num":"3","larger_num":"12","correct_side":1,"subjID":"paulaandreatoropedreros","gender":"1","age":"11","school":"6"},{"start_time":1551892836505,"click_time":1551892837790,"finger_time":1551892837451,"fix_duration":1112.9136733099153,"trial":31,"RT":946,"MT":339,"sideResp":1,"stimulus":"img/750/randomdotsizeEA/L/13_Ratio_750_L_8_R_6.png","xmouse":[782,782,782,782,782,782,782,782,782,782,782,782,782,782,782,782,782,782,782,782,782,782,782,782,782,782,782,782,782,782,782,782,782,782,782,782,782,782,782,782,782,782,782,782,782,769,749,726,706,656,626,600,586,579,573,552,537,524,511,495,493,493,493,493,493],"ymouse":[615,615,615,615,615,615,615,615,615,615,615,615,615,615,615,615,615,615,615,615,615,615,615,615,615,615,615,615,615,615,615,615,615,615,615,615,615,615,615,615,615,615,615,615,615,607,590,560,531,466,423,377,340,308,281,221,198,180,161,135,128,124,113,101,83],"timestamp_mouse":[9,34,45,65,85,106,126,145,167,186,205,225,245,265,286,305,325,345,366,386,406,426,446,465,485,506,525,546,566,586,605,625,646,665,686,706,726,746,765,785,805,825,845,866,885,906,925,946,967,986,1005,1025,1045,1065,1085,1105,1126,1146,1166,1185,1205,1227,1245,1265,1285],"xSR":741.5,"ySR":573.95,"xT1":424.9,"yT1":0,"xT2":1058.1,"yT2":0,"toosoon":0,"cond_shown":"randomdotsizeEA","ratio_trial":750,"smaller_num":"6","larger_num":"8","correct_side":1,"subjID":"paulaandreatoropedreros","gender":"1","age":"11","school":"6"},{"start_time":1551892839831,"click_time":1551892841230,"finger_time":1551892840910,"fix_duration":1159.5645171749075,"trial":32,"RT":1079,"MT":320,"sideResp":2,"stimulus":"img/500/randomdotsizeEA/L/4_Ratio_500_L_18_R_9.png","xmouse":[791,791,791,791,791,791,791,791,791,791,791,791,791,791,791,791,791,791,791,791,791,791,791,791,791,791,791,791,791,791,791,791,791,791,791,791,791,791,791,791,791,791,791,791,791,791,791,791,791,791,791,791,795,821,885,966,1047,1105,1161,1186,1194,1201,1205,1210,1210,1210,1210,1210,1197,1169,1146],"ymouse":[620,620,620,620,620,620,620,620,620,620,620,620,620,620,620,620,620,620,620,620,620,620,620,620,620,620,620,620,620,620,620,620,620,620,620,620,620,620,620,620,620,620,620,620,620,620,620,620,620,620,620,620,617,582,507,406,302,220,124,59,33,11,0,0,0,0,0,0,5,25,41],"timestamp_mouse":[8,20,42,60,79,99,120,140,160,179,200,219,240,259,280,300,319,339,359,380,401,419,439,460,480,500,520,539,560,579,599,619,639,660,679,699,719,739,759,780,800,819,840,859,879,899,920,940,959,979,1000,1019,1039,1059,1079,1099,1120,1140,1159,1179,1199,1220,1240,1259,1280,1300,1320,1340,1360,1379,1399],"xSR":741.5,"ySR":573.95,"xT1":424.9,"yT1":0,"xT2":1058.1,"yT2":0,"toosoon":0,"cond_shown":"randomdotsizeEA","ratio_trial":500,"smaller_num":"9","larger_num":"18","correct_side":1,"subjID":"paulaandreatoropedreros","gender":"1","age":"11","school":"6"},{"start_time":1551892844088,"click_time":1551892844971,"finger_time":1551892844891,"fix_duration":354.08677676507693,"trial":33,"RT":803,"MT":80,"sideResp":2,"stimulus":"img/250/randomdotsizeEA/R/4_Ratio_250_L_3_R_12.png","xmouse":[798,798,798,798,798,798,798,798,798,798,798,798,798,798,798,798,798,798,798,798,798,798,798,798,798,798,798,798,798,798,798,798,798,798,798,798,798,798,800,807,883,946,1009,1062,1102],"ymouse":[632,632,632,632,632,632,632,632,632,632,632,632,632,632,632,632,632,632,632,632,632,632,632,632,632,632,632,632,632,632,632,632,632,632,632,632,632,632,628,620,501,402,290,184,95],"timestamp_mouse":[10,35,43,62,82,102,122,142,162,182,202,222,242,263,283,303,323,343,363,382,402,422,442,463,483,502,523,544,562,582,603,622,642,663,682,702,722,743,763,782,803,822,843,862,883],"xSR":741.5,"ySR":573.95,"xT1":424.9,"yT1":0,"xT2":1058.1,"yT2":0,"toosoon":0,"cond_shown":"randomdotsizeEA","ratio_trial":250,"smaller_num":"3","larger_num":"12","correct_side":2,"subjID":"paulaandreatoropedreros","gender":"1","age":"11","school":"6"},{"start_time":1551892846035,"click_time":1551892847171,"finger_time":1551892846950,"fix_duration":344.40318699617,"trial":34,"RT":915,"MT":221,"sideResp":1,"stimulus":"img/750/randomdotsizeEA/R/5_Ratio_750_L_15_R_20.png","xmouse":[807,807,807,807,807,807,807,807,807,807,807,807,807,807,807,807,807,807,807,807,807,807,807,807,807,807,807,807,807,807,807,807,807,807,807,807,807,807,807,807,807,807,807,795,786,766,746,696,635,594,561,539,522,517,511,506,499],"ymouse":[600,600,600,600,600,600,600,600,600,600,600,600,600,600,600,600,600,600,600,600,600,600,600,600,600,600,600,600,600,600,600,600,600,600,600,600,600,600,600,600,600,600,600,594,585,568,550,485,373,297,236,199,167,154,136,117,96],"timestamp_mouse":[16,38,56,75,96,116,136,156,176,197,216,237,256,277,296,316,336,355,376,395,415,436,457,475,495,515,535,557,575,595,615,636,655,676,696,715,735,756,776,797,816,837,857,875,896,915,935,956,975,996,1016,1036,1057,1075,1096,1116,1136],"xSR":741.5,"ySR":573.95,"xT1":424.9,"yT1":0,"xT2":1058.1,"yT2":0,"toosoon":0,"cond_shown":"randomdotsizeEA","ratio_trial":750,"smaller_num":"15","larger_num":"20","correct_side":2,"subjID":"paulaandreatoropedreros","gender":"1","age":"11","school":"6"},{"start_time":1551892850755,"click_time":1551892851910,"finger_time":1551892851451,"fix_duration":841.5866637632306,"trial":35,"RT":696,"MT":459,"sideResp":2,"stimulus":"img/900/randomdotsizeEA/R/15_Ratio_900_L_9_R_10.png","xmouse":[793,793,793,793,793,793,793,793,793,793,793,793,793,793,793,793,793,793,793,793,793,793,793,793,793,793,793,793,793,793,793,791,785,772,766,761,754,756,769,792,834,880,981,1001,1007,1011,1015,1018,1021,1021,1021,1022,1024,1037,1043,1045,1055,1063],"ymouse":[611,611,611,611,611,611,611,611,611,611,611,611,611,611,611,611,611,611,611,611,611,611,611,611,611,611,611,611,611,611,611,611,605,579,558,539,517,511,496,475,442,393,241,196,172,160,147,139,128,116,101,82,79,61,51,47,30,21],"timestamp_mouse":[15,35,55,76,96,116,136,157,176,195,215,236,255,276,295,315,335,355,375,395,415,436,455,476,496,516,536,555,575,595,615,635,656,675,696,716,735,755,776,795,816,835,856,875,895,915,936,955,976,995,1015,1035,1057,1076,1096,1116,1135,1155],"xSR":741.5,"ySR":573.95,"xT1":424.9,"yT1":0,"xT2":1058.1,"yT2":0,"toosoon":0,"cond_shown":"randomdotsizeEA","ratio_trial":900,"smaller_num":"9","larger_num":"10","correct_side":2,"subjID":"paulaandreatoropedreros","gender":"1","age":"11","school":"6"},{"start_time":1551892854056,"click_time":1551892855690,"finger_time":1551892855590,"fix_duration":944.3332214259422,"trial":36,"RT":1534,"MT":100,"sideResp":2,"stimulus":"img/900/equaldotanddens/R/7_Ratio_900_L_9_R_10.png","xmouse":[806,806,806,806,806,806,806,806,806,806,806,806,806,806,806,806,806,806,806,806,806,806,806,806,806,806,806,806,806,806,806,806,806,806,806,806,805,800,795,789,781,772,772,772,772,772,772,772,772,772,772,772,772,772,772,772,772,772,772,772,772,772,772,772,772,772,772,772,772,772,772,772,772,772,772,777,814,882,941,987,1023,1075],"ymouse":[627,627,627,627,627,627,627,627,627,627,627,627,627,627,627,627,627,627,627,627,627,627,627,627,627,627,627,627,627,627,627,627,627,627,627,627,626,616,608,601,593,589,589,589,589,589,589,589,589,589,589,589,589,589,589,589,589,589,589,589,589,589,589,589,589,589,589,589,589,589,589,589,589,589,589,580,530,398,296,216,150,40],"timestamp_mouse":[15,38,54,74,94,114,135,155,175,194,215,235,254,274,294,315,334,354,375,394,414,435,454,475,495,514,534,554,574,595,614,634,655,675,695,714,734,754,774,794,814,834,856,875,894,916,935,955,974,995,1015,1035,1054,1074,1095,1115,1134,1154,1175,1195,1214,1234,1255,1275,1294,1314,1335,1355,1375,1394,1415,1435,1454,1474,1494,1514,1534,1556,1575,1594,1615,1634],"xSR":741.5,"ySR":573.95,"xT1":424.9,"yT1":0,"xT2":1058.1,"yT2":0,"toosoon":0,"cond_shown":"equaldotanddens","ratio_trial":900,"smaller_num":"9","larger_num":"10","correct_side":2,"subjID":"paulaandreatoropedreros","gender":"1","age":"11","school":"6"},{"start_time":1551892857996,"click_time":1551892859152,"finger_time":1551892858830,"fix_duration":1304.63843429806,"trial":37,"RT":834,"MT":322,"sideResp":2,"stimulus":"img/500/randomdotsizeEA/R/3_Ratio_500_L_10_R_20.png","xmouse":[797,797,797,797,797,797,797,797,797,797,797,797,797,797,797,797,797,797,797,797,797,797,797,797,797,797,797,797,797,797,797,797,797,797,797,797,797,797,797,797,808,875,963,1060,1167,1177,1175,1169,1162,1158,1157,1157,1157,1157,1156,1155,1151,1143],"ymouse":[644,644,644,644,644,644,644,644,644,644,644,644,644,644,644,644,644,644,644,644,644,644,644,644,644,644,644,644,644,644,644,644,644,644,644,644,644,644,644,644,635,579,507,399,182,96,35,6,0,0,0,0,0,0,0,0,0,8],"timestamp_mouse":[16,41,56,75,94,114,136,155,174,195,215,235,255,274,294,314,334,355,374,394,415,434,455,475,494,515,535,554,575,594,614,635,656,675,694,714,734,755,776,794,816,834,854,875,894,914,935,954,975,994,1014,1034,1054,1074,1095,1114,1135,1156],"xSR":741.5,"ySR":573.95,"xT1":424.9,"yT1":0,"xT2":1058.1,"yT2":0,"toosoon":0,"cond_shown":"randomdotsizeEA","ratio_trial":500,"smaller_num":"10","larger_num":"20","correct_side":2,"subjID":"paulaandreatoropedreros","gender":"1","age":"11","school":"6"},{"start_time":1551892861226,"click_time":1551892862151,"finger_time":1551892861890,"fix_duration":1134.1321603744111,"trial":38,"RT":664,"MT":261,"sideResp":1,"stimulus":"img/900/equaldotanddens/L/10_Ratio_900_L_20_R_18.png","xmouse":[804,804,804,804,804,804,804,804,804,804,804,804,804,804,804,804,804,804,804,804,804,804,804,804,804,804,804,804,804,804,804,801,781,755,694,657,619,587,532,521,514,510,503,491,486,485,482],"ymouse":[635,635,635,635,635,635,635,635,635,635,635,635,635,635,635,635,635,635,635,635,635,635,635,635,635,635,635,635,635,635,635,630,582,527,426,364,305,258,179,164,155,148,138,118,111,103,89],"timestamp_mouse":[8,33,46,65,85,105,125,145,165,185,205,225,246,265,284,305,325,344,365,385,404,424,444,464,484,504,524,545,564,584,604,624,644,664,684,705,725,745,765,786,805,825,844,865,884,905,924],"xSR":741.5,"ySR":573.95,"xT1":424.9,"yT1":0,"xT2":1058.1,"yT2":0,"toosoon":0,"cond_shown":"equaldotanddens","ratio_trial":900,"smaller_num":"18","larger_num":"20","correct_side":1,"subjID":"paulaandreatoropedreros","gender":"1","age":"11","school":"6"},{"start_time":1551892864563,"click_time":1551892865612,"finger_time":1551892865350,"fix_duration":1471.9514055641298,"trial":39,"RT":787,"MT":262,"sideResp":1,"stimulus":"img/900/equaldotsize/R/13_Ratio_900_L_18_R_20.png","xmouse":[786,786,786,786,786,786,786,786,786,786,786,786,786,786,786,786,786,786,786,786,786,786,786,786,786,786,786,786,786,786,786,786,786,786,786,786,786,786,786,783,780,770,759,751,739,722,662,636,611,593,569,537,517],"ymouse":[599,599,599,599,599,599,599,599,599,599,599,599,599,599,599,599,599,599,599,599,599,599,599,599,599,599,599,599,599,599,599,599,599,599,599,599,599,599,586,570,557,539,524,516,499,465,345,295,250,209,172,110,80],"timestamp_mouse":[8,41,48,68,87,107,129,148,169,187,207,227,247,267,288,308,328,348,367,387,407,428,447,467,487,507,527,548,567,588,608,628,647,667,688,708,727,747,767,787,808,828,848,868,888,909,927,948,968,988,1008,1027,1049],"xSR":741.5,"ySR":573.95,"xT1":424.9,"yT1":0,"xT2":1058.1,"yT2":0,"toosoon":0,"cond_shown":"equaldotsize","ratio_trial":900,"smaller_num":"18","larger_num":"20","correct_side":2,"subjID":"paulaandreatoropedreros","gender":"1","age":"11","school":"6"},{"start_time":1551892867336,"click_time":1551892868591,"finger_time":1551892868251,"fix_duration":745.6849110178184,"trial":40,"RT":915,"MT":340,"sideResp":2,"stimulus":"img/750/randomdotsizeEA/R/2_Ratio_750_L_6_R_8.png","xmouse":[803,803,803,803,801,800,799,799,799,799,799,799,799,799,799,799,799,799,799,799,799,799,799,799,799,797,796,795,794,794,794,794,794,794,793,791,791,791,791,791,791,791,791,796,814,852,895,967,986,999,1008,1018,1031,1032,1036,1038,1040,1042,1044,1047,1051,1054,1059],"ymouse":[639,639,639,639,638,638,637,637,637,637,637,637,637,637,637,637,637,637,637,637,637,637,637,637,637,635,635,633,632,632,632,632,632,632,628,624,622,620,620,620,620,620,620,605,574,505,416,246,181,132,95,70,48,42,36,31,29,25,24,23,23,22,21],"timestamp_mouse":[14,43,54,75,94,114,135,155,174,195,215,235,254,275,295,315,334,355,374,396,416,435,455,474,494,515,535,554,575,596,615,635,654,674,694,716,735,754,774,795,814,834,854,874,894,915,935,954,974,996,1015,1036,1054,1074,1094,1114,1134,1154,1174,1194,1214,1234,1254],"xSR":741.5,"ySR":573.95,"xT1":424.9,"yT1":0,"xT2":1058.1,"yT2":0,"toosoon":0,"cond_shown":"randomdotsizeEA","ratio_trial":750,"smaller_num":"6","larger_num":"8","correct_side":2,"subjID":"paulaandreatoropedreros","gender":"1","age":"11","school":"6"},{"start_time":1551892870651,"click_time":1551892871691,"finger_time":1551892871410,"fix_duration":1039.9284137345542,"trial":41,"RT":759,"MT":281,"sideResp":1,"stimulus":"img/900/randomdotsizeEA/R/9_Ratio_900_L_18_R_20.png","xmouse":[809,809,809,809,809,809,809,809,809,809,809,809,809,809,809,809,809,809,809,809,809,809,809,809,809,809,809,809,809,809,809,809,809,809,809,809,809,808,805,781,740,715,678,661,647,641,637,627,601,577,557,537,505],"ymouse":[619,619,619,619,619,619,619,619,619,619,619,619,619,619,619,619,619,619,619,619,619,619,619,619,619,619,619,619,619,619,619,619,619,619,619,619,619,610,487,382,308,286,273,268,260,255,245,230,201,179,157,129,93],"timestamp_mouse":[8,19,40,60,80,99,119,140,160,180,200,219,240,259,279,299,320,339,359,379,399,420,440,460,480,499,519,539,560,580,599,619,639,660,679,699,721,739,759,779,799,820,839,859,879,900,919,939,959,980,1001,1021,1040],"xSR":741.5,"ySR":573.95,"xT1":424.9,"yT1":0,"xT2":1058.1,"yT2":0,"toosoon":0,"cond_shown":"randomdotsizeEA","ratio_trial":900,"smaller_num":"18","larger_num":"20","correct_side":2,"subjID":"paulaandreatoropedreros","gender":"1","age":"11","school":"6"},{"start_time":1551892873713,"click_time":1551892874810,"finger_time":1551892874491,"fix_duration":921.808420272144,"trial":42,"RT":778,"MT":319,"sideResp":1,"stimulus":"img/250/equaldotsize/L/7_Ratio_250_L_8_R_2.png","xmouse":[777,777,777,777,777,777,777,778,778,778,778,778,778,778,778,778,778,778,778,778,778,778,778,778,778,778,778,778,778,778,778,778,778,778,778,778,778,778,764,740,708,666,634,562,550,546,544,544,547,547,547,547,547,534,510],"ymouse":[616,616,616,616,616,616,616,616,616,616,616,616,616,616,616,616,616,616,616,616,616,616,616,616,616,616,616,616,616,616,616,616,616,616,616,616,616,610,538,452,369,304,246,112,75,58,50,48,42,41,39,38,38,37,45],"timestamp_mouse":[17,43,57,77,98,117,137,157,178,198,219,238,258,277,297,317,337,357,378,398,417,437,457,477,497,517,538,558,577,597,617,638,658,678,698,718,739,757,778,798,819,838,857,878,897,918,937,957,977,997,1017,1037,1057,1077,1097],"xSR":741.5,"ySR":573.95,"xT1":424.9,"yT1":0,"xT2":1058.1,"yT2":0,"toosoon":0,"cond_shown":"equaldotsize","ratio_trial":250,"smaller_num":"2","larger_num":"8","correct_side":1,"subjID":"paulaandreatoropedreros","gender":"1","age":"11","school":"6"},{"start_time":1551892876502,"click_time":1551892878531,"finger_time":1551892877370,"fix_duration":390.70441098587014,"trial":43,"RT":868,"MT":1161,"sideResp":2,"stimulus":"img/900/equaldotsize/R/12_Ratio_900_L_18_R_20.png","xmouse":[813,813,813,813,813,813,813,813,813,813,813,813,813,813,813,813,813,813,813,813,813,813,813,813,813,813,813,813,813,813,813,813,813,813,813,813,813,813,813,813,813,816,823,830,845,848,848,855,860,872,879,884,888,892,908,915,922,926,931,933,933,933,933,933,933,933,933,933,933,933,933,933,933,933,933,933,933,933,933,933,933,931,922,913,903,902,902,902,902,902,901,900,900,900,900,900,900,905,931,1051,1107,1144],"ymouse":[616,616,616,616,616,616,616,616,616,616,616,616,616,616,616,616,616,616,616,616,616,616,616,616,616,616,616,616,616,616,616,616,616,616,616,616,616,616,616,616,607,596,582,568,544,539,539,528,519,498,486,478,471,466,441,428,414,404,397,393,393,393,393,393,393,393,393,393,393,393,393,393,393,393,393,393,393,393,393,393,393,393,398,400,402,402,402,402,402,402,402,402,403,403,403,403,403,384,342,183,116,61],"timestamp_mouse":[9,36,48,68,89,109,128,148,169,189,209,229,248,268,288,309,330,349,370,388,409,429,448,468,489,509,528,549,569,589,608,628,648,669,689,708,728,748,768,788,808,828,848,868,889,908,930,948,968,989,1009,1029,1048,1069,1088,1108,1128,1150,1170,1189,1209,1229,1249,1268,1290,1309,1329,1349,1370,1389,1408,1429,1449,1469,1489,1508,1528,1548,1569,1589,1609,1629,1649,1669,1689,1709,1729,1749,1768,1789,1808,1829,1848,1868,1888,1908,1928,1948,1968,1988,2008,2029],"xSR":741.5,"ySR":573.95,"xT1":424.9,"yT1":0,"xT2":1058.1,"yT2":0,"toosoon":0,"cond_shown":"equaldotsize","ratio_trial":900,"smaller_num":"18","larger_num":"20","correct_side":2,"subjID":"paulaandreatoropedreros","gender":"1","age":"11","school":"6"},{"start_time":1551892879895,"click_time":1551892880630,"finger_time":1551892880510,"fix_duration":363.98897451760683,"trial":44,"RT":615,"MT":120,"sideResp":1,"stimulus":"img/500/equaldotsize/L/13_Ratio_500_L_12_R_6.png","xmouse":[776,776,776,776,776,776,776,776,776,776,776,776,776,776,776,776,776,776,776,776,776,776,776,776,776,776,776,774,770,763,738,708,668,620,529,502,482],"ymouse":[617,617,617,617,617,617,617,617,617,617,617,617,617,617,617,617,617,617,617,617,617,617,617,617,617,617,617,618,616,610,580,538,481,411,251,181,96],"timestamp_mouse":[15,40,56,75,96,116,135,155,176,196,215,235,255,275,296,316,337,355,375,396,416,436,455,476,496,516,535,555,575,595,615,636,656,676,695,716,735],"xSR":741.5,"ySR":573.95,"xT1":424.9,"yT1":0,"xT2":1058.1,"yT2":0,"toosoon":0,"cond_shown":"equaldotsize","ratio_trial":500,"smaller_num":"6","larger_num":"12","correct_side":1,"subjID":"paulaandreatoropedreros","gender":"1","age":"11","school":"6"},{"start_time":1551892882239,"click_time":1551892883471,"finger_time":1551892883191,"fix_duration":707.2734860859305,"trial":45,"RT":952,"MT":280,"sideResp":1,"stimulus":"img/900/equaldotsize/L/1_Ratio_900_L_10_R_9.png","xmouse":[767,767,767,767,767,767,767,767,767,767,767,767,767,767,767,767,767,767,767,767,767,767,767,767,767,767,767,767,767,767,767,767,767,767,767,767,768,768,768,767,767,767,766,765,761,756,749,728,706,687,664,639,583,564,555,548,545,538,537,536,529,518],"ymouse":[627,627,627,627,627,627,627,627,627,627,627,627,627,627,627,627,627,627,627,627,627,627,627,627,627,627,627,627,627,627,627,627,627,627,627,627,627,626,623,623,623,623,620,616,607,598,586,542,458,370,268,181,47,6,0,0,0,0,0,0,2,13],"timestamp_mouse":[12,32,52,72,91,111,132,152,172,192,212,232,251,271,291,312,332,353,372,392,412,432,452,472,493,513,532,552,573,593,612,632,652,673,692,712,733,753,773,793,812,832,853,873,894,913,933,952,973,992,1013,1033,1053,1072,1092,1112,1132,1152,1172,1192,1212,1232],"xSR":741.5,"ySR":573.95,"xT1":424.9,"yT1":0,"xT2":1058.1,"yT2":0,"toosoon":0,"cond_shown":"equaldotsize","ratio_trial":900,"smaller_num":"9","larger_num":"10","correct_side":1,"subjID":"paulaandreatoropedreros","gender":"1","age":"11","school":"6"},{"start_time":1551892885395,"click_time":1551892886571,"finger_time":1551892886172,"fix_duration":802.963044239161,"trial":46,"RT":777,"MT":399,"sideResp":2,"stimulus":"img/750/randomdotsizeEA/R/11_Ratio_750_L_12_R_16.png","xmouse":[761,761,761,761,761,761,761,761,761,761,761,761,761,761,761,761,761,761,761,761,761,761,761,761,761,761,761,761,761,761,761,761,761,761,761,761,762,765,789,869,918,990,1033,1071,1100,1102,1102,1102,1100,1099,1099,1099,1098,1097,1091,1089,1087,1086,1085],"ymouse":[583,583,583,583,583,583,583,583,583,583,583,583,583,583,583,583,583,583,583,583,583,583,583,583,583,583,583,583,583,583,583,583,583,583,583,583,583,583,569,511,457,365,312,262,192,174,161,154,149,148,148,148,147,145,136,128,118,109,99],"timestamp_mouse":[16,38,57,77,96,116,137,157,176,197,218,237,258,277,296,317,337,356,377,396,417,436,456,476,496,517,537,557,576,596,617,637,656,676,696,716,738,757,777,796,816,836,856,877,897,916,936,956,976,996,1016,1036,1056,1076,1096,1116,1136,1156,1176],"xSR":741.5,"ySR":573.95,"xT1":424.9,"yT1":0,"xT2":1058.1,"yT2":0,"toosoon":0,"cond_shown":"randomdotsizeEA","ratio_trial":750,"smaller_num":"12","larger_num":"16","correct_side":2,"subjID":"paulaandreatoropedreros","gender":"1","age":"11","school":"6"},{"start_time":1551892888561,"click_time":1551892889432,"finger_time":1551892889112,"fix_duration":1307.9540458429249,"trial":47,"RT":551,"MT":320,"sideResp":2,"stimulus":"img/500/equaldotsize/R/2_Ratio_500_L_3_R_6.png","xmouse":[797,797,797,797,797,797,797,797,797,797,797,797,797,797,797,797,797,797,797,797,797,797,797,797,797,797,803,827,851,877,897,949,972,1012,1043,1056,1116,1130,1137,1138,1138,1138,1138,1138],"ymouse":[623,623,623,623,623,623,623,623,623,623,623,623,623,623,623,623,623,623,623,623,623,623,623,623,623,623,605,565,523,473,424,298,230,129,59,28,0,0,0,0,0,0,0,1],"timestamp_mouse":[10,33,51,71,91,110,130,151,171,191,210,230,251,270,291,312,331,351,371,390,410,431,450,471,492,510,531,551,572,591,611,630,651,671,690,710,730,750,771,790,811,831,851,870],"xSR":741.5,"ySR":573.95,"xT1":424.9,"yT1":0,"xT2":1058.1,"yT2":0,"toosoon":0,"cond_shown":"equaldotsize","ratio_trial":500,"smaller_num":"3","larger_num":"6","correct_side":2,"subjID":"paulaandreatoropedreros","gender":"1","age":"11","school":"6"},{"start_time":1551892892238,"click_time":1551892893591,"finger_time":1551892893452,"fix_duration":645.4401807037514,"trial":48,"RT":1214,"MT":139,"sideResp":2,"stimulus":"img/250/randomdotsizeEA/R/4_Ratio_250_L_3_R_12.png","xmouse":[801,801,801,801,801,801,801,801,801,801,801,801,801,801,801,801,801,801,801,801,801,801,801,801,801,801,801,801,801,801,801,801,801,801,801,801,801,801,801,801,801,801,801,801,801,801,801,813,818,819,819,819,819,819,819,819,819,819,820,827,847,889,973,999,1027,1051,1078,1131],"ymouse":[643,643,643,643,643,643,643,643,643,643,643,643,643,643,643,643,643,643,643,643,643,643,643,643,643,643,643,643,643,643,643,643,643,643,643,643,643,643,643,643,643,643,643,643,643,643,644,632,628,628,628,628,628,628,628,628,628,628,627,622,605,565,437,378,314,247,175,75],"timestamp_mouse":[16,40,54,74,93,113,133,153,174,194,214,234,254,274,294,314,334,354,373,394,414,434,454,474,494,513,533,553,573,594,615,634,653,674,695,713,733,754,774,793,813,833,855,873,893,914,934,953,975,995,1014,1034,1054,1074,1094,1113,1134,1153,1173,1193,1214,1234,1254,1274,1293,1314,1335,1353],"xSR":741.5,"ySR":573.95,"xT1":424.9,"yT1":0,"xT2":1058.1,"yT2":0,"toosoon":0,"cond_shown":"randomdotsizeEA","ratio_trial":250,"smaller_num":"3","larger_num":"12","correct_side":2,"subjID":"paulaandreatoropedreros","gender":"1","age":"11","school":"6"},{"start_time":1551892895206,"click_time":1551892896811,"finger_time":1551892896472,"fix_duration":614.0362630192465,"trial":49,"RT":1266,"MT":339,"sideResp":2,"stimulus":"img/250/randomdotsizeEA/R/12_Ratio_250_L_5_R_20.png","xmouse":[816,816,816,816,816,816,816,816,816,816,816,816,816,816,816,816,816,816,816,816,816,816,816,816,816,816,816,816,816,816,816,816,816,816,816,816,816,816,816,816,816,816,816,816,816,816,816,816,816,816,816,816,816,816,816,816,816,816,816,816,816,815,824,836,868,881,894,905,917,937,942,946,957,975,1020,1040,1055,1064,1069,1070,1073],"ymouse":[615,615,615,615,615,615,615,615,615,615,615,615,615,615,615,615,615,615,615,615,615,615,615,615,615,615,615,615,615,615,615,615,615,615,615,615,615,615,615,615,615,615,615,615,615,615,615,615,615,615,615,615,615,615,615,615,615,615,615,615,615,607,585,548,441,397,353,329,307,284,279,274,268,258,224,207,185,166,149,116,94],"timestamp_mouse":[9,36,46,65,85,106,126,146,166,185,206,226,247,266,287,305,325,346,365,386,405,425,445,465,485,506,526,546,566,585,607,626,645,665,686,706,725,746,767,786,806,825,845,866,886,906,925,945,967,985,1005,1025,1046,1066,1085,1105,1125,1146,1165,1186,1206,1226,1247,1266,1285,1306,1327,1346,1366,1385,1406,1425,1446,1465,1486,1505,1525,1546,1566,1585,1605],"xSR":741.5,"ySR":573.95,"xT1":424.9,"yT1":0,"xT2":1058.1,"yT2":0,"toosoon":0,"cond_shown":"randomdotsizeEA","ratio_trial":250,"smaller_num":"5","larger_num":"20","correct_side":2,"subjID":"paulaandreatoropedreros","gender":"1","age":"11","school":"6"},{"start_time":1551892899021,"click_time":1551892899991,"finger_time":1551892899891,"fix_duration":1247.8118814296865,"trial":50,"RT":870,"MT":100,"sideResp":2,"stimulus":"img/500/equaldotanddens/R/9_Ratio_500_L_2_R_4.png","xmouse":[771,771,771,771,771,771,771,771,771,771,771,771,771,771,771,771,771,771,771,771,771,771,771,771,771,771,771,771,771,771,771,771,771,771,771,771,771,771,769,768,768,772,781,811,838,875,933,1006,1148],"ymouse":[603,603,603,603,603,603,603,603,603,603,603,603,603,603,603,603,603,603,603,603,603,603,603,603,603,603,603,603,603,603,603,603,603,603,603,603,603,603,602,591,587,582,574,532,478,399,308,214,50],"timestamp_mouse":[12,39,50,70,91,112,132,150,171,191,210,230,251,270,290,311,331,351,370,391,411,431,451,470,491,511,530,550,571,591,611,631,651,670,691,711,731,751,770,791,811,831,851,870,890,911,931,950,970],"xSR":741.5,"ySR":573.95,"xT1":424.9,"yT1":0,"xT2":1058.1,"yT2":0,"toosoon":0,"cond_shown":"equaldotanddens","ratio_trial":500,"smaller_num":"2","larger_num":"4","correct_side":2,"subjID":"paulaandreatoropedreros","gender":"1","age":"11","school":"6"},{"start_time":1551892901323,"click_time":1551892902993,"finger_time":1551892902671,"fix_duration":250,"trial":51,"RT":1348,"MT":322,"sideResp":1,"stimulus":"img/900/equaldotanddens/L/2_Ratio_900_L_20_R_18.png","xmouse":[764,764,764,764,764,764,764,764,764,764,764,764,764,764,764,764,764,764,764,764,764,764,764,764,764,764,764,764,764,764,764,764,764,764,764,764,764,764,764,764,764,764,764,764,764,764,764,764,764,764,764,764,764,764,764,764,764,764,764,764,764,764,764,764,764,764,758,746,672,591,514,451,421,400,400,399,399,401,402,403,403,405,409,425],"ymouse":[646,646,646,646,646,646,646,646,646,646,646,646,646,646,646,646,646,646,646,646,646,646,646,646,646,646,646,646,646,646,646,646,646,646,646,646,646,646,646,646,646,646,646,646,646,646,646,646,646,646,646,646,646,646,646,646,646,646,646,646,646,646,646,646,646,646,624,563,379,260,181,137,122,110,110,107,96,82,75,73,73,72,67,55],"timestamp_mouse":[8,37,50,69,89,109,128,148,169,189,209,229,249,269,290,309,329,349,368,388,408,429,448,469,488,509,529,549,569,589,609,628,648,669,688,708,729,749,768,788,809,828,849,868,888,908,928,948,968,989,1009,1028,1048,1069,1088,1108,1129,1149,1168,1189,1208,1228,1249,1269,1288,1308,1328,1348,1368,1388,1408,1429,1449,1469,1489,1508,1529,1549,1569,1589,1609,1629,1650,1670],"xSR":741.5,"ySR":573.95,"xT1":424.9,"yT1":0,"xT2":1058.1,"yT2":0,"toosoon":0,"cond_shown":"equaldotanddens","ratio_trial":900,"smaller_num":"18","larger_num":"20","correct_side":1,"subjID":"paulaandreatoropedreros","gender":"1","age":"11","school":"6"},{"start_time":1551892905221,"click_time":1551892906052,"finger_time":1551892905931,"fix_duration":1207.7186258642296,"trial":52,"RT":710,"MT":121,"sideResp":1,"stimulus":"img/500/equaldotanddens/L/7_Ratio_500_L_10_R_5.png","xmouse":[800,800,800,800,800,800,800,800,800,800,800,800,800,800,800,800,800,800,800,800,800,800,800,800,800,798,797,796,793,793,793,793,792,790,777,768,744,701,549,499,464,442],"ymouse":[626,626,626,626,626,626,626,626,626,626,626,626,626,626,626,626,626,626,626,626,626,626,626,626,626,626,626,627,627,627,627,627,627,626,595,571,515,428,191,143,110,84],"timestamp_mouse":[21,39,50,71,91,111,132,150,170,192,211,231,250,271,291,312,332,350,370,391,410,431,452,471,490,511,531,551,570,590,611,631,650,670,691,710,731,751,771,790,811,831],"xSR":741.5,"ySR":573.95,"xT1":424.9,"yT1":0,"xT2":1058.1,"yT2":0,"toosoon":0,"cond_shown":"equaldotanddens","ratio_trial":500,"smaller_num":"5","larger_num":"10","correct_side":1,"subjID":"paulaandreatoropedreros","gender":"1","age":"11","school":"6"},{"start_time":1551892908053,"click_time":1551892909292,"finger_time":1551892908912,"fix_duration":860.7713567665137,"trial":53,"RT":859,"MT":380,"sideResp":2,"stimulus":"img/900/equaldotsize/R/6_Ratio_900_L_9_R_10.png","xmouse":[787,787,787,787,787,787,787,787,787,787,787,787,787,787,787,787,787,787,787,787,787,787,787,787,787,787,787,787,787,787,787,787,787,787,787,787,787,787,787,787,789,807,844,889,938,988,1089,1155,1189,1220,1245,1264,1266,1266,1266,1266,1262,1258,1237,1219,1194,1139],"ymouse":[631,631,631,631,631,631,631,631,631,631,631,631,631,631,631,631,631,631,631,631,631,631,631,631,631,631,631,631,631,631,631,631,631,631,631,631,631,631,631,631,629,604,559,512,469,419,321,255,228,207,183,144,123,106,92,80,51,46,33,28,26,34],"timestamp_mouse":[19,39,58,79,98,119,139,158,178,198,218,239,259,278,298,318,338,358,379,398,419,438,459,478,500,519,539,558,579,598,618,640,658,679,698,718,740,759,779,799,819,838,859,878,899,919,938,958,978,999,1025,1040,1058,1079,1098,1118,1138,1158,1178,1199,1219,1238],"xSR":741.5,"ySR":573.95,"xT1":424.9,"yT1":0,"xT2":1058.1,"yT2":0,"toosoon":0,"cond_shown":"equaldotsize","ratio_trial":900,"smaller_num":"9","larger_num":"10","correct_side":2,"subjID":"paulaandreatoropedreros","gender":"1","age":"11","school":"6"},{"start_time":1551892910690,"click_time":1551892911812,"finger_time":1551892911491,"fix_duration":497.4474963574389,"trial":54,"RT":801,"MT":321,"sideResp":2,"stimulus":"img/900/randomdotsizeEA/R/3_Ratio_900_L_9_R_10.png","xmouse":[806,806,806,806,806,806,806,806,806,806,806,806,806,806,806,806,806,806,806,806,806,806,806,806,806,806,806,806,806,806,806,806,806,806,806,806,806,806,806,816,867,921,993,1074,1137,1197,1215,1218,1219,1219,1219,1219,1219,1217,1209,1176,1149],"ymouse":[647,647,647,647,647,647,647,647,647,647,647,647,647,647,647,647,647,647,647,647,647,647,647,647,647,647,647,647,647,647,647,647,647,647,647,647,647,647,648,640,599,550,474,357,232,90,45,26,10,5,0,0,0,0,5,28,41],"timestamp_mouse":[6,22,42,61,83,102,121,141,162,182,202,221,242,263,282,301,321,341,361,381,401,421,441,461,481,502,522,542,562,582,601,622,642,662,681,702,722,742,762,782,801,821,842,861,881,901,922,941,962,981,1002,1021,1041,1061,1082,1101,1122],"xSR":741.5,"ySR":573.95,"xT1":424.9,"yT1":0,"xT2":1058.1,"yT2":0,"toosoon":0,"cond_shown":"randomdotsizeEA","ratio_trial":900,"smaller_num":"9","larger_num":"10","correct_side":2,"subjID":"paulaandreatoropedreros","gender":"1","age":"11","school":"6"},{"start_time":1551892913430,"click_time":1551892914472,"finger_time":1551892914171,"fix_duration":937.7282378588568,"trial":55,"RT":741,"MT":301,"sideResp":2,"stimulus":"img/750/equaldotanddens/R/15_Ratio_750_L_9_R_12.png","xmouse":[816,816,816,816,816,816,816,816,816,816,816,816,816,816,816,816,816,816,816,816,816,816,816,816,816,816,816,816,816,816,816,816,816,816,820,825,841,868,1030,1133,1175,1195,1204,1207,1207,1206,1204,1203,1202,1193,1177,1159,1137],"ymouse":[600,600,600,600,600,600,600,600,600,600,600,600,600,600,600,600,600,600,600,600,600,600,600,600,600,600,600,600,600,600,600,600,600,600,594,589,574,544,336,129,30,0,0,0,0,0,0,0,0,1,16,32,52],"timestamp_mouse":[9,22,41,61,81,102,121,142,162,181,201,221,241,263,282,302,322,342,361,382,402,421,442,461,481,501,521,541,561,583,603,621,643,662,681,702,722,741,761,782,803,822,842,861,881,902,921,941,961,982,1003,1021,1042],"xSR":741.5,"ySR":573.95,"xT1":424.9,"yT1":0,"xT2":1058.1,"yT2":0,"toosoon":0,"cond_shown":"equaldotanddens","ratio_trial":750,"smaller_num":"9","larger_num":"12","correct_side":2,"subjID":"paulaandreatoropedreros","gender":"1","age":"11","school":"6"},{"start_time":1551892917718,"click_time":1551892918552,"finger_time":1551892918473,"fix_duration":1065.0554405425491,"trial":56,"RT":755,"MT":79,"sideResp":2,"stimulus":"img/250/randomdotsizeEA/R/6_Ratio_250_L_6_R_24.png","xmouse":[796,796,796,796,796,796,796,796,796,796,796,796,796,796,796,796,796,796,796,796,796,796,796,796,796,796,796,796,796,796,796,796,796,796,796,795,805,845,972,1013,1041,1063],"ymouse":[625,625,625,625,625,625,625,625,625,625,625,625,625,625,625,625,625,625,625,625,625,625,625,625,625,625,625,625,625,625,625,625,625,625,625,625,606,537,261,147,70,21],"timestamp_mouse":[15,38,54,74,94,113,133,154,174,193,214,234,253,274,293,313,334,354,374,393,413,434,454,473,493,513,533,553,573,594,614,634,653,673,695,713,734,755,774,795,813,833],"xSR":741.5,"ySR":573.95,"xT1":424.9,"yT1":0,"xT2":1058.1,"yT2":0,"toosoon":0,"cond_shown":"randomdotsizeEA","ratio_trial":250,"smaller_num":"6","larger_num":"24","correct_side":2,"subjID":"paulaandreatoropedreros","gender":"1","age":"11","school":"6"},{"start_time":1551892920215,"click_time":1551892921972,"finger_time":1551892921733,"fix_duration":722.9074333105148,"trial":57,"RT":1518,"MT":239,"sideResp":1,"stimulus":"img/900/randomdotsizeEA/L/10_Ratio_900_L_20_R_18.png","xmouse":[781,781,781,781,781,781,781,781,781,781,781,781,781,781,781,781,781,781,781,781,781,781,781,781,781,781,781,781,781,781,781,781,781,781,781,781,781,781,781,781,781,781,781,781,781,781,781,783,786,792,792,792,792,792,792,792,792,792,792,792,791,789,788,787,786,786,785,785,785,784,784,783,783,783,782,776,765,743,702,687,663,655,649,632,608,581,546,508],"ymouse":[598,598,598,598,598,598,598,598,598,598,598,598,598,598,598,598,598,598,598,598,598,598,598,598,598,598,598,598,598,598,598,598,598,598,598,598,598,598,598,598,598,598,598,598,598,598,598,595,593,585,585,585,585,585,585,585,585,585,585,585,585,586,587,589,590,590,591,591,593,593,594,594,594,594,590,567,515,457,415,414,417,418,416,368,309,247,174,90],"timestamp_mouse":[17,40,57,76,97,118,137,156,177,197,216,236,258,277,296,316,337,357,377,397,416,438,457,476,496,516,537,557,576,597,617,637,657,677,697,716,737,757,776,797,816,836,857,876,896,918,937,956,976,996,1016,1036,1056,1077,1096,1117,1137,1157,1176,1197,1216,1236,1256,1278,1296,1317,1338,1357,1376,1397,1416,1438,1458,1477,1497,1518,1537,1558,1576,1597,1616,1638,1657,1676,1696,1716,1736,1756],"xSR":741.5,"ySR":573.95,"xT1":424.9,"yT1":0,"xT2":1058.1,"yT2":0,"toosoon":0,"cond_shown":"randomdotsizeEA","ratio_trial":900,"smaller_num":"18","larger_num":"20","correct_side":1,"subjID":"paulaandreatoropedreros","gender":"1","age":"11","school":"6"},{"start_time":1551892923379,"click_time":1551892924413,"finger_time":1551892923991,"fix_duration":605.0056213729355,"trial":58,"RT":612,"MT":422,"sideResp":2,"stimulus":"img/750/equaldotsize/R/5_Ratio_750_L_15_R_20.png","xmouse":[781,781,781,781,781,781,781,781,781,781,781,781,781,781,781,781,781,781,781,781,781,781,781,781,781,781,781,781,789,801,859,1119,1283,1350,1372,1376,1373,1361,1347,1334,1313,1292,1283,1255,1236,1202,1191,1181,1173,1167,1159,1153],"ymouse":[598,598,598,598,598,598,598,598,598,598,598,598,598,598,598,598,598,598,598,598,598,598,598,598,598,598,598,598,597,587,539,297,115,38,4,0,0,0,3,6,13,19,22,35,44,56,59,62,64,66,71,76],"timestamp_mouse":[13,42,53,73,92,112,132,152,172,192,213,233,252,274,293,313,332,352,372,393,413,433,452,472,492,512,533,553,573,592,612,632,653,672,692,713,732,753,774,793,813,832,852,872,892,912,932,953,972,992,1013,1034],"xSR":741.5,"ySR":573.95,"xT1":424.9,"yT1":0,"xT2":1058.1,"yT2":0,"toosoon":0,"cond_shown":"equaldotsize","ratio_trial":750,"smaller_num":"15","larger_num":"20","correct_side":2,"subjID":"paulaandreatoropedreros","gender":"1","age":"11","school":"6"},{"start_time":1551892925961,"click_time":1551892927111,"finger_time":1551892926791,"fix_duration":808.4820959619068,"trial":59,"RT":830,"MT":320,"sideResp":2,"stimulus":"img/900/equaldotsize/L/8_Ratio_900_L_20_R_18.png","xmouse":[778,778,778,778,778,778,778,778,778,778,778,778,778,778,778,778,778,778,778,778,778,778,778,778,778,778,778,778,778,778,778,778,778,778,778,778,778,778,778,786,821,918,964,998,1003,1008,1029,1039,1046,1051,1053,1053,1053,1053,1053,1053,1057,1067],"ymouse":[628,628,628,628,628,628,628,628,628,628,628,628,628,628,628,628,628,628,628,628,628,628,628,628,628,628,628,628,628,628,628,628,628,628,628,628,628,628,627,620,583,412,310,228,208,189,84,29,6,0,0,0,0,0,0,0,0,8],"timestamp_mouse":[11,34,51,71,91,112,130,151,171,192,212,231,251,270,291,310,330,351,372,391,411,431,451,470,491,512,530,551,570,591,611,630,652,670,690,710,731,750,770,791,811,830,851,870,890,910,930,950,970,990,1011,1031,1050,1070,1091,1111,1130,1150],"xSR":741.5,"ySR":573.95,"xT1":424.9,"yT1":0,"xT2":1058.1,"yT2":0,"toosoon":0,"cond_shown":"equaldotsize","ratio_trial":900,"smaller_num":"18","larger_num":"20","correct_side":1,"subjID":"paulaandreatoropedreros","gender":"1","age":"11","school":"6"},{"start_time":1551892929835,"click_time":1551892931551,"finger_time":1551892931171,"fix_duration":1443.257170438349,"trial":60,"RT":1336,"MT":380,"sideResp":1,"stimulus":"img/750/randomdotsizeEA/L/13_Ratio_750_L_8_R_6.png","xmouse":[785,785,785,785,785,785,785,785,785,785,785,785,785,785,785,785,785,785,785,785,785,785,785,785,785,785,785,785,785,785,785,785,785,785,785,785,785,785,785,785,785,785,785,785,785,785,785,785,785,785,785,785,785,785,785,785,785,785,785,785,785,785,785,785,785,784,780,749,687,645,612,591,570,567,567,566,563,556,555,555,555,555,551,543,534,521],"ymouse":[599,599,599,599,599,599,599,599,599,599,599,599,599,599,599,599,599,599,599,599,599,599,599,599,599,599,599,599,599,599,599,599,599,599,599,599,599,599,599,599,599,599,599,599,599,599,599,599,599,599,599,599,599,599,599,599,599,599,599,599,599,599,599,599,597,589,565,435,304,246,211,191,167,148,129,113,100,85,84,84,84,84,84,84,83,81],"timestamp_mouse":[16,37,56,78,97,118,136,156,176,196,218,236,258,276,297,317,337,356,377,396,416,437,457,476,496,516,536,557,577,597,616,637,657,677,698,716,736,758,776,796,816,837,857,877,896,916,936,956,977,998,1017,1036,1056,1076,1097,1117,1138,1157,1177,1197,1216,1236,1257,1276,1296,1316,1336,1356,1376,1396,1416,1436,1456,1477,1497,1517,1537,1556,1576,1597,1617,1637,1657,1678,1697,1716],"xSR":741.5,"ySR":573.95,"xT1":424.9,"yT1":0,"xT2":1058.1,"yT2":0,"toosoon":0,"cond_shown":"randomdotsizeEA","ratio_trial":750,"smaller_num":"6","larger_num":"8","correct_side":1,"subjID":"paulaandreatoropedreros","gender":"1","age":"11","school":"6"},{"start_time":1551892932929,"click_time":1551892933732,"finger_time":1551892933611,"fix_duration":595.5548468477199,"trial":61,"RT":682,"MT":121,"sideResp":2,"stimulus":"img/500/equaldotsize/R/1_Ratio_500_L_9_R_18.png","xmouse":[839,838,837,835,833,832,831,831,831,831,831,831,831,831,831,831,831,831,831,831,831,831,831,831,831,831,831,831,831,831,831,830,830,840,857,874,895,923,964,1049,1066],"ymouse":[650,649,649,648,648,646,646,646,646,646,646,646,646,646,646,646,646,646,646,646,646,646,646,646,646,646,646,646,646,646,646,645,643,616,574,536,499,444,369,173,98],"timestamp_mouse":[9,23,43,62,83,103,123,143,162,183,203,223,243,262,283,304,323,342,363,383,403,422,443,462,482,502,523,544,562,582,602,623,642,663,682,702,722,742,762,782,803],"xSR":741.5,"ySR":573.95,"xT1":424.9,"yT1":0,"xT2":1058.1,"yT2":0,"toosoon":0,"cond_shown":"equaldotsize","ratio_trial":500,"smaller_num":"9","larger_num":"18","correct_side":2,"subjID":"paulaandreatoropedreros","gender":"1","age":"11","school":"6"},{"start_time":1551892935181,"click_time":1551892936391,"finger_time":1551892935971,"fix_duration":408.47340290984437,"trial":62,"RT":790,"MT":420,"sideResp":2,"stimulus":"img/500/equaldotsize/R/2_Ratio_500_L_3_R_6.png","xmouse":[775,775,775,775,775,775,775,775,775,775,775,775,775,775,775,775,775,775,775,775,775,775,775,775,775,775,775,775,775,775,775,775,775,775,775,775,775,775,778,783,813,841,866,895,920,937,971,983,987,988,989,990,991,993,997,1010,1019,1026,1035,1048,1078],"ymouse":[625,625,625,625,625,625,625,625,625,625,625,625,625,625,625,625,625,625,625,625,625,625,625,625,625,625,625,625,625,625,625,625,625,625,625,622,617,609,593,572,518,468,421,364,304,269,157,118,102,100,98,97,97,95,93,87,84,83,83,81,76],"timestamp_mouse":[11,42,51,70,90,111,130,150,170,191,212,231,252,271,291,311,331,351,370,391,410,430,452,471,490,512,531,551,572,591,610,631,650,670,692,711,730,751,771,790,810,832,850,870,890,910,930,950,970,990,1011,1031,1050,1071,1091,1111,1132,1150,1171,1191,1210],"xSR":741.5,"ySR":573.95,"xT1":424.9,"yT1":0,"xT2":1058.1,"yT2":0,"toosoon":0,"cond_shown":"equaldotsize","ratio_trial":500,"smaller_num":"3","larger_num":"6","correct_side":2,"subjID":"paulaandreatoropedreros","gender":"1","age":"11","school":"6"},{"start_time":1551892937484,"click_time":1551892938631,"finger_time":1551892938211,"fix_duration":250,"trial":63,"RT":727,"MT":420,"sideResp":2,"stimulus":"img/750/equaldotanddens/R/15_Ratio_750_L_9_R_12.png","xmouse":[793,793,793,793,793,793,793,793,793,793,793,793,793,793,793,793,793,793,793,793,793,793,793,793,793,793,793,793,793,793,793,793,793,793,794,803,826,858,900,937,986,1005,1022,1031,1037,1037,1037,1037,1036,1035,1032,1032,1032,1033,1037,1048,1058,1063],"ymouse":[612,612,612,612,612,612,612,612,612,612,612,612,612,612,612,612,612,612,612,612,612,612,612,612,612,612,612,612,612,612,612,612,612,612,612,600,573,547,514,483,419,378,333,283,232,176,149,133,122,113,105,102,99,95,90,77,71,69],"timestamp_mouse":[13,27,47,67,87,107,128,147,167,187,207,227,247,267,287,309,327,349,368,388,408,428,448,469,488,508,528,548,568,588,608,628,648,668,688,707,727,748,768,787,807,828,847,868,887,908,928,948,968,988,1007,1027,1048,1067,1087,1107,1127,1147],"xSR":741.5,"ySR":573.95,"xT1":424.9,"yT1":0,"xT2":1058.1,"yT2":0,"toosoon":0,"cond_shown":"equaldotanddens","ratio_trial":750,"smaller_num":"9","larger_num":"12","correct_side":2,"subjID":"paulaandreatoropedreros","gender":"1","age":"11","school":"6"},{"start_time":1551892939704,"click_time":1551892940511,"finger_time":1551892940412,"fix_duration":250,"trial":64,"RT":708,"MT":99,"sideResp":1,"stimulus":"img/500/equaldotanddens/L/11_Ratio_500_L_12_R_6.png","xmouse":[796,796,796,796,796,796,796,796,796,796,796,796,796,796,796,796,796,796,796,796,796,796,796,796,796,796,796,796,796,796,796,796,796,794,767,728,697,659,616,517,464],"ymouse":[644,644,644,644,644,644,644,644,644,644,644,644,644,644,644,644,644,643,643,643,643,643,643,643,643,643,643,643,643,643,643,643,641,636,613,573,515,446,354,143,54],"timestamp_mouse":[9,37,47,68,88,107,128,147,167,187,209,229,249,269,288,309,328,347,368,388,408,429,449,468,489,509,527,548,567,588,607,627,648,667,687,708,727,747,767,788,807],"xSR":741.5,"ySR":573.95,"xT1":424.9,"yT1":0,"xT2":1058.1,"yT2":0,"toosoon":0,"cond_shown":"equaldotanddens","ratio_trial":500,"smaller_num":"6","larger_num":"12","correct_side":1,"subjID":"paulaandreatoropedreros","gender":"1","age":"11","school":"6"},{"start_time":1551892943762,"click_time":1551892944813,"finger_time":1551892944432,"fix_duration":469.51439741724363,"trial":65,"RT":670,"MT":381,"sideResp":1,"stimulus":"img/500/equaldotanddens/L/8_Ratio_500_L_8_R_4.png","xmouse":[815,815,815,815,815,815,815,815,815,815,815,815,815,815,815,815,815,815,815,815,815,815,815,815,815,815,815,815,815,815,815,814,811,803,793,782,753,734,714,693,675,641,626,620,619,616,606,596,584,571,558,531,522],"ymouse":[617,617,617,617,617,617,617,617,617,617,617,617,617,617,617,617,617,617,617,617,617,617,617,617,617,617,617,617,617,617,617,610,580,556,534,511,417,352,297,253,223,178,160,156,154,151,144,138,131,124,115,94,88],"timestamp_mouse":[24,36,49,69,89,110,129,149,170,189,210,230,249,269,289,309,329,349,368,389,409,429,449,469,489,509,529,550,570,589,608,628,648,670,690,710,729,750,769,788,809,829,850,869,890,909,929,950,969,990,1010,1029,1050],"xSR":741.5,"ySR":573.95,"xT1":424.9,"yT1":0,"xT2":1058.1,"yT2":0,"toosoon":0,"cond_shown":"equaldotanddens","ratio_trial":500,"smaller_num":"4","larger_num":"8","correct_side":1,"subjID":"paulaandreatoropedreros","gender":"1","age":"11","school":"6"},{"start_time":1551892946043,"click_time":1551892947331,"finger_time":1551892947092,"fix_duration":250,"trial":66,"RT":1049,"MT":239,"sideResp":1,"stimulus":"img/750/equaldotsize/L/6_Ratio_750_L_24_R_18.png","xmouse":[826,826,826,826,826,826,825,824,819,817,816,815,815,815,815,815,815,815,815,815,815,815,815,815,815,815,815,815,815,815,815,815,815,815,815,815,815,815,815,815,815,815,815,815,815,815,815,815,814,813,809,806,783,766,740,717,700,675,648,630,604,592,538,517,497],"ymouse":[643,643,643,643,643,643,643,643,643,643,642,642,642,642,642,642,642,642,642,642,642,642,642,642,642,642,642,642,642,642,642,642,642,642,642,642,642,642,642,642,642,642,642,642,642,642,642,641,637,633,619,590,440,340,258,209,182,141,92,56,17,5,0,0,1],"timestamp_mouse":[8,28,49,68,89,108,128,148,168,188,208,229,249,269,287,308,329,348,368,389,409,428,448,468,488,509,528,548,568,588,608,628,648,668,688,708,729,749,768,788,809,829,848,868,888,909,928,948,968,988,1008,1028,1049,1068,1088,1108,1128,1148,1168,1188,1209,1228,1249,1269,1288],"xSR":741.5,"ySR":573.95,"xT1":424.9,"yT1":0,"xT2":1058.1,"yT2":0,"toosoon":0,"cond_shown":"equaldotsize","ratio_trial":750,"smaller_num":"18","larger_num":"24","correct_side":1,"subjID":"paulaandreatoropedreros","gender":"1","age":"11","school":"6"},{"start_time":1551892948726,"click_time":1551892949932,"finger_time":1551892949692,"fix_duration":315.6715843277863,"trial":67,"RT":966,"MT":240,"sideResp":2,"stimulus":"img/900/equaldotsize/L/4_Ratio_900_L_20_R_18.png","xmouse":[761,761,761,762,762,762,762,762,762,762,762,762,762,762,762,762,762,762,762,762,762,762,762,762,762,762,762,762,762,762,762,762,762,762,764,768,772,775,775,775,775,775,775,775,775,775,775,776,784,798,819,853,890,964,1007,1030,1042,1051,1057,1058,1063],"ymouse":[596,594,594,594,594,594,594,594,594,594,594,594,594,594,594,594,594,594,594,594,594,594,594,594,594,594,594,594,594,594,594,594,594,594,591,585,580,577,575,575,575,575,575,575,575,575,575,574,565,549,524,477,425,309,218,161,128,108,96,93,85],"timestamp_mouse":[6,25,44,65,85,105,126,144,166,185,205,225,245,265,285,305,326,344,365,386,405,426,446,465,485,505,526,545,565,585,605,625,645,666,686,705,725,746,765,785,806,826,845,865,885,906,925,945,966,985,1005,1026,1045,1066,1086,1105,1125,1146,1166,1185,1206],"xSR":741.5,"ySR":573.95,"xT1":424.9,"yT1":0,"xT2":1058.1,"yT2":0,"toosoon":0,"cond_shown":"equaldotsize","ratio_trial":900,"smaller_num":"18","larger_num":"20","correct_side":1,"subjID":"paulaandreatoropedreros","gender":"1","age":"11","school":"6"},{"start_time":1551892952450,"click_time":1551892954191,"finger_time":1551892953752,"fix_duration":1436.7904970584652,"trial":68,"RT":1302,"MT":439,"sideResp":1,"stimulus":"img/900/equaldotsize/L/2_Ratio_900_L_20_R_18.png","xmouse":[803,803,803,803,803,803,803,803,803,803,803,803,803,803,803,803,803,803,803,803,803,803,803,803,803,803,803,803,803,803,803,803,803,803,803,803,803,803,803,803,803,803,803,803,803,803,803,803,803,803,803,803,803,803,803,803,803,803,801,796,794,793,790,785,773,753,718,677,675,675,675,675,675,675,675,675,675,675,675,673,672,669,652,638,617,594,568,518],"ymouse":[605,605,605,605,605,605,605,605,605,605,605,605,605,605,605,605,605,605,605,605,605,605,605,605,605,605,605,605,605,605,605,605,605,605,605,605,605,605,605,605,605,605,605,605,605,605,605,605,605,605,605,605,605,605,605,605,605,605,605,605,605,605,601,593,577,555,523,498,497,497,497,497,497,497,497,497,497,497,497,495,490,478,435,393,325,248,184,26],"timestamp_mouse":[8,21,42,61,82,102,122,142,161,181,202,221,242,262,281,301,322,341,361,381,402,421,441,461,482,502,522,542,561,582,602,621,641,661,681,701,721,741,761,781,801,822,842,861,881,901,921,941,961,981,1002,1021,1042,1062,1082,1101,1121,1142,1161,1182,1202,1222,1241,1262,1281,1302,1321,1340,1360,1382,1401,1422,1442,1461,1481,1501,1521,1542,1562,1581,1600,1622,1641,1662,1682,1702,1721,1741],"xSR":741.5,"ySR":573.95,"xT1":424.9,"yT1":0,"xT2":1058.1,"yT2":0,"toosoon":0,"cond_shown":"equaldotsize","ratio_trial":900,"smaller_num":"18","larger_num":"20","correct_side":1,"subjID":"paulaandreatoropedreros","gender":"1","age":"11","school":"6"},{"start_time":1551892955281,"click_time":1551892956352,"finger_time":1551892956191,"fix_duration":250,"trial":69,"RT":910,"MT":161,"sideResp":2,"stimulus":"img/900/randomdotsizeEA/R/3_Ratio_900_L_9_R_10.png","xmouse":[775,775,775,775,775,775,775,775,775,775,775,775,775,775,775,775,775,775,775,775,775,775,775,775,775,775,775,775,775,775,775,775,775,775,775,775,775,775,775,776,786,790,795,807,828,939,1005,1071,1087,1095,1104,1108,1113,1118],"ymouse":[641,641,641,641,641,641,641,641,641,641,641,641,641,641,641,641,641,641,641,641,641,641,641,641,641,641,641,641,641,641,641,641,641,641,641,641,641,641,641,640,629,624,620,609,586,413,306,210,177,157,137,129,116,95],"timestamp_mouse":[13,30,50,71,90,111,131,150,171,190,211,231,250,270,291,311,331,350,371,391,410,430,450,470,490,511,530,551,571,591,611,630,650,669,691,709,729,749,771,790,810,831,850,870,890,910,930,950,970,990,1010,1030,1050,1071],"xSR":741.5,"ySR":573.95,"xT1":424.9,"yT1":0,"xT2":1058.1,"yT2":0,"toosoon":0,"cond_shown":"randomdotsizeEA","ratio_trial":900,"smaller_num":"9","larger_num":"10","correct_side":2,"subjID":"paulaandreatoropedreros","gender":"1","age":"11","school":"6"},{"start_time":1551892957827,"click_time":1551892959052,"finger_time":1551892958692,"fix_duration":475.5261188591827,"trial":70,"RT":865,"MT":360,"sideResp":2,"stimulus":"img/500/randomdotsizeEA/R/14_Ratio_500_L_5_R_10.png","xmouse":[800,800,800,800,800,800,800,800,800,800,800,800,800,800,800,800,800,800,800,800,800,800,800,800,800,800,800,800,800,800,800,800,800,800,800,800,800,800,800,800,800,806,812,821,827,835,848,870,948,995,1015,1025,1029,1038,1044,1053,1059,1060,1060,1062,1068,1083],"ymouse":[592,592,592,592,592,592,592,592,592,592,592,592,592,592,592,592,592,592,592,592,592,592,592,592,592,592,592,592,592,592,592,592,592,592,592,592,592,592,592,592,590,581,574,558,551,541,525,497,37