[{"start_time":1551794719875,"click_time":1551794720811,"finger_time":1551794720631,"fix_duration":1358.3526153712262,"trial":0,"RT":756,"MT":180,"sideResp":1,"stimulus":"img/250/randomdotsizeEA/L/1_Ratio_250_L_8_R_2.png","xmouse":[806,806,806,806,805,805,805,805,804,803,803,803,803,803,803,802,801,801,801,801,801,801,801,801,801,801,801,801,801,800,798,797,792,789,785,781,773,750,732,707,668,627,591,517,498,484,474],"ymouse":[528,528,528,528,528,528,528,528,528,528,528,528,528,528,528,528,528,528,528,528,528,528,528,528,528,528,528,528,527,525,520,514,504,499,495,486,477,447,423,393,354,314,273,183,154,123,97],"timestamp_mouse":[16,50,55,76,96,115,135,156,176,195,215,237,255,276,295,316,337,356,376,396,415,435,455,476,495,515,536,556,575,595,616,635,656,676,695,716,736,756,775,795,815,835,855,876,895,915,936],"xSR":741.5,"ySR":481,"xT1":424.9,"yT1":0,"xT2":1058.1,"yT2":0,"toosoon":0,"cond_shown":"randomdotsizeEA","ratio_trial":250,"smaller_num":"2","larger_num":"8","correct_side":1,"subjID":"paulajulianapuentesayala13","gender":"1","age":"10","school":"6","test":{"fix_dur":[250,1500],"timestim":300,"targets_dim":[100,100],"targets_relative_coord":[0.3,0.7],"size_stim":[880,420],"start_dim":[100,100],"size_start":[300,300],"size_fix":60,"samplingrate":20,"img_types":["equaldotsize","equaldotanddens","randomdotsizeEA"],"ratios":[250,500,750,900],"rep_conds":9,"nTrials":120,"trials_to_rest":500,"Trials_order":[86,72,22,99,66,62,64,96,41,100,8,104,116,25,43,102,45,106,51,78,21,112,89,94,74,107,36,84,58,114,37,46,28,98,26,12,77,48,61,105,24,10,34,110,6,69,2,52,85,93,49,65,75,81,35,42,80,73,55,7,71,54,63,18,13,118,108,47,111,30,82,15,115,16,119,38,59,88,53,97,17,9,79,83,27,95,44,31,40,70,90,92,117,11,0,113,109,60,57,87,5,103,101,1,29,67,19,14,39,32,56,23,68,76,20,33,3,4,91,50],"cond_shown":["randomdotsizeEA","equaldotsize","equaldotanddens","equaldotsize","equaldotsize","randomdotsizeEA","equaldotanddens","equaldotsize","randomdotsizeEA","equaldotanddens","randomdotsizeEA","randomdotsizeEA","randomdotsizeEA","equaldotanddens","equaldotanddens","equaldotsize","equaldotsize","equaldotanddens","equaldotsize","equaldotsize","equaldotsize","equaldotanddens","randomdotsizeEA","equaldotanddens","randomdotsizeEA","randomdotsizeEA","equaldotsize","equaldotsize","equaldotanddens","equaldotsize","equaldotanddens","equaldotanddens","equaldotanddens","randomdotsizeEA","randomdotsizeEA","equaldotsize","randomdotsizeEA","equaldotsize","equaldotanddens","equaldotsize","equaldotsize","equaldotanddens","equaldotanddens","randomdotsizeEA","equaldotsize","equaldotsize","randomdotsizeEA","equaldotanddens","equaldotanddens","equaldotsize","equaldotanddens","randomdotsizeEA","equaldotsize","equaldotsize","randomdotsizeEA","equaldotsize","randomdotsizeEA","equaldotanddens","equaldotanddens","equaldotanddens","randomdotsizeEA","equaldotsize","equaldotsize","equaldotsize","equaldotanddens","equaldotanddens","equaldotsize","randomdotsizeEA","equaldotsize","equaldotsize","equaldotanddens","equaldotsize","equaldotanddens","equaldotanddens","randomdotsizeEA","randomdotsizeEA","randomdotsizeEA","equaldotanddens","randomdotsizeEA","equaldotanddens","randomdotsizeEA","equaldotsize","equaldotanddens","randomdotsizeEA","equaldotsize","randomdotsizeEA","randomdotsizeEA","equaldotanddens","equaldotanddens","equaldotanddens","equaldotsize","randomdotsizeEA","equaldotsize","randomdotsizeEA","equaldotsize","randomdotsizeEA","equaldotanddens","equaldotsize","equaldotsize","equaldotsize","randomdotsizeEA","equaldotanddens","randomdotsizeEA","equaldotanddens","randomdotsizeEA","equaldotanddens","equaldotanddens","randomdotsizeEA","equaldotsize","randomdotsizeEA","randomdotsizeEA","randomdotsizeEA","randomdotsizeEA","equaldotanddens","randomdotsizeEA","equaldotsize","equaldotsize","equaldotanddens","equaldotanddens","randomdotsizeEA"],"ratio_trial":[250,250,900,500,750,250,500,250,500,500,750,750,750,250,750,750,900,900,500,750,900,500,500,900,250,900,250,250,900,750,250,900,500,250,250,250,500,250,250,900,250,900,900,250,750,900,250,500,250,900,250,500,500,900,900,750,750,250,750,750,900,750,500,750,250,900,250,900,500,750,900,500,750,500,900,250,900,500,500,250,500,900,750,900,500,900,750,750,500,900,750,750,900,900,250,500,250,250,900,500,500,750,500,250,500,750,750,250,500,750,750,900,750,500,750,900,500,500,750,250],"smaller_num":["2","2","9","9","3","3","9","3","2","5","15","3","15","4","12","3","18","18","10","3","9","10","2","18","2","9","6","3","18","18","6","18","9","3","4","3","6","4","3","18","2","18","18","2","18","18","3","3","3","18","6","1","1","18","9","15","3","3","3","15","9","3","2","9","3","18","3","18","2","15","18","6","3","1","18","2","18","9","5","3","3","9","12","18","9","18","3","3","6","9","15","3","18","18","3","2","1","3","18","5","9","15","9","6","4","6","15","3","1","6","3","18","15","3","6","18","9","2","9","4"],"larger_num":["8","8","10","18","4","12","18","12","4","10","20","4","20","16","16","4","20","20","20","4","10","20","4","20","8","10","24","12","20","24","24","20","18","12","16","12","12","16","12","20","8","20","20","8","24","20","12","6","12","20","24","2","2","20","10","20","4","12","4","20","10","4","4","12","12","20","12","20","4","20","20","12","4","2","20","8","20","18","10","12","6","10","16","20","18","20","4","4","12","10","20","4","20","20","12","4","4","12","20","10","18","20","18","24","8","8","20","12","2","8","4","20","20","6","8","20","18","4","12","16"],"correct_side":[1,2,2,1,2,2,1,2,2,2,2,2,1,1,2,1,1,1,2,2,2,2,2,1,2,1,1,2,2,1,1,2,2,1,1,2,1,2,1,1,1,1,1,1,1,1,2,2,1,1,2,2,2,2,2,2,1,1,2,2,1,2,1,2,2,1,2,1,2,2,2,1,2,2,1,1,2,2,1,2,2,1,2,1,1,2,2,2,1,1,1,1,2,1,1,1,2,2,1,2,2,1,2,2,1,1,1,1,2,1,1,1,1,2,1,2,1,1,2,2],"img_shown":["img/250/randomdotsizeEA/L/1_Ratio_250_L_8_R_2.png","img/250/equaldotsize/R/13_Ratio_250_L_2_R_8.png","img/900/equaldotanddens/R/5_Ratio_900_L_9_R_10.png","img/500/equaldotsize/L/4_Ratio_500_L_18_R_9.png","img/750/equaldotsize/R/7_Ratio_750_L_3_R_4.png","img/250/randomdotsizeEA/R/4_Ratio_250_L_3_R_12.png","img/500/equaldotanddens/L/4_Ratio_500_L_18_R_9.png","img/250/equaldotsize/R/11_Ratio_250_L_3_R_12.png","img/500/randomdotsizeEA/R/9_Ratio_500_L_2_R_4.png","img/500/equaldotanddens/R/14_Ratio_500_L_5_R_10.png","img/750/randomdotsizeEA/R/4_Ratio_750_L_15_R_20.png","img/750/randomdotsizeEA/R/7_Ratio_750_L_3_R_4.png","img/750/randomdotsizeEA/L/1_Ratio_750_L_20_R_15.png","img/250/equaldotanddens/L/2_Ratio_250_L_16_R_4.png","img/750/equaldotanddens/R/11_Ratio_750_L_12_R_16.png","img/750/equaldotsize/L/8_Ratio_750_L_4_R_3.png","img/900/equaldotsize/L/10_Ratio_900_L_20_R_18.png","img/900/equaldotanddens/L/10_Ratio_900_L_20_R_18.png","img/500/equaldotsize/R/3_Ratio_500_L_10_R_20.png","img/750/equaldotsize/R/12_Ratio_750_L_3_R_4.png","img/900/equaldotsize/R/6_Ratio_900_L_9_R_10.png","img/500/equaldotanddens/R/3_Ratio_500_L_10_R_20.png","img/500/randomdotsizeEA/R/9_Ratio_500_L_2_R_4.png","img/900/equaldotanddens/L/4_Ratio_900_L_20_R_18.png","img/250/randomdotsizeEA/R/13_Ratio_250_L_2_R_8.png","img/900/randomdotsizeEA/L/1_Ratio_900_L_10_R_9.png","img/250/equaldotsize/L/5_Ratio_250_L_24_R_6.png","img/250/equaldotsize/R/4_Ratio_250_L_3_R_12.png","img/900/equaldotanddens/R/13_Ratio_900_L_18_R_20.png","img/750/equaldotsize/L/6_Ratio_750_L_24_R_18.png","img/250/equaldotanddens/L/5_Ratio_250_L_24_R_6.png","img/900/equaldotanddens/R/9_Ratio_900_L_18_R_20.png","img/500/equaldotanddens/R/6_Ratio_500_L_9_R_18.png","img/250/randomdotsizeEA/L/15_Ratio_250_L_12_R_3.png","img/250/randomdotsizeEA/L/2_Ratio_250_L_16_R_4.png","img/250/equaldotsize/R/4_Ratio_250_L_3_R_12.png","img/500/randomdotsizeEA/L/11_Ratio_500_L_12_R_6.png","img/250/equaldotsize/R/10_Ratio_250_L_4_R_16.png","img/250/equaldotanddens/L/15_Ratio_250_L_12_R_3.png","img/900/equaldotsize/L/4_Ratio_900_L_20_R_18.png","img/250/equaldotsize/L/7_Ratio_250_L_8_R_2.png","img/900/equaldotanddens/L/10_Ratio_900_L_20_R_18.png","img/900/equaldotanddens/L/10_Ratio_900_L_20_R_18.png","img/250/randomdotsizeEA/L/7_Ratio_250_L_8_R_2.png","img/750/equaldotsize/L/6_Ratio_750_L_24_R_18.png","img/900/equaldotsize/L/2_Ratio_900_L_20_R_18.png","img/250/randomdotsizeEA/R/11_Ratio_250_L_3_R_12.png","img/500/equaldotanddens/R/2_Ratio_500_L_3_R_6.png","img/250/equaldotanddens/L/15_Ratio_250_L_12_R_3.png","img/900/equaldotsize/L/2_Ratio_900_L_20_R_18.png","img/250/equaldotanddens/R/6_Ratio_250_L_6_R_24.png","img/500/randomdotsizeEA/R/15_Ratio_500_L_1_R_2.png","img/500/equaldotsize/R/15_Ratio_500_L_1_R_2.png","img/900/equaldotsize/R/12_Ratio_900_L_18_R_20.png","img/900/randomdotsizeEA/R/7_Ratio_900_L_9_R_10.png","img/750/equaldotsize/R/5_Ratio_750_L_15_R_20.png","img/750/randomdotsizeEA/L/9_Ratio_750_L_4_R_3.png","img/250/equaldotanddens/L/15_Ratio_250_L_12_R_3.png","img/750/equaldotanddens/R/7_Ratio_750_L_3_R_4.png","img/750/equaldotanddens/R/3_Ratio_750_L_15_R_20.png","img/900/randomdotsizeEA/L/1_Ratio_900_L_10_R_9.png","img/750/equaldotsize/R/7_Ratio_750_L_3_R_4.png","img/500/equaldotsize/L/5_Ratio_500_L_4_R_2.png","img/750/equaldotsize/R/15_Ratio_750_L_9_R_12.png","img/250/equaldotanddens/R/4_Ratio_250_L_3_R_12.png","img/900/equaldotanddens/L/10_Ratio_900_L_20_R_18.png","img/250/equaldotsize/R/4_Ratio_250_L_3_R_12.png","img/900/randomdotsizeEA/L/4_Ratio_900_L_20_R_18.png","img/500/equaldotsize/R/9_Ratio_500_L_2_R_4.png","img/750/equaldotsize/R/5_Ratio_750_L_15_R_20.png","img/900/equaldotanddens/R/14_Ratio_900_L_18_R_20.png","img/500/equaldotsize/L/11_Ratio_500_L_12_R_6.png","img/750/equaldotanddens/R/12_Ratio_750_L_3_R_4.png","img/500/equaldotanddens/R/15_Ratio_500_L_1_R_2.png","img/900/randomdotsizeEA/L/10_Ratio_900_L_20_R_18.png","img/250/randomdotsizeEA/L/1_Ratio_250_L_8_R_2.png","img/900/randomdotsizeEA/R/14_Ratio_900_L_18_R_20.png","img/500/equaldotanddens/R/1_Ratio_500_L_9_R_18.png","img/500/randomdotsizeEA/L/7_Ratio_500_L_10_R_5.png","img/250/equaldotanddens/R/4_Ratio_250_L_3_R_12.png","img/500/randomdotsizeEA/R/2_Ratio_500_L_3_R_6.png","img/900/equaldotsize/L/1_Ratio_900_L_10_R_9.png","img/750/equaldotanddens/R/11_Ratio_750_L_12_R_16.png","img/900/randomdotsizeEA/L/8_Ratio_900_L_20_R_18.png","img/500/equaldotsize/L/4_Ratio_500_L_18_R_9.png","img/900/randomdotsizeEA/R/13_Ratio_900_L_18_R_20.png","img/750/randomdotsizeEA/R/7_Ratio_750_L_3_R_4.png","img/750/equaldotanddens/R/7_Ratio_750_L_3_R_4.png","img/500/equaldotanddens/L/13_Ratio_500_L_12_R_6.png","img/900/equaldotanddens/L/1_Ratio_900_L_10_R_9.png","img/750/equaldotsize/L/1_Ratio_750_L_20_R_15.png","img/750/randomdotsizeEA/L/9_Ratio_750_L_4_R_3.png","img/900/equaldotsize/R/14_Ratio_900_L_18_R_20.png","img/900/randomdotsizeEA/L/4_Ratio_900_L_20_R_18.png","img/250/equaldotsize/L/14_Ratio_250_L_12_R_3.png","img/500/randomdotsizeEA/L/5_Ratio_500_L_4_R_2.png","img/250/equaldotanddens/R/8_Ratio_250_L_1_R_4.png","img/250/equaldotsize/R/9_Ratio_250_L_3_R_12.png","img/900/equaldotsize/L/10_Ratio_900_L_20_R_18.png","img/500/equaldotsize/R/14_Ratio_500_L_5_R_10.png","img/500/randomdotsizeEA/R/1_Ratio_500_L_9_R_18.png","img/750/equaldotanddens/L/1_Ratio_750_L_20_R_15.png","img/500/randomdotsizeEA/R/6_Ratio_500_L_9_R_18.png","img/250/equaldotanddens/R/6_Ratio_250_L_6_R_24.png","img/500/randomdotsizeEA/L/8_Ratio_500_L_8_R_4.png","img/750/equaldotanddens/L/14_Ratio_750_L_8_R_6.png","img/750/equaldotanddens/L/1_Ratio_750_L_20_R_15.png","img/250/randomdotsizeEA/L/15_Ratio_250_L_12_R_3.png","img/500/equaldotsize/R/12_Ratio_500_L_1_R_2.png","img/750/randomdotsizeEA/L/14_Ratio_750_L_8_R_6.png","img/750/randomdotsizeEA/L/9_Ratio_750_L_4_R_3.png","img/900/randomdotsizeEA/L/10_Ratio_900_L_20_R_18.png","img/750/randomdotsizeEA/L/1_Ratio_750_L_20_R_15.png","img/500/equaldotanddens/R/2_Ratio_500_L_3_R_6.png","img/750/randomdotsizeEA/L/13_Ratio_750_L_8_R_6.png","img/900/equaldotsize/R/11_Ratio_900_L_18_R_20.png","img/500/equaldotsize/L/4_Ratio_500_L_18_R_9.png","img/500/equaldotanddens/L/5_Ratio_500_L_4_R_2.png","img/750/equaldotanddens/R/15_Ratio_750_L_9_R_12.png","img/250/randomdotsizeEA/R/10_Ratio_250_L_4_R_16.png"],"Rat0":[["12_Ratio_0_L_9_R_0.png","13_Ratio_0_L_6_R_0.png","5_Ratio_0_L_2_R_0.png","6_Ratio_0_L_4_R_0.png","8_Ratio_0_L_6_R_0.png"],["1_Ratio_0_L_0_R_17.png","10_Ratio_0_L_0_R_22.png","11_Ratio_0_L_0_R_1.png","14_Ratio_0_L_0_R_24.png","15_Ratio_0_L_0_R_4.png","2_Ratio_0_L_0_R_5.png","3_Ratio_0_L_0_R_17.png","4_Ratio_0_L_0_R_7.png","7_Ratio_0_L_0_R_19.png","9_Ratio_0_L_0_R_15.png"]],"Rat250":[["1_Ratio_250_L_8_R_2.png","14_Ratio_250_L_12_R_3.png","15_Ratio_250_L_12_R_3.png","2_Ratio_250_L_16_R_4.png","3_Ratio_250_L_8_R_2.png","5_Ratio_250_L_24_R_6.png","7_Ratio_250_L_8_R_2.png"],["10_Ratio_250_L_4_R_16.png","11_Ratio_250_L_3_R_12.png","12_Ratio_250_L_5_R_20.png","13_Ratio_250_L_2_R_8.png","4_Ratio_250_L_3_R_12.png","6_Ratio_250_L_6_R_24.png","8_Ratio_250_L_1_R_4.png","9_Ratio_250_L_3_R_12.png"]],"Rat500":[["10_Ratio_500_L_4_R_2.png","11_Ratio_500_L_12_R_6.png","13_Ratio_500_L_12_R_6.png","4_Ratio_500_L_18_R_9.png","5_Ratio_500_L_4_R_2.png","7_Ratio_500_L_10_R_5.png","8_Ratio_500_L_8_R_4.png"],["1_Ratio_500_L_9_R_18.png","12_Ratio_500_L_1_R_2.png","14_Ratio_500_L_5_R_10.png","15_Ratio_500_L_1_R_2.png","2_Ratio_500_L_3_R_6.png","3_Ratio_500_L_10_R_20.png","6_Ratio_500_L_9_R_18.png","9_Ratio_500_L_2_R_4.png"]],"Rat750":[["1_Ratio_750_L_20_R_15.png","10_Ratio_750_L_4_R_3.png","13_Ratio_750_L_8_R_6.png","14_Ratio_750_L_8_R_6.png","6_Ratio_750_L_24_R_18.png","8_Ratio_750_L_4_R_3.png","9_Ratio_750_L_4_R_3.png"],["11_Ratio_750_L_12_R_16.png","12_Ratio_750_L_3_R_4.png","15_Ratio_750_L_9_R_12.png","2_Ratio_750_L_6_R_8.png","3_Ratio_750_L_15_R_20.png","4_Ratio_750_L_15_R_20.png","5_Ratio_750_L_15_R_20.png","7_Ratio_750_L_3_R_4.png"]],"Rat900":[["1_Ratio_900_L_10_R_9.png","10_Ratio_900_L_20_R_18.png","2_Ratio_900_L_20_R_18.png","4_Ratio_900_L_20_R_18.png","8_Ratio_900_L_20_R_18.png"],["11_Ratio_900_L_18_R_20.png","12_Ratio_900_L_18_R_20.png","13_Ratio_900_L_18_R_20.png","14_Ratio_900_L_18_R_20.png","15_Ratio_900_L_9_R_10.png","3_Ratio_900_L_9_R_10.png","5_Ratio_900_L_9_R_10.png","6_Ratio_900_L_9_R_10.png","7_Ratio_900_L_9_R_10.png","9_Ratio_900_L_18_R_20.png"]],"Rat1000":[["10_Ratio_1000_L_16_R_16.png","11_Ratio_1000_L_6_R_6.png","12_Ratio_1000_L_14_R_14.png","13_Ratio_1000_L_20_R_20.png","15_Ratio_1000_L_15_R_15.png","2_Ratio_1000_L_17_R_17.png","4_Ratio_1000_L_9_R_9.png","5_Ratio_1000_L_6_R_6.png","6_Ratio_1000_L_19_R_19.png","8_Ratio_1000_L_14_R_14.png","9_Ratio_1000_L_25_R_25.png"],["1_Ratio_1000_L_1_R_1.png","14_Ratio_1000_L_17_R_17.png","3_Ratio_1000_L_17_R_17.png","7_Ratio_1000_L_6_R_6.png"]]}},{"start_time":1551794723034,"click_time":1551794724170,"finger_time":1551794723831,"fix_duration":1281.9164072081408,"trial":1,"RT":797,"MT":339,"sideResp":2,"stimulus":"img/250/equaldotsize/R/13_Ratio_250_L_2_R_8.png","xmouse":[807,807,807,807,807,807,807,807,807,807,807,807,807,807,807,807,807,807,807,807,807,807,807,807,807,807,807,807,807,807,807,807,807,807,807,807,810,816,834,864,923,948,968,982,994,1000,1008,1013,1019,1032,1039,1043,1046,1049,1053,1058,1067],"ymouse":[500,500,500,500,500,500,500,500,500,500,500,500,500,500,500,500,500,500,500,500,500,500,500,500,500,500,500,500,500,500,500,500,500,500,499,489,480,470,450,422,345,301,251,201,124,111,105,101,96,89,83,79,77,76,75,75,73],"timestamp_mouse":[16,36,56,76,96,117,137,156,176,196,217,236,257,276,297,317,336,356,376,396,417,438,457,476,496,516,537,557,577,598,616,636,658,676,696,716,736,758,776,797,816,836,858,877,897,917,936,957,977,997,1016,1036,1056,1076,1097,1116,1136],"xSR":741.5,"ySR":449.15000000000003,"xT1":424.9,"yT1":0,"xT2":1058.1,"yT2":0,"toosoon":0,"cond_shown":"equaldotsize","ratio_trial":250,"smaller_num":"2","larger_num":"8","correct_side":2,"subjID":"paulajulianapuentesayala13","gender":"1","age":"10","school":"6"},{"start_time":1551794725571,"click_time":1551794726470,"finger_time":1551794725951,"fix_duration":420.3732274478484,"trial":2,"RT":380,"MT":519,"sideResp":1,"stimulus":"img/900/equaldotanddens/R/5_Ratio_900_L_9_R_10.png","xmouse":[786,786,786,786,786,786,786,786,786,786,786,786,786,786,786,786,786,786,785,779,768,754,718,700,681,669,664,659,658,658,658,658,658,658,658,657,653,628,608,590,572,557,535,527,521],"ymouse":[486,486,486,486,486,486,486,486,486,486,486,486,486,486,486,484,477,459,449,436,422,401,355,326,296,270,257,245,245,245,245,245,245,245,244,243,237,207,185,163,144,122,92,81,73],"timestamp_mouse":[20,43,59,81,100,119,139,160,180,199,219,240,259,279,301,320,339,360,380,399,421,440,460,479,499,519,539,560,579,599,619,640,660,679,699,720,739,760,779,799,820,839,860,879,899],"xSR":741.5,"ySR":449.15000000000003,"xT1":424.9,"yT1":0,"xT2":1058.1,"yT2":0,"toosoon":0,"cond_shown":"equaldotanddens","ratio_trial":900,"smaller_num":"9","larger_num":"10","correct_side":2,"subjID":"paulajulianapuentesayala13","gender":"1","age":"10","school":"6"},{"start_time":1551794729040,"click_time":1551794730110,"finger_time":1551794729411,"fix_duration":1468.5576091460055,"trial":3,"RT":371,"MT":699,"sideResp":1,"stimulus":"img/500/equaldotsize/L/4_Ratio_500_L_18_R_9.png","xmouse":[792,792,791,791,791,791,791,791,791,791,791,791,791,791,794,802,820,838,863,869,872,876,883,892,897,899,905,915,948,967,981,990,991,991,985,955,906,843,786,718,713,713,712,706,677,651,621,592,570,544,538,533,524],"ymouse":[490,493,495,495,495,495,495,495,495,495,495,495,495,495,490,477,455,431,369,339,314,291,276,251,244,237,228,217,180,165,151,145,143,143,148,158,174,191,200,208,208,208,203,197,164,145,122,103,87,68,64,61,58],"timestamp_mouse":[30,50,70,90,110,132,151,171,191,211,231,252,271,292,310,330,351,371,391,410,432,450,470,491,510,530,551,570,591,610,631,651,670,691,711,730,752,771,790,811,831,851,870,890,910,930,951,971,991,1011,1030,1050,1070],"xSR":741.5,"ySR":449.15000000000003,"xT1":424.9,"yT1":0,"xT2":1058.1,"yT2":0,"toosoon":0,"cond_shown":"equaldotsize","ratio_trial":500,"smaller_num":"9","larger_num":"18","correct_side":1,"subjID":"paulajulianapuentesayala13","gender":"1","age":"10","school":"6"},{"start_time":1551794731948,"click_time":1551794733050,"finger_time":1551794732690,"fix_duration":916.9308776359001,"trial":4,"RT":742,"MT":360,"sideResp":2,"stimulus":"img/750/equaldotsize/R/7_Ratio_750_L_3_R_4.png","xmouse":[775,775,775,775,775,775,775,775,775,775,775,775,775,775,775,775,776,776,777,778,778,778,778,778,778,778,778,778,778,778,778,778,780,781,786,796,811,830,851,920,940,962,982,998,1011,1017,1023,1026,1031,1039,1051,1052,1053,1056,1072,1085],"ymouse":[529,529,529,529,529,529,529,529,529,529,529,529,529,529,529,529,528,525,524,522,522,522,522,522,522,522,522,522,522,521,520,518,517,514,503,491,472,443,414,297,256,216,189,165,141,135,132,128,125,120,112,111,111,109,103,96],"timestamp_mouse":[8,36,43,62,82,102,123,143,162,184,203,222,242,262,284,303,323,342,363,382,402,423,442,463,483,504,523,544,562,584,602,622,643,663,683,702,722,742,764,783,802,822,843,863,883,902,924,943,962,983,1002,1024,1044,1063,1083,1102],"xSR":741.5,"ySR":449.15000000000003,"xT1":424.9,"yT1":0,"xT2":1058.1,"yT2":0,"toosoon":0,"cond_shown":"equaldotsize","ratio_trial":750,"smaller_num":"3","larger_num":"4","correct_side":2,"subjID":"paulajulianapuentesayala13","gender":"1","age":"10","school":"6"},{"start_time":1551794734382,"click_time":1551794735411,"finger_time":1551794735091,"fix_duration":250,"trial":5,"RT":709,"MT":320,"sideResp":1,"stimulus":"img/250/randomdotsizeEA/R/4_Ratio_250_L_3_R_12.png","xmouse":[773,773,773,773,773,773,773,773,773,773,773,773,773,773,773,773,773,773,773,773,773,773,773,773,773,773,773,773,773,773,773,771,757,751,745,739,721,690,673,653,634,616,584,573,566,562,555,548,534,531,526,522],"ymouse":[513,513,513,513,513,513,513,513,513,513,513,513,513,513,513,513,513,513,513,513,513,513,513,513,513,513,513,513,513,512,510,503,483,472,465,456,433,375,339,302,270,241,193,176,163,153,137,121,93,82,75,66],"timestamp_mouse":[9,34,49,68,88,108,128,148,168,188,208,229,249,269,288,308,328,349,369,388,409,429,448,469,488,509,528,548,568,588,609,629,649,668,689,709,729,749,768,788,809,831,848,868,888,908,928,948,969,988,1008,1028],"xSR":741.5,"ySR":449.15000000000003,"xT1":424.9,"yT1":0,"xT2":1058.1,"yT2":0,"toosoon":0,"cond_shown":"randomdotsizeEA","ratio_trial":250,"smaller_num":"3","larger_num":"12","correct_side":2,"subjID":"paulajulianapuentesayala13","gender":"1","age":"10","school":"6"},{"start_time":1551794737321,"click_time":1551794738350,"finger_time":1551794738091,"fix_duration":870.9771253858415,"trial":6,"RT":770,"MT":259,"sideResp":1,"stimulus":"img/500/equaldotanddens/L/4_Ratio_500_L_18_R_9.png","xmouse":[767,767,767,768,768,768,768,768,768,768,768,768,768,768,768,768,768,768,768,768,768,768,768,768,768,768,768,768,768,768,768,768,768,768,768,768,765,758,746,733,694,672,657,642,628,610,581,579,579,579,548,499],"ymouse":[478,480,480,482,484,484,484,484,484,484,484,484,484,484,484,484,484,484,484,484,484,484,484,484,484,484,484,484,484,484,484,484,484,484,484,482,471,455,429,400,301,256,220,189,160,138,112,111,109,104,74,47],"timestamp_mouse":[11,43,49,71,89,111,129,149,171,190,209,229,249,269,289,310,329,351,369,390,410,429,449,469,489,509,531,549,569,589,611,630,649,670,689,710,729,749,770,790,810,829,849,871,890,909,929,951,970,989,1011,1029],"xSR":741.5,"ySR":449.15000000000003,"xT1":424.9,"yT1":0,"xT2":1058.1,"yT2":0,"toosoon":0,"cond_shown":"equaldotanddens","ratio_trial":500,"smaller_num":"9","larger_num":"18","correct_side":1,"subjID":"paulajulianapuentesayala13","gender":"1","age":"10","school":"6"},{"start_time":1551794742701,"click_time":1551794744331,"finger_time":1551794743751,"fix_duration":250,"trial":7,"RT":1050,"MT":580,"sideResp":2,"stimulus":"img/250/equaldotsize/R/11_Ratio_250_L_3_R_12.png","xmouse":[815,815,815,815,815,815,815,815,815,815,814,814,814,814,814,814,814,814,814,814,814,814,814,814,814,814,814,814,814,814,814,814,814,814,814,814,814,814,814,814,814,814,814,814,814,814,814,815,821,827,833,837,892,916,940,957,980,983,983,983,983,992,997,1001,1004,1004,1004,1005,1007,1011,1015,1029,1038,1045,1053,1060,1071,1077,1081,1085,1090,1092],"ymouse":[529,528,528,528,528,528,528,528,528,527,526,526,526,526,526,526,526,526,526,526,526,526,526,526,526,526,526,526,526,526,526,526,526,526,526,526,526,526,526,526,526,526,526,526,526,525,524,520,514,505,494,484,376,329,290,253,206,200,198,198,198,191,187,183,181,181,180,177,175,171,166,155,149,144,138,134,127,121,116,109,101,81],"timestamp_mouse":[10,29,49,70,89,110,130,149,169,189,209,229,249,275,289,309,330,351,369,389,409,429,449,469,489,510,529,549,569,590,609,631,650,669,691,710,731,751,769,790,809,830,850,870,890,910,929,949,970,990,1010,1029,1050,1069,1090,1109,1130,1149,1169,1189,1210,1230,1249,1269,1290,1309,1330,1349,1370,1389,1409,1431,1449,1469,1490,1510,1530,1549,1570,1589,1609,1630],"xSR":741.5,"ySR":449.15000000000003,"xT1":424.9,"yT1":0,"xT2":1058.1,"yT2":0,"toosoon":0,"cond_shown":"equaldotsize","ratio_trial":250,"smaller_num":"3","larger_num":"12","correct_side":2,"subjID":"paulajulianapuentesayala13","gender":"1","age":"10","school":"6"},{"start_time":1551794745763,"click_time":1551794747090,"finger_time":1551794746831,"fix_duration":250,"trial":8,"RT":1068,"MT":259,"sideResp":2,"stimulus":"img/500/randomdotsizeEA/R/9_Ratio_500_L_2_R_4.png","xmouse":[808,808,808,808,808,808,808,807,807,807,807,807,807,807,807,807,807,807,807,807,807,807,807,807,807,807,807,807,807,807,807,807,807,807,807,807,807,807,807,807,807,807,807,807,807,807,807,807,807,807,807,809,821,852,860,866,866,871,904,931,950,987,1017,1055,1060,1062,1063],"ymouse":[523,523,523,523,523,523,523,523,523,523,523,523,523,523,523,523,523,523,523,523,523,523,523,523,523,523,523,523,523,523,523,523,523,523,523,523,523,523,523,523,523,523,523,523,523,523,523,523,523,523,522,515,501,446,413,380,329,281,239,221,224,194,164,120,107,100,98],"timestamp_mouse":[9,34,47,68,87,108,127,149,168,189,207,227,247,268,287,307,329,348,367,388,408,429,447,467,487,508,529,547,567,587,609,628,647,669,687,708,727,749,768,788,808,829,848,867,888,909,929,948,967,988,1007,1027,1048,1068,1087,1108,1128,1148,1168,1187,1207,1227,1248,1268,1287,1307,1327],"xSR":741.5,"ySR":449.15000000000003,"xT1":424.9,"yT1":0,"xT2":1058.1,"yT2":0,"toosoon":0,"cond_shown":"randomdotsizeEA","ratio_trial":500,"smaller_num":"2","larger_num":"4","correct_side":2,"subjID":"paulajulianapuentesayala13","gender":"1","age":"10","school":"6"},{"start_time":1551794748629,"click_time":1551794749511,"finger_time":1551794749230,"fix_duration":596.7704926985373,"trial":9,"RT":601,"MT":281,"sideResp":2,"stimulus":"img/500/equaldotanddens/R/14_Ratio_500_L_5_R_10.png","xmouse":[802,802,802,802,802,802,802,802,802,802,802,802,802,802,802,802,802,802,802,802,802,802,802,802,802,802,802,808,824,840,859,895,913,932,955,1016,1046,1075,1097,1109,1111,1111,1111,1112,1116],"ymouse":[513,513,513,513,513,513,513,513,513,513,513,513,513,513,513,513,513,513,513,513,513,513,513,513,513,513,513,504,483,461,432,356,315,280,251,181,154,133,117,107,103,102,102,102,99],"timestamp_mouse":[10,32,42,61,82,101,121,143,161,182,202,223,241,262,283,301,322,342,361,381,401,421,442,462,483,501,522,541,561,582,601,621,641,661,683,702,721,741,762,781,802,821,842,862,881],"xSR":741.5,"ySR":449.15000000000003,"xT1":424.9,"yT1":0,"xT2":1058.1,"yT2":0,"toosoon":0,"cond_shown":"equaldotanddens","ratio_trial":500,"smaller_num":"5","larger_num":"10","correct_side":2,"subjID":"paulajulianapuentesayala13","gender":"1","age":"10","school":"6"},{"start_time":1551794753674,"click_time":1551794755151,"finger_time":1551794754631,"fix_duration":1061.7594267372817,"trial":10,"RT":957,"MT":520,"sideResp":1,"stimulus":"img/750/randomdotsizeEA/R/4_Ratio_750_L_15_R_20.png","xmouse":[783,783,783,783,783,783,783,783,783,783,783,783,783,783,783,783,783,783,783,783,783,783,783,783,783,783,783,783,784,785,786,786,790,790,790,790,790,790,790,790,790,790,790,790,790,784,774,750,733,708,673,629,570,545,542,542,541,536,527,522,522,522,522,522,522,522,522,522,522,522,522,522,522,482],"ymouse":[492,492,492,492,492,492,492,492,492,492,492,492,492,492,492,492,492,492,492,492,492,492,492,492,492,492,492,491,491,490,489,488,485,485,485,485,485,485,485,485,485,485,485,482,480,473,459,410,371,312,245,179,100,55,46,44,39,25,7,0,0,0,0,0,0,0,0,0,0,0,0,0,0,6],"timestamp_mouse":[18,41,57,77,98,116,137,156,176,197,217,237,257,276,298,317,336,356,376,396,416,436,458,477,497,518,536,557,576,598,616,637,656,678,697,716,736,757,777,797,816,836,856,876,896,917,936,957,976,996,1017,1036,1056,1076,1096,1117,1137,1157,1176,1197,1217,1236,1257,1277,1297,1317,1337,1356,1378,1397,1416,1437,1456,1476],"xSR":741.5,"ySR":449.15000000000003,"xT1":424.9,"yT1":0,"xT2":1058.1,"yT2":0,"toosoon":0,"cond_shown":"randomdotsizeEA","ratio_trial":750,"smaller_num":"15","larger_num":"20","correct_side":2,"subjID":"paulajulianapuentesayala13","gender":"1","age":"10","school":"6"},{"start_time":1551794757417,"click_time":1551794759231,"finger_time":1551794759031,"fix_duration":1365.099656545463,"trial":11,"RT":1614,"MT":200,"sideResp":1,"stimulus":"img/750/randomdotsizeEA/R/7_Ratio_750_L_3_R_4.png","xmouse":[768,769,769,769,769,769,769,769,769,769,769,769,769,769,769,769,770,772,777,784,794,796,799,800,800,800,800,800,800,800,800,800,800,800,800,800,800,800,799,799,799,799,799,799,799,799,798,798,798,798,798,798,798,798,798,798,798,796,796,795,795,795,795,795,795,795,795,795,795,795,795,795,795,795,795,793,787,778,767,751,710,686,667,657,648,617,598,575,554,539,517],"ymouse":[507,507,507,507,507,507,507,507,506,506,505,504,504,504,504,504,503,498,490,481,465,459,457,456,456,456,456,456,456,456,456,456,456,456,456,457,461,464,466,466,468,468,468,469,471,472,473,474,477,479,484,486,488,490,491,493,496,500,505,515,525,543,545,545,545,545,545,545,545,545,545,545,544,544,543,534,525,512,493,467,393,359,327,304,283,211,182,152,125,104,74],"timestamp_mouse":[14,33,53,73,93,113,133,153,173,194,214,233,254,273,294,313,334,353,374,394,414,434,454,474,494,514,533,554,575,594,614,633,655,674,693,713,733,753,773,794,813,835,854,873,894,913,935,953,973,994,1014,1033,1053,1073,1094,1113,1133,1153,1174,1194,1214,1233,1255,1273,1294,1313,1334,1354,1373,1394,1413,1433,1454,1473,1494,1514,1534,1553,1573,1594,1614,1635,1653,1674,1694,1714,1734,1753,1774,1794,1814],"xSR":741.5,"ySR":449.15000000000003,"xT1":424.9,"yT1":0,"xT2":1058.1,"yT2":0,"toosoon":0,"cond_shown":"randomdotsizeEA","ratio_trial":750,"smaller_num":"3","larger_num":"4","correct_side":2,"subjID":"paulajulianapuentesayala13","gender":"1","age":"10","school":"6"},{"start_time":1551794760904,"click_time":1551794761731,"finger_time":1551794761550,"fix_duration":552.7326489851819,"trial":12,"RT":646,"MT":181,"sideResp":2,"stimulus":"img/750/randomdotsizeEA/L/1_Ratio_750_L_20_R_15.png","xmouse":[765,765,765,765,765,765,765,765,765,765,765,765,765,765,765,765,765,765,765,765,765,765,765,765,765,765,765,765,770,770,776,793,848,872,895,914,947,963,986,1005,1028,1085],"ymouse":[509,509,509,509,509,509,509,509,509,509,509,509,509,509,509,509,509,509,509,509,509,509,509,509,509,509,509,509,506,505,498,477,401,366,334,305,244,223,200,183,158,96],"timestamp_mouse":[8,44,47,67,88,106,126,146,166,186,206,226,247,268,287,306,327,346,367,386,406,426,446,467,486,506,527,546,567,587,607,626,646,666,687,707,727,746,767,787,806,827],"xSR":741.5,"ySR":449.15000000000003,"xT1":424.9,"yT1":0,"xT2":1058.1,"yT2":0,"toosoon":0,"cond_shown":"randomdotsizeEA","ratio_trial":750,"smaller_num":"15","larger_num":"20","correct_side":1,"subjID":"paulajulianapuentesayala13","gender":"1","age":"10","school":"6"},{"start_time":1551794766046,"click_time":1551794767050,"finger_time":1551794766710,"fix_duration":1254.033601939951,"trial":13,"RT":664,"MT":340,"sideResp":1,"stimulus":"img/250/equaldotanddens/L/2_Ratio_250_L_16_R_4.png","xmouse":[814,815,816,817,817,818,818,818,818,818,818,818,818,818,818,818,818,818,818,818,818,818,818,818,818,818,818,818,818,815,799,793,786,765,723,685,654,627,608,574,561,556,553,552,540,533,532,531,530,529,524],"ymouse":[524,524,524,524,523,523,523,523,523,523,523,523,523,523,523,523,523,523,523,523,523,523,523,523,523,523,523,520,519,517,502,491,475,432,342,279,225,185,153,107,91,75,65,52,39,37,36,36,36,39,40],"timestamp_mouse":[10,33,44,64,86,104,124,145,164,184,206,224,244,265,284,306,324,344,364,385,404,424,444,464,485,504,524,546,564,584,605,625,645,664,685,704,724,745,765,785,804,825,845,866,885,905,924,945,965,985,1004],"xSR":741.5,"ySR":449.15000000000003,"xT1":424.9,"yT1":0,"xT2":1058.1,"yT2":0,"toosoon":0,"cond_shown":"equaldotanddens","ratio_trial":250,"smaller_num":"4","larger_num":"16","correct_side":1,"subjID":"paulajulianapuentesayala13","gender":"1","age":"10","school":"6"},{"start_time":1551794768284,"click_time":1551794770792,"finger_time":1551794770311,"fix_duration":250,"trial":14,"RT":2027,"MT":481,"sideResp":2,"stimulus":"img/750/equaldotanddens/R/11_Ratio_750_L_12_R_16.png","xmouse":[784,784,784,784,784,784,784,784,784,784,784,784,784,785,785,785,785,785,785,785,785,785,785,785,785,785,785,785,785,785,785,785,785,785,785,785,786,786,786,786,786,786,786,786,786,786,786,786,786,786,786,786,786,786,786,786,786,786,786,786,786,786,786,786,786,786,786,786,786,786,786,786,786,786,786,786,786,786,786,786,786,786,786,786,786,786,786,786,786,786,788,789,790,791,792,792,793,801,807,817,828,843,864,919,940,963,978,1006,1019,1026,1035,1045,1055,1051,1051,1054,1054,1054,1054,1054,1054,1054,1054,1055,1056,1060],"ymouse":[509,509,509,509,509,509,509,509,509,509,509,510,510,512,512,512,512,512,512,512,512,512,512,512,512,512,512,512,512,512,512,512,512,512,512,512,512,512,512,512,512,512,512,512,512,512,512,512,512,512,512,512,512,512,512,512,512,512,512,512,512,512,512,512,512,512,512,512,512,512,512,512,512,512,512,512,512,512,512,512,512,512,512,512,512,512,512,512,512,512,512,511,510,509,508,507,507,499,490,478,465,443,414,342,313,283,255,207,186,167,151,129,105,98,91,85,84,84,84,84,84,84,84,84,83,81],"timestamp_mouse":[8,33,47,67,87,108,126,146,168,186,206,227,246,267,287,307,326,346,366,386,406,426,447,466,487,506,526,546,566,586,607,626,646,666,688,707,727,747,766,787,806,827,846,867,886,906,926,947,967,986,1007,1027,1047,1067,1086,1107,1126,1146,1167,1186,1208,1227,1246,1266,1286,1306,1327,1346,1366,1388,1406,1426,1446,1467,1486,1507,1527,1547,1566,1586,1608,1626,1646,1667,1686,1706,1727,1747,1767,1787,1807,1826,1846,1868,1887,1906,1927,1947,1966,1986,2007,2027,2046,2066,2086,2107,2126,2147,2166,2187,2207,2227,2247,2267,2286,2307,2328,2347,2366,2387,2407,2427,2448,2466,2486,2507],"xSR":741.5,"ySR":449.15000000000003,"xT1":424.9,"yT1":0,"xT2":1058.1,"yT2":0,"toosoon":0,"cond_shown":"equaldotanddens","ratio_trial":750,"smaller_num":"12","larger_num":"16","correct_side":2,"subjID":"paulajulianapuentesayala13","gender":"1","age":"10","school":"6"},{"start_time":1551794773310,"click_time":1551794775010,"finger_time":1551794774811,"fix_duration":1459.242951121342,"trial":15,"RT":1501,"MT":199,"sideResp":1,"stimulus":"img/750/equaldotsize/L/8_Ratio_750_L_4_R_3.png","xmouse":[789,789,789,789,789,789,789,789,789,791,791,791,791,791,791,791,791,791,791,791,791,791,791,791,791,791,791,791,791,791,791,791,791,791,791,791,791,791,791,791,791,791,791,791,791,791,791,789,786,781,776,773,773,773,773,773,773,773,773,773,773,773,773,773,773,773,773,773,773,773,773,773,773,773,771,766,731,705,672,640,605,533,505,484,473,466],"ymouse":[498,498,498,498,498,498,498,498,498,498,498,498,498,498,498,498,498,498,498,498,498,498,498,498,498,498,498,498,498,498,498,498,498,498,498,498,498,498,498,498,498,498,498,498,498,498,495,484,474,465,458,455,455,455,455,455,455,455,455,455,455,455,455,455,455,455,455,455,455,455,455,455,455,455,453,444,398,364,329,296,263,181,148,119,100,87],"timestamp_mouse":[9,34,41,61,81,101,121,141,161,180,200,221,242,260,282,300,321,340,360,380,402,420,440,460,481,501,520,540,560,580,600,621,640,661,681,701,721,740,760,780,801,820,840,860,882,900,921,940,962,981,1000,1021,1041,1061,1080,1101,1122,1141,1161,1180,1201,1221,1241,1260,1282,1301,1321,1341,1360,1381,1400,1422,1440,1460,1480,1501,1521,1540,1560,1580,1601,1621,1640,1660,1681,1700],"xSR":741.5,"ySR":449.15000000000003,"xT1":424.9,"yT1":0,"xT2":1058.1,"yT2":0,"toosoon":0,"cond_shown":"equaldotsize","ratio_trial":750,"smaller_num":"3","larger_num":"4","correct_side":1,"subjID":"paulajulianapuentesayala13","gender":"1","age":"10","school":"6"},{"start_time":1551794776262,"click_time":1551794777752,"finger_time":1551794777511,"fix_duration":250,"trial":16,"RT":1249,"MT":241,"sideResp":2,"stimulus":"img/900/equaldotsize/L/10_Ratio_900_L_20_R_18.png","xmouse":[783,783,783,783,783,783,783,783,783,783,783,783,783,783,783,783,783,783,783,783,783,783,783,783,783,783,783,783,783,783,783,783,783,783,783,783,783,783,784,786,791,796,800,802,802,802,802,802,802,802,802,802,802,802,802,802,802,802,802,803,806,813,827,886,909,930,951,964,973,998,1016,1035,1048,1058,1071],"ymouse":[504,504,504,504,504,504,504,504,504,504,504,504,504,504,504,504,504,504,504,504,504,504,504,504,504,504,504,504,504,504,504,504,504,504,504,504,503,502,499,495,488,482,476,473,473,473,473,473,473,473,473,473,473,473,473,473,473,473,473,473,469,463,449,380,352,323,294,277,259,214,192,165,144,123,91],"timestamp_mouse":[10,36,48,70,88,108,129,149,168,188,210,229,248,268,288,308,329,349,369,390,408,429,450,469,488,509,530,548,568,588,610,629,648,669,688,708,729,748,769,789,808,828,850,868,889,910,928,949,969,989,1010,1028,1049,1069,1090,1108,1128,1149,1168,1188,1210,1229,1249,1269,1288,1308,1330,1349,1368,1388,1408,1428,1448,1468,1489],"xSR":741.5,"ySR":449.15000000000003,"xT1":424.9,"yT1":0,"xT2":1058.1,"yT2":0,"toosoon":0,"cond_shown":"equaldotsize","ratio_trial":900,"smaller_num":"18","larger_num":"20","correct_side":1,"subjID":"paulajulianapuentesayala13","gender":"1","age":"10","school":"6"},{"start_time":1551794779134,"click_time":1551794780270,"finger_time":1551794780050,"fix_duration":381.7950375297385,"trial":17,"RT":916,"MT":220,"sideResp":1,"stimulus":"img/900/equaldotanddens/L/10_Ratio_900_L_20_R_18.png","xmouse":[798,798,798,798,798,798,798,798,798,798,798,798,798,798,798,798,798,798,798,798,798,798,798,798,798,798,798,798,798,798,798,798,798,798,798,798,798,798,798,798,798,798,798,794,780,726,672,629,593,578,577,577,574,570,556,538,520],"ymouse":[505,505,505,505,505,505,505,505,505,505,505,505,505,505,505,505,505,505,505,505,505,505,505,505,505,505,505,505,505,505,505,505,505,505,505,505,505,505,505,505,505,505,502,494,472,389,321,268,218,187,180,173,166,158,130,108,86],"timestamp_mouse":[32,36,56,77,96,117,137,156,177,196,217,237,256,277,298,318,336,357,377,396,416,436,457,476,498,517,537,558,577,597,618,637,657,677,697,717,737,757,776,796,817,837,856,876,896,916,937,957,977,997,1016,1036,1056,1077,1097,1116,1136],"xSR":741.5,"ySR":449.15000000000003,"xT1":424.9,"yT1":0,"xT2":1058.1,"yT2":0,"toosoon":0,"cond_shown":"equaldotanddens","ratio_trial":900,"smaller_num":"18","larger_num":"20","correct_side":1,"subjID":"paulajulianapuentesayala13","gender":"1","age":"10","school":"6"},{"start_time":1551794781342,"click_time":1551794783751,"finger_time":1551794783192,"fix_duration":250,"trial":18,"RT":1850,"MT":559,"sideResp":2,"stimulus":"img/500/equaldotsize/R/3_Ratio_500_L_10_R_20.png","xmouse":[793,793,793,793,793,793,793,793,793,793,793,793,793,793,793,793,793,793,794,794,795,795,795,795,795,795,795,795,795,795,795,795,795,795,795,795,795,795,795,795,795,795,795,795,795,795,795,795,795,795,795,795,795,795,795,795,795,795,795,795,795,795,795,795,795,795,795,795,795,795,795,795,795,795,795,795,795,795,795,795,795,795,795,795,795,795,795,795,799,806,817,831,847,865,919,947,971,986,995,1002,1002,1002,1006,1003,1033,1049,1055,1059,1059,1059,1059,1061,1061,1062,1065,1066,1069,1071,1072,1072,1076],"ymouse":[496,496,496,496,496,496,496,496,496,496,496,496,496,496,496,496,496,497,498,499,501,502,502,502,502,502,502,502,502,502,502,502,502,502,502,502,502,502,502,502,502,502,502,502,502,502,502,502,502,502,502,502,502,502,502,502,502,502,502,502,502,502,502,502,502,502,502,502,502,502,502,502,502,502,502,502,502,502,502,502,502,502,502,502,502,502,502,502,500,489,475,461,441,415,350,315,281,252,226,198,194,192,188,189,149,130,119,113,111,111,111,111,111,111,108,106,105,103,102,100,89],"timestamp_mouse":[8,39,49,70,88,108,128,148,168,190,209,228,248,269,288,309,330,348,368,388,410,428,449,469,488,509,529,549,568,589,608,628,648,669,689,708,728,749,768,789,808,828,849,869,889,909,928,949,968,988,1008,1028,1049,1070,1088,1108,1129,1148,1169,1188,1209,1228,1249,1268,1289,1308,1328,1348,1369,1389,1408,1429,1448,1470,1488,1508,1529,1550,1568,1590,1608,1630,1649,1669,1688,1708,1728,1748,1769,1789,1809,1828,1850,1869,1889,1908,1928,1948,1968,1989,2008,2028,2050,2069,2089,2108,2129,2148,2170,2189,2209,2228,2250,2269,2289,2308,2329,2348,2369,2389,2408],"xSR":741.5,"ySR":449.15000000000003,"xT1":424.9,"yT1":0,"xT2":1058.1,"yT2":0,"toosoon":0,"cond_shown":"equaldotsize","ratio_trial":500,"smaller_num":"10","larger_num":"20","correct_side":2,"subjID":"paulajulianapuentesayala13","gender":"1","age":"10","school":"6"},{"start_time":1551794785939,"click_time":1551794787631,"finger_time":1551794787190,"fix_duration":1385.4771145703835,"trial":19,"RT":1251,"MT":441,"sideResp":2,"stimulus":"img/750/equaldotsize/R/12_Ratio_750_L_3_R_4.png","xmouse":[776,776,776,776,776,776,776,776,776,776,776,776,776,776,776,776,776,776,776,776,776,776,776,776,776,776,776,776,776,776,776,776,776,776,776,776,776,776,776,776,776,776,776,776,776,776,776,776,776,776,776,776,776,776,776,776,776,776,776,777,780,782,782,782,806,847,889,927,956,986,992,999,1010,1018,1025,1029,1030,1030,1030,1030,1032,1036,1046,1057,1076],"ymouse":[486,486,486,486,486,486,486,486,486,486,486,486,486,486,486,486,486,486,486,486,486,486,486,486,486,486,486,486,486,486,486,486,486,486,486,486,486,486,486,486,486,486,486,486,486,486,486,486,486,486,486,486,486,486,486,486,486,486,486,499,522,544,565,572,554,513,458,403,358,301,292,283,269,258,243,225,223,219,217,208,197,172,139,103,57],"timestamp_mouse":[11,38,53,73,91,111,132,152,171,191,213,231,252,271,292,313,332,351,372,391,411,432,452,472,493,512,532,551,573,592,612,632,652,671,692,712,732,752,773,792,811,833,851,872,892,913,932,952,972,991,1012,1031,1051,1071,1093,1112,1132,1152,1172,1191,1212,1231,1251,1271,1291,1311,1331,1351,1371,1392,1411,1431,1452,1472,1492,1512,1531,1551,1571,1592,1611,1631,1652,1671,1692],"xSR":741.5,"ySR":449.15000000000003,"xT1":424.9,"yT1":0,"xT2":1058.1,"yT2":0,"toosoon":0,"cond_shown":"equaldotsize","ratio_trial":750,"smaller_num":"3","larger_num":"4","correct_side":2,"subjID":"paulajulianapuentesayala13","gender":"1","age":"10","school":"6"},{"start_time":1551794789202,"click_time":1551794790491,"finger_time":1551794790250,"fix_duration":250,"trial":20,"RT":1048,"MT":241,"sideResp":1,"stimulus":"img/900/equaldotsize/R/6_Ratio_900_L_9_R_10.png","xmouse":[762,762,762,762,762,762,762,762,762,762,762,762,762,762,762,762,762,762,762,762,762,762,762,762,762,762,762,762,762,762,762,762,762,762,762,762,762,762,762,762,762,762,762,762,762,762,762,762,762,762,762,758,739,725,706,690,664,654,644,631,614,578,552,534,523],"ymouse":[510,510,510,510,510,510,510,510,510,510,510,510,510,510,510,510,510,510,510,511,511,512,512,512,512,512,512,512,512,512,512,512,512,512,512,512,512,512,512,512,512,512,512,512,512,512,512,512,512,512,503,494,455,429,399,373,304,276,245,217,180,109,80,55,37],"timestamp_mouse":[11,34,48,68,89,108,128,148,168,188,208,228,248,269,289,309,329,349,368,389,410,428,449,468,489,508,529,550,569,588,608,629,648,669,690,710,728,749,768,788,808,828,848,868,888,910,929,950,970,989,1008,1028,1048,1068,1088,1108,1129,1148,1168,1188,1209,1229,1248,1269,1289],"xSR":741.5,"ySR":449.15000000000003,"xT1":424.9,"yT1":0,"xT2":1058.1,"yT2":0,"toosoon":0,"cond_shown":"equaldotsize","ratio_trial":900,"smaller_num":"9","larger_num":"10","correct_side":2,"subjID":"paulajulianapuentesayala13","gender":"1","age":"10","school":"6"},{"start_time":1551794791926,"click_time":1551794794051,"finger_time":1551794791950,"fix_duration":274.13226925453426,"trial":21,"RT":24,"MT":2101,"sideResp":2,"stimulus":"img/500/equaldotanddens/R/3_Ratio_500_L_10_R_20.png","xmouse":[812,807,805,805,803,803,803,803,803,803,803,802,802,802,802,802,802,802,802,802,802,802,802,802,802,802,802,802,800,796,793,789,788,788,788,788,788,788,788,788,788,788,788,788,788,788,788,788,788,788,788,788,788,788,788,788,788,788,788,788,788,788,788,788,788,788,788,788,788,788,788,788,788,788,788,788,788,788,788,788,789,790,792,793,793,793,794,795,800,807,820,855,877,895,911,924,928,932,938,954,1013,1040,1061,1074,1087,1103,1109],"ymouse":[538,550,554,554,560,561,561,561,561,561,561,562,562,562,562,562,562,562,562,562,561,560,559,558,555,550,545,538,531,522,515,503,502,502,502,502,502,502,502,502,502,502,502,502,502,502,502,502,502,502,502,502,502,502,502,502,502,502,502,502,502,502,501,500,499,495,494,493,492,492,492,492,492,492,492,492,492,492,492,491,486,483,477,472,467,462,454,451,445,438,422,385,362,338,317,296,289,283,276,266,213,187,163,142,125,105,96],"timestamp_mouse":[5,24,54,65,85,105,125,144,164,185,204,225,245,264,284,305,324,344,365,384,405,425,444,466,484,505,524,544,566,584,604,625,645,666,686,705,725,745,764,784,805,825,844,864,885,904,924,945,964,985,1004,1024,1044,1064,1084,1104,1125,1144,1165,1185,1205,1225,1244,1264,1286,1305,1325,1344,1364,1386,1404,1425,1444,1466,1484,1504,1525,1544,1565,1585,1604,1624,1644,1664,1686,1705,1724,1745,1765,1784,1805,1824,1844,1865,1884,1905,1924,1944,1964,1985,2005,2024,2044,2066,2086,2105,2125],"xSR":741.5,"ySR":449.15000000000003,"xT1":424.9,"yT1":0,"xT2":1058.1,"yT2":0,"toosoon":0,"cond_shown":"equaldotanddens","ratio_trial":500,"smaller_num":"10","larger_num":"20","correct_side":2,"subjID":"paulajulianapuentesayala13","gender":"1","age":"10","school":"6"},{"start_time":1551794796102,"click_time":1551794797311,"finger_time":1551794797151,"fix_duration":1030.1532448044213,"trial":22,"RT":1049,"MT":160,"sideResp":2,"stimulus":"img/500/randomdotsizeEA/R/9_Ratio_500_L_2_R_4.png","xmouse":[772,772,772,772,772,772,772,772,772,772,772,772,772,772,772,772,772,772,772,772,772,774,774,774,774,774,774,774,774,773,773,772,772,772,772,772,772,772,771,771,768,765,764,764,764,764,764,764,767,773,792,808,868,892,921,948,1017,1028,1043,1053,1062],"ymouse":[513,513,513,513,513,513,513,513,513,513,513,513,513,513,513,513,513,513,513,513,513,506,495,487,480,476,474,472,471,467,464,458,458,458,458,458,458,458,460,464,474,496,497,497,497,497,496,496,496,498,498,490,430,393,355,308,180,157,124,95,74],"timestamp_mouse":[9,33,50,69,88,110,128,149,169,188,210,228,249,268,288,309,328,349,370,388,408,428,449,468,489,509,529,548,568,588,610,629,649,668,689,709,730,748,768,789,810,829,849,868,889,908,929,949,970,989,1008,1028,1049,1068,1089,1132,1134,1148,1168,1188,1209],"xSR":741.5,"ySR":449.15000000000003,"xT1":424.9,"yT1":0,"xT2":1058.1,"yT2":0,"toosoon":0,"cond_shown":"randomdotsizeEA","ratio_trial":500,"smaller_num":"2","larger_num":"4","correct_side":2,"subjID":"paulajulianapuentesayala13","gender":"1","age":"10","school":"6"},{"start_time":1551794798971,"click_time":1551794799670,"finger_time":1551794799470,"fix_duration":679.5449761282315,"trial":23,"RT":499,"MT":200,"sideResp":2,"stimulus":"img/900/equaldotanddens/L/4_Ratio_900_L_20_R_18.png","xmouse":[791,791,791,791,791,791,791,791,791,791,791,791,791,791,791,791,791,791,791,791,791,790,790,790,790,793,802,816,860,879,906,937,972,1049,1079,1100],"ymouse":[507,507,507,507,507,507,507,507,507,507,507,507,507,507,507,507,507,507,498,495,490,488,483,478,461,444,423,399,341,314,289,257,219,140,105,75],"timestamp_mouse":[1,19,41,60,79,99,119,140,159,179,199,220,239,260,280,299,320,339,359,379,399,420,440,460,479,499,519,540,560,579,599,620,639,660,679,699],"xSR":741.5,"ySR":449.15000000000003,"xT1":424.9,"yT1":0,"xT2":1058.1,"yT2":0,"toosoon":0,"cond_shown":"equaldotanddens","ratio_trial":900,"smaller_num":"18","larger_num":"20","correct_side":1,"subjID":"paulajulianapuentesayala13","gender":"1","age":"10","school":"6"},{"start_time":1551794804439,"click_time":1551794805631,"finger_time":1551794805331,"fix_duration":706.6287117594064,"trial":24,"RT":892,"MT":300,"sideResp":2,"stimulus":"img/250/randomdotsizeEA/R/13_Ratio_250_L_2_R_8.png","xmouse":[783,783,783,783,783,783,783,783,783,783,783,783,783,783,783,783,783,783,783,783,783,783,783,783,783,783,783,783,783,783,783,783,783,783,783,783,783,783,783,783,783,783,786,803,862,989,1034,1069,1094,1107,1107,1107,1111,1113,1126,1127,1129,1129,1129,1125],"ymouse":[511,511,511,511,511,511,511,511,511,511,511,511,511,511,511,511,511,511,511,511,511,511,511,511,511,511,511,511,511,511,511,511,511,511,511,511,511,511,511,511,511,510,510,505,476,411,382,352,322,259,237,213,193,176,143,135,128,123,112,93],"timestamp_mouse":[12,42,51,73,92,113,131,152,172,191,212,232,253,271,292,311,331,351,372,391,412,432,452,471,492,511,532,551,571,591,612,631,651,672,691,713,731,752,772,791,812,831,851,871,892,913,931,952,971,992,1011,1032,1051,1071,1092,1111,1131,1152,1171,1191],"xSR":741.5,"ySR":449.15000000000003,"xT1":424.9,"yT1":0,"xT2":1058.1,"yT2":0,"toosoon":0,"cond_shown":"randomdotsizeEA","ratio_trial":250,"smaller_num":"2","larger_num":"8","correct_side":2,"subjID":"paulajulianapuentesayala13","gender":"1","age":"10","school":"6"},{"start_time":1551794806702,"click_time":1551794808111,"finger_time":1551794807611,"fix_duration":250,"trial":25,"RT":909,"MT":500,"sideResp":1,"stimulus":"img/900/randomdotsizeEA/L/1_Ratio_900_L_10_R_9.png","xmouse":[786,786,786,786,786,786,786,786,786,786,786,786,786,786,786,786,786,786,786,786,786,786,786,786,786,786,786,786,786,786,786,786,786,786,786,786,786,786,786,786,786,786,779,771,759,747,733,731,730,726,720,702,698,690,678,655,596,569,547,563,563,551,537,534,529,525,521,520,519,517,516],"ymouse":[510,510,510,510,510,510,510,510,510,510,510,510,510,510,510,510,510,510,510,510,510,510,510,510,510,510,510,510,510,510,510,510,510,510,510,510,510,510,510,510,510,509,496,480,459,436,397,385,373,360,347,316,307,298,284,255,195,167,145,162,162,150,130,126,119,114,108,106,104,103,99],"timestamp_mouse":[8,29,48,68,89,109,129,148,169,189,208,228,248,270,288,308,330,348,369,390,409,429,448,468,489,508,530,549,569,589,609,630,649,668,690,708,728,749,769,789,808,828,849,868,888,909,930,948,968,988,1009,1028,1048,1068,1090,1108,1129,1148,1168,1189,1209,1228,1249,1270,1288,1309,1328,1348,1369,1390,1409],"xSR":741.5,"ySR":449.15000000000003,"xT1":424.9,"yT1":0,"xT2":1058.1,"yT2":0,"toosoon":0,"cond_shown":"randomdotsizeEA","ratio_trial":900,"smaller_num":"9","larger_num":"10","correct_side":1,"subjID":"paulajulianapuentesayala13","gender":"1","age":"10","school":"6"},{"start_time":1551794809682,"click_time":1551794810471,"finger_time":1551794810331,"fix_duration":671.5641682490887,"trial":26,"RT":649,"MT":140,"sideResp":1,"stimulus":"img/250/equaldotsize/L/5_Ratio_250_L_24_R_6.png","xmouse":[781,781,781,781,781,781,781,781,781,781,781,781,781,781,781,781,781,781,781,781,781,781,781,781,781,781,781,781,781,781,779,761,717,683,653,631,614,562,538,520],"ymouse":[514,514,514,514,514,514,514,514,514,514,514,514,514,514,514,514,514,514,514,514,514,514,514,514,514,514,514,514,514,513,506,468,389,344,295,251,209,95,60,39],"timestamp_mouse":[8,37,49,70,89,108,128,148,168,188,208,228,248,268,289,309,328,348,368,388,410,429,448,468,488,509,528,548,568,589,609,629,649,668,688,708,728,749,768,789],"xSR":741.5,"ySR":449.15000000000003,"xT1":424.9,"yT1":0,"xT2":1058.1,"yT2":0,"toosoon":0,"cond_shown":"equaldotsize","ratio_trial":250,"smaller_num":"6","larger_num":"24","correct_side":1,"subjID":"paulajulianapuentesayala13","gender":"1","age":"10","school":"6"},{"start_time":1551794812425,"click_time":1551794813450,"finger_time":1551794813050,"fix_duration":832.3679565195791,"trial":27,"RT":625,"MT":400,"sideResp":2,"stimulus":"img/250/equaldotsize/R/4_Ratio_250_L_3_R_12.png","xmouse":[792,790,790,790,789,789,789,789,789,789,789,789,789,789,789,789,789,789,789,789,789,789,789,789,788,788,788,788,788,790,807,821,837,860,882,931,948,962,976,986,983,983,983,983,984,989,1010,1015,1021,1028,1056,1076],"ymouse":[498,498,498,498,498,498,498,498,498,498,498,498,498,498,497,497,497,496,496,496,496,496,496,496,496,496,496,493,492,487,466,447,423,394,354,241,207,174,152,141,142,139,137,134,131,125,108,104,100,94,77,67],"timestamp_mouse":[12,36,45,65,85,106,127,145,165,186,205,225,245,265,286,305,325,347,365,386,405,425,445,465,486,506,526,545,566,586,606,625,646,665,685,706,726,745,765,785,805,825,845,865,886,905,926,945,967,986,1006,1025],"xSR":741.5,"ySR":449.15000000000003,"xT1":424.9,"yT1":0,"xT2":1058.1,"yT2":0,"toosoon":0,"cond_shown":"equaldotsize","ratio_trial":250,"smaller_num":"3","larger_num":"12","correct_side":2,"subjID":"paulajulianapuentesayala13","gender":"1","age":"10","school":"6"},{"start_time":1551794815980,"click_time":1551794817411,"finger_time":1551794816911,"fix_duration":388.96771043799595,"trial":28,"RT":931,"MT":500,"sideResp":2,"stimulus":"img/900/equaldotanddens/R/13_Ratio_900_L_18_R_20.png","xmouse":[817,817,817,817,817,817,815,812,812,812,812,812,811,811,811,810,810,808,807,806,804,803,803,803,803,803,803,803,803,803,803,803,803,803,803,803,803,803,802,802,801,799,794,792,790,788,788,787,787,787,787,787,799,812,826,841,860,903,922,944,968,991,1022,1029,1034,1036,1038,1044,1047,1052,1057,1064],"ymouse":[482,482,482,482,482,482,482,482,482,482,482,482,482,481,481,481,481,479,477,476,475,474,474,474,474,474,474,474,474,474,474,474,474,474,474,474,474,474,473,472,471,468,462,459,456,454,449,439,437,435,432,430,414,397,378,357,333,265,228,189,157,125,69,49,36,26,20,14,13,12,12,12],"timestamp_mouse":[10,34,51,70,90,110,130,151,170,191,211,231,250,271,291,311,330,350,370,391,410,430,450,470,491,510,531,550,572,590,611,630,650,670,690,712,730,750,771,790,811,830,851,870,890,911,931,950,970,990,1010,1030,1050,1070,1091,1110,1130,1150,1170,1190,1211,1230,1251,1270,1290,1310,1330,1351,1370,1390,1411,1430],"xSR":741.5,"ySR":449.15000000000003,"xT1":424.9,"yT1":0,"xT2":1058.1,"yT2":0,"toosoon":0,"cond_shown":"equaldotanddens","ratio_trial":900,"smaller_num":"18","larger_num":"20","correct_side":2,"subjID":"paulajulianapuentesayala13","gender":"1","age":"10","school":"6"},{"start_time":1551794822227,"click_time":1551794823131,"finger_time":1551794822790,"fix_duration":696.5496266413616,"trial":29,"RT":563,"MT":341,"sideResp":1,"stimulus":"img/750/equaldotsize/L/6_Ratio_750_L_24_R_18.png","xmouse":[783,783,783,783,783,783,783,783,783,783,783,783,783,783,783,783,783,783,783,783,783,783,783,783,783,783,780,774,764,746,694,665,643,623,606,586,580,578,576,571,567,562,561,554,541,518],"ymouse":[483,483,483,483,483,483,483,483,483,483,483,483,483,483,483,483,483,483,483,483,483,483,483,482,481,477,463,453,441,419,350,305,266,221,180,120,110,109,108,108,107,106,106,101,95,86],"timestamp_mouse":[10,34,44,64,85,103,123,143,164,183,204,225,243,264,283,303,324,344,364,383,404,423,443,463,484,503,523,543,563,584,604,623,644,664,683,704,723,743,763,783,803,824,843,864,884,904],"xSR":741.5,"ySR":449.15000000000003,"xT1":424.9,"yT1":0,"xT2":1058.1,"yT2":0,"toosoon":0,"cond_shown":"equaldotsize","ratio_trial":750,"smaller_num":"18","larger_num":"24","correct_side":1,"subjID":"paulajulianapuentesayala13","gender":"1","age":"10","school":"6"},{"start_time":1551794827998,"click_time":1551794829070,"finger_time":1551794828790,"fix_duration":685.4880540646935,"trial":30,"RT":792,"MT":280,"sideResp":1,"stimulus":"img/250/equaldotanddens/L/5_Ratio_250_L_24_R_6.png","xmouse":[796,796,796,796,796,796,796,796,796,796,796,796,796,796,796,796,796,796,796,796,796,796,796,796,796,796,796,796,796,796,796,796,796,796,796,796,796,796,787,779,754,677,633,593,556,531,513,510,508,505,500,482,470,463],"ymouse":[479,479,479,479,479,479,479,479,479,479,479,479,479,479,479,479,479,479,479,479,479,479,479,479,479,479,479,479,479,479,479,479,479,479,479,479,479,479,461,449,422,345,306,275,246,228,211,205,199,190,180,143,117,99],"timestamp_mouse":[12,33,53,72,92,112,133,152,173,192,213,232,252,273,293,312,333,354,372,392,412,432,453,474,493,514,532,553,573,593,613,633,652,673,693,714,732,752,772,792,813,833,852,872,892,912,932,952,972,993,1012,1032,1052,1072],"xSR":741.5,"ySR":449.15000000000003,"xT1":424.9,"yT1":0,"xT2":1058.1,"yT2":0,"toosoon":0,"cond_shown":"equaldotanddens","ratio_trial":250,"smaller_num":"6","larger_num":"24","correct_side":1,"subjID":"paulajulianapuentesayala13","gender":"1","age":"10","school":"6"},{"start_time":1551794830566,"click_time":1551794832112,"finger_time":1551794831371,"fix_duration":535.8450998909035,"trial":31,"RT":805,"MT":741,"sideResp":2,"stimulus":"img/900/equaldotanddens/R/9_Ratio_900_L_18_R_20.png","xmouse":[773,773,773,773,773,773,773,773,773,773,773,773,773,773,773,773,773,773,773,774,774,774,774,774,774,774,774,774,774,774,774,774,774,774,774,774,776,777,785,791,796,806,819,835,781,809,831,851,881,895,910,925,944,993,1019,1040,1058,1071,1090,1093,1097,1099,1100,1103,1105,1105,1105,1105,1107,1107,1107,1107,1107,1109,1110,1115,1120,1126],"ymouse":[507,507,507,506,506,506,506,506,506,506,506,506,506,506,506,506,505,502,501,500,500,500,500,500,500,500,500,500,500,500,500,500,500,500,499,498,495,490,470,457,442,423,402,383,400,370,345,328,292,284,279,272,265,245,233,221,214,209,201,199,198,196,195,190,186,181,179,177,170,166,161,154,146,132,123,112,102,88],"timestamp_mouse":[10,32,45,64,85,104,126,144,164,185,204,225,246,264,285,305,325,344,364,384,404,425,445,464,485,505,525,544,566,585,604,624,644,664,685,705,724,744,764,784,805,824,844,865,884,905,924,945,965,984,1004,1025,1044,1064,1084,1104,1125,1144,1165,1184,1204,1224,1245,1265,1285,1305,1324,1345,1364,1384,1404,1425,1444,1464,1484,1504,1524,1545],"xSR":741.5,"ySR":449.15000000000003,"xT1":424.9,"yT1":0,"xT2":1058.1,"yT2":0,"toosoon":0,"cond_shown":"equaldotanddens","ratio_trial":900,"smaller_num":"18","larger_num":"20","correct_side":2,"subjID":"paulajulianapuentesayala13","gender":"1","age":"10","school":"6"},{"start_time":1551794833583,"click_time":1551794834650,"finger_time":1551794834391,"fix_duration":250,"trial":32,"RT":808,"MT":259,"sideResp":2,"stimulus":"img/500/equaldotanddens/R/6_Ratio_500_L_9_R_18.png","xmouse":[787,787,787,787,787,787,787,787,787,787,787,787,787,787,787,787,787,787,787,787,787,787,787,787,787,787,787,787,787,787,787,787,787,787,787,787,788,790,815,840,867,902,973,1001,1019,1038,1054,1084,1093,1098,1099,1100,1102,1102],"ymouse":[494,494,494,494,494,494,494,494,494,494,494,494,494,494,494,494,494,494,494,494,494,494,494,494,494,494,494,494,494,494,494,494,495,495,495,495,495,495,474,452,426,393,325,293,266,239,213,154,135,125,114,107,101,99],"timestamp_mouse":[10,33,48,67,88,107,129,147,168,189,209,228,249,268,287,308,328,347,367,387,408,428,448,468,488,507,527,547,568,588,608,628,647,667,687,709,728,748,768,787,808,828,848,867,888,907,927,947,967,988,1009,1028,1047,1067],"xSR":741.5,"ySR":449.15000000000003,"xT1":424.9,"yT1":0,"xT2":1058.1,"yT2":0,"toosoon":0,"cond_shown":"equaldotanddens","ratio_trial":500,"smaller_num":"9","larger_num":"18","correct_side":2,"subjID":"paulajulianapuentesayala13","gender":"1","age":"10","school":"6"},{"start_time":1551794836436,"click_time":1551794837850,"finger_time":1551794837530,"fix_duration":884.9639022822495,"trial":33,"RT":1094,"MT":320,"sideResp":1,"stimulus":"img/250/randomdotsizeEA/L/15_Ratio_250_L_12_R_3.png","xmouse":[805,805,805,805,805,805,805,805,805,805,805,805,805,805,805,805,805,805,805,805,805,805,805,805,805,805,805,805,805,805,805,805,805,805,805,805,805,805,805,805,805,805,805,805,805,805,805,805,805,805,805,803,793,774,744,682,654,630,612,580,569,561,551,543,531,528,526,525,519,512,511],"ymouse":[490,490,490,490,490,490,490,490,490,490,490,490,490,490,490,490,490,490,490,490,490,490,490,490,490,490,490,490,489,487,487,487,487,487,487,487,487,487,487,487,487,487,487,487,487,487,487,487,487,487,486,483,469,454,426,350,317,285,258,215,199,183,171,160,139,131,124,117,111,100,99],"timestamp_mouse":[15,34,54,74,94,114,136,155,175,194,214,236,254,275,294,314,335,354,375,394,414,434,454,475,494,514,534,554,575,594,614,635,654,675,695,714,735,755,774,794,814,834,855,874,894,914,934,954,976,995,1015,1034,1055,1074,1094,1114,1134,1155,1175,1196,1214,1235,1254,1275,1295,1314,1334,1355,1374,1395,1414],"xSR":741.5,"ySR":449.15000000000003,"xT1":424.9,"yT1":0,"xT2":1058.1,"yT2":0,"toosoon":0,"cond_shown":"randomdotsizeEA","ratio_trial":250,"smaller_num":"3","larger_num":"12","correct_side":1,"subjID":"paulajulianapuentesayala13","gender":"1","age":"10","school":"6"},{"start_time":1551794839954,"click_time":1551794852432,"finger_time":1551794845571,"fix_duration":1101.467231530516,"trial":34,"RT":5617,"MT":6861,"sideResp":1,"stimulus":"img/250/randomdotsizeEA/L/2_Ratio_250_L_16_R_4.png","xmouse":[810,810,810,810,810,810,810,810,810,810,810,810,810,810,810,810,810,810,810,810,810,810,810,810,810,810,810,810,810,810,810,810,810,810,810,810,810,810,810,810,810,810,810,810,810,810,810,810,810,810,810,810,810,810,810,810,810,810,810,810,810,810,810,810,810,810,810,810,810,810,810,810,810,810,810,810,810,810,810,810,810,810,810,810,810,810,810,810,810,810,810,810,810,810,810,810,810,810,810,810,810,810,810,810,810,810,810,810,810,810,810,810,810,810,810,810,810,810,810,810,810,810,810,810,810,810,810,810,810,810,810,810,810,810,810,810,810,810,810,810,810,810,810,810,810,810,810,810,810,810,810,810,810,810,810,810,810,810,810,810,810,810,810,810,810,810,810,810,810,810,810,810,810,810,810,810,810,810,810,810,810,810,810,810,810,810,810,810,810,810,810,810,810,810,810,810,810,810,810,810,810,810,810,810,810,810,810,810,810,810,810,810,810,810,810,810,810,810,810,810,810,810,810,810,810,810,810,810,810,810,810,810,810,810,810,810,810,810,810,810,810,810,810,810,810,810,810,810,810,810,810,810,810,810,810,810,810,810,810,810,810,810,810,810,810,810,810,810,810,810,810,810,810,810,810,810,810,811,811,806,806,806,806,806,806,806,806,806,806,806,806,806,806,806,806,806,806,806,806,806,806,806,806,806,806,806,806,805,805,805,802,799,796,793,788,788,788,788,787,787,787,787,787,787,787,787,787,787,787,787,787,787,786,784,780,778,778,778,778,778,778,778,778,778,778,778,778,778,778,778,778,778,778,778,778,778,778,778,778,778,778,778,778,778,778,778,778,778,778,778,778,778,778,778,778,778,778,778,778,778,778,778,778,778,778,778,778,778,778,778,778,778,778,778,778,778,778,778,778,778,778,778,778,778,778,778,778,778,778,778,778,778,778,778,778,778,778,778,778,778,778,778,778,778,778,778,778,778,778,778,778,778,767,767,767,767,767,767,767,767,767,767,767,767,767,767,767,767,767,767,767,767,767,767,767,767,767,767,767,767,767,767,767,767,767,767,767,767,767,767,767,767,767,767,767,767,767,767,767,767,767,767,767,767,767,767,767,767,767,767,767,767,767,767,767,767,767,767,767,767,767,767,767,767,767,767,767,767,767,767,767,767,767,767,767,767,767,767,767,767,767,767,767,767,767,767,767,767,767,767,767,767,767,767,767,767,767,767,944,944,944,944,944,944,946,946,946,946,946,946,946,946,946,946,946,946,946,946,946,946,946,946,946,946,946,946,946,946,946,946,946,946,946,946,946,946,946,946,946,946,946,946,946,946,742,739,734,730,729,729,729,729,729,729,729,725,720,709,620,567,511,466,429,393,353,345,345,346,352,355,358,361,367,373,390,401,408,412,412,412,412,415,420,427],"ymouse":[507,507,507,507,507,507,507,507,507,507,507,507,507,507,507,507,507,507,507,507,507,507,507,507,507,507,507,507,507,507,507,507,507,507,507,507,507,507,507,507,507,507,507,507,507,507,507,507,507,507,507,507,507,507,507,507,507,507,507,507,507,507,507,507,507,507,507,507,507,507,507,507,507,507,507,507,507,507,507,507,507,507,507,507,507,507,507,507,507,507,507,507,507,507,507,507,507,507,507,507,507,507,507,507,507,507,507,507,507,507,507,507,507,507,507,507,507,507,507,507,507,507,507,507,507,507,507,507,507,507,507,507,507,507,507,507,507,507,507,507,507,507,507,507,507,507,507,507,507,507,507,507,507,507,507,507,507,507,507,507,507,507,507,507,507,507,507,507,507,507,507,507,507,507,507,507,507,507,507,507,507,507,507,507,507,507,507,507,507,507,507,507,507,507,507,507,507,507,507,507,507,507,507,507,507,507,507,507,507,507,507,507,507,507,507,507,507,507,507,507,507,507,507,507,507,507,507,507,507,507,507,507,507,507,507,507,507,507,507,507,507,507,507,507,507,507,507,507,507,507,507,507,507,507,507,507,507,507,507,507,507,507,507,507,507,507,507,507,507,507,507,507,507,507,507,507,507,513,525,546,550,551,551,551,551,551,551,551,551,551,551,551,551,551,551,551,551,551,551,551,551,551,551,551,551,551,551,548,512,498,487,477,470,463,458,458,458,458,459,462,464,466,468,470,470,470,470,470,470,470,470,470,470,471,472,473,473,473,473,473,473,473,473,473,473,473,473,473,473,473,473,473,473,473,473,473,473,473,473,473,473,473,473,473,473,473,473,473,473,473,473,473,473,473,473,473,473,473,473,473,473,473,473,473,473,473,473,473,473,473,473,473,473,473,473,473,473,473,473,473,473,473,473,473,473,473,473,473,473,473,473,473,473,473,473,473,473,473,473,473,473,473,473,473,473,473,473,473,473,473,473,474,494,494,494,494,494,494,494,494,494,494,494,494,494,494,494,494,494,494,494,494,494,494,494,494,494,494,494,494,494,494,494,494,494,494,494,494,494,494,494,494,494,494,494,494,494,494,494,494,494,494,494,494,494,494,494,494,494,494,494,494,494,494,494,494,494,494,494,494,494,494,494,494,494,494,494,494,494,494,494,494,494,494,494,494,494,494,494,494,494,494,494,494,494,494,494,494,494,494,494,494,494,494,494,494,494,494,278,278,278,278,279,281,285,285,285,285,285,285,285,285,285,285,285,285,285,285,285,285,285,285,285,285,285,285,285,285,285,285,285,285,285,285,285,285,285,285,285,285,285,285,285,285,232,232,232,235,237,237,237,237,238,240,243,246,251,254,260,267,269,269,269,257,222,199,172,147,87,72,59,52,50,45,38,33,31,30,30,30,33,42,48,56],"timestamp_mouse":[17,38,57,77,96,117,138,156,176,198,217,236,257,277,298,317,336,358,377,397,416,438,458,478,498,517,537,557,578,598,618,638,657,676,696,717,737,757,777,797,818,837,856,877,898,916,937,957,978,996,1017,1036,1058,1078,1098,1118,1136,1157,1176,1197,1218,1237,1256,1277,1296,1317,1338,1356,1378,1397,1417,1438,1457,1478,1498,1517,1538,1556,1577,1598,1618,1638,1656,1678,1697,1718,1737,1756,1778,1798,1816,1838,1858,1878,1896,1918,1938,1958,1977,1998,2017,2038,2058,2078,2098,2118,2137,2156,2178,2198,2218,2238,2257,2278,2296,2316,2338,2358,2377,2397,2417,2437,2458,2477,2498,2518,2537,2556,2578,2598,2617,2637,2657,2677,2698,2716,2738,2757,2778,2798,2816,2838,2857,2878,2898,2916,2938,2958,2976,2997,3018,3037,3058,3077,3097,3117,3138,3158,3177,3198,3217,3237,3257,3277,3297,3318,3338,3357,3378,3397,3417,3438,3458,3477,3498,3518,3537,3558,3577,3597,3618,3638,3657,3677,3698,3716,3737,3757,3778,3798,3818,3838,3858,3878,3897,3917,3936,3957,3977,3998,4016,4038,4057,4077,4098,4118,4137,4158,4177,4197,4217,4236,4257,4277,4298,4318,4338,4357,4378,4396,4417,4437,4458,4477,4498,4518,4537,4558,4577,4596,4618,4637,4658,4678,4697,4717,4738,4758,4776,4797,4817,4836,4856,4877,4897,4917,4936,4958,4977,4997,5017,5037,5058,5078,5098,5117,5138,5156,5176,5198,5218,5236,5256,5278,5296,5318,5338,5357,5378,5397,5417,5437,5457,5477,5497,5517,5536,5558,5576,5598,5617,5638,5657,5677,5697,5717,5737,5757,5778,5798,5817,5837,5857,5877,5898,5916,5938,5956,5977,5998,6017,6037,6057,6077,6096,6117,6137,6156,6177,6197,6217,6237,6257,6276,6298,6316,6336,6358,6377,6397,6417,6438,6456,6478,6497,6516,6538,6558,6576,6597,6618,6638,6657,6677,6697,6717,6738,6758,6776,6798,6817,6838,6857,6877,6897,6916,6938,6958,6977,6998,7017,7036,7057,7078,7097,7118,7138,7158,7176,7198,7218,7237,7257,7277,7297,7317,7336,7357,7378,7398,7417,7438,7458,7478,7498,7518,7536,7558,7576,7598,7618,7636,7657,7676,7696,7717,7736,7757,7776,7797,7817,7838,7858,7878,7896,7917,7937,7958,7977,7997,8016,8038,8058,8078,8096,8118,8137,8156,8177,8197,8218,8237,8258,8278,8296,8317,8336,8357,8377,8397,8418,8436,8458,8476,8496,8518,8536,8557,8576,8597,8618,8636,8657,8677,8697,8717,8737,8756,8777,8797,8817,8837,8856,8876,8897,8917,8936,8956,8977,8997,9017,9037,9057,9077,9096,9117,9137,9157,9177,9197,9216,9237,9257,9277,9297,9317,9336,9357,9376,9398,9417,9437,9458,9477,9498,9516,9537,9558,9576,9596,9617,9636,9657,9677,9698,9716,9736,9756,9777,9796,9817,9837,9857,9878,9896,9918,9936,9957,9977,9997,10016,10038,10058,10076,10098,10116,10138,10156,10177,10197,10216,10237,10257,10277,10296,10317,10337,10357,10376,10398,10416,10436,10457,10477,10497,10518,10536,10556,10578,10596,10617,10637,10657,10677,10696,10718,10736,10758,10777,10797,10817,10837,10856,10878,10898,10917,10937,10957,10977,10997,11017,11038,11057,11077,11098,11117,11137,11156,11178,11197,11217,11237,11257,11277,11297,11316,11337,11356,11376,11398,11417,11436,11457,11478,11496,11516,11538,11557,11577,11597,11617,11637,11657,11677,11696,11717,11738,11757,11778,11797,11818,11837,11857,11877,11897,11917,11937,11957,11977,11997,12016,12038,12057,12077,12097,12116,12136,12157,12177,12197,12217,12237,12257,12277,12297,12318,12337,12357,12378,12397,12417,12437,12456,12477],"xSR":741.5,"ySR":449.15000000000003,"xT1":424.9,"yT1":0,"xT2":1058.1,"yT2":0,"toosoon":0,"cond_shown":"randomdotsizeEA","ratio_trial":250,"smaller_num":"4","larger_num":"16","correct_side":1,"subjID":"paulajulianapuentesayala13","gender":"1","age":"10","school":"6"},{"start_time":1551794854447,"click_time":1551794855571,"finger_time":1551794855250,"fix_duration":773.1838852837724,"trial":35,"RT":803,"MT":321,"sideResp":2,"stimulus":"img/250/equaldotsize/R/4_Ratio_250_L_3_R_12.png","xmouse":[790,790,790,790,790,790,790,790,790,790,790,790,790,790,790,790,790,790,790,787,780,771,767,766,766,768,768,768,768,768,768,768,768,768,768,768,768,770,772,827,874,810,849,885,966,990,1004,1012,1019,1019,1019,1019,1019,1021,1040,1051,1059],"ymouse":[510,510,510,510,510,510,510,510,510,510,510,510,510,510,510,510,510,510,509,504,499,499,499,499,499,499,499,499,499,499,499,499,499,499,499,499,499,499,498,459,434,476,440,397,288,254,222,197,179,140,128,121,115,107,86,76,70],"timestamp_mouse":[8,31,43,64,84,104,123,144,164,184,205,223,243,264,284,305,324,344,364,383,405,424,444,464,484,504,523,543,564,585,603,624,644,664,684,704,724,745,764,784,803,824,844,863,885,904,923,944,964,984,1004,1025,1044,1064,1085,1103,1123],"xSR":741.5,"ySR":449.15000000000003,"xT1":424.9,"yT1":0,"xT2":1058.1,"yT2":0,"toosoon":0,"cond_shown":"equaldotsize","ratio_trial":250,"smaller_num":"3","larger_num":"12","correct_side":2,"subjID":"paulajulianapuentesayala13","gender":"1","age":"10","school":"6"},{"start_time":1551794857050,"click_time":1551794857931,"finger_time":1551794857771,"fix_duration":695.8653881245975,"trial":36,"RT":721,"MT":160,"sideResp":1,"stimulus":"img/500/randomdotsizeEA/L/11_Ratio_500_L_12_R_6.png","xmouse":[772,772,772,772,772,772,772,772,772,772,772,772,772,772,773,777,784,789,790,793,795,795,795,795,795,795,795,795,795,795,795,795,794,790,762,743,721,696,673,630,610,592,575,560,516],"ymouse":[535,535,535,535,535,535,533,533,532,532,532,531,530,529,527,524,520,518,517,515,514,514,514,512,507,506,505,505,505,505,505,504,503,499,482,465,445,420,393,319,277,236,194,151,48],"timestamp_mouse":[11,38,42,60,82,102,121,141,161,181,202,221,242,262,281,301,321,342,361,381,402,421,441,461,481,502,521,542,560,582,601,621,641,660,681,700,721,741,761,781,802,820,841,861,881],"xSR":741.5,"ySR":449.15000000000003,"xT1":424.9,"yT1":0,"xT2":1058.1,"yT2":0,"toosoon":0,"cond_shown":"randomdotsizeEA","ratio_trial":500,"smaller_num":"6","larger_num":"12","correct_side":1,"subjID":"paulajulianapuentesayala13","gender":"1","age":"10","school":"6"},{"start_time":1551794859773,"click_time":1551794860891,"finger_time":1551794860611,"fix_duration":661.3305550446812,"trial":37,"RT":838,"MT":280,"sideResp":2,"stimulus":"img/250/equaldotsize/R/10_Ratio_250_L_4_R_16.png","xmouse":[769,769,769,769,769,769,769,769,769,769,769,769,769,769,769,769,769,769,769,769,769,769,769,767,765,765,764,764,764,764,764,764,764,764,764,764,764,764,775,798,827,856,880,926,945,959,971,982,1000,1008,1018,1024,1037,1045,1058,1072],"ymouse":[511,511,511,511,511,511,511,511,511,511,511,511,511,511,511,511,511,511,511,510,510,510,510,510,510,509,509,509,509,509,509,509,509,509,509,509,509,507,505,495,483,468,450,396,364,335,309,284,259,246,222,189,113,78,46,18],"timestamp_mouse":[18,39,59,77,98,119,137,159,178,198,217,238,258,278,298,319,338,358,379,398,418,439,458,478,498,518,538,557,578,598,618,639,658,678,698,718,739,759,778,798,818,838,858,878,898,918,939,958,978,998,1018,1038,1058,1077,1097,1117],"xSR":741.5,"ySR":449.15000000000003,"xT1":424.9,"yT1":0,"xT2":1058.1,"yT2":0,"toosoon":0,"cond_shown":"equaldotsize","ratio_trial":250,"smaller_num":"4","larger_num":"16","correct_side":2,"subjID":"paulajulianapuentesayala13","gender":"1","age":"10","school":"6"},{"start_time":1551794862632,"click_time":1551794863491,"finger_time":1551794863211,"fix_duration":778.8676342081775,"trial":38,"RT":579,"MT":280,"sideResp":1,"stimulus":"img/250/equaldotanddens/L/15_Ratio_250_L_12_R_3.png","xmouse":[777,777,777,777,777,777,777,777,777,777,777,777,777,777,777,777,777,777,777,777,777,777,777,777,777,777,777,775,759,738,684,640,605,584,566,559,557,555,552,541,495,474,465,464],"ymouse":[514,514,514,514,514,514,514,514,514,514,514,514,514,514,514,514,514,514,514,514,514,514,514,514,514,514,514,506,484,457,390,349,313,284,262,240,234,229,220,206,145,115,104,99],"timestamp_mouse":[1,18,49,59,80,99,119,139,159,179,199,220,238,260,280,299,319,339,359,379,398,419,440,459,480,499,519,539,559,579,599,619,639,659,679,699,719,738,759,779,800,818,839,859],"xSR":741.5,"ySR":449.15000000000003,"xT1":424.9,"yT1":0,"xT2":1058.1,"yT2":0,"toosoon":0,"cond_shown":"equaldotanddens","ratio_trial":250,"smaller_num":"3","larger_num":"12","correct_side":1,"subjID":"paulajulianapuentesayala13","gender":"1","age":"10","school":"6"},{"start_time":1551794864783,"click_time":1551794865671,"finger_time":1551794865511,"fix_duration":250,"trial":39,"RT":728,"MT":160,"sideResp":2,"stimulus":"img/900/equaldotsize/L/4_Ratio_900_L_20_R_18.png","xmouse":[802,802,802,802,802,802,802,802,802,802,802,802,802,802,802,802,802,802,802,802,802,802,802,802,802,802,803,807,809,810,813,814,817,821,827,835,843,883,900,919,943,965,1020,1050,1089],"ymouse":[512,512,512,512,512,512,512,512,512,512,512,512,512,512,512,512,512,512,512,512,512,512,512,512,512,512,512,506,504,500,499,497,492,487,479,470,457,396,367,331,294,252,158,107,47],"timestamp_mouse":[11,29,48,68,87,108,129,147,169,188,208,228,248,268,288,307,329,347,369,388,407,427,448,467,487,509,529,548,568,588,608,628,648,668,688,708,728,748,768,787,808,828,848,867,887],"xSR":741.5,"ySR":449.15000000000003,"xT1":424.9,"yT1":0,"xT2":1058.1,"yT2":0,"toosoon":0,"cond_shown":"equaldotsize","ratio_trial":900,"smaller_num":"18","larger_num":"20","correct_side":1,"subjID":"paulajulianapuentesayala13","gender":"1","age":"10","school":"6"},{"start_time":1551794870511,"click_time":1551794871331,"finger_time":1551794871131,"fix_duration":518.0439873368099,"trial":40,"RT":620,"MT":200,"sideResp":1,"stimulus":"img/250/equaldotsize/L/7_Ratio_250_L_8_R_2.png","xmouse":[790,790,790,790,790,790,790,790,790,790,790,790,790,790,790,790,790,790,790,790,790,790,790,790,790,790,789,786,782,778,775,758,740,717,693,670,623,594,572,547,528,508],"ymouse":[477,477,477,477,477,477,477,477,477,477,477,477,477,477,477,477,477,477,477,477,477,477,477,477,477,476,473,469,464,457,450,417,395,365,333,301,232,190,148,101,69,32],"timestamp_mouse":[8,20,44,59,80,100,119,140,159,181,200,220,240,260,280,300,320,340,360,381,401,419,441,461,479,500,520,540,560,580,600,620,640,661,680,700,720,739,759,780,800,820],"xSR":741.5,"ySR":449.15000000000003,"xT1":424.9,"yT1":0,"xT2":1058.1,"yT2":0,"toosoon":0,"cond_shown":"equaldotsize","ratio_trial":250,"smaller_num":"2","larger_num":"8","correct_side":1,"subjID":"paulajulianapuentesayala13","gender":"1","age":"10","school":"6"},{"start_time":1551794872776,"click_time":1551794873831,"finger_time":1551794873551,"fix_duration":444.2166471390386,"trial":41,"RT":775,"MT":280,"sideResp":1,"stimulus":"img/900/equaldotanddens/L/10_Ratio_900_L_20_R_18.png","xmouse":[821,821,821,821,821,821,821,821,821,821,821,821,821,821,821,821,821,821,821,821,821,821,821,821,821,821,821,821,821,821,821,821,821,818,815,806,793,775,732,718,702,689,645,624,601,582,554,520,511,508,508,507,500],"ymouse":[517,517,517,517,517,517,517,517,517,517,517,517,517,517,517,517,517,517,517,517,517,517,517,517,517,517,517,517,517,517,517,517,517,514,511,501,485,465,411,390,368,347,288,261,231,205,168,127,116,112,111,108,96],"timestamp_mouse":[23,35,56,75,95,115,135,155,175,195,214,235,255,275,295,316,335,354,376,395,415,436,455,475,495,515,534,555,574,596,616,635,656,675,695,715,735,755,775,794,815,835,855,874,896,915,935,955,974,995,1015,1035,1055],"xSR":741.5,"ySR":449.15000000000003,"xT1":424.9,"yT1":0,"xT2":1058.1,"yT2":0,"toosoon":0,"cond_shown":"equaldotanddens","ratio_trial":900,"smaller_num":"18","larger_num":"20","correct_side":1,"subjID":"paulajulianapuentesayala13","gender":"1","age":"10","school":"6"},{"start_time":1551794875435,"click_time":1551794876631,"finger_time":1551794876291,"fix_duration":562.9338833986475,"trial":42,"RT":856,"MT":340,"sideResp":1,"stimulus":"img/900/equaldotanddens/L/10_Ratio_900_L_20_R_18.png","xmouse":[764,765,766,766,767,768,768,768,769,771,771,771,771,771,771,771,771,771,771,771,771,771,771,771,771,771,771,771,771,771,771,771,771,771,771,771,771,771,771,770,764,750,730,697,610,563,533,511,501,476,469,467,466,466,466,466,466,466,466,466],"ymouse":[489,491,493,496,498,501,502,504,505,506,506,506,506,506,506,506,506,506,506,506,506,506,506,506,506,506,506,506,506,506,506,506,506,506,506,506,506,506,506,501,485,466,442,409,339,304,269,235,202,145,126,121,121,121,121,121,120,119,115,96],"timestamp_mouse":[21,35,56,76,96,115,136,156,176,196,215,237,256,275,297,315,337,355,375,396,417,436,457,476,496,516,537,556,575,596,616,636,656,675,696,715,736,755,775,796,816,835,856,877,896,915,936,956,976,996,1015,1036,1055,1076,1097,1117,1135,1156,1176,1196],"xSR":741.5,"ySR":449.15000000000003,"xT1":424.9,"yT1":0,"xT2":1058.1,"yT2":0,"toosoon":0,"cond_shown":"equaldotanddens","ratio_trial":900,"smaller_num":"18","larger_num":"20","correct_side":1,"subjID":"paulajulianapuentesayala13","gender":"1","age":"10","school":"6"},{"start_time":1551794878531,"click_time":1551794880111,"finger_time":1551794879831,"fix_duration":658.9090272650259,"trial":43,"RT":1300,"MT":280,"sideResp":1,"stimulus":"img/250/randomdotsizeEA/L/7_Ratio_250_L_8_R_2.png","xmouse":[796,796,796,796,796,796,796,796,796,796,794,791,786,782,780,780,780,780,780,780,780,780,780,780,780,780,780,780,780,780,780,780,780,779,779,777,776,776,776,776,776,776,776,776,776,776,776,776,776,776,776,776,776,776,776,776,775,775,775,775,775,775,775,773,770,762,752,737,715,687,625,613,601,586,569,552,541,536,529,524],"ymouse":[490,490,490,490,490,490,492,492,493,493,493,493,493,493,492,492,492,492,492,492,492,492,492,492,492,492,492,492,492,492,492,492,490,488,487,486,484,484,484,484,484,484,484,484,484,483,480,478,476,473,472,472,472,471,470,468,468,468,468,468,468,468,465,462,456,445,437,423,398,368,296,268,236,205,171,130,109,93,78,65],"timestamp_mouse":[8,32,41,60,81,100,120,139,161,181,200,220,240,260,280,300,320,340,360,381,400,420,440,460,481,501,520,540,561,579,600,620,640,661,680,699,720,741,760,781,800,821,840,860,880,900,920,941,960,981,1001,1021,1040,1060,1079,1101,1121,1139,1161,1181,1200,1219,1240,1259,1280,1300,1320,1340,1360,1380,1400,1419,1440,1459,1479,1500,1520,1540,1559,1580],"xSR":741.5,"ySR":449.15000000000003,"xT1":424.9,"yT1":0,"xT2":1058.1,"yT2":0,"toosoon":0,"cond_shown":"randomdotsizeEA","ratio_trial":250,"smaller_num":"2","larger_num":"8","correct_side":1,"subjID":"paulajulianapuentesayala13","gender":"1","age":"10","school":"6"},{"start_time":1551794882211,"click_time":1551794883351,"finger_time":1551794882952,"fix_duration":1079.6775800254732,"trial":44,"RT":741,"MT":399,"sideResp":1,"stimulus":"img/750/equaldotsize/L/6_Ratio_750_L_24_R_18.png","xmouse":[765,765,765,765,765,765,765,765,765,765,765,765,765,765,765,765,765,765,765,765,765,764,762,762,762,762,762,762,762,762,762,762,761,760,759,758,756,746,732,720,705,669,646,623,607,601,597,596,595,589,576,531,513,505,501,501,496,492],"ymouse":[488,488,488,488,488,488,488,488,488,488,488,488,488,488,488,488,488,488,488,484,475,470,465,465,465,465,465,465,465,465,465,465,465,465,465,465,463,445,426,402,380,322,290,261,241,232,228,226,224,215,199,149,130,118,114,113,107,98],"timestamp_mouse":[1,21,40,61,80,99,121,139,159,180,199,221,241,259,280,301,321,340,359,380,400,420,440,459,480,500,520,540,560,580,600,620,640,661,680,699,720,741,759,780,800,820,839,860,880,900,920,940,960,980,1000,1020,1041,1060,1079,1100,1120,1139],"xSR":741.5,"ySR":449.15000000000003,"xT1":424.9,"yT1":0,"xT2":1058.1,"yT2":0,"toosoon":0,"cond_shown":"equaldotsize","ratio_trial":750,"smaller_num":"18","larger_num":"24","correct_side":1,"subjID":"paulajulianapuentesayala13","gender":"1","age":"10","school":"6"},{"start_time":1551794887193,"click_time":1551794888251,"finger_time":1551794887871,"fix_duration":1020.0871754917652,"trial":45,"RT":678,"MT":380,"sideResp":1,"stimulus":"img/900/equaldotsize/L/2_Ratio_900_L_20_R_18.png","xmouse":[802,802,802,802,802,802,802,802,802,802,802,802,801,801,801,801,801,801,801,801,801,801,801,801,801,801,801,801,801,801,800,795,792,782,768,751,701,677,650,632,618,604,597,587,575,561,545,529,528,528,528,527,524],"ymouse":[511,511,511,511,511,511,511,511,511,511,511,511,510,510,510,510,510,510,510,510,510,510,510,510,510,510,510,510,510,509,507,483,463,442,411,384,309,279,249,227,206,172,152,128,105,81,59,38,38,38,38,38,38],"timestamp_mouse":[18,38,59,78,99,119,138,159,178,198,219,239,257,278,298,319,338,359,378,399,419,439,458,478,499,519,539,559,578,599,618,638,658,678,697,719,738,758,778,798,817,838,857,878,898,917,937,957,978,998,1017,1038,1058],"xSR":741.5,"ySR":449.15000000000003,"xT1":424.9,"yT1":0,"xT2":1058.1,"yT2":0,"toosoon":0,"cond_shown":"equaldotsize","ratio_trial":900,"smaller_num":"18","larger_num":"20","correct_side":1,"subjID":"paulajulianapuentesayala13","gender":"1","age":"10","school":"6"},{"start_time":1551794889643,"click_time":1551794890731,"finger_time":1551794890151,"fix_duration":250,"trial":46,"RT":508,"MT":580,"sideResp":2,"stimulus":"img/250/randomdotsizeEA/R/11_Ratio_250_L_3_R_12.png","xmouse":[775,775,775,775,775,775,775,775,775,775,775,775,775,775,775,775,775,776,780,790,792,794,794,794,790,760,743,721,697,674,670,667,667,667,667,667,667,667,668,674,680,693,717,758,834,853,864,881,901,935,957,981,1000,1019,1068],"ymouse":[505,505,505,505,505,505,505,505,505,505,505,505,505,505,505,505,505,504,500,490,485,480,475,469,462,435,422,402,382,354,345,340,337,337,337,337,339,341,343,348,352,357,361,365,359,347,331,309,277,197,155,120,86,60,16],"timestamp_mouse":[14,36,48,67,88,108,127,148,168,187,208,229,247,268,287,308,329,348,368,388,407,428,448,467,488,508,528,548,568,588,607,628,649,668,689,709,728,749,768,788,807,828,849,868,888,907,928,948,968,989,1007,1028,1048,1069,1088],"xSR":741.5,"ySR":449.15000000000003,"xT1":424.9,"yT1":0,"xT2":1058.1,"yT2":0,"toosoon":0,"cond_shown":"randomdotsizeEA","ratio_trial":250,"smaller_num":"3","larger_num":"12","correct_side":2,"subjID":"paulajulianapuentesayala13","gender":"1","age":"10","school":"6"},{"start_time":1551794892962,"click_time":1551794894431,"finger_time":1551794894011,"fix_duration":1167.1021758713282,"trial":47,"RT":1049,"MT":420,"sideResp":1,"stimulus":"img/500/equaldotanddens/R/2_Ratio_500_L_3_R_6.png","xmouse":[775,775,775,775,775,775,775,775,775,775,775,775,775,775,775,775,775,775,775,775,775,775,775,775,775,775,775,775,775,775,775,775,775,775,775,775,775,775,775,775,775,775,775,775,775,775,775,775,775,775,775,775,765,733,723,721,720,716,675,643,610,585,577,575,574,567,560,550,543,543,542,539,535,520],"ymouse":[485,485,485,485,485,485,485,485,485,485,485,485,485,485,485,485,485,485,485,485,485,485,485,485,485,485,485,485,485,485,485,485,485,485,485,485,485,485,485,485,485,485,485,485,485,485,485,485,485,482,474,462,448,412,393,374,359,339,291,265,237,215,201,179,165,149,133,115,67,53,40,33,29,24],"timestamp_mouse":[9,28,50,79,90,109,130,149,169,189,208,230,250,270,288,309,329,348,369,389,409,429,449,469,490,509,528,550,569,590,610,629,649,669,689,710,728,749,770,789,810,829,848,868,890,909,929,949,969,989,1009,1029,1049,1070,1089,1109,1129,1148,1169,1188,1208,1228,1249,1269,1289,1309,1328,1349,1369,1389,1409,1429,1448,1469],"xSR":741.5,"ySR":449.15000000000003,"xT1":424.9,"yT1":0,"xT2":1058.1,"yT2":0,"toosoon":0,"cond_shown":"equaldotanddens","ratio_trial":500,"smaller_num":"3","larger_num":"6","correct_side":2,"subjID":"paulajulianapuentesayala13","gender":"1","age":"10","school":"6"},{"start_time":1551794896906,"click_time":1551794897791,"finger_time":1551794897611,"fix_duration":773.5033515795766,"trial":48,"RT":705,"MT":180,"sideResp":1,"stimulus":"img/250/equaldotanddens/L/15_Ratio_250_L_12_R_3.png","xmouse":[823,823,823,823,823,823,823,823,823,823,823,823,823,823,823,823,823,823,823,823,823,823,823,823,823,823,823,823,823,823,823,820,814,798,773,743,683,651,625,597,577,560,527,502,478],"ymouse":[510,510,510,510,510,510,510,510,510,510,510,510,510,510,510,510,510,510,510,510,510,508,507,507,507,507,507,507,507,507,506,501,492,479,459,426,354,323,291,261,234,208,134,101,64],"timestamp_mouse":[10,25,46,65,84,106,125,145,165,185,206,226,246,264,286,306,325,344,365,386,405,425,446,465,484,506,525,545,565,585,605,625,646,665,685,705,725,745,765,785,804,825,846,867,885],"xSR":741.5,"ySR":449.15000000000003,"xT1":424.9,"yT1":0,"xT2":1058.1,"yT2":0,"toosoon":0,"cond_shown":"equaldotanddens","ratio_trial":250,"smaller_num":"3","larger_num":"12","correct_side":1,"subjID":"paulajulianapuentesayala13","gender":"1","age":"10","school":"6"},{"start_time":1551794899185,"click_time":1551794900134,"finger_time":1551794899934,"fix_duration":250,"trial":49,"RT":749,"MT":200,"sideResp":1,"stimulus":"img/900/equaldotsize/L/2_Ratio_900_L_20_R_18.png","xmouse":[818,818,818,818,818,817,816,812,809,807,807,807,807,807,807,807,807,807,807,807,807,807,807,807,807,807,807,807,807,807,807,807,807,805,804,801,788,749,720,692,666,640,598,584,569,557,540,505],"ymouse":[527,527,527,527,527,526,526,523,520,519,518,518,518,518,518,518,518,518,518,518,518,516,514,512,512,512,512,512,512,512,512,512,511,509,505,492,467,411,376,342,307,270,213,185,153,125,91,13],"timestamp_mouse":[11,35,48,70,88,108,130,148,169,188,210,228,248,268,289,309,328,348,369,390,409,428,449,468,488,508,529,548,569,590,609,628,649,668,688,708,729,749,769,788,810,828,849,868,889,908,928,949],"xSR":741.5,"ySR":449.15000000000003,"xT1":424.9,"yT1":0,"xT2":1058.1,"yT2":0,"toosoon":0,"cond_shown":"equaldotsize","ratio_trial":900,"smaller_num":"18","larger_num":"20","correct_side":1,"subjID":"paulajulianapuentesayala13","gender":"1","age":"10","school":"6"},{"start_time":1551794902394,"click_time":1551794903353,"finger_time":1551794903033,"fix_duration":1117.2536191804495,"trial":50,"RT":639,"MT":320,"sideResp":2,"stimulus":"img/250/equaldotanddens/R/6_Ratio_250_L_6_R_24.png","xmouse":[801,801,801,801,801,801,801,801,801,801,801,801,801,801,801,801,801,801,801,801,801,801,801,801,801,801,801,801,802,807,821,837,851,875,891,907,928,954,1030,1060,1083,1096,1104,1108,1108,1109,1111,1109,1101],"ymouse":[496,496,496,496,496,496,496,496,496,496,496,496,496,496,496,496,496,496,496,496,496,496,496,496,496,496,496,496,496,496,495,488,476,438,419,392,360,328,245,215,191,174,163,157,154,146,136,105,96],"timestamp_mouse":[1,20,39,60,80,100,119,140,159,179,199,220,239,259,279,300,319,339,361,380,400,421,439,459,479,500,519,540,560,579,599,619,639,659,679,699,720,739,759,779,799,819,840,860,880,899,920,940,959],"xSR":741.5,"ySR":449.15000000000003,"xT1":424.9,"yT1":0,"xT2":1058.1,"yT2":0,"toosoon":0,"cond_shown":"equaldotanddens","ratio_trial":250,"smaller_num":"6","larger_num":"24","correct_side":2,"subjID":"paulajulianapuentesayala13","gender":"1","age":"10","school":"6"},{"start_time":1551794904851,"click_time":1551794906935,"finger_time":1551794906634,"fix_duration":715.808433773136,"trial":51,"RT":1783,"MT":301,"sideResp":2,"stimulus":"img/500/randomdotsizeEA/R/15_Ratio_500_L_1_R_2.png","xmouse":[758,754,752,751,749,749,749,749,749,749,749,749,749,749,749,749,749,749,749,749,749,749,749,749,749,749,749,749,749,749,749,748,748,748,748,748,748,748,748,748,748,748,748,748,748,748,748,748,748,748,748,748,748,748,748,748,748,748,748,748,748,748,748,748,748,748,748,748,748,748,748,748,748,748,748,748,748,748,748,748,748,748,748,748,748,748,748,749,761,795,821,850,878,906,989,1009,1022,1030,1034,1036,1043,1050,1066,1087,1138],"ymouse":[505,501,497,496,496,496,496,495,494,494,493,493,493,493,493,493,493,493,493,493,493,493,493,493,493,493,493,493,493,493,492,492,492,492,492,492,492,492,492,492,492,492,492,492,492,492,492,492,492,492,492,492,492,492,492,492,492,492,492,492,492,492,492,492,492,492,492,492,492,492,492,492,492,492,492,492,492,492,492,492,492,492,492,492,492,492,489,484,470,421,387,352,314,282,204,184,165,156,150,146,140,132,122,110,88],"timestamp_mouse":[3,23,43,68,83,102,123,143,162,183,203,223,242,264,282,302,322,342,362,383,402,424,442,463,483,504,524,543,563,582,603,622,643,662,683,702,722,744,763,783,802,823,844,862,882,904,923,944,963,982,1002,1024,1042,1064,1082,1103,1123,1144,1163,1183,1202,1222,1242,1264,1282,1304,1323,1342,1363,1383,1403,1423,1442,1463,1482,1504,1522,1543,1563,1584,1602,1623,1642,1663,1682,1704,1722,1743,1762,1783,1803,1822,1842,1862,1883,1902,1922,1943,1962,1983,2002,2022,2043,2062,2083],"xSR":741.5,"ySR":449.15000000000003,"xT1":424.9,"yT1":0,"xT2":1058.1,"yT2":0,"toosoon":0,"cond_shown":"randomdotsizeEA","ratio_trial":500,"smaller_num":"1","larger_num":"2","correct_side":2,"subjID":"paulajulianapuentesayala13","gender":"1","age":"10","school":"6"},{"start_time":1551794908638,"click_time":1551794909533,"finger_time":1551794909354,"fix_duration":683.4065952435759,"trial":52,"RT":716,"MT":179,"sideResp":2,"stimulus":"img/500/equaldotsize/R/15_Ratio_500_L_1_R_2.png","xmouse":[795,795,795,795,795,795,795,795,795,795,795,795,795,795,795,795,795,795,795,795,795,795,795,795,795,795,795,795,795,795,795,795,797,799,830,852,881,909,946,999,1018,1033,1040,1055,1110],"ymouse":[518,518,518,518,518,518,518,518,518,518,518,518,518,518,518,518,518,518,518,518,518,518,518,518,518,518,518,518,518,518,518,518,512,508,470,443,410,370,327,248,209,170,132,96,31],"timestamp_mouse":[32,35,55,76,95,115,135,156,177,195,215,237,255,276,296,315,335,356,376,395,415,435,457,476,496,515,535,555,577,595,615,635,655,677,696,716,735,756,776,796,815,836,856,875,895],"xSR":741.5,"ySR":449.15000000000003,"xT1":424.9,"yT1":0,"xT2":1058.1,"yT2":0,"toosoon":0,"cond_shown":"equaldotsize","ratio_trial":500,"smaller_num":"1","larger_num":"2","correct_side":2,"subjID":"paulajulianapuentesayala13","gender":"1","age":"10","school":"6"},{"start_time":1551794911194,"click_time":1551794912653,"finger_time":1551794912234,"fix_duration":619.9833876066011,"trial":53,"RT":1040,"MT":419,"sideResp":2,"stimulus":"img/900/equaldotsize/R/12_Ratio_900_L_18_R_20.png","xmouse":[791,791,791,791,791,791,791,791,791,791,791,791,791,791,791,791,791,791,791,791,791,791,791,791,791,791,791,791,791,791,791,791,791,791,791,791,791,791,791,791,791,791,791,791,791,791,791,791,791,792,812,837,879,898,910,922,935,943,946,951,957,963,971,977,982,991,1001,1012,1018,1024,1034,1047,1067,1113],"ymouse":[484,484,484,484,484,484,484,484,484,484,484,484,484,484,484,484,484,484,484,484,484,484,484,484,484,484,484,484,484,484,484,484,484,484,484,484,484,484,484,484,484,484,484,484,484,484,484,484,484,484,476,456,397,365,334,308,289,277,276,276,272,263,240,227,214,199,187,177,172,163,152,133,115,79],"timestamp_mouse":[1,19,40,60,79,99,121,140,161,179,199,221,239,260,279,301,320,339,359,380,401,420,439,461,479,499,520,541,559,581,599,620,639,660,680,701,720,740,760,780,801,819,839,860,881,901,919,939,961,980,1000,1019,1040,1059,1079,1099,1120,1140,1159,1180,1200,1220,1239,1259,1280,1299,1319,1340,1359,1379,1399,1419,1439,1459],"xSR":741.5,"ySR":449.15000000000003,"xT1":424.9,"yT1":0,"xT2":1058.1,"yT2":0,"toosoon":0,"cond_shown":"equaldotsize","ratio_trial":900,"smaller_num":"18","larger_num":"20","correct_side":2,"subjID":"paulajulianapuentesayala13","gender":"1","age":"10","school":"6"},{"start_time":1551794915091,"click_time":1551794916413,"finger_time":1551794916075,"fix_duration":1376.9066274862023,"trial":54,"RT":984,"MT":338,"sideResp":2,"stimulus":"img/900/randomdotsizeEA/R/7_Ratio_900_L_9_R_10.png","xmouse":[768,768,768,768,768,768,768,768,768,768,768,768,768,768,768,768,768,768,768,768,768,768,768,768,768,768,768,768,768,768,768,768,768,768,768,768,768,768,768,768,768,768,769,777,781,784,785,785,791,796,803,815,853,864,873,886,902,962,1001,1043,1074,1096,1111,1111,1111,1111,1111],"ymouse":[515,515,515,515,515,515,515,515,515,515,515,515,515,515,515,515,515,515,515,515,515,515,515,515,515,515,515,515,515,515,515,515,515,515,515,515,515,515,515,515,515,515,515,504,495,488,483,481,460,447,429,408,345,329,308,289,270,219,197,178,159,141,117,111,104,100,96],"timestamp_mouse":[10,23,42,64,84,103,122,143,162,182,203,223,243,262,282,302,322,342,362,383,402,422,443,464,483,503,524,543,563,582,603,623,642,663,682,702,724,742,763,783,803,824,843,863,882,903,922,942,963,984,1002,1022,1042,1062,1082,1104,1122,1143,1162,1182,1202,1224,1243,1262,1282,1303,1322],"xSR":741.5,"ySR":449.15000000000003,"xT1":424.9,"yT1":0,"xT2":1058.1,"yT2":0,"toosoon":0,"cond_shown":"randomdotsizeEA","ratio_trial":900,"smaller_num":"9","larger_num":"10","correct_side":2,"subjID":"paulajulianapuentesayala13","gender":"1","age":"10","school":"6"},{"start_time":1551794917765,"click_time":1551794920155,"finger_time":1551794918533,"fix_duration":250,"trial":55,"RT":768,"MT":1622,"sideResp":1,"stimulus":"img/750/equaldotsize/R/5_Ratio_750_L_15_R_20.png","xmouse":[783,783,783,783,783,783,783,783,783,783,783,783,783,783,783,783,783,783,783,783,783,783,783,783,783,783,783,783,783,783,783,783,783,783,783,783,784,789,791,803,812,824,842,856,893,911,929,952,971,976,976,976,976,976,974,962,943,909,804,759,720,682,646,594,585,581,579,577,571,571,571,581,602,656,680,680,680,680,680,680,680,680,680,680,773,793,809,830,846,872,874,874,874,874,872,857,826,790,735,735,735,735,735,733,732,729,725,719,694,677,655,623,597,532,508,492,480,474,474,474],"ymouse":[516,516,516,516,516,516,516,516,517,517,517,518,518,518,518,518,518,518,518,518,518,518,518,518,518,518,518,518,518,518,518,518,518,518,514,508,492,456,444,388,367,344,319,296,247,223,198,167,142,137,136,136,136,138,144,154,168,182,231,251,268,283,293,309,314,318,323,334,362,394,431,480,537,642,679,679,679,679,679,679,679,679,679,679,674,655,631,604,572,509,494,487,484,482,482,487,499,510,519,519,519,519,519,517,508,493,471,427,360,323,286,241,206,148,130,117,109,102,101,95],"timestamp_mouse":[10,36,49,68,89,108,130,148,168,189,208,228,249,269,288,309,328,349,370,388,408,428,449,468,488,508,528,550,570,589,609,629,649,669,688,710,729,749,768,788,808,829,848,868,888,908,929,949,969,988,1008,1029,1048,1068,1090,1110,1128,1148,1168,1188,1209,1228,1248,1269,1288,1308,1328,1349,1368,1388,1409,1430,1449,1469,1488,1509,1529,1548,1570,1589,1609,1628,1649,1669,1688,1708,1728,1749,1768,1788,1808,1829,1850,1869,1888,1908,1929,1948,1969,1988,2008,2030,2050,2068,2088,2108,2128,2148,2168,2188,2209,2230,2248,2269,2288,2308,2329,2349,2369,2390],"xSR":741.5,"ySR":449.15000000000003,"xT1":424.9,"yT1":0,"xT2":1058.1,"yT2":0,"toosoon":0,"cond_shown":"equaldotsize","ratio_trial":750,"smaller_num":"15","larger_num":"20","correct_side":2,"subjID":"paulajulianapuentesayala13","gender":"1","age":"10","school":"6"},{"start_time":1551794921559,"click_time":1551794923474,"finger_time":1551794921733,"fix_duration":285.75141871692244,"trial":56,"RT":174,"MT":1741,"sideResp":2,"stimulus":"img/750/randomdotsizeEA/L/9_Ratio_750_L_4_R_3.png","xmouse":[744,744,745,751,751,754,754,742,716,709,709,708,708,713,716,720,722,725,726,727,727,727,727,727,727,727,728,735,812,829,833,833,833,833,833,833,832,832,830,828,828,827,826,826,825,824,823,822,819,818,817,816,815,812,812,812,812,812,812,812,812,813,813,813,813,819,838,866,866,866,866,866,866,866,866,866,866,866,866,866,866,866,866,866,866,866,866,866,866,866,866,866,866,866,1067,1074],"ymouse":[475,476,478,481,481,476,475,457,440,438,437,437,437,453,470,490,504,515,528,528,528,528,529,529,529,529,529,529,526,525,523,522,521,521,520,520,520,520,520,520,519,519,519,519,519,519,519,519,519,519,519,519,519,519,519,519,519,519,519,519,517,515,500,425,360,254,134,1,1,1,1,1,1,1,1,1,1,1,1,1,1,1,1,1,1,1,1,1,1,1,1,1,1,1,0,5],"timestamp_mouse":[15,35,55,88,94,115,134,155,174,194,214,234,254,275,295,314,334,354,374,394,415,434,455,475,494,514,536,555,575,594,614,634,654,675,694,716,735,756,775,795,814,835,855,876,894,915,935,954,974,995,1014,1035,1055,1076,1094,1114,1135,1155,1175,1194,1215,1235,1254,1275,1294,1314,1335,1356,1375,1395,1414,1435,1455,1475,1495,1514,1534,1554,1576,1594,1615,1635,1655,1674,1695,1714,1735,1755,1775,1794,1815,1834,1855,1874,1894,1914],"xSR":741.5,"ySR":449.15000000000003,"xT1":424.9,"yT1":0,"xT2":1058.1,"yT2":0,"toosoon":0,"cond_shown":"randomdotsizeEA","ratio_trial":750,"smaller_num":"3","larger_num":"4","correct_side":1,"subjID":"paulajulianapuentesayala13","gender":"1","age":"10","school":"6"},{"start_time":1551794925952,"click_time":1551794926953,"finger_time":1551794926634,"fix_duration":1157.9013933170518,"trial":57,"RT":682,"MT":319,"sideResp":1,"stimulus":"img/250/equaldotanddens/L/15_Ratio_250_L_12_R_3.png","xmouse":[784,784,784,784,784,784,784,784,784,784,784,784,784,784,784,784,784,784,784,784,784,784,784,784,784,784,784,784,784,784,784,784,781,770,735,717,699,683,665,643,631,619,610,605,597,589,580,570,552,529,516],"ymouse":[496,496,496,496,496,496,496,496,496,496,496,496,496,496,496,496,496,496,496,496,496,496,496,496,496,496,496,496,496,496,496,493,487,468,420,398,371,349,326,288,265,244,225,210,177,159,138,113,72,30,16],"timestamp_mouse":[11,38,41,61,83,101,121,142,162,182,203,223,242,262,281,302,321,341,363,382,402,421,442,463,483,501,521,541,561,582,602,621,642,661,682,702,721,741,761,782,801,821,841,861,882,901,921,941,962,982,1001],"xSR":741.5,"ySR":449.15000000000003,"xT1":424.9,"yT1":0,"xT2":1058.1,"yT2":0,"toosoon":0,"cond_shown":"equaldotanddens","ratio_trial":250,"smaller_num":"3","larger_num":"12","correct_side":1,"subjID":"paulajulianapuentesayala13","gender":"1","age":"10","school":"6"},{"start_time":1551794930442,"click_time":1551794931594,"finger_time":1551794931195,"fix_duration":1007.784197798344,"trial":58,"RT":753,"MT":399,"sideResp":2,"stimulus":"img/750/equaldotanddens/R/7_Ratio_750_L_3_R_4.png","xmouse":[794,794,793,793,793,793,793,793,793,793,793,793,793,793,793,793,793,793,793,793,793,793,793,793,793,793,793,793,793,793,793,793,793,793,795,800,820,844,865,915,942,964,980,998,1042,1061,1081,1092,1095,1098,1098,1098,1098,1098,1099,1100,1103,1105],"ymouse":[512,512,512,512,512,512,512,512,512,512,512,512,512,512,512,512,512,512,512,512,512,512,512,512,512,512,512,512,512,512,512,512,512,511,503,494,467,437,408,356,337,319,308,301,273,260,243,226,212,182,172,165,160,154,140,128,113,98],"timestamp_mouse":[11,38,52,72,92,112,131,152,172,191,211,232,253,272,292,312,331,352,371,391,411,431,451,472,491,511,531,551,572,592,612,633,653,673,691,712,732,753,772,792,811,832,852,871,892,912,932,952,971,992,1011,1031,1051,1071,1091,1111,1131,1152],"xSR":741.5,"ySR":449.15000000000003,"xT1":424.9,"yT1":0,"xT2":1058.1,"yT2":0,"toosoon":0,"cond_shown":"equaldotanddens","ratio_trial":750,"smaller_num":"3","larger_num":"4","correct_side":2,"subjID":"paulajulianapuentesayala13","gender":"1","age":"10","school":"6"},{"start_time":1551794933818,"click_time":1551794935414,"finger_time":1551794934593,"fix_duration":1323.000063654695,"trial":59,"RT":775,"MT":821,"sideResp":2,"stimulus":"img/750/equaldotanddens/R/3_Ratio_750_L_15_R_20.png","xmouse":[782,782,782,782,782,782,782,782,782,782,782,782,782,782,782,782,782,782,782,782,782,782,782,782,782,782,782,782,782,782,782,782,782,782,782,779,797,816,834,850,899,929,964,997,1018,1031,1039,1036,1036,1033,1031,1031,1032,1033,1034,1034,1035,1036,1039,1041,1045,1049,1050,1052,1052,1055,1055,1055,1055,1055,1056,1057,1057,1057,1058,1058,1058,1058,1058,1059],"ymouse":[504,504,504,504,504,504,504,504,504,504,504,504,504,503,502,497,495,495,495,495,495,495,495,495,495,495,495,495,495,495,495,495,495,495,494,493,474,455,438,423,386,359,328,290,259,225,154,129,110,95,82,68,63,61,60,59,57,56,55,54,50,47,46,45,44,44,44,44,44,44,44,44,46,50,52,52,52,52,52,52],"timestamp_mouse":[17,37,55,75,97,115,135,157,177,196,216,236,256,276,296,316,337,356,376,396,415,436,455,476,497,515,535,557,575,597,615,637,655,677,696,715,736,755,775,796,816,835,855,881,896,915,936,955,975,996,1015,1035,1056,1076,1095,1116,1136,1156,1175,1195,1215,1235,1256,1276,1296,1316,1335,1356,1375,1396,1415,1435,1456,1475,1497,1516,1536,1555,1576,1595],"xSR":741.5,"ySR":449.15000000000003,"xT1":424.9,"yT1":0,"xT2":1058.1,"yT2":0,"toosoon":0,"cond_shown":"equaldotanddens","ratio_trial":750,"smaller_num":"15","larger_num":"20","correct_side":2,"subjID":"paulajulianapuentesayala13","gender":"1","age":"10","school":"6"},{"start_time":1551794936664,"click_time":1551794937894,"finger_time":1551794937514,"fix_duration":489.59328541212,"trial":60,"RT":850,"MT":380,"sideResp":1,"stimulus":"img/900/randomdotsizeEA/L/1_Ratio_900_L_10_R_9.png","xmouse":[789,791,791,791,791,791,791,791,792,792,792,792,792,792,792,792,792,792,792,792,792,792,792,792,792,792,792,792,792,792,792,792,793,793,793,793,793,793,793,790,782,768,730,672,653,638,625,614,597,585,575,565,557,556,555,553,548,544,540,537,531,521],"ymouse":[529,529,529,529,528,528,528,527,525,522,520,519,519,519,519