[{"start_time":1551793950267,"click_time":1551793951944,"finger_time":1551793951543,"fix_duration":499.9332288669429,"trial":0,"RT":1276,"MT":401,"sideResp":2,"stimulus":[],"xmouse":[783,783,783,783,783,783,783,784,784,784,784,784,784,784,784,784,784,784,784,784,784,784,784,784,784,784,784,784,784,784,784,784,784,784,784,784,784,784,784,784,784,784,784,784,784,784,784,784,784,784,784,784,784,784,787,790,794,800,803,806,807,809,814,860,889,920,955,984,1044,1073,1096,1114,1132,1153,1156,1158,1158,1158,1158,1158,1158,1158,1152,1145],"ymouse":[521,521,521,521,521,521,521,521,521,521,521,521,521,521,521,521,521,521,521,521,521,521,521,521,521,521,521,521,521,521,521,521,521,521,521,521,521,521,521,521,521,521,521,521,521,520,520,520,520,520,520,520,520,518,515,509,505,501,499,495,494,492,489,471,456,437,407,367,287,250,220,196,172,135,128,124,120,118,117,117,115,114,105,95],"timestamp_mouse":[16,53,55,75,95,115,136,155,177,196,215,237,255,277,295,315,336,357,377,395,416,437,455,475,495,516,537,555,575,595,616,636,657,675,695,717,735,755,776,797,816,836,855,877,896,916,935,955,977,996,1017,1036,1055,1076,1096,1116,1136,1156,1175,1195,1217,1235,1257,1276,1296,1315,1335,1357,1377,1396,1417,1435,1455,1477,1495,1515,1535,1555,1577,1595,1616,1636,1655,1676],"xSR":741.5,"ySR":481,"xT1":424.9,"yT1":0,"xT2":1058.1,"yT2":0,"toosoon":0,"cond_shown":"Incongruent","ratio_trial":100,"L_num":2,"L_den":4,"R_num":8,"R_den":20,"correct_side":1,"subjID":"paulajulianapuentesayala13","gender":"1","age":"10","school":"6","test":{"fix_dur":[250,1500],"timestim":1000,"targets_dim":[100,100],"targets_relative_coord":[0.3,0.7],"size_stim":[880,420],"start_dim":[100,100],"size_start":[300,300],"size_fix":60,"samplingrate":20,"img_types":["Congruent","Incongruent"],"ratios":[100,200,300],"rep_conds":19,"nTrials":120,"trials_to_rest":500,"Trials_order":[31,12,30,98,111,14,1,114,66,24,53,59,68,93,33,55,26,80,60,7,45,117,91,63,56,73,47,40,118,64,105,108,119,29,76,8,11,71,83,115,109,110,9,54,4,74,84,32,81,23,72,69,18,38,86,75,100,104,95,113,97,78,49,41,44,99,61,36,43,94,21,15,48,0,82,13,28,90,6,35,102,89,116,77,62,96,46,88,22,10,27,70,20,34,58,3,19,51,25,57,50,101,37,87,39,103,79,65,16,5,106,42,67,2,92,85,112,52,107,17],"cond_shown":["Incongruent","Congruent","Congruent","Congruent","Incongruent","Congruent","Incongruent","Congruent","Congruent","Congruent","Incongruent","Incongruent","Congruent","Incongruent","Incongruent","Incongruent","Congruent","Congruent","Congruent","Incongruent","Incongruent","Incongruent","Incongruent","Incongruent","Congruent","Incongruent","Incongruent","Congruent","Congruent","Congruent","Incongruent","Congruent","Incongruent","Incongruent","Congruent","Congruent","Incongruent","Incongruent","Incongruent","Incongruent","Incongruent","Congruent","Incongruent","Congruent","Congruent","Congruent","Congruent","Congruent","Incongruent","Incongruent","Congruent","Incongruent","Congruent","Congruent","Congruent","Incongruent","Congruent","Congruent","Incongruent","Incongruent","Incongruent","Congruent","Incongruent","Incongruent","Congruent","Incongruent","Incongruent","Congruent","Incongruent","Congruent","Incongruent","Incongruent","Congruent","Congruent","Congruent","Incongruent","Congruent","Congruent","Congruent","Incongruent","Congruent","Incongruent","Congruent","Incongruent","Congruent","Congruent","Congruent","Congruent","Congruent","Congruent","Incongruent","Congruent","Congruent","Congruent","Congruent","Incongruent","Incongruent","Incongruent","Incongruent","Incongruent","Congruent","Incongruent","Incongruent","Incongruent","Incongruent","Incongruent","Incongruent","Incongruent","Congruent","Incongruent","Congruent","Congruent","Incongruent","Congruent","Congruent","Incongruent","Congruent","Congruent","Incongruent","Incongruent"],"ratio_trial":[100,100,100,200,200,200,100,100,100,100,300,300,200,200,200,100,200,200,100,100,200,200,100,200,200,100,300,300,300,300,200,100,300,300,300,200,300,300,300,100,100,200,200,100,300,200,100,200,200,300,100,200,100,200,200,200,300,200,300,300,100,100,100,300,200,200,100,100,100,300,200,200,100,100,300,100,300,100,100,300,100,300,200,300,200,100,300,300,300,300,200,300,200,300,300,200,100,200,100,200,200,300,100,200,200,100,100,300,300,300,300,100,100,200,200,100,300,300,300,300],"left_num":[2,4,4,16,1,6,8,10,15,11,4,4,1,4,3,9,8,3,11,11,7,4,6,1,9,13,4,11,20,4,1,8,1,4,20,16,13,8,13,8,9,7,14,3,5,7,3,9,11,2,10,7,3,4,3,7,4,6,1,2,9,1,12,1,1,1,3,8,6,3,7,1,4,2,20,10,4,9,6,1,7,4,20,4,5,3,3,24,1,11,6,1,9,11,11,1,12,4,3,7,15,7,10,1,1,1,12,1,4,4,4,8,12,14,9,6,1,1,4,4],"right_num":[8,6,6,9,2,7,6,3,13,4,2,8,21,14,11,20,3,11,6,9,8,14,13,3,4,12,2,4,5,1,3,2,3,2,9,9,12,9,12,1,13,2,12,4,7,18,4,13,3,6,3,6,4,3,11,6,13,7,3,6,6,18,9,3,21,2,11,2,11,11,14,3,15,11,5,9,1,8,5,2,15,2,9,2,14,2,2,2,19,1,3,11,13,4,4,3,9,14,11,6,4,8,8,2,3,8,9,3,1,2,1,2,2,6,13,11,8,6,2,2],"left_den":[4,8,8,30,3,12,16,25,25,22,20,5,2,6,4,10,15,10,22,22,10,6,10,2,20,26,20,22,25,10,2,16,2,20,25,30,26,10,26,20,15,21,30,20,25,15,20,30,20,4,25,15,20,8,10,15,20,12,2,4,18,2,24,2,2,3,5,16,10,12,10,2,10,5,25,25,10,15,20,2,14,20,25,20,10,6,6,30,3,22,20,5,30,22,22,2,24,6,5,15,25,10,25,3,2,2,24,2,10,20,10,16,30,28,30,10,30,5,20,20],"right_den":[20,10,10,27,15,10,10,10,26,10,4,16,30,30,20,25,9,22,15,15,16,30,26,10,16,20,4,20,10,10,10,5,15,4,18,27,15,18,15,2,26,15,18,16,14,27,16,26,4,30,10,9,16,10,22,9,26,10,15,30,10,30,15,15,30,15,22,5,22,20,28,10,30,22,10,18,10,16,25,10,25,4,15,4,20,5,10,4,30,5,6,22,26,20,20,10,15,30,22,9,10,20,16,15,10,20,15,15,10,4,10,5,4,20,26,22,24,12,4,4],"correct_side":[1,2,2,1,1,2,2,1,1,1,2,1,2,1,1,1,1,2,1,2,1,1,1,1,1,2,2,1,1,1,1,1,1,2,1,1,2,1,2,2,1,1,2,2,2,2,2,2,2,1,1,2,2,1,2,2,2,2,1,1,2,2,2,1,2,1,1,1,1,2,1,1,2,2,1,2,1,1,1,1,2,2,1,2,2,1,1,1,2,1,2,2,2,1,1,1,2,1,1,2,1,1,2,1,1,1,2,1,1,2,1,1,2,1,2,1,2,2,2,2],"img_shown":["img2/100/Incongruent/L/I_Dist_100_LN_2_LD_4_RN_8_RD_20_0.png","img2/100/Congruent/R/C_Dist_100_LN_4_LD_8_RN_6_RD_10_1.png","img2/100/Congruent/R/C_Dist_100_LN_4_LD_8_RN_6_RD_10_1.png","img2/200/Congruent/L/C_Dist_200_LN_16_LD_30_RN_9_RD_27_0.png","img2/200/Incongruent/L/I_Dist_200_LN_1_LD_3_RN_2_RD_15_0.png","img2/200/Congruent/R/C_Dist_200_LN_6_LD_12_RN_7_RD_10_1.png","img2/100/Incongruent/R/I_Dist_100_LN_8_LD_16_RN_6_RD_10_1.png","img2/100/Congruent/L/C_Dist_100_LN_10_LD_25_RN_3_RD_10_0.png","img2/100/Congruent/L/C_Dist_100_LN_15_LD_25_RN_13_RD_26_0.png","img2/100/Congruent/L/C_Dist_100_LN_11_LD_22_RN_4_RD_10_0.png","img2/300/Incongruent/R/I_Dist_300_LN_4_LD_20_RN_2_RD_4_1.png","img2/300/Incongruent/L/I_Dist_300_LN_4_LD_5_RN_8_RD_16_0.png","img2/200/Congruent/R/C_Dist_200_LN_1_LD_2_RN_21_RD_30_1.png","img2/200/Incongruent/L/I_Dist_200_LN_4_LD_6_RN_14_RD_30_0.png","img2/200/Incongruent/L/I_Dist_200_LN_3_LD_4_RN_11_RD_20_0.png","img2/100/Incongruent/L/I_Dist_100_LN_9_LD_10_RN_20_RD_25_0.png","img2/200/Congruent/L/C_Dist_200_LN_8_LD_15_RN_3_RD_9_0.png","img2/200/Congruent/R/C_Dist_200_LN_3_LD_10_RN_11_RD_22_1.png","img2/100/Congruent/L/C_Dist_100_LN_11_LD_22_RN_6_RD_15_0.png","img2/100/Incongruent/R/I_Dist_100_LN_11_LD_22_RN_9_RD_15_1.png","img2/200/Incongruent/L/I_Dist_200_LN_7_LD_10_RN_8_RD_16_0.png","img2/200/Incongruent/L/I_Dist_200_LN_4_LD_6_RN_14_RD_30_0.png","img2/100/Incongruent/L/I_Dist_100_LN_6_LD_10_RN_13_RD_26_0.png","img2/200/Incongruent/L/I_Dist_200_LN_1_LD_2_RN_3_RD_10_0.png","img2/200/Congruent/L/C_Dist_200_LN_9_LD_20_RN_4_RD_16_0.png","img2/100/Incongruent/R/I_Dist_100_LN_13_LD_26_RN_12_RD_20_1.png","img2/300/Incongruent/R/I_Dist_300_LN_4_LD_20_RN_2_RD_4_1.png","img2/300/Congruent/L/C_Dist_300_LN_11_LD_22_RN_4_RD_20_0.png","img2/300/Congruent/L/C_Dist_300_LN_20_LD_25_RN_5_RD_10_0.png","img2/300/Congruent/L/C_Dist_300_LN_4_LD_10_RN_1_RD_10_0.png","img2/200/Incongruent/L/I_Dist_200_LN_1_LD_2_RN_3_RD_10_0.png","img2/100/Congruent/L/C_Dist_100_LN_8_LD_16_RN_2_RD_5_0.png","img2/300/Incongruent/L/I_Dist_300_LN_1_LD_2_RN_3_RD_15_0.png","img2/300/Incongruent/R/I_Dist_300_LN_4_LD_20_RN_2_RD_4_1.png","img2/300/Congruent/L/C_Dist_300_LN_20_LD_25_RN_9_RD_18_0.png","img2/200/Congruent/L/C_Dist_200_LN_16_LD_30_RN_9_RD_27_0.png","img2/300/Incongruent/R/I_Dist_300_LN_13_LD_26_RN_12_RD_15_1.png","img2/300/Incongruent/L/I_Dist_300_LN_8_LD_10_RN_9_RD_18_0.png","img2/300/Incongruent/R/I_Dist_300_LN_13_LD_26_RN_12_RD_15_1.png","img2/100/Incongruent/R/I_Dist_100_LN_8_LD_20_RN_1_RD_2_1.png","img2/100/Incongruent/L/I_Dist_100_LN_9_LD_15_RN_13_RD_26_0.png","img2/200/Congruent/L/C_Dist_200_LN_7_LD_21_RN_2_RD_15_0.png","img2/200/Incongruent/R/I_Dist_200_LN_14_LD_30_RN_12_RD_18_1.png","img2/100/Congruent/R/C_Dist_100_LN_3_LD_20_RN_4_RD_16_1.png","img2/300/Congruent/R/C_Dist_300_LN_5_LD_25_RN_7_RD_14_1.png","img2/200/Congruent/R/C_Dist_200_LN_7_LD_15_RN_18_RD_27_1.png","img2/100/Congruent/R/C_Dist_100_LN_3_LD_20_RN_4_RD_16_1.png","img2/200/Congruent/R/C_Dist_200_LN_9_LD_30_RN_13_RD_26_1.png","img2/200/Incongruent/R/I_Dist_200_LN_11_LD_20_RN_3_RD_4_1.png","img2/300/Incongruent/L/I_Dist_300_LN_2_LD_4_RN_6_RD_30_0.png","img2/100/Congruent/L/C_Dist_100_LN_10_LD_25_RN_3_RD_10_0.png","img2/200/Incongruent/R/I_Dist_200_LN_7_LD_15_RN_6_RD_9_1.png","img2/100/Congruent/R/C_Dist_100_LN_3_LD_20_RN_4_RD_16_1.png","img2/200/Congruent/L/C_Dist_200_LN_4_LD_8_RN_3_RD_10_0.png","img2/200/Congruent/R/C_Dist_200_LN_3_LD_10_RN_11_RD_22_1.png","img2/200/Incongruent/R/I_Dist_200_LN_7_LD_15_RN_6_RD_9_1.png","img2/300/Congruent/R/C_Dist_300_LN_4_LD_20_RN_13_RD_26_1.png","img2/200/Congruent/R/C_Dist_200_LN_6_LD_12_RN_7_RD_10_1.png","img2/300/Incongruent/L/I_Dist_300_LN_1_LD_2_RN_3_RD_15_0.png","img2/300/Incongruent/L/I_Dist_300_LN_2_LD_4_RN_6_RD_30_0.png","img2/100/Incongruent/R/I_Dist_100_LN_9_LD_18_RN_6_RD_10_1.png","img2/100/Congruent/R/C_Dist_100_LN_1_LD_2_RN_18_RD_30_1.png","img2/100/Incongruent/R/I_Dist_100_LN_12_LD_24_RN_9_RD_15_1.png","img2/300/Incongruent/L/I_Dist_300_LN_1_LD_2_RN_3_RD_15_0.png","img2/200/Congruent/R/C_Dist_200_LN_1_LD_2_RN_21_RD_30_1.png","img2/200/Incongruent/L/I_Dist_200_LN_1_LD_3_RN_2_RD_15_0.png","img2/100/Incongruent/L/I_Dist_100_LN_3_LD_5_RN_11_RD_22_0.png","img2/100/Congruent/L/C_Dist_100_LN_8_LD_16_RN_2_RD_5_0.png","img2/100/Incongruent/L/I_Dist_100_LN_6_LD_10_RN_11_RD_22_0.png","img2/300/Congruent/R/C_Dist_300_LN_3_LD_12_RN_11_RD_20_1.png","img2/200/Incongruent/L/I_Dist_200_LN_7_LD_10_RN_14_RD_28_0.png","img2/200/Incongruent/L/I_Dist_200_LN_1_LD_2_RN_3_RD_10_0.png","img2/100/Congruent/R/C_Dist_100_LN_4_LD_10_RN_15_RD_30_1.png","img2/100/Congruent/R/C_Dist_100_LN_2_LD_5_RN_11_RD_22_1.png","img2/300/Congruent/L/C_Dist_300_LN_20_LD_25_RN_5_RD_10_0.png","img2/100/Incongruent/R/I_Dist_100_LN_10_LD_25_RN_9_RD_18_1.png","img2/300/Congruent/L/C_Dist_300_LN_4_LD_10_RN_1_RD_10_0.png","img2/100/Congruent/L/C_Dist_100_LN_9_LD_15_RN_8_RD_16_0.png","img2/100/Congruent/L/C_Dist_100_LN_6_LD_20_RN_5_RD_25_0.png","img2/300/Incongruent/L/I_Dist_300_LN_1_LD_2_RN_2_RD_10_0.png","img2/100/Congruent/R/C_Dist_100_LN_7_LD_14_RN_15_RD_25_1.png","img2/300/Incongruent/R/I_Dist_300_LN_4_LD_20_RN_2_RD_4_1.png","img2/200/Congruent/L/C_Dist_200_LN_20_LD_25_RN_9_RD_15_0.png","img2/300/Incongruent/R/I_Dist_300_LN_4_LD_20_RN_2_RD_4_1.png","img2/200/Congruent/R/C_Dist_200_LN_5_LD_10_RN_14_RD_20_1.png","img2/100/Congruent/L/C_Dist_100_LN_3_LD_6_RN_2_RD_5_0.png","img2/300/Congruent/L/C_Dist_300_LN_3_LD_6_RN_2_RD_10_0.png","img2/300/Congruent/L/C_Dist_300_LN_24_LD_30_RN_2_RD_4_0.png","img2/300/Congruent/R/C_Dist_300_LN_1_LD_3_RN_19_RD_30_1.png","img2/300/Congruent/L/C_Dist_300_LN_11_LD_22_RN_1_RD_5_0.png","img2/200/Incongruent/R/I_Dist_200_LN_6_LD_20_RN_3_RD_6_1.png","img2/300/Congruent/R/C_Dist_300_LN_1_LD_5_RN_11_RD_22_1.png","img2/200/Congruent/R/C_Dist_200_LN_9_LD_30_RN_13_RD_26_1.png","img2/300/Congruent/L/C_Dist_300_LN_11_LD_22_RN_4_RD_20_0.png","img2/300/Congruent/L/C_Dist_300_LN_11_LD_22_RN_4_RD_20_0.png","img2/200/Incongruent/L/I_Dist_200_LN_1_LD_2_RN_3_RD_10_0.png","img2/100/Incongruent/R/I_Dist_100_LN_12_LD_24_RN_9_RD_15_1.png","img2/200/Incongruent/L/I_Dist_200_LN_4_LD_6_RN_14_RD_30_0.png","img2/100/Incongruent/L/I_Dist_100_LN_3_LD_5_RN_11_RD_22_0.png","img2/200/Incongruent/R/I_Dist_200_LN_7_LD_15_RN_6_RD_9_1.png","img2/200/Congruent/L/C_Dist_200_LN_15_LD_25_RN_4_RD_10_0.png","img2/300/Incongruent/L/I_Dist_300_LN_7_LD_10_RN_8_RD_20_0.png","img2/100/Incongruent/R/I_Dist_100_LN_10_LD_25_RN_8_RD_16_1.png","img2/200/Incongruent/L/I_Dist_200_LN_1_LD_3_RN_2_RD_15_0.png","img2/200/Incongruent/L/I_Dist_200_LN_1_LD_2_RN_3_RD_10_0.png","img2/100/Incongruent/L/I_Dist_100_LN_1_LD_2_RN_8_RD_20_0.png","img2/100/Incongruent/R/I_Dist_100_LN_12_LD_24_RN_9_RD_15_1.png","img2/300/Incongruent/L/I_Dist_300_LN_1_LD_2_RN_3_RD_15_0.png","img2/300/Congruent/L/C_Dist_300_LN_4_LD_10_RN_1_RD_10_0.png","img2/300/Incongruent/R/I_Dist_300_LN_4_LD_20_RN_2_RD_4_1.png","img2/300/Congruent/L/C_Dist_300_LN_4_LD_10_RN_1_RD_10_0.png","img2/100/Congruent/L/C_Dist_100_LN_8_LD_16_RN_2_RD_5_0.png","img2/100/Incongruent/R/I_Dist_100_LN_12_LD_30_RN_2_RD_4_1.png","img2/200/Congruent/L/C_Dist_200_LN_14_LD_28_RN_6_RD_20_0.png","img2/200/Congruent/R/C_Dist_200_LN_9_LD_30_RN_13_RD_26_1.png","img2/100/Incongruent/L/I_Dist_100_LN_6_LD_10_RN_11_RD_22_0.png","img2/300/Congruent/R/C_Dist_300_LN_1_LD_30_RN_8_RD_24_1.png","img2/300/Congruent/R/C_Dist_300_LN_1_LD_5_RN_6_RD_12_1.png","img2/300/Incongruent/R/I_Dist_300_LN_4_LD_20_RN_2_RD_4_1.png","img2/300/Incongruent/R/I_Dist_300_LN_4_LD_20_RN_2_RD_4_1.png"],"dist100_C":[["C_Dist_100_LN_10_LD_25_RN_3_RD_10_0.png","C_Dist_100_LN_11_LD_22_RN_4_RD_10_0.png","C_Dist_100_LN_11_LD_22_RN_6_RD_15_0.png","C_Dist_100_LN_15_LD_25_RN_13_RD_26_0.png","C_Dist_100_LN_3_LD_6_RN_2_RD_5_0.png","C_Dist_100_LN_6_LD_20_RN_5_RD_25_0.png","C_Dist_100_LN_8_LD_16_RN_2_RD_5_0.png","C_Dist_100_LN_9_LD_15_RN_8_RD_16_0.png"],["C_Dist_100_LN_1_LD_2_RN_18_RD_30_1.png","C_Dist_100_LN_1_LD_2_RN_3_RD_5_1.png","C_Dist_100_LN_12_LD_30_RN_13_RD_26_1.png","C_Dist_100_LN_2_LD_5_RN_11_RD_22_1.png","C_Dist_100_LN_2_LD_5_RN_6_RD_12_1.png","C_Dist_100_LN_3_LD_20_RN_4_RD_16_1.png","C_Dist_100_LN_4_LD_10_RN_15_RD_30_1.png","C_Dist_100_LN_4_LD_8_RN_6_RD_10_1.png","C_Dist_100_LN_6_LD_12_RN_15_RD_25_1.png","C_Dist_100_LN_7_LD_14_RN_15_RD_25_1.png","C_Dist_100_LN_7_LD_14_RN_9_RD_15_1.png"]],"dist100_I":[["I_Dist_100_LN_1_LD_2_RN_8_RD_20_0.png","I_Dist_100_LN_2_LD_4_RN_6_RD_15_0.png","I_Dist_100_LN_2_LD_4_RN_8_RD_20_0.png","I_Dist_100_LN_3_LD_5_RN_11_RD_22_0.png","I_Dist_100_LN_3_LD_5_RN_8_RD_16_0.png","I_Dist_100_LN_3_LD_6_RN_4_RD_10_0.png","I_Dist_100_LN_3_LD_9_RN_7_RD_30_0.png","I_Dist_100_LN_4_LD_8_RN_8_RD_20_0.png","I_Dist_100_LN_6_LD_10_RN_11_RD_22_0.png","I_Dist_100_LN_6_LD_10_RN_13_RD_26_0.png","I_Dist_100_LN_6_LD_10_RN_7_RD_14_0.png","I_Dist_100_LN_9_LD_10_RN_20_RD_25_0.png","I_Dist_100_LN_9_LD_15_RN_13_RD_26_0.png","I_Dist_100_LN_9_LD_15_RN_14_RD_28_0.png"],["I_Dist_100_LN_10_LD_25_RN_8_RD_16_1.png","I_Dist_100_LN_10_LD_25_RN_9_RD_18_1.png","I_Dist_100_LN_11_LD_22_RN_9_RD_15_1.png","I_Dist_100_LN_12_LD_24_RN_9_RD_15_1.png","I_Dist_100_LN_12_LD_30_RN_2_RD_4_1.png","I_Dist_100_LN_13_LD_26_RN_12_RD_20_1.png","I_Dist_100_LN_13_LD_26_RN_6_RD_10_1.png","I_Dist_100_LN_17_LD_30_RN_10_RD_15_1.png","I_Dist_100_LN_6_LD_12_RN_3_RD_5_1.png","I_Dist_100_LN_8_LD_16_RN_6_RD_10_1.png","I_Dist_100_LN_8_LD_20_RN_1_RD_2_1.png","I_Dist_100_LN_9_LD_18_RN_6_RD_10_1.png"]],"dist100_S":[["E_Dist_100_LN_2_LD_12_RN_2_RD_30_0.png","E_Dist_100_LN_6_LD_10_RN_6_RD_12_0.png"],["E_Dist_100_LN_6_LD_12_RN_6_RD_10_1.png"]],"dist200_C":[["C_Dist_200_LN_11_LD_22_RN_3_RD_10_0.png","C_Dist_200_LN_12_LD_15_RN_6_RD_10_0.png","C_Dist_200_LN_12_LD_20_RN_6_RD_15_0.png","C_Dist_200_LN_14_LD_28_RN_6_RD_20_0.png","C_Dist_200_LN_15_LD_25_RN_4_RD_10_0.png","C_Dist_200_LN_16_LD_20_RN_12_RD_20_0.png","C_Dist_200_LN_16_LD_30_RN_9_RD_27_0.png","C_Dist_200_LN_20_LD_25_RN_9_RD_15_0.png","C_Dist_200_LN_21_LD_30_RN_2_RD_4_0.png","C_Dist_200_LN_4_LD_10_RN_3_RD_15_0.png","C_Dist_200_LN_4_LD_8_RN_3_RD_10_0.png","C_Dist_200_LN_6_LD_15_RN_3_RD_15_0.png","C_Dist_200_LN_7_LD_21_RN_2_RD_15_0.png","C_Dist_200_LN_8_LD_15_RN_2_RD_6_0.png","C_Dist_200_LN_8_LD_15_RN_3_RD_9_0.png","C_Dist_200_LN_8_LD_15_RN_7_RD_21_0.png","C_Dist_200_LN_9_LD_20_RN_4_RD_16_0.png"],["C_Dist_200_LN_1_LD_2_RN_21_RD_30_1.png","C_Dist_200_LN_13_LD_26_RN_14_RD_20_1.png","C_Dist_200_LN_3_LD_10_RN_11_RD_22_1.png","C_Dist_200_LN_3_LD_10_RN_14_RD_28_1.png","C_Dist_200_LN_3_LD_10_RN_7_RD_14_1.png","C_Dist_200_LN_3_LD_12_RN_9_RD_20_1.png","C_Dist_200_LN_3_LD_6_RN_14_RD_20_1.png","C_Dist_200_LN_5_LD_10_RN_14_RD_20_1.png","C_Dist_200_LN_6_LD_12_RN_7_RD_10_1.png","C_Dist_200_LN_6_LD_20_RN_11_RD_22_1.png","C_Dist_200_LN_7_LD_15_RN_18_RD_27_1.png","C_Dist_200_LN_9_LD_30_RN_13_RD_26_1.png"]],"dist200_I":[["I_Dist_200_LN_1_LD_2_RN_3_RD_10_0.png","I_Dist_200_LN_1_LD_3_RN_2_RD_15_0.png","I_Dist_200_LN_3_LD_4_RN_11_RD_20_0.png","I_Dist_200_LN_4_LD_5_RN_6_RD_10_0.png","I_Dist_200_LN_4_LD_6_RN_14_RD_30_0.png","I_Dist_200_LN_7_LD_10_RN_12_RD_24_0.png","I_Dist_200_LN_7_LD_10_RN_14_RD_28_0.png","I_Dist_200_LN_7_LD_10_RN_8_RD_16_0.png"],["I_Dist_200_LN_11_LD_20_RN_3_RD_4_1.png","I_Dist_200_LN_14_LD_30_RN_12_RD_18_1.png","I_Dist_200_LN_14_LD_30_RN_6_RD_9_1.png","I_Dist_200_LN_3_LD_10_RN_1_RD_2_1.png","I_Dist_200_LN_4_LD_30_RN_1_RD_3_1.png","I_Dist_200_LN_6_LD_20_RN_3_RD_6_1.png","I_Dist_200_LN_7_LD_15_RN_4_RD_6_1.png","I_Dist_200_LN_7_LD_15_RN_6_RD_9_1.png","I_Dist_200_LN_9_LD_15_RN_8_RD_10_1.png"]],"dist200_S":[["E_Dist_200_LN_3_LD_6_RN_3_RD_10_0.png"],["E_Dist_200_LN_3_LD_10_RN_3_RD_6_1.png"]],"dist300_C":[["C_Dist_300_LN_11_LD_22_RN_1_RD_5_0.png","C_Dist_300_LN_11_LD_22_RN_2_RD_10_0.png","C_Dist_300_LN_11_LD_22_RN_4_RD_20_0.png","C_Dist_300_LN_12_LD_24_RN_2_RD_10_0.png","C_Dist_300_LN_18_LD_20_RN_9_RD_15_0.png","C_Dist_300_LN_20_LD_25_RN_13_RD_26_0.png","C_Dist_300_LN_20_LD_25_RN_14_RD_28_0.png","C_Dist_300_LN_20_LD_25_RN_5_RD_10_0.png","C_Dist_300_LN_20_LD_25_RN_8_RD_16_0.png","C_Dist_300_LN_20_LD_25_RN_9_RD_18_0.png","C_Dist_300_LN_24_LD_30_RN_2_RD_4_0.png","C_Dist_300_LN_24_LD_30_RN_8_RD_16_0.png","C_Dist_300_LN_3_LD_6_RN_2_RD_10_0.png","C_Dist_300_LN_4_LD_10_RN_1_RD_10_0.png","C_Dist_300_LN_4_LD_5_RN_2_RD_4_0.png","C_Dist_300_LN_8_LD_16_RN_1_RD_5_0.png","C_Dist_300_LN_9_LD_10_RN_3_RD_5_0.png"],["C_Dist_300_LN_1_LD_20_RN_7_RD_20_1.png","C_Dist_300_LN_1_LD_3_RN_19_RD_30_1.png","C_Dist_300_LN_1_LD_30_RN_8_RD_24_1.png","C_Dist_300_LN_1_LD_5_RN_11_RD_22_1.png","C_Dist_300_LN_1_LD_5_RN_3_RD_6_1.png","C_Dist_300_LN_1_LD_5_RN_6_RD_12_1.png","C_Dist_300_LN_2_LD_10_RN_12_RD_24_1.png","C_Dist_300_LN_2_LD_20_RN_10_RD_25_1.png","C_Dist_300_LN_3_LD_12_RN_11_RD_20_1.png","C_Dist_300_LN_3_LD_6_RN_4_RD_5_1.png","C_Dist_300_LN_4_LD_20_RN_13_RD_26_1.png","C_Dist_300_LN_5_LD_25_RN_6_RD_12_1.png","C_Dist_300_LN_5_LD_25_RN_7_RD_14_1.png","C_Dist_300_LN_7_LD_14_RN_20_RD_25_1.png","C_Dist_300_LN_8_LD_15_RN_10_RD_12_1.png"]],"dist300_I":[["I_Dist_300_LN_1_LD_2_RN_2_RD_10_0.png","I_Dist_300_LN_1_LD_2_RN_3_RD_15_0.png","I_Dist_300_LN_2_LD_4_RN_6_RD_30_0.png","I_Dist_300_LN_3_LD_6_RN_4_RD_20_0.png","I_Dist_300_LN_4_LD_5_RN_6_RD_12_0.png","I_Dist_300_LN_4_LD_5_RN_8_RD_16_0.png","I_Dist_300_LN_7_LD_10_RN_8_RD_20_0.png","I_Dist_300_LN_8_LD_10_RN_14_RD_28_0.png","I_Dist_300_LN_8_LD_10_RN_9_RD_18_0.png"],["I_Dist_300_LN_13_LD_26_RN_12_RD_15_1.png","I_Dist_300_LN_4_LD_20_RN_2_RD_4_1.png"]],"dist300_S":[["E_Dist_300_LN_9_LD_12_RN_9_RD_20_0.png"],["E_Dist_300_LN_18_LD_30_RN_18_RD_20_1.png","E_Dist_300_LN_3_LD_10_RN_3_RD_5_1.png","E_Dist_300_LN_9_LD_20_RN_9_RD_12_1.png"]],"dist500_C":[["C_Dist_500_LN_10_LD_13_RN_7_RD_26_0.png","C_Dist_500_LN_10_LD_15_RN_4_RD_24_0.png","C_Dist_500_LN_12_LD_16_RN_3_RD_12_0.png","C_Dist_500_LN_12_LD_18_RN_4_RD_24_0.png","C_Dist_500_LN_15_LD_18_RN_5_RD_15_0.png","C_Dist_500_LN_15_LD_20_RN_1_RD_4_0.png","C_Dist_500_LN_18_LD_27_RN_1_RD_6_0.png","C_Dist_500_LN_20_LD_24_RN_1_RD_3_0.png","C_Dist_500_LN_20_LD_24_RN_3_RD_9_0.png","C_Dist_500_LN_20_LD_24_RN_7_RD_21_0.png","C_Dist_500_LN_20_LD_28_RN_3_RD_14_0.png","C_Dist_500_LN_21_LD_28_RN_6_RD_24_0.png","C_Dist_500_LN_22_LD_28_RN_2_RD_7_0.png","C_Dist_500_LN_25_LD_30_RN_9_RD_27_0.png","C_Dist_500_LN_4_LD_6_RN_1_RD_6_0.png","C_Dist_500_LN_5_LD_6_RN_2_RD_6_0.png","C_Dist_500_LN_6_LD_9_RN_1_RD_6_0.png","C_Dist_500_LN_7_LD_10_RN_1_RD_5_0.png","C_Dist_500_LN_8_LD_12_RN_1_RD_6_0.png","C_Dist_500_LN_8_LD_12_RN_4_RD_24_0.png"],["C_Dist_500_LN_1_LD_4_RN_12_RD_16_1.png","C_Dist_500_LN_1_LD_4_RN_9_RD_12_1.png","C_Dist_500_LN_1_LD_9_RN_11_RD_18_1.png","C_Dist_500_LN_10_LD_24_RN_22_RD_24_1.png","C_Dist_500_LN_2_LD_12_RN_10_RD_15_1.png","C_Dist_500_LN_2_LD_12_RN_12_RD_18_1.png","C_Dist_500_LN_2_LD_12_RN_4_RD_6_1.png","C_Dist_500_LN_2_LD_24_RN_7_RD_12_1.png","C_Dist_500_LN_2_LD_5_RN_18_RD_20_1.png","C_Dist_500_LN_2_LD_5_RN_9_RD_10_1.png","C_Dist_500_LN_2_LD_8_RN_12_RD_16_1.png","C_Dist_500_LN_2_LD_8_RN_21_RD_28_1.png","C_Dist_500_LN_3_LD_10_RN_4_RD_5_1.png","C_Dist_500_LN_3_LD_12_RN_15_RD_20_1.png","C_Dist_500_LN_3_LD_30_RN_6_RD_10_1.png","C_Dist_500_LN_3_LD_8_RN_14_RD_16_1.png","C_Dist_500_LN_4_LD_16_RN_15_RD_20_1.png","C_Dist_500_LN_4_LD_24_RN_12_RD_18_1.png","C_Dist_500_LN_5_LD_14_RN_6_RD_7_1.png","C_Dist_500_LN_7_LD_21_RN_20_RD_24_1.png","C_Dist_500_LN_7_LD_28_RN_12_RD_16_1.png","C_Dist_500_LN_7_LD_28_RN_9_RD_12_1.png","C_Dist_500_LN_9_LD_27_RN_20_RD_24_1.png"]],"dist500_I":[["I_Dist_500_LN_2_LD_3_RN_4_RD_24_0.png","I_Dist_500_LN_5_LD_6_RN_6_RD_18_0.png","I_Dist_500_LN_7_LD_8_RN_9_RD_24_0.png"],["I_Dist_500_LN_7_LD_21_RN_5_RD_6_1.png"]],"dist500_S":[["E_Dist_500_LN_6_LD_8_RN_6_RD_24_0.png"],["E_Dist_500_LN_2_LD_12_RN_2_RD_3_1.png","E_Dist_500_LN_6_LD_24_RN_6_RD_8_1.png"]]}},{"start_time":1551793954874,"click_time":1551793959525,"finger_time":1551793956582,"fix_duration":1449.7156691107434,"trial":1,"RT":1708,"MT":2943,"sideResp":2,"stimulus":[],"xmouse":[785,785,785,785,785,785,785,785,785,785,786,787,787,787,787,787,787,787,787,787,787,787,787,787,787,787,787,787,787,787,787,787,787,787,787,787,787,787,787,787,787,787,787,787,787,787,787,787,787,787,787,787,787,787,787,787,787,787,787,787,787,787,787,787,787,787,787,787,787,787,787,787,787,787,787,787,787,787,787,787,787,788,789,792,816,850,884,916,974,990,1000,1008,1019,1038,1060,1060,1077,1087,1090,1093,1093,1093,1093,1093,1093,1090,1081,1074,1063,1045,1038,1032,1017,1014,986,969,954,938,919,901,895,893,889,880,872,865,857,847,832,826,822,819,816,806,798,792,790,787,786,786,786,786,786,786,786,786,786,786,786,786,786,786,786,786,786,786,786,786,786,786,786,786,786,786,786,786,786,786,786,786,786,786,786,786,786,786,786,786,786,786,786,786,786,786,786,786,786,786,786,786,786,786,786,786,786,786,786,786,786,786,786,786,786,786,787,792,799,811,829,870,892,916,968,980,1024,1038,1045,1047,1047,1047,1047,1050,1052,1058,1059,1059,1059,1059,1061,1065,1071,1076,1081],"ymouse":[478,476,476,476,476,476,476,476,476,476,476,476,476,477,477,477,477,477,477,477,477,477,477,477,477,477,477,477,477,477,477,477,477,478,478,478,478,478,478,478,478,478,478,478,478,478,478,478,478,478,478,478,478,478,478,478,478,478,478,478,478,478,478,478,478,478,478,478,478,478,478,478,478,478,478,478,478,478,478,478,478,478,478,478,467,452,435,409,354,327,309,295,281,265,252,252,236,222,210,197,194,194,194,194,195,199,205,212,220,241,252,261,275,280,308,323,338,351,364,376,379,380,383,397,404,411,417,423,435,442,448,453,458,465,472,476,480,485,491,492,492,492,492,492,492,492,492,492,492,492,492,492,492,492,492,492,492,492,492,492,492,492,492,492,492,492,492,492,492,492,492,492,492,492,492,492,492,492,492,492,492,492,492,492,492,492,492,492,492,492,492,492,492,492,492,492,492,492,492,492,492,492,492,492,488,483,477,467,454,423,407,391,359,351,308,289,269,244,185,163,151,142,133,120,118,118,118,118,118,116,111,106,97],"timestamp_mouse":[11,33,48,68,88,108,129,149,169,188,208,228,250,270,290,310,328,348,368,388,408,428,448,468,489,509,529,550,569,590,609,628,649,669,688,709,728,749,769,790,808,830,849,870,890,909,928,950,969,989,1010,1029,1050,1069,1089,1108,1130,1149,1168,1190,1208,1230,1249,1268,1289,1310,1328,1350,1368,1389,1408,1430,1450,1469,1488,1510,1529,1550,1568,1589,1609,1628,1650,1668,1689,1708,1728,1750,1769,1788,1808,1829,1849,1870,1888,1908,1928,1950,1968,1988,2010,2030,2049,2070,2089,2108,2128,2148,2168,2188,2209,2229,2248,2268,2288,2309,2328,2348,2368,2388,2409,2429,2448,2470,2489,2508,2528,2548,2570,2588,2609,2629,2649,2669,2689,2708,2730,2749,2769,2789,2809,2828,2849,2869,2889,2908,2930,2949,2970,2989,3009,3029,3049,3068,3089,3109,3128,3149,3169,3188,3210,3229,3248,3269,3288,3310,3328,3348,3369,3389,3410,3428,3449,3469,3488,3508,3529,3548,3569,3590,3609,3630,3649,3669,3688,3710,3728,3750,3769,3789,3809,3829,3849,3868,3890,3909,3929,3950,3970,3989,4010,4030,4048,4068,4088,4108,4129,4148,4168,4188,4209,4229,4248,4268,4289,4309,4329,4349,4369,4388,4408,4429,4449,4469,4488,4509,4529,4549,4570,4588,4609,4629,4650],"xSR":741.5,"ySR":449.15000000000003,"xT1":424.9,"yT1":0,"xT2":1058.1,"yT2":0,"toosoon":0,"cond_shown":"Congruent","ratio_trial":100,"L_num":4,"L_den":8,"R_num":6,"R_den":10,"correct_side":2,"subjID":"paulajulianapuentesayala13","gender":"1","school":"6","age":"10"},{"start_time":1551793962918,"click_time":1551793964863,"finger_time":1551793964382,"fix_duration":372.5440937387702,"trial":2,"RT":1464,"MT":481,"sideResp":2,"stimulus":[],"xmouse":[790,790,790,790,790,790,790,790,790,790,790,790,790,790,790,790,790,790,790,790,790,790,790,790,790,790,790,790,790,790,790,790,790,790,790,790,790,790,790,790,790,790,790,790,790,790,790,790,790,790,790,790,790,790,790,790,790,790,790,790,790,790,790,790,790,790,790,790,790,790,790,801,819,837,863,889,913,946,953,961,968,977,998,1003,1004,1004,1004,1007,1010,1011,1012,1016,1018,1020,1026,1033,1048,1059],"ymouse":[500,500,500,500,500,500,500,500,500,500,500,500,500,500,500,500,500,500,500,500,500,500,500,500,500,500,500,500,500,500,500,500,500,500,500,500,500,500,500,500,500,500,500,500,500,500,500,500,500,500,500,500,500,500,500,500,500,500,500,500,500,500,500,500,500,500,500,500,500,500,498,483,464,437,405,367,333,275,254,236,218,200,170,163,156,149,130,121,114,111,110,107,106,104,101,100,97,92],"timestamp_mouse":[11,25,45,65,86,105,125,145,164,185,205,224,245,264,285,304,325,346,364,385,405,424,446,465,486,505,525,546,564,586,606,625,646,665,686,706,724,745,766,784,805,826,845,865,886,906,926,945,966,985,1004,1025,1046,1066,1085,1104,1126,1146,1165,1185,1206,1225,1245,1266,1284,1306,1326,1345,1365,1384,1405,1425,1445,1464,1484,1505,1524,1544,1564,1585,1604,1624,1646,1664,1686,1705,1725,1744,1765,1786,1806,1826,1845,1865,1885,1906,1925,1944],"xSR":741.5,"ySR":449.15000000000003,"xT1":424.9,"yT1":0,"xT2":1058.1,"yT2":0,"toosoon":0,"cond_shown":"Congruent","ratio_trial":100,"L_num":4,"L_den":8,"R_num":6,"R_den":10,"correct_side":2,"subjID":"paulajulianapuentesayala13","gender":"1","school":"6","age":"10"},{"start_time":1551793967768,"click_time":1551793969582,"finger_time":1551793969243,"fix_duration":1424.1214858590988,"trial":3,"RT":1475,"MT":339,"sideResp":1,"stimulus":[],"xmouse":[786,786,786,786,786,786,786,786,786,786,786,786,786,786,786,786,786,786,786,786,786,786,786,786,786,786,786,786,786,786,786,786,786,786,786,786,786,786,786,786,786,786,786,786,786,786,786,786,786,786,786,786,786,786,786,786,786,786,786,786,786,786,786,786,786,786,786,786,786,786,786,791,805,833,837,830,815,803,782,778,773,764,755,731,718,697,673,646,579,551,521],"ymouse":[492,492,492,492,492,492,492,492,492,492,492,492,492,492,492,492,492,492,492,492,492,492,492,492,492,492,492,492,492,492,492,492,492,492,492,492,492,492,492,492,492,492,492,492,492,492,492,492,492,492,492,492,492,492,492,492,492,492,492,492,492,492,492,492,492,492,492,492,492,492,492,488,473,426,395,362,336,322,291,284,271,253,235,188,166,139,119,100,68,58,54],"timestamp_mouse":[15,36,55,80,95,116,134,154,175,196,214,234,256,275,295,316,335,354,376,396,414,434,454,474,494,515,534,556,574,594,616,635,654,676,694,714,735,755,775,795,815,834,856,876,895,915,934,954,975,995,1015,1034,1055,1074,1095,1114,1136,1154,1175,1196,1216,1235,1256,1276,1295,1316,1334,1355,1375,1395,1414,1434,1455,1475,1494,1514,1535,1555,1575,1594,1615,1636,1655,1675,1694,1714,1734,1755,1775,1795,1814],"xSR":741.5,"ySR":449.15000000000003,"xT1":424.9,"yT1":0,"xT2":1058.1,"yT2":0,"toosoon":0,"cond_shown":"Congruent","ratio_trial":200,"L_num":16,"L_den":30,"R_num":9,"R_den":27,"correct_side":1,"subjID":"paulajulianapuentesayala13","gender":"1","school":"6","age":"10"},{"start_time":1551793972024,"click_time":1551793973262,"finger_time":1551793972763,"fix_duration":1340.3833790350122,"trial":4,"RT":739,"MT":499,"sideResp":2,"stimulus":[],"xmouse":[792,792,792,792,792,792,792,792,792,792,792,792,792,792,792,792,792,792,792,792,792,792,792,792,792,792,792,792,792,792,792,792,792,793,796,810,858,879,903,927,982,1003,1022,1033,1039,1040,1040,1042,1044,1045,1046,1048,1050,1050,1050,1050,1050,1050,1050,1051,1052,1060],"ymouse":[488,488,488,488,488,488,488,488,488,488,488,488,488,488,488,488,488,488,488,488,488,488,488,488,488,488,488,488,488,488,488,488,488,488,483,460,408,379,344,307,228,193,164,150,143,137,134,132,130,126,124,117,113,111,111,111,111,111,110,109,105,91],"timestamp_mouse":[33,38,59,80,98,119,140,159,178,198,219,238,259,279,300,318,340,358,379,399,420,438,458,480,498,519,538,560,579,598,619,638,659,678,698,720,739,759,780,798,819,838,858,878,898,918,938,958,978,998,1018,1038,1059,1079,1099,1119,1139,1159,1179,1198,1218,1238],"xSR":741.5,"ySR":449.15000000000003,"xT1":424.9,"yT1":0,"xT2":1058.1,"yT2":0,"toosoon":0,"cond_shown":"Incongruent","ratio_trial":200,"L_num":1,"L_den":3,"R_num":2,"R_den":15,"correct_side":1,"subjID":"paulajulianapuentesayala13","gender":"1","school":"6","age":"10"},{"start_time":1551793975140,"click_time":1551793976484,"finger_time":1551793975964,"fix_duration":475.85879753145286,"trial":5,"RT":824,"MT":520,"sideResp":1,"stimulus":[],"xmouse":[789,789,789,789,789,789,789,789,789,789,789,789,789,789,789,789,789,789,789,789,789,789,789,789,789,789,789,789,789,789,789,789,789,789,789,788,786,782,777,773,768,741,725,704,678,624,599,594,579,572,571,571,571,571,571,571,573,573,574,574,574,569,566,564,562,558,540,519],"ymouse":[505,505,505,505,505,505,505,505,505,505,505,505,505,505,505,505,505,505,505,505,505,505,505,505,505,505,505,505,505,505,505,505,505,505,505,500,497,486,477,467,454,402,375,346,311,244,219,206,187,174,167,160,155,153,146,134,127,117,106,96,85,75,73,72,71,67,59,50],"timestamp_mouse":[10,37,44,63,82,103,122,143,163,182,203,223,243,263,282,304,323,342,364,383,402,423,442,463,483,502,522,543,562,584,603,623,642,663,682,703,722,743,763,783,804,824,843,862,882,904,922,943,962,983,1003,1024,1043,1063,1082,1104,1123,1142,1162,1182,1202,1223,1242,1263,1282,1303,1322,1344],"xSR":741.5,"ySR":449.15000000000003,"xT1":424.9,"yT1":0,"xT2":1058.1,"yT2":0,"toosoon":0,"cond_shown":"Congruent","ratio_trial":200,"L_num":6,"L_den":12,"R_num":7,"R_den":10,"correct_side":2,"subjID":"paulajulianapuentesayala13","gender":"1","school":"6","age":"10"},{"start_time":1551793978871,"click_time":1551793981343,"finger_time":1551793979283,"fix_duration":987.5711408658464,"trial":6,"RT":412,"MT":2060,"sideResp":2,"stimulus":[],"xmouse":[772,772,772,772,772,772,772,772,772,772,772,772,772,772,772,772,773,774,782,789,800,807,814,826,870,881,887,889,891,897,905,914,927,980,1010,1039,1060,1070,1073,1073,1073,1073,1073,1073,1073,1072,1071,1068,1059,1053,1045,1040,1033,1026,1000,987,975,970,967,964,962,958,954,936,909,892,876,865,848,847,847,847,845,840,840,840,838,834,814,809,806,805,805,805,805,805,805,805,805,805,805,805,805,805,805,805,805,805,805,805,805,805,805,805,806,815,829,845,884,903,920,936,951,984,1011,1025,1035,1041,1048,1051,1052,1056,1060,1075],"ymouse":[505,505,505,505,505,505,505,505,505,505,505,505,505,505,505,505,502,500,481,466,447,432,413,392,332,315,306,304,297,289,280,271,262,223,202,186,170,160,155,150,149,149,149,149,149,149,149,151,163,172,181,192,208,228,272,289,315,333,343,351,353,357,362,371,409,431,450,466,482,483,483,483,484,486,486,486,486,486,486,486,486,486,486,486,486,486,486,486,486,486,486,486,486,486,486,486,486,486,486,486,486,486,486,486,479,468,449,425,366,337,306,279,245,195,163,153,141,132,121,119,115,110,104,91],"timestamp_mouse":[12,36,52,71,91,112,133,151,172,192,211,232,252,272,291,313,332,352,372,391,412,432,452,471,491,511,533,552,572,591,611,631,652,672,692,711,733,751,771,791,811,831,852,872,891,912,933,952,972,991,1012,1031,1051,1071,1091,1111,1131,1151,1172,1192,1212,1233,1253,1271,1292,1311,1332,1352,1372,1391,1411,1432,1453,1472,1492,1511,1532,1551,1572,1591,1612,1632,1651,1672,1693,1713,1732,1751,1772,1791,1811,1833,1851,1871,1893,1911,1931,1952,1971,1991,2011,2032,2052,2072,2092,2111,2131,2151,2172,2192,2212,2232,2252,2272,2292,2311,2331,2352,2373,2391,2412,2433,2452,2472],"xSR":741.5,"ySR":449.15000000000003,"xT1":424.9,"yT1":0,"xT2":1058.1,"yT2":0,"toosoon":0,"cond_shown":"Incongruent","ratio_trial":100,"L_num":8,"L_den":16,"R_num":6,"R_den":10,"correct_side":2,"subjID":"paulajulianapuentesayala13","gender":"1","school":"6","age":"10"},{"start_time":1551793984116,"click_time":1551793985123,"finger_time":1551793985002,"fix_duration":1453.8758408384665,"trial":7,"RT":886,"MT":121,"sideResp":1,"stimulus":[],"xmouse":[785,785,785,784,784,784,784,784,784,784,784,784,784,784,784,784,784,784,783,781,781,779,778,778,778,777,777,777,777,777,777,777,777,777,777,777,777,777,777,777,776,776,765,748,725,689,591,555,524,488,426],"ymouse":[501,501,501,501,501,501,503,503,503,503,503,503,503,503,503,503,503,503,503,502,501,494,490,488,486,483,482,482,482,482,482,482,482,482,482,482,482,482,482,482,481,480,468,451,424,391,302,259,217,164,79],"timestamp_mouse":[9,34,47,68,86,106,126,147,168,186,208,227,246,268,288,306,327,346,366,386,407,427,448,467,487,506,526,547,567,587,607,626,646,666,688,706,727,747,767,787,806,826,846,866,886,907,928,946,966,986,1007],"xSR":741.5,"ySR":449.15000000000003,"xT1":424.9,"yT1":0,"xT2":1058.1,"yT2":0,"toosoon":0,"cond_shown":"Congruent","ratio_trial":100,"L_num":10,"L_den":25,"R_num":3,"R_den":10,"correct_side":1,"subjID":"paulajulianapuentesayala13","gender":"1","school":"6","age":"10"},{"start_time":1551793987874,"click_time":1551793989644,"finger_time":1551793988982,"fix_duration":1410.080306265006,"trial":8,"RT":1108,"MT":662,"sideResp":2,"stimulus":[],"xmouse":[788,788,788,788,788,788,788,786,785,784,784,784,784,784,784,784,784,784,784,784,784,784,784,784,784,784,784,784,784,784,784,784,784,784,784,784,784,783,783,783,783,783,783,783,783,783,783,783,783,784,787,791,796,805,812,813,822,830,853,858,863,867,870,883,889,898,906,912,927,937,951,968,984,1008,1027,1031,1033,1035,1037,1038,1039,1040,1043,1044,1048,1049,1051,1055,1067],"ymouse":[508,508,508,508,508,508,508,508,508,507,507,507,507,507,507,507,507,507,507,507,507,507,507,507,507,507,507,507,507,507,507,507,507,507,507,507,507,506,504,504,504,504,504,504,504,504,503,502,495,490,484,478,473,464,455,446,433,417,380,365,352,343,336,309,296,282,271,260,240,228,216,203,192,174,157,151,148,145,141,136,135,130,126,121,109,104,98,90,77],"timestamp_mouse":[11,33,48,68,90,109,129,148,169,190,209,229,249,270,288,309,329,349,369,388,408,429,448,469,488,508,530,548,568,588,608,630,648,668,689,709,730,748,770,790,809,830,850,869,890,910,929,948,969,988,1008,1029,1049,1069,1089,1108,1128,1150,1169,1188,1209,1229,1248,1269,1288,1308,1330,1350,1369,1388,1408,1428,1449,1468,1489,1509,1529,1549,1569,1590,1608,1628,1648,1669,1688,1708,1729,1748,1770],"xSR":741.5,"ySR":449.15000000000003,"xT1":424.9,"yT1":0,"xT2":1058.1,"yT2":0,"toosoon":0,"cond_shown":"Congruent","ratio_trial":100,"L_num":15,"L_den":25,"R_num":13,"R_den":26,"correct_side":1,"subjID":"paulajulianapuentesayala13","gender":"1","school":"6","age":"10"},{"start_time":1551793991069,"click_time":1551793992383,"finger_time":1551793991582,"fix_duration":304.1936574245406,"trial":9,"RT":513,"MT":801,"sideResp":1,"stimulus":[],"xmouse":[765,765,765,765,765,765,765,765,766,767,767,767,767,767,767,767,767,767,767,767,767,767,767,767,757,747,732,720,703,657,636,612,594,557,531,505,489,486,486,488,494,497,499,503,504,508,510,511,511,511,511,511,511,510,508,501,499,495,490,489,488,487,487,486,486,484],"ymouse":[514,514,514,514,514,514,514,517,517,518,518,518,518,518,518,518,518,518,518,518,514,509,504,495,460,432,401,372,346,308,296,286,279,266,254,244,235,232,228,227,224,221,216,202,193,184,174,165,153,150,147,146,145,139,137,131,129,126,120,117,116,114,112,102,100,93],"timestamp_mouse":[31,33,53,73,94,113,133,155,173,194,213,235,253,274,293,313,335,354,374,393,413,434,454,474,493,513,534,554,573,593,614,634,655,674,694,714,734,753,775,793,813,833,853,874,893,913,933,953,974,993,1014,1034,1054,1074,1093,1113,1133,1153,1174,1194,1213,1233,1255,1274,1293,1313],"xSR":741.5,"ySR":449.15000000000003,"xT1":424.9,"yT1":0,"xT2":1058.1,"yT2":0,"toosoon":0,"cond_shown":"Congruent","ratio_trial":100,"L_num":11,"L_den":22,"R_num":4,"R_den":10,"correct_side":1,"subjID":"paulajulianapuentesayala13","gender":"1","school":"6","age":"10"},{"start_time":1551793994817,"click_time":1551793995604,"finger_time":1551793995165,"fix_duration":1431.0803204613649,"trial":10,"RT":348,"MT":439,"sideResp":1,"stimulus":[],"xmouse":[765,765,765,765,765,765,765,765,765,765,765,765,765,765,765,765,765,761,746,727,710,685,675,665,653,637,602,597,594,591,588,582,578,575,568,560,548,539,530,514],"ymouse":[468,468,468,468,468,468,468,468,468,468,468,468,467,464,463,461,450,439,422,407,389,352,326,300,274,250,207,203,199,193,183,153,136,119,103,92,77,65,56,45],"timestamp_mouse":[10,30,49,68,88,109,128,147,168,189,207,229,248,267,287,309,328,348,368,388,408,429,447,467,488,508,528,547,568,588,607,628,647,667,689,709,728,748,768,787],"xSR":741.5,"ySR":449.15000000000003,"xT1":424.9,"yT1":0,"xT2":1058.1,"yT2":0,"toosoon":0,"cond_shown":"Incongruent","ratio_trial":300,"L_num":4,"L_den":20,"R_num":2,"R_den":4,"correct_side":2,"subjID":"paulajulianapuentesayala13","gender":"1","school":"6","age":"10"},{"start_time":1551793997818,"click_time":1551793998545,"finger_time":1551793998184,"fix_duration":852.6374704595559,"trial":11,"RT":366,"MT":361,"sideResp":2,"stimulus":[],"xmouse":[806,807,807,807,807,807,807,807,807,807,807,807,807,807,807,808,819,825,832,836,845,884,919,951,988,1014,1032,1040,1042,1044,1044,1044,1045,1047,1050,1057,1071],"ymouse":[488,487,486,486,486,486,486,486,486,486,486,486,486,486,486,483,468,460,449,436,416,350,301,253,209,174,155,141,139,138,137,134,132,129,118,103,70],"timestamp_mouse":[8,34,47,67,86,106,128,146,167,187,207,226,248,267,286,307,327,347,366,387,407,427,446,466,487,506,526,547,567,588,608,627,647,666,688,707,727],"xSR":741.5,"ySR":449.15000000000003,"xT1":424.9,"yT1":0,"xT2":1058.1,"yT2":0,"toosoon":0,"cond_shown":"Incongruent","ratio_trial":300,"L_num":4,"L_den":5,"R_num":8,"R_den":16,"correct_side":1,"subjID":"paulajulianapuentesayala13","gender":"1","school":"6","age":"10"},{"start_time":1551794000033,"click_time":1551794001265,"finger_time":1551794000565,"fix_duration":308.5431426756663,"trial":12,"RT":532,"MT":700,"sideResp":2,"stimulus":[],"xmouse":[833,833,833,833,833,833,833,833,833,833,833,833,833,833,833,833,833,833,833,833,830,830,830,830,830,828,842,853,868,875,890,903,914,929,945,988,1003,1011,1019,1020,1025,1026,1031,1034,1037,1040,1042,1040,1034,1027,1023,1023,1022,1022,1022,1022,1022,1022,1022,1024,1033,1060],"ymouse":[511,511,511,511,511,511,511,511,511,511,511,511,511,511,511,511,511,511,510,509,492,483,475,468,463,456,425,409,390,377,357,339,322,303,281,228,214,200,191,184,165,153,140,128,115,103,76,69,62,57,57,57,57,57,57,57,57,57,57,57,57,59],"timestamp_mouse":[16,32,52,72,92,112,132,152,172,192,212,232,252,272,292,311,332,353,371,391,412,431,451,472,492,511,532,551,572,592,612,631,652,672,692,712,731,751,771,791,813,831,851,871,891,911,932,951,972,992,1013,1031,1052,1072,1092,1113,1132,1152,1172,1191,1211,1231],"xSR":741.5,"ySR":449.15000000000003,"xT1":424.9,"yT1":0,"xT2":1058.1,"yT2":0,"toosoon":0,"cond_shown":"Congruent","ratio_trial":200,"L_num":1,"L_den":2,"R_num":21,"R_den":30,"correct_side":2,"subjID":"paulajulianapuentesayala13","gender":"1","school":"6","age":"10"},{"start_time":1551794005208,"click_time":1551794005945,"finger_time":1551794005645,"fix_duration":301.388905500145,"trial":13,"RT":437,"MT":300,"sideResp":2,"stimulus":[],"xmouse":[814,813,813,813,813,813,813,813,813,813,813,813,813,814,814,817,821,821,821,821,824,835,845,859,875,892,939,960,978,996,1012,1031,1035,1040,1045,1052,1064],"ymouse":[497,497,497,497,497,497,497,497,497,497,497,497,497,495,494,492,487,481,475,464,452,409,388,364,335,306,241,214,189,167,146,118,106,93,80,67,48],"timestamp_mouse":[16,38,56,78,98,117,136,156,177,197,216,238,257,277,297,316,337,357,376,397,417,437,456,477,497,517,537,556,577,597,616,638,656,676,696,717,737],"xSR":741.5,"ySR":449.15000000000003,"xT1":424.9,"yT1":0,"xT2":1058.1,"yT2":0,"toosoon":0,"cond_shown":"Incongruent","ratio_trial":200,"L_num":4,"L_den":6,"R_num":14,"R_den":30,"correct_side":1,"subjID":"paulajulianapuentesayala13","gender":"1","school":"6","age":"10"},{"start_time":1551794008284,"click_time":1551794008945,"finger_time":1551794008645,"fix_duration":698.1335317155233,"trial":14,"RT":361,"MT":300,"sideResp":2,"stimulus":[],"xmouse":[784,784,784,784,784,784,784,784,784,784,784,784,786,787,791,797,804,816,845,861,880,901,922,978,998,1011,1021,1032,1053,1063,1076,1086,1095,1107],"ymouse":[509,509,509,509,509,509,509,509,509,509,509,509,508,507,504,499,493,484,452,428,401,372,343,276,258,239,225,211,181,167,153,139,126,98],"timestamp_mouse":[8,31,42,62,80,102,121,142,160,181,202,221,240,260,281,301,321,341,361,381,400,420,441,462,480,501,521,541,561,580,600,621,641,661],"xSR":741.5,"ySR":449.15000000000003,"xT1":424.9,"yT1":0,"xT2":1058.1,"yT2":0,"toosoon":0,"cond_shown":"Incongruent","ratio_trial":200,"L_num":3,"L_den":4,"R_num":11,"R_den":20,"correct_side":1,"subjID":"paulajulianapuentesayala13","gender":"1","school":"6","age":"10"},{"start_time":1551794010497,"click_time":1551794011346,"finger_time":1551794011045,"fix_duration":391.7632745023385,"trial":15,"RT":548,"MT":301,"sideResp":2,"stimulus":[],"xmouse":[785,785,785,785,785,785,785,785,785,785,785,785,785,785,785,785,785,785,785,785,785,785,786,790,796,807,826,850,864,879,887,899,938,957,976,995,1009,1029,1034,1040,1047,1052,1068],"ymouse":[483,483,483,483,483,483,483,483,483,483,483,483,483,483,483,483,483,483,483,483,483,483,483,481,478,468,455,440,430,418,404,390,339,315,283,252,225,174,153,133,115,102,86],"timestamp_mouse":[9,34,48,68,88,108,129,148,168,187,209,227,248,269,288,307,327,348,368,387,409,428,447,468,487,508,528,548,568,588,608,627,649,667,688,709,728,748,767,788,808,828,848],"xSR":741.5,"ySR":449.15000000000003,"xT1":424.9,"yT1":0,"xT2":1058.1,"yT2":0,"toosoon":0,"cond_shown":"Incongruent","ratio_trial":100,"L_num":9,"L_den":10,"R_num":20,"R_den":25,"correct_side":1,"subjID":"paulajulianapuentesayala13","gender":"1","school":"6","age":"10"},{"start_time":1551794013072,"click_time":1551794017624,"finger_time":1551794013464,"fix_duration":345.7449779169042,"trial":16,"RT":392,"MT":4160,"sideResp":1,"stimulus":[],"xmouse":[809,809,809,809,809,809,809,809,809,809,809,809,809,809,809,809,812,823,840,851,878,899,930,1003,1017,1021,1025,1026,1026,1026,1026,1022,1012,996,897,846,792,746,678,656,640,624,611,569,554,533,512,490,466,466,481,498,525,548,562,563,565,568,569,571,571,572,572,573,573,573,573,573,569,565,563,560,557,540,532,527,527,527,527,527,527,527,524,531,536,543,548,551,556,561,567,572,577,586,620,637,649,660,679,698,734,768,804,836,852,852,852,847,844,841,840,839,836,834,823,819,818,818,818,815,813,811,807,805,805,804,802,799,797,796,794,793,792,790,790,790,790,790,790,790,790,790,790,790,790,790,790,790,789,787,787,787,787,787,787,787,787,787,787,787,787,787,787,787,787,787,787,787,785,784,784,784,783,783,783,783,783,783,783,783,783,784,784,788,788,788,788,788,788,788,788,788,788,788,788,788,788,788,788,788,788,788,788,788,788,788,788,788,788,783,777,766,749,694,662,630,592,561,514,505,504,504,504,504,504,504,505,507],"ymouse":[513,513,513,513,513,513,513,513,513,513,513,513,513,513,512,510,507,499,486,471,446,414,376,281,255,235,220,210,203,195,194,194,191,191,191,199,208,226,262,280,301,323,342,398,419,446,476,515,589,616,635,655,671,681,681,681,677,673,668,664,662,660,659,659,659,659,659,659,659,659,661,664,667,680,685,689,689,689,689,689,689,689,683,658,641,625,612,605,594,580,577,576,576,576,599,614,626,632,634,633,620,610,593,567,531,514,498,485,477,472,472,472,472,472,473,474,474,474,474,476,476,477,479,480,481,481,482,484,489,491,495,497,498,500,500,500,500,500,500,500,500,500,500,500,500,500,500,501,502,503,503,503,503,503,503,503,503,503,503,503,503,503,503,503,503,503,503,503,503,503,503,503,503,503,503,503,503,503,503,503,503,502,501,498,498,498,498,498,498,498,498,498,500,500,500,500,500,500,500,500,500,500,500,500,500,500,500,500,498,489,476,462,441,364,319,276,233,196,134,122,118,117,117,111,107,105,102,99],"timestamp_mouse":[13,38,53,73,94,114,133,152,173,193,213,232,253,274,293,312,334,353,373,392,412,433,453,473,492,512,534,553,573,592,613,633,652,673,694,712,733,753,774,792,813,833,853,873,892,913,934,953,974,992,1014,1033,1054,1072,1094,1112,1133,1153,1172,1193,1213,1234,1254,1273,1293,1312,1334,1352,1373,1393,1414,1433,1452,1473,1492,1513,1532,1553,1572,1592,1612,1633,1653,1673,1693,1712,1734,1753,1773,1793,1813,1833,1852,1873,1893,1912,1933,1952,1974,1992,2013,2033,2054,2073,2092,2112,2132,2154,2173,2192,2213,2233,2253,2272,2294,2314,2334,2353,2373,2392,2413,2433,2452,2473,2494,2512,2533,2552,2573,2592,2613,2633,2654,2673,2693,2714,2733,2753,2774,2794,2812,2833,2854,2873,2894,2913,2933,2952,2973,2994,3013,3033,3054,3074,3092,3113,3133,3153,3172,3194,3212,3232,3253,3272,3294,3314,3332,3352,3373,3393,3412,3434,3453,3474,3493,3514,3533,3552,3574,3592,3612,3632,3653,3673,3693,3713,3732,3754,3774,3792,3814,3833,3853,3873,3894,3913,3933,3952,3973,3994,4014,4032,4053,4073,4094,4114,4133,4153,4173,4192,4213,4232,4252,4274,4292,4312,4332,4354,4373,4392,4413,4432,4453,4473,4494,4512,4532,4552],"xSR":741.5,"ySR":449.15000000000003,"xT1":424.9,"yT1":0,"xT2":1058.1,"yT2":0,"toosoon":0,"cond_shown":"Congruent","ratio_trial":200,"L_num":8,"L_den":15,"R_num":3,"R_den":9,"correct_side":1,"subjID":"paulajulianapuentesayala13","gender":"1","school":"6","age":"10"},{"start_time":1551794020007,"click_time":1551794021566,"finger_time":1551794020605,"fix_duration":1239.6187779876402,"trial":17,"RT":598,"MT":961,"sideResp":2,"stimulus":[],"xmouse":[787,787,787,787,787,787,787,787,787,787,787,787,787,787,787,787,787,787,787,787,787,787,785,783,779,775,763,760,756,751,744,734,718,713,713,715,735,745,759,770,787,822,844,866,886,901,933,942,955,964,975,993,999,1005,1007,1010,1014,1017,1021,1024,1030,1040,1044,1050,1054,1062,1082,1090,1095,1098,1099,1099,1098,1097,1097,1095,1094,1094],"ymouse":[514,514,514,514,514,514,514,514,514,514,514,514,514,514,514,514,514,514,514,514,514,513,511,509,505,498,477,469,460,449,434,417,386,373,363,350,321,309,301,296,291,291,292,295,297,299,298,292,286,281,273,258,254,250,246,243,236,233,227,222,216,201,196,190,184,179,162,156,152,147,145,144,141,140,135,128,107,98],"timestamp_mouse":[18,39,58,79,98,118,137,158,179,199,219,238,257,278,298,318,337,358,378,397,419,438,457,477,498,518,538,558,577,598,618,638,657,678,699,718,738,758,777,798,818,839,857,877,898,918,938,958,977,999,1019,1038,1057,1079,1098,1118,1138,1158,1177,1197,1218,1238,1257,1277,1298,1318,1338,1358,1378,1398,1417,1439,1457,1478,1498,1519,1538,1559],"xSR":741.5,"ySR":449.15000000000003,"xT1":424.9,"yT1":0,"xT2":1058.1,"yT2":0,"toosoon":0,"cond_shown":"Congruent","ratio_trial":200,"L_num":3,"L_den":10,"R_num":11,"R_den":22,"correct_side":2,"subjID":"paulajulianapuentesayala13","gender":"1","school":"6","age":"10"},{"start_time":1551794024484,"click_time":1551794034545,"finger_time":1551794033825,"fix_duration":597.3663051216583,"trial":18,"RT":9341,"MT":720,"sideResp":1,"stimulus":[],"xmouse":[796,796,796,796,796,796,796,795,795,795,795,795,795,795,795,795,795,795,795,795,795,795,795,795,795,795,795,795,795,795,795,795,795,795,795,795,795,795,795,795,795,795,795,795,795,795,795,795,795,795,795,795,795,795,795,795,795,795,793,793,793,793,793,793,793,792,792,792,791,791,791,791,791,791,791,791,791,791,791,791,791,791,791,791,791,791,791,790,787,787,786,786,786,786,786,786,786,786,786,786,786,786,786,786,786,786,786,786,786,786,786,786,786,786,786,786,786,786,786,786,786,786,786,786,786,786,786,786,786,786,786,786,786,786,786,786,786,786,786,786,786,786,786,786,786,786,786,786,786,786,786,786,786,786,786,786,786,786,786,786,786,786,786,786,786,786,786,786,786,786,786,786,786,786,786,786,786,786,786,786,786,786,786,786,786,786,786,786,786,786,786,786,786,786,786,786,786,786,786,786,786,786,786,786,786,786,786,786,786,786,786,786,786,786,786,786,786,786,786,786,786,786,786,786,786,786,786,786,786,786,786,786,786,786,786,786,786,786,786,786,786,786,786,786,786,786,786,786,786,786,786,786,786,786,786,786,786,786,786,786,786,786,786,786,786,786,786,786,786,786,786,786,786,786,786,786,786,786,786,786,786,786,786,786,786,786,786,786,786,786,786,786,786,786,786,786,786,786,786,786,786,786,786,786,786,786,786,786,786,786,786,786,786,786,786,786,786,786,786,786,786,786,786,786,786,786,786,786,786,786,786,786,786,786,786,786,786,786,786,786,786,786,786,786,786,786,786,786,786,786,786,786,786,786,786,786,786,786,786,786,786,786,786,786,786,786,786,786,786,786,786,786,786,786,786,786,786,786,786,786,786,786,786,786,786,786,786,786,786,786,786,786,786,786,786,786,786,786,786,786,786,786,786,786,786,786,786,786,786,786,786,786,786,786,786,786,786,786,786,786,786,786,786,786,786,786,786,786,786,786,786,786,786,786,786,786,786,786,786,786,786,786,786,786,786,786,786,786,786,786,786,786,786,786,786,786,786,786,786,786,786,786,786,786,786,784,748,648,475,436,422,421,421,421,421,421,421,421,421,421,421,421,421,421,421,420,427,437,445,445,445,444,444,474,494,504,507,505,497,496,496,496,496,498],"ymouse":[512,512,511,511,511,511,511,511,511,511,511,511,511,511,511,511,511,511,511,511,511,511,511,511,511,511,511,511,511,511,511,511,511,511,511,511,511,511,511,511,511,511,511,511,510,510,509,509,508,508,508,508,508,508,508,508,508,508,508,508,508,508,508,508,508,508,508,508,508,508,508,508,508,508,508,508,508,508,508,508,508,508,508,508,508,508,508,508,508,508,508,508,508,508,508,508,508,508,508,508,508,508,508,508,508,508,508,508,508,508,508,508,508,508,508,508,508,508,508,508,508,508,508,508,508,508,508,508,508,508,508,508,508,508,508,508,508,508,508,508,508,508,508,508,508,508,508,508,508,508,508,508,508,508,508,508,508,508,508,508,508,508,508,508,508,508,508,508,508,508,508,508,508,508,508,508,508,508,508,508,508,508,508,508,508,508,508,508,508,508,508,508,508,508,508,508,508,508,508,508,508,508,508,508,508,508,508,508,508,508,508,508,508,508,508,508,508,508,508,508,508,508,508,508,508,508,508,508,508,508,508,508,508,508,508,508,508,508,508,508,508,508,508,508,508,508,508,508,508,508,508,508,508,508,508,508,508,508,508,508,508,508,508,508,508,508,508,508,508,508,508,508,508,508,508,508,508,508,508,508,508,508,508,508,508,508,508,508,508,508,508,508,508,508,508,508,508,508,508,508,508,508,508,508,508,508,508,508,508,508,508,508,508,508,508,508,508,508,508,508,508,508,508,508,508,508,508,508,508,508,508,508,508,508,508,508,508,508,508,508,508,508,508,508,508,508,508,508,508,508,508,508,508,508,508,508,508,508,508,508,508,508,508,508,508,508,508,508,508,508,508,508,508,508,508,508,508,508,508,508,508,508,508,508,508,508,508,508,508,508,508,508,508,508,508,508,508,508,508,508,508,508,508,508,508,508,508,508,508,508,508,508,508,508,508,508,508,508,508,508,508,508,508,508,508,508,508,508,508,508,508,508,508,508,508,508,508,508,508,508,508,508,508,508,508,508,508,508,508,508,508,508,508,508,508,508,508,508,508,508,508,508,508,508,508,508,490,439,333,306,298,298,298,298,298,298,298,298,298,298,298,298,298,298,297,273,233,212,197,197,197,198,198,188,173,161,149,135,113,108,105,102,100,84],"timestamp_mouse":[10,21,42,61,82,102,122,141,160,181,202,220,241,260,282,301,321,341,362,380,400,421,442,462,481,502,522,542,561,581,602,620,641,662,682,701,722,741,760,782,801,820,842,860,881,901,922,940,962,981,1002,1022,1042,1060,1081,1102,1121,1140,1161,1180,1201,1222,1240,1262,1281,1301,1321,1341,1360,1381,1400,1420,1441,1460,1482,1500,1521,1541,1560,1582,1600,1620,1641,1660,1682,1702,1720,1740,1762,1781,1800,1820,1840,1862,1880,1901,1922,1941,1962,1981,2002,2020,2042,2061,2080,2101,2122,2142,2162,2181,2201,2221,2242,2261,2280,2302,2321,2342,2360,2381,2402,2421,2441,2462,2480,2501,2521,2542,2561,2580,2600,2622,2640,2660,2680,2700,2720,2740,2761,2782,2801,2820,2842,2860,2881,2900,2922,2941,2961,2982,3002,3021,3041,3060,3080,3100,3120,3141,3161,3182,3202,3220,3242,3261,3281,3301,3321,3341,3361,3380,3402,3422,3440,3462,3481,3500,3520,3542,3562,3580,3600,3621,3640,3662,3682,3701,3721,3742,3761,3780,3801,3822,3841,3862,3881,3901,3922,3941,3961,3981,4002,4022,4041,4061,4081,4101,4121,4142,4162,4181,4201,4221,4240,4261,4282,4302,4321,4341,4361,4380,4402,4420,4441,4462,4480,4502,4522,4541,4560,4582,4601,4622,4640,4660,4680,4701,4722,4741,4760,4782,4802,4821,4841,4860,4882,4902,4922,4941,4962,4981,5001,5022,5041,5061,5080,5100,5121,5140,5161,5180,5201,5220,5241,5262,5282,5301,5321,5342,5360,5380,5402,5421,5441,5460,5482,5502,5521,5542,5562,5581,5601,5622,5642,5661,5682,5701,5722,5741,5760,5782,5801,5822,5841,5860,5882,5901,5920,5940,5962,5982,6001,6021,6041,6062,6080,6100,6121,6141,6160,6181,6202,6220,6241,6261,6281,6302,6321,6341,6360,6381,6402,6421,6442,6461,6482,6501,6522,6541,6561,6582,6600,6621,6641,6662,6681,6701,6722,6742,6761,6781,6802,6821,6840,6860,6882,6902,6921,6941,6961,6981,7002,7020,7041,7061,7080,7101,7122,7140,7161,7182,7200,7221,7241,7262,7281,7302,7321,7342,7361,7382,7401,7421,7442,7460,7480,7501,7521,7541,7562,7581,7601,7622,7640,7660,7682,7700,7720,7742,7760,7782,7800,7821,7841,7861,7881,7901,7920,7940,7961,7981,8001,8021,8041,8061,8081,8101,8120,8140,8162,8182,8200,8222,8242,8261,8281,8302,8320,8341,8361,8381,8400,8421,8440,8461,8481,8500,8522,8541,8560,8581,8602,8622,8641,8660,8681,8701,8722,8742,8761,8781,8802,8820,8840,8862,8881,8901,8920,8941,8960,8981,9002,9020,9041,9062,9080,9101,9121,9141,9161,9180,9201,9222,9241,9261,9280,9300,9321,9341,9361,9380,9400,9421,9442,9461,9481,9500,9522,9542,9561,9582,9602,9622,9641,9661,9680,9701,9722,9741,9762,9780,9801,9821,9840,9861,9880,9900,9921,9941,9962,9980,10000,10022,10053,10061],"xSR":741.5,"ySR":449.15000000000003,"xT1":424.9,"yT1":0,"xT2":1058.1,"yT2":0,"toosoon":0,"cond_shown":"Congruent","ratio_trial":100,"L_num":11,"L_den":22,"R_num":6,"R_den":15,"correct_side":1,"subjID":"paulajulianapuentesayala13","gender":"1","school":"6","age":"10"},{"start_time":1551794036384,"click_time":1551794037105,"finger_time":1551794036984,"fix_duration":437.1224806002635,"trial":19,"RT":600,"MT":121,"sideResp":1,"stimulus":[],"xmouse":[780,780,780,780,780,780,780,780,781,781,781,781,781,782,782,783,785,786,786,786,786,786,786,786,786,786,786,786,769,745,712,681,652,598,557,534,518],"ymouse":[523,523,523,523,523,523,523,523,523,523,523,523,523,522,522,522,521,521,520,520,520,520,520,520,520,518,516,514,486,454,412,372,330,218,149,104,73],"timestamp_mouse":[9,22,45,61,81,101,121,141,161,182,200,221,240,261,280,301,320,341,362,381,400,420,442,461,481,501,521,542,561,581,600,621,640,661,680,700,721],"xSR":741.5,"ySR":449.15000000000003,"xT1":424.9,"yT1":0,"xT2":1058.1,"yT2":0,"toosoon":0,"cond_shown":"Incongruent","ratio_trial":100,"L_num":11,"L_den":22,"R_num":9,"R_den":15,"correct_side":2,"subjID":"paulajulianapuentesayala13","gender":"1","school":"6","age":"10"},{"start_time":1551794039940,"click_time":1551794041245,"finger_time":1551794041065,"fix_duration":1493.7536391839055,"trial":20,"RT":1125,"MT":180,"sideResp":1,"stimulus":[],"xmouse":[801,801,801,801,801,801,801,801,801,801,801,801,801,801,801,801,801,801,801,803,803,803,803,803,803,803,803,803,803,803,803,803,802,801,800,799,799,799,799,799,799,799,799,799,799,799,799,799,799,799,799,799,799,798,794,787,754,722,696,670,629,605,581,557,536,515],"ymouse":[514,514,514,514,514,514,514,514,514,514,514,514,514,513,512,509,507,503,501,498,497,497,497,497,497,497,497,497,497,497,496,494,493,490,488,486,486,486,486,486,486,486,486,486,486,486,486,486,486,486,486,486,486,485,481,473,432,401,367,337,262,227,188,156,124,82],"timestamp_mouse":[10,36,46,64,85,104,126,144,165,186,205,225,244,265,284,305,324,346,364,384,406,426,445,465,485,504,524,545,565,585,606,625,644,666,685,704,726,746,764,786,806,824,845,866,884,905,924,945,965,985,1005,1025,1044,1065,1086,1105,1125,1146,1166,1185,1205,1226,1245,1265,1285,1305],"xSR":741.5,"ySR":449.15000000000003,"xT1":424.9,"yT1":0,"xT2":1058.1,"yT2":0,"toosoon":0,"cond_shown":"Incongruent","ratio_trial":200,"L_num":7,"L_den":10,"R_num":8,"R_den":16,"correct_side":1,"subjID":"paulajulianapuentesayala13","gender":"1","school":"6","age":"10"},{"start_time":1551794043104,"click_time":1551794044204,"finger_time":1551794043985,"fix_duration":537.518966795499,"trial":21,"RT":881,"MT":219,"sideResp":1,"stimulus":[],"xmouse":[783,783,783,783,784,784,784,784,784,785,785,786,787,787,787,787,787,787,787,787,787,787,787,787,787,787,787,787,787,787,789,793,804,808,809,809,809,809,809,809,809,806,799,775,763,753,743,730,694,663,602,578,520,511,505,492],"ymouse":[498,498,498,498,498,498,498,498,498,498,498,498,498,498,498,498,498,498,498,498,498,498,498,498,498,498,498,498,498,498,498,497,490,488,487,487,487,487,487,487,484,482,476,454,442,430,414,385,320,282,223,202,137,117,107,82],"timestamp_mouse":[12,23,41,61,80,101,122,142,160,182,201,221,242,261,281,300,320,342,360,380,400,420,441,461,482,502,520,540,561,581,602,622,640,661,681,701,720,740,761,781,801,820,840,861,881,900,920,940,960,981,1000,1020,1041,1060,1080,1100],"xSR":741.5,"ySR":449.15000000000003,"xT1":424.9,"yT1":0,"xT2":1058.1,"yT2":0,"toosoon":0,"cond_shown":"Incongruent","ratio_trial":200,"L_num":4,"L_den":6,"R_num":14,"R_den":30,"correct_side":1,"subjID":"paulajulianapuentesayala13","gender":"1","school":"6","age":"10"},{"start_time":1551794046834,"click_time":1551794047844,"finger_time":1551794047445,"fix_duration":1448.5298970674987,"trial":22,"RT":611,"MT":399,"sideResp":1,"stimulus":[],"xmouse":[797,797,797,797,797,797,797,797,797,797,797,797,797,797,797,797,793,792,792,791,791,791,791,790,790,790,787,784,781,773,745,722,688,655,624,586,568,554,546,541,541,541,542,542,542,542,542,541,538,532,524],"ymouse":[510,510,510,510,510,510,510,510,510,510,510,510,510,510,509,509,508,507,507,507,507,507,507,507,506,506,502,498,493,484,446,418,381,341,303,216,175,143,123,113,111,111,111,111,111,111,111,109,104,96,89],"timestamp_mouse":[11,32,50,72,91,110,132,152,170,192,212,231,250,272,292,310,331,350,372,391,411,431,451,470,491,511,531,550,572,591,611,631,652,671,691,711,730,750,771,791,810,830,852,872,891,911,931,951,972,991,1010],"xSR":741.5,"ySR":449.15000000000003,"xT1":424.9,"yT1":0,"xT2":1058.1,"yT2":0,"toosoon":0,"cond_shown":"Incongruent","ratio_trial":100,"L_num":6,"L_den":10,"R_num":13,"R_den":26,"correct_side":1,"subjID":"paulajulianapuentesayala13","gender":"1","school":"6","age":"10"},{"start_time":1551794050029,"click_time":1551794051846,"finger_time":1551794051384,"fix_duration":862.7095071490146,"trial":23,"RT":1355,"MT":462,"sideResp":1,"stimulus":[],"xmouse":[767,766,766,763,762,761,760,760,760,760,760,759,759,759,759,759,758,758,758,758,758,758,758,758,759,760,760,760,760,760,760,760,760,760,759,758,755,754,754,753,752,752,751,750,750,746,746,745,745,744,744,744,744,744,744,744,743,743,743,743,743,743,743,743,743,743,743,741,737,733,731,730,728,721,707,609,566,525,502,498,499,501,501,501,501,506,510,515,518,518,518],"ymouse":[502,504,504,505,505,505,505,505,505,505,505,505,503,502,501,499,499,499,499,499,499,499,501,502,503,505,506,506,506,506,506,506,506,506,506,506,508,509,509,509,509,509,509,509,506,499,497,495,492,491,490,490,490,488,486,483,481,481,481,481,481,481,481,481,480,479,469,462,453,449,447,442,435,420,396,289,247,208,181,163,152,143,143,143,143,136,129,122,113,101,85],"timestamp_mouse":[24,50,56,76,96,115,136,156,177,196,216,235,256,277,297,317,335,355,376,395,416,435,456,476,496,515,536,556,576,595,616,636,655,677,695,715,737,755,775,796,815,836,855,876,896,916,936,955,976,995,1016,1037,1057,1076,1097,1115,1136,1155,1176,1195,1216,1237,1256,1276,1296,1315,1336,1355,1377,1396,1415,1436,1456,1476,1495,1516,1536,1555,1576,1596,1616,1635,1655,1676,1696,1716,1736,1756,1775,1795,1817],"xSR":741.5,"ySR":449.15000000000003,"xT1":424.9,"yT1":0,"xT2":1058.1,"yT2":0,"toosoon":0,"cond_shown":"Incongruent","ratio_trial":200,"L_num":1,"L_den":2,"R_num":3,"R_den":10,"correct_side":1,"subjID":"paulajulianapuentesayala13","gender":"1","school":"6","age":"10"},{"start_time":1551794053776,"click_time":1551794057127,"finger_time":1551794054245,"fix_duration":628.6046611589549,"trial":24,"RT":469,"MT":2882,"sideResp":2,"stimulus":[],"xmouse":[771,771,771,771,771,771,771,771,771,771,771,771,771,771,771,771,771,771,770,765,756,749,743,716,693,664,638,619,604,604,606,606,606,606,606,606,606,606,609,615,628,646,673,724,748,764,779,797,827,845,860,868,869,869,869,869,869,869,869,868,865,860,853,829,820,816,815,814,810,806,802,800,799,799,799,799,799,799,799,799,799,799,799,799,799,799,800,800,804,807,807,807,807,808,808,809,810,812,812,813,814,815,819,823,837,847,853,857,860,860,860,860,863,865,865,865,865,865,859,854,842,828,817,797,794,794,794,795,795,795,795,796,797,799,815,830,849,875,934,943,952,958,966,969,969,969,969,969,982,995,1010,1021,1027,1039,1043,1045,1046,1046,1046,1046,1046,1046,1046,1046,1047,1050,1053,1068],"ymouse":[504,504,504,504,504,504,504,504,504,504,504,504,504,504,504,504,504,504,500,493,487,481,473,433,404,366,329,295,243,231,216,202,190,170,169,169,169,169,181,194,211,232,258,317,347,378,405,448,500,522,539,548,548,548,548,548,548,548,548,548,548,546,541,525,521,520,520,518,516,515,515,515,515,515,515,515,515,515,515,515,515,515,514,513,512,510,509,508,506,505,504,504,504,502,501,499,498,497,494,492,490,486,481,475,457,445,436,429,417,415,413,408,402,392,387,383,381,380,380,385,394,409,423,460,470,481,487,489,490,490,490,490,490,488,473,456,429,397,272,219,173,135,114,107,103,103,103,102,96,90,83,77,73,63,61,60,60,60,60,60,60,60,59,58,57,56,55,55],"timestamp_mouse":[10,35,49,69,89,109,130,150,169,189,209,230,249,270,289,309,329,349,369,389,409,429,449,469,489,509,529,549,570,589,609,629,649,669,689,709,729,750,769,789,809,830,849,870,888,909,929,950,969,989,1009,1030,1049,1069,1089,1109,1129,1149,1170,1190,1208,1229,1249,1269,1289,1309,1329,1349,1369,1389,1409,1429,1450,1470,1490,1510,1529,1550,1569,1590,1610,1628,1650,1670,1690,1709,1729,1750,1769,1789,1810,1829,1850,1870,1889,1909,1929,1949,1969,1989,2009,2029,2049,2068,2089,2110,2129,2149,2169,2189,2209,2229,2249,2270,2288,2309,2329,2349,2369,2389,2409,2429,2450,2469,2489,2509,2530,2550,2569,2590,2609,2630,2649,2669,2689,2709,2729,2749,2769,2789,2809,2830,2849,2869,2889,2909,2929,2949,2970,2989,3009,3030,3049,3070,3088,3108,3128,3149,3170,3189,3210,3229,3250,3270,3289,3310,3329,3350],"xSR":741.5,"ySR":449.15000000000003,"xT1":424.9,"yT1":0,"xT2":1058.1,"yT2":0,"toosoon":0,"cond_shown":"Congruent","ratio_trial":200,"L_num":9,"L_den":20,"R_num":4,"R_den":16,"correct_side":1,"subjID":"paulajulianapuentesayala13","gender":"1","school":"6","age":"10"},{"start_time":1551794059994,"click_time":1551794062265,"finger_time":1551794060505,"fix_duration":1046.9992683031408,"trial":25,"RT":511,"MT":1760,"sideResp":2,"stimulus":[],"xmouse":[782,782,782,782,782,782,782,782,782,782,782,782,782,782,782,782,782,776,772,771,770,768,768,766,764,762,761,761,758,757,754,752,751,751,751,751,751,751,751,751,751,751,751,751,751,751,751,751,753,754,755,757,759,759,760,762,763,765,765,765,765,765,767,768,770,772,775,785,789,794,796,798,801,802,802,802,802,802,802,802,802,803,804,804,799,783,755,679,676,677,685,698,732,848,897,938,971,1025,1029,1029,1024,1018,1017,1022,1031,1038,1039,1040,1044,1049,1055,1063,1070,1070],"ymouse":[501,501,501,501,501,501,501,501,501,501,501,501,501,501,500,500,498,489,485,483,479,474,467,455,451,448,444,443,439,433,428,422,417,417,417,417,417,417,417,417,417,417,418,419,420,422,425,436,443,452,462,476,491,519,531,541,547,550,551,551,551,551,549,548,545,543,539,526,520,515,511,509,504,504,504,504,503,503,502,502,502,502,502,502,501,501,504,534,538,539,539,535,518,450,408,368,325,239,219,207,198,193,180,173,167,161,158,155,148,143,135,128,107,93],"timestamp_mouse":[12,36,50,72,92,111,131,151,172,192,212,232,251,272,290,312,332,351,371,391,411,431,451,471,492,511,531,551,571,591,611,631,652,671,691,712,732,752,772,791,811,831,851,871,891,911,932,952,971,991,1011,1031,1051,1071,1091,1110,1132,1151,1171,1191,1211,1231,1252,1271,1291,1310,1332,1351,1370,1391,1411,1431,1451,1470,1492,1512,1531,1551,1571,1591,1612,1631,1651,1671,1691,1711,1731,1751,1771,1791,1811,1832,1852,1871,1892,1911,1932,1951,1971,1990,2012,2031,2051,2071,2092,2111,2131,2151,2172,2191,2211,2231,2252,2270],"xSR":741.5,"ySR":449.15000000000003,"xT1":424.9,"yT1":0,"xT2":1058.1,"yT2":0,"toosoon":0,"cond_shown":"Incongruent","ratio_trial":100,"L_num":13,"L_den":26,"R_num":12,"R_den":20,"correct_side":2,"subjID":"paulajulianapuentesayala13","gender":"1","school":"6","age":"10"},{"start_time":1551794063997,"click_time":1551794065185,"finger_time":1551794064825,"fix_duration":250,"trial":26,"RT":828,"MT":360,"sideResp":2,"stimulus":[],"xmouse":[837,836,836,835,835,834,833,833,831,831,831,831,830,830,830,829,829,829,829,829,829,829,829,823,820,819,817,816,816,815,814,813,813,809,809,809,809,809,809,812,821,838,887,913,936,954,966,980,984,990,1000,1003,1010,1027,1034,1043,1048,1053,1058,1069],"ymouse":[525,525,525,525,525,525,525,525,525,525,525,525,525,525,525,524,523,523,521,517,507,498,488,465,460,456,455,455,455,455,455,455,456,459,459,459,460,460,460,460,454,441,402,370,336,299,265,188,163,136,112,97,86,71,65,62,61,61,61,64],"timestamp_mouse":[13,36,48,68,89,109,128,148,169,189,209,228,248,269,288,308,328,348,368,388,409,428,448,468,488,508,528,549,568,588,608,628,648,668,688,708,729,749,768,787,808,828,848,868,888,908,928,948,968,988,1009,1027,1047,1068,1088,1108,1128,1148,1169,1188],"xSR":741.5,"ySR":449.15000000000003,"xT1":424.9,"yT1":0,"xT2":1058.1,"yT2":0,"toosoon":0,"cond_shown":"Incongruent","ratio_trial":300,"L_num":4,"L_den":20,"R_num":2,"R_den":4,"correct_side":2,"subjID":"paulajulianapuentesayala13","gender":"1","school":"6","age":"10"},{"start_time":1551794066720,"click_time":1551794068225,"finger_time":1551794067806,"fix_duration":432.73990223138037,"trial":27,"RT":1086,"MT":419,"sideResp":2,"stimulus":[],"xmouse":[777,777,777,777,777,777,777,777,777,777,777,777,777,777,777,777,777,777,777,777,777,777,777,777,777,777,777,777,777,777,777,777,777,777,777,777,777,777,777,777,777,777,777,777,777,777,777,777,777,777,777,786,798,817,836,858,896,904,910,912,915,924,934,946,958,970,991,998,1003,1010,1017,1031,1049,1055,1057,1059],"ymouse":[484,484,484,484,484,484,484,484,484,484,484,484,484,484,484,484,484,484,484,484,484,484,484,484,484,484,484,484,484,484,484,484,484,484,484,484,484,484,484,484,484,484,484,484,484,484,484,484,484,484,484,478,468,455,437,417,378,367,359,354,348,324,306,280,254,225,178,162,150,134,118,96,75,67,61,58],"timestamp_mouse":[8,26,45,66,85,105,125,144,165,186,205,226,246,265,285,305,325,345,365,386,405,425,446,465,485,505,525,546,565,586,606,625,645,665,685,705,726,746,765,785,805,825,846,865,885,905,925,945,966,986,1005,1025,1045,1065,1086,1105,1126,1145,1165,1185,1205,1225,1245,1265,1286,1305,1325,1344,1366,1385,1405,1426,1445,1465,1486,1505],"xSR":741.5,"ySR":449.15000000000003,"xT1":424.9,"yT1":0,"xT2":1058.1,"yT2":0,"toosoon":0,"cond_shown":"Congruent","ratio_trial":300,"L_num":11,"L_den":22,"R_num":4,"R_den":20,"correct_side":1,"subjID":"paulajulianapuentesayala13","gender":"1","school":"6","age":"10"},{"start_time":1551794069784,"click_time":1551794070945,"finger_time":1551794070465,"fix_duration":576.7867410333291,"trial":28,"RT":681,"MT":480,"sideResp":2,"stimulus":[],"xmouse":[794,794,794,794,794,794,794,794,794,794,792,792,791,791,790,790,790,790,790,790,790,790,790,790,790,790,790,790,790,790,790,790,792,802,838,860,884,908,967,981,991,998,1012,1023,1023,1026,1026,1026,1026,1026,1026,1026,1026,1026,1026,1026,1026,1072,1062],"ymouse":[504,504,504,504,504,504,504,504,504,504,504,504,504,503,501,500,500,500,500,500,500,500,500,500,500,500,500,500,500,500,500,498,491,477,414,372,335,300,206,175,152,134,107,44,17,6,6,6,6,6,6,6,6,6,6,6,6,0,29],"timestamp_mouse":[9,36,42,62,82,102,121,141,162,181,202,222,241,261,282,302,322,342,361,382,401,421,441,461,481,501,521,542,561,582,600,621,641,661,681,701,721,741,761,781,801,822,841,861,881,900,921,942,961,981,1001,1022,1041,1062,1081,1101,1121,1141,1161],"xSR":741.5,"ySR":449.15000000000003,"xT1":424.9,"yT1":0,"xT2":1058.1,"yT2":0,"toosoon":0,"cond_shown":"Congruent","ratio_trial":300,"L_num":20,"L_den":25,"R_num":5,"R_den":10,"correct_side":1,"subjID":"paulajulianapuentesayala13","gender":"1","school":"6","age":"10"},{"start_time":1551794072617,"click_time":1551794075685,"finger_time":1551794072865,"fix_duration":250,"trial":29,"RT":248,"MT":2820,"sideResp":2,"stimulus":[],"xmouse":[798,798,798,798,796,796,794,790,787,785,777,750,740,736,735,734,734,734,734,734,734,734,734,734,735,735,736,736,736,736,736,736,736,736,736,737,743,752,754,758,767,774,781,782,782,782,782,782,782,782,782,782,782,782,782,782,782,782,782,782,782,782,782,782,782,782,782,782,782,782,782,782,782,782,782,782,782,782,783,787,788,793,794,794,794,794,794,794,794,794,794,794,794,794,794,794,794,794,794,794,794,794,794,794,794,794,794,794,794,794,794,794,794,794,780,773,766,766,774,778,782,784,785,785,785,788,840,881,925,967,996,1012,1012,1014,1017,1022,1037,1044,1046,1047,1049,1055,1055,1055,1055,1055,1055,1055,1055,1055,1055,1055,1055,1143],"ymouse":[513,513,513,513,513,512,509,506,506,506,505,503,502,502,501,501,501,501,501,501,501,501,501,501,501,501,501,501,501,501,501,501,501,501,501,501,501,501,501,502,505,507,509,510,510,510,510,510,510,510,510,510,510,510,510,510,510,510,510,510,510,510,510,510,510,510,510,510,510,510,510,510,510,510,510,510,510,510,510,509,509,506,506,506,506,506,506,506,506,506,506,506,506,506,506,506,506,506,506,506,506,506,506,506,506,506,506,506,506,506,506,504,502,493,475,460,415,380,334,299,276,262,254,254,254,254,244,231,213,194,179,165,157,148,138,125,90,72,55,41,26,1,1,1,1,1,1,1,1,1,1,1,1,18],"timestamp_mouse":[9,37,49,69,88,109,128,149,168,188,208,228,248,269,288,308,329,348,368,388,408,428,449,467,488,509,529,548,568,588,608,628,648,668,688,708,729,749,768,789,808,828,848,869,887,908,928,949,968,988,1009,1028,1048,1068,1088,1108,1128,1148,1168,1188,1208,1228,1248,1268,1288,1309,1328,1348,1368,1388,1409,1428,1449,1467,1488,1509,1528,1549,1568,1588,1608,1628,1649,1669,1688,1708,1729,1749,1768,1788,1809,1828,1848,1868,1888,1907,1927,1947,1967,1987,2007,2027,2047,2067,2087,2107,2127,2147,2169,2189,2209,2228,2248,2269,2289,2308,2329,2349,2369,2389,2408,2428,2449,2469,2489,2508,2528,2548,2568,2589,2609,2628,2649,2669,2688,2708,2729,2748,2768,2788,2808,2828,2848,2869,2888,2908,2929,2949,2968,2988,3008,3029,3048,3068],"xSR":741.5,"ySR":449.15000000000003,"xT1":424.9,"yT1":0,"xT2":1058.1,"yT2":0,"toosoon":0,"cond_shown":"Congruent","ratio_trial":300,"L_num":4,"L_den":10,"R_num":1,"R_den":10,"correct_side":1,"subjID":"paulajulianapuentesayala13","gender":"1","school":"6","age":"10"},{"start_time":1551794078737,"click_time":1551794081885,"finger_time":1551794079106,"fix_duration":250,"trial":30,"RT":369,"MT":2779,"sideResp":1,"stimulus":[],"xmouse":[840,840,840,840,840,840,840,840,840,840,840,841,841,841,841,841,841,841,842,842,843,844,846,849,852,860,864,867,871,873,877,878,879,879,879,879,879,879,878,869,857,817,806,804,803,803,800,798,796,795,793,793,793,792,792,792,792,792,792,792,792,792,790,790,790,790,790,790,790,790,790,790,790,789,789,789,789,789,789,789,789,789,789,789,789,789,789,789,789,789,789,789,789,789,789,789,789,789,789,789,788,788,788,788,787,787,787,787,787,787,787,787,787,787,787,787,787,788,789,791,794,797,797,797,797,797,797,797,797,797,797,797,797,797,797,797,797,794,790,784,758,741,712,676,641,581,549,534,528,522,518,518,516,513,508,505,505,504],"ymouse":[536,536,536,536,536,536,536,536,536,536,536,536,536,536,536,536,535,532,531,529,525,522,521,518,516,514,510,507,505,503,496,492,491,490,490,490,490,490,490,490,492,507,512,512,512,513,513,513,513,513,513,513,513,513,513,513,513,513,513,513,513,513,513,513,513,513,513,513,513,513,513,513,513,513,513,513,513,513,513,513,513,513,513,513,513,513,513,513,513,513,513,513,513,513,513,513,513,513,513,513,513,513,513,513,513,514,514,515,517,518,518,518,518,518,518,518,518,518,514,511,507,503,502,502,502,502,502,502,502,502,502,502,502,501,498,495,490,485,476,469,432,400,360,317,284,233,212,197,188,179,165,161,154,143,133,114,105,95],"timestamp_mouse":[8,28,47,69,89,108,128,147,169,188,208,229,248,268,288,308,328,349,369,388,408,428,448,468,488,508,527,548,568,588,608,629,648,669,688,708,729,749,769,788,808,828,847,868,888,908,929,948,969,989,1009,1029,1047,1068,1089,1107,1128,1148,1167,1189,1209,1227,1248,1268,1289,1308,1328,1349,1368,1389,1409,1429,1448,1468,1489,1508,1528,1548,1569,1588,1608,1628,1648,1668,1688,1708,1729,1748,1768,1788,1808,1828,1849,1868,1888,1909,1928,1948,1967,1988,2008,2029,2048,2068,2089,2109,2128,2148,2167,2188,2209,2228,2249,2268,2289,2309,2328,2348,2367,2389,2408,2429,2448,2468,2489,2509,2529,2548,2568,2589,2609,2628,2648,2669,2688,2709,2728,2748,2769,2789,2808,2828,2848,2868,2888,2908,2928,2948,2968,2988,3008,3028,3048,3068,3088,3109,3128,3148],"xSR":741.5,"ySR":449.15000000000003,"xT1":424.9,"yT1":0,"xT2":1058.1,"yT2":0,"toosoon":0,"cond_shown":"Incongruent","ratio_trial":200,"L_num":1,"L_den":2,"R_num":3,"R_den":10,"correct_side":1,"subjID":"paulajulianapuentesayala13","gender":"1","school":"6","age":"10"},{"start_time":1551794083652,"click_time":1551794084425,"finger_time":1551794084284,"fix_duration":684.2602686301428,"trial":31,"RT":632,"MT":141,"sideResp":2,"stimulus":[],"xmouse":[806,806,806,806,806,806,806,806,806,806,806,806,806,806,806,806,806,806,806,806,806,806,806,806,806,806,806,806,806,809,820,836,860,908,954,969,991,1019,1059],"ymouse":[494,494,494,494,494,494,494,494,494,494,494,494,494,494,494,494,494,494,494,494,494,494,494,494,494,494,494,494,494,486,470,449,414,322,214,173,133,98,65],"timestamp_mouse":[13,43,54,73,94,114,133,154,172,194,214,234,254,273,293,314,334,354,372,393,413,433,454,473,493,514,533,553,573,593,613,632,653,673,694,713,733,754,773],"xSR":741.5,"ySR":449.15000000000003,"xT1":424.9,"yT1":0,"xT2":1058.1,"yT2":0,"toosoon":0,"cond_shown":"Congruent","ratio_trial":100,"L_num":8,"L_den":16,"R_num":2,"R_den":5,"correct_side":1,"subjID":"paulajulianapuentesayala13","gender":"1","school":"6","age":"10"},{"start_time":1551794086272,"click_time":1551794087065,"finger_time":1551794086945,"fix_duration":844.239735487439,"trial":32,"RT":673,"MT":120,"sideResp":1,"stimulus":[],"xmouse":[781,781,779,775,773,771,768,767,765,764,763,763,763,763,763,763,763,763,763,763,763,763,763,763,763,763,763,763,762,760,756,751,744,694,661,630,601,565,536,476],"ymouse":[515,515,514,514,513,513,512,511,509,509,509,509,509,509,509,509,509,509,509,509,509,509,509,509,509,509,509,509,507,505,496,486,477,408,347,286,235,182,137,60],"timestamp_mouse":[29,33,53,73,94,112,134,153,174,193,213,233,252,273,293,314,333,353,374,394,413,434,452,473,493,514,532,553,573,593,613,632,654,673,693,713,733,753,773,792],"xSR":741.5,"ySR":449.15000000000003,"xT1":424.9,"yT1":0,"xT2":1058.1,"yT2":0,"toosoon":0,"cond_shown":"Incongruent","ratio_trial":300,"L_num":1,"L_den":2,"R_num":3,"R_den":15,"correct_side":1,"subjID":"paulajulianapuentesayala13","gender":"1","school":"6","age":"10"},{"start_time":1551794088377,"click_time":1551794089746,"finger_time":1551794089545,"fix_duration":250,"trial":33,"RT":1168,"MT":201,"sideResp":1,"stimulus":[],"xmouse":[813,813,813,813,813,813,813,813,813,813,813,813,813,813,813,813,813,813,813,813,813,813,813,813,813,813,813,813,813,813,813,813,813,813,813,813,813,813,813,813,813,813,813,813,813,813,813,813,813,813,813,813,813,813,813,813,791,771,721,613,599,584,574,558,550,529,507,484,455],"ymouse":[507,507,507,507,507,507,507,507,507,507,507,507,507,507,507,507,507,507,507,507,507,507,507,507,507,507,507,507,507,507,507,507,507,507,507,507,507,507,507,507,507,507,507,507,507,507,507,507,507,507,507,507,507,507,507,507,494,481,443,344,317,289,260,209,184,157,130,102,60],"timestamp_mouse":[11,35,49,69,88,108,128,148,168,189,209,229,248,268,288,309,328,348,368,389,407,429,449,467,489,508,528,548,569,588,609,628,649,668,688,707,728,749,769,787,808,828,847,869,888,908,929,948,969,989,1008,1028,1049,1069,1089,1107,1127,1149,1168,1189,1208,1229,1248,1269,1287,1308,1328,1347,1368],"xSR":741.5,"ySR":449.15000000000003,"xT1":424.9,"yT1":0,"xT2":1058.1,"yT2":0,"toosoon":0,"cond_shown":"Incongruent","ratio_trial":300,"L_num":4,"L_den":20,"R_num":2,"R_den":4,"correct_side":2,"subjID":"paulajulianapuentesayala13","gender":"1","school":"6","age":"10"},{"start_time":1551794091462,"click_time":1551794092105,"finger_time":1551794091845,"fix_duration":694.550115895851,"trial":34,"RT":383,"MT":260,"sideResp":2,"stimulus":[],"xmouse":[802,802,802,802,802,801,801,801,801,801,801,801,801,801,801,801,801,802,809,829,845,860,875,892,934,950,968,986,1008,1049,1061,1067,1067],"ymouse":[514,514,513,512,500,498,496,496,496,496,496,496,496,496,496,496,493,487,471,422,395,376,359,349,315,296,274,250,230,183,154,124,97],"timestamp_mouse":[10,31,42,64,83,104,122,144,164,183,203,223,244,264,283,304,322,344,363,383,404,423,443,463,483,503,523,544,563,583,602,622,643],"xSR":741.5,"ySR":449.15000000000003,"xT1":424.9,"yT1":0,"xT2":1058.1,"yT2":0,"toosoon":0,"cond_shown":"Congruent","ratio_trial":300,"L_num":20,"L_den":25,"R_num":9,"R_den":18,"correct_side":1,"subjID":"paulajulianapuentesayala13","gender":"1","school":"6","age":"10"},{"start_time":1551794094558,"click_time":1551794095246,"finger_time":1551794094945,"fix_duration":1232.7932471870513,"trial":35,"RT":387,"MT":301,"sideResp":1,"stimulus":[],"xmouse":[775,775,775,775,775,775,775,775,775,775,775,775,775,775,775,775,774,769,763,762,755,749,737,723,677,663,653,647,645,636,624,604,576,540,472],"ymouse":[487,487,487,487,487,487,487,487,487,487,487,487,487,487,485,482,476,467,452,448,424,403,377,349,297,282,274,271,269,257,243,221,188,151,85],"timestamp_mouse":[10,39,48,67,87,108,127,147,167,187,207,228,247,267,288,306,327,347,368,387,408,427,447,467,487,507,527,547,567,588,606,627,647,667,688],"xSR":741.5,"ySR":449.15000000000003,"xT1":424.9,"yT1":0,"xT2":1058.1,"yT2":0,"toosoon":0,"cond_shown":"Congruent","ratio_trial":200,"L_num":16,"L_den":30,"R_num":9,"R_den":27,"correct_side":1,"subjID":"paulajulianapuentesayala13","gender":"1","school":"6","age":"10"},{"start_time":1551794096657,"click_time":1551794097246,"finger_time":1551794097065,"fix_duration":250,"trial":36,"RT":408,"MT":181,"sideResp":1,"stimulus":[],"xmouse":[787,787,787,787,787,787,787,787,787,787,787,787,787,787,787,786,785,780,774,762,728,706,680,635,575,549,531,518,514,514],"ymouse":[495,495,495,495,495,495,495,495,495,495,495,492,491,490,489,486,483,476,467,453,405,373,331,263,183,151,127,110,103,93],"timestamp_mouse":[10,37,48,68,88,109,128,148,169,189,207,228,249,268,288,308,327,349,368,388,407,429,448,468,488,508,528,548,568,589],"xSR":741.5,"ySR":449.15000000000003,"xT1":424.9,"yT1":0,"xT2":1058.1,"yT2":0,"toosoon":0,"cond_shown":"Incongruent","ratio_trial":300,"L_num":13,"L_den":26,"R_num":12,"R_den":15,"correct_side":2,"subjID":"paulajulianapuentesayala13","gender":"1","school":"6","age":"10"},{"start_time":1551794099902,"click_time":1551794100646,"finger_time":1551794100464,"fix_duration":1376.7473424359798,"trial":37,"RT":562,"MT":182,"sideResp":2,"stimulus":[],"xmouse":[794,794,794,794,794,793,792,790,789,788,787,784,783,781,781,780,780,779,779,779,779,779,779,779,779,780,782,785,834,879,923,950,975,984,998,1014,1035,1083],"ymouse":[492,490,489,489,489,489,489,489,489,489,489,489,489,489,489,489,489,489,489,489,489,489,489,490,490,490,490,489,437,376,311,251,146,127,115,106,95,69],"timestamp_mouse":[3,31,43,63,83,104,123,143,162,184,203,224,242,263,282,303,323,344,363,384,404,423,443,463,482,503,522,543,562,583,603,623,643,663,683,704,722,744],"xSR":741.5,"ySR":449.15000000000003,"xT1":424.9,"yT1":0,"xT2":1058.1,"yT2":0,"toosoon":0,"cond_shown":"Incongruent","ratio_trial":300,"L_num":8,"L_den":10,"R_num":9,"R_den":18,"correct_side":1,"subjID":"paulajulianapuentesayala13","gender":"1","school":"6","age":"10"},{"start_time":1551794103853,"click_time":1551794104606,"finger_time":1551794104286,"fix_duration":765.5703172285565,"trial":38,"RT":433,"MT":320,"sideResp":1,"stimulus":[],"xmouse":[790,790,790,790,790,790,790,790,790,790,790,788,788,788,788,788,788,788,787,775,760,740,722,706,673,653,625,595,565,530,524,520,519,516,506,495,484,472],"ymouse":[518,518,518,518,517,517,517,517,516,514,514,513,513,513,513,513,512,511,509,492,478,456,431,405,331,294,259,227,203,178,172,169,167,165,153,137,116,90],"timestamp_mouse":[31,32,52,72,93,113,132,153,171,192,211,233,252,273,293,313,333,353,372,392,412,433,452,472,493,512,531,553,572,592,612,632,653,672,692,713,732,753],"xSR":741.5,"ySR":449.15000000000003,"xT1":424.9,"yT1":0,"xT2":1058.1,"yT2":0,"toosoon":0,"cond_shown":"Incongruent","ratio_trial":300,"L_num":13,"L_den":26,"R_num":12,"R_den":15,"correct_side":2,"subjID":"paulajulianapuentesayala13","gender":"1","school":"6","age":"10"},{"start_time":1551794107178,"click_time":1551794108466,"finger_time":1551794107766,"fix_duration":250,"trial":39,"RT":588,"MT":700,"sideResp":2,"stimulus":[],"xmouse":[810,810,810,810,810,810,810,810,810,810,810,810,810,810,810,810,810,810,812,812,813,813,813,816,816,818,821,821,823,830,836,841,846,849,854,860,869,894,962,996,1023,1044,1054,1062,1064,1064,1064,1064,1064,1064,1064,1064,1064,1063,1064,1066,1071,1076,1085,1086,1087,1087,1087,1088,1090],"ymouse":[483,483,483,483,483,483,483,483,483,483,483,483,483,483,483,482,482,482,480,479,478,475,473,472,471,471,471,468,460,433,420,409,396,369,351,334,315,284,235,211,195,181,174,166,165,165,164,163,157,156,153,152,150,143,139,134,128,122,110,109,107,106,105,104,98],"timestamp_mouse":[8,27,52,68,88,107,127,147,168,188,207,227,247,267,287,307,327,348,367,388,407,427,447,468,487,507,527,546,567,588,607,628,647,668,687,707,727,747,766,787,807,827,848,868,887,908,928,947,968,987,1006,1027,1047,1067,1087,1108,1127,1146,1168,1187,1207,1227,1247,1267,1287],"xSR":741.5,"ySR":449.15000000000003,"xT1":424.9,"yT1":0,"xT2":1058.1,"yT2":0,"toosoon":0,"cond_shown":"Incongruent","ratio_trial":100,"L_num":8,"L_den":20,"R_num":1,"R_den":2,"correct_side":2,"subjID":"paulajulianapuentesayala13","gender":"1","school":"6","age":"10"},{"start_time":1551794110309,"click_time":1551794111365,"finger_time":1551794110745,"fix_duration":723.020716438814,"trial":40,"RT":436,"MT":620,"sideResp":2,"stimulus":[],"xmouse":[797,797,797,797,797,797,797,797,797,797,797,797,797,797,797,797,795,790,784,774,767,737,725,717,711,705,699,697,696,698,708,723,794,832,870,905,955,969,974,977,977,988,993,998,1000,1003,1010,1017,1022,1030,1037,1049,1075],"ymouse":[513,513,512,511,511,510,510,509,507,507,506,506,506,506,506,506,504,497,488,474,461,415,400,389,380,371,354,341,329,319,307,300,278,274,268,261,252,245,238,227,219,191,178,163,146,128,96,80,65,56,47,34,27],"timestamp_mouse":[32,37,56,77,97,117,136,156,176,195,216,236,257,277,296,315,337,355,376,396,416,436,456,476,497,516,537,556,577,596,616,636,656,676,696,716,736,756,776,796,816,837,856,876,896,916,937,956,976,996,1015,1036,1056],"xSR":741.5,"ySR":449.15000000000003,"xT1":424.9,"yT1":0,"xT2":1058.1,"yT2":0,"toosoon":0,"cond_shown":"Incongruent","ratio_trial":100,"L_num":9,"L_den":15,"R_num":13,"R_den":26,"correct_side":1,"subjID":"paulajulianapuentesayala13","gender":"1","school":"6","age":"10"},{"start_time":1551794112596,"click_time":1551794114088,"finger_time":1551794112965,"fix_duration":250,"trial":41,"RT":369,"MT":1123,"sideResp":1,"stimulus":[],"xmouse":[781,781,781,781,781,781,781,781,781,781,781,781,781,781,781,781,782,779,766,746,717,682,621,606,601,601,601,603,603,603,603,604,607,607,606,602,598,594,593,590,588,583,574,570,568,566,564,562,562,561,561,560,558,557,556,554,553,546,540,535,534,535,535,535,535,534,534,533,532,532,531,529,528,527,517],"ymouse":[477,477,477,477,477,477,477,477,477,477,477,477,477,477,477,477,476,463,447,429,408,377,315,283,258,239,229,218,216,212,205,198,186,179,171,162,153,144,140,138,131,126,106,99,96,94,93,93,93,93,92,89,89,88,88,86,84,80,76,72,70,70,70,70,70,70,69,69,68,68,68,68,67,65,65],"timestamp_mouse":[10,35,50,70,89,109,129,149,170,189,210,230,249,270,289,308,329,349,369,389,409,429,449,469,489,509,529,549,569,588,610,629,649,669,689,709,730,749,769,789,809,829,850,869,889,909,929,949,968,989,1009,1029,1050,1068,1089,1109,1129,1149,1168,1192,1212,1232,1251,1270,1291,1312,1331,1351,1370,1392,1412,1432,1450,1470,1491],"xSR":741.5,"ySR":449.15000000000003,"xT1":424.9,"yT1":0,"xT2":1058.1,"yT2":0,"toosoon":0,"cond_shown":"Congruent","ratio_trial":200,"L_num":7,"L_den":21,"R_num":2,"R_den":15,"correct_side":1,"subjID":"paulajulianapuentesayala13","gender":"1","school":"6","age":"10"},{"start_time":1551794117894,"click_time":1551794118767,"finger_time":1551794118266,"fix_duration":804.7322339417351,"trial":42,"RT":372,"MT":501,"sideResp":2,"stimulus":[],"xmouse":[789,789,789,789,789,789,789,789,789,789,789,789,789,789,789,789,789,783,774,766,755,746,728,727,725,735,749,796,823,851,877,903,951,964,977,986,992,1009,1016,1029,1039,1045,1049,1059],"ymouse":[489,489,489,489,489,489,489,489,489,489,489,489,489,487,486,482,475,454,438,418,397,381,355,346,338,324,312,286,272,260,248,236,199,183,166,148,128,84,66,52,38,29,20,3],"timestamp_mouse":[14,36,53,73,94,112,134,154,174,193,214,232,252,273,293,313,333,353,372,393,412,433,453,472,492,513,533,553,572,593,613,632,653,674,694,714,733,753,772,793,813,832,853,873],"xSR":741.5,"ySR":449.15000000000003,"xT1":424.9,"yT1":0,"xT2":1058.1,"yT2":0,"toosoon":0,"cond_shown":"Incongruent","ratio_trial":200,"L_num":14,"L_den":30,"R_num":12,"R_den":18,"correct_side":2,"subjID":"paulajulianapuentesayala13","gender":"1","school":"6","age":"10"},{"start_time":1551794120980,"click_time":1551794121647,"finger_time":1551794121408,"fix_duration":1152.5924413695127,"trial":43,"RT":428,"MT":239,"sideResp":2,"stimulus":[],"xmouse":[810,810,810,810,810,810,810,810,810,810,810,810,810,810,810,811,812,813,816,825,829,833,839,863,881,900,917,936,988,1017,1042,1059,1072,1082],"ymouse":[498,498,498,498,498,498,498,498,498,498,498,498,498,497,495,494,492,485,480,461,452,447,439,417,400,387,370,352,281,244,196,154,121,68],"timestamp_mouse":[9,40,47,67,87,107,126,146,168,187,206,228,247,267,286,307,328,348,366,387,406,428,447,467,486,507,526,547,567,586,606,628,647,667],"xSR":741.5,"ySR":449.15000000000003,"xT1":424.9,"yT1":0,"xT2":1058.1,"yT2":0,"toosoon":0,"cond_shown":"Congruent","ratio_trial":100,"L_num":3,"L_den":20,"R_num":4,"R_den":16,"correct_side":2,"subjID":"paulajulianapuentesayala13","gender":"1","school":"6","age":"10"},{"start_time":1551794123493,"click_time":1551794124567,"finger_time":1551794123867,"fix_duration":684.4162744286825,"trial":44,"RT":374,"MT":700,"sideResp":1,"stimulus":[],"xmouse":[789,789,789,789,789,789,789,789,789,789,789,789,789,789,789,789,789,785,772,752,725,690,617,602,599,598,598,600,601,601,601,600,600,600,598,590,584,572,566,557,545,539,534,534,534,534,533,530,528,527,526,526,526,524],"ymouse":[486,486,486,486,486,486,486,486,486,486,486,486,486,486,486,483,478,454,435,413,392,366,314,299,290,283,275,246,234,222,211,206,199,172,160,149,140,125,116,106,95,89,79,76,76,75,75,72,68,66,65,65,65,62],"timestamp_mouse":[13,36,55,75,95,114,135,155,173,194,215,233,255,274,295,313,334,355,374,394,414,434,454,473,493,513,534,554,574,594,614,635,653,675,694,714,735,754,773,793,814,835,854,874,893,913,934,954,974,994,1013,1033,1055,1074],"xSR":741.5,"ySR":449.15000000000003,"xT1":424.9,"yT1":0,"xT2":1058.1,"yT2":0,"toosoon":0,"cond_shown":"Congruent","ratio_trial":300,"L_num":5,"L_den":25,"R_num":7,"R_den":14,"correct_side":2,"subjID":"paulajulianapuentesayala13","gender":"1","school":"6","age":"10"},{"start_time":1551794126093,"click_time":1551794126947,"finger_time":1551794126447,"fix_duration":345.9911128517149,"trial":45,"RT":354,"MT":500,"sideResp":2,"stimulus":[],"xmouse":[758,759,759,763,764,764,764,764,764,764,764,764,765,767,772,781,799,840,862,883,900,917,962,980,997,1008,1014,1019,1019,1019,1020,1022,1023,1026,1030,1032,1036,1041,1041,1044,1049,1058,1076],"ymouse":[480,480,480,473,470,469,469,469,469,469,469,469,469,469,469,468,459,430,407,378,344,310,227,203,190,182,171,142,123,104,92,81,76,64,59,55,53,49,49,49,48,48,46],"timestamp_mouse":[13,39,53,73,95,114,133,154,175,193,214,233,254,273,293,315,334,354,373,394,414,433,454,473,493,514,534,554,573,594,614,633,653,674,693,715,734,755,773,794,814,834,854],"xSR":741.5,"ySR":449.15000000000003,"xT1":424.9,"yT1":0,"xT2":1058.1,"yT2":0,"toosoon":0,"cond_shown":"Congruent","ratio_trial":200,"L_num":7,"L_den":15,"R_num":18,"R_den":27,"correct_side":2,"subjID":"paulajulianapuentesayala13","gender":"1","school":"6","age":"10"},{"start_time":1551794128197,"click_time":1551794128968,"finger_time":1551794128586,"fix_duration":250,"trial":46,"RT":389,"MT":382,"sideResp":2,"stimulus":[],"xmouse":[795,796,796,799,799,799,799,799,799,799,799,799,799,799,799,800,800,824,837,852,871,891,936,966,1000,1028,1041,1051,1052,1052,1052,1052,1055,1055,1055,1055,1055,1056,1066],"ymouse":[508,507,507,504,503,503,503,503,503,503,503,503,503,503,503,502,500,475,456,437,408,368,259,197,135,85,52,23,23,23,23,25,29,29,29,29,29,29,29],"timestamp_mouse":[9,38,50,69,90,110,129,150,169,189,210,229,251,269,290,310,329,350,370,389,411,430,450,469,490,509,529,551,570,589,610,630,649,670,691,710,729,749,770],"xSR":741.5,"ySR":449.15000000000003,"xT1":424.9,"yT1":0,"xT2":1058.1,"yT2":0,"toosoon":0,"cond_shown":"Congruent","ratio_trial":100,"L_num":3,"L_den":20,"R_num":4,"R_den":16,"correct_side":2,"subjID":"paulajulianapuentesayala13","gender":"1","school":"6","age":"10"},{"start_time":1551794131425,"click_time":1551794132367,"finger_time":1551794131928,"fix_duration":1397.2137825682207,"trial":47,"RT":503,"MT":439,"sideResp":2,"stimulus":[],"xmouse":[774,774,774,774,774,774,774,774,774,774,774,774,774,774,774,774,776,776,778,779,781,783,788,791,795,801,807,836,853,875,895,941,962,980,996,1008,1024,1027,1027,1027,1027,1026,1026,1026,1028,1036,1044,1064],"ymouse":[480,480,480,480,480,480,480,480,480,480,480,480,480,480,480,479,479,477,476,475,472,470,463,459,452,446,437,376,337,295,251,174,145,121,104,90,59,50,42,33,29,29,29,29,31,37,41,57],"timestamp_mouse":[9,38,43,61,82,103,122,142,162,183,201,223,243,263,283,303,321,342,361,383,402,421,442,462,481,503,522,542,562,582,602,622,641,661,681,701,722,741,761,782,802,822,842,861,882,902,921,942],"xSR":741.5,"ySR":449.15000000000003,"xT1":424.9,"yT1":0,"xT2":1058.1,"yT2":0,"toosoon":0,"cond_shown":"Congruent","ratio_trial":200,"L_num":9,"L_den":30,"R_num":13,"R_den":26,"correct_side":2,"subjID":"paulajulianapuentesayala13","gender":"1","school":"6","age":"10"},{"start_time":1551794134114,"click_time":1551794134787,"finger_time":1551794134567,"fix_duration":727.2276041216656,"trial":48,"RT":453,"MT":220,"sideResp":2,"stimulus":[],"xmouse":[793,793,793,793,793,793,793,793,793,793,793,793,793,793,793,793,793,793,793,795,800,813,840,858,878,901,953,979,1002,1022,1032,1050,1056,1063],"ymouse":[492,492,492,492,492,492,492,492,492,492,492,492,492,492,492,492,492,490,489,487,480,464,433,414,392,367,300,265,228,194,168,118,100,87],"timestamp_mouse":[12,32,52,74,92,112,134,153,172,194,212,233,253,273,292,313,332,353,373,392,414,433,453,472,492,513,533,552,572,592,613,632,653,673],"xSR":741.5,"ySR":449.15000000000003,"xT1":424.9,"yT1":0,"xT2":1058.1,"yT2":0,"toosoon":0,"cond_shown":"Incongruent","ratio_trial":200,"L_num":11,"L_den":20,"R_num":3,"R_den":4,"correct_side":2,"subjID":"paulajulianapuentesayala13","gender":"1","school":"6","age":"10"},{"start_time":1551794136144,"click_time":1551794138106,"finger_time":1551794136647,"fix_duration":477.72909971595953,"trial":49,"RT":503,"MT":1459,"sideResp":1,"stimulus":[],"xmouse":[797,797,797,797,797,797,797,797,797,797,797,797,797,797,797,797,797,798,798,800,802,806,810,816,824,841,847,854,859,861,869,874,878,882,884,886,886,886,886,886,887,887,887,886,882,871,864,855,844,830,799,793,789,784,781,781,781,783,786,787,791,792,792,792,792,792,792,792,792,792,792,792,792,792,792,792,792,792,792,792,792,792,787,769,736,687,669,658,643,630,590,575,562,554,547,541,530,520,508],"ymouse":[487,487,487,487,487,487,487,487,487,487,487,487,487,487,487,487,486,485,483,482,481,474,470,461,452,432,421,413,406,403,389,383,375,367,362,354,353,353,353,353,353,353,353,353,356,364,369,376,384,395,422,433,442,450,459,469,476,482,486,489,494,494,494,494,494,494,494,494,494,494,494,494,494,494,494,494,494,494,494,493,492,484,475,453,425,387,365,339,308,277,197,178,161,150,141,133,117,105,95],"timestamp_mouse":[9,37,43,63,83,103,122,143,162,182,203,224,244,263,283,303,323,342,363,382,402,423,443,464,482,503,522,543,563,582,603,622,642,664,683,703,722,743,762,783,802,822,843,864,883,903,922,943,963,983,1004,1023,1042,1062,1083,1103,1122,1143,1163,1183,1203,1224,1243,1264,1282,1304,1322,1343,1363,1382,1403,1423,1444,1462,1483,1504,1522,1542,1562,1583,1603,1624,1642,1663,1682,1703,1722,1743,1763,1782,1803,1822,1842,1863,1883,1902,1922,1943,1962],"xSR":741.5,"ySR":449.15000000000003,"xT1":424.9,"yT1":0,"xT2":1058.1,"yT2":0,"toosoon":0,"cond_shown":"Incongruent","ratio_trial":300,"L_num":2,"L_den":4,"R_num":6,"R_den":30,"correct_side":1,"subjID":"paulajulianapuentesayala13","gender":"1","school":"6","age":"10"},{"start_time":1551794140493,"click_time":1551794141767,"finger_time":1551794141367,"fix_duration":1366.6144194970657,"trial":50,"RT":874,"MT":400,"sideResp":2,"stimulus":[],"xmouse":[783,783,783,783,783,783,783,783,783,783,783,783,783,783,783,783,783,783,783,783,783,783,783,783,783,783,783,783,783,783,783,783,783,783,783,783,783,784,785,788,794,802,824,849,868,889,918,955,975,992,1004,1013,1023,1024,1024,1024,1024,1024,1024,1025,1027,1034,1047,1075],"ymouse":[509,509,509,509,509,509,509,509,509,509,509,509,509,509,509,509,509,509,509,509,509,509,509,509,509,509,509,509,509,509,509,509,509,509,509,509,509,509,505,499,489,481,456,429,402,365,310,224,188,156,130,107,80,80,80,80,80,80,80,80,80,79,76,58],"timestamp_mouse":[13,36,55,73,93,114,135,153,174,193,214,233,254,274,293,313,334,353,374,394,414,435,454,474,494,513,535,553,575,595,613,634,653,673,694,714,735,753,774,794,814,833,854,874,893,914,933,954,974,994,1014,1034,1054,1074,1094,1113,1134,1154,1174,1195,1215,1234,1253,1274],"xSR":741.5,"ySR":449.15000000000003,"xT1":424.9,"yT1":0,"xT2":1058.1,"yT2":0,"toosoon":0,"cond_shown":"Congruent","ratio_trial":100,"L_num":10,"L_den":25,"R_num":3,"R_den":10,"correct_side":1,"subjID":"paulajulianapuentesayala13","gender":"1","school":"6","age":"10"},{"start_time":1551794143877,"click_time":1551794144687,"finger_time":1551794144307,"fix_duration":250,"trial":51,"RT":430,"MT":380,"sideResp":1,"stimulus":[],"xmouse":[801,801,801,801,801,801,801,801,801,801,801,801,801,801,801,801,801,801,801,795,782,770,750,727,717,702,686,668,627,597,575,555,538,517,483,482,482,480,479,478,478],"ymouse":[501,501,501,501,501,501,501,501,501,501,501,501,500,500,498,498,498,497,493,475,456,435,411,389,377,358,339,315,263,240,218,200,183,167,141,136,131,124,108,103,98],"timestamp_mouse":[10,36,50,70,91,111,130,150,170,190,211,229,251,270,291,311,329,350,370,390,410,430,450,470,490,509,530,550,570,590,610,630,649,670,690,711,730,750,770,789,810],"xSR":741.5,"ySR":449.15000000000003,"xT1":424.9,"yT1":0,"xT2":1058.1,"yT2":0,"toosoon":0,"cond_shown":"Incongruent","ratio_trial":200,"L_num":7,"L_den":15,"R_num":6,"R_den":9,"correct_side":2,"subjID":"paulajulianapuentesayala13","gender":"1","school":"6","age":"10"},{"start_time":1551794146095,"click_time":1551794151447,"finger_time":1551794147186,"fix_duration":526.4948593722895,"trial":52,"RT":1091,"MT":4261,"sideResp":2,"stimulus":[],"xmouse":[780,780,780,780,780,780,780,780,780,780,780,780,781,781,781,783,783,783,783,783,784,784,785,786,788,794,796,805,807,807,807,807,807,807,807,807,807,807,807,807,807,807,807,807,807,807,807,807,807,807,807,807,807,777,777,772,779,777,773,770,770,769,756,747,745,745,745,745,746,746,746,746,746,746,744,748,757,764,767,777,784,785,785,785,785,785,785,785,785,788,789,791,791,791,791,791,791,791,791,791,791,791,791,791,791,791,791,791,791,791,791,791,791,791,791,791,791,791,791,786,783,778,774,763,763,762,703,579,546,533,531,530,514,507,503,495,495,512,531,552,570,589,655,685,707,719,728,730,736,734,732,732,727,733,740,744,745,745,745,745,742,742,735,735,735,735,735,738,738,740,740,740,739,740,746,748,753,756,756,756,756,756,756,756,756,756,756,759,759,759,751,745,627,578,552,547,547,558,570,577,577,567,470,470,470,470,470,470,470,470,470,470,470,470,470,470,470,470,470,470,470,470,470,470,470,470,470,470,470,470,470,470,470,470,470,470,470,470,470,470,470,470,470,470,470,470,470,783,862,902,927,946,977,989,999,1005,1007,987,976,971,971,971,976,1002,1021,1042,1063,1100],"ymouse":[519,519,519,519,519,518,517,517,517,517,517,517,517,511,506,502,500,499,498,498,498,496,495,494,493,492,489,469,467,467,467,467,467,467,467,467,467,467,467,467,467,467,467,467,467,467,467,467,467,467,467,467,464,453,446,451,450,449,448,448,448,448,448,449,450,450,446,445,440,440,440,440,459,476,484,489,487,487,489,492,494,494,494,494,494,494,494,494,496,495,495,495,495,495,495,495,495,495,495,495,495,495,495,495,495,495,495,495,495,495,495,495,495,495,495,495,495,495,493,493,492,492,491,491,490,486,501,558,565,566,566,566,572,576,576,583,583,565,551,542,532,531,534,538,540,540,541,543,543,542,544,545,548,548,550,550,550,550,550,550,553,553,549,549,549,549,549,549,553,555,555,555,557,557,561,566,569,571,574,574,574,574,573,573,573,571,572,568,567,566,560,542,563,579,587,590,590,587,587,588,595,611,681,681,681,681,681,681,681,681,681,681,681,681,681,681,681,681,681,681,681,681,681,681,681,681,681,681,681,681,681,681,681,681,681,681,681,681,681,681,681,681,681,681,681,681,681,643,600,571,541,509,438,412,381,343,308,231,198,183,176,172,166,152,143,131,118,79],"timestamp_mouse":[12,33,53,72,91,112,131,152,172,191,212,233,251,271,291,312,331,351,371,393,412,432,452,472,492,511,532,553,573,592,612,633,652,671,692,712,731,753,772,791,812,833,851,872,893,913,931,952,972,991,1011,1031,1051,1071,1091,1111,1132,1152,1171,1192,1212,1231,1252,1271,1292,1312,1332,1352,1371,1392,1412,1432,1452,1472,1492,1513,1531,1552,1571,1592,1613,1631,1653,1673,1691,1711,1733,1751,1772,1792,1811,1833,1852,1872,1892,1911,1933,1951,1972,1992,2012,2033,2053,2072,2091,2111,2131,2152,2173,2193,2212,2232,2251,2272,2291,2313,2331,2351,2372,2392,2411,2433,2452,2472,2491,2513,2532,2553,2571,2592,2611,2631,2652,2671,2692,2712,2731,2753,2771,2792,2812,2833,2852,2871,2891,2912,2932,2952,2973,2991,3012,3032,3052,3072,3091,3111,3131,3152,3173,3192,3212,3232,3252,3273,3291,3312,3332,3352,3372,3391,3412,3433,3452,3472,3491,3511,3531,3552,3571,3592,3611,3631,3651,3671,3691,3713,3732,3752,3771,3792,3812,3832,3852,3871,3893,3912,3931,3952,3971,3992,4011,4031,4052,4071,4092,4113,4131,4152,4172,4192,4212,4233,4253,4273,4292,4312,4332,4352,4372,4392,4412,4432,4452,4471,4492,4512,4531,4552,4571,4591,4613,4632,4653,4672,4693,4713,4732,4752,4771,4791,4812,4832,4852,4872,4893,4912,4931,4952,4972,4993,5012,5033,5052,5072,5091,5112,5133,5152,5172,5192,5212,5232,5252,5272,5291,5312,5333,5352],"xSR":741.5,"ySR":449.15000000000003,"xT1"