[{"start_time":1551793951827,"click_time":1551793955976,"finger_time":1551793954075,"fix_duration":609.9348018000255,"trial":0,"RT":2248,"MT":1901,"sideResp":1,"stimulus":[],"xmouse":[789,789,789,789,789,789,789,789,789,789,789,789,789,789,789,789,789,789,789,789,789,789,789,789,789,789,789,789,789,789,789,789,789,789,789,789,789,789,789,789,789,789,789,789,789,789,789,789,789,789,789,789,789,789,789,789,789,789,789,789,789,789,789,789,789,789,789,789,789,789,789,789,789,789,789,789,789,789,789,789,789,789,789,789,789,789,789,789,789,789,789,789,789,789,789,789,789,789,788,787,786,785,785,785,784,784,784,784,784,783,781,779,776,775,772,764,751,740,730,717,710,700,688,675,660,624,587,558,528,500,453,433,413,396,374,365,357,352,349,344,341,340,339,339,339,344,350,355,359,365,373,388,406,423,448,452,459,459,461,466,470,473,476,478,485,490,491,497,500,508,512,516,521,527,532,551,575,591,600,604,612,626,649,676,704,742,748,751,753,754,759,761,761,753,736,688,646,618,597,574,567,560,550,541,533,526,520,516],"ymouse":[528,528,528,528,528,528,528,528,528,528,528,528,528,528,528,528,528,528,528,528,528,528,528,528,528,528,528,528,528,528,528,528,528,528,528,528,528,528,528,528,528,528,528,528,528,528,528,528,528,528,528,528,528,528,528,528,528,528,528,528,528,528,528,528,528,528,528,528,528,528,528,528,528,528,528,528,528,528,528,528,528,528,528,528,528,528,528,528,528,528,528,528,528,528,528,528,528,528,526,516,510,505,501,498,497,496,495,493,489,483,466,457,446,439,433,420,406,398,394,391,391,391,391,391,391,391,391,391,388,384,380,380,380,380,386,390,396,399,401,405,407,410,415,421,435,445,455,462,464,464,464,461,455,449,436,432,425,423,420,412,407,403,398,394,383,375,373,365,358,344,337,332,329,326,323,319,316,316,316,315,312,308,305,301,298,292,291,289,287,285,271,263,252,237,220,187,168,155,142,132,129,126,121,116,112,107,101,94],"timestamp_mouse":[13,28,48,69,89,108,130,150,168,189,208,228,249,269,288,308,328,349,369,389,408,430,449,469,488,509,528,548,568,589,608,628,649,669,689,708,728,749,769,789,810,829,848,869,888,908,928,949,970,988,1009,1028,1048,1068,1088,1109,1129,1148,1169,1190,1208,1229,1248,1268,1290,1309,1329,1349,1370,1390,1409,1428,1449,1469,1490,1509,1529,1548,1570,1588,1608,1629,1648,1668,1690,1708,1729,1749,1769,1789,1810,1828,1848,1868,1889,1910,1929,1949,1970,1988,2008,2028,2049,2068,2088,2108,2130,2149,2169,2188,2208,2228,2248,2268,2288,2308,2329,2349,2369,2388,2408,2428,2448,2469,2489,2508,2528,2548,2570,2588,2609,2628,2648,2668,2689,2709,2728,2748,2769,2788,2808,2829,2849,2869,2890,2909,2929,2949,2969,2989,3009,3029,3049,3069,3088,3108,3128,3148,3168,3189,3208,3229,3248,3268,3288,3308,3328,3349,3368,3389,3408,3428,3448,3468,3489,3508,3529,3548,3568,3589,3608,3628,3649,3669,3688,3708,3728,3748,3769,3788,3808,3828,3848,3868,3889,3909,3929,3948,3968,3989,4008,4029,4048,4068,4088,4108,4129,4149],"xSR":741.5,"ySR":481,"xT1":424.9,"yT1":0,"xT2":1058.1,"yT2":0,"toosoon":0,"cond_shown":"Congruent","ratio_trial":100,"L_num":9,"L_den":15,"R_num":8,"R_den":16,"correct_side":1,"subjID":"paulalondoñozambran16 ","gender":"1","age":"11","school":"6","test":{"fix_dur":[250,1500],"timestim":1000,"targets_dim":[100,100],"targets_relative_coord":[0.3,0.7],"size_stim":[880,420],"start_dim":[100,100],"size_start":[300,300],"size_fix":60,"samplingrate":20,"img_types":["Congruent","Incongruent"],"ratios":[100,200,300],"rep_conds":19,"nTrials":120,"trials_to_rest":500,"Trials_order":[30,12,103,50,4,94,114,49,38,62,104,47,60,84,37,53,101,118,32,115,0,96,7,9,117,27,45,22,59,33,92,2,56,31,66,21,68,78,98,108,67,20,106,81,119,18,72,19,3,77,80,48,111,6,26,64,1,100,79,85,13,15,55,110,14,116,70,29,11,36,10,76,5,63,89,74,57,8,102,42,17,28,97,91,90,69,46,83,93,44,73,95,107,39,51,65,16,86,52,112,34,99,35,109,23,40,25,87,54,75,43,24,58,105,82,41,71,61,113,88],"cond_shown":["Congruent","Congruent","Incongruent","Congruent","Congruent","Congruent","Congruent","Incongruent","Congruent","Congruent","Congruent","Incongruent","Congruent","Congruent","Incongruent","Incongruent","Incongruent","Congruent","Congruent","Incongruent","Congruent","Congruent","Incongruent","Incongruent","Incongruent","Incongruent","Incongruent","Congruent","Incongruent","Incongruent","Congruent","Congruent","Congruent","Incongruent","Congruent","Incongruent","Congruent","Congruent","Congruent","Congruent","Incongruent","Congruent","Congruent","Incongruent","Incongruent","Congruent","Congruent","Incongruent","Incongruent","Incongruent","Congruent","Congruent","Incongruent","Congruent","Congruent","Congruent","Incongruent","Congruent","Incongruent","Incongruent","Incongruent","Incongruent","Incongruent","Congruent","Congruent","Congruent","Congruent","Incongruent","Incongruent","Congruent","Congruent","Congruent","Incongruent","Incongruent","Incongruent","Congruent","Incongruent","Congruent","Congruent","Congruent","Incongruent","Congruent","Incongruent","Incongruent","Congruent","Incongruent","Congruent","Incongruent","Incongruent","Congruent","Incongruent","Incongruent","Incongruent","Incongruent","Incongruent","Incongruent","Congruent","Congruent","Congruent","Congruent","Congruent","Incongruent","Incongruent","Incongruent","Incongruent","Congruent","Incongruent","Incongruent","Congruent","Incongruent","Incongruent","Congruent","Congruent","Incongruent","Congruent","Incongruent","Incongruent","Incongruent","Incongruent","Congruent"],"ratio_trial":[100,100,100,200,300,300,100,100,200,200,200,300,100,100,100,300,300,300,200,100,100,100,100,200,200,200,200,300,300,200,200,200,200,100,100,200,200,100,200,100,100,200,300,200,300,100,100,100,200,300,200,100,200,100,200,300,100,300,100,100,100,200,100,200,200,200,300,300,300,100,300,300,300,200,300,200,200,200,100,100,300,300,100,100,100,200,300,300,200,200,100,300,300,200,200,300,300,200,300,300,300,200,300,100,300,300,100,200,100,200,100,100,300,200,300,300,300,100,300,300],"left_num":[9,3,3,21,11,8,7,13,7,7,15,8,11,8,10,1,4,8,12,3,3,4,9,1,4,4,9,8,13,1,11,14,3,6,3,6,14,10,15,1,6,16,8,14,4,7,11,3,4,8,7,10,4,10,12,12,1,1,9,10,6,9,2,4,5,5,2,7,13,4,3,8,4,4,3,8,3,13,3,4,4,1,3,6,11,6,1,8,7,12,6,13,4,6,4,4,11,3,20,4,2,4,1,9,8,20,2,7,6,1,6,8,1,7,20,7,13,6,2,11],"right_num":[8,4,7,2,2,1,15,12,2,2,4,9,4,2,8,2,2,1,6,11,2,15,6,2,6,1,8,1,12,2,3,6,14,3,2,3,6,3,4,18,13,9,10,12,2,15,6,11,14,14,2,3,1,3,6,2,8,8,20,9,3,8,8,3,14,14,10,8,12,6,2,1,2,14,4,3,11,14,2,6,2,7,7,3,4,3,11,9,4,6,13,12,2,3,14,2,4,11,8,2,12,14,2,14,14,14,6,4,5,2,3,2,11,6,13,8,12,3,6,4],"left_den":[15,20,9,30,22,16,14,26,21,21,25,10,22,16,25,2,20,16,20,5,6,10,18,3,5,30,15,16,26,3,22,28,6,12,6,20,28,25,25,2,10,30,15,30,20,14,22,5,6,10,21,25,30,25,20,24,2,30,10,25,12,15,4,8,10,10,20,10,26,8,6,16,20,6,6,15,4,26,6,8,20,20,9,12,22,20,5,10,15,20,10,26,20,20,6,20,22,10,25,5,10,6,2,15,10,25,4,15,20,3,12,16,5,15,25,10,26,12,4,22],"right_den":[16,16,30,4,10,5,25,20,15,15,10,18,10,5,16,10,4,5,15,22,5,30,10,15,10,3,10,5,15,15,10,20,20,5,5,6,20,10,10,30,26,27,12,18,4,25,15,22,30,28,15,10,3,10,15,10,20,24,25,18,5,10,20,10,20,20,25,20,15,10,10,5,4,30,20,9,20,20,5,10,4,20,30,5,10,6,22,18,6,15,26,15,4,6,30,4,20,22,16,4,24,30,10,28,28,28,15,6,25,15,5,5,22,9,26,20,15,5,30,20],"correct_side":[1,2,1,1,1,1,2,2,1,1,1,1,1,1,2,1,2,1,1,1,1,2,2,1,1,2,2,1,2,1,1,1,2,2,1,2,1,1,1,2,1,1,2,2,2,2,1,1,1,1,1,1,2,1,1,1,1,2,1,2,2,2,1,1,2,2,2,1,2,2,1,1,2,1,1,1,1,2,1,2,2,2,1,2,1,2,2,1,2,1,1,2,2,2,1,2,1,2,1,1,2,1,1,1,1,1,1,2,1,1,2,1,2,2,1,1,2,2,1,1],"img_shown":["img2/100/Congruent/L/C_Dist_100_LN_9_LD_15_RN_8_RD_16_0.png","img2/100/Congruent/R/C_Dist_100_LN_3_LD_20_RN_4_RD_16_1.png","img2/100/Incongruent/L/I_Dist_100_LN_3_LD_9_RN_7_RD_30_0.png","img2/200/Congruent/L/C_Dist_200_LN_21_LD_30_RN_2_RD_4_0.png","img2/300/Congruent/L/C_Dist_300_LN_11_LD_22_RN_2_RD_10_0.png","img2/300/Congruent/L/C_Dist_300_LN_8_LD_16_RN_1_RD_5_0.png","img2/100/Congruent/R/C_Dist_100_LN_7_LD_14_RN_15_RD_25_1.png","img2/100/Incongruent/R/I_Dist_100_LN_13_LD_26_RN_12_RD_20_1.png","img2/200/Congruent/L/C_Dist_200_LN_7_LD_21_RN_2_RD_15_0.png","img2/200/Congruent/L/C_Dist_200_LN_7_LD_21_RN_2_RD_15_0.png","img2/200/Congruent/L/C_Dist_200_LN_15_LD_25_RN_4_RD_10_0.png","img2/300/Incongruent/L/I_Dist_300_LN_8_LD_10_RN_9_RD_18_0.png","img2/100/Congruent/L/C_Dist_100_LN_11_LD_22_RN_4_RD_10_0.png","img2/100/Congruent/L/C_Dist_100_LN_8_LD_16_RN_2_RD_5_0.png","img2/100/Incongruent/R/I_Dist_100_LN_10_LD_25_RN_8_RD_16_1.png","img2/300/Incongruent/L/I_Dist_300_LN_1_LD_2_RN_2_RD_10_0.png","img2/300/Incongruent/R/I_Dist_300_LN_4_LD_20_RN_2_RD_4_1.png","img2/300/Congruent/L/C_Dist_300_LN_8_LD_16_RN_1_RD_5_0.png","img2/200/Congruent/L/C_Dist_200_LN_12_LD_20_RN_6_RD_15_0.png","img2/100/Incongruent/L/I_Dist_100_LN_3_LD_5_RN_11_RD_22_0.png","img2/100/Congruent/L/C_Dist_100_LN_3_LD_6_RN_2_RD_5_0.png","img2/100/Congruent/R/C_Dist_100_LN_4_LD_10_RN_15_RD_30_1.png","img2/100/Incongruent/R/I_Dist_100_LN_9_LD_18_RN_6_RD_10_1.png","img2/200/Incongruent/L/I_Dist_200_LN_1_LD_3_RN_2_RD_15_0.png","img2/200/Incongruent/L/I_Dist_200_LN_4_LD_5_RN_6_RD_10_0.png","img2/200/Incongruent/R/I_Dist_200_LN_4_LD_30_RN_1_RD_3_1.png","img2/200/Incongruent/R/I_Dist_200_LN_9_LD_15_RN_8_RD_10_1.png","img2/300/Congruent/L/C_Dist_300_LN_8_LD_16_RN_1_RD_5_0.png","img2/300/Incongruent/R/I_Dist_300_LN_13_LD_26_RN_12_RD_15_1.png","img2/200/Incongruent/L/I_Dist_200_LN_1_LD_3_RN_2_RD_15_0.png","img2/200/Congruent/L/C_Dist_200_LN_11_LD_22_RN_3_RD_10_0.png","img2/200/Congruent/L/C_Dist_200_LN_14_LD_28_RN_6_RD_20_0.png","img2/200/Congruent/R/C_Dist_200_LN_3_LD_6_RN_14_RD_20_1.png","img2/100/Incongruent/R/I_Dist_100_LN_6_LD_12_RN_3_RD_5_1.png","img2/100/Congruent/L/C_Dist_100_LN_3_LD_6_RN_2_RD_5_0.png","img2/200/Incongruent/R/I_Dist_200_LN_6_LD_20_RN_3_RD_6_1.png","img2/200/Congruent/L/C_Dist_200_LN_14_LD_28_RN_6_RD_20_0.png","img2/100/Congruent/L/C_Dist_100_LN_10_LD_25_RN_3_RD_10_0.png","img2/200/Congruent/L/C_Dist_200_LN_15_LD_25_RN_4_RD_10_0.png","img2/100/Congruent/R/C_Dist_100_LN_1_LD_2_RN_18_RD_30_1.png","img2/100/Incongruent/L/I_Dist_100_LN_6_LD_10_RN_13_RD_26_0.png","img2/200/Congruent/L/C_Dist_200_LN_16_LD_30_RN_9_RD_27_0.png","img2/300/Congruent/R/C_Dist_300_LN_8_LD_15_RN_10_RD_12_1.png","img2/200/Incongruent/R/I_Dist_200_LN_14_LD_30_RN_12_RD_18_1.png","img2/300/Incongruent/R/I_Dist_300_LN_4_LD_20_RN_2_RD_4_1.png","img2/100/Congruent/R/C_Dist_100_LN_7_LD_14_RN_15_RD_25_1.png","img2/100/Congruent/L/C_Dist_100_LN_11_LD_22_RN_6_RD_15_0.png","img2/100/Incongruent/L/I_Dist_100_LN_3_LD_5_RN_11_RD_22_0.png","img2/200/Incongruent/L/I_Dist_200_LN_4_LD_6_RN_14_RD_30_0.png","img2/300/Incongruent/L/I_Dist_300_LN_8_LD_10_RN_14_RD_28_0.png","img2/200/Congruent/L/C_Dist_200_LN_7_LD_21_RN_2_RD_15_0.png","img2/100/Congruent/L/C_Dist_100_LN_10_LD_25_RN_3_RD_10_0.png","img2/200/Incongruent/R/I_Dist_200_LN_4_LD_30_RN_1_RD_3_1.png","img2/100/Congruent/L/C_Dist_100_LN_10_LD_25_RN_3_RD_10_0.png","img2/200/Congruent/L/C_Dist_200_LN_12_LD_20_RN_6_RD_15_0.png","img2/300/Congruent/L/C_Dist_300_LN_12_LD_24_RN_2_RD_10_0.png","img2/100/Incongruent/L/I_Dist_100_LN_1_LD_2_RN_8_RD_20_0.png","img2/300/Congruent/R/C_Dist_300_LN_1_LD_30_RN_8_RD_24_1.png","img2/100/Incongruent/L/I_Dist_100_LN_9_LD_10_RN_20_RD_25_0.png","img2/100/Incongruent/R/I_Dist_100_LN_10_LD_25_RN_9_RD_18_1.png","img2/100/Incongruent/R/I_Dist_100_LN_6_LD_12_RN_3_RD_5_1.png","img2/200/Incongruent/R/I_Dist_200_LN_9_LD_15_RN_8_RD_10_1.png","img2/100/Incongruent/L/I_Dist_100_LN_2_LD_4_RN_8_RD_20_0.png","img2/200/Congruent/L/C_Dist_200_LN_4_LD_8_RN_3_RD_10_0.png","img2/200/Congruent/R/C_Dist_200_LN_5_LD_10_RN_14_RD_20_1.png","img2/200/Congruent/R/C_Dist_200_LN_5_LD_10_RN_14_RD_20_1.png","img2/300/Congruent/R/C_Dist_300_LN_2_LD_20_RN_10_RD_25_1.png","img2/300/Incongruent/L/I_Dist_300_LN_7_LD_10_RN_8_RD_20_0.png","img2/300/Incongruent/R/I_Dist_300_LN_13_LD_26_RN_12_RD_15_1.png","img2/100/Congruent/R/C_Dist_100_LN_4_LD_8_RN_6_RD_10_1.png","img2/300/Congruent/L/C_Dist_300_LN_3_LD_6_RN_2_RD_10_0.png","img2/300/Congruent/L/C_Dist_300_LN_8_LD_16_RN_1_RD_5_0.png","img2/300/Incongruent/R/I_Dist_300_LN_4_LD_20_RN_2_RD_4_1.png","img2/200/Incongruent/L/I_Dist_200_LN_4_LD_6_RN_14_RD_30_0.png","img2/300/Incongruent/L/I_Dist_300_LN_3_LD_6_RN_4_RD_20_0.png","img2/200/Congruent/L/C_Dist_200_LN_8_LD_15_RN_3_RD_9_0.png","img2/200/Incongruent/L/I_Dist_200_LN_3_LD_4_RN_11_RD_20_0.png","img2/200/Congruent/R/C_Dist_200_LN_13_LD_26_RN_14_RD_20_1.png","img2/100/Congruent/L/C_Dist_100_LN_3_LD_6_RN_2_RD_5_0.png","img2/100/Congruent/R/C_Dist_100_LN_4_LD_8_RN_6_RD_10_1.png","img2/300/Incongruent/R/I_Dist_300_LN_4_LD_20_RN_2_RD_4_1.png","img2/300/Congruent/R/C_Dist_300_LN_1_LD_20_RN_7_RD_20_1.png","img2/100/Incongruent/L/I_Dist_100_LN_3_LD_9_RN_7_RD_30_0.png","img2/100/Incongruent/R/I_Dist_100_LN_6_LD_12_RN_3_RD_5_1.png","img2/100/Congruent/L/C_Dist_100_LN_11_LD_22_RN_4_RD_10_0.png","img2/200/Incongruent/R/I_Dist_200_LN_6_LD_20_RN_3_RD_6_1.png","img2/300/Congruent/R/C_Dist_300_LN_1_LD_5_RN_11_RD_22_1.png","img2/300/Incongruent/L/I_Dist_300_LN_8_LD_10_RN_9_RD_18_0.png","img2/200/Incongruent/R/I_Dist_200_LN_7_LD_15_RN_4_RD_6_1.png","img2/200/Congruent/L/C_Dist_200_LN_12_LD_20_RN_6_RD_15_0.png","img2/100/Incongruent/L/I_Dist_100_LN_6_LD_10_RN_13_RD_26_0.png","img2/300/Incongruent/R/I_Dist_300_LN_13_LD_26_RN_12_RD_15_1.png","img2/300/Incongruent/R/I_Dist_300_LN_4_LD_20_RN_2_RD_4_1.png","img2/200/Incongruent/R/I_Dist_200_LN_6_LD_20_RN_3_RD_6_1.png","img2/200/Incongruent/L/I_Dist_200_LN_4_LD_6_RN_14_RD_30_0.png","img2/300/Incongruent/R/I_Dist_300_LN_4_LD_20_RN_2_RD_4_1.png","img2/300/Congruent/L/C_Dist_300_LN_11_LD_22_RN_4_RD_20_0.png","img2/200/Congruent/R/C_Dist_200_LN_3_LD_10_RN_11_RD_22_1.png","img2/300/Congruent/L/C_Dist_300_LN_20_LD_25_RN_8_RD_16_0.png","img2/300/Congruent/L/C_Dist_300_LN_4_LD_5_RN_2_RD_4_0.png","img2/300/Congruent/R/C_Dist_300_LN_2_LD_10_RN_12_RD_24_1.png","img2/200/Incongruent/L/I_Dist_200_LN_4_LD_6_RN_14_RD_30_0.png","img2/300/Incongruent/L/I_Dist_300_LN_1_LD_2_RN_2_RD_10_0.png","img2/100/Incongruent/L/I_Dist_100_LN_9_LD_15_RN_14_RD_28_0.png","img2/300/Incongruent/L/I_Dist_300_LN_8_LD_10_RN_14_RD_28_0.png","img2/300/Congruent/L/C_Dist_300_LN_20_LD_25_RN_14_RD_28_0.png","img2/100/Incongruent/L/I_Dist_100_LN_2_LD_4_RN_6_RD_15_0.png","img2/200/Incongruent/R/I_Dist_200_LN_7_LD_15_RN_4_RD_6_1.png","img2/100/Congruent/L/C_Dist_100_LN_6_LD_20_RN_5_RD_25_0.png","img2/200/Incongruent/L/I_Dist_200_LN_1_LD_3_RN_2_RD_15_0.png","img2/100/Incongruent/R/I_Dist_100_LN_6_LD_12_RN_3_RD_5_1.png","img2/100/Congruent/L/C_Dist_100_LN_8_LD_16_RN_2_RD_5_0.png","img2/300/Congruent/R/C_Dist_300_LN_1_LD_5_RN_11_RD_22_1.png","img2/200/Incongruent/R/I_Dist_200_LN_7_LD_15_RN_6_RD_9_1.png","img2/300/Congruent/L/C_Dist_300_LN_20_LD_25_RN_13_RD_26_0.png","img2/300/Incongruent/L/I_Dist_300_LN_7_LD_10_RN_8_RD_20_0.png","img2/300/Incongruent/R/I_Dist_300_LN_13_LD_26_RN_12_RD_15_1.png","img2/100/Incongruent/R/I_Dist_100_LN_6_LD_12_RN_3_RD_5_1.png","img2/300/Incongruent/L/I_Dist_300_LN_2_LD_4_RN_6_RD_30_0.png","img2/300/Congruent/L/C_Dist_300_LN_11_LD_22_RN_4_RD_20_0.png"],"dist100_C":[["C_Dist_100_LN_10_LD_25_RN_3_RD_10_0.png","C_Dist_100_LN_11_LD_22_RN_4_RD_10_0.png","C_Dist_100_LN_11_LD_22_RN_6_RD_15_0.png","C_Dist_100_LN_15_LD_25_RN_13_RD_26_0.png","C_Dist_100_LN_3_LD_6_RN_2_RD_5_0.png","C_Dist_100_LN_6_LD_20_RN_5_RD_25_0.png","C_Dist_100_LN_8_LD_16_RN_2_RD_5_0.png","C_Dist_100_LN_9_LD_15_RN_8_RD_16_0.png"],["C_Dist_100_LN_1_LD_2_RN_18_RD_30_1.png","C_Dist_100_LN_1_LD_2_RN_3_RD_5_1.png","C_Dist_100_LN_12_LD_30_RN_13_RD_26_1.png","C_Dist_100_LN_2_LD_5_RN_11_RD_22_1.png","C_Dist_100_LN_2_LD_5_RN_6_RD_12_1.png","C_Dist_100_LN_3_LD_20_RN_4_RD_16_1.png","C_Dist_100_LN_4_LD_10_RN_15_RD_30_1.png","C_Dist_100_LN_4_LD_8_RN_6_RD_10_1.png","C_Dist_100_LN_6_LD_12_RN_15_RD_25_1.png","C_Dist_100_LN_7_LD_14_RN_15_RD_25_1.png","C_Dist_100_LN_7_LD_14_RN_9_RD_15_1.png"]],"dist100_I":[["I_Dist_100_LN_1_LD_2_RN_8_RD_20_0.png","I_Dist_100_LN_2_LD_4_RN_6_RD_15_0.png","I_Dist_100_LN_2_LD_4_RN_8_RD_20_0.png","I_Dist_100_LN_3_LD_5_RN_11_RD_22_0.png","I_Dist_100_LN_3_LD_5_RN_8_RD_16_0.png","I_Dist_100_LN_3_LD_6_RN_4_RD_10_0.png","I_Dist_100_LN_3_LD_9_RN_7_RD_30_0.png","I_Dist_100_LN_4_LD_8_RN_8_RD_20_0.png","I_Dist_100_LN_6_LD_10_RN_11_RD_22_0.png","I_Dist_100_LN_6_LD_10_RN_13_RD_26_0.png","I_Dist_100_LN_6_LD_10_RN_7_RD_14_0.png","I_Dist_100_LN_9_LD_10_RN_20_RD_25_0.png","I_Dist_100_LN_9_LD_15_RN_13_RD_26_0.png","I_Dist_100_LN_9_LD_15_RN_14_RD_28_0.png"],["I_Dist_100_LN_10_LD_25_RN_8_RD_16_1.png","I_Dist_100_LN_10_LD_25_RN_9_RD_18_1.png","I_Dist_100_LN_11_LD_22_RN_9_RD_15_1.png","I_Dist_100_LN_12_LD_24_RN_9_RD_15_1.png","I_Dist_100_LN_12_LD_30_RN_2_RD_4_1.png","I_Dist_100_LN_13_LD_26_RN_12_RD_20_1.png","I_Dist_100_LN_13_LD_26_RN_6_RD_10_1.png","I_Dist_100_LN_17_LD_30_RN_10_RD_15_1.png","I_Dist_100_LN_6_LD_12_RN_3_RD_5_1.png","I_Dist_100_LN_8_LD_16_RN_6_RD_10_1.png","I_Dist_100_LN_8_LD_20_RN_1_RD_2_1.png","I_Dist_100_LN_9_LD_18_RN_6_RD_10_1.png"]],"dist100_S":[["E_Dist_100_LN_2_LD_12_RN_2_RD_30_0.png","E_Dist_100_LN_6_LD_10_RN_6_RD_12_0.png"],["E_Dist_100_LN_6_LD_12_RN_6_RD_10_1.png"]],"dist200_C":[["C_Dist_200_LN_11_LD_22_RN_3_RD_10_0.png","C_Dist_200_LN_12_LD_15_RN_6_RD_10_0.png","C_Dist_200_LN_12_LD_20_RN_6_RD_15_0.png","C_Dist_200_LN_14_LD_28_RN_6_RD_20_0.png","C_Dist_200_LN_15_LD_25_RN_4_RD_10_0.png","C_Dist_200_LN_16_LD_20_RN_12_RD_20_0.png","C_Dist_200_LN_16_LD_30_RN_9_RD_27_0.png","C_Dist_200_LN_20_LD_25_RN_9_RD_15_0.png","C_Dist_200_LN_21_LD_30_RN_2_RD_4_0.png","C_Dist_200_LN_4_LD_10_RN_3_RD_15_0.png","C_Dist_200_LN_4_LD_8_RN_3_RD_10_0.png","C_Dist_200_LN_6_LD_15_RN_3_RD_15_0.png","C_Dist_200_LN_7_LD_21_RN_2_RD_15_0.png","C_Dist_200_LN_8_LD_15_RN_2_RD_6_0.png","C_Dist_200_LN_8_LD_15_RN_3_RD_9_0.png","C_Dist_200_LN_8_LD_15_RN_7_RD_21_0.png","C_Dist_200_LN_9_LD_20_RN_4_RD_16_0.png"],["C_Dist_200_LN_1_LD_2_RN_21_RD_30_1.png","C_Dist_200_LN_13_LD_26_RN_14_RD_20_1.png","C_Dist_200_LN_3_LD_10_RN_11_RD_22_1.png","C_Dist_200_LN_3_LD_10_RN_14_RD_28_1.png","C_Dist_200_LN_3_LD_10_RN_7_RD_14_1.png","C_Dist_200_LN_3_LD_12_RN_9_RD_20_1.png","C_Dist_200_LN_3_LD_6_RN_14_RD_20_1.png","C_Dist_200_LN_5_LD_10_RN_14_RD_20_1.png","C_Dist_200_LN_6_LD_12_RN_7_RD_10_1.png","C_Dist_200_LN_6_LD_20_RN_11_RD_22_1.png","C_Dist_200_LN_7_LD_15_RN_18_RD_27_1.png","C_Dist_200_LN_9_LD_30_RN_13_RD_26_1.png"]],"dist200_I":[["I_Dist_200_LN_1_LD_2_RN_3_RD_10_0.png","I_Dist_200_LN_1_LD_3_RN_2_RD_15_0.png","I_Dist_200_LN_3_LD_4_RN_11_RD_20_0.png","I_Dist_200_LN_4_LD_5_RN_6_RD_10_0.png","I_Dist_200_LN_4_LD_6_RN_14_RD_30_0.png","I_Dist_200_LN_7_LD_10_RN_12_RD_24_0.png","I_Dist_200_LN_7_LD_10_RN_14_RD_28_0.png","I_Dist_200_LN_7_LD_10_RN_8_RD_16_0.png"],["I_Dist_200_LN_11_LD_20_RN_3_RD_4_1.png","I_Dist_200_LN_14_LD_30_RN_12_RD_18_1.png","I_Dist_200_LN_14_LD_30_RN_6_RD_9_1.png","I_Dist_200_LN_3_LD_10_RN_1_RD_2_1.png","I_Dist_200_LN_4_LD_30_RN_1_RD_3_1.png","I_Dist_200_LN_6_LD_20_RN_3_RD_6_1.png","I_Dist_200_LN_7_LD_15_RN_4_RD_6_1.png","I_Dist_200_LN_7_LD_15_RN_6_RD_9_1.png","I_Dist_200_LN_9_LD_15_RN_8_RD_10_1.png"]],"dist200_S":[["E_Dist_200_LN_3_LD_6_RN_3_RD_10_0.png"],["E_Dist_200_LN_3_LD_10_RN_3_RD_6_1.png"]],"dist300_C":[["C_Dist_300_LN_11_LD_22_RN_1_RD_5_0.png","C_Dist_300_LN_11_LD_22_RN_2_RD_10_0.png","C_Dist_300_LN_11_LD_22_RN_4_RD_20_0.png","C_Dist_300_LN_12_LD_24_RN_2_RD_10_0.png","C_Dist_300_LN_18_LD_20_RN_9_RD_15_0.png","C_Dist_300_LN_20_LD_25_RN_13_RD_26_0.png","C_Dist_300_LN_20_LD_25_RN_14_RD_28_0.png","C_Dist_300_LN_20_LD_25_RN_5_RD_10_0.png","C_Dist_300_LN_20_LD_25_RN_8_RD_16_0.png","C_Dist_300_LN_20_LD_25_RN_9_RD_18_0.png","C_Dist_300_LN_24_LD_30_RN_2_RD_4_0.png","C_Dist_300_LN_24_LD_30_RN_8_RD_16_0.png","C_Dist_300_LN_3_LD_6_RN_2_RD_10_0.png","C_Dist_300_LN_4_LD_10_RN_1_RD_10_0.png","C_Dist_300_LN_4_LD_5_RN_2_RD_4_0.png","C_Dist_300_LN_8_LD_16_RN_1_RD_5_0.png","C_Dist_300_LN_9_LD_10_RN_3_RD_5_0.png"],["C_Dist_300_LN_1_LD_20_RN_7_RD_20_1.png","C_Dist_300_LN_1_LD_3_RN_19_RD_30_1.png","C_Dist_300_LN_1_LD_30_RN_8_RD_24_1.png","C_Dist_300_LN_1_LD_5_RN_11_RD_22_1.png","C_Dist_300_LN_1_LD_5_RN_3_RD_6_1.png","C_Dist_300_LN_1_LD_5_RN_6_RD_12_1.png","C_Dist_300_LN_2_LD_10_RN_12_RD_24_1.png","C_Dist_300_LN_2_LD_20_RN_10_RD_25_1.png","C_Dist_300_LN_3_LD_12_RN_11_RD_20_1.png","C_Dist_300_LN_3_LD_6_RN_4_RD_5_1.png","C_Dist_300_LN_4_LD_20_RN_13_RD_26_1.png","C_Dist_300_LN_5_LD_25_RN_6_RD_12_1.png","C_Dist_300_LN_5_LD_25_RN_7_RD_14_1.png","C_Dist_300_LN_7_LD_14_RN_20_RD_25_1.png","C_Dist_300_LN_8_LD_15_RN_10_RD_12_1.png"]],"dist300_I":[["I_Dist_300_LN_1_LD_2_RN_2_RD_10_0.png","I_Dist_300_LN_1_LD_2_RN_3_RD_15_0.png","I_Dist_300_LN_2_LD_4_RN_6_RD_30_0.png","I_Dist_300_LN_3_LD_6_RN_4_RD_20_0.png","I_Dist_300_LN_4_LD_5_RN_6_RD_12_0.png","I_Dist_300_LN_4_LD_5_RN_8_RD_16_0.png","I_Dist_300_LN_7_LD_10_RN_8_RD_20_0.png","I_Dist_300_LN_8_LD_10_RN_14_RD_28_0.png","I_Dist_300_LN_8_LD_10_RN_9_RD_18_0.png"],["I_Dist_300_LN_13_LD_26_RN_12_RD_15_1.png","I_Dist_300_LN_4_LD_20_RN_2_RD_4_1.png"]],"dist300_S":[["E_Dist_300_LN_9_LD_12_RN_9_RD_20_0.png"],["E_Dist_300_LN_18_LD_30_RN_18_RD_20_1.png","E_Dist_300_LN_3_LD_10_RN_3_RD_5_1.png","E_Dist_300_LN_9_LD_20_RN_9_RD_12_1.png"]],"dist500_C":[["C_Dist_500_LN_10_LD_13_RN_7_RD_26_0.png","C_Dist_500_LN_10_LD_15_RN_4_RD_24_0.png","C_Dist_500_LN_12_LD_16_RN_3_RD_12_0.png","C_Dist_500_LN_12_LD_18_RN_4_RD_24_0.png","C_Dist_500_LN_15_LD_18_RN_5_RD_15_0.png","C_Dist_500_LN_15_LD_20_RN_1_RD_4_0.png","C_Dist_500_LN_18_LD_27_RN_1_RD_6_0.png","C_Dist_500_LN_20_LD_24_RN_1_RD_3_0.png","C_Dist_500_LN_20_LD_24_RN_3_RD_9_0.png","C_Dist_500_LN_20_LD_24_RN_7_RD_21_0.png","C_Dist_500_LN_20_LD_28_RN_3_RD_14_0.png","C_Dist_500_LN_21_LD_28_RN_6_RD_24_0.png","C_Dist_500_LN_22_LD_28_RN_2_RD_7_0.png","C_Dist_500_LN_25_LD_30_RN_9_RD_27_0.png","C_Dist_500_LN_4_LD_6_RN_1_RD_6_0.png","C_Dist_500_LN_5_LD_6_RN_2_RD_6_0.png","C_Dist_500_LN_6_LD_9_RN_1_RD_6_0.png","C_Dist_500_LN_7_LD_10_RN_1_RD_5_0.png","C_Dist_500_LN_8_LD_12_RN_1_RD_6_0.png","C_Dist_500_LN_8_LD_12_RN_4_RD_24_0.png"],["C_Dist_500_LN_1_LD_4_RN_12_RD_16_1.png","C_Dist_500_LN_1_LD_4_RN_9_RD_12_1.png","C_Dist_500_LN_1_LD_9_RN_11_RD_18_1.png","C_Dist_500_LN_10_LD_24_RN_22_RD_24_1.png","C_Dist_500_LN_2_LD_12_RN_10_RD_15_1.png","C_Dist_500_LN_2_LD_12_RN_12_RD_18_1.png","C_Dist_500_LN_2_LD_12_RN_4_RD_6_1.png","C_Dist_500_LN_2_LD_24_RN_7_RD_12_1.png","C_Dist_500_LN_2_LD_5_RN_18_RD_20_1.png","C_Dist_500_LN_2_LD_5_RN_9_RD_10_1.png","C_Dist_500_LN_2_LD_8_RN_12_RD_16_1.png","C_Dist_500_LN_2_LD_8_RN_21_RD_28_1.png","C_Dist_500_LN_3_LD_10_RN_4_RD_5_1.png","C_Dist_500_LN_3_LD_12_RN_15_RD_20_1.png","C_Dist_500_LN_3_LD_30_RN_6_RD_10_1.png","C_Dist_500_LN_3_LD_8_RN_14_RD_16_1.png","C_Dist_500_LN_4_LD_16_RN_15_RD_20_1.png","C_Dist_500_LN_4_LD_24_RN_12_RD_18_1.png","C_Dist_500_LN_5_LD_14_RN_6_RD_7_1.png","C_Dist_500_LN_7_LD_21_RN_20_RD_24_1.png","C_Dist_500_LN_7_LD_28_RN_12_RD_16_1.png","C_Dist_500_LN_7_LD_28_RN_9_RD_12_1.png","C_Dist_500_LN_9_LD_27_RN_20_RD_24_1.png"]],"dist500_I":[["I_Dist_500_LN_2_LD_3_RN_4_RD_24_0.png","I_Dist_500_LN_5_LD_6_RN_6_RD_18_0.png","I_Dist_500_LN_7_LD_8_RN_9_RD_24_0.png"],["I_Dist_500_LN_7_LD_21_RN_5_RD_6_1.png"]],"dist500_S":[["E_Dist_500_LN_6_LD_8_RN_6_RD_24_0.png"],["E_Dist_500_LN_2_LD_12_RN_2_RD_3_1.png","E_Dist_500_LN_6_LD_24_RN_6_RD_8_1.png"]]}},{"start_time":1551793958182,"click_time":1551793960576,"finger_time":1551793959896,"fix_duration":324.6010636088629,"trial":1,"RT":1714,"MT":680,"sideResp":1,"stimulus":[],"xmouse":[774,774,774,774,775,775,775,775,776,776,777,777,777,777,777,777,777,777,777,777,777,777,777,777,777,777,777,777,777,777,777,777,777,777,777,777,777,777,777,777,777,777,777,777,777,777,777,777,777,777,777,777,777,777,777,777,777,777,777,777,777,777,777,778,780,782,783,783,783,783,783,783,783,783,783,783,783,783,784,784,785,785,784,782,781,779,761,742,701,676,659,641,623,618,608,591,573,539,531,529,528,527,522,518,514,512,510,509,509,509,509,508,506,506,505,505,504,504,503,502],"ymouse":[486,486,486,486,488,488,488,491,493,495,495,495,495,495,495,495,495,495,495,495,495,495,495,495,495,495,495,495,495,495,495,495,495,495,495,495,495,495,495,495,495,495,495,495,495,495,495,495,495,495,495,495,495,495,495,495,495,495,495,495,495,495,495,494,492,489,486,486,486,486,486,486,486,486,486,486,486,485,485,482,481,477,463,457,452,445,410,376,320,292,276,264,254,251,243,230,215,187,179,177,174,168,151,138,128,122,119,118,117,115,113,110,105,105,104,104,104,103,103,99],"timestamp_mouse":[14,34,54,73,95,114,133,154,174,194,214,233,254,273,293,314,333,353,373,394,414,434,454,474,493,514,533,554,574,593,614,633,653,673,693,714,733,754,773,793,814,833,854,874,894,913,933,954,974,993,1014,1035,1053,1074,1093,1115,1134,1153,1173,1193,1213,1234,1254,1273,1293,1314,1333,1354,1375,1393,1413,1434,1454,1474,1494,1514,1533,1553,1573,1593,1613,1634,1654,1675,1694,1714,1733,1754,1774,1793,1813,1833,1854,1874,1894,1913,1934,1954,1973,1993,2013,2034,2053,2074,2093,2113,2133,2153,2174,2195,2213,2233,2253,2274,2294,2314,2333,2353,2374,2394],"xSR":741.5,"ySR":449.15000000000003,"xT1":424.9,"yT1":0,"xT2":1058.1,"yT2":0,"toosoon":0,"cond_shown":"Congruent","ratio_trial":100,"L_num":3,"L_den":20,"R_num":4,"R_den":16,"correct_side":2,"subjID":"paulalondoñozambran16 ","gender":"1","school":"6","age":"11"},{"start_time":1551793962392,"click_time":1551793963936,"finger_time":1551793962975,"fix_duration":615.8613346484846,"trial":2,"RT":583,"MT":961,"sideResp":2,"stimulus":[],"xmouse":[781,781,782,782,783,783,784,787,789,791,791,791,792,792,792,792,794,797,802,806,809,811,815,817,819,820,822,830,837,846,854,862,865,872,890,927,976,1017,1017,1016,1014,1014,1014,1014,1014,1013,1018,1022,1024,1028,1028,1031,1043,1052,1060,1064,1065,1065,1065,1070,1076,1079,1083,1085,1087,1089,1089,1089,1089,1089,1089,1089,1089,1089,1089,1089,1089,1088],"ymouse":[505,505,505,505,504,504,503,501,500,499,498,498,498,498,498,497,495,492,488,485,482,480,477,476,476,474,474,466,460,452,444,435,431,422,400,359,319,289,289,289,289,289,289,289,289,289,284,277,272,260,254,247,214,195,180,175,174,173,168,157,145,137,128,122,117,113,110,109,109,109,109,108,105,104,103,103,102,99],"timestamp_mouse":[4,23,44,63,83,105,123,143,164,184,204,224,244,265,284,304,323,344,363,383,404,423,443,463,483,503,523,543,563,583,604,624,644,664,683,703,724,744,764,783,803,824,843,864,883,904,923,943,963,983,1003,1023,1043,1063,1083,1103,1124,1143,1163,1183,1203,1223,1243,1263,1284,1303,1324,1345,1364,1383,1403,1424,1443,1463,1483,1504,1524,1544],"xSR":741.5,"ySR":449.15000000000003,"xT1":424.9,"yT1":0,"xT2":1058.1,"yT2":0,"toosoon":0,"cond_shown":"Incongruent","ratio_trial":100,"L_num":3,"L_den":9,"R_num":7,"R_den":30,"correct_side":1,"subjID":"paulalondoñozambran16 ","gender":"1","school":"6","age":"11"},{"start_time":1551793966511,"click_time":1551793972257,"finger_time":1551793968816,"fix_duration":1275.0138993636908,"trial":3,"RT":2305,"MT":3441,"sideResp":1,"stimulus":[],"xmouse":[783,783,783,783,783,783,783,783,783,783,783,783,783,783,783,783,783,783,783,783,783,783,783,783,783,783,783,783,783,783,783,783,783,783,783,783,783,783,783,783,783,783,783,783,783,783,783,783,783,783,783,783,783,783,783,783,783,783,783,783,783,783,783,783,783,783,783,783,783,783,783,783,783,783,783,783,783,786,789,793,795,798,798,799,799,802,810,815,817,818,818,818,818,818,818,818,818,818,818,818,818,818,818,818,818,818,818,818,818,818,818,818,818,818,818,819,823,827,829,829,829,829,829,829,829,829,829,829,829,829,829,829,829,829,829,829,829,829,829,829,829,829,829,829,829,829,829,829,829,829,829,829,829,829,829,829,829,829,829,829,829,829,829,829,829,829,829,829,829,829,829,829,829,829,829,829,829,829,829,829,829,829,829,829,829,829,829,829,829,829,829,829,829,829,829,829,829,829,829,829,829,829,829,829,829,829,829,829,829,829,829,829,829,829,829,829,829,829,829,829,829,829,829,829,829,829,829,829,829,829,829,829,829,829,829,829,829,829,829,829,829,829,829,829,829,829,829,829,829,829,829,829,829,829,829,829,829,828,826,818,787,765,731,710,692,661,641,622,603,587,580,562,556,554,552,550,548,546,543,540,532,520,516,506,503,500,492,487],"ymouse":[480,480,480,480,480,480,480,480,480,480,480,480,480,480,480,480,480,480,480,480,480,480,480,480,480,480,480,480,480,480,480,480,480,480,480,480,480,480,480,480,480,480,480,480,480,480,480,480,480,480,480,480,480,480,480,480,480,480,480,480,480,480,480,480,480,480,480,480,480,480,480,480,480,480,480,480,480,479,477,475,474,472,472,472,472,470,460,455,452,451,450,450,450,450,450,450,450,450,450,450,450,450,450,450,450,450,450,450,450,450,450,450,450,450,450,449,447,445,444,444,444,444,444,444,444,444,444,444,444,444,444,444,444,444,444,444,444,444,444,444,444,444,444,444,444,444,444,444,444,444,444,444,444,444,444,444,444,444,444,444,444,444,444,444,444,444,444,444,444,444,444,444,444,444,444,444,444,444,444,444,444,444,444,444,444,444,444,444,444,444,444,444,444,444,444,444,444,444,444,444,444,444,444,444,444,444,444,444,444,444,444,444,444,444,444,444,444,444,444,444,444,444,444,444,444,444,444,444,444,444,444,444,444,444,444,444,444,444,444,444,444,444,444,444,444,444,444,444,444,444,444,444,444,444,444,444,444,443,442,436,414,400,380,371,364,347,330,313,296,283,278,255,245,238,234,228,220,210,201,192,169,149,144,130,122,115,101,94],"timestamp_mouse":[4,25,46,64,84,104,124,144,165,185,204,224,244,266,284,304,324,344,364,386,404,424,445,464,484,504,525,544,564,586,604,624,644,664,684,705,725,744,764,784,804,825,844,864,884,905,924,944,964,984,1004,1025,1044,1065,1084,1105,1126,1144,1165,1185,1204,1225,1246,1265,1285,1306,1326,1345,1365,1384,1405,1426,1444,1464,1485,1504,1526,1545,1565,1584,1604,1624,1644,1665,1684,1705,1725,1744,1765,1784,1804,1825,1844,1865,1884,1904,1924,1945,1964,1984,2004,2024,2044,2064,2084,2104,2124,2144,2164,2185,2204,2225,2245,2264,2285,2305,2325,2344,2365,2384,2405,2424,2445,2465,2484,2505,2524,2544,2565,2585,2605,2624,2644,2664,2685,2706,2725,2744,2764,2784,2806,2825,2844,2864,2884,2905,2925,2944,2965,2984,3005,3024,3044,3064,3085,3105,3125,3144,3164,3185,3205,3224,3245,3265,3285,3305,3325,3345,3364,3384,3405,3425,3445,3464,3485,3505,3524,3545,3564,3585,3604,3624,3644,3664,3685,3704,3725,3744,3764,3785,3806,3824,3844,3864,3885,3905,3924,3944,3965,3984,4005,4025,4045,4065,4084,4106,4124,4144,4164,4185,4205,4224,4245,4265,4284,4305,4324,4345,4364,4385,4404,4424,4446,4465,4484,4505,4524,4544,4565,4585,4605,4624,4644,4664,4684,4705,4724,4744,4766,4786,4805,4825,4845,4864,4885,4906,4926,4944,4964,4985,5005,5024,5045,5066,5084,5105,5125,5144,5164,5184,5205,5225,5244,5264,5284,5305,5324,5345,5364,5384,5404,5424,5444,5464,5484,5505,5525,5546,5564,5584,5605,5624,5645,5664,5684,5705,5725,5746],"xSR":741.5,"ySR":449.15000000000003,"xT1":424.9,"yT1":0,"xT2":1058.1,"yT2":0,"toosoon":0,"cond_shown":"Congruent","ratio_trial":200,"L_num":21,"L_den":30,"R_num":2,"R_den":4,"correct_side":1,"subjID":"paulalondoñozambran16 ","gender":"1","school":"6","age":"11"},{"start_time":1551793974545,"click_time":1551793976715,"finger_time":1551793975716,"fix_duration":1088.6430209207313,"trial":4,"RT":1171,"MT":999,"sideResp":1,"stimulus":[],"xmouse":[804,804,804,804,804,804,804,804,804,804,804,804,804,804,804,804,804,804,804,804,804,804,804,804,804,804,804,804,804,804,804,804,804,804,804,804,804,804,804,804,804,804,804,804,804,804,804,804,804,804,804,804,802,800,790,784,776,766,738,728,721,720,720,717,714,708,696,678,658,620,605,596,594,590,585,579,573,565,562,558,554,551,547,533,527,523,518,517,516,511,507,507,507,506,506,506,506,506,506,506,506,505,505,503,503,503,503,502,500],"ymouse":[478,478,479,479,479,479,479,479,479,479,479,479,479,479,479,479,479,479,479,479,479,479,479,479,479,479,479,479,479,479,479,479,479,479,479,479,480,480,480,480,480,480,480,480,480,480,480,480,480,480,480,480,479,478,468,463,458,452,440,437,436,435,435,432,428,419,402,382,358,314,296,280,276,268,256,240,227,213,205,196,188,181,170,150,143,138,134,133,132,124,119,119,119,118,118,118,118,118,118,117,116,113,110,107,107,106,106,104,99],"timestamp_mouse":[11,33,50,71,90,110,130,150,171,192,211,231,251,271,290,312,331,350,370,391,411,431,450,471,490,511,531,551,570,590,611,630,651,672,690,712,730,750,770,790,810,830,850,870,890,910,931,951,970,990,1010,1031,1051,1070,1090,1111,1131,1151,1171,1190,1211,1230,1250,1271,1291,1310,1331,1350,1371,1390,1410,1431,1450,1471,1490,1510,1531,1550,1571,1590,1611,1630,1651,1671,1692,1711,1730,1750,1770,1791,1811,1830,1850,1872,1892,1911,1931,1951,1971,1992,2011,2031,2050,2071,2090,2110,2131,2150,2170],"xSR":741.5,"ySR":449.15000000000003,"xT1":424.9,"yT1":0,"xT2":1058.1,"yT2":0,"toosoon":0,"cond_shown":"Congruent","ratio_trial":300,"L_num":11,"L_den":22,"R_num":2,"R_den":10,"correct_side":1,"subjID":"paulalondoñozambran16 ","gender":"1","school":"6","age":"11"},{"start_time":1551793978628,"click_time":1551793980695,"finger_time":1551793979936,"fix_duration":250,"trial":5,"RT":1308,"MT":759,"sideResp":1,"stimulus":[],"xmouse":[779,779,779,779,779,779,779,779,779,779,779,779,779,779,779,779,779,779,779,779,779,779,779,779,779,779,779,779,779,779,779,779,779,779,779,779,779,779,779,779,779,779,779,779,779,779,779,779,779,778,776,774,774,774,773,772,772,770,769,769,769,769,768,767,765,762,756,753,751,748,743,739,736,732,721,714,704,695,686,675,655,645,632,624,616,607,604,599,595,590,587,586,584,582,577,573,567,564,561,549,538,527,518,511],"ymouse":[482,482,482,482,482,482,482,482,482,482,482,482,482,482,482,482,482,482,482,482,482,482,482,482,482,482,482,482,482,482,482,482,482,482,482,481,481,479,478,478,478,478,478,478,478,478,478,478,478,477,476,475,475,475,474,473,472,471,469,469,468,467,466,464,455,444,428,423,417,411,395,384,373,363,340,324,304,289,272,256,228,215,201,191,182,169,165,159,154,149,146,145,144,142,140,138,134,132,130,124,116,108,101,96],"timestamp_mouse":[8,27,49,67,87,107,129,147,168,187,208,229,247,267,287,309,328,347,367,387,407,427,447,467,487,509,527,548,567,589,607,627,648,667,689,709,728,748,768,788,809,827,847,867,888,907,927,947,967,987,1007,1028,1047,1067,1088,1107,1127,1148,1168,1187,1207,1228,1248,1267,1288,1308,1327,1347,1367,1387,1407,1427,1448,1468,1488,1507,1528,1547,1567,1587,1608,1627,1647,1668,1688,1707,1727,1748,1767,1787,1808,1827,1848,1868,1888,1907,1928,1947,1968,1987,2007,2028,2048,2067],"xSR":741.5,"ySR":449.15000000000003,"xT1":424.9,"yT1":0,"xT2":1058.1,"yT2":0,"toosoon":0,"cond_shown":"Congruent","ratio_trial":300,"L_num":8,"L_den":16,"R_num":1,"R_den":5,"correct_side":1,"subjID":"paulalondoñozambran16 ","gender":"1","school":"6","age":"11"},{"start_time":1551793982968,"click_time":1551793986135,"finger_time":1551793984075,"fix_duration":812.2632091543318,"trial":6,"RT":1107,"MT":2060,"sideResp":2,"stimulus":[],"xmouse":[781,781,781,781,781,781,781,781,781,781,781,781,781,781,781,781,781,781,781,781,781,781,781,781,781,781,781,781,781,781,781,781,781,781,781,781,781,781,781,780,778,771,767,766,766,766,765,765,763,763,763,763,763,763,760,757,755,753,751,751,751,750,750,750,750,750,748,747,738,732,730,728,726,716,712,708,704,703,702,702,701,700,700,698,698,698,698,698,698,699,704,709,717,719,721,724,729,738,740,741,741,743,752,762,774,783,789,792,811,825,844,860,887,894,900,907,914,933,940,946,949,954,971,980,985,989,992,998,1013,1024,1037,1044,1055,1060,1064,1068,1071,1075,1076,1079,1080,1083,1084,1084,1084,1084,1084,1085,1086,1086,1086,1086,1086,1086,1086,1086,1086,1086,1083],"ymouse":[481,481,481,481,481,481,481,481,481,481,481,481,481,481,481,481,481,481,481,481,481,481,481,481,481,481,481,481,481,481,481,481,481,481,481,481,481,481,481,482,481,471,463,460,460,460,460,460,460,460,460,460,460,460,457,449,444,440,438,437,437,437,437,437,437,437,437,433,414,405,401,399,396,382,377,371,365,364,362,362,362,360,359,357,357,357,357,357,357,360,369,375,386,389,393,401,413,431,434,434,435,436,440,444,449,451,452,452,451,448,443,439,430,425,421,412,401,379,372,365,360,348,314,303,297,292,285,275,249,238,228,222,208,200,189,179,170,161,158,150,145,139,133,133,133,133,133,130,122,121,119,119,117,115,113,110,107,102,92],"timestamp_mouse":[7,27,47,67,88,107,129,148,168,188,208,229,247,268,287,308,328,347,367,389,407,427,448,467,487,507,527,548,567,588,609,628,647,669,687,709,727,747,767,788,807,827,847,867,887,907,929,947,968,987,1007,1029,1047,1067,1088,1107,1127,1147,1168,1188,1208,1228,1249,1267,1289,1307,1327,1348,1367,1388,1407,1427,1447,1467,1488,1508,1529,1547,1567,1587,1607,1628,1648,1667,1688,1708,1727,1747,1767,1788,1807,1827,1848,1867,1888,1907,1927,1948,1968,1988,2008,2027,2047,2067,2088,2108,2128,2147,2167,2187,2208,2227,2248,2268,2288,2308,2327,2348,2368,2388,2407,2428,2447,2468,2487,2507,2527,2547,2567,2587,2607,2629,2647,2667,2688,2707,2727,2748,2768,2788,2808,2828,2848,2867,2888,2908,2927,2947,2967,2987,3008,3027,3048,3067,3087,3108,3128,3147,3167],"xSR":741.5,"ySR":449.15000000000003,"xT1":424.9,"yT1":0,"xT2":1058.1,"yT2":0,"toosoon":0,"cond_shown":"Congruent","ratio_trial":100,"L_num":7,"L_den":14,"R_num":15,"R_den":25,"correct_side":2,"subjID":"paulalondoñozambran16 ","gender":"1","school":"6","age":"11"},{"start_time":1551793987908,"click_time":1551793990636,"finger_time":1551793990055,"fix_duration":250,"trial":7,"RT":2147,"MT":581,"sideResp":1,"stimulus":[],"xmouse":[786,786,786,786,786,786,786,786,786,786,786,785,785,785,785,785,785,785,785,785,785,785,785,785,785,785,785,785,785,785,785,785,785,785,785,785,785,785,785,785,785,785,785,785,785,785,785,785,785,785,785,785,785,785,785,785,785,785,785,785,785,785,785,785,785,785,785,784,784,784,784,784,784,784,784,784,784,784,784,784,784,784,784,784,784,784,784,784,784,784,784,784,784,784,784,784,784,784,784,784,784,784,784,783,782,779,763,752,735,716,689,639,608,595,589,589,588,586,584,583,582,579,577,575,570,557,543,531,524,522,519,517,512,508,506,505,502],"ymouse":[473,474,474,474,475,475,475,475,475,475,475,475,475,475,475,476,476,476,476,476,476,476,476,476,476,476,476,476,476,476,476,476,476,476,476,476,476,476,476,476,476,476,476,476,476,476,476,476,476,476,476,476,476,476,476,476,476,477,477,477,477,477,477,477,477,477,477,477,477,477,477,477,477,477,477,477,477,477,477,477,477,477,477,477,477,477,477,477,477,477,477,477,477,477,477,477,477,477,477,477,477,476,476,474,473,469,450,437,418,398,381,362,344,336,332,332,331,326,321,318,314,297,277,264,247,203,171,146,134,130,127,121,109,104,101,101,99],"timestamp_mouse":[8,28,48,67,87,107,127,148,167,188,207,229,248,267,287,308,327,347,367,389,408,428,447,469,487,507,528,548,567,587,608,627,647,668,688,708,729,747,769,787,808,829,847,868,888,907,928,948,968,987,1007,1027,1049,1068,1087,1107,1127,1148,1168,1189,1208,1228,1248,1268,1289,1308,1328,1348,1369,1388,1408,1427,1448,1468,1487,1508,1528,1549,1567,1588,1608,1629,1647,1668,1687,1708,1727,1747,1767,1787,1808,1828,1849,1867,1887,1908,1928,1948,1969,1988,2009,2028,2047,2069,2088,2107,2128,2147,2168,2187,2208,2229,2247,2268,2287,2308,2327,2347,2367,2388,2408,2428,2448,2467,2487,2508,2527,2547,2567,2587,2608,2628,2648,2668,2687,2707,2727],"xSR":741.5,"ySR":449.15000000000003,"xT1":424.9,"yT1":0,"xT2":1058.1,"yT2":0,"toosoon":0,"cond_shown":"Incongruent","ratio_trial":100,"L_num":13,"L_den":26,"R_num":12,"R_den":20,"correct_side":2,"subjID":"paulalondoñozambran16 ","gender":"1","school":"6","age":"11"},{"start_time":1551793995376,"click_time":1551793997196,"finger_time":1551793996775,"fix_duration":959.0371884799838,"trial":8,"RT":1399,"MT":421,"sideResp":1,"stimulus":[],"xmouse":[792,792,792,792,792,792,792,792,792,792,792,792,792,792,792,792,792,792,792,792,792,792,792,792,792,792,792,792,792,792,792,792,792,792,792,792,792,792,792,792,792,792,792,792,792,792,792,792,792,792,792,792,792,792,792,792,792,792,792,792,792,792,792,792,792,792,792,792,786,779,775,771,767,760,756,747,738,716,705,699,693,689,678,668,657,649,641,627,591,563,533,515],"ymouse":[470,470,470,470,470,470,470,470,470,470,470,470,470,470,470,470,470,470,470,470,470,470,470,470,470,470,470,470,470,470,470,470,470,470,470,470,470,470,470,470,470,470,470,470,470,470,470,470,470,470,470,470,470,470,470,470,470,470,470,470,470,470,470,470,470,470,470,469,463,452,446,442,437,430,425,417,405,382,370,360,347,334,299,277,255,238,224,205,160,128,92,73],"timestamp_mouse":[1,24,40,60,80,99,119,139,160,179,201,220,240,259,281,299,319,339,360,379,400,419,440,460,480,499,521,540,559,579,600,619,641,660,679,700,720,739,760,779,800,819,839,859,879,899,921,939,959,979,1000,1020,1039,1061,1079,1100,1119,1140,1159,1180,1201,1219,1239,1261,1279,1299,1319,1340,1360,1380,1399,1419,1440,1460,1479,1500,1519,1540,1559,1580,1599,1620,1640,1659,1680,1699,1719,1739,1760,1781,1800,1820],"xSR":741.5,"ySR":449.15000000000003,"xT1":424.9,"yT1":0,"xT2":1058.1,"yT2":0,"toosoon":0,"cond_shown":"Congruent","ratio_trial":200,"L_num":7,"L_den":21,"R_num":2,"R_den":15,"correct_side":1,"subjID":"paulalondoñozambran16 ","gender":"1","school":"6","age":"11"},{"start_time":1551793999247,"click_time":1551794001515,"finger_time":1551794001215,"fix_duration":250,"trial":9,"RT":1968,"MT":300,"sideResp":1,"stimulus":[],"xmouse":[771,771,771,771,771,771,771,771,771,771,771,771,771,771,771,771,771,771,771,771,771,771,771,771,771,771,771,771,771,771,771,771,771,771,771,771,771,771,771,771,771,771,771,771,771,771,771,771,771,771,771,771,771,771,771,771,771,771,771,771,771,771,771,771,771,771,771,771,771,771,771,771,771,771,771,771,771,771,771,771,771,771,771,771,771,771,771,771,771,771,771,771,771,771,771,771,771,770,763,758,751,741,733,710,693,679,662,634,601,528,505,486,470,446],"ymouse":[466,466,466,466,466,466,466,466,466,466,466,466,466,466,466,466,466,466,466,466,466,466,466,466,466,466,466,466,466,466,466,466,466,466,466,466,466,466,466,466,466,466,466,466,466,466,466,466,466,466,466,466,466,466,466,466,466,466,466,466,466,466,466,466,466,466,466,466,466,466,466,466,466,466,466,466,466,466,466,466,466,466,466,466,466,466,466,466,466,466,466,466,466,466,466,466,466,464,444,434,422,406,392,363,345,329,308,276,238,166,148,137,122,92],"timestamp_mouse":[8,29,49,69,89,109,128,149,169,188,209,228,249,269,290,308,328,349,368,388,408,428,448,468,488,509,530,548,569,588,608,628,649,668,688,709,729,748,768,788,809,828,848,868,888,908,929,949,968,988,1008,1028,1049,1069,1089,1109,1129,1150,1168,1188,1208,1229,1249,1268,1289,1309,1329,1348,1368,1390,1409,1429,1450,1468,1489,1508,1530,1549,1570,1589,1609,1628,1648,1669,1688,1708,1728,1748,1768,1790,1808,1829,1849,1870,1888,1908,1928,1949,1968,1989,2008,2028,2049,2068,2088,2108,2129,2148,2168,2188,2209,2228,2248,2268],"xSR":741.5,"ySR":449.15000000000003,"xT1":424.9,"yT1":0,"xT2":1058.1,"yT2":0,"toosoon":0,"cond_shown":"Congruent","ratio_trial":200,"L_num":7,"L_den":21,"R_num":2,"R_den":15,"correct_side":1,"subjID":"paulalondoñozambran16 ","gender":"1","school":"6","age":"11"},{"start_time":1551794003001,"click_time":1551794005335,"finger_time":1551794004395,"fix_duration":366.5379134928508,"trial":10,"RT":1394,"MT":940,"sideResp":1,"stimulus":[],"xmouse":[792,792,792,792,792,792,792,792,792,792,792,792,792,792,792,792,792,792,792,792,792,792,792,792,792,792,792,792,792,792,792,792,792,792,792,792,792,792,792,792,792,792,792,792,792,792,792,792,792,792,792,792,792,792,792,792,792,792,792,792,792,792,792,792,792,790,787,781,775,767,743,727,715,706,696,683,681,678,675,671,667,658,656,651,644,632,606,593,580,565,538,534,533,533,533,531,528,526,523,522,522,518,517,515,515,514,513,512,510,509,509,509,509,509,509,509,509],"ymouse":[469,469,469,469,469,469,469,469,469,469,469,469,469,469,469,469,469,469,469,469,469,469,469,469,469,469,469,469,469,469,469,469,469,469,469,469,469,469,469,469,469,469,469,469,469,469,469,469,469,469,469,469,469,469,469,469,469,469,469,469,469,469,469,469,469,467,464,458,450,436,393,372,353,337,320,294,290,286,280,276,269,256,254,249,241,228,204,193,183,170,147,144,144,144,144,140,136,130,127,125,124,119,117,115,113,111,109,107,103,103,103,103,103,103,102,101,99],"timestamp_mouse":[18,34,54,74,94,115,134,155,175,194,215,234,255,275,294,314,335,354,374,395,415,436,454,474,495,516,535,554,575,595,614,635,655,674,695,714,734,754,774,794,816,834,856,874,894,915,936,954,975,996,1015,1034,1054,1075,1095,1115,1135,1154,1175,1195,1215,1235,1255,1276,1295,1315,1335,1355,1374,1394,1414,1434,1455,1475,1494,1515,1534,1554,1575,1594,1614,1634,1654,1674,1696,1714,1734,1754,1775,1794,1815,1834,1854,1874,1894,1915,1935,1954,1975,1995,2015,2034,2054,2074,2095,2114,2135,2154,2174,2194,2216,2235,2254,2274,2294,2314,2334],"xSR":741.5,"ySR":449.15000000000003,"xT1":424.9,"yT1":0,"xT2":1058.1,"yT2":0,"toosoon":0,"cond_shown":"Congruent","ratio_trial":200,"L_num":15,"L_den":25,"R_num":4,"R_den":10,"correct_side":1,"subjID":"paulalondoñozambran16 ","gender":"1","school":"6","age":"11"},{"start_time":1551794007399,"click_time":1551794011135,"finger_time":1551794009455,"fix_duration":1002.3884682569118,"trial":11,"RT":2056,"MT":1680,"sideResp":2,"stimulus":[],"xmouse":[816,816,816,816,816,816,816,816,816,816,816,816,816,816,816,816,816,816,816,816,816,816,816,816,816,816,816,816,816,816,816,816,816,816,816,816,816,816,816,816,816,816,816,816,816,816,816,816,816,815,813,812,812,812,812,812,810,809,808,808,808,807,806,805,803,801,800,800,798,798,798,797,796,795,794,794,794,794,794,794,794,793,793,793,793,793,793,793,793,793,793,793,793,793,793,793,793,793,793,793,793,791,784,777,768,749,738,720,701,683,651,640,634,630,625,613,603,591,583,575,569,558,553,545,540,537,529,525,524,524,524,524,522,522,522,521,524,530,542,568,613,755,826,890,953,1013,1121,1144,1156,1160,1168,1175,1181,1185,1185,1185,1176,1160,1150,1145,1140,1135,1131,1129,1127,1126,1119,1116,1116,1116,1115,1112,1110,1109,1108,1108,1108,1107,1107,1107,1106,1105,1105,1105,1104,1104,1103],"ymouse":[479,479,479,479,479,479,479,479,479,479,479,479,479,479,479,479,479,479,479,479,479,479,479,479,479,479,479,479,479,479,479,479,479,479,479,479,479,479,479,479,479,479,479,479,479,479,479,480,480,480,479,478,478,477,477,477,476,476,475,475,475,474,473,472,470,469,467,467,467,466,466,465,462,460,460,460,460,460,460,460,459,458,458,458,458,458,458,458,458,458,458,458,458,458,458,458,458,458,458,458,458,453,442,434,425,409,399,378,354,333,301,291,286,281,272,242,226,206,196,185,176,161,154,144,138,134,127,124,123,123,123,123,123,123,123,123,138,148,163,185,221,307,342,368,387,396,400,395,388,384,367,355,342,330,318,284,262,229,212,203,192,180,173,166,161,156,145,142,142,142,141,135,132,130,130,129,126,124,123,121,120,113,109,106,103,101,97],"timestamp_mouse":[21,36,56,77,97,117,137,156,176,197,218,236,256,277,297,316,336,356,377,397,416,436,456,477,496,517,536,556,576,596,616,636,658,677,697,716,737,757,777,796,816,837,856,876,897,916,937,956,976,996,1017,1037,1057,1076,1098,1117,1138,1156,1176,1196,1216,1237,1257,1277,1297,1317,1336,1357,1376,1397,1417,1437,1456,1476,1496,1517,1536,1557,1577,1596,1616,1637,1656,1676,1698,1716,1737,1757,1776,1796,1816,1836,1856,1876,1896,1917,1936,1957,1977,1997,2017,2036,2056,2076,2096,2117,2137,2156,2177,2197,2216,2236,2256,2276,2296,2317,2337,2357,2376,2396,2416,2436,2456,2477,2496,2517,2536,2557,2576,2596,2616,2636,2656,2676,2696,2716,2737,2756,2777,2796,2816,2837,2856,2876,2896,2916,2936,2956,2976,2996,3016,3036,3056,3076,3096,3117,3136,3157,3176,3196,3216,3237,3256,3276,3297,3317,3336,3356,3376,3396,3417,3436,3456,3477,3496,3516,3536,3556,3576,3596,3616,3636,3656,3676,3696,3716,3736],"xSR":741.5,"ySR":449.15000000000003,"xT1":424.9,"yT1":0,"xT2":1058.1,"yT2":0,"toosoon":0,"cond_shown":"Incongruent","ratio_trial":300,"L_num":8,"L_den":10,"R_num":9,"R_den":18,"correct_side":1,"subjID":"paulalondoñozambran16 ","gender":"1","school":"6","age":"11"},{"start_time":1551794014481,"click_time":1551794016356,"finger_time":1551794015595,"fix_duration":705.4633372331888,"trial":12,"RT":1114,"MT":761,"sideResp":1,"stimulus":[],"xmouse":[784,784,784,784,784,784,784,784,784,784,784,784,784,784,784,784,784,784,784,784,784,784,784,784,784,784,784,784,784,784,784,784,784,784,784,784,784,784,784,784,784,784,784,784,784,784,784,784,784,784,784,784,781,778,773,770,763,759,755,752,750,742,732,708,690,677,655,641,620,600,581,541,526,524,524,524,524,524,524,524,523,520,518,516,515,514,513,513,513,513,513,513,512,512],"ymouse":[471,471,471,471,471,471,471,471,471,471,471,471,471,471,471,471,471,471,471,471,471,471,471,471,471,471,471,471,471,471,471,471,471,471,471,471,471,471,471,471,471,471,471,471,471,471,471,471,471,471,471,470,464,459,452,447,435,430,424,420,417,407,395,367,353,341,318,301,274,252,233,201,191,189,189,187,177,171,164,157,150,136,129,121,113,110,107,105,105,105,105,105,103,98],"timestamp_mouse":[14,35,54,74,94,114,134,154,174,194,214,234,254,274,294,315,335,354,374,395,414,435,454,474,494,515,534,555,574,594,614,635,654,674,694,714,735,755,775,794,815,835,855,874,894,914,935,954,974,995,1014,1034,1054,1074,1095,1114,1135,1155,1174,1195,1215,1235,1254,1275,1294,1314,1334,1354,1375,1394,1414,1435,1455,1475,1494,1514,1534,1555,1575,1594,1614,1635,1655,1675,1694,1715,1735,1754,1775,1794,1814,1835,1855,1875],"xSR":741.5,"ySR":449.15000000000003,"xT1":424.9,"yT1":0,"xT2":1058.1,"yT2":0,"toosoon":0,"cond_shown":"Congruent","ratio_trial":100,"L_num":11,"L_den":22,"R_num":4,"R_den":10,"correct_side":1,"subjID":"paulalondoñozambran16 ","gender":"1","school":"6","age":"11"},{"start_time":1551794018924,"click_time":1551794020435,"finger_time":1551794020356,"fix_duration":1367.7458572883465,"trial":13,"RT":1432,"MT":79,"sideResp":1,"stimulus":[],"xmouse":[768,768,768,768,768,768,768,768,768,768,768,768,768,768,768,768,768,768,768,768,768,768,768,768,768,768,768,768,768,768,768,768,768,768,768,768,768,768,768,768,768,768,768,768,768,768,768,768,768,768,768,768,768,768,768,768,768,768,768,768,768,768,768,768,768,768,768,768,768,767,759,720,667,597,528,447],"ymouse":[472,472,472,472,472,472,472,472,472,472,472,472,472,472,472,472,472,472,472,472,472,472,472,472,472,472,472,472,472,472,472,472,472,472,472,472,472,472,472,472,472,472,472,472,472,472,472,472,472,472,472,472,472,472,472,472,472,472,472,472,472,472,472,472,472,472,472,472,472,472,454,386,310,227,144,15],"timestamp_mouse":[14,32,51,72,92,112,131,151,171,191,211,231,251,272,291,312,331,351,372,392,411,432,451,471,491,511,531,552,571,591,611,631,652,671,692,712,731,753,772,791,812,831,851,871,892,911,931,952,971,991,1011,1032,1051,1072,1091,1112,1131,1151,1171,1191,1211,1232,1251,1271,1291,1311,1331,1351,1371,1392,1412,1432,1451,1471,1492,1511],"xSR":741.5,"ySR":449.15000000000003,"xT1":424.9,"yT1":0,"xT2":1058.1,"yT2":0,"toosoon":0,"cond_shown":"Congruent","ratio_trial":100,"L_num":8,"L_den":16,"R_num":2,"R_den":5,"correct_side":1,"subjID":"paulalondoñozambran16 ","gender":"1","school":"6","age":"11"},{"start_time":1551794023137,"click_time":1551794027396,"finger_time":1551794024735,"fix_duration":1120.2099645599114,"trial":14,"RT":1598,"MT":2661,"sideResp":1,"stimulus":[],"xmouse":[803,803,803,803,803,803,803,803,803,803,803,803,803,803,803,803,803,803,803,803,803,803,803,803,803,803,803,803,803,803,803,803,803,803,803,803,803,803,803,803,803,803,803,803,803,803,803,803,803,803,803,803,803,803,803,803,803,803,803,803,803,803,803,802,802,802,802,802,802,801,800,796,790,782,771,767,763,760,755,754,752,751,748,743,716,682,656,641,636,636,636,636,636,636,636,636,636,636,636,636,636,637,647,671,682,692,706,719,732,747,751,751,751,751,751,753,755,758,762,766,767,767,768,771,772,773,775,776,777,786,799,810,820,839,849,859,872,886,916,936,949,959,969,991,999,1007,1011,1017,1019,1022,1024,1025,1027,1030,1032,1035,1036,1037,1037,1037,1037,1037,1037,1037,1037,1036,1034,1030,1016,1005,981,962,942,919,860,822,782,752,716,704,685,672,661,636,619,603,588,576,560,552,550,542,535,521,514,508,503,497,494,490,489,489,489,489,489,489,489,489,489,489,489,489,489],"ymouse":[476,476,476,476,476,476,476,476,476,476,476,476,476,476,476,476,476,476,476,476,476,476,476,476,476,476,476,476,476,476,476,476,476,476,476,476,476,476,476,476,476,476,476,476,476,476,476,477,477,477,477,477,477,477,477,477,478,478,479,479,479,479,479,480,480,480,480,480,480,480,480,479,475,469,465,464,463,460,453,448,439,434,430,423,389,355,336,326,324,324,324,324,324,324,324,324,324,324,324,324,324,324,328,345,355,363,374,389,399,411,415,415,415,415,415,417,419,422,426,430,431,432,435,436,436,436,436,436,436,433,428,424,422,420,418,417,414,409,402,396,393,389,383,368,361,354,348,340,335,325,320,314,308,288,280,274,267,265,261,256,251,249,245,237,233,231,231,231,235,236,236,232,230,227,219,214,204,195,188,186,180,176,173,166,161,159,155,154,149,146,145,142,137,126,120,117,112,108,104,100,100,100,100,100,100,100,100,100,100,100,100,100,99],"timestamp_mouse":[19,38,59,79,99,119,138,158,178,198,220,239,258,278,299,319,340,358,378,398,418,438,458,478,498,519,539,559,578,598,618,639,658,679,698,718,739,759,778,799,818,839,858,878,898,919,939,958,978,998,1018,1038,1058,1078,1098,1118,1138,1158,1179,1199,1219,1238,1258,1278,1299,1319,1338,1358,1379,1399,1418,1439,1459,1478,1498,1519,1538,1558,1578,1598,1618,1639,1658,1678,1698,1719,1738,1758,1779,1799,1818,1839,1858,1878,1899,1918,1938,1959,1979,1998,2018,2038,2058,2078,2098,2118,2138,2158,2179,2198,2219,2238,2258,2279,2298,2318,2338,2358,2379,2398,2419,2438,2458,2478,2498,2518,2538,2558,2579,2598,2619,2638,2658,2679,2698,2719,2738,2758,2779,2798,2818,2838,2858,2878,2898,2919,2938,2958,2979,2998,3018,3038,3058,3078,3099,3118,3138,3159,3179,3198,3218,3239,3258,3278,3299,3319,3338,3358,3378,3399,3418,3439,3458,3479,3499,3518,3539,3558,3579,3599,3618,3638,3658,3679,3698,3718,3738,3758,3778,3798,3818,3838,3858,3879,3899,3918,3939,3959,3978,3998,4018,4038,4060,4079,4099,4118,4138,4158,4179,4198,4218,4238,4259],"xSR":741.5,"ySR":449.15000000000003,"xT1":424.9,"yT1":0,"xT2":1058.1,"yT2":0,"toosoon":0,"cond_shown":"Incongruent","ratio_trial":100,"L_num":10,"L_den":25,"R_num":8,"R_den":16,"correct_side":2,"subjID":"paulalondoñozambran16 ","gender":"1","school":"6","age":"11"},{"start_time":1551794039121,"click_time":1551794044035,"finger_time":1551794043636,"fix_duration":1424.1951505484906,"trial":15,"RT":4515,"MT":399,"sideResp":2,"stimulus":[],"xmouse":[795,795,795,795,795,795,795,795,795,795,795,795,795,795,795,795,795,795,795,795,795,795,795,795,795,795,795,795,795,795,795,795,795,795,795,795,795,795,795,795,795,795,795,795,795,795,795,795,795,795,795,795,795,795,795,795,795,795,795,795,795,795,795,795,795,795,795,795,795,795,795,795,795,795,795,795,795,795,795,795,795,795,795,795,795,795,795,795,795,795,795,795,795,795,795,795,795,795,795,795,795,795,795,795,795,795,795,795,795,795,795,795,795,795,795,795,795,795,795,795,795,795,795,795,795,795,795,795,795,795,795,795,795,795,795,795,795,795,795,795,795,795,795,795,795,795,795,795,795,795,795,795,795,795,795,795,795,795,795,795,795,795,795,795,795,795,795,795,795,795,795,795,795,795,795,795,795,795,795,795,795,795,795,795,795,795,795,795,795,795,795,795,795,795,795,795,795,795,795,795,795,795,795,795,795,795,795,795,795,795,795,795,795,795,795,795,795,795,795,795,795,800,804,806,816,828,844,861,879,898,937,968,990,1012,1046,1058,1066,1078,1088,1107,1116,1120,1121,1121,1123,1123],"ymouse":[467,467,467,467,467,467,467,467,467,467,467,467,467,467,467,467,467,467,467,467,467,467,467,467,467,467,467,467,467,467,467,467,467,467,467,467,467,467,467,467,467,467,467,467,467,467,467,467,467,467,467,467,467,467,467,467,467,467,467,467,467,467,467,467,467,467,467,467,467,467,467,467,467,467,467,467,467,467,467,467,467,467,467,467,467,467,467,467,467,467,467,467,467,467,467,467,467,467,467,467,467,467,467,467,467,467,467,467,467,467,467,467,467,467,467,467,467,467,467,467,467,467,467,467,467,467,467,467,467,467,467,467,467,467,467,467,467,467,467,467,467,467,467,467,467,467,467,467,467,467,467,467,467,467,467,467,467,467,467,467,467,467,467,467,467,467,467,467,467,467,467,467,467,467,467,467,467,467,467,467,467,467,467,467,467,467,467,467,467,467,467,467,467,467,467,467,467,467,467,467,467,467,467,467,467,467,467,467,467,467,467,467,467,467,467,467,467,467,467,467,467,464,461,459,451,442,433,426,418,410,393,376,360,340,306,291,278,262,245,202,180,156,144,133,111,99],"timestamp_mouse":[16,35,54,75,95,114,134,155,174,195,216,234,254,275,294,315,336,354,374,394,415,435,455,474,494,514,535,554,574,594,615,636,654,674,695,714,734,755,774,794,814,834,854,874,894,915,934,954,974,994,1014,1034,1054,1075,1095,1115,1134,1155,1176,1194,1214,1234,1254,1274,1294,1314,1334,1355,1374,1396,1414,1434,1455,1475,1494,1514,1534,1554,1575,1594,1615,1636,1654,1674,1694,1714,1735,1755,1774,1794,1814,1834,1856,1874,1895,1915,1934,1954,1975,1994,2014,2034,2054,2074,2095,2116,2134,2155,2174,2196,2214,2234,2254,2275,2294,2315,2334,2354,2374,2395,2414,2434,2455,2474,2496,2514,2534,2554,2574,2594,2615,2634,2654,2674,2694,2714,2736,2754,2774,2794,2814,2834,2855,2874,2894,2914,2934,2954,2974,2994,3014,3034,3054,3074,3094,3114,3134,3156,3175,3194,3214,3234,3254,3274,3294,3315,3334,3355,3374,3394,3416,3434,3455,3474,3494,3514,3535,3554,3575,3595,3614,3635,3656,3675,3694,3714,3734,3756,3774,3794,3815,3834,3855,3875,3894,3914,3934,3954,3974,3994,4015,4035,4054,4075,4095,4115,4134,4154,4174,4195,4216,4234,4254,4274,4295,4314,4334,4354,4375,4395,4414,4434,4455,4474,4494,4515,4534,4554,4575,4595,4614,4634,4654,4674,4694,4715,4734,4754,4774,4794,4815,4834,4854,4874,4894,4914],"xSR":741.5,"ySR":449.15000000000003,"xT1":424.9,"yT1":0,"xT2":1058.1,"yT2":0,"toosoon":0,"cond_shown":"Incongruent","ratio_trial":300,"L_num":1,"L_den":2,"R_num":2,"R_den":10,"correct_side":1,"subjID":"paulalondoñozambran16 ","gender":"1","school":"6","age":"11"},{"start_time":1551794051559,"click_time":1551794087215,"finger_time":1551794086655,"fix_duration":1103.727035955517,"trial":16,"RT":35096,"MT":560,"sideResp":2,"stimulus":[],"xmouse":[806,806,806,806,806,806,806,806,806,806,806,806,806,806,806,806,806,806,806,806,806,806,806,806,806,806,806,806,806,806,806,806,806,806,806,806,806,806,806,806,806,806,806,806,806,806,806,806,806,806,806,806,806,806,806,806,806,806,806,806,806,806,806,806,806,806,806,806,806,806,806,806,806,806,806,806,806,806,806,806,806,806,806,806,806,806,806,806,806,806,806,806,806,806,806,806,806,806,806,806,806,806,806,806,806,806,806,806,806,806,806,806,806,806,806,806,806,806,806,806,806,806,806,806,806,806,806,806,806,806,806,806,806,806,806,806,806,806,806,806,806,806,806,806,806,806,806,806,806,806,806,806,806,806,806,806,806,806,806,806,806,806,806,806,806,806,806,806,806,806,806,806,806,806,806,806,806,806,806,806,806,806,806,806,806,806,806,806,806,806,806,806,806,806,806,806,806,806,806,806,806,806,806,806,806,806,806,806,806,806,806,806,806,806,806,806,806,806,806,806,806,806,806,806,806,806,806,806,806,806,806,806,806,806,806,806,806,806,806,806,806,806,806,806,806,806,806,806,806,806,806,806,806,806,806,806,806,806,806,806,806,806,806,806,806,806,806,806,806,806,806,806,806,806,806,806,806,806,806,806,806,806,806,806,806,806,806,806,806,806,806,806,806,806,806,806,806,806,806,806,806,806,806,806,806,806,806,806,806,806,806,806,806,806,806,806,806,806,806,806,806,806,806,806,806,806,806,806,806,806,806,806,806,806,806,806,806,806,806,806,806,806,806,806,806,806,806,806,806,806,806,806,806,806,806,806,806,806,806,806,806,806,806,806,806,806,806,806,806,806,806,806,806,806,806,806,806,806,806,806,806,806,806,806,806,806,806,806,806,806,806,806,806,806,806,806,806,806,806,806,806,806,806,806,806,806,806,806,806,806,806,806,806,806,806,806,806,806,806,806,806,806,806,806,806,806,806,806,806,806,806,806,806,806,806,806,806,806,806,806,806,806,806,806,806,806,806,806,806,806,806,806,806,806,806,806,806,806,806,806,806,806,806,806,806,806,806,806,806,806,806,806,806,806,806,806,806,806,806,806,806,806,806,806,806,806,806,806,806,806,806,806,806,806,806,806,806,806,806,806,806,806,806,806,806,806,806,806,806,806,806,806,806,806,806,806,806,806,806,806,806,806,806,806,806,806,806,806,806,806,806,806,806,806,806,806,806,806,806,806,806,806,806,806,806,806,806,806,806,806,806,806,806,806,806,806,806,806,806,806,806,806,806,806,806,806,806,806,806,806,806,806,806,806,806,806,806,806,806,806,806,806,806,806,806,806,806,806,806,806,806,806,806,806,806,806,806,806,806,806,806,806,806,806,806,806,806,806,806,806,806,806,806,806,806,806,806,806,806,806,806,806,806,806,806,806,806,806,806,806,806,806,806,806,806,806,806,806,806,806,806,806,806,806,806,806,806,806,806,806,806,806,806,806,806,806,806,806,806,806,806,806,806,806,806,806,806,806,806,806,806,806,806,806,806,806,806,806,806,806,806,806,806,806,806,806,806,806,806,806,806,806,806,806,806,806,806,806,806,806,806,806,806,806,806,806,806,806,806,806,806,806,806,806,806,806,806,806,806,806,806,806,806,806,806,806,806,806,806,806,806,806,806,806,806,806,806,806,806,806,806,806,806,806,806,806,806,806,806,806,806,806,806,806,806,806,806,806,806,806,806,806,806,806,806,806,806,806,806,806,806,806,806,806,806,806,806,806,806,806,806,806,806,806,806,806,806,806,806,806,806,806,806,806,806,806,806,806,806,806,806,806,806,806,806,806,806,806,806,806,806,806,806,806,806,806,806,806,806,806,806,806,806,806,806,806,806,806,806,806,806,806,806,806,806,806,806,806,806,806,806,806,806,806,806,806,806,806,806,806,806,806,806,806,806,806,806,806,806,806,806,806,806,806,806,806,806,806,806,806,806,806,806,806,806,806,806,806,806,806,806,806,806,806,806,806,806,806,806,806,806,806,806,806,806,806,806,806,806,806,806,806,806,806,806,806,806,806,806,806,806,806,806,806,806,806,806,806,806,806,806,806,806,806,806,806,806,806,806,806,806,806,806,806,806,806,806,806,806,806,806,806,806,806,806,806,806,806,806,806,806,806,806,806,806,806,806,806,806,806,806,806,806,806,806,806,806,806,806,806,806,806,806,806,806,806,806,806,806,806,806,806,806,806,806,806,806,806,806,806,806,806,806,806,806,806,806,806,806,806,806,806,806,806,806,806,806,806,806,806,806,806,806,806,806,806,806,806,806,806,806,806,806,806,806,806,806,806,806,806,806,806,806,806,806,806,806,806,806,806,806,806,806,806,806,806,806,806,806,806,806,806,806,806,806,806,806,806,806,806,806,806,806,806,806,806,806,806,806,806,806,806,806,806,806,806,806,806,806,806,806,806,806,806,806,806,806,806,806,806,806,806,806,806,806,806,806,806,806,806,806,806,806,806,806,806,806,806,806,806,806,806,806,806,806,806,806,806,806,806,806,806,806,806,806,806,806,806,806,806,806,806,806,806,806,806,806,806,806,806,806,806,806,806,806,806,806,806,806,806,806,806,806,806,806,806,806,806,806,806,806,806,806,806,806,806,806,806,806,806,806,806,806,806,806,806,806,806,806,806,806,806,806,806,806,806,806,806,806,806,806,806,806,806,806,806,806,806,806,806,806,806,806,806,806,806,806,806,806,806,806,806,806,806,806,806,806,806,806,806,806,806,806,806,806,806,806,806,806,806,806,806,806,806,806,806,806,806,806,806,806,806,806,806,806,806,806,806,806,806,806,806,806,806,806,806,806,806,806,806,806,806,806,806,806,806,806,806,806,806,806,806,806,806,806,806,806,806,806,806,806,806,806,806,806,806,806,806,806,806,806,806,806,806,806,806,806,806,806,806,806,806,806,806,806,806,806,806,806,806,806,806,806,806,806,806,806,806,806,806,806,806,806,806,806,806,806,806,806,806,806,806,806,806,806,806,806,806,806,806,806,806,806,806,806,806,806,806,806,806,806,806,806,806,806,806,806,806,806,806,806,806,806,806,806,806,806,806,806,806,806,806,806,806,806,806,806,806,806,806,806,806,806,806,806,806,806,806,806,806,806,806,806,806,806,806,806,806,806,806,806,806,806,806,806,806,806,806,806,806,806,806,806,806,806,806,806,806,806,806,806,806,806,806,806,806,806,806,806,806,806,806,806,806,806,806,806,806,806,806,806,806,806,806,806,806,806,806,806,806,806,806,806,806,806,806,806,806,806,806,806,806,806,806,806,806,806,806,806,806,806,806,806,806,806,806,806,806,806,806,806,806,806,806,806,806,806,806,806,806,806,806,806,806,806,806,806,806,806,806,806,806,806,806,806,806,806,806,806,806,806,806,806,806,806,806,806,806,806,806,806,806,806,806,806,806,806,806,806,806,806,806,806,806,806,806,806,806,806,806,806,806,806,806,806,806,806,806,806,806,806,806,806,806,806,806,806,806,806,806,806,806,806,806,806,806,806,806,806,806,806,806,806,806,806,806,806,806,806,806,806,806,806,806,806,806,806,806,806,806,806,806,806,806,806,806,806,806,806,806,806,806,806,806,806,806,806,806,806,806,806,806,806,806,806,806,806,806,806,806,806,806,806,806,806,806,806,806,806,806,806,806,806,806,806,806,806,806,806,806,806,806,806,806,806,806,806,806,806,806,806,806,806,806,806,806,806,806,806,806,806,806,806,806,806,806,806,806,806,806,806,806,806,806,806,806,806,806,806,806,806,806,806,806,806,806,806,806,806,806,806,806,806,806,806,806,806,806,806,806,806,806,806,806,806,806,806,806,806,806,806,806,806,806,806,800,798,794,793,793,793,793,793,790,790,788,787,787,787,787,787,787,787,787,787,787,787,787,787,787,787,787,788,793,797,801,805,809,811,812,813,815,817,818,818,818,819,820,822,823,825,827,837,845,859,875,889,923,937,958,976,993,1020,1031,1040,1048,1052,1058,1060,1065,1072,1076,1081],"ymouse":[457,457,457,457,457,457,457,457,457,457,457,457,457,457,457,457,457,457,457,457,457,457,457,457,457,457,457,457,457,457,457,457,457,457,457,457,457,457,457,457,457,457,457,457,457,457,457,457,457,457,457,457,457,457,457,457,457,457,457,457,457,457,457,457,457,457,457,457,457,457,457,457,457,457,457,457,457,457,457,457,457,457,457,457,457,457,457,457,457,457,457,457,457,457,457,457,457,457,457,457,457,457,457,457,457,457,457,457,457,457,457,457,457,457,457,457,457,457,457,457,457,457,457,457,457,457,457,457,457,457,457,457,457,457,457,457,457,457,457,457,457,457,457,457,457,457,457,457,457,457,457,457,457,457,457,457,457,457,457,457,457,457,457,457,457,457,457,457,457,457,457,457,457,457,457,457,457,457,457,457,457,457,457,457,457,457,457,457,457,457,457,457,457,457,457,457,457,457,457,457,457,457,457,457,457,457,457,457,457,457,457,457,457,457,457,457,457,457,457,457,457,457,457,457,457,457,457,457,457,457,457,457,457,457,457,457,457,457,457,457,457,457,457,457,457,457,457,457,457,457,457,457,457,457,457,457,457,457,457,457,457,457,457,457,457,457,457,457,457,457,457,457,457,457,457,457,457,457,457,457,457,457,457,457,457,457,457,457,457,457,457,457,457,457,457,457,457,457,457,457,457,457,457,457,457,457,457,457,457,457,457,457,457,457,457,457,457,457,457,457,457,457,457,457,457,457,457,457,457,457,457,457,457,457,457,457,457,457,457,457,457,457,457,457,457,457,457,457,457,457,457,457,457,457,457,457,457,457,457,457,457,457,457,457,457,457,457,457,457,457,457,457,457,457,457,457,457,457,457,457,457,457,457,457,457,457,457,457,457,457,457,457,457,457,457,457,457,457,457,457,457,457,457,457,457,457,457,457,457,457,457,457,457,457,457,457,457,457,457,457,457,457,457,457,457,457,457,457,457,457,457,457,457,457,457,457,457,457,457,457,457,457,457,457,457,457,457,457,457,457,457,457,457,457,457,457,457,457,457,457,457,457,457,457,457,457,457,457,457,457,457,457,457,457,457,457,457,457,457,457,457,457,457,457,457,457,457,457,457,457,457,457,457,457,457,457,457,457,457,457,457,457,457,457,457,457,457,457,457,457,457,457,457,457,457,457,457,457,457,457,457,457,457,457,457,457,457,457,457,457,457,457,457,457,457,457,457,457,457,457,457,457,457,457,457,457,457,457,457,457,457,457,457,457,457,457,457,457,457,457,457,457,457,457,457,457,457,457,457,457,457,457,457,457,457,457,457,457,457,457,457,457,457,457,457,457,457,457,457,457,457,457,457,457,457,457,457,457,457,457,457,457,457,457,457,457,457,457,457,457,457,457,457,457,457,457,457,457,457,457,457,457,457,457,457,457,457,457,457,457,457,457,457,457,457,457,457,457,457,457,457,457,457,457,457,457,457,457,457,457,457,457,457,457,457,457,457,457,457,457,457,457,457,457,457,457,457,457,457,457,457,457,457,457,457,457,457,457,457,457,457,457,457,457,457,457,457,457,457,457,457,457,457,457,457,457,457,457,457,457,457,457,457,457,457,457,457,457,457,457,457,457,457,457,457,457,457,457,457,457,457,457,457,457,457,457,457,457,457,457,457,457,457,457,457,457,457,457,457,457,457,457,457,457,457,457,457,457,457,457,457,457,457,457,457,457,457,457,457,457,457,457,457,457,457,457,457,457,457,457,457,457,457,457,457,457,457,457,457,457,457,457,457,457,457,457,457,457,457,457,457,457,457,457,457,457,457,457,457,457,457,457,457,457,457,457,457,457,457,457,457,457,457,457,457,457,457,457,457,457,457,457,457,457,457,457,457,457,457,457,457,457,457,457,457,457,457,457,457,457,457,457,457,457,457,457,457,457,457,457,457,457,457,457,457,457,457,457,457,457,457,457,457,457,457,457,457,457,457,457,457,457,457,457,457,457,457,457,457,457,457,457,457,457,457,457,457,457,457,457,457,457,457,457,457,457,457,457,457,457,457,457,457,457,457,457,457,457,457,457,457,457,457,457,457,457,457,457,457,457,457,457,457,457,457,457,457,457,457,457,457,457,457,457,457,457,457,457,457,457,457,457,457,457,457,457,457,457,457,457,457,457,457,457,457,457,457,457,457,457,457,457,457,457,457,457,457,457,457,457,457,457,457,457,457,457,457,457,457,457,457,457,457,457,457,457,457,457,457,457,457,457,457,457,457,457,457,457,457,457,457,457,457,457,457,457,457,457,457,457,457,457,457,457,457,457,457,457,457,457,457,457,457,457,457,457,457,457,457,457,457,457,457,457,457,457,457,457,457,457,457,457,457,457,457,457,457,457,457,457,457,457,457,457,457,457,457,457,457,457,457,457,457,457,457,457,457,457,457,457,457,457,457,457,457,457,457,457,457,457,457,457,457,457,457,457,457,457,457,457,457,457,457,457,457,457,457,457,457,457,457,457,457,457,457,457,457,457,457,457,457,457,457,457,457,457,457,457,457,457,457,457,457,457,457,457,457,457,457,457,457,457,457,457,457,457,457,457,457,457,457,457,457,457,457,457,457,457,457,457,457,457,457,457,457,457,457,457,457,457,457,457,457,457,457,457,457,457,457,457,457,457,457,457,457,457,457,457,457,457,457,457,457,457,457,457,457,457,457,457,457,457,457,457,457,457,457,457,457,457,457,457,457,457,457,457,457,457,457,457,457,457,457,457,457,457,457,457,457,457,457,457,457,457,457,457,457,457,457,457,457,457,457,457,457,457,457,457,457,457,457,457,457,457,457,457,457,457,457,457,457,457,457,457,457,457,457,457,457,457,457,457,457,457,457,457,457,457,457,457,457,457,457,457,457,457,457,457,457,457,457,457,457,457,457,457,457,457,457,457,457,457,457,457,457,457,457,457,457,457,457,457,457,457,457,457,457,457,457,457,457,457,457,457,457,457,457,457,457,457,457,457,457,457,457,457,457,457,457,457,457,457,457,457,457,457,457,457,457,457,457,457,457,457,457,457,457,457,457,457,457,457,457,457,457,457,457,457,457,457,457,457,457,457,457,457,457,457,457,457,457,457,457,457,457,457,457,457,457,457,457,457,457,457,457,457,457,457,457,457,457,457,457,457,457,457,457,457,457,457,457,457,457,457,457,457,457,457,457,457,457,457,457,457,457,457,457,457,457,457,457,457,457,457,457,457,457,457,457,457,457,457,457,457,457,457,457,457,457,457,457,457,457,457,457,457,457,457,457,457,457,457,457,457,457,457,457,457,457,457,457,457,457,457,457,457,457,457,457,457,457,457,457,457,457,457,457,457,457,457,457,457,457,457,457,457,457,457,457,457,457,457,457,457,457,457,457,457,457,457,457,457,457,457,457,457,457,457,457,457,457,457,457,457,457,457,457,457,457,457,457,457,457,457,457,457,457,457,457,457,457,457,457,457,457,457,457,457,457,457,457,457,457,457,457,457,457,457,457,457,457,457,457,457,457,457,457,457,457,457,457,457,457,457,457,457,457,457,457,457,457,457,457,457,457,457,457,457,457,457,457,457,457,457,457,457,457,457,457,457,457,457,457,457,457,457,457,457,457,457,457,457,457,457,457,457,457,457,457,457,457,457,457,457,457,457,457,457,457,457,457,457,457,457,457,457,457,457,457,457,457,457,457,457,457,457,457,457,457,457,457,457,457,457,457,457,457,457,457,457,457,457,457,457,457,457,457,457,457,457,457,457,457,457,457,457,457,457,457,457,457,457,457,457,457,457,457,457,457,457,457,457,457,457,457,457,457,457,457,457,457,457,457,457,457,457,457,457,457,457,457,457,457,457,457,457,457,457,457,457,457,457,457,457,457,462,464,468,469,469,469,469,473,477,483,485,487,488,491,492,492,492,492,492,492,492,494,494,494,495,495,496,496,496,493,491,489,485,483,482,477,468,455,450,445,442,438,435,432,431,429,426,417,410,401,390,379,346,330,301,277,252,206,190,174,161,150,134,126,118,107,101,95],"timestamp_mouse":[16,37,56,77,96,117,136,156,177,196,217,236,256,277,296,316,337,356,376,396,416,437,457,476,497,516,536,556,578,597,617,637,656,677,697,716,736,757,777,798,818,838,858,878,898,917,937,956,977,996,1017,1036,1056,1076,1096,1116,1136,1156,1176,1196,1216,1236,1257,1278,1298,1316,1337,1356,1376,1396,1417,1436,1457,1477,1497,1516,1536,1557,1576,1597,1617,1637,1657,1676,1696,1718,1736,1756,1776,1797,1817,1837,1858,1877,1896,1916,1937,1956,1976,1996,2016,2037,2056,2077,2098,2116,2137,2156,2176,2197,2216,2236,2257,2276,2296,2316,2337,2357,2376,2396,2416,2436,2456,2477,2496,2516,2537,2558,2576,2596,2616,2637,2656,2676,2697,2716,2737,2756,2776,2796,2817,2836,2856,2876,2897,2917,2936,2956,2976,2997,3016,3036,3056,3077,3098,3116,3136,3157,3177,3196,3216,3237,3257,3277,3297,3316,3336,3358,3377,3397,3417,3436,3457,3477,3496,3517,3536,3556,3577,3597,3616,3636,3656,3676,3698,3717,3737,3758,3777,3797,3816,3836,3857,3877,3897,3917,3937,3957,3976,3996,4017,4037,4056,4076,4096,4116,4136,4156,4178,4197,4217,4236,4256,4277,4297,4318,4337,4357,4377,4396,4416,4437,4457,4477,4496,4518,4536,4556,4577,4596,4617,4637,4657,4676,4696,4716,4737,4757,4776,4797,4817,4837,4856,4877,4897,4918,4936,4956,4976,4996,5017,5037,5057,5077,5097,5116,5138,5157,5176,5197,5217,5237,5256,5277,5296,5316,5336,5357,5377,5397,5417,5437,5456,5476,5496,5516,5536,5558,5577,5597,5617,5637,5657,5676,5698,5716,5736,5757,5777,5797,5816,5837,5857,5877,5897,5917,5936,5957,5977,5996,6017,6037,6056,6077,6096,6117,6136,6157,6176,6197,6217,6238,6257,6276,6297,6317,6336,6357,6377,6396,6418,6436,6456,6477,6498,6517,6537,6556,6576,6597,6616,6636,6656,6676,6696,6716,6736,6757,6776,6796,6817,6836,6857,6876,6896,6918,6937,6956,6976,6996,7016,7037,7056,7077,7097,7116,7137,7156,7176,7197,7217,7237,7256,7276,7296,7317,7336,7356,7377,7396,7418,7436,7456,7476,7496,7516,7536,7556,7577,7596,7617,7637,7656,7677,7696,7717,7736,7757,7778,7797,7816,7836,7856,7876,7896,7917,7937,7956,7976,7997,8016,8037,8056,8076,8096,8116,8138,8157,8176,8197,8216,8236,8257,8277,8297,8317,8336,8356,8378,8397,8416,8436,8456,8476,8496,8517,8537,8557,8577,8596,8617,8637,8658,8676,8697,8717,8737,8757,8777,8796,8816,8836,8858,8877,8897,8916,8937,8956,8976,8997,9017,9036,9056,9077,9097,9116,9137,9156,9176,9196,9216,9236,9256,9278,9296,9317,9337,9357,9376,9397,9417,9436,9456,9477,9496,9517,9536,9556,9576,9596,9617,9636,9657,9676,9696,9716,9738,9757,9777,9798,9817,9836,9857,9878,9896,9918,9936,9956,9977,9996,10017,10037,10056,10076,10097,10117,10137,10156,10176,10197,10217,10236,10256,10277,10296,10317,10336,10357,10377,10397,10417,10438,10456,10477,10496,10516,10536,10556,10576,10597,10616,10637,10656,10676,10697,10716,10738,10756,10776,10797,10818,10836,10857,10876,10896,10916,10936,10956,10976,10996,11016,11036,11056,11077,11096,11116,11136,11157,11176,11196,11218,11236,11257,11276,11296,11317,11336,11357,11377,11397,11416,11436,11456,11476,11496,11518,11536,11556,11577,11596,11616,11636,11657,11676,11697,11717,11737,11757,11776,11797,11818,11837,11856,11877,11896,11916,11938,11957,11977,11997,12018,12036,12056,12077,12097,12116,12136,12156,12176,12197,12216,12236,12256,12276,12297,12317,12336,12357,12377,12397,12417,12436,12457,12477,12497,12516,12536,12556,12577,12596,12616,12637,12656,12676,12697,12716,12737,12757,12777,12796,12817,12837,12856,12878,12896,12917,12936,12956,12976,12997,13016,13036,13056,13076,13097,13116,13136,13156,13176,13198,13217,13236,13257,13280,13297,13317,13336,13357,13376,13396,13416,13436,13456,13477,13497,13516,13536,13556,13577,13597,13617,13636,13658,13676,13696,13716,13736,13756,13776,13797,13817,13836,13856,13876,13896,13917,13936,13956,13976,13997,14016,14037,14056,14077,14096,14116,14136,14156,14177,14196,14216,14236,14256,14276,14296,14317,14336,14356,14376,14396,14417,14436,14456,14476,14497,14517,14537,14556,14576,14597,14616,14637,14656,14677,14697,14716,14736,14756,14776,14797,14817,14836,14856,14877,14897,14916,14937,14956,14978,14997,15017,15037,15056,15077,15096,15116,15136,15157,15176,15196,15216,15237,15256,15276,15296,15316,15336,15357,15378,15397,15417,15437,15457,15477,15496,15517,15537,15557,15578,15596,15617,15637,15656,15676,15696,15716,15737,15756,15777,15797,15817,15836,15856,15877,15896,15917,15936,15956,15977,15996,16016,16037,16057,16076,16097,16116,16137,16157,16177,16198,16216,16237,16256,16276,16297,16317,16336,16357,16377,16398,16416,16436,16456,16478,16496,16517,16536,16556,16576,16597,16616,16636,16657,16677,16696,16716,16738,16757,16777,16797,16817,16836,16857,16876,16898,16917,16936,16956,16976,16996,17017,17036,17058,17076,17096,17116,17136,17156,17177,17196,17217,17236,17257,17278,17297,17316,17337,17356,17376,17396,17416,17436,17456,17477,17496,17516,17537,17556,17576,17597,17616,17636,17657,17676,17696,17716,17737,17757,17777,17796,17817,17836,17857,17877,17896,17917,17936,17956,17976,17996,18017,18037,18056,18076,18096,18117,18136,18158,18176,18197,18216,18236,18257,18276,18296,18316,18337,18357,18376,18396,18416,18437,18457,18477,18496,18517,18538,18556,18576,18596,18616,18637,18656,18678,18696,18716,18738,18758,18777,18797,18817,18836,18858,18876,18897,18918,18936,18956,18976,18996,19017,19036,19058,19076,19096,19116,19136,19156,19176,19196,19216,19236,19258,19277,19298,19317,19337,19356,19376,19397,19417,19437,19458,19476,19497,19517,19537,19556,19576,19597,19617,19636,19657,19677,19698,19716,19737,19757,19777,19796,19816,19836,19856,19877,19896,19916,19937,19956,19976,19998,20017,20037,20057,20077,20098,20117,20137,20156,20177,20196,20216,20236,20256,20276,20297,20316,20337,20357,20377,20396,20418,20436,20457,20478,20496,20517,20537,20556,20577,20596,20616,20637,20657,20677,20696,20717,20736,20756,20776,20797,20817,20838,20857,20876,20896,20918,20936,20956,20977,20996,21016,21037,21056,21077,21097,21116,21137,21156,21177,21197,21216,21237,21256,21276,21297,21316,21336,21356,21377,21397,21417,21436,21456,21476,21496,21517,21536,21556,21576,21596,21618,21637,21657,21676,21696,21716,21737,21756,21776,21796,21817,21836,21857,21876,21896,21917,21937,21956,21978,21996,22016,22037,22056,22077,22096,22118,22136,22156,22176,22196,22217,22236,22257,22277,22296,22317,22337,22357,22377,22396,22416,22436,22457,22477,22497,22516,22537,22557,22578,22597,22617,22636,22657,22676,22697,22716,22737,22757,22777,22796,22816,22836,22856,22876,22896,22917,22937,22956,22976,22996,23017,23036,23056,23077,23097,23116,23136,23157,23176,23196,23216,23236,23257,23276,23297,23317,23336,23356,23377,23396,23417,23436,23456,23477,23496,23516,23536,23558,23576,23597,23616,23637,23656,23676,23697,23718,23736,23756,23778,23796,23817,23836,23856,23877,23896,23917,23936,23957,23976,23996,24018,24037,24056,24076,24097,24116,24136,24157,24176,24196,24217,24236,24257,24276,24296,24316,24336,24356,24377,24396,24417,24437,24458,24476,24498,24516,24536,24556,24576,24596,24616,24637,24657,24676,24697,24716,24736,24756,24777,24798,24816,24836,24856,24877,24897,24917,24938,24956,24976,24996,25017,25036,25056,25078,25096,25116,25136,25157,25176,25197,25216,25237,25258,25277,25296,25317,25336,25356,25376,25396,25417,25436,25456,25476,25496,25516,25536,25557,25576,25597,25617,25636,25658,25677,25696,25718,25736,25756,25777,25797,25816,25837,25856,25878,25897,25916,25936,25956,25976,25997,26016,26037,26056,26077,26096,26117,26137,26157,26176,26197,26216,26236,26257,26277,26297,26318,26336,26357,26376,26396,26417,26436,26456,26477,26497,26517,26537,26557,26578,26596,26617,26638,26656,26676,26697,26716,26736,26758,26776,26796,26817,26836,26856,26876,26896,26916,26937,26956,26977,26996,27017,27036,27056,27076,27097,27116,27136,27156,27176,27196,27217,27236,27256,27276,27297,27316,27336,27356,27376,27397,27416,27436,27456,27476,27497,27516,27536,27556,27576,27596,27617,27637,27657,27676,27696,27716,27736,27756,27777,27796,27816,27837,27856,27876,27896,27918,27936,27956,27976,27997,28017,28036,28057,28076,28096,28116,28136,28156,28176,28198,28216,28236,28257,28277,28296,28316,28336,28358,28376,28396,28416,28436,28456,28477,28497,28516,28536,28556,28576,28597,28616,28636,28656,28676,28698,28716,28736,28757,28777,28796,28816,28836,28856,28876,28896,28916,28937,28957,28976,28998,29016,29037,29056,29076,29097,29117,29137,29156,29177,29196,29216,29236,29256,29276,29298,29316,29336,29356,29377,29396,29416,29436,29456,29476,29498,29516,29536,29556,29577,29597,29617,29636,29657,29676,29697,29716,29737,29756,29776,29797,29816,29838,29858,29876,29896,29917,29936,29956,29976,29997,30017,30036,30057,30077,30096,30116,30137,30157,30176,30197,30218,30236,30257,30276,30296,30316,30336,30356,30377,30397,30416,30436,30456,30477,30496,30516,30536,30556,30577,30596,30617,30636,30656,30676,30697,30716,30737,30756,30777,30796,30816,30836,30856,30876,30897,30917,30937,30957,30976,30998,31018,31037,31057,31077,31097,31116,31137,31157,31176,31198,31216,31236,31256,31276,31297,31317,31337,31357,31377,31396,31418,31436,31456,31478,31497,31517,31538,31556,31577,31597,31618,31636,31656,31676,31697,31716,31737,31757,31777,31796,31817,31837,31857,31878,31896,31917,31937,31956,31978,31996,32016,32036,32057,32076,32096,32117,32137,32157,32178,32197,32217,32238,32256,32276,32298,32316,32336,32357,32376,32397,32417,32436,32457,32477,32498,32516,32536,32556,32578,32597,32617,32638,32657,32677,32696,32716,32736,32756,32776,32797,32817,32837,32857,32876,32897,32916,32936,32957,32976,32998,33016,33037,33057,33078,33096,33116,33137,33156,33176,33197,33216,33236,33256,33277,33296,33317,33337,33356,33377,33398,33416,33436,33457,33477,33496,33517,33538,33557,33576,33597,33616,33637,33657,33676,33697,33716,33736,33757,33776,33796,33816,33836,33858,33876,33897,33916,33937,33957,33978,33996,34017,34036,34057,34078,34096,34116,34137,34157,34176,34197,34218,34237,34257,34277,34297,34317,34337,34357,34376,34396,34417,34436,34456,34476,34496,34517,34536,34557,34577,34596,34617,34637,34658,34677,34696,34717,34736,34756,34776,34796,34816,34837,34857,34876,34896,34916,34937,34957,34977,34996,35016,35037,35056,35077,35096,35116,35138,35156,35176,35196,35216,35236,35257,35277,35297,35316,35336,35356,35377,35396,35417,35436,35457,35476,35498,35516,35537,35557,35578,35596,35617,35637,35656],"xSR":741.5,"ySR":449.15000000000003,"xT1":424.9,"yT1":0,"xT2":1058.1,"yT2":0,"toosoon":0,"cond_shown":"Incongruent","ratio_trial":300,"L_num":4,"L_den":20,"R_num":2,"R_den":4,"correct_side":2,"subjID":"paulalondoñozambran16 ","gender":"1","school":"6","age":"11"},{"start_time":1551794088706,"click_time":1551794090815,"finger_time":1551794090355,"fix_duration":250,"trial":17,"RT":1649,"MT":460,"sideResp":1,"stimulus":[],"xmouse":[799,799,799,799,799,799,799,799,799,799,799,799,799,799,799,799,799,799,799,799,799,799,799,799,799,799,799,799,799,799,799,799,799,799,799,799,799,799,799,799,799,799,799,799,799,799,799,799,799,799,799,799,799,799,799,799,799,799,799,799,799,799,799,799,799,799,799,799,799,799,799,799,799,799,799,799,799,799,797,796,783,767,744,727,710,697,681,675,671,666,662,656,646,638,628,610,602,591,580,568,562,551,536,524,510,499],"ymouse":[486,486,486,486,486,486,486,486,486,486,486,486,486,486,486,486,486,486,486,486,486,486,486,486,486,486,486,486,486,486,486,486,486,486,486,486,486,486,486,486,486,486,486,486,486,486,486,486,486,486,486,486,486,486,486,486,486,486,486,486,486,486,486,486,486,486,486,486,486,486,486,486,486,486,486,486,486,486,485,483,469,457,442,433,423,415,405,400,395,388,381,359,333,314,297,267,250,230,211,191,175,152,134,121,110,97],"timestamp_mouse":[9,30,50,69,89,109,129,150,169,189,209,231,251,269,290,309,329,349,369,389,410,429,449,469,490,510,529,549,570,590,609,630,649,669,690,709,729,749,769,790,809,830,849,870,890,911,929,949,969,990,1009,1029,1050,1069,1090,1109,1129,1149,1170,1189,1209,1230,1250,1270,1291,1311,1329,1350,1369,1390,1411,1429,1449,1470,1490,1509,1529,1549,1569,1590,1609,1630,1649,1669,1689,1710,1730,1750,1770,1790,1810,1830,1850,1869,1889,1909,1929,1949,1969,1990,2009,2029,2050,2069,2089,2109],"xSR":741.5,"ySR":449.15000000000003,"xT1":424.9,"yT1":0,"xT2":1058.1,"yT2":0,"toosoon":0,"cond_shown":"Congruent","ratio_trial":300,"L_num":8,"L_den":16,"R_num":1,"R_den":5,"correct_side":1,"subjID":"paulalondoñozambran16 ","gender":"1","school":"6","age":"11"},{"start_time":1551794092148,"click_time":1551794094275,"finger_time":1551794093535,"fix_duration":250,"trial":18,"RT":1387,"MT":740,"sideResp":1,"stimulus":[],"xmouse":[780,780,780,780,780,780,780,780,780,780,780,780,780,780,780,780,780,780,780,780,780,780,780,780,780,780,780,780,780,780,780,780,780,780,780,780,780,780,780,780,780,780,780,780,780,780,780,780,780,780,780,780,780,780,780,780,780,780,780,780,780,780,780,780,780,780,780,772,765,724,700,692,687,672,653,632,609,592,574,565,559,554,550,532,525,520,516,513,509,509,508,507,506,504,503,501,500,500,500,498,498,497,496,495,494,494,492],"ymouse":[473,474,474,474,474,474,474,474,474,474,474,474,474,474,474,474,474,474,474,474,474,474,474,474,474,474,474,474,474,474,474,474,474,474,474,474,474,474,474,474,474,474,474,474,474,474,474,474,474,474,474,474,474,474,474,474,474,474,474,474,474,474,474,474,474,474,474,467,461,432,414,406,396,369,348,330,314,302,287,274,267,260,255,229,216,204,194,185,172,165,161,157,155,146,142,137,134,130,128,124,120,117,115,109,107,103,98],"timestamp_mouse":[7,28,49,67,87,107,128,147,168,187,209,227,247,267,287,307,328,349,367,387,407,429,448,467,487,508,527,548,568,587,609,627,647,668,689,707,727,748,767,788,808,827,847,867,887,907,928,947,967,987,1007,1027,1048,1068,1087,1108,1128,1147,1167,1188,1208,1227,1247,1268,1287,1307,1328,1349,1367,1387,1407,1428,1447,1467,1487,1508,1528,1547,1567,1588,1607,1627,1647,1667,1687,1707,1729,1747,1768,1787,1808,1828,1847,1867,1888,1907,1927,1947,1967,1987,2007,2028,2048,2068,2088,2107,2127],"xSR":741.5,"ySR":449.15000000000003,"xT1":424.9,"yT1":0,"xT2":1058.1,"yT2":0,"toosoon":0,"cond_shown":"Congruent","ratio_trial":200,"L_num":12,"L_den":20,"R_num":6,"R_den":15,"correct_side":1,"subjID":"paulalondoñozambran16 ","gender":"1","school":"6","age":"11"},{"start_time":1551794095586,"click_time":1551794097436,"finger_time":1551794096935,"fix_duration":250,"trial":19,"RT":1349,"MT":501,"sideResp":2,"stimulus":[],"xmouse":[785,785,785,785,785,785,785,785,785,785,785,785,785,785,785,785,785,785,785,785,785,785,785,785,785,785,785,785,785,785,785,785,785,785,785,785,785,785,785,785,785,785,785,785,785,785,785,785,785,785,785,785,785,785,785,785,785,785,785,785,785,785,785,786,788,796,818,835,843,854,869,898,914,930,940,949,965,973,983,989,994,999,1002,1007,1014,1019,1024,1034,1041,1045,1050,1061,1069],"ymouse":[475,475,475,475,475,475,475,475,475,475,475,475,475,475,475,475,475,475,475,475,475,475,475,475,475,475,475,475,475,475,475,475,475,475,475,475,475,475,475,475,475,475,475,475,475,475,475,475,475,475,475,475,475,475,475,475,475,475,475,475,475,475,475,475,475,470,457,446,440,429,413,380,361,344,329,313,281,264,240,226,214,198,191,182,173,166,158,142,131,124,117,100,89],"timestamp_mouse":[9,29,50,70,89,110,130,149,169,189,209,229,250,269,290,309,330,349,369,389,409,430,449,470,489,509,529,549,569,589,609,629,649,670,689,709,729,750,769,789,809,830,849,869,889,909,929,949,970,990,1011,1029,1049,1069,1089,1109,1129,1150,1170,1189,1210,1230,1250,1270,1291,1310,1329,1349,1369,1390,1409,1429,1449,1469,1490,1510,1530,1549,1570,1590,1610,1629,1650,1670,1689,1709,1730,1750,1769,1789,1810,1829,1850],"xSR":741.5,"ySR":449.15000000000003,"xT1":424.9,"yT1":0,"xT2":1058.1,"yT2":0,"toosoon":0,"cond_shown":"Incongruent","ratio_trial":100,"L_num":3,"L_den":5,"R_num":11,"R_den":22,"correct_side":1,"subjID":"paulalondoñozambran16 ","gender":"1","school":"6","age":"11"},{"start_time":1551794112287,"click_time":1551794114216,"finger_time":1551794113675,"fix_duration":250,"trial":20,"RT":1388,"MT":541,"sideResp":1,"stimulus":[],"xmouse":[778,778,778,778,778,778,778,778,778,778,778,778,778,778,778,778,778,778,778,778,778,778,778,778,778,778,778,778,778,778,778,778,778,778,778,778,778,778,778,778,778,778,778,778,778,778,778,778,778,778,778,778,778,778,778,778,778,778,778,778,778,778,778,778,778,778,775,766,751,738,730,727,725,724,721,712,695,642,617,596,577,543,518,499,484,477,469,468,466,463,462,457,457,457,457,457,457],"ymouse":[474,474,474,474,474,474,474,474,474,474,474,474,474,474,474,474,474,474,474,474,474,474,474,474,474,474,474,474,474,474,474,474,474,474,474,474,474,474,474,474,474,474,474,474,474,474,474,474,474,474,474,474,474,474,474,474,474,474,474,474,474,474,474,474,474,474,471,464,453,446,442,441,440,438,430,416,395,343,326,311,294,256,222,199,180,171,159,155,150,145,137,121,117,112,108,102,91],"timestamp_mouse":[8,28,49,68,90,109,128,148,169,189,208,229,248,268,289,310,329,349,369,390,408,429,450,468,488,510,528,549,570,589,609,630,648,668,688,708,729,749,768,789,808,828,848,868,888,908,930,949,968,988,1008,1028,1050,1069,1088,1110,1128,1149,1168,1188,1209,1228,1248,1268,1288,1308,1328,1348,1370,1388,1410,1429,1448,1468,1489,1508,1529,1549,1569,1589,1609,1629,1648,1668,1688,1708,1729,1748,1768,1788,1808,1829,1848,1868,1888,1908,1929],"xSR":741.5,"ySR":449.15000000000003,"xT1":424.9,"yT1":0,"xT2":1058.1,"yT2":0,"toosoon":0,"cond_shown":"Congruent","ratio_trial":100,"L_num":3,"L_den":6,"R_num":2,"R_den":5,"correct_side":1,"subjID":"paulalondoñozambran16 ","gender":"1","school":"6","age":"11"},{"start_time":1551794116572,"click_time":1551794118677,"finger_time":1551794118197,"fix_duration":1456.071442266305,"trial":21,"RT":1625,"MT":480,"sideResp":2,"stimulus":[],"xmouse":[789,789,789,789,789,789,789,789,789,789,789,789,789,789,789,789,789,789,789,789,789,789,789,789,789,789,789,789,789,789,789,789,789,789,789,789,789,789,789,789,789,789,789,789,789,789,789,789,789,789,789,789,789,789,789,789,789,789,789,789,789,789,789,789,789,789,789,789,789,789,789,789,789,789,789,791,792,799,816,826,837,851,885,909,937,964,988,1018,1029,1047,1058,1067,1073,1083,1086,1088,1089,1089,1089,1089,1089,1089,1089,1090,1091,1092],"ymouse":[479,480,481,484,485,486,486,486,486,486,486,486,486,486,486,486,486,486,486,486,486,486,486,486,486,486,486,486,486,486,486,486,486,486,486,486,486,486,486,486,486,486,486,486,486,486,486,486,486,486,486,486,486,486,486,486,486,486,486,486,486,486,486,486,486,486,486,486,486,486,486,486,486,486,486,486,485,479,471,465,457,444,410,386,362,339,318,283,265,230,208,188,169,137,126,120,116,113,112,112,112,112,108,105,101,97],"timestamp_mouse":[3,24,43,64,85,103,124,143,164,183,203,225,243,263,283,304,323,343,364,383,403,423,445,464,483,504,524,544,563,583,605,623,645,664,683,703,724,744,764,783,804,823,843,864,883,903,923,943,964,983,1003,1024,1044,1065,1084,1103,1124,1144,1163,1183,1205,1223,1244,1265,1284,1303,1323,1343,1365,1383,1403,1423,1443,1464,1483,1503,1523,1543,1565,1583,1603,1625,1644,1663,1684,1703,1723,1744,1763,1783,1803,1824,1844,1863,1883,1904,1923,1944,1963,1984,2003,2023,2043,2063,2083,2105],"xSR":741.5,"ySR":449.15000000000003,"xT1":424.9,"yT1":0,"xT2":1058.1,"yT2":0,"toosoon":0,"cond_shown":"Congruent","ratio_trial":100,"L_num":4,"L_den":10,"R_num":15,"R_den":30,"correct_side":2,"subjID":"paulalondoñozambran16 ","gender":"1","school":"6","age":"11"},{"start_time":1551794134045,"click_time":1551794139575,"finger_time":1551794136676,"fix_duration":250,"trial":22,"RT":2631,"MT":2899,"sideResp":2,"stimulus":[],"xmouse":[794,794,794,794,794,794,794,794,794,794,794,794,794,794,794,794,794,794,794,794,794,794,794,794,794,794,794,794,794,794,794,794,794,794,794,794,794,794,794,794,794,794,794,794,794,794,794,794,794,794,794,794,794,794,794,794,794,794,794,794,794,794,794,794,794,794,794,794,794,794,794,794,794,794,794,794,794,794,794,794,794,794,794,794,794,794,794,794,794,794,794,794,794,794,794,794,794,794,794,794,794,794,794,794,794,794,794,794,794,794,794,794,794,794,794,794,794,794,794,794,794,794,794,794,794,794,794,794,794,798,802,816,832,872,896,904,906,906,906,904,903,901,899,894,888,883,865,845,773,740,720,711,710,710,710,710,710,711,714,714,714,714,715,725,737,746,751,755,761,764,766,768,770,773,774,774,774,774,774,774,774,774,774,774,774,774,774,774,774,774,774,774,774,774,774,774,774,774,774,774,774,774,775,776,776,776,776,776,777,779,782,784,788,791,791,786,763,735,720,721,729,750,777,815,826,826,826,826,820,818,818,818,822,833,858,859,857,838,753,719,707,707,709,767,802,812,815,815,815,805,793,782,777,777,781,820,867,907,929,929,925,905,879,862,862,886,927,959,980,981,981,981,981,995,1025,1048,1064],"ymouse":[477,477,477,477,477,477,477,477,477,477,477,477,477,477,477,477,477,477,477,477,477,477,477,477,477,477,477,477,477,477,477,477,477,477,477,477,477,477,477,477,477,477,477,477,477,477,477,477,477,477,477,477,477,477,477,477,477,477,477,477,477,477,477,477,477,477,477,477,477,477,477,477,477,477,477,477,477,477,477,477,477,477,477,477,477,477,477,477,477,477,477,477,477,477,477,477,477,477,477,477,477,477,477,477,477,477,477,477,477,477,477,477,477,477,477,477,477,477,477,477,477,477,477,477,477,477,477,477,477,471,461,441,418,371,341,329,320,314,311,309,308,308,307,307,307,309,321,338,407,454,482,493,495,495,495,495,496,500,506,507,507,507,507,506,502,499,498,496,495,494,493,493,492,491,490,490,490,490,490,490,490,490,490,490,490,490,490,490,490,490,490,490,490,490,490,490,490,490,490,490,490,490,489,488,488,488,488,488,487,485,483,481,478,476,476,497,535,572,601,603,604,604,601,589,576,571,571,571,571,571,571,571,552,520,447,429,428,439,494,519,530,530,530,461,398,367,353,353,353,412,483,565,629,653,655,562,450,348,299,299,314,380,454,513,510,445,346,240,148,145,145,145,145,132,84,42,15],"timestamp_mouse":[9,30,50,70,89,111,130,151,169,190,211,231,250,271,290,311,330,351,371,389,411,430,450,469,490,510,529,551,570,589,611,630,651,670,689,711,730,751,771,791,811,829,850,871,889,909,931,951,970,990,1010,1030,1050,1070,1090,1110,1130,1150,1171,1191,1210,1231,1250,1270,1289,1309,1330,1350,1370,1390,1410,1430,1450,1471,1490,1510,1530,1550,1570,1589,1610,1630,1650,1671,1690,1710,1731,1750,1769,1791,1809,1830,1850,1871,1890,1911,1930,1951,1970,1991,2010,2030,2050,2071,2090,2111,2131,2150,2170,2190,2210,2230,2250,2269,2290,2310,2330,2350,2370,2390,2411,2431,2450,2470,2490,2510,2531,2549,2571,2590,2610,2631,2651,2671,2690,2710,2730,2750,2771,2789,2811,2831,2851,2870,2890,2909,2930,2950,2969,2990,3010,3030,3050,3070,3091,3109,3131,3151,3170,3190,3210,3230,3250,3270,3291,3310,3330,3349,3370,3390,3411,3431,3450,3470,3491,3510,3530,3549,3570,3590,3610,3631,3649,3671,3691,3710,3730,3750,3771,3790,3810,3830,3850,3869,3890,3909,3930,3950,3970,3989,4010,4030,4050,4069,4090,4110,4130,4150,4170,4190,4210,4231,4250,4270,4289,4310,4331,4350,4369,4390,4411,4431,4450,4470,4490,4509,4529,4549,4570,4591,4610,4629,4650,4671,4690,4709,4730,4751,4770,4791,4810,4830,4851,4870,4891,4910,4930,4951,4971,4990,5011,5031,5050,5070,5091,5110,5130,5149,5170,5190,5210,5231,5250,5270,5289,5310,5330,5350,5369,5389,5411,5430,5451,5471,5489,5510,5530],"xSR":741.5,"ySR":449.15000000000003,"xT1":424.9,"yT1":0,"xT2":1058.1,"yT2":0,"toosoon":0,"cond_shown":"Incongruent","ratio_trial":100,"L_num":9,"L_den":18,"R_num":6,"R_den":10,"correct_side":2,"subjID":"paulalondoñozambran16 ","gender":"1","school":"6","age":"11"},{"start_time":1551794141391,"click_time":1551794147016,"finger_time":1551794144676,"fix_duration":674.8240465318373,"trial":23,"RT":3285,"MT":2340,"sideResp":2,"stimulus":[],"xmouse":[806,806,806,806,806,806,806,806,806,806,806,806,806,806,806,806,806,806,806,806,806,806,806,806,806,806,806,806,806,806,806,806,806,806,806,806,806,806,806,806,806,806,806,806,806,806,806,806,806,806,806,806,806,806,806,806,806,806,806,806,806,806,806,806,806,806,806,806,806,806,806,806,806,806,806,806,806,806,806,806,806,806,806,806,806,806,806,806,806,806,806,806,806,806,806,806,806,806,806,806,806,806,806,806,806,806,806,806,806,806,806,806,806,806,806,806,806,806,806,806,806,806,806,806,806,806,806,806,806,806,806,806,806,806,806,806,806,806,806,806,805,804,803,803,803,803,803,803,803,803,803,803,803,803,803,803,803,801,799,799,799,799,799,806,818,837,891,919,948,957,962,963,963,963,963,963,972,980,985,990,993,1000,1001,1002,1002,1002,1004,1006,1006,1007,1008,1010,1012,1015,1019,1024,1032,1037,1038,1039,1040,1041,1042,1043,1043,1043,1043,1043,1043,1045,1045,1045,1046,1048,1049,1052,1053,1053,1053,1054,1054,1056,1056,1056,1056,1056,1057,1059,1060,1061,1061,1063,1063,1065,1065,1065,1067,1068,1068,1069,1069,1071,1072,1073,1074,1075,1076,1076,1077,1077,1078,1080,1081,1082,1084,1084,1085,1086,1086,1087,1088,1090,1090,1091,1092,1092,1093,1093,1093,1094,1095,1095,1096,1096,1096,1096,1096,1097,1097,1097,1097,1098],"ymouse":[477,477,477,477,477,477,477,477,477,477,477,477,477,477,477,477,477,477,477,477,477,477,477,477,477,477,477,477,477,477,477,477,477,477,477,477,477,477,477,477,477,477,477,477,477,477,477,477,477,477,477,477,477,477,477,477,477,477,477,477,477,477,477,477,477,477,477,477,477,477,477,477,477,477,477,477,477,477,477,477,477,477,477,477,477,477,477,477,477,477,477,477,477,477,477,477,477,477,477,477,477,477,477,477,477,477,477,477,477,477,477,477,477,477,477,477,477,477,477,477,477,477,477,477,477,477,477,477,477,477,477,477,477,477,477,477,477,477,477,477,477,477,477,477,477,477,477,477,477,477,477,477,477,477,477,477,477,477,477,477,477,476,473,461,448,433,393,373,352,344,341,340,340,340,339,337,322,303,290,280,270,248,243,237,232,228,215,203,198,194,190,186,182,177,171,163,154,150,149,148,147,147,147,146,145,145,145,145,145,144,144,143,142,142,142,141,141,141,141,141,141,140,140,140,140,140,139,138,138,137,136,135,135,134,133,133,132,132,132,131,131,130,129,128,128,127,126,126,125,125,125,123,123,122,121,120,120,119,119,118,117,115,114,113,112,111,110,110,109,108,107,106,104,103,103,103,102,102,102,101,100,98],"timestamp_mouse":[4,24,44,65,85,104,123,145,164,185,205,224,245,263,284,304,325,345,365,384,403,425,444,464,484,504,525,544,564,584,604,624,645,664,684,705,723,745,765,783,805,824,843,864,884,905,925,943,965,984,1005,1024,1045,1064,1084,1104,1123,1145,1165,1184,1205,1224,1245,1264,1285,1304,1324,1344,1365,1384,1405,1425,1445,1465,1484,1503,1525,1545,1564,1585,1605,1623,1645,1664,1684,1705,1724,1745,1764,1785,1805,1825,1844,1865,1885,1904,1923,1945,1965,1984,2004,2025,2044,2064,2085,2104,2124,2144,2164,2184,2204,2224,2243,2265,2284,2304,2325,2344,2363,2384,2405,2425,2444,2465,2485,2504,2523,2545,2564,2583,2604,2625,2644,2664,2684,2704,2724,2744,2765,2784,2805,2825,2845,2864,2884,2904,2924,2944,2965,2984,3005,3025,3045,3065,3084,3105,3124,3143,3164,3185,3204,3224,3244,3265,3285,3304,3324,3344,3364,3384,3404,3425,3444,3465,3484,3504,3524,3544,3564,3584,3605,3623,3644,3665,3684,3705,3723,3744,3764,3784,3804,3823,3844,3864,3884,3904,3923,3944,3963,3984,4004,4024,4044,4065,4084,4104,4125,4144,4164,4184,4203,4224,4245,4264,4284,4304,4324,4343,4365,4384,4404,4425,4445,4464,4484,4504,4525,4544,4564,4584,4604,4623,4644,4665,4685,4705,4725,4744,4764,4784,4804,4824,4844,4864,4885,4903,4924,4944,4964,4984,5003,5024,5044,5064,5084,5103,5124,5144,5164,5185,5204,5223,5244,5264,5284,5303,5325,5345,5364,5385,5404,5424,5444,5465,5484,5503,5524,5544,5564,5585,5603,5625],"xSR":741.5,"ySR":449.15000000000003,"xT1":424.9,"yT1":0,"xT2":1058.1,"yT2":0,"toosoon":0,"cond_shown":"Incongruent","ratio_trial":200,"L_num":1,"L_den":3,"R_num":2,"R_den":15,"correct_side":1,"subjID":"paulalondoñozambran16 ","gender":"1","school":"6","age":"11"},{"start_time":1551794182371,"click_time":1551794184716,"finger_time":1551794184094,"fix_duration":1034.8364264951986,"trial":24,"RT":1723,"MT":622,"sideResp":2,"stimulus":[],"xmouse":[800,800,800,800,800,800,800,800,800,800,800,800,800,800,800,800,800,800,800,800,800,800,800,800,800,800,800,800,800,800,800,800,800,800,800,800,800,800,800,800,800,800,800,800,800,800,800,800,800,800,800,800,800,800,800,800,800,800,800,800,800,800,800,800,800,800,800,800,800,800,800,800,800,800,800,800,800,800,800,800,800,800,799,802,806,811,817,824,828,837,850,859,873,878,882,886,891,896,911,925,935,946,968,978,986,996,1007,1030,1049,1060,1069,1077,1096,1103,1108,1111,1113,1115],"ymouse":[475,475,475,475,475,475,475,475,475,475,475,475,475,475,475,475,475,475,475,475,475,475,475,475,475,475,475,475,475,475,475,475,475,475,475,475,475,475,475,475,475,475,475,475,475,475,475