[{"start_time":1551794865530,"click_time":1551794867875,"finger_time":1551794867175,"fix_duration":1411.559070183602,"trial":0,"RT":1645,"MT":700,"sideResp":2,"stimulus":"img/900/equaldotsize/L/8_Ratio_900_L_20_R_18.png","xmouse":[776,776,776,776,776,776,776,776,776,776,776,778,778,778,778,778,778,778,778,778,778,778,778,778,778,778,778,778,778,778,778,778,778,778,778,778,778,778,778,778,778,778,778,778,778,778,778,778,778,778,778,778,778,778,778,778,778,778,778,778,778,778,778,778,778,778,778,778,778,778,778,778,778,778,778,778,778,778,779,780,783,792,800,811,821,847,861,879,900,929,948,969,973,973,974,978,979,981,981,982,986,990,994,999,1004,1021,1028,1036,1040,1044,1050,1052,1055,1056,1057,1058,1060],"ymouse":[518,518,518,518,518,518,518,518,518,518,517,515,514,514,514,514,513,513,513,513,513,513,513,513,513,513,513,513,513,513,513,513,513,513,513,513,513,513,513,513,513,513,513,513,513,513,513,513,513,513,513,513,513,513,513,513,513,513,513,513,513,513,513,513,513,513,513,513,513,513,510,495,490,487,486,486,486,485,482,476,468,449,435,422,407,368,343,319,293,259,240,213,204,198,194,185,182,178,177,175,164,160,154,147,140,122,116,108,104,101,92,90,88,87,86,84,82],"timestamp_mouse":[9,53,65,85,105,124,144,165,185,204,224,244,264,286,305,324,344,364,385,406,424,444,465,486,505,524,544,565,585,605,625,645,665,685,705,724,744,764,786,805,825,845,864,885,906,925,945,965,985,1005,1025,1045,1066,1084,1105,1126,1144,1164,1186,1204,1225,1245,1264,1286,1305,1325,1344,1365,1384,1406,1424,1444,1464,1484,1504,1526,1544,1566,1584,1605,1624,1645,1664,1685,1706,1726,1744,1764,1785,1805,1825,1845,1864,1886,1905,1926,1945,1965,1985,2006,2026,2044,2065,2085,2104,2126,2145,2164,2185,2206,2226,2244,2264,2284,2305,2325,2344],"xSR":741.5,"ySR":481,"xT1":424.9,"yT1":0,"xT2":1058.1,"yT2":0,"toosoon":0,"cond_shown":"equaldotsize","ratio_trial":900,"smaller_num":"18","larger_num":"20","correct_side":1,"subjID":"paulalondoñozambrano16","gender":"1","age":"11","school":"6","test":{"fix_dur":[250,1500],"timestim":300,"targets_dim":[100,100],"targets_relative_coord":[0.3,0.7],"size_stim":[880,420],"start_dim":[100,100],"size_start":[300,300],"size_fix":60,"samplingrate":20,"img_types":["equaldotsize","equaldotanddens","randomdotsizeEA"],"ratios":[250,500,750,900],"rep_conds":9,"nTrials":120,"trials_to_rest":500,"Trials_order":[81,65,45,89,107,43,91,104,16,10,35,105,106,80,1,97,70,30,95,74,71,102,18,83,66,22,11,54,40,116,108,31,39,60,25,12,79,24,86,47,23,36,73,56,41,82,77,9,114,27,7,6,63,115,2,101,62,61,44,100,42,59,76,87,103,8,49,118,69,53,33,72,58,19,99,38,3,28,29,94,32,57,111,51,26,48,119,17,15,78,90,112,20,4,67,64,34,68,55,50,14,110,113,84,0,85,96,109,37,75,46,5,13,52,92,93,98,21,88,117],"cond_shown":["equaldotsize","randomdotsizeEA","equaldotsize","randomdotsizeEA","randomdotsizeEA","equaldotanddens","equaldotanddens","randomdotsizeEA","equaldotanddens","equaldotanddens","randomdotsizeEA","equaldotsize","equaldotanddens","randomdotsizeEA","equaldotanddens","equaldotanddens","equaldotanddens","equaldotsize","randomdotsizeEA","randomdotsizeEA","randomdotsizeEA","equaldotsize","equaldotsize","randomdotsizeEA","equaldotsize","equaldotanddens","randomdotsizeEA","equaldotsize","equaldotanddens","randomdotsizeEA","equaldotsize","equaldotanddens","equaldotsize","equaldotsize","equaldotanddens","equaldotsize","equaldotanddens","equaldotsize","randomdotsizeEA","randomdotsizeEA","randomdotsizeEA","equaldotsize","equaldotanddens","randomdotsizeEA","randomdotsizeEA","equaldotanddens","randomdotsizeEA","equaldotsize","equaldotsize","equaldotsize","equaldotanddens","equaldotsize","equaldotsize","equaldotanddens","randomdotsizeEA","randomdotsizeEA","randomdotsizeEA","equaldotanddens","randomdotsizeEA","equaldotanddens","equaldotsize","randomdotsizeEA","equaldotanddens","equaldotsize","equaldotanddens","randomdotsizeEA","equaldotanddens","equaldotanddens","equaldotsize","randomdotsizeEA","equaldotsize","equaldotsize","equaldotanddens","equaldotanddens","equaldotsize","randomdotsizeEA","equaldotsize","equaldotanddens","randomdotsizeEA","equaldotanddens","randomdotsizeEA","equaldotsize","equaldotsize","equaldotsize","randomdotsizeEA","equaldotsize","randomdotsizeEA","randomdotsizeEA","equaldotsize","equaldotsize","equaldotsize","equaldotanddens","randomdotsizeEA","equaldotanddens","equaldotanddens","equaldotanddens","equaldotanddens","randomdotsizeEA","equaldotanddens","randomdotsizeEA","randomdotsizeEA","randomdotsizeEA","randomdotsizeEA","equaldotsize","equaldotsize","equaldotanddens","equaldotsize","equaldotanddens","equaldotanddens","equaldotsize","equaldotanddens","randomdotsizeEA","equaldotanddens","equaldotanddens","randomdotsizeEA","equaldotsize","randomdotsizeEA","equaldotsize","equaldotanddens","equaldotsize"],"ratio_trial":[900,500,900,500,900,750,750,750,500,900,900,900,900,750,250,250,900,750,900,250,900,750,750,900,750,900,900,750,500,750,250,750,500,250,250,250,750,250,250,900,900,250,250,750,500,900,500,900,750,500,750,750,500,750,250,500,250,250,750,500,750,900,500,500,750,750,250,900,900,500,900,250,900,750,500,250,500,500,500,900,750,900,500,500,250,250,900,500,500,750,750,500,750,500,750,500,900,750,750,250,250,250,500,250,250,250,250,250,250,500,900,500,250,500,750,900,250,900,500,900],"smaller_num":["18","4","18","3","18","3","6","3","6","18","18","9","9","6","2","6","18","3","9","1","9","15","3","9","3","18","9","6","10","3","3","15","2","3","6","2","3","2","6","18","9","5","2","15","2","18","5","9","3","2","15","3","6","9","2","2","2","6","3","2","3","18","5","9","9","6","1","9","9","6","18","4","9","6","10","2","2","10","1","18","15","18","9","9","6","2","18","9","9","3","15","5","3","9","15","2","9","12","3","5","1","2","1","2","5","6","3","3","2","2","9","2","3","9","6","18","3","18","2","18"],"larger_num":["20","8","20","6","20","4","8","4","12","20","20","10","10","8","8","24","20","4","10","4","10","20","4","10","4","20","10","8","20","4","12","20","4","12","24","8","4","8","24","20","10","20","8","20","4","20","10","10","4","4","20","4","12","12","8","4","8","24","4","4","4","20","10","18","12","8","4","10","10","12","20","16","10","8","20","8","4","20","2","20","20","20","18","18","24","8","20","18","18","4","20","10","4","18","20","4","10","16","4","20","4","8","2","8","20","24","12","12","8","4","10","4","12","18","8","20","12","20","4","20"],"correct_side":[1,1,2,2,2,1,1,2,1,2,1,2,2,1,1,1,2,2,1,2,2,2,1,2,1,2,1,1,2,2,1,2,1,2,1,1,2,1,1,1,2,2,1,2,1,2,2,1,2,1,2,1,1,2,2,1,1,1,2,1,1,1,1,2,2,2,2,2,1,1,1,1,2,2,2,1,1,2,2,1,1,2,2,2,2,2,2,1,2,1,2,1,1,2,2,1,2,2,1,2,2,1,2,1,2,1,2,1,1,2,2,1,2,1,1,1,1,1,1,1],"img_shown":["img/900/equaldotsize/L/8_Ratio_900_L_20_R_18.png","img/500/randomdotsizeEA/L/8_Ratio_500_L_8_R_4.png","img/900/equaldotsize/R/13_Ratio_900_L_18_R_20.png","img/500/randomdotsizeEA/R/2_Ratio_500_L_3_R_6.png","img/900/randomdotsizeEA/R/14_Ratio_900_L_18_R_20.png","img/750/equaldotanddens/L/8_Ratio_750_L_4_R_3.png","img/750/equaldotanddens/L/13_Ratio_750_L_8_R_6.png","img/750/randomdotsizeEA/R/7_Ratio_750_L_3_R_4.png","img/500/equaldotanddens/L/13_Ratio_500_L_12_R_6.png","img/900/equaldotanddens/R/9_Ratio_900_L_18_R_20.png","img/900/randomdotsizeEA/L/2_Ratio_900_L_20_R_18.png","img/900/equaldotsize/R/6_Ratio_900_L_9_R_10.png","img/900/equaldotanddens/R/5_Ratio_900_L_9_R_10.png","img/750/randomdotsizeEA/L/14_Ratio_750_L_8_R_6.png","img/250/equaldotanddens/L/1_Ratio_250_L_8_R_2.png","img/250/equaldotanddens/L/5_Ratio_250_L_24_R_6.png","img/900/equaldotanddens/R/11_Ratio_900_L_18_R_20.png","img/750/equaldotsize/R/7_Ratio_750_L_3_R_4.png","img/900/randomdotsizeEA/L/1_Ratio_900_L_10_R_9.png","img/250/randomdotsizeEA/R/8_Ratio_250_L_1_R_4.png","img/900/randomdotsizeEA/R/3_Ratio_900_L_9_R_10.png","img/750/equaldotsize/R/5_Ratio_750_L_15_R_20.png","img/750/equaldotsize/L/10_Ratio_750_L_4_R_3.png","img/900/randomdotsizeEA/R/7_Ratio_900_L_9_R_10.png","img/750/equaldotsize/L/10_Ratio_750_L_4_R_3.png","img/900/equaldotanddens/R/13_Ratio_900_L_18_R_20.png","img/900/randomdotsizeEA/L/1_Ratio_900_L_10_R_9.png","img/750/equaldotsize/L/14_Ratio_750_L_8_R_6.png","img/500/equaldotanddens/R/3_Ratio_500_L_10_R_20.png","img/750/randomdotsizeEA/R/12_Ratio_750_L_3_R_4.png","img/250/equaldotsize/L/15_Ratio_250_L_12_R_3.png","img/750/equaldotanddens/R/3_Ratio_750_L_15_R_20.png","img/500/equaldotsize/L/5_Ratio_500_L_4_R_2.png","img/250/equaldotsize/R/4_Ratio_250_L_3_R_12.png","img/250/equaldotanddens/L/5_Ratio_250_L_24_R_6.png","img/250/equaldotsize/L/7_Ratio_250_L_8_R_2.png","img/750/equaldotanddens/R/12_Ratio_750_L_3_R_4.png","img/250/equaldotsize/L/7_Ratio_250_L_8_R_2.png","img/250/randomdotsizeEA/L/5_Ratio_250_L_24_R_6.png","img/900/randomdotsizeEA/L/8_Ratio_900_L_20_R_18.png","img/900/randomdotsizeEA/R/7_Ratio_900_L_9_R_10.png","img/250/equaldotsize/R/12_Ratio_250_L_5_R_20.png","img/250/equaldotanddens/L/1_Ratio_250_L_8_R_2.png","img/750/randomdotsizeEA/R/3_Ratio_750_L_15_R_20.png","img/500/randomdotsizeEA/L/10_Ratio_500_L_4_R_2.png","img/900/equaldotanddens/R/11_Ratio_900_L_18_R_20.png","img/500/randomdotsizeEA/R/14_Ratio_500_L_5_R_10.png","img/900/equaldotsize/L/1_Ratio_900_L_10_R_9.png","img/750/equaldotsize/R/7_Ratio_750_L_3_R_4.png","img/500/equaldotsize/L/10_Ratio_500_L_4_R_2.png","img/750/equaldotanddens/R/4_Ratio_750_L_15_R_20.png","img/750/equaldotsize/L/9_Ratio_750_L_4_R_3.png","img/500/equaldotsize/L/13_Ratio_500_L_12_R_6.png","img/750/equaldotanddens/R/15_Ratio_750_L_9_R_12.png","img/250/randomdotsizeEA/R/13_Ratio_250_L_2_R_8.png","img/500/randomdotsizeEA/L/10_Ratio_500_L_4_R_2.png","img/250/randomdotsizeEA/L/7_Ratio_250_L_8_R_2.png","img/250/equaldotanddens/L/5_Ratio_250_L_24_R_6.png","img/750/randomdotsizeEA/R/7_Ratio_750_L_3_R_4.png","img/500/equaldotanddens/L/10_Ratio_500_L_4_R_2.png","img/750/equaldotsize/L/8_Ratio_750_L_4_R_3.png","img/900/randomdotsizeEA/L/4_Ratio_900_L_20_R_18.png","img/500/equaldotanddens/L/7_Ratio_500_L_10_R_5.png","img/500/equaldotsize/R/6_Ratio_500_L_9_R_18.png","img/750/equaldotanddens/R/15_Ratio_750_L_9_R_12.png","img/750/randomdotsizeEA/R/2_Ratio_750_L_6_R_8.png","img/250/equaldotanddens/R/8_Ratio_250_L_1_R_4.png","img/900/equaldotanddens/R/15_Ratio_900_L_9_R_10.png","img/900/equaldotsize/L/1_Ratio_900_L_10_R_9.png","img/500/randomdotsizeEA/L/11_Ratio_500_L_12_R_6.png","img/900/equaldotsize/L/4_Ratio_900_L_20_R_18.png","img/250/equaldotsize/L/2_Ratio_250_L_16_R_4.png","img/900/equaldotanddens/R/6_Ratio_900_L_9_R_10.png","img/750/equaldotanddens/R/2_Ratio_750_L_6_R_8.png","img/500/equaldotsize/R/3_Ratio_500_L_10_R_20.png","img/250/randomdotsizeEA/L/3_Ratio_250_L_8_R_2.png","img/500/equaldotsize/L/10_Ratio_500_L_4_R_2.png","img/500/equaldotanddens/R/3_Ratio_500_L_10_R_20.png","img/500/randomdotsizeEA/R/15_Ratio_500_L_1_R_2.png","img/900/equaldotanddens/L/10_Ratio_900_L_20_R_18.png","img/750/randomdotsizeEA/L/1_Ratio_750_L_20_R_15.png","img/900/equaldotsize/R/13_Ratio_900_L_18_R_20.png","img/500/equaldotsize/R/1_Ratio_500_L_9_R_18.png","img/500/equaldotsize/R/1_Ratio_500_L_9_R_18.png","img/250/randomdotsizeEA/R/6_Ratio_250_L_6_R_24.png","img/250/equaldotsize/R/13_Ratio_250_L_2_R_8.png","img/900/randomdotsizeEA/R/11_Ratio_900_L_18_R_20.png","img/500/randomdotsizeEA/L/4_Ratio_500_L_18_R_9.png","img/500/equaldotsize/R/6_Ratio_500_L_9_R_18.png","img/750/equaldotsize/L/9_Ratio_750_L_4_R_3.png","img/750/equaldotsize/R/5_Ratio_750_L_15_R_20.png","img/500/equaldotanddens/L/7_Ratio_500_L_10_R_5.png","img/750/randomdotsizeEA/L/10_Ratio_750_L_4_R_3.png","img/500/equaldotanddens/R/6_Ratio_500_L_9_R_18.png","img/750/equaldotanddens/R/5_Ratio_750_L_15_R_20.png","img/500/equaldotanddens/L/10_Ratio_500_L_4_R_2.png","img/900/equaldotanddens/R/15_Ratio_900_L_9_R_10.png","img/750/randomdotsizeEA/R/11_Ratio_750_L_12_R_16.png","img/750/equaldotanddens/L/9_Ratio_750_L_4_R_3.png","img/250/randomdotsizeEA/R/12_Ratio_250_L_5_R_20.png","img/250/randomdotsizeEA/R/8_Ratio_250_L_1_R_4.png","img/250/randomdotsizeEA/L/3_Ratio_250_L_8_R_2.png","img/500/randomdotsizeEA/R/15_Ratio_500_L_1_R_2.png","img/250/equaldotsize/L/1_Ratio_250_L_8_R_2.png","img/250/equaldotsize/R/12_Ratio_250_L_5_R_20.png","img/250/equaldotanddens/L/5_Ratio_250_L_24_R_6.png","img/250/equaldotsize/R/4_Ratio_250_L_3_R_12.png","img/250/equaldotanddens/L/15_Ratio_250_L_12_R_3.png","img/250/equaldotanddens/L/7_Ratio_250_L_8_R_2.png","img/500/equaldotsize/R/9_Ratio_500_L_2_R_4.png","img/900/equaldotanddens/R/7_Ratio_900_L_9_R_10.png","img/500/randomdotsizeEA/L/10_Ratio_500_L_4_R_2.png","img/250/equaldotanddens/R/11_Ratio_250_L_3_R_12.png","img/500/equaldotanddens/L/4_Ratio_500_L_18_R_9.png","img/750/randomdotsizeEA/L/14_Ratio_750_L_8_R_6.png","img/900/equaldotsize/L/2_Ratio_900_L_20_R_18.png","img/250/randomdotsizeEA/L/15_Ratio_250_L_12_R_3.png","img/900/equaldotsize/L/10_Ratio_900_L_20_R_18.png","img/500/equaldotanddens/L/10_Ratio_500_L_4_R_2.png","img/900/equaldotsize/L/2_Ratio_900_L_20_R_18.png"],"Rat0":[["12_Ratio_0_L_9_R_0.png","13_Ratio_0_L_6_R_0.png","5_Ratio_0_L_2_R_0.png","6_Ratio_0_L_4_R_0.png","8_Ratio_0_L_6_R_0.png"],["1_Ratio_0_L_0_R_17.png","10_Ratio_0_L_0_R_22.png","11_Ratio_0_L_0_R_1.png","14_Ratio_0_L_0_R_24.png","15_Ratio_0_L_0_R_4.png","2_Ratio_0_L_0_R_5.png","3_Ratio_0_L_0_R_17.png","4_Ratio_0_L_0_R_7.png","7_Ratio_0_L_0_R_19.png","9_Ratio_0_L_0_R_15.png"]],"Rat250":[["1_Ratio_250_L_8_R_2.png","14_Ratio_250_L_12_R_3.png","15_Ratio_250_L_12_R_3.png","2_Ratio_250_L_16_R_4.png","3_Ratio_250_L_8_R_2.png","5_Ratio_250_L_24_R_6.png","7_Ratio_250_L_8_R_2.png"],["10_Ratio_250_L_4_R_16.png","11_Ratio_250_L_3_R_12.png","12_Ratio_250_L_5_R_20.png","13_Ratio_250_L_2_R_8.png","4_Ratio_250_L_3_R_12.png","6_Ratio_250_L_6_R_24.png","8_Ratio_250_L_1_R_4.png","9_Ratio_250_L_3_R_12.png"]],"Rat500":[["10_Ratio_500_L_4_R_2.png","11_Ratio_500_L_12_R_6.png","13_Ratio_500_L_12_R_6.png","4_Ratio_500_L_18_R_9.png","5_Ratio_500_L_4_R_2.png","7_Ratio_500_L_10_R_5.png","8_Ratio_500_L_8_R_4.png"],["1_Ratio_500_L_9_R_18.png","12_Ratio_500_L_1_R_2.png","14_Ratio_500_L_5_R_10.png","15_Ratio_500_L_1_R_2.png","2_Ratio_500_L_3_R_6.png","3_Ratio_500_L_10_R_20.png","6_Ratio_500_L_9_R_18.png","9_Ratio_500_L_2_R_4.png"]],"Rat750":[["1_Ratio_750_L_20_R_15.png","10_Ratio_750_L_4_R_3.png","13_Ratio_750_L_8_R_6.png","14_Ratio_750_L_8_R_6.png","6_Ratio_750_L_24_R_18.png","8_Ratio_750_L_4_R_3.png","9_Ratio_750_L_4_R_3.png"],["11_Ratio_750_L_12_R_16.png","12_Ratio_750_L_3_R_4.png","15_Ratio_750_L_9_R_12.png","2_Ratio_750_L_6_R_8.png","3_Ratio_750_L_15_R_20.png","4_Ratio_750_L_15_R_20.png","5_Ratio_750_L_15_R_20.png","7_Ratio_750_L_3_R_4.png"]],"Rat900":[["1_Ratio_900_L_10_R_9.png","10_Ratio_900_L_20_R_18.png","2_Ratio_900_L_20_R_18.png","4_Ratio_900_L_20_R_18.png","8_Ratio_900_L_20_R_18.png"],["11_Ratio_900_L_18_R_20.png","12_Ratio_900_L_18_R_20.png","13_Ratio_900_L_18_R_20.png","14_Ratio_900_L_18_R_20.png","15_Ratio_900_L_9_R_10.png","3_Ratio_900_L_9_R_10.png","5_Ratio_900_L_9_R_10.png","6_Ratio_900_L_9_R_10.png","7_Ratio_900_L_9_R_10.png","9_Ratio_900_L_18_R_20.png"]],"Rat1000":[["10_Ratio_1000_L_16_R_16.png","11_Ratio_1000_L_6_R_6.png","12_Ratio_1000_L_14_R_14.png","13_Ratio_1000_L_20_R_20.png","15_Ratio_1000_L_15_R_15.png","2_Ratio_1000_L_17_R_17.png","4_Ratio_1000_L_9_R_9.png","5_Ratio_1000_L_6_R_6.png","6_Ratio_1000_L_19_R_19.png","8_Ratio_1000_L_14_R_14.png","9_Ratio_1000_L_25_R_25.png"],["1_Ratio_1000_L_1_R_1.png","14_Ratio_1000_L_17_R_17.png","3_Ratio_1000_L_17_R_17.png","7_Ratio_1000_L_6_R_6.png"]]}},{"start_time":1551794870663,"click_time":1551794873915,"finger_time":1551794873074,"fix_duration":1447.2574926051789,"trial":1,"RT":2411,"MT":841,"sideResp":2,"stimulus":"img/500/randomdotsizeEA/L/8_Ratio_500_L_8_R_4.png","xmouse":[772,772,772,772,772,772,772,772,772,772,772,772,772,772,772,772,772,772,772,772,772,772,772,772,772,772,772,772,772,772,772,772,772,772,772,772,772,772,772,772,772,772,772,772,772,772,772,772,772,772,772,772,772,772,772,772,772,772,772,772,772,772,772,772,772,772,772,772,772,772,772,772,772,772,772,772,772,772,772,772,772,772,772,772,772,772,772,772,772,772,772,772,772,772,772,772,772,772,772,772,772,772,772,772,772,772,772,772,772,772,772,772,772,772,772,772,772,772,771,764,710,678,647,620,593,577,576,572,570,567,556,548,539,533,531,527,525,523,521,521,521,518,512,493,473,447,443,441,441,441,441,441,441,448,465,474,500,542,611,700,907,1042,1072],"ymouse":[500,500,500,500,500,500,500,500,500,500,500,500,500,500,500,500,500,500,500,500,500,500,500,500,500,500,500,500,500,500,500,500,500,500,500,500,500,500,500,500,500,500,500,500,500,500,500,500,500,500,500,500,500,500,500,500,500,500,500,500,500,500,500,500,500,500,500,500,500,500,500,500,500,500,500,500,500,500,500,500,500,500,500,500,500,500,500,500,500,500,500,500,500,500,500,500,500,500,500,500,500,500,500,500,500,500,500,500,500,500,500,500,500,500,500,500,500,500,495,479,393,353,322,303,289,281,280,277,275,273,266,262,257,254,252,250,249,249,248,248,248,246,244,231,214,194,192,191,191,191,191,191,191,191,196,196,194,191,177,153,89,51,43],"timestamp_mouse":[30,32,51,73,92,111,132,151,173,191,212,233,252,273,292,311,332,352,372,392,413,433,453,472,491,513,533,552,571,592,613,631,651,672,691,712,732,752,772,791,811,832,851,873,893,911,933,951,973,993,1011,1031,1053,1072,1093,1111,1131,1153,1172,1193,1212,1231,1253,1272,1293,1311,1332,1353,1371,1391,1411,1433,1452,1473,1492,1513,1531,1551,1572,1591,1613,1631,1652,1672,1691,1713,1733,1751,1773,1791,1811,1833,1851,1872,1893,1911,1931,1952,1972,1993,2011,2032,2052,2072,2093,2112,2133,2151,2172,2191,2211,2233,2252,2271,2292,2313,2332,2353,2371,2391,2411,2432,2452,2472,2493,2512,2532,2551,2572,2592,2612,2632,2651,2673,2691,2711,2731,2752,2772,2792,2811,2832,2852,2871,2892,2911,2931,2952,2972,2992,3012,3032,3051,3072,3092,3111,3131,3152,3171,3193,3211,3233,3252],"xSR":741.5,"ySR":449.15000000000003,"xT1":424.9,"yT1":0,"xT2":1058.1,"yT2":0,"toosoon":0,"cond_shown":"randomdotsizeEA","ratio_trial":500,"smaller_num":"4","larger_num":"8","correct_side":1,"subjID":"paulalondoñozambrano16","gender":"1","age":"11","school":"6"},{"start_time":1551794875385,"click_time":1551794877675,"finger_time":1551794875815,"fix_duration":328.0172100433346,"trial":2,"RT":430,"MT":1860,"sideResp":1,"stimulus":"img/900/equaldotsize/R/13_Ratio_900_L_18_R_20.png","xmouse":[807,807,807,807,807,807,807,807,807,807,807,807,807,806,805,802,798,796,793,790,789,786,782,779,777,777,777,777,777,777,777,777,777,777,777,777,777,776,776,776,776,776,776,779,781,782,783,784,786,788,789,789,789,789,790,790,791,792,792,792,792,792,792,792,792,792,792,792,794,794,794,794,794,794,794,790,784,776,762,749,743,736,721,701,652,633,620,607,604,604,604,604,603,603,603,603,603,603,601,583,561,535,511,474,466,462,459,454,450,450,449,448,448,448,448],"ymouse":[466,466,466,466,466,466,466,466,466,466,466,466,466,467,467,466,463,461,458,453,452,448,443,440,438,438,438,438,438,438,438,438,438,438,438,438,438,437,437,437,437,437,437,442,445,446,448,449,452,455,456,456,456,459,460,462,463,465,466,466,466,466,466,466,466,466,466,465,460,443,435,427,417,410,392,381,367,353,333,320,317,311,300,285,247,234,224,218,217,217,217,217,216,216,216,216,216,216,214,199,185,170,158,139,133,129,125,118,112,110,109,107,104,101,93],"timestamp_mouse":[11,40,49,71,91,111,130,149,171,190,210,229,250,270,289,309,329,349,370,390,409,430,450,470,489,510,530,551,569,590,609,629,650,671,690,710,729,750,771,790,810,830,849,871,890,910,929,950,970,990,1009,1029,1049,1071,1089,1110,1130,1149,1169,1191,1209,1230,1249,1271,1290,1309,1329,1350,1369,1390,1409,1430,1450,1469,1489,1510,1529,1550,1570,1590,1609,1629,1650,1670,1689,1711,1730,1749,1769,1789,1809,1830,1850,1869,1889,1909,1931,1950,1969,1990,2009,2031,2050,2071,2090,2110,2130,2150,2171,2189,2210,2230,2250,2270,2290],"xSR":741.5,"ySR":449.15000000000003,"xT1":424.9,"yT1":0,"xT2":1058.1,"yT2":0,"toosoon":0,"cond_shown":"equaldotsize","ratio_trial":900,"smaller_num":"18","larger_num":"20","correct_side":2,"subjID":"paulalondoñozambrano16","gender":"1","age":"11","school":"6"},{"start_time":1551794879647,"click_time":1551794881774,"finger_time":1551794880715,"fix_duration":790.8726241366189,"trial":3,"RT":1068,"MT":1059,"sideResp":1,"stimulus":"img/500/randomdotsizeEA/R/2_Ratio_500_L_3_R_6.png","xmouse":[760,760,760,760,760,760,760,760,760,760,760,760,760,760,760,760,760,760,760,760,760,760,760,760,760,760,760,760,760,760,760,760,760,760,760,760,760,760,760,760,760,760,760,760,760,760,760,760,760,760,763,772,782,794,802,809,814,819,825,832,856,867,880,892,898,900,900,900,900,900,900,901,896,888,876,854,824,808,789,768,746,700,674,645,609,572,559,554,551,550,545,526,514,502,499,493,485,481,478,477,477,477,477,477,479,483,488],"ymouse":[484,484,484,484,484,484,484,484,484,484,484,484,484,484,484,484,484,484,484,484,484,484,484,484,484,484,484,484,484,484,484,484,484,484,484,484,484,484,484,484,484,484,484,484,484,484,484,484,484,484,484,471,458,446,441,440,438,434,431,424,405,397,389,383,379,379,378,378,378,378,378,378,370,361,351,341,334,330,324,322,319,312,308,301,292,283,279,276,275,273,269,249,237,219,211,197,180,172,164,161,156,151,144,137,122,113,98],"timestamp_mouse":[10,40,49,68,87,108,129,148,168,188,207,229,248,268,289,309,329,347,367,389,407,428,449,468,489,507,528,547,567,588,608,627,648,668,689,708,728,748,767,789,807,828,847,868,888,907,929,948,967,989,1009,1028,1048,1068,1087,1107,1127,1147,1168,1188,1209,1227,1249,1268,1288,1309,1328,1349,1367,1388,1409,1427,1447,1467,1488,1508,1529,1547,1569,1588,1608,1627,1648,1668,1689,1709,1728,1747,1768,1787,1808,1827,1848,1867,1889,1909,1928,1948,1968,1987,2009,2028,2048,2068,2089,2108,2127],"xSR":741.5,"ySR":449.15000000000003,"xT1":424.9,"yT1":0,"xT2":1058.1,"yT2":0,"toosoon":0,"cond_shown":"randomdotsizeEA","ratio_trial":500,"smaller_num":"3","larger_num":"6","correct_side":2,"subjID":"paulalondoñozambrano16","gender":"1","age":"11","school":"6"},{"start_time":1551794884106,"click_time":1551794885456,"finger_time":1551794884175,"fix_duration":1329.779027918188,"trial":4,"RT":69,"MT":1281,"sideResp":2,"stimulus":"img/900/randomdotsizeEA/R/14_Ratio_900_L_18_R_20.png","xmouse":[797,797,796,796,796,796,796,796,796,796,796,796,796,800,804,813,828,846,884,897,905,909,910,910,910,910,910,910,910,910,910,910,910,904,901,897,892,889,878,872,864,861,859,859,859,860,868,883,943,968,993,1009,1028,1039,1040,1041,1042,1042,1043,1044,1047,1050,1053,1055,1055,1056,1058,1059],"ymouse":[456,455,452,449,446,443,442,441,441,441,440,440,439,436,433,427,419,411,394,387,383,380,380,380,380,380,380,380,380,380,380,380,380,382,383,385,388,389,396,399,404,405,406,406,406,400,384,362,291,267,246,229,205,187,183,180,177,174,165,157,140,129,120,113,111,109,104,97],"timestamp_mouse":[8,30,51,69,88,108,129,150,169,189,208,230,249,269,288,309,329,349,368,389,409,429,449,469,489,510,528,549,568,590,610,629,648,669,689,709,728,749,768,788,808,829,850,870,888,909,929,949,968,989,1009,1028,1049,1069,1090,1109,1129,1149,1168,1189,1208,1229,1249,1269,1289,1309,1329,1349],"xSR":741.5,"ySR":449.15000000000003,"xT1":424.9,"yT1":0,"xT2":1058.1,"yT2":0,"toosoon":0,"cond_shown":"randomdotsizeEA","ratio_trial":900,"smaller_num":"18","larger_num":"20","correct_side":2,"subjID":"paulalondoñozambrano16","gender":"1","age":"11","school":"6"},{"start_time":1551794887713,"click_time":1551794890296,"finger_time":1551794889755,"fix_duration":1316.0068126658234,"trial":5,"RT":2042,"MT":541,"sideResp":1,"stimulus":"img/750/equaldotanddens/L/8_Ratio_750_L_4_R_3.png","xmouse":[784,784,784,784,784,784,784,784,784,784,784,784,784,784,784,784,784,784,784,784,784,784,784,784,784,784,784,784,784,784,784,784,784,784,784,784,784,784,784,784,784,784,784,784,784,784,784,784,784,784,784,784,784,784,784,784,784,784,784,784,784,784,784,784,784,784,784,784,784,784,784,784,784,784,784,784,784,784,784,784,784,784,784,784,784,784,784,784,784,784,784,784,784,784,784,784,784,784,783,776,766,753,730,706,699,689,681,672,644,625,610,599,582,547,529,515,501,489,468,460,453,448,445,441,439,438,438,438,438,438],"ymouse":[501,501,501,501,501,501,501,501,501,501,501,501,501,501,501,501,501,501,501,501,501,501,501,501,501,501,501,501,501,501,501,501,501,501,501,501,501,501,501,501,501,501,501,501,501,501,501,501,501,501,501,501,501,501,501,501,501,501,501,501,501,501,501,501,501,501,501,501,501,501,501,501,501,501,501,501,501,501,501,501,501,501,501,501,501,501,501,501,501,501,500,500,498,497,497,497,497,497,495,492,486,479,460,437,431,424,413,396,351,329,312,298,276,237,217,201,186,172,155,147,142,138,134,125,121,116,111,106,100,98],"timestamp_mouse":[10,22,42,62,81,102,121,143,162,182,201,221,243,261,282,302,322,343,361,382,403,421,443,461,482,503,521,541,562,581,601,621,642,661,682,703,722,742,761,782,802,821,842,862,882,903,922,941,961,982,1001,1021,1042,1061,1083,1101,1121,1143,1163,1181,1202,1221,1241,1262,1281,1301,1322,1343,1361,1382,1402,1422,1443,1461,1482,1502,1521,1543,1563,1583,1602,1621,1641,1663,1683,1702,1721,1741,1763,1783,1801,1822,1841,1863,1881,1903,1922,1942,1962,1982,2002,2021,2042,2061,2081,2101,2122,2141,2161,2181,2201,2221,2241,2262,2282,2302,2323,2342,2362,2383,2402,2421,2442,2462,2481,2503,2522,2541,2561,2583],"xSR":741.5,"ySR":449.15000000000003,"xT1":424.9,"yT1":0,"xT2":1058.1,"yT2":0,"toosoon":0,"cond_shown":"equaldotanddens","ratio_trial":750,"smaller_num":"3","larger_num":"4","correct_side":1,"subjID":"paulalondoñozambrano16","gender":"1","age":"11","school":"6"},{"start_time":1551794892423,"click_time":1551794894075,"finger_time":1551794893375,"fix_duration":1085.3349086706226,"trial":6,"RT":952,"MT":700,"sideResp":1,"stimulus":"img/750/equaldotanddens/L/13_Ratio_750_L_8_R_6.png","xmouse":[790,790,790,790,790,790,790,790,790,790,790,790,790,790,790,790,790,790,790,790,790,790,790,790,790,790,790,790,790,790,790,790,790,790,790,790,790,790,790,790,790,790,790,790,791,793,805,812,812,812,812,812,812,812,812,812,812,812,813,810,801,766,734,693,648,599,546,519,513,507,503,500,492,486,480,477,477,476,475,475,474,474,473],"ymouse":[471,471,471,471,471,471,471,471,471,471,471,471,471,471,471,471,471,471,471,471,471,471,471,471,471,471,471,471,471,471,471,471,471,471,471,471,471,471,471,471,471,471,471,471,472,470,455,449,448,448,448,448,448,448,448,448,448,448,446,440,428,379,342,293,258,226,187,167,162,156,152,148,135,126,119,117,117,116,114,111,106,101,92],"timestamp_mouse":[12,36,51,72,92,111,133,152,171,193,211,232,253,271,293,312,333,352,372,393,413,432,452,472,493,511,533,553,572,592,612,633,651,673,693,712,733,751,772,791,813,833,851,872,891,913,932,951,972,991,1011,1033,1052,1073,1091,1111,1132,1151,1171,1191,1212,1233,1251,1272,1291,1313,1332,1351,1372,1392,1412,1432,1452,1471,1492,1511,1532,1551,1572,1591,1612,1632,1652],"xSR":741.5,"ySR":449.15000000000003,"xT1":424.9,"yT1":0,"xT2":1058.1,"yT2":0,"toosoon":0,"cond_shown":"equaldotanddens","ratio_trial":750,"smaller_num":"6","larger_num":"8","correct_side":1,"subjID":"paulalondoñozambrano16","gender":"1","age":"11","school":"6"},{"start_time":1551794895908,"click_time":1551794897594,"finger_time":1551794897015,"fix_duration":672.1437278295939,"trial":7,"RT":1107,"MT":579,"sideResp":2,"stimulus":"img/750/randomdotsizeEA/R/7_Ratio_750_L_3_R_4.png","xmouse":[782,782,782,782,782,782,782,782,782,782,782,782,782,782,782,782,782,782,782,782,782,782,782,782,782,782,782,782,782,782,782,782,782,782,782,782,782,782,782,782,782,782,782,782,782,782,782,782,782,782,782,783,788,804,810,815,820,827,846,857,864,874,889,906,913,922,939,959,986,989,991,992,994,1000,1004,1009,1014,1023,1044,1055,1066,1072,1076,1077,1078],"ymouse":[472,472,472,472,472,472,472,472,472,472,472,472,472,472,472,472,472,472,472,472,472,472,472,472,472,472,472,472,472,472,472,472,472,472,472,472,472,472,472,472,472,472,472,472,472,472,472,472,472,472,472,471,466,456,452,448,444,439,426,419,412,406,394,378,362,344,323,304,284,278,275,271,267,255,248,240,229,216,177,160,145,130,122,107,99],"timestamp_mouse":[9,37,48,67,88,107,127,147,166,187,208,228,247,266,287,307,326,346,367,387,408,426,447,467,486,508,527,547,568,586,606,626,648,666,688,706,726,746,768,787,807,827,848,866,887,907,927,948,968,987,1008,1027,1047,1067,1086,1107,1127,1147,1166,1186,1207,1226,1246,1267,1287,1307,1327,1346,1366,1387,1407,1427,1447,1467,1487,1506,1527,1547,1566,1587,1607,1626,1647,1666,1686],"xSR":741.5,"ySR":449.15000000000003,"xT1":424.9,"yT1":0,"xT2":1058.1,"yT2":0,"toosoon":0,"cond_shown":"randomdotsizeEA","ratio_trial":750,"smaller_num":"3","larger_num":"4","correct_side":2,"subjID":"paulalondoñozambrano16","gender":"1","age":"11","school":"6"},{"start_time":1551794899925,"click_time":1551794901376,"finger_time":1551794901155,"fix_duration":1349.3117413745845,"trial":8,"RT":1230,"MT":221,"sideResp":1,"stimulus":"img/500/equaldotanddens/L/13_Ratio_500_L_12_R_6.png","xmouse":[782,782,782,782,782,782,782,782,782,782,782,782,782,782,782,782,782,782,782,782,782,782,782,782,782,782,782,782,782,782,782,782,782,782,782,782,782,782,782,782,782,782,782,782,782,782,782,782,782,782,782,782,782,782,782,782,782,782,776,770,752,709,678,663,646,616,527,507,499,496,488,464,438],"ymouse":[502,502,502,502,502,502,502,502,502,502,502,502,502,502,502,502,502,502,502,502,502,502,502,502,502,502,502,502,502,502,502,502,502,502,502,502,502,502,502,502,502,502,502,502,502,502,502,502,502,502,502,502,502,502,502,502,502,502,495,484,451,399,364,347,326,285,188,171,165,162,155,131,96],"timestamp_mouse":[9,35,49,69,90,110,130,150,171,189,210,230,249,271,289,310,331,350,369,391,411,431,450,471,490,510,531,551,570,590,611,630,650,670,689,711,729,749,770,790,810,829,850,869,890,910,929,951,969,989,1009,1031,1049,1070,1090,1111,1131,1149,1170,1189,1210,1230,1251,1269,1289,1309,1331,1350,1369,1389,1410,1429,1451],"xSR":741.5,"ySR":449.15000000000003,"xT1":424.9,"yT1":0,"xT2":1058.1,"yT2":0,"toosoon":0,"cond_shown":"equaldotanddens","ratio_trial":500,"smaller_num":"6","larger_num":"12","correct_side":1,"subjID":"paulalondoñozambrano16","gender":"1","age":"11","school":"6"},{"start_time":1551794903458,"click_time":1551794904975,"finger_time":1551794904355,"fix_duration":1021.2825946735743,"trial":9,"RT":897,"MT":620,"sideResp":2,"stimulus":"img/900/equaldotanddens/R/9_Ratio_900_L_18_R_20.png","xmouse":[799,799,799,799,799,799,799,799,799,799,799,799,799,799,799,799,799,798,797,796,794,794,794,794,794,794,794,794,794,794,794,794,792,792,790,789,789,787,787,787,787,785,779,775,757,732,722,714,704,694,682,680,679,679,679,692,706,723,741,773,789,806,824,857,899,916,926,930,932,932,935,941,950,976,1007,1062],"ymouse":[495,495,495,495,495,495,495,495,495,495,495,495,495,495,495,495,495,495,495,495,495,495,495,495,495,495,495,495,495,495,495,495,495,494,493,490,490,488,488,488,487,484,473,467,436,395,382,374,363,351,333,329,327,323,319,302,288,275,262,243,233,225,217,203,183,170,161,156,155,154,152,145,134,113,95,72],"timestamp_mouse":[17,40,58,77,96,118,136,157,176,196,218,237,257,277,298,317,337,357,376,397,417,438,457,478,498,516,538,557,578,596,617,637,656,677,696,718,736,756,776,798,816,836,856,877,897,916,936,958,977,997,1016,1036,1057,1077,1097,1116,1136,1157,1177,1198,1217,1237,1256,1278,1298,1317,1336,1358,1376,1398,1417,1436,1457,1476,1497,1516],"xSR":741.5,"ySR":449.15000000000003,"xT1":424.9,"yT1":0,"xT2":1058.1,"yT2":0,"toosoon":0,"cond_shown":"equaldotanddens","ratio_trial":900,"smaller_num":"18","larger_num":"20","correct_side":2,"subjID":"paulalondoñozambrano16","gender":"1","age":"11","school":"6"},{"start_time":1551794906916,"click_time":1551794908835,"finger_time":1551794908434,"fix_duration":959.3825198634939,"trial":10,"RT":1518,"MT":401,"sideResp":2,"stimulus":"img/900/randomdotsizeEA/L/2_Ratio_900_L_20_R_18.png","xmouse":[768,768,768,768,768,768,768,768,768,768,768,768,768,768,768,768,768,768,768,768,768,768,768,768,768,768,768,768,768,768,768,768,768,768,768,768,768,768,768,768,768,768,768,768,768,768,768,768,768,768,768,768,768,768,763,760,756,751,751,751,750,750,749,747,747,747,746,746,746,746,746,746,746,750,755,762,771,792,805,819,832,851,859,868,876,894,923,948,981,990,994,1003,1013,1041,1062,1085,1096],"ymouse":[505,505,505,505,505,505,505,505,505,505,505,505,505,505,505,505,505,505,505,505,505,505,505,505,505,505,505,505,505,505,505,505,505,505,505,505,505,505,505,505,505,505,505,505,505,505,505,505,505,505,505,505,505,505,501,499,496,487,487,487,487,486,485,485,485,485,484,484,484,484,484,483,482,474,466,457,446,420,405,389,375,354,346,329,313,289,261,241,215,206,200,187,172,140,119,100,87],"timestamp_mouse":[1,19,39,59,79,100,120,139,159,180,199,220,240,260,280,300,320,340,360,378,400,420,438,459,479,498,519,540,558,578,600,620,639,660,678,699,719,738,760,779,799,819,840,860,879,900,920,939,960,979,999,1019,1039,1058,1078,1099,1119,1140,1158,1178,1199,1219,1240,1260,1280,1298,1319,1339,1358,1379,1399,1419,1439,1460,1478,1499,1518,1540,1558,1580,1599,1619,1638,1658,1678,1699,1719,1739,1758,1778,1798,1819,1839,1859,1878,1899,1919],"xSR":741.5,"ySR":449.15000000000003,"xT1":424.9,"yT1":0,"xT2":1058.1,"yT2":0,"toosoon":0,"cond_shown":"randomdotsizeEA","ratio_trial":900,"smaller_num":"18","larger_num":"20","correct_side":1,"subjID":"paulalondoñozambrano16","gender":"1","age":"11","school":"6"},{"start_time":1551794911083,"click_time":1551794912375,"finger_time":1551794912114,"fix_duration":1367.451112179872,"trial":11,"RT":1031,"MT":261,"sideResp":1,"stimulus":"img/900/equaldotsize/R/6_Ratio_900_L_9_R_10.png","xmouse":[789,789,789,789,789,789,789,789,789,789,789,789,789,789,789,789,789,789,789,789,789,789,789,789,789,789,789,789,789,789,789,789,789,789,789,789,789,789,789,789,789,789,789,789,789,789,789,789,787,773,760,749,735,725,702,690,670,634,591,514,503,501,501,500,497],"ymouse":[492,492,492,492,492,492,492,492,492,492,492,492,492,492,492,492,492,492,492,492,492,492,492,492,492,492,492,492,492,492,492,492,492,492,492,492,492,492,492,492,492,492,492,492,492,492,492,492,492,471,453,437,415,395,363,346,321,276,227,149,133,123,115,110,97],"timestamp_mouse":[12,37,51,72,92,112,132,153,171,191,211,232,252,272,292,312,333,352,372,393,412,432,452,471,493,511,532,551,571,593,611,633,653,673,692,712,731,753,773,791,813,832,852,871,893,911,932,952,971,991,1011,1031,1052,1072,1092,1111,1131,1152,1172,1191,1212,1232,1252,1272,1292],"xSR":741.5,"ySR":449.15000000000003,"xT1":424.9,"yT1":0,"xT2":1058.1,"yT2":0,"toosoon":0,"cond_shown":"equaldotsize","ratio_trial":900,"smaller_num":"9","larger_num":"10","correct_side":2,"subjID":"paulalondoñozambrano16","gender":"1","age":"11","school":"6"},{"start_time":1551794914376,"click_time":1551794961675,"finger_time":1551794914874,"fix_duration":800.4074261588853,"trial":12,"RT":498,"MT":46801,"sideResp":1,"stimulus":"img/900/equaldotanddens/R/5_Ratio_900_L_9_R_10.png","xmouse":[791,791,791,791,790,788,787,786,785,782,780,779,779,778,778,777,777,777,777,777,777,777,777,777,774,768,761,753,748,746,746,745,744,744,743,743,742,741,738,733,730,730,730,730,730,730,730,730,728,725,724,724,723,722,714,706,700,697,697,697,697,697,697,697,697,697,697,697,699,706,711,713,717,722,733,739,746,758,762,764,765,767,769,773,778,779,779,779,779,779,779,779,779,779,779,779,779,779,779,779,779,779,779,779,779,779,779,779,779,779,779,779,779,779,779,786,803,809,811,811,811,811,811,811,811,811,811,811,811,811,811,811,811,811,811,811,811,811,811,811,811,811,811,811,811,811,811,811,811,811,811,811,811,811,811,811,811,811,811,811,811,811,811,811,811,811,811,811,811,811,811,811,811,811,811,811,811,811,811,811,811,811,811,811,811,811,811,811,811,811,811,811,811,811,811,811,811,811,811,811,811,811,811,811,811,811,811,811,811,811,811,811,811,811,811,811,811,811,811,811,811,811,811,811,811,811,811,811,811,811,811,811,811,811,811,811,811,811,811,811,811,811,811,811,811,811,811,811,811,811,811,811,811,811,811,811,811,811,811,811,811,811,811,811,811,811,811,811,811,811,811,811,811,811,811,811,811,811,811,811,811,811,811,811,811,811,811,811,811,811,811,811,811,811,811,811,811,811,811,811,811,811,811,811,811,811,811,811,811,811,811,811,811,811,811,811,811,811,811,811,811,811,811,811,811,811,811,811,811,811,811,811,811,811,811,811,811,811,811,811,811,811,811,811,811,811,811,811,811,811,811,811,811,811,811,811,811,811,811,811,811,811,811,811,811,811,811,811,811,811,811,811,811,811,811,811,811,811,811,811,811,811,811,811,811,811,811,811,811,811,811,811,811,811,811,811,811,811,811,811,811,811,811,811,811,811,811,811,811,811,811,811,811,811,811,811,811,811,811,811,811,811,811,811,811,811,811,811,811,811,811,811,811,811,811,811,811,811,811,811,811,811,811,811,811,811,811,811,811,811,811,811,811,811,811,811,811,811,811,811,811,811,811,811,811,811,811,811,811,811,811,811,811,811,811,811,811,811,811,811,811,811,811,811,811,811,811,811,811,811,811,811,811,811,811,811,811,811,811,811,811,811,811,811,811,811,811,811,811,811,811,811,811,811,811,811,811,811,811,811,811,811,811,811,811,811,811,811,811,811,811,811,811,811,811,811,811,811,811,811,811,811,811,811,811,811,811,811,811,811,811,811,811,811,811,811,811,811,811,811,811,811,811,811,811,811,811,811,811,811,811,811,811,811,811,811,811,811,811,811,811,811,811,811,811,811,811,811,811,811,811,811,811,811,811,811,811,811,811,811,811,811,811,811,811,811,811,811,811,811,811,811,811,811,811,811,811,811,811,811,811,811,811,811,811,811,811,811,811,811,811,811,811,811,811,811,811,811,811,811,811,811,811,811,811,811,811,811,811,811,811,811,811,811,811,811,811,811,811,811,811,811,811,811,811,811,811,811,811,811,811,811,811,811,811,811,811,811,811,811,811,811,811,811,811,811,811,811,811,811,811,811,811,811,811,811,811,811,811,811,811,811,811,811,811,811,811,811,811,811,811,811,811,811,811,811,811,811,811,811,811,811,811,811,811,811,811,811,811,811,811,811,811,811,811,811,811,811,811,811,811,811,811,811,811,811,811,811,811,811,811,811,811,811,811,811,811,811,811,811,811,811,811,811,811,811,811,811,811,811,811,811,811,811,811,811,811,811,811,811,811,811,811,811,811,811,811,811,811,811,811,811,811,811,811,811,811,811,811,811,811,811,811,811,811,811,811,811,811,811,811,811,811,811,811,811,811,811,811,811,811,811,811,811,811,811,811,811,811,811,811,811,811,811,811,811,811,811,811,811,811,811,811,811,811,811,811,811,811,811,811,811,811,811,811,811,811,811,811,811,811,811,811,811,811,811,811,811,811,811,811,811,811,811,811,811,811,811,811,811,811,811,811,811,811,811,811,811,811,811,811,811,811,811,811,811,811,811,811,811,811,811,811,811,811,811,811,811,811,811,811,811,811,811,811,811,811,811,811,811,811,811,811,811,811,811,811,811,811,811,811,811,811,811,811,811,811,811,811,811,811,811,811,811,811,811,811,811,811,811,811,811,811,811,811,811,811,811,811,811,811,811,811,811,811,811,811,811,811,811,811,811,811,811,811,811,811,811,811,811,811,811,811,811,811,811,811,811,811,811,811,811,811,811,811,811,811,811,811,811,811,811,811,811,811,811,811,811,811,811,811,811,811,811,811,811,811,811,811,811,811,811,811,811,811,811,811,811,811,811,811,811,811,811,811,811,811,811,811,811,811,811,811,811,811,811,811,811,811,811,811,811,811,811,811,811,811,811,811,811,811,811,811,811,811,811,811,811,811,811,811,811,811,811,811,811,811,811,811,811,811,811,811,811,811,811,811,811,811,811,811,811,811,811,811,811,811,811,811,811,811,811,811,811,811,811,811,811,811,811,811,811,811,811,811,811,811,811,811,811,811,811,811,811,811,811,811,811,811,811,811,811,811,811,811,811,811,811,811,811,811,811,811,811,811,811,811,811,811,811,811,811,811,811,811,811,811,811,811,811,811,811,811,811,811,811,811,811,811,811,811,811,811,811,811,811,811,811,811,811,811,811,811,811,811,811,811,811,811,811,811,811,811,811,811,811,811,811,811,811,811,811,811,811,811,811,811,811,811,811,811,811,811,811,811,811,811,811,811,811,811,811,811,811,811,811,811,811,811,811,811,811,811,811,811,811,811,811,811,811,811,811,811,811,811,811,811,811,811,811,811,811,811,811,811,811,811,811,811,811,811,811,811,811,811,811,811,811,811,811,811,811,811,811,811,811,811,811,811,811,811,811,811,811,811,811,811,811,811,811,811,811,811,811,811,811,811,811,811,811,811,811,811,811,811,811,811,811,811,811,811,811,811,811,811,811,811,811,811,811,811,811,811,811,811,811,811,811,811,811,811,811,811,811,811,811,811,811,811,811,811,811,811,811,811,811,811,811,811,811,811,811,811,811,811,811,811,811,811,811,811,811,811,811,811,811,811,811,811,811,811,811,811,811,811,811,811,811,811,811,811,811,811,811,811,811,811,811,811,811,811,811,811,811,811,811,811,811,811,811,811,811,811,811,811,811,811,811,811,811,811,811,811,811,811,811,811,811,811,811,811,811,811,811,811,811,811,811,811,811,811,811,811,811,811,811,811,811,811,811,811,811,811,811,811,811,811,811,811,811,811,811,811,811,811,811,811,811,811,811,811,811,811,811,811,811,811,811,811,811,811,811,811,811,811,811,811,811,811,811,811,811,811,811,811,811,811,811,811,811,811,811,811,811,811,811,811,811,811,811,811,811,811,811,811,811,811,811,811,811,811,811,811,811,811,811,811,811,811,811,811,811,811,811,811,811,811,811,811,811,811,811,811,811,811,811,811,811,811,811,811,811,811,811,811,811,811,811,811,811,811,811,811,811,811,811,811,811,811,811,811,811,811,811,811,811,811,811,811,811,811,811,811,811,811,811,811,811,811,811,811,811,811,811,811,811,811,811,811,811,811,811,811,811,811,811,811,811,811,811,811,811,811,811,811,811,811,811,811,811,811,811,811,811,811,811,811,811,811,811,811,811,811,811,811,811,811,811,811,811,811,811,811,811,811,811,811,811,811,811,811,811,811,811,811,811,811,811,811,811,811,811,811,811,811,811,811,811,811,811,811,811,811,811,811,811,811,811,811,811,811,811,811,811,811,811,811,811,811,811,811,811,811,811,811,811,811,811,811,811,811,811,811,811,811,811,811,811,811,811,811,811,811,811,811,811,811,811,811,811,811,811,811,811,811,811,811,811,811,811,811,811,811,811,811,811,811,811,811,811,811,811,811,811,811,811,811,811,811,811,811,811,811,811,811,811,811,811,811,811,811,811,811,811,811,811,811,811,811,811,811,811,811,811,811,811,811,811,811,811,811,811,811,811,811,811,811,811,811,811,811,811,811,811,811,811,811,811,811,811,811,811,811,811,811,811,811,811,811,812,830,866,935,935,935,935,935,935,935,935,935,935,935,935,935,935,935,935,935,935,935,935,935,935,935,935,935,935,935,935,935,935,935,935,935,935,935,935,935,935,935,935,935,935,935,935,935,935,935,935,935,935,935,935,935,935,935,935,935,935,935,935,935,935,935,935,935,935,935,935,935,935,935,935,935,935,935,935,935,935,935,935,935,935,935,935,935,935,935,935,935,935,935,935,935,935,935,935,935,935,935,935,935,935,935,935,935,935,935,935,935,935,935,935,935,935,935,935,935,935,935,935,935,935,935,935,935,935,935,935,935,935,935,935,935,935,935,935,935,935,935,935,935,935,935,935,935,935,935,935,935,935,935,935,935,935,935,935,935,935,935,935,935,935,935,935,935,935,935,935,935,935,935,935,935,935,935,935,935,935,935,935,935,935,935,935,935,935,935,935,935,935,935,935,935,935,935,935,935,935,935,935,935,935,935,935,935,935,935,935,935,935,935,935,935,935,935,935,935,935,935,935,935,935,935,935,935,935,935,935,935,935,935,935,935,935,935,935,935,935,935,935,935,935,935,935,935,935,935,935,935,935,935,935,935,935,935,935,935,935,935,935,935,935,935,935,935,935,935,935,935,935,935,935,935,935,935,935,935,935,935,935,935,935,935,935,935,935,935,935,935,935,935,935,935,935,935,935,935,935,935,935,935,935,935,935,935,935,935,935,935,935,935,935,935,935,935,935,935,935,935,935,935,935,935,935,935,935,935,935,935,935,605,622,628,635,649,656,666,681,684,685,685,685,685,685,685,685,685,685,685,685,685,685,685,685,685,685,685,683,672,658,643,595,573,555,544,534,531,526,519,510,501,495,484,484,484,484,484,484,484,484,484,484,484,484,484,484,484,484,484,484,484,484,484,484,484,484,484,484,484,484,484,484,484,484,484,484,484,484,484,484,484,484,484,484,484,484,484,484,484,484,484,484,484,484,484,484,484,484,484,484,484,484,484,484,484,484,484,484,484,484,484,484,484,484,484,484,484,484,484,484,484,484,484,484,484,484,484,484,484,484,484,484,484,484,484,484,484,484,484,484,484,484,484,484,484,484,484,484,484,484,484,503,548,566,578,583,588,591,592,592,592,593,604,618,636,669,713,734,752,770,780,787,787,787,787,796,812,818,820,820,820,820,820,820,820,820,820,820,820,820,817,813,810,808,807,805,803,802,802,802,802,802,802,802,802,802,802,802,802,802,802,801,799,797,795,793,793,793,793,793,793,793,793,793,790,764,736,690,667,641,605,529,504],"ymouse":[503,503,503,503,503,503,501,500,496,485,480,476,473,473,472,472,472,472,472,472,472,472,470,467,447,429,412,395,386,381,381,381,379,379,378,376,374,372,364,346,338,336,336,336,336,336,335,333,322,315,311,309,306,303,289,272,256,249,248,248,248,248,248,248,248,248,248,248,257,271,285,296,306,318,346,362,382,410,422,431,434,437,443,453,473,477,477,477,477,477,477,477,477,477,477,477,477,477,477,477,477,477,477,477,477,477,477,477,477,477,477,477,477,477,477,470,453,446,442,442,442,442,442,442,442,442,442,442,442,442,442,442,442,442,442,442,442,442,442,442,442,442,442,442,442,442,442,442,442,442,442,442,442,442,442,442,442,442,442,442,442,442,442,442,442,442,442,442,442,442,442,442,442,442,442,442,442,442,442,442,442,442,442,442,442,442,442,442,442,442,442,442,442,442,442,442,442,442,442,442,442,442,442,442,442,442,442,442,442,442,442,442,442,442,442,442,442,442,442,442,442,442,442,442,442,442,442,442,442,442,442,442,442,442,442,442,442,442,442,442,442,442,442,442,442,442,442,442,442,442,442,442,442,442,442,442,442,442,442,442,442,442,442,442,442,442,442,442,442,442,442,442,442,442,442,442,442,442,442,442,442,442,442,442,442,442,442,442,442,442,442,442,442,442,442,442,442,442,442,442,442,442,442,442,442,442,442,442,442,442,442,442,442,442,442,442,442,442,442,442,442,442,442,442,442,442,442,442,442,442,442,442,442,442,442,442,442,442,442,442,442,442,442,442,442,442,442,442,442,442,442,442,442,442,442,442,442,442,442,442,442,442,442,442,442,442,442,442,442,442,442,442,442,442,442,442,442,442,442,442,442,442,442,442,442,442,442,442,442,442,442,442,442,442,442,442,442,442,442,442,442,442,442,442,442,442,442,442,442,442,442,442,442,442,442,442,442,442,442,442,442,442,442,442,442,442,442,442,442,442,442,442,442,442,442,442,442,442,442,442,442,442,442,442,442,442,442,442,442,442,442,442,442,442,442,442,442,442,442,442,442,442,442,442,442,442,442,442,442,442,442,442,442,442,442,442,442,442,442,442,442,442,442,442,442,442,442,442,442,442,442,442,442,442,442,442,442,442,442,442,442,442,442,442,442,442,442,442,442,442,442,442,442,442,442,442,442,442,442,442,442,442,442,442,442,442,442,442,442,442,442,442,442,442,442,442,442,442,442,442,442,442,442,442,442,442,442,442,442,442,442,442,442,442,442,442,442,442,442,442,442,442,442,442,442,442,442,442,442,442,442,442,442,442,442,442,442,442,442,442,442,442,442,442,442,442,442,442,442,442,442,442,442,442,442,442,442,442,442,442,442,442,442,442,442,442,442,442,442,442,442,442,442,442,442,442,442,442,442,442,442,442,442,442,442,442,442,442,442,442,442,442,442,442,442,442,442,442,442,442,442,442,442,442,442,442,442,442,442,442,442,442,442,442,442,442,442,442,442,442,442,442,442,442,442,442,442,442,442,442,442,442,442,442,442,442,442,442,442,442,442,442,442,442,442,442,442,442,442,442,442,442,442,442,442,442,442,442,442,442,442,442,442,442,442,442,442,442,442,442,442,442,442,442,442,442,442,442,442,442,442,442,442,442,442,442,442,442,442,442,442,442,442,442,442,442,442,442,442,442,442,442,442,442,442,442,442,442,442,442,442,442,442,442,442,442,442,442,442,442,442,442,442,442,442,442,442,442,442,442,442,442,442,442,442,442,442,442,442,442,442,442,442,442,442,442,442,442,442,442,442,442,442,442,442,442,442,442,442,442,442,442,442,442,442,442,442,442,442,442,442,442,442,442,442,442,442,442,442,442,442,442,442,442,442,442,442,442,442,442,442,442,442,442,442,442,442,442,442,442,442,442,442,442,442,442,442,442,442,442,442,442,442,442,442,442,442,442,442,442,442,442,442,442,442,442,442,442,442,442,442,442,442,442,442,442,442,442,442,442,442,442,442,442,442,442,442,442,442,442,442,442,442,442,442,442,442,442,442,442,442,442,442,442,442,442,442,442,442,442,442,442,442,442,442,442,442,442,442,442,442,442,442,442,442,442,442,442,442,442,442,442,442,442,442,442,442,442,442,442,442,442,442,442,442,442,442,442,442,442,442,442,442,442,442,442,442,442,442,442,442,442,442,442,442,442,442,442,442,442,442,442,442,442,442,442,442,442,442,442,442,442,442,442,442,442,442,442,442,442,442,442,442,442,442,442,442,442,442,442,442,442,442,442,442,442,442,442,442,442,442,442,442,442,442,442,442,442,442,442,442,442,442,442,442,442,442,442,442,442,442,442,442,442,442,442,442,442,442,442,442,442,442,442,442,442,442,442,442,442,442,442,442,442,442,442,442,442,442,442,442,442,442,442,442,442,442,442,442,442,442,442,442,442,442,442,442,442,442,442,442,442,442,442,442,442,442,442,442,442,442,442,442,442,442,442,442,442,442,442,442,442,442,442,442,442,442,442,442,442,442,442,442,442,442,442,442,442,442,442,442,442,442,442,442,442,442,442,442,442,442,442,442,442,442,442,442,442,442,442,442,442,442,442,442,442,442,442,442,442,442,442,442,442,442,442,442,442,442,442,442,442,442,442,442,442,442,442,442,442,442,442,442,442,442,442,442,442,442,442,442,442,442,442,442,442,442,442,442,442,442,442,442,442,442,442,442,442,442,442,442,442,442,442,442,442,442,442,442,442,442,442,442,442,442,442,442,442,442,442,442,442,442,442,442,442,442,442,442,442,442,442,442,442,442,442,442,442,442,442,442,442,442,442,442,442,442,442,442,442,442,442,442,442,442,442,442,442,442,442,442,442,442,442,442,442,442,442,442,442,442,442,442,442,442,442,442,442,442,442,442,442,442,442,442,442,442,442,442,442,442,442,442,442,442,442,442,442,442,442,442,442,442,442,442,442,442,442,442,442,442,442,442,442,442,442,442,442,442,442,442,442,442,442,442,442,442,442,442,442,442,442,442,442,442,442,442,442,442,442,442,442,442,442,442,442,442,442,442,442,442,442,442,442,442,442,442,442,442,442,442,442,442,442,442,442,442,442,442,442,442,442,442,442,442,442,442,442,442,442,442,442,442,442,442,442,442,442,442,442,442,442,442,442,442,442,442,442,442,442,442,442,442,442,442,442,442,442,442,442,442,442,442,442,442,442,442,442,442,442,442,442,442,442,442,442,442,442,442,442,442,442,442,442,442,442,442,442,442,442,442,442,442,442,442,442,442,442,442,442,442,442,442,442,442,442,442,442,442,442,442,442,442,442,442,442,442,442,442,442,442,442,442,442,442,442,442,442,442,442,442,442,442,442,442,442,442,442,442,442,442,442,442,442,442,442,442,442,442,442,442,442,442,442,442,442,442,442,442,442,442,442,442,442,442,442,442,442,442,442,442,442,442,442,442,442,442,442,442,442,442,442,442,442,442,442,442,442,442,442,442,442,442,442,442,442,442,442,442,442,442,442,442,442,442,442,442,442,442,442,442,442,442,442,442,442,442,442,442,442,442,442,442,442,442,442,442,442,442,442,442,442,442,442,442,442,442,442,442,442,442,442,442,442,442,442,442,442,442,442,442,442,442,442,442,442,442,442,442,442,442,442,442,442,442,442,442,442,442,442,442,442,442,442,442,442,442,442,442,442,442,442,442,442,442,442,442,442,442,442,442,442,442,442,442,442,442,442,442,442,442,442,442,442,442,442,442,442,442,442,442,442,442,442,442,442,442,442,442,442,442,442,442,442,442,442,442,442,442,442,442,442,442,442,442,442,442,442,442,442,442,442,442,442,442,442,442,442,442,442,442,442,442,442,442,442,442,442,442,442,442,442,442,442,442,442,442,442,442,442,442,442,442,442,442,442,442,442,442,442,442,442,442,442,442,442,442,442,442,442,442,442,442,442,442,442,442,442,442,442,442,442,442,442,442,442,442,442,442,442,442,442,442,442,442,442,442,442,442,442,442,442,442,442,442,442,442,442,442,442,442,442,442,442,442,442,442,442,442,442,442,442,442,442,442,442,442,442,442,440,457,541,676,676,676,676,676,676,676,676,676,676,676,676,676,676,676,676,676,676,676,676,676,676,676,676,676,676,676,676,676,676,676,676,676,676,676,676,676,676,676,676,676,676,676,676,676,676,676,676,676,676,676,676,676,676,676,676,676,676,676,676,676,676,676,676,676,676,676,676,676,676,676,676,676,676,676,676,676,676,676,676,676,676,676,676,676,676,676,676,676,676,676,676,676,676,676,676,676,676,676,676,676,676,676,676,676,676,676,676,676,676,676,676,676,676,676,676,676,676,676,676,676,676,676,676,676,676,676,676,676,676,676,676,676,676,676,676,676,676,676,676,676,676,676,676,676,676,676,676,676,676,676,676,676,676,676,676,676,676,676,676,676,676,676,676,676,676,676,676,676,676,676,676,676,676,676,676,676,676,676,676,676,676,676,676,676,676,676,676,676,676,676,676,676,676,676,676,676,676,676,676,676,676,676,676,676,676,676,676,676,676,676,676,676,676,676,676,676,676,676,676,676,676,676,676,676,676,676,676,676,676,676,676,676,676,676,676,676,676,676,676,676,676,676,676,676,676,676,676,676,676,676,676,676,676,676,676,676,676,676,676,676,676,676,676,676,676,676,676,676,676,676,676,676,676,676,676,676,676,676,676,676,676,676,676,676,676,676,676,676,676,676,676,676,676,676,676,676,676,676,676,676,676,676,676,676,676,676,676,676,676,676,676,676,676,676,676,676,676,676,676,676,676,676,676,676,676,676,676,676,676,685,673,667,658,643,635,628,621,619,619,619,619,619,619,619,619,619,619,619,619,619,619,619,619,619,619,619,619,621,626,630,645,653,659,661,666,667,670,672,676,679,682,687,687,687,687,687,687,687,687,687,687,687,687,687,687,687,687,687,687,687,687,687,687,687,687,687,687,687,687,687,687,687,687,687,687,687,687,687,687,687,687,687,687,687,687,687,687,687,687,687,687,687,687,687,687,687,687,687,687,687,687,687,687,687,687,687,687,687,687,687,687,687,687,687,687,687,687,687,687,687,687,687,687,687,687,687,687,687,687,687,687,687,687,687,687,687,687,687,687,687,687,687,687,687,687,687,687,687,687,687,682,665,656,651,648,645,642,642,642,642,642,639,636,631,621,604,594,585,578,574,573,573,573,573,558,518,496,480,467,464,464,464,464,464,464,464,464,463,463,463,468,472,476,478,480,483,483,483,483,483,483,483,483,483,483,483,483,483,483,483,486,489,490,492,496,497,497,497,497,497,497,497,485,472,389,325,227,182,137,92,30,17],"timestamp_mouse":[32,39,60,79,98,118,139,159,179,198,218,239,258,279,300,319,338,358,378,400,419,439,458,479,498,518,538,560,579,599,618,638,658,679,699,719,739,760,779,799,818,839,859,878,898,919,938,959,980,999,1018,1039,1060,1079,1099,1119,1138,1159,1179,1198,1219,1240,1258,1279,1298,1320,1339,1359,1379,1399,1418,1440,1459,1479,1499,1519,1540,1559,1578,1599,1618,1638,1658,1679,1700,1719,1738,1759,1779,1800,1819,1839,1858,1880,1900,1918,1938,1958,1978,1999,2018,2038,2058,2080,2098,2119,2140,2158,2178,2199,2218,2239,2259,2279,2300,2320,2338,2358,2379,2398,2420,2439,2460,2480,2498,2518,2539,2559,2580,2598,2619,2638,2660,2678,2698,2719,2739,2759,2778,2798,2820,2839,2860,2880,2899,2919,2939,2959,2978,2998,3019,3038,3060,3080,3099,3120,3138,3159,3179,3199,3219,3240,3259,3280,3299,3320,3339,3360,3379,3399,3419,3438,3459,3478,3499,3519,3538,3559,3578,3599,3619,3640,3658,3679,3698,3719,3738,3759,3780,3798,3818,3840,3859,3879,3899,3919,3938,3959,3979,3999,4019,4038,4059,4080,4098,4119,4138,4158,4180,4199,4220,4239,4258,4280,4298,4319,4339,4360,4379,4399,4419,4438,4458,4480,4499,4520,4538,4558,4579,4600,4619,4639,4659,4679,4699,4718,4739,4759,4780,4800,4818,4840,4858,4879,4900,4920,4940,4960,4978,4998,5018,5040,5059,5079,5100,5120,5139,5159,5179,5199,5219,5239,5259,5279,5298,5320,5340,5359,5380,5399,5419,5439,5459,5479,5499,5518,5539,5558,5579,5599,5620,5640,5659,5679,5699,5718,5739,5758,5780,5799,5819,5838,5858,5880,5899,5919,5940,5958,5979,6000,6020,6039,6060,6080,6099,6119,6140,6159,6180,6200,6220,6239,6258,6279,6298,6319,6340,6360,6379,6399,6420,6438,6460,6478,6498,6518,6538,6558,6580,6599,6619,6640,6659,6679,6700,6718,6738,6759,6779,6799,6820,6838,6859,6879,6900,6920,6939,6960,6980,6999,7019,7039,7058,7079,7098,7119,7139,7159,7180,7198,7219,7240,7258,7279,7300,7320,7340,7359,7378,7398,7419,7440,7459,7480,7498,7518,7540,7560,7579,7598,7619,7640,7659,7680,7699,7719,7738,7759,7778,7798,7819,7840,7859,7878,7898,7919,7940,7958,7978,7999,8019,8040,8059,8080,8099,8118,8139,8159,8179,8198,8219,8240,8258,8279,8298,8319,8340,8360,8380,8400,8418,8438,8459,8480,8498,8519,8540,8558,8578,8599,8618,8639,8659,8679,8699,8719,8738,8758,8779,8799,8819,8839,8860,8879,8899,8920,8940,8978,8980,8998,9020,9039,9059,9079,9098,9119,9139,9159,9179,9199,9218,9239,9258,9280,9298,9319,9338,9359,9378,9398,9418,9439,9459,9479,9499,9519,9538,9558,9580,9598,9619,9640,9659,9679,9698,9720,9739,9760,9778,9799,9818,9839,9859,9880,9899,9919,9940,9960,9978,9999,10019,10038,10060,10079,10099,10119,10139,10158,10179,10200,10220,10238,10258,10278,10299,10319,10340,10360,10380,10398,10418,10440,10459,10480,10499,10518,10538,10560,10579,10599,10619,10640,10660,10680,10698,10718,10738,10760,10780,10799,10819,10839,10858,10878,10899,10919,10939,10959,10979,10999,11019,11038,11059,11080,11099,11119,11138,11158,11179,11200,11219,11239,11259,11278,11299,11320,11340,11360,11379,11400,11420,11439,11459,11478,11498,11519,11540,11559,11579,11599,11620,11640,11659,11679,11699,11719,11739,11758,11780,11799,11819,11838,11859,11880,11899,11920,11940,11958,11980,11998,12018,12040,12059,12080,12099,12119,12140,12158,12180,12199,12220,12240,12260,12280,12299,12319,12338,12359,12380,12398,12418,12439,12460,12480,12500,12520,12540,12560,12580,12599,12619,12638,12658,12679,12700,12719,12739,12760,12779,12799,12820,12839,12860,12879,12899,12918,12938,12958,12979,13000,13019,13040,13059,13078,13099,13119,13139,13160,13179,13199,13219,13239,13259,13280,13298,13319,13340,13359,13379,13399,13418,13439,13460,13480,13499,13520,13540,13559,13578,13598,13620,13640,13660,13680,13698,13718,13739,13760,13780,13800,13819,13838,13859,13880,13899,13919,13940,13960,13980,13999,14019,14039,14059,14080,14099,14119,14140,14159,14180,14198,14219,14239,14259,14279,14300,14319,14339,14359,14379,14399,14419,14440,14460,14480,14498,14518,14539,14559,14579,14599,14619,14640,14658,14678,14698,14719,14740,14759,14779,14798,14819,14840,14860,14880,14899,14918,14940,14959,14980,15000,15018,15040,15060,15079,15100,15120,15138,15159,15179,15198,15218,15240,15259,15280,15298,15319,15338,15359,15380,15398,15419,15440,15459,15480,15499,15519,15538,15559,15579,15599,15620,15639,15660,15680,15699,15719,15739,15760,15779,15799,15819,15840,15859,15879,15898,15919,15939,15959,15979,15999,16020,16039,16059,16079,16098,16118,16140,16159,16178,16198,16220,16239,16259,16279,16299,16319,16338,16360,16379,16399,16419,16438,16459,16480,16499,16519,16539,16560,16580,16600,16618,16639,16658,16680,16699,16720,16740,16759,16780,16799,16818,16838,16860,16879,16900,16920,16938,16958,16980,16998,17019,17039,17060,17079,17099,17119,17139,17159,17179,17199,17219,17238,17258,17280,17298,17319,17339,17360,17380,17398,17419,17440,17459,17478,17498,17518,17539,17559,17579,17600,17619,17638,17658,17679,17700,17719,17740,17760,17778,17798,17819,17839,17859,17880,17899,17918,17939,17959,17980,17998,18020,18040,18060,18079,18100,18119,18140,18159,18179,18198,18220,18240,18260,18279,18300,18320,18339,18358,18379,18399,18420,18439,18458,18479,18500,18519,18540,18559,18579,18599,18619,18640,18659,18679,18699,18720,18740,18760,18779,18798,18820,18839,18859,18880,18898,18919,18939,18959,18980,18999,19018,19039,19060,19080,19098,19119,19139,19159,19180,19200,19220,19240,19258,19279,19299,19320,19338,19359,19379,19400,19419,19440,19458,19479,19500,19520,19539,19559,19578,19599,19618,19639,19660,19680,19698,19720,19739,19758,19778,19799,19819,19839,19860,19880,19899,19918,19938,19958,19979,19998,20020,20039,20060,20079,20098,20119,20140,20158,20178,20199,20219,20240,20258,20280,20299,20319,20338,20358,20380,20399,20420,20440,20458,20480,20499,20519,20539,20560,20579,20598,20619,20638,20658,20679,20700,20719,20740,20759,20779,20799,20818,20839,20859,20880,20898,20918,20939,20959,20980,21000,21019,21038,21059,21079,21099,21119,21139,21158,21180,21200,21219,21239,21258,21279,21299,21320,21340,21358,21378,21399,21419,21440,21458,21479,21499,21519,21539,21558,21579,21599,21619,21638,21660,21680,21699,21719,21739,21759,21778,21799,21818,21840,21859,21880,21899,21919,21939,21959,21979,21999,22018,22038,22059,22078,22098,22118,22140,22159,22178,22200,22219,22240,22259,22279,22299,22319,22340,22358,22380,22399,22419,22440,22459,22479,22499,22519,22539,22559,22579,22599,22619,22639,22659,22680,22698,22718,22740,22759,22780,22799,22818,22839,22859,22879,22899,22920,22939,22958,22978,22999,23020,23039,23058,23079,23098,23119,23140,23159,23180,23199,23219,23239,23260,23279,23298,23319,23340,23359,23378,23399,23419,23439,23459,23480,23498,23519,23539,23559,23578,23600,23619,23639,23659,23680,23699,23719,23738,23759,23780,23799,23819,23839,23860,23879,23898,23919,23939,23959,23980,23998,24019,24039,24060,24079,24099,24119,24139,24158,24179,24200,24219,24240,24259,24280,24300,24318,24339,24359,24380,24400,24420,24440,24460,24478,24499,24519,24539,24559,24579,24599,24620,24639,24658,24680,24699,24720,24739,24758,24779,24799,24820,24840,24860,24879,24899,24919,24939,24958,24979,24999,25018,25040,25060,25080,25098,25119,25140,25159,25179,25199,25220,25238,25259,25280,25299,25319,25339,25359,25378,25399,25419,25440,25459,25479,25498,25519,25538,25559,25578,25598,25619,25638,25659,25678,25698,25719,25739,25759,25780,25798,25819,25839,25858,25880,25898,25920,25939,25960,25980,26000,26019,26040,26060,26079,26099,26119,26139,26160,26180,26198,26218,26240,26260,26280,26299,26318,26338,26360,26380,26400,26420,26439,26459,26478,26498,26520,26539,26560,26579,26599,26619,26638,26660,26680,26699,26719,26738,26758,26779,26799,26820,26840,26859,26879,26899,26918,26940,26959,26980,26998,27018,27038,27059,27080,27100,27120,27139,27160,27179,27199,27218,27238,27258,27279,27300,27319,27340,27359,27378,27399,27420,27439,27459,27479,27498,27519,27538,27559,27580,27599,27619,27640,27659,27679,27699,27719,27740,27760,27780,27799,27819,27840,27860,27880,27900,27919,27939,27958,27980,27998,28020,28040,28059,28080,28099,28119,28139,28158,28179,28198,28219,28239,28259,28280,28299,28318,28338,28359,28380,28398,28419,28439,28459,28479,28500,28519,28540,28559,28578,28598,28618,28640,28659,28680,28698,28718,28739,28759,28779,28800,28819,28839,28858,28879,28900,28920,28938,28958,28980,28999,29019,29038,29059,29079,29098,29119,29139,29158,29178,29198,29220,29240,29260,29279,29299,29319,29339,29359,29379,29399,29419,29440,29458,29478,29500,29520,29540,29560,29579,29599,29619,29640,29659,29679,29698,29718,29739,29759,29780,29798,29819,29838,29859,29879,29899,29919,29939,29959,29979,30000,30020,30039,30059,30079,30098,30118,30139,30159,30180,30199,30219,30240,30259,30280,30299,30318,30340,30360,30378,30398,30418,30439,30459,30479,30499,30519,30539,30559,30579,30598,30619,30638,30658,30680,30698,30719,30739,30759,30778,30799,30819,30840,30859,30879,30898,30919,30940,30959,30979,30998,31019,31040,31059,31079,31098,31119,31138,31160,31180,31198,31219,31239,31260,31279,31298,31319,31340,31358,31378,31398,31419,31439,31459,31480,31499,31520,31538,31558,31578,31599,31620,31640,31660,31680,31700,31719,31738,31759,31780,31798,31818,31838,31859,31880,31900,31920,31939,31958,31979,32000,32019,32040,32058,32078,32099,32120,32139,32158,32178,32199,32220,32240,32259,32279,32299,32318,32340,32359,32380,32399,32419,32439,32460,32480,32500,32518,32538,32558,32580,32598,32619,32640,32660,32679,32700,32720,32739,32759,32778,32798,32819,32839,32859,32879,32899,32919,32939,32959,32978,32999,33019,33040,33059,33079,33099,33119,33140,33159,33178,33198,33220,33239,33259,33279,33299,33320,33340,33359,33379,33398,33418,33438,33460,33479,33500,33519,33539,33559,33579,33599,33620,33638,33658,33679,33698,33719,33740,33759,33780,33800,33818,33839,33860,33880,33899,33918,33940,33959,33980,33998,34019,34040,34059,34079,34098,34120,34139,34160,34179,34199,34218,34239,34259,34279,34300,34319,34339,34358,34380,34399,34419,34440,34460,34479,34499,34519,34539,34558,34580,34599,34619,34639,34658,34678,34699,34718,34738,34759,34779,34800,34819,34838,34858,34878,34898,34918,34938,34959,34979,35000,35020,35038,35059,35078,35100,35120,35139,35159,35180,35198,35219,35240,35260,35280,35300,35320,35340,35359,35379,35398,35420,35440,35459,35480,35498,35518,35539,35559,35580,35600,35619,35640,35658,35679,35700,35720,35740,35759,35780,35800,35818,35838,35860,35879,35900,35919,35940,35960,35980,35999,36020,36039,36060,36080,36099,36120,36138,36158,36179,36199,36219,36240,36259,36280,36298,36319,36338,36360,36379,36398,36419,36440,36460,36480,36500,36520,36539,36559,36580,36599,36619,36639,36660,36679,36700,36720,36740,36760,36779,36800,36819,36840,36858,36878,36899,36920,36940,36958,36980,37000,37019,37039,37060,37078,37099,37119,37139,37159,37180,37200,37220,37239,37258,37279,37299,37318,37339,37360,37379,37399,37419,37439,37459,37479,37499,37518,37539,37560,37580,37598,37618,37639,37660,37680,37700,37718,37738,37759,37780,37798,37818,37839,37859,37879,37900,37919,37939,37958,37979,37999,38019,38040,38059,38079,38099,38119,38139,38158,38179,38199,38220,38239,38259,38279,38300,38320,38340,38359,38379,38399,38420,38439,38459,38479,38499,38519,38539,38560,38579,38598,38619,38640,38659,38680,38699,38719,38740,38759,38779,38799,38818,38839,38859,38879,38898,38918,38938,38959,38978,38999,39019,39039,39060,39080,39099,39119,39138,39159,39178,39198,39219,39240,39258,39279,39298,39318,39339,39360,39380,39399,39418,39438,39458,39478,39500,39519,39540,39559,39580,39598,39619,39639,39658,39680,39699,39719,39739,39760,39778,39800,39819,39840,39858,39879,39898,39919,39939,39958,39978,39998,40019,40039,40059,40079,40099,40118,40139,40159,40180,40199,40219,40238,40260,40279,40300,40319,40339,40359,40380,40399,40418,40439,40459,40479,40500,40519,40539,40558,40578,40600,40619,40639,40660,40679,40698,40720,40739,40758,40780,40799,40820,40839,40860,40879,40900,40919,40940,40958,40980,40999,41020,41039,41059,41079,41098,41118,41139,41158,41178,41198,41219,41239,41259,41280,41299,41319,41339,41360,41379,41399,41419,41438,41458,41480,41498,41519,41539,41558,41578,41599,41619,41639,41658,41680,41698,41719,41738,41759,41780,41800,41819,41840,41858,41880,41899,41919,41939,41959,41979,41999,42019,42038,42059,42079,42100,42119,42139,42159,42180,42199,42219,42238,42258,42280,42299,42319,42338,42359,42380,42398,42418,42439,42459,42480,42499,42519,42540,42559,42579,42599,42619,42640,42660,42679,42699,42720,42740,42759,42779,42800,42818,42839,42859,42880,42899,42918,42939,42959,42980,42998,43019,43039,43059,43079,43099,43119,43140,43159,43179,43198,43219,43239,43259,43280,43299,43319,43339,43358,43378,43398,43420,43439,43459,43478,43500,43520,43540,43559,43580,43598,43620,43639,43660,43679,43699,43718,43739,43758,43780,43799,43819,43840,43859,43879,43899,43920,43939,43959,43980,43999,44019,44040,44058,44078,44100,44119,44140,44160,44178,44199,44219,44240,44259,44279,44299,44319,44339,44359,44380,44399,44419,44439,44460,44479,44500,44519,44539,44560,44579,44600,44620,44640,44658,44679,44699,44718,44739,44760,44779,44799,44820,44840,44858,44879,44899,44919,44939,44959,44980,44998,45020,45038,45059,45080,45099,45118,45138,45158,45180,45198,45219,45239,45259,45280,45299,45319,45339,45358,45378,45399,45420,45439,45458,45478,45499,45519,45539,45559,45580,45600,45618,45638,45659,45679,45699,45720,45739,45760,45779,45799,45818,45839,45858,45878,45900,45920,45938,45958,45979,45998,46018,46039,46059,46080,46099,46119,46139,46159,46180,46199,46219,46239,46260,46279,46300,46319,46339,46359,46379,46399,46419,46439,46459,46480,46498,46519,46539,46558,46579,46599,46618,46639,46659,46679,46700,46719,46738,46759,46779,46800,46819,46839,46859,46880,46899,46920,46939,46959,46979,46999,47020,47038,47059,47079,47098,47119,47139,47158,47178,47198,47219,47239,47259,47280,47299],"xSR":741.5,"ySR":449.15000000000003,"xT1":424.9,"yT1":0,"xT2":1058.1,"yT2":0,"toosoon":0,"cond_shown":"equaldotanddens","ratio_trial":900,"smaller_num":"9","larger_num":"10","correct_side":2,"subjID":"paulalondoñozambrano16","gender":"1","age":"11","school":"6"},{"start_time":1551794963228,"click_time":1551794965195,"finger_time":1551794964435,"fix_duration":250,"trial":13,"RT":1207,"MT":760,"sideResp":2,"stimulus":"img/750/randomdotsizeEA/L/14_Ratio_750_L_8_R_6.png","xmouse":[761,761,761,761,761,761,761,761,761,761,761,761,761,761,761,761,763,764,764,764,764,764,764,764,764,764,764,764,764,764,764,764,764,764,764,764,764,764,764,764,764,764,764,764,764,764,765,766,766,766,766,768,770,772,772,772,772,773,774,776,778,782,800,806,810,812,812,812,812,812,812,812,812,812,816,827,858,906,924,938,948,956,973,980,983,985,985,985,986,988,990,1002,1010,1016,1022,1032,1037,1052,1059],"ymouse":[486,486,486,486,486,486,486,486,486,486,486,486,486,486,486,486,486,484,483,483,483,483,483,483,483,483,483,483,483,483,483,483,483,483,483,483,483,483,483,483,483,483,483,483,483,481,479,475,475,475,473,467,462,459,458,457,457,456,453,450,446,438,414,404,399,396,396,396,396,396,396,396,396,396,392,377,348,293,276,264,250,236,206,194,186,179,175,174,167,161,154,130,119,112,107,99,98,92,90],"timestamp_mouse":[10,31,47,67,88,107,127,147,168,187,208,227,248,266,286,307,326,346,367,386,406,428,448,468,487,506,527,547,568,586,608,627,646,666,687,708,728,748,766,788,808,826,847,866,888,908,927,948,967,987,1006,1028,1047,1066,1086,1107,1127,1147,1167,1188,1207,1226,1246,1267,1287,1307,1326,1347,1367,1386,1406,1428,1446,1467,1486,1507,1527,1547,1566,1587,1607,1628,1647,1667,1687,1708,1727,1747,1768,1787,1806,1827,1848,1867,1887,1907,1927,1947,1967],"xSR":741.5,"ySR":449.15000000000003,"xT1":424.9,"yT1":0,"xT2":1058.1,"yT2":0,"toosoon":0,"cond_shown":"randomdotsizeEA","ratio_trial":750,"smaller_num":"6","larger_num":"8","correct_side":1,"subjID":"paulalondoñozambrano16","gender":"1","age":"11","school":"6"},{"start_time":1551794966812,"click_time":1551794968175,"finger_time":1551794967256,"fix_duration":634.6755540131066,"trial":14,"RT":444,"MT":919,"sideResp":1,"stimulus":"img/250/equaldotanddens/L/1_Ratio_250_L_8_R_2.png","xmouse":[758,758,758,758,758,758,758,758,758,758,758,758,758,758,758,757,757,756,752,750,747,745,735,727,722,717,711,704,687,678,669,664,664,663,663,663,663,663,663,663,663,661,640,630,618,610,599,581,559,548,544,541,538,528,521,517,513,509,506,505,503,502,500,498,495,493,492,491,490],"ymouse":[498,498,498,498,498,498,498,498,498,498,498,498,498,498,498,496,495,492,487,485,481,478,466,456,450,445,436,428,397,378,363,356,356,355,355,355,355,355,355,355,355,351,315,298,281,271,255,229,198,186,180,176,173,159,149,144,137,132,128,126,124,122,119,117,111,108,106,103,99],"timestamp_mouse":[9,23,43,63,84,102,123,143,164,184,203,224,243,264,282,303,323,343,364,383,403,423,444,463,482,503,524,543,562,583,603,623,642,662,684,704,723,743,763,783,803,823,844,863,883,902,923,942,963,982,1003,1023,1043,1062,1083,1103,1123,1143,1163,1183,1203,1223,1244,1262,1283,1303,1323,1343,1362],"xSR":741.5,"ySR":449.15000000000003,"xT1":424.9,"yT1":0,"xT2":1058.1,"yT2":0,"toosoon":0,"cond_shown":"equaldotanddens","ratio_trial":250,"smaller_num":"2","larger_num":"8","correct_side":1,"subjID":"paulalondoñozambrano16","gender":"1","age":"11","school":"6"},{"start_time":1551794973568,"click_time":1551794974756,"finger_time":1551794974616,"fix_duration":1349.5131754606305,"trial":15,"RT":1048,"MT":140,"sideResp":1,"stimulus":"img/250/equaldotanddens/L/5_Ratio_250_L_24_R_6.png","xmouse":[776,776,776,776,776,776,776,776,776,776,776,776,776,776,776,776,776,776,776,776,776,776,776,776,776,776,776,776,776,776,776,776,776,776,776,776,776,776,776,776,776,776,782,786,786,786,786,786,786,786,786,786,786,781,727,683,645,614,561,481],"ymouse":[481,481,481,481,481,481,481,481,481,481,481,481,481,481,481,481,481,481,481,481,481,481,481,481,481,481,481,481,481,481,481,481,481,481,481,481,481,481,481,481,481,481,469,457,452,452,452,452,452,452,452,452,448,441,372,323,288,259,190,77],"timestamp_mouse":[8,35,47,68,87,108,128,146,167,187,208,226,248,267,287,307,327,348,366,387,408,427,448,468,487,507,526,547,566,588,606,627,647,668,687,706,727,746,766,788,806,827,848,867,886,907,927,947,966,986,1007,1027,1048,1067,1088,1107,1126,1147,1168,1188],"xSR":741.5,"ySR":449.15000000000003,"xT1":424.9,"yT1":0,"xT2":1058.1,"yT2":0,"toosoon":0,"cond_shown":"equaldotanddens","ratio_trial":250,"smaller_num":"6","larger_num":"24","correct_side":1,"subjID":"paulalondoñozambrano16","gender":"1","age":"11","school":"6"},{"start_time":1551794976808,"click_time":1551794978395,"finger_time":1551794977635,"fix_duration":570.6540294334173,"trial":16,"RT":827,"MT":760,"sideResp":2,"stimulus":"img/900/equaldotanddens/R/11_Ratio_900_L_18_R_20.png","xmouse":[763,763,763,763,763,763,763,763,763,765,767,769,771,773,775,776,780,783,786,786,786,786,786,786,786,786,786,786,786,786,786,786,786,786,786,786,786,786,786,791,801,810,819,829,832,834,835,837,839,840,844,850,856,874,885,900,925,946,992,1011,1023,1036,1049,1070,1078,1084,1088,1089,1089,1089,1089,1089,1089,1089,1089,1089,1089,1089,1089,1089],"ymouse":[482,482,482,482,482,482,482,482,482,480,480,479,479,479,479,479,479,479,479,479,479,479,479,479,479,479,479,479,479,479,479,479,479,479,479,479,479,479,479,479,462,445,429,410,407,403,400,396,392,390,382,371,354,319,299,279,252,240,205,189,176,165,154,142,137,133,125,121,120,120,120,120,118,110,103,100,100,100,100,97],"timestamp_mouse":[10,34,46,67,87,106,126,147,166,187,207,227,246,266,287,307,326,347,367,386,406,427,446,468,487,507,527,547,568,588,606,627,648,667,686,707,727,747,767,787,807,827,847,867,886,907,927,947,967,987,1007,1026,1046,1067,1088,1107,1128,1147,1167,1187,1207,1227,1247,1266,1287,1307,1327,1347,1367,1386,1408,1427,1447,1466,1487,1508,1527,1546,1567,1587],"xSR":741.5,"ySR":449.15000000000003,"xT1":424.9,"yT1":0,"xT2":1058.1,"yT2":0,"toosoon":0,"cond_shown":"equaldotanddens","ratio_trial":900,"smaller_num":"18","larger_num":"20","correct_side":2,"subjID":"paulalondoñozambrano16","gender":"1","age":"11","school":"6"},{"start_time":1551794980411,"click_time":1551794981556,"finger_time":1551794981435,"fix_duration":774.5400688283396,"trial":17,"RT":1024,"MT":121,"sideResp":2,"stimulus":"img/750/equaldotsize/R/7_Ratio_750_L_3_R_4.png","xmouse":[790,790,790,790,790,790,790,790,790,790,790,790,790,790,790,790,790,790,790,790,790,790,790,790,790,790,790,790,790,790,790,790,790,790,790,790,790,790,790,790,790,790,790,790,790,790,790,790,790,796,812,836,912,952,988,1017,1061,1113],"ymouse":[503,503,503,503,503,503,503,503,503,503,503,503,503,503,503,503,503,503,503,503,503,503,503,503,503,503,503,503,503,503,503,503,503,503,503,503,503,503,503,503,503,503,503,503,503,503,503,503,503,495,472,438,347,299,256,215,150,64],"timestamp_mouse":[10,32,45,64,84,105,125,144,163,184,204,224,243,264,283,303,324,344,364,384,404,424,443,465,485,503,525,543,564,585,604,624,644,664,684,705,724,744,763,784,804,823,845,865,883,905,925,945,963,984,1003,1024,1045,1064,1084,1103,1124,1145],"xSR":741.5,"ySR":449.15000000000003,"xT1":424.9,"yT1":0,"xT2":1058.1,"yT2":0,"toosoon":0,"cond_shown":"equaldotsize","ratio_trial":750,"smaller_num":"3","larger_num":"4","correct_side":2,"subjID":"paulalondoñozambrano16","gender":"1","age":"11","school":"6"},{"start_time":1551794983712,"click_time":1551794985975,"finger_time":1551794984874,"fix_duration":1116.9124886802579,"trial":18,"RT":1162,"MT":1101,"sideResp":1,"stimulus":"img/900/randomdotsizeEA/L/1_Ratio_900_L_10_R_9.png","xmouse":[791,791,791,791,791,791,791,791,791,791,791,791,791,791,791,791,791,791,791,791,791,791,791,791,791,791,791,791,791,791,791,791,791,791,791,791,791,791,791,791,791,791,791,791,791,791,791,791,791,791,791,791,785,778,771,764,760,759,758,758,758,758,758,758,773,806,839,873,921,929,931,932,932,932,932,932,932,935,939,943,945,945,945,945,942,935,927,919,900,887,875,865,856,840,828,804,775,713,687,665,646,622,603,596,587,580,573,569,556,548,538,528,519,517],"ymouse":[504,504,504,504,504,504,504,504,504,504,504,504,504,504,504,504,504,504,504,504,504,504,504,504,504,504,504,504,504,504,504,504,504,504,504,504,504,504,504,504,504,504,504,504,504,504,504,504,504,504,504,504,494,483,469,459,452,450,449,449,448,448,448,446,429,403,371,338,288,276,271,271,271,271,271,271,270,267,263,259,257,257,257,257,258,261,265,270,280,284,286,286,286,286,286,286,286,275,267,258,248,232,219,213,203,195,185,179,156,143,128,115,103,98],"timestamp_mouse":[10,23,42,63,84,102,124,144,162,184,203,224,242,264,282,303,323,343,362,383,404,422,444,462,484,502,523,543,563,582,603,624,643,664,683,702,723,743,763,783,804,824,842,863,883,903,922,943,964,983,1003,1023,1044,1063,1083,1103,1123,1143,1162,1184,1203,1223,1244,1263,1283,1303,1323,1344,1362,1383,1403,1424,1443,1463,1483,1503,1523,1544,1563,1583,1603,1623,1643,1664,1682,1704,1723,1743,1763,1783,1802,1822,1842,1862,1882,1903,1922,1943,1962,1983,2002,2022,2043,2062,2083,2103,2122,2142,2162,2182,2203,2222,2242,2263],"xSR":741.5,"ySR":449.15000000000003,"xT1":424.9,"yT1":0,"xT2":1058.1,"yT2":0,"toosoon":0,"cond_shown":"randomdotsizeEA","ratio_trial":900,"smaller_num":"9","larger_num":"10","correct_side":1,"subjID":"paulalondoñozambrano16","gender":"1","age":"11","school":"6"},{"start_time":1551794988327,"click_time":1551794990634,"finger_time":1551794989594,"fix_duration":1372.1873428475576,"trial":19,"RT":1267,"MT":1040,"sideResp":2,"stimulus":"img/250/randomdotsizeEA/R/8_Ratio_250_L_1_R_4.png","xmouse":[768,768,768,768,768,768,768,768,768,768,768,768,768,768,768,768,768,768,768,768,768,768,768,768,768,768,768,768,768,768,768,768,768,768,768,768,768,768,768,768,768,768,768,768,768,768,768,768,768,768,768,768,768,768,768,768,768,768,768,768,773,785,808,819,826,832,841,855,864,875,888,908,931,940,948,955,959,972,979,980,987,989,990,990,991,992,995,997,998,999,1002,1006,1014,1025,1035,1045,1061,1098,1109,1112,1114,1115,1115,1115,1115,1115,1115,1115,1115,1115,1115,1115,1115,1115,1115,1114],"ymouse":[487,487,487,487,487,487,487,487,487,487,487,487,487,487,487,487,487,487,487,487,487,487,487,487,487,487,487,487,487,487,487,487,487,487,487,487,487,487,487,487,487,487,487,487,487,487,487,487,487,487,487,487,487,487,487,487,487,487,487,487,483,471,451,442,437,432,425,417,410,403,392,377,355,346,335,325,319,301,292,287,274,262,241,234,229,223,208,202,198,193,187,182,173,165,159,153,142,117,111,109,108,107,107,107,107,107,107,107,107,107,107,107,107,106,102,97],"timestamp_mouse":[19,28,48,67,87,107,127,147,168,187,208,228,247,267,288,307,328,347,368,387,407,428,448,468,487,507,527,548,568,587,607,627,647,667,687,707,728,747,767,787,807,828,847,868,887,908,928,947,967,987,1008,1027,1047,1068,1088,1107,1128,1147,1167,1187,1207,1227,1248,1267,1287,1308,1327,1347,1367,1387,1408,1427,1447,1467,1488,1507,1527,1547,1568,1587,1608,1627,1647,1667,1688,1708,1728,1747,1767,1787,1807,1827,1847,1868,1887,1907,1928,1947,1967,1987,2008,2028,2047,2067,2087,2107,2128,2147,2167,2187,2208,2228,2248,2268,2288,2307],"xSR":741.5,"ySR":449.15000000000003,"xT1":424.9,"yT1":0,"xT2":1058.1,"yT2":0,"toosoon":0,"cond_shown":"randomdotsizeEA","ratio_trial":250,"smaller_num":"1","larger_num":"4","correct_side":2,"subjID":"paulalondoñozambrano16","gender":"1","age":"11","school":"6"},{"start_time":1551794995914,"click_time":1551794998235,"finger_time":1551794997275,"fix_duration":1258.920229193021,"trial":20,"RT":1361,"MT":960,"sideResp":1,"stimulus":"img/900/randomdotsizeEA/R/3_Ratio_900_L_9_R_10.png","xmouse":[788,788,788,788,788,788,788,788,788,788,788,788,788,788,788,788,788,788,788,788,788,788,788,788,788,788,788,788,788,788,788,788,788,788,788,788,788,788,788,788,788,788,788,788,788,788,788,788,788,788,788,788,788,787,787,786,786,786,786,786,786,786,784,781,779,774,765,754,731,729,729,729,729,729,729,728,728,710,696,681,666,647,628,623,620,619,618,610,601,588,568,558,548,546,540,533,528,526,524,522,522,519,517,512,508,505,499,496,490,489,488,485,484,480,478,477,476],"ymouse":[510,510,510,510,510,510,510,510,510,510,510,510,510,510,510,510,510,510,510,510,510,510,510,510,510,510,510,510,510,510,510,510,510,510,510,510,510,510,510,510,510,510,510,510,510,510,510,510,510,510,510,510,509,509,508,508,507,507,507,507,507,506,504,500,498,492,484,470,445,443,443,443,443,443,443,443,442,424,407,390,378,361,345,340,335,332,328,312,302,287,268,257,236,229,219,210,200,194,184,182,178,172,167,157,151,148,141,135,125,122,120,114,111,105,101,100,98],"timestamp_mouse":[9,20,46,61,81,101,120,141,160,180,200,222,241,260,281,300,320,340,360,380,400,421,440,460,481,500,520,543,561,580,600,621,640,662,680,701,720,740,760,780,801,820,841,861,880,900,921,942,961,980,1001,1020,1040,1061,1080,1101,1120,1141,1160,1181,1200,1220,1240,1261,1280,1300,1320,1341,1361,1381,1401,1421,1442,1460,1480,1501,1520,1541,1560,1580,1600,1621,1642,1660,1680,1701,1720,1741,1760,1780,1800,1820,1841,1860,1881,1900,1921,1940,1961,1980,2001,2020,2041,2061,2080,2100,2120,2140,2161,2181,2200,2220,2240,2260,2281,2301,2321],"xSR":741.5,"ySR":449.15000000000003,"xT1":424.9,"yT1":0,"xT2":1058.1,"yT2":0,"toosoon":0,"cond_shown":"randomdotsizeEA","ratio_trial":900,"smaller_num":"9","larger_num":"10","correct_side":2,"subjID":"paulalondoñozambrano16","gender":"1","age":"11","school":"6"},{"start_time":1551795001549,"click_time":1551795002974,"finger_time":1551795002554,"fix_duration":253.3965351766222,"trial":21,"RT":1005,"MT":420,"sideResp":2,"stimulus":"img/750/equaldotsize/R/5_Ratio_750_L_15_R_20.png","xmouse":[771,771,771,771,771,771,771,771,771,771,771,771,771,771,771,771,773,773,773,773,773,773,773,773,773,773,773,773,773,773,773,773,773,773,773,773,773,773,773,773,780,794,797,801,802,803,809,814,823,835,845,865,876,885,897,912,959,996,1042,1088,1128,1129,1129,1129,1129,1135,1136,1138,1138,1138,1138,1136],"ymouse":[547,547,547,547,547,547,547,547,547,547,547,537,527,527,527,527,524,524,524,524,524,524,524,524,524,524,524,524,524,524,524,524,524,524,524,524,524,524,524,522,518,510,507,504,503,502,493,486,476,461,449,421,403,385,365,343,287,254,215,176,139,138,138,138,136,121,114,107,104,102,100,96],"timestamp_mouse":[10,37,47,65,85,105,125,145,165,186,206,226,246,266,286,305,325,345,365,386,406,426,445,465,485,505,525,546,566,585,607,625,645,665,685,705,725,745,765,785,805,825,845,866,885,906,925,945,965,986,1005,1025,1045,1066,1085,1105,1125,1146,1166,1185,1207,1225,1246,1266,1285,1306,1325,1345,1365,1385,1406,1425],"xSR":741.5,"ySR":449.15000000000003,"xT1":424.9,"yT1":0,"xT2":1058.1,"yT2":0,"toosoon":0,"cond_shown":"equaldotsize","ratio_trial":750,"smaller_num":"15","larger_num":"20","correct_side":2,"subjID":"paulalondoñozambrano16","gender":"1","age":"11","school":"6"},{"start_time":1551795005135,"click_time":1551795006834,"finger_time":1551795006295,"fix_duration":1060.13421764201,"trial":22,"RT":1160,"MT":539,"sideResp":1,"stimulus":"img/750/equaldotsize/L/10_Ratio_750_L_4_R_3.png","xmouse":[794,794,794,794,794,794,794,794,794,794,794,794,794,794,794,794,794,794,794,794,794,794,794,794,794,794,794,794,794,794,794,794,794,794,794,794,794,794,794,794,794,794,794,794,794,794,793,793,793,793,793,793,792,791,789,788,780,775,761,744,712,619,560,518,493,466,463,462,461,458,456,455,455,456,456,458,462,463,465,466,466,466,467,467,468],"ymouse":[513,513,513,513,513,513,513,513,513,513,513,513,513,513,513,513,513,513,513,513,513,513,513,513,513,513,513,513,513,513,513,513,513,513,513,513,513,513,513,513,513,513,513,513,513,513,510,505,495,485,481,475,472,468,467,463,453,448,440,427,404,350,318,294,277,258,256,252,249,240,227,222,215,207,198,186,163,152,142,127,120,109,103,101,97],"timestamp_mouse":[20,40,59,79,99,120,139,160,180,199,219,240,260,279,299,320,340,359,380,400,421,439,460,479,499,519,541,560,580,599,619,639,660,680,700,719,739,760,780,799,819,839,860,880,899,919,939,959,979,999,1019,1039,1059,1079,1099,1119,1138,1160,1179,1200,1219,1239,1260,1280,1299,1320,1339,1359,1379,1399,1420,1439,1460,1479,1499,1520,1539,1559,1579,1599,1619,1640,1660,1679,1699],"xSR":741.5,"ySR":449.15000000000003,"xT1":424.9,"yT1":0,"xT2":1058.1,"yT2":0,"toosoon":0,"cond_shown":"equaldotsize","ratio_trial":750,"smaller_num":"3","larger_num":"4","correct_side":1,"subjID":"paulalondoñozambrano16","gender":"1","age":"11","school":"6"},{"start_time":1551795008772,"click_time":1551795010455,"finger_time":1551795010154,"fix_duration":775.7905319133284,"trial":23,"RT":1382,"MT":301,"sideResp":2,"stimulus":"img/900/randomdotsizeEA/R/7_Ratio_900_L_9_R_10.png","xmouse":[800,800,800,800,800,800,800,800,800,800,800,800,800,800,800,800,800,800,800,800,800,800,800,800,800,800,800,800,800,800,800,800,800,800,800,800,800,800,800,800,800,800,800,800,800,800,800,800,800,800,800,800,800,800,800,800,800,800,800,800,800,800,800,800,800,800,800,801,809,844,885,903,921,936,950,972,985,998,1013,1023,1040,1048,1054,1059,1068],"ymouse":[478,478,478,478,478,478,478,478,478,478,478,478,478,478,478,478,478,478,478,478,478,478,478,478,478,478,478,478,478,478,478,478,478,478,478,478,478,478,478,478,478,478,478,478,478,478,478,478,478,478,478,478,478,478,478,478,478,478,478,478,478,478,478,478,478,478,478,474,462,417,373,351,328,310,295,269,252,230,204,187,154,137,123,110,79],"timestamp_mouse":[8,22,42,63,83,103,123,142,163,183,203,223,242,262,283,302,323,342,362,382,402,422,443,462,483,502,522,543,563,582,603,622,642,662,682,702,722,742,762,782,802,822,843,862,882,902,922,942,962,982,1003,1023,1043,1063,1083,1103,1123,1142,1162,1182,1202,1222,1243,1262,1282,1303,1322,1342,1363,1382,1402,1422,1443,1462,1483,1502,1522,1542,1562,1582,1602,1622,1642,1662,1683],"xSR":741.5,"ySR":449.15000000000003,"xT1":424.9,"yT1":0,"xT2":1058.1,"yT2":0,"toosoon":0,"cond_shown":"randomdotsizeEA","ratio_trial":900,"smaller_num":"9","larger_num":"10","correct_side":2,"subjID":"paulalondoñozambrano16","gender":"1","age":"11","school":"6"},{"start_time":1551795013954,"click_time":1551795015356,"finger_time":1551795014995,"fix_duration":1138.5391161574519,"trial":24,"RT":1041,"MT":361,"sideResp":1,"stimulus":"img/750/equaldotsize/L/10_Ratio_750_L_4_R_3.png","xmouse":[790,790,790,790,790,790,790,790,790,790,790,790,790,790,790,790,790,790,790,790,790,790,790,790,790,790,790,790,790,790,790,790,790,790,790,790,790,790,790,790,790,790,790,790,790,790,790,790,790,790,790,786,764,729,690,611,585,574,565,563,560,557,556,555,554,554,554,551,548,530,492],"ymouse":[498,498,498,498,498,498,498,498,498,498,498,498,498,498,498,498,498,498,498,498,498,498,498,498,498,498,498,498,498,498,498,498,498,498,498,498,498,498,498,498,498,498,498,498,498,498,498,498,498,498,498,464,388,312,238,126,90,70,56,52,47,42,40,39,39,39,39,39,39,47,65],"timestamp_mouse":[8,33,40,60,80,100,121,140,161,181,201,221,241,261,281,301,321,341,361,380,401,422,440,460,481,500,521,542,560,581,600,621,640,660,681,701,721,740,760,781,801,821,840,861,881,901,920,940,960,981,1001,1021,1041,1060,1080,1101,1120,1140,1160,1180,1201,1220,1240,1260,1281,1301,1320,1340,1360,1380,1401],"xSR":741.5,"ySR":449.15000000000003,"xT1":424.9,"yT1":0,"xT2":1058.1,"yT2":0,"toosoon":0,"cond_shown":"equaldotsize","ratio_trial":750,"smaller_num":"3","larger_num":"4","correct_side":1,"subjID":"paulalondoñozambrano16","gender":"1","age":"11","school":"6"},{"start_time":1551795017225,"click_time":1551795018534,"finger_time":1551795018055,"fix_duration":250,"trial":25,"RT":830,"MT":479,"sideResp":2,"stimulus":"img/900/equaldotanddens/R/13_Ratio_900_L_18_R_20.png","xmouse":[780,780,780,780,780,780,780,780,780,780,780,780,780,780,780,780,780,780,780,780,780,780,780,780,780,780,780,780,780,780,780,780,780,780,780,780,780,780,787,798,841,903,1014,1058,1083,1102,1121,1130,1134,1138,1141,1145,1154,1157,1158,1160,1161,1161,1161,1158,1155,1143,1135,1127,1121,1119],"ymouse":[490,490,490,490,490,490,490,490,490,490,490,490,490,490,490,490,490,490,490,490,490,490,490,490,490,490,490,490,490,490,490,490,490,490,490,490,490,490,488,481,456,417,341,311,293,280,268,261,258,253,245,237,218,211,205,196,191,179,174,164,157,139,128,114,102,96],"timestamp_mouse":[10,32,49,69,89,110,130,149,170,189,209,229,249,269,289,309,329,349,370,389,409,429,449,469,490,509,529,549,569,589,610,629,649,669,689,710,729,749,769,789,809,830,849,869,889,909,929,949,969,989,1009,1029,1049,1069,1090,1109,1129,1149,1170,1189,1209,1230,1249,1269,1290,1309],"xSR":741.5,"ySR":449.15000000000003,"xT1":424.9,"yT1":0,"xT2":1058.1,"yT2":0,"toosoon":0,"cond_shown":"equaldotanddens","ratio_trial":900,"smaller_num":"18","larger_num":"20","correct_side":2,"subjID":"paulalondoñozambrano16","gender":"1","age":"11","school":"6"},{"start_time":1551795023907,"click_time":1551795025835,"finger_time":1551795025075,"fix_duration":552.5277436738604,"trial":26,"RT":1168,"MT":760,"sideResp":2,"stimulus":"img/900/randomdotsizeEA/L/1_Ratio_900_L_10_R_9.png","xmouse":[778,778,778,778,778,778,778,778,778,778,778,778,778,778,778,778,778,778,778,778,778,778,778,778,778,778,778,778,778,778,778,778,778,778,778,785,785,785,785,781,780,777,777,777,777,777,777,777,777,777,777,779,782,789,794,799,805,821,832,840,851,872,907,928,954,990,1034,1133,1161,1182,1195,1209,1230,1266,1284,1303,1313,1318,1320,1316,1312,1302,1293,1271,1261,1252,1246,1231,1221,1208,1195,1188,1183,1181,1173,1159,1139],"ymouse":[534,534,534,534,534,534,534,534,534,534,534,534,534,534,534,534,534,534,534,534,534,534,534,534,534,534,534,534,534,534,534,534,534,534,534,515,511,511,511,524,528,533,533,533,533,533,533,533,533,534,532,529,518,496,485,478,471,457,448,441,435,424,415,408,400,394,388,385,383,378,369,359,336,293,264,232,205,179,141,130,124,114,110,102,99,97,96,92,90,86,83,80,79,79,76,72,66],"timestamp_mouse":[10,34,48,67,87,107,127,147,167,187,208,227,248,268,288,307,327,349,368,387,407,427,447,467,487,507,527,547,568,587,607,627,647,667,688,707,727,749,768,787,807,827,848,868,888,907,927,947,968,987,1007,1028,1048,1068,1087,1108,1127,1148,1168,1188,1207,1227,1249,1267,1287,1307,1328,1348,1367,1387,1408,1427,1447,1467,1487,1507,1527,1548,1567,1587,1607,1627,1647,1667,1687,1708,1727,1748,1766,1787,1808,1828,1848,1867,1887,1907,1928],"xSR":741.5,"ySR":449.15000000000003,"xT1":424.9,"yT1":0,"xT2":1058.1,"yT2":0,"toosoon":0,"cond_shown":"randomdotsizeEA","ratio_trial":900,"smaller_num":"9","larger_num":"10","correct_side":1,"subjID":"paulalondoñozambrano16","gender":"1","age":"11","school":"6"},{"start_time":1551795037126,"click_time":1551795038696,"finger_time":1551795037234,"fix_duration":250,"trial":27,"RT":108,"MT":1462,"sideResp":1,"stimulus":"img/750/equaldotsize/L/14_Ratio_750_L_8_R_6.png","xmouse":[749,749,749,769,803,847,876,919,947,979,1009,1016,1016,1016,1016,1018,1018,1019,1019,1019,1019,1019,1019,1018,1014,1003,991,954,934,918,891,875,832,811,792,776,770,769,769,769,769,769,766,765,763,763,763,763,763,763,763,763,763,764,765,767,769,771,772,772,765,741,726,714,702,693,674,662,652,641,636,631,628,623,612,596,539,497,471],"ymouse":[476,476,476,490,502,508,509,492,478,466,461,460,460,460,460,458,456,452,452,451,451,450,450,450,450,451,454,459,462,464,465,465,468,468,468,468,468,468,468,468,468,468,471,472,475,475,475,475,475,475,475,475,476,478,478,478,478,478,472,461,430,375,349,328,310,295,263,246,232,218,212,206,203,197,188,174,132,109,98],"timestamp_mouse":[8,28,49,68,90,108,128,148,168,188,209,229,248,269,289,308,328,348,369,388,409,429,449,468,489,508,528,549,568,588,609,628,649,668,688,708,728,749,769,789,808,828,848,868,888,908,929,949,968,989,1010,1029,1049,1068,1088,1108,1129,1148,1169,1188,1208,1229,1248,1268,1289,1308,1329,1348,1368,1388,1409,1428,1448,1468,1488,1508,1530,1548,1570],"xSR":741.5,"ySR":449.15000000000003,"xT1":424.9,"yT1":0,"xT2":1058.1,"yT2":0,"toosoon":0,"cond_shown":"equaldotsize","ratio_trial":750,"smaller_num":"6","larger_num":"8","correct_side":1,"subjID":"paulalondoñozambrano16","gender":"1","age":"11","school":"6"},{"start_time":1551795051228,"click_time":1551795052753,"finger_time":1551795052175,"fix_duration":1152.1927600674005,"trial":28,"RT":947,"MT":578,"sideResp":2,"stimulus":"img/500/equaldotanddens/R/3_Ratio_500_L_10_R_20.png","xmouse":[789,789,789,789,789,789,789,789,789,789,789,789,789,789,789,789,789,789,789,789,789,789,789,789,789,789,789,789,789,789,789,789,789,789,789,789,789,789,789,789,789,789,789,789,789,789,804,854,905,964,1018,1090,1101,1104,1104,1104,1104,1094,1089,1083,1079,1071,1057,1052,1049,1048,1048,1048,1048,1048,1048,1048,1048,1048,1050,1058,1066],"ymouse":[479,479,479,479,479,479,479,479,479,479,479,479,479,479,479,479,479,479,479,479,479,479,479,479,479,479,479,479,479,479,479,479,479,479,479,479,479,479,479,479,479,479,479,479,479,478,466,421,383,344,311,261,251,248,248,248,234,191,171,152,131,109,85,79,75,74,74,74,74,74,74,74,74,74,77,86,90],"timestamp_mouse":[10,43,46,65,85,106,125,145,165,185,205,226,245,265,285,306,327,346,366,385,406,426,445,466,485,505,525,546,565,585,605,627,645,665,685,706,725,745,765,787,806,826,845,865,885,905,925,947,965,986,1005,1027,1045,1065,1086,1106,1125,1145,1166,1187,1206,1227,1246,1266,1285,1306,1327,1346,1367,1385,1406,1425,1446,1466,1485,1505,1525],"xSR":741.5,"ySR":449.15000000000003,"xT1":424.9,"yT1":0,"xT2":1058.1,"yT2":0,"toosoon":0,"cond_shown":"equaldotanddens","ratio_trial":500,"smaller_num":"10","larger_num":"20","correct_side":2,"subjID":"paulalondoñozambrano16","gender":"1","age":"11","school":"6"},{"start_time":1551795054431,"click_time":1551795055973,"finger_time":1551795055834,"fix_duration":876.1184172045212,"trial":29,"RT":1403,"MT":139,"sideResp":2,"stimulus":"img/750/randomdotsizeEA/R/12_Ratio_750_L_3_R_4.png","xmouse":[796,796,796,796,796,796,796,796,796,796,796,796,796,796,796,796,796,796,796,796,796,796,796,796,796,796,796,796,796,796,796,796,796,796,796,796,796,796,796,796,796,796,796,796,796,796,796,796,796,796,796,796,796,796,796,796,796,796,796,796,796,796,796,796,796,796,801,816,824,831,838,874,913,962,1007,1064,1109,1126],"ymouse":[506,506,506,506,506,506,506,506,506,506,506,506,506,506,506,506,506,506,506,506,506,506,506,506,506,506,506,506,506,506,506,506,506,506,506,506,506,506,506,506,506,506,506,506,506,506,506,506,506,506,506,506,506,506,506,506,506,506,506,506,506,506,506,506,506,507,499,475,463,453,437,381,331,275,221,160,113,93],"timestamp_mouse":[9,23,42,63,83,102,123,142,164,183,203,224,243,263,282,302,324,343,362,383,403,422,442,464,482,503,523,542,562,583,602,624,644,663,682,703,722,742,763,782,804,822,844,862,882,904,923,944,962,982,1003,1023,1042,1063,1083,1102,1124,1142,1163,1182,1203,1223,1242,1262,1282,1302,1323,1342,1362,1383,1403,1424,1442,1462,1482,1504,1524,1542],"xSR":741.5,"ySR":449.15000000000003,"xT1":424.9,"yT1":0,"xT2":1058.1,"yT2":0,"toosoon":0,"cond_shown":"randomdotsizeEA","ratio_trial":750,"smaller_num":"3","larger_num":"4","correct_side":2,"subjID":"paulalondoñozambrano16","gender":"1","age":"11","school":"6"},{"start_time":1551795058006,"click_time":1551795059573,"finger_time":1551795059135,"fix_duration":1071.3953208067674,"trial":30,"RT":1129,"MT":438,"sideResp":1,"stimulus":"img/250/equaldotsize/L/15_Ratio_250_L_12_R_3.png","xmouse":[786,786,786,786,786,786,786,786,786,786,786,786,786,786,786,786,786,786,786,786,786,786,786,786,786,786,786,786,786,786,786,786,786,786,786,786,786,786,786,786,786,786,786,786,786,786,786,786,786,786,786,786,785,777,759,744,723,707,674,657,642,629,603,588,572,558,537,515,509,502,496,490,484,484,484,484,484,487,490],"ymouse":[506,506,506,506,506,506,506,506,506,506,506,506,506,506,506,506,506,506,506,506,506,506,506,506,506,506,506,506,506,506,506,506,506,506,506,506,506,506,506,506,506,506,506,506,506,506,506,506,506,506,506,506,506,500,481,465,440,426,403,392,380,372,349,335,320,305,280,240,218,197,179,165,149,147,146,144,139,104,78],"timestamp_mouse":[10,31,47,67,89,108,128,148,169,187,207,227,249,267,288,308,327,349,367,389,407,429,447,469,487,507,529,547,569,587,608,629,647,667,688,707,729,749,767,789,808,829,848,869,887,908,929,947,967,989,1007,1028,1049,1067,1088,1107,1129,1149,1167,1187,1208,1228,1248,1267,1288,1307,1328,1349,1367,1387,1408,1427,1448,1467,1488,1508,1528,1548,1567],"xSR":741.5,"ySR":449.15000000000003,"xT1":424.9,"yT1":0,"xT2":1058.1,"yT2":0,"toosoon":0,"cond_shown":"equaldotsize","ratio_trial":250,"smaller_num":"3","larger_num":"12","correct_side":1,"subjID":"paulalondoñozambrano16","gender":"1","age":"11","school":"6"},{"start_time":1551795061307,"click_time":1551795062735,"finger_time":1551795062234,"fix_duration":792.4952461312344,"trial":31,"RT":927,"MT":501,"sideResp":2,"stimulus":"img/750/equaldotanddens/R/3_Ratio_750_L_15_R_20.png","xmouse":[787,787,787,787,787,787,787,787,787,787,787,786,786,786,786,786,786,786,786,786,785,782,777,765,764,764,764,764,764,764,764,764,764,764,764,764,764,764,764,764,764,764,764,764,773,781,796,825,841,855,864,875,882,896,902,907,913,918,930,936,945,961,970,988,995,1002,1007,1011,1025,1036,1051,1062],"ymouse":[463,463,463,463,463,463,463,463,463,463,463,464,464,464,464,464,464,464,464,464,464,469,482,501,501,501,501,501,501,501,501,501,501,501,501,501,501,501,501,501,501,501,501,501,481,466,445,413,396,379,365,343,326,295,279,265,252,242,226,216,202,178,165,138,127,119,113,108,94,84,71,62],"timestamp_mouse":[10,29,48,67,88,108,128,146,167,187,207,227,247,267,286,306,327,346,368,388,407,427,447,468,488,507,526,548,567,587,607,627,647,668,687,707,728,748,766,787,806,826,847,867,886,908,927,947,966,988,1007,1028,1046,1067,1087,1106,1126,1148,1167,1187,1206,1227,1246,1266,1286,1306,1326,1346,1367,1386,1407,1428],"xSR":741.5,"ySR":449.15000000000003,"xT1":424.9,"yT1":0,"xT2":1058.1,"yT2":0,"toosoon":0,"cond_shown":"equaldotanddens","ratio_trial":750,"smaller_num":"15","larger_num":"20","correct_side":2,"subjID":"paulalondoñozambrano16","gender":"1","age":"11","school":"6"},{"start_time":1551795065986,"click_time":1551795067234,"finger_time":1551795066893,"fix_duration":770.7790420397288,"trial":32,"RT":907,"MT":341,"sideResp":1,"stimulus":"img/500/equaldotsize/L/5_Ratio_500_L_4_R_2.png","xmouse":[768,768,768,768,768,768,768,768,768,768,768,768,768,768,768,768,768,768,768,768,768,768,768,768,768,768,768,768,768,768,768,768,768,768,768,768,768,768,768,768,768,768,769,769,749,720,704,690,680,671,663,655,645,616,602,588,577,561,548,526,513,501,493],"ymouse":[511,511,511,511,511,511,511,511,511,511,511,511,511,511,511,511,511,511,511,511,511,511,511,511,511,511,511,511,511,511,511,511,511,511,511,511,511,511,511,511,511,511,511,510,474,436,417,402,389,374,363,352,340,306,292,274,259,236,218,178,151,121,96],"timestamp_mouse":[10,38,47,68,88,107,128,149,168,187,207,228,247,269,287,307,328,347,367,387,408,428,447,468,489,508,529,548,569,587,608,629,647,669,688,708,727,747,767,787,807,827,847,868,888,907,927,947,968,987,1007,1028,1047,1068,1087,1108,1127,1148,1167,1187,1207,1229,1248],"xSR":741.5,"ySR":449.15000000000003,"xT1":424.9,"yT1":0,"xT2":1058.1,"yT2":0,"toosoon":0,"cond_shown":"equaldotsize","ratio_trial":500,"smaller_num":"2","larger_num":"4","correct_side":1,"subjID":"paulalondoñozambrano16","gender":"1","age":"11","school":"6"},{"start_time":1551795068982,"click_time":1551795070054,"finger_time":1551795069753,"fix_duration":908.0443039462818,"trial":33,"RT":771,"MT":301,"sideResp":2,"stimulus":"img/250/equaldotsize/R/4_Ratio_250_L_3_R_12.png","xmouse":[792,792,792,792,793,794,794,794,794,794,794,794,794,794,794,794,794,794,794,794,794,794,794,794,794,794,794,794,794,794,794,794,794,794,794,794,803,824,861,950,982,1000,1011,1019,1030,1036,1042,1050,1062,1067,1070,1071,1072,1074],"ymouse":[472,472,474,481,487,491,492,493,493,493,493,493,493,493,493,493,493,493,493,493,493,493,493,493,493,493,493,493,493,493,493,493,493,493,493,493,487,465,417,305,272,250,236,222,196,181,169,148,122,113,106,103,102,97],"timestamp_mouse":[11,36,51,72,91,112,131,151,172,192,211,232,252,271,291,312,331,351,372,392,411,433,451,471,492,512,531,552,572,591,611,631,653,673,692,712,732,752,771,792,812,832,851,872,892,912,931,952,973,992,1011,1033,1053,1072],"xSR":741.5,"ySR":449.15000000000003,"xT1":424.9,"yT1":0,"xT2":1058.1,"yT2":0,"toosoon":0,"cond_shown":"equaldotsize","ratio_trial":250,"smaller_num":"3","larger_num":"12","correct_side":2,"subjID":"paulalondoñozambrano16","gender":"1","age":"11","school":"6"},{"start_time":1551795071537,"click_time":1551795072855,"finger_time":1551795072433,"fix_duration":681.7298101992769,"trial":34,"RT":896,"MT":422,"sideResp":1,"stimulus":"img/250/equaldotanddens/L/5_Ratio_250_L_24_R_6.png","xmouse":[808,808,808,808,808,808,808,808,808,808,808,808,808,808,808,808,808,808,808,808,808,808,808,808,808,808,808,808,808,808,808,808,808,808,808,808,808,808,808,808,808,805,792,768,730,665,646,632,620,589,551,453,431,425,422,421,421,419,417,416,416,418,421,428,440,452