[{"start_time":1551899630043,"click_time":1551899633334,"finger_time":1551899631914,"fix_duration":403.84894338256726,"trial":0,"RT":1871,"MT":1420,"sideResp":1,"stimulus":[],"xmouse":[763,763,763,763,763,763,763,763,763,763,763,763,763,763,763,763,763,763,763,763,763,763,763,763,763,763,763,763,763,763,763,763,763,763,763,763,763,763,763,763,763,763,763,763,763,763,763,763,763,763,763,763,763,763,763,763,763,763,763,763,763,763,763,763,763,763,763,763,763,763,763,763,763,763,763,763,763,763,763,763,763,763,763,763,763,763,764,768,779,788,800,822,835,845,858,869,891,895,910,923,936,966,978,986,991,994,995,995,995,995,995,995,995,995,995,995,995,995,995,993,955,935,916,900,894,892,873,850,837,825,812,806,794,776,756,740,730,730,714,695,664,656,651,650,648,648,640,633,633,633,633,633,633,633,633,633,633,633,633,633,633,633,633,633,485],"ymouse":[504,504,504,504,504,504,504,504,504,504,504,504,504,504,504,504,504,504,504,504,504,504,504,504,504,504,504,504,504,504,504,504,504,504,504,504,504,504,504,504,504,504,504,504,504,504,504,504,504,504,504,504,504,504,504,504,504,504,504,504,504,504,504,504,504,504,504,504,504,504,504,504,504,504,504,504,504,504,504,504,504,504,504,504,504,504,504,504,504,504,504,500,493,485,477,472,463,462,452,442,430,408,396,383,373,368,367,367,367,367,367,367,367,367,367,367,367,367,367,367,358,353,349,344,341,339,315,288,263,241,216,212,210,209,206,203,201,201,199,194,176,165,156,145,130,109,39,5,5,5,5,5,5,5,5,5,5,5,5,5,5,5,5,5,2],"timestamp_mouse":[10,33,51,70,90,110,130,150,171,192,210,231,251,271,290,310,330,351,371,390,412,430,450,470,492,511,531,550,570,590,610,631,650,670,691,710,730,750,771,791,810,830,851,870,891,912,930,950,971,990,1010,1030,1050,1070,1091,1110,1131,1150,1170,1192,1210,1230,1250,1270,1291,1311,1330,1351,1370,1390,1410,1430,1451,1471,1491,1511,1530,1551,1571,1591,1611,1632,1651,1671,1691,1711,1730,1751,1771,1791,1810,1830,1851,1871,1890,1911,1930,1950,1971,1991,2010,2031,2051,2071,2091,2110,2131,2150,2171,2190,2210,2231,2250,2271,2290,2312,2330,2350,2370,2391,2412,2430,2452,2471,2490,2511,2530,2550,2570,2591,2612,2630,2650,2671,2691,2711,2730,2750,2771,2790,2812,2830,2852,2870,2891,2910,2931,2951,2970,2991,3012,3031,3051,3070,3091,3110,3130,3151,3171,3191,3211,3230,3250,3271,3291],"xSR":741.5,"ySR":469.95,"xT1":424.9,"yT1":0,"xT2":1058.1,"yT2":0,"toosoon":0,"cond_shown":"Incongruent","ratio_trial":200,"L_num":4,"L_den":6,"R_num":14,"R_den":30,"correct_side":1,"subjID":"PaulaPerilla3","gender":"1","age":"12","school":"6","test":{"fix_dur":[250,1500],"timestim":1000,"targets_dim":[100,100],"targets_relative_coord":[0.3,0.7],"size_stim":[880,420],"start_dim":[100,100],"size_start":[300,300],"size_fix":60,"samplingrate":20,"img_types":["Congruent","Incongruent"],"ratios":[100,200,300],"rep_conds":19,"nTrials":120,"trials_to_rest":500,"Trials_order":[51,33,61,48,64,106,29,31,18,77,6,8,63,2,9,39,44,42,22,35,100,52,27,110,58,59,113,24,4,111,105,46,0,90,101,38,107,1,70,95,36,13,112,3,78,56,71,69,32,60,89,103,12,16,28,65,119,66,85,83,93,25,49,97,47,26,87,7,102,5,30,10,20,104,82,115,96,53,91,79,94,98,57,40,37,17,68,14,67,81,118,54,108,74,45,11,62,34,76,43,50,21,109,117,55,72,114,80,75,84,15,41,116,92,73,19,86,23,88,99],"cond_shown":["Incongruent","Incongruent","Incongruent","Congruent","Congruent","Congruent","Incongruent","Incongruent","Congruent","Incongruent","Congruent","Congruent","Incongruent","Congruent","Incongruent","Incongruent","Congruent","Congruent","Congruent","Incongruent","Congruent","Congruent","Incongruent","Congruent","Congruent","Incongruent","Incongruent","Congruent","Congruent","Incongruent","Incongruent","Congruent","Congruent","Congruent","Incongruent","Congruent","Incongruent","Incongruent","Congruent","Incongruent","Congruent","Incongruent","Congruent","Incongruent","Congruent","Congruent","Incongruent","Incongruent","Congruent","Congruent","Incongruent","Incongruent","Congruent","Congruent","Congruent","Incongruent","Incongruent","Congruent","Incongruent","Incongruent","Incongruent","Incongruent","Incongruent","Incongruent","Incongruent","Congruent","Incongruent","Incongruent","Congruent","Incongruent","Congruent","Congruent","Congruent","Congruent","Congruent","Incongruent","Congruent","Incongruent","Incongruent","Incongruent","Congruent","Congruent","Incongruent","Congruent","Incongruent","Incongruent","Congruent","Congruent","Incongruent","Incongruent","Congruent","Congruent","Congruent","Congruent","Incongruent","Incongruent","Congruent","Congruent","Congruent","Incongruent","Congruent","Incongruent","Incongruent","Incongruent","Incongruent","Congruent","Congruent","Congruent","Incongruent","Congruent","Incongruent","Incongruent","Congruent","Congruent","Incongruent","Incongruent","Congruent","Incongruent","Congruent","Incongruent"],"ratio_trial":[200,200,100,100,300,300,300,100,100,300,100,200,200,200,200,200,200,100,300,300,300,300,200,200,300,300,300,100,300,200,200,300,100,100,300,200,300,100,300,300,100,100,300,200,100,200,300,200,200,100,300,100,100,300,300,300,300,100,100,300,200,100,100,100,300,200,200,100,100,300,100,300,200,200,300,100,100,300,100,100,300,200,200,300,100,300,200,200,100,200,300,100,100,200,200,300,200,300,300,100,200,200,100,200,100,100,100,200,200,100,200,300,200,200,100,100,200,300,300,200],"left_num":[4,11,3,11,1,5,13,2,12,8,11,3,4,8,11,3,7,11,8,13,8,1,6,9,20,4,4,6,11,1,7,4,4,7,8,7,13,6,1,13,12,9,4,9,8,8,4,4,3,2,4,8,1,11,20,13,4,1,6,13,7,3,3,12,2,14,7,10,11,4,1,24,8,12,20,9,6,4,17,12,9,6,9,12,4,2,3,3,4,7,5,6,1,3,4,8,12,3,20,10,3,7,2,4,2,4,1,11,4,3,11,8,3,3,6,9,1,8,20,1],"right_num":[14,3,8,4,19,7,12,6,13,9,6,11,6,7,3,11,2,6,1,12,10,8,3,13,9,2,2,15,1,2,12,1,6,15,14,2,12,13,3,12,13,20,1,8,2,7,2,14,14,6,2,6,18,1,8,12,8,18,3,12,12,4,11,2,6,6,14,9,6,2,18,8,3,6,14,14,15,2,10,2,3,11,8,2,8,6,14,9,8,8,7,5,3,7,14,9,6,4,8,8,14,14,8,1,6,15,18,3,6,2,3,14,7,14,13,6,21,9,13,3],"left_den":[6,20,5,22,3,25,26,4,30,10,22,10,5,15,20,4,21,22,16,26,15,30,20,30,25,20,20,12,22,3,10,10,8,14,10,21,26,10,5,26,30,10,10,15,16,15,20,6,6,5,20,16,2,22,25,26,5,2,12,26,10,6,5,30,4,28,10,25,22,20,2,30,15,15,25,15,12,20,30,30,10,20,15,24,8,4,10,12,8,10,25,20,2,10,6,10,20,6,25,25,6,10,4,30,4,10,2,22,5,6,20,10,10,10,10,18,2,10,25,2],"right_den":[30,4,16,10,30,14,15,15,26,18,15,22,10,21,4,20,15,15,5,15,12,24,6,26,18,4,4,25,5,15,24,10,10,25,28,15,15,26,6,15,26,25,10,10,5,21,4,30,20,12,4,10,30,5,16,15,16,30,5,15,24,10,22,4,30,20,28,18,15,4,30,16,9,10,28,28,25,4,15,4,5,22,10,10,20,30,28,20,20,16,14,25,5,14,30,18,15,5,16,16,20,28,20,3,15,30,30,10,10,5,4,28,14,28,26,10,30,18,26,10],"correct_side":[1,2,1,1,2,2,2,1,2,1,1,2,1,1,2,1,1,1,1,2,2,2,2,2,1,2,2,2,1,1,1,1,2,2,1,1,2,1,2,2,2,1,1,2,1,1,2,1,2,2,2,2,2,1,1,2,1,2,2,2,1,1,1,2,1,1,1,2,1,2,2,1,1,1,1,1,2,2,2,2,1,2,2,1,1,1,2,2,1,1,2,1,2,2,1,1,1,2,1,2,2,1,1,2,1,2,2,1,1,1,2,1,2,2,1,2,2,1,1,1],"img_shown":["img2/200/Incongruent/L/I_Dist_200_LN_4_LD_6_RN_14_RD_30_0.png","img2/200/Incongruent/R/I_Dist_200_LN_11_LD_20_RN_3_RD_4_1.png","img2/100/Incongruent/L/I_Dist_100_LN_3_LD_5_RN_8_RD_16_0.png","img2/100/Congruent/L/C_Dist_100_LN_11_LD_22_RN_4_RD_10_0.png","img2/300/Congruent/R/C_Dist_300_LN_1_LD_3_RN_19_RD_30_1.png","img2/300/Congruent/R/C_Dist_300_LN_5_LD_25_RN_7_RD_14_1.png","img2/300/Incongruent/R/I_Dist_300_LN_13_LD_26_RN_12_RD_15_1.png","img2/100/Incongruent/L/I_Dist_100_LN_2_LD_4_RN_6_RD_15_0.png","img2/100/Congruent/R/C_Dist_100_LN_12_LD_30_RN_13_RD_26_1.png","img2/300/Incongruent/L/I_Dist_300_LN_8_LD_10_RN_9_RD_18_0.png","img2/100/Congruent/L/C_Dist_100_LN_11_LD_22_RN_6_RD_15_0.png","img2/200/Congruent/R/C_Dist_200_LN_3_LD_10_RN_11_RD_22_1.png","img2/200/Incongruent/L/I_Dist_200_LN_4_LD_5_RN_6_RD_10_0.png","img2/200/Congruent/L/C_Dist_200_LN_8_LD_15_RN_7_RD_21_0.png","img2/200/Incongruent/R/I_Dist_200_LN_11_LD_20_RN_3_RD_4_1.png","img2/200/Incongruent/L/I_Dist_200_LN_3_LD_4_RN_11_RD_20_0.png","img2/200/Congruent/L/C_Dist_200_LN_7_LD_21_RN_2_RD_15_0.png","img2/100/Congruent/L/C_Dist_100_LN_11_LD_22_RN_6_RD_15_0.png","img2/300/Congruent/L/C_Dist_300_LN_8_LD_16_RN_1_RD_5_0.png","img2/300/Incongruent/R/I_Dist_300_LN_13_LD_26_RN_12_RD_15_1.png","img2/300/Congruent/R/C_Dist_300_LN_8_LD_15_RN_10_RD_12_1.png","img2/300/Congruent/R/C_Dist_300_LN_1_LD_30_RN_8_RD_24_1.png","img2/200/Incongruent/R/I_Dist_200_LN_6_LD_20_RN_3_RD_6_1.png","img2/200/Congruent/R/C_Dist_200_LN_9_LD_30_RN_13_RD_26_1.png","img2/300/Congruent/L/C_Dist_300_LN_20_LD_25_RN_9_RD_18_0.png","img2/300/Incongruent/R/I_Dist_300_LN_4_LD_20_RN_2_RD_4_1.png","img2/300/Incongruent/R/I_Dist_300_LN_4_LD_20_RN_2_RD_4_1.png","img2/100/Congruent/R/C_Dist_100_LN_6_LD_12_RN_15_RD_25_1.png","img2/300/Congruent/L/C_Dist_300_LN_11_LD_22_RN_1_RD_5_0.png","img2/200/Incongruent/L/I_Dist_200_LN_1_LD_3_RN_2_RD_15_0.png","img2/200/Incongruent/L/I_Dist_200_LN_7_LD_10_RN_12_RD_24_0.png","img2/300/Congruent/L/C_Dist_300_LN_4_LD_10_RN_1_RD_10_0.png","img2/100/Congruent/R/C_Dist_100_LN_4_LD_8_RN_6_RD_10_1.png","img2/100/Congruent/R/C_Dist_100_LN_7_LD_14_RN_15_RD_25_1.png","img2/300/Incongruent/L/I_Dist_300_LN_8_LD_10_RN_14_RD_28_0.png","img2/200/Congruent/L/C_Dist_200_LN_7_LD_21_RN_2_RD_15_0.png","img2/300/Incongruent/R/I_Dist_300_LN_13_LD_26_RN_12_RD_15_1.png","img2/100/Incongruent/L/I_Dist_100_LN_6_LD_10_RN_13_RD_26_0.png","img2/300/Congruent/R/C_Dist_300_LN_1_LD_5_RN_3_RD_6_1.png","img2/300/Incongruent/R/I_Dist_300_LN_13_LD_26_RN_12_RD_15_1.png","img2/100/Congruent/R/C_Dist_100_LN_12_LD_30_RN_13_RD_26_1.png","img2/100/Incongruent/L/I_Dist_100_LN_9_LD_10_RN_20_RD_25_0.png","img2/300/Congruent/L/C_Dist_300_LN_4_LD_10_RN_1_RD_10_0.png","img2/200/Incongruent/R/I_Dist_200_LN_9_LD_15_RN_8_RD_10_1.png","img2/100/Congruent/L/C_Dist_100_LN_8_LD_16_RN_2_RD_5_0.png","img2/200/Congruent/L/C_Dist_200_LN_8_LD_15_RN_7_RD_21_0.png","img2/300/Incongruent/R/I_Dist_300_LN_4_LD_20_RN_2_RD_4_1.png","img2/200/Incongruent/L/I_Dist_200_LN_4_LD_6_RN_14_RD_30_0.png","img2/200/Congruent/R/C_Dist_200_LN_3_LD_6_RN_14_RD_20_1.png","img2/100/Congruent/R/C_Dist_100_LN_2_LD_5_RN_6_RD_12_1.png","img2/300/Incongruent/R/I_Dist_300_LN_4_LD_20_RN_2_RD_4_1.png","img2/100/Incongruent/R/I_Dist_100_LN_8_LD_16_RN_6_RD_10_1.png","img2/100/Congruent/R/C_Dist_100_LN_1_LD_2_RN_18_RD_30_1.png","img2/300/Congruent/L/C_Dist_300_LN_11_LD_22_RN_1_RD_5_0.png","img2/300/Congruent/L/C_Dist_300_LN_20_LD_25_RN_8_RD_16_0.png","img2/300/Incongruent/R/I_Dist_300_LN_13_LD_26_RN_12_RD_15_1.png","img2/300/Incongruent/L/I_Dist_300_LN_4_LD_5_RN_8_RD_16_0.png","img2/100/Congruent/R/C_Dist_100_LN_1_LD_2_RN_18_RD_30_1.png","img2/100/Incongruent/R/I_Dist_100_LN_6_LD_12_RN_3_RD_5_1.png","img2/300/Incongruent/R/I_Dist_300_LN_13_LD_26_RN_12_RD_15_1.png","img2/200/Incongruent/L/I_Dist_200_LN_7_LD_10_RN_12_RD_24_0.png","img2/100/Incongruent/L/I_Dist_100_LN_3_LD_6_RN_4_RD_10_0.png","img2/100/Incongruent/L/I_Dist_100_LN_3_LD_5_RN_11_RD_22_0.png","img2/100/Incongruent/R/I_Dist_100_LN_12_LD_30_RN_2_RD_4_1.png","img2/300/Incongruent/L/I_Dist_300_LN_2_LD_4_RN_6_RD_30_0.png","img2/200/Congruent/L/C_Dist_200_LN_14_LD_28_RN_6_RD_20_0.png","img2/200/Incongruent/L/I_Dist_200_LN_7_LD_10_RN_14_RD_28_0.png","img2/100/Incongruent/R/I_Dist_100_LN_10_LD_25_RN_9_RD_18_1.png","img2/100/Congruent/L/C_Dist_100_LN_11_LD_22_RN_6_RD_15_0.png","img2/300/Incongruent/R/I_Dist_300_LN_4_LD_20_RN_2_RD_4_1.png","img2/100/Congruent/R/C_Dist_100_LN_1_LD_2_RN_18_RD_30_1.png","img2/300/Congruent/L/C_Dist_300_LN_24_LD_30_RN_8_RD_16_0.png","img2/200/Congruent/L/C_Dist_200_LN_8_LD_15_RN_3_RD_9_0.png","img2/200/Congruent/L/C_Dist_200_LN_12_LD_15_RN_6_RD_10_0.png","img2/300/Congruent/L/C_Dist_300_LN_20_LD_25_RN_14_RD_28_0.png","img2/100/Incongruent/L/I_Dist_100_LN_9_LD_15_RN_14_RD_28_0.png","img2/100/Congruent/R/C_Dist_100_LN_6_LD_12_RN_15_RD_25_1.png","img2/300/Incongruent/R/I_Dist_300_LN_4_LD_20_RN_2_RD_4_1.png","img2/100/Incongruent/R/I_Dist_100_LN_17_LD_30_RN_10_RD_15_1.png","img2/100/Incongruent/R/I_Dist_100_LN_12_LD_30_RN_2_RD_4_1.png","img2/300/Congruent/L/C_Dist_300_LN_9_LD_10_RN_3_RD_5_0.png","img2/200/Congruent/R/C_Dist_200_LN_6_LD_20_RN_11_RD_22_1.png","img2/200/Incongruent/R/I_Dist_200_LN_9_LD_15_RN_8_RD_10_1.png","img2/300/Congruent/L/C_Dist_300_LN_12_LD_24_RN_2_RD_10_0.png","img2/100/Incongruent/L/I_Dist_100_LN_4_LD_8_RN_8_RD_20_0.png","img2/300/Incongruent/L/I_Dist_300_LN_2_LD_4_RN_6_RD_30_0.png","img2/200/Congruent/R/C_Dist_200_LN_3_LD_10_RN_14_RD_28_1.png","img2/200/Congruent/R/C_Dist_200_LN_3_LD_12_RN_9_RD_20_1.png","img2/100/Incongruent/L/I_Dist_100_LN_4_LD_8_RN_8_RD_20_0.png","img2/200/Incongruent/L/I_Dist_200_LN_7_LD_10_RN_8_RD_16_0.png","img2/300/Congruent/R/C_Dist_300_LN_5_LD_25_RN_7_RD_14_1.png","img2/100/Congruent/L/C_Dist_100_LN_6_LD_20_RN_5_RD_25_0.png","img2/100/Congruent/R/C_Dist_100_LN_1_LD_2_RN_3_RD_5_1.png","img2/200/Congruent/R/C_Dist_200_LN_3_LD_10_RN_7_RD_14_1.png","img2/200/Incongruent/L/I_Dist_200_LN_4_LD_6_RN_14_RD_30_0.png","img2/300/Incongruent/L/I_Dist_300_LN_8_LD_10_RN_9_RD_18_0.png","img2/200/Congruent/L/C_Dist_200_LN_12_LD_20_RN_6_RD_15_0.png","img2/300/Congruent/R/C_Dist_300_LN_3_LD_6_RN_4_RD_5_1.png","img2/300/Congruent/L/C_Dist_300_LN_20_LD_25_RN_8_RD_16_0.png","img2/100/Incongruent/R/I_Dist_100_LN_10_LD_25_RN_8_RD_16_1.png","img2/200/Congruent/R/C_Dist_200_LN_3_LD_6_RN_14_RD_20_1.png","img2/200/Incongruent/L/I_Dist_200_LN_7_LD_10_RN_14_RD_28_0.png","img2/100/Incongruent/L/I_Dist_100_LN_2_LD_4_RN_8_RD_20_0.png","img2/200/Incongruent/R/I_Dist_200_LN_4_LD_30_RN_1_RD_3_1.png","img2/100/Incongruent/L/I_Dist_100_LN_2_LD_4_RN_6_RD_15_0.png","img2/100/Congruent/R/C_Dist_100_LN_4_LD_10_RN_15_RD_30_1.png","img2/100/Congruent/R/C_Dist_100_LN_1_LD_2_RN_18_RD_30_1.png","img2/200/Congruent/L/C_Dist_200_LN_11_LD_22_RN_3_RD_10_0.png","img2/200/Incongruent/L/I_Dist_200_LN_4_LD_5_RN_6_RD_10_0.png","img2/100/Congruent/L/C_Dist_100_LN_3_LD_6_RN_2_RD_5_0.png","img2/200/Incongruent/R/I_Dist_200_LN_11_LD_20_RN_3_RD_4_1.png","img2/300/Incongruent/L/I_Dist_300_LN_8_LD_10_RN_14_RD_28_0.png","img2/200/Congruent/R/C_Dist_200_LN_3_LD_10_RN_7_RD_14_1.png","img2/200/Congruent/R/C_Dist_200_LN_3_LD_10_RN_14_RD_28_1.png","img2/100/Incongruent/L/I_Dist_100_LN_6_LD_10_RN_13_RD_26_0.png","img2/100/Incongruent/R/I_Dist_100_LN_9_LD_18_RN_6_RD_10_1.png","img2/200/Congruent/R/C_Dist_200_LN_1_LD_2_RN_21_RD_30_1.png","img2/300/Incongruent/L/I_Dist_300_LN_8_LD_10_RN_9_RD_18_0.png","img2/300/Congruent/L/C_Dist_300_LN_20_LD_25_RN_13_RD_26_0.png","img2/200/Incongruent/L/I_Dist_200_LN_1_LD_2_RN_3_RD_10_0.png"],"dist100_C":[["C_Dist_100_LN_10_LD_25_RN_3_RD_10_0.png","C_Dist_100_LN_11_LD_22_RN_4_RD_10_0.png","C_Dist_100_LN_11_LD_22_RN_6_RD_15_0.png","C_Dist_100_LN_15_LD_25_RN_13_RD_26_0.png","C_Dist_100_LN_3_LD_6_RN_2_RD_5_0.png","C_Dist_100_LN_6_LD_20_RN_5_RD_25_0.png","C_Dist_100_LN_8_LD_16_RN_2_RD_5_0.png","C_Dist_100_LN_9_LD_15_RN_8_RD_16_0.png"],["C_Dist_100_LN_1_LD_2_RN_18_RD_30_1.png","C_Dist_100_LN_1_LD_2_RN_3_RD_5_1.png","C_Dist_100_LN_12_LD_30_RN_13_RD_26_1.png","C_Dist_100_LN_2_LD_5_RN_11_RD_22_1.png","C_Dist_100_LN_2_LD_5_RN_6_RD_12_1.png","C_Dist_100_LN_3_LD_20_RN_4_RD_16_1.png","C_Dist_100_LN_4_LD_10_RN_15_RD_30_1.png","C_Dist_100_LN_4_LD_8_RN_6_RD_10_1.png","C_Dist_100_LN_6_LD_12_RN_15_RD_25_1.png","C_Dist_100_LN_7_LD_14_RN_15_RD_25_1.png","C_Dist_100_LN_7_LD_14_RN_9_RD_15_1.png"]],"dist100_I":[["I_Dist_100_LN_1_LD_2_RN_8_RD_20_0.png","I_Dist_100_LN_2_LD_4_RN_6_RD_15_0.png","I_Dist_100_LN_2_LD_4_RN_8_RD_20_0.png","I_Dist_100_LN_3_LD_5_RN_11_RD_22_0.png","I_Dist_100_LN_3_LD_5_RN_8_RD_16_0.png","I_Dist_100_LN_3_LD_6_RN_4_RD_10_0.png","I_Dist_100_LN_3_LD_9_RN_7_RD_30_0.png","I_Dist_100_LN_4_LD_8_RN_8_RD_20_0.png","I_Dist_100_LN_6_LD_10_RN_11_RD_22_0.png","I_Dist_100_LN_6_LD_10_RN_13_RD_26_0.png","I_Dist_100_LN_6_LD_10_RN_7_RD_14_0.png","I_Dist_100_LN_9_LD_10_RN_20_RD_25_0.png","I_Dist_100_LN_9_LD_15_RN_13_RD_26_0.png","I_Dist_100_LN_9_LD_15_RN_14_RD_28_0.png"],["I_Dist_100_LN_10_LD_25_RN_8_RD_16_1.png","I_Dist_100_LN_10_LD_25_RN_9_RD_18_1.png","I_Dist_100_LN_11_LD_22_RN_9_RD_15_1.png","I_Dist_100_LN_12_LD_24_RN_9_RD_15_1.png","I_Dist_100_LN_12_LD_30_RN_2_RD_4_1.png","I_Dist_100_LN_13_LD_26_RN_12_RD_20_1.png","I_Dist_100_LN_13_LD_26_RN_6_RD_10_1.png","I_Dist_100_LN_17_LD_30_RN_10_RD_15_1.png","I_Dist_100_LN_6_LD_12_RN_3_RD_5_1.png","I_Dist_100_LN_8_LD_16_RN_6_RD_10_1.png","I_Dist_100_LN_8_LD_20_RN_1_RD_2_1.png","I_Dist_100_LN_9_LD_18_RN_6_RD_10_1.png"]],"dist100_S":[["E_Dist_100_LN_2_LD_12_RN_2_RD_30_0.png","E_Dist_100_LN_6_LD_10_RN_6_RD_12_0.png"],["E_Dist_100_LN_6_LD_12_RN_6_RD_10_1.png"]],"dist200_C":[["C_Dist_200_LN_11_LD_22_RN_3_RD_10_0.png","C_Dist_200_LN_12_LD_15_RN_6_RD_10_0.png","C_Dist_200_LN_12_LD_20_RN_6_RD_15_0.png","C_Dist_200_LN_14_LD_28_RN_6_RD_20_0.png","C_Dist_200_LN_15_LD_25_RN_4_RD_10_0.png","C_Dist_200_LN_16_LD_20_RN_12_RD_20_0.png","C_Dist_200_LN_16_LD_30_RN_9_RD_27_0.png","C_Dist_200_LN_20_LD_25_RN_9_RD_15_0.png","C_Dist_200_LN_21_LD_30_RN_2_RD_4_0.png","C_Dist_200_LN_4_LD_10_RN_3_RD_15_0.png","C_Dist_200_LN_4_LD_8_RN_3_RD_10_0.png","C_Dist_200_LN_6_LD_15_RN_3_RD_15_0.png","C_Dist_200_LN_7_LD_21_RN_2_RD_15_0.png","C_Dist_200_LN_8_LD_15_RN_2_RD_6_0.png","C_Dist_200_LN_8_LD_15_RN_3_RD_9_0.png","C_Dist_200_LN_8_LD_15_RN_7_RD_21_0.png","C_Dist_200_LN_9_LD_20_RN_4_RD_16_0.png"],["C_Dist_200_LN_1_LD_2_RN_21_RD_30_1.png","C_Dist_200_LN_13_LD_26_RN_14_RD_20_1.png","C_Dist_200_LN_3_LD_10_RN_11_RD_22_1.png","C_Dist_200_LN_3_LD_10_RN_14_RD_28_1.png","C_Dist_200_LN_3_LD_10_RN_7_RD_14_1.png","C_Dist_200_LN_3_LD_12_RN_9_RD_20_1.png","C_Dist_200_LN_3_LD_6_RN_14_RD_20_1.png","C_Dist_200_LN_5_LD_10_RN_14_RD_20_1.png","C_Dist_200_LN_6_LD_12_RN_7_RD_10_1.png","C_Dist_200_LN_6_LD_20_RN_11_RD_22_1.png","C_Dist_200_LN_7_LD_15_RN_18_RD_27_1.png","C_Dist_200_LN_9_LD_30_RN_13_RD_26_1.png"]],"dist200_I":[["I_Dist_200_LN_1_LD_2_RN_3_RD_10_0.png","I_Dist_200_LN_1_LD_3_RN_2_RD_15_0.png","I_Dist_200_LN_3_LD_4_RN_11_RD_20_0.png","I_Dist_200_LN_4_LD_5_RN_6_RD_10_0.png","I_Dist_200_LN_4_LD_6_RN_14_RD_30_0.png","I_Dist_200_LN_7_LD_10_RN_12_RD_24_0.png","I_Dist_200_LN_7_LD_10_RN_14_RD_28_0.png","I_Dist_200_LN_7_LD_10_RN_8_RD_16_0.png"],["I_Dist_200_LN_11_LD_20_RN_3_RD_4_1.png","I_Dist_200_LN_14_LD_30_RN_12_RD_18_1.png","I_Dist_200_LN_14_LD_30_RN_6_RD_9_1.png","I_Dist_200_LN_3_LD_10_RN_1_RD_2_1.png","I_Dist_200_LN_4_LD_30_RN_1_RD_3_1.png","I_Dist_200_LN_6_LD_20_RN_3_RD_6_1.png","I_Dist_200_LN_7_LD_15_RN_4_RD_6_1.png","I_Dist_200_LN_7_LD_15_RN_6_RD_9_1.png","I_Dist_200_LN_9_LD_15_RN_8_RD_10_1.png"]],"dist200_S":[["E_Dist_200_LN_3_LD_6_RN_3_RD_10_0.png"],["E_Dist_200_LN_3_LD_10_RN_3_RD_6_1.png"]],"dist300_C":[["C_Dist_300_LN_11_LD_22_RN_1_RD_5_0.png","C_Dist_300_LN_11_LD_22_RN_2_RD_10_0.png","C_Dist_300_LN_11_LD_22_RN_4_RD_20_0.png","C_Dist_300_LN_12_LD_24_RN_2_RD_10_0.png","C_Dist_300_LN_18_LD_20_RN_9_RD_15_0.png","C_Dist_300_LN_20_LD_25_RN_13_RD_26_0.png","C_Dist_300_LN_20_LD_25_RN_14_RD_28_0.png","C_Dist_300_LN_20_LD_25_RN_5_RD_10_0.png","C_Dist_300_LN_20_LD_25_RN_8_RD_16_0.png","C_Dist_300_LN_20_LD_25_RN_9_RD_18_0.png","C_Dist_300_LN_24_LD_30_RN_2_RD_4_0.png","C_Dist_300_LN_24_LD_30_RN_8_RD_16_0.png","C_Dist_300_LN_3_LD_6_RN_2_RD_10_0.png","C_Dist_300_LN_4_LD_10_RN_1_RD_10_0.png","C_Dist_300_LN_4_LD_5_RN_2_RD_4_0.png","C_Dist_300_LN_8_LD_16_RN_1_RD_5_0.png","C_Dist_300_LN_9_LD_10_RN_3_RD_5_0.png"],["C_Dist_300_LN_1_LD_20_RN_7_RD_20_1.png","C_Dist_300_LN_1_LD_3_RN_19_RD_30_1.png","C_Dist_300_LN_1_LD_30_RN_8_RD_24_1.png","C_Dist_300_LN_1_LD_5_RN_11_RD_22_1.png","C_Dist_300_LN_1_LD_5_RN_3_RD_6_1.png","C_Dist_300_LN_1_LD_5_RN_6_RD_12_1.png","C_Dist_300_LN_2_LD_10_RN_12_RD_24_1.png","C_Dist_300_LN_2_LD_20_RN_10_RD_25_1.png","C_Dist_300_LN_3_LD_12_RN_11_RD_20_1.png","C_Dist_300_LN_3_LD_6_RN_4_RD_5_1.png","C_Dist_300_LN_4_LD_20_RN_13_RD_26_1.png","C_Dist_300_LN_5_LD_25_RN_6_RD_12_1.png","C_Dist_300_LN_5_LD_25_RN_7_RD_14_1.png","C_Dist_300_LN_7_LD_14_RN_20_RD_25_1.png","C_Dist_300_LN_8_LD_15_RN_10_RD_12_1.png"]],"dist300_I":[["I_Dist_300_LN_1_LD_2_RN_2_RD_10_0.png","I_Dist_300_LN_1_LD_2_RN_3_RD_15_0.png","I_Dist_300_LN_2_LD_4_RN_6_RD_30_0.png","I_Dist_300_LN_3_LD_6_RN_4_RD_20_0.png","I_Dist_300_LN_4_LD_5_RN_6_RD_12_0.png","I_Dist_300_LN_4_LD_5_RN_8_RD_16_0.png","I_Dist_300_LN_7_LD_10_RN_8_RD_20_0.png","I_Dist_300_LN_8_LD_10_RN_14_RD_28_0.png","I_Dist_300_LN_8_LD_10_RN_9_RD_18_0.png"],["I_Dist_300_LN_13_LD_26_RN_12_RD_15_1.png","I_Dist_300_LN_4_LD_20_RN_2_RD_4_1.png"]],"dist300_S":[["E_Dist_300_LN_9_LD_12_RN_9_RD_20_0.png"],["E_Dist_300_LN_18_LD_30_RN_18_RD_20_1.png","E_Dist_300_LN_3_LD_10_RN_3_RD_5_1.png","E_Dist_300_LN_9_LD_20_RN_9_RD_12_1.png"]],"dist500_C":[["C_Dist_500_LN_10_LD_13_RN_7_RD_26_0.png","C_Dist_500_LN_10_LD_15_RN_4_RD_24_0.png","C_Dist_500_LN_12_LD_16_RN_3_RD_12_0.png","C_Dist_500_LN_12_LD_18_RN_4_RD_24_0.png","C_Dist_500_LN_15_LD_18_RN_5_RD_15_0.png","C_Dist_500_LN_15_LD_20_RN_1_RD_4_0.png","C_Dist_500_LN_18_LD_27_RN_1_RD_6_0.png","C_Dist_500_LN_20_LD_24_RN_1_RD_3_0.png","C_Dist_500_LN_20_LD_24_RN_3_RD_9_0.png","C_Dist_500_LN_20_LD_24_RN_7_RD_21_0.png","C_Dist_500_LN_20_LD_28_RN_3_RD_14_0.png","C_Dist_500_LN_21_LD_28_RN_6_RD_24_0.png","C_Dist_500_LN_22_LD_28_RN_2_RD_7_0.png","C_Dist_500_LN_25_LD_30_RN_9_RD_27_0.png","C_Dist_500_LN_4_LD_6_RN_1_RD_6_0.png","C_Dist_500_LN_5_LD_6_RN_2_RD_6_0.png","C_Dist_500_LN_6_LD_9_RN_1_RD_6_0.png","C_Dist_500_LN_7_LD_10_RN_1_RD_5_0.png","C_Dist_500_LN_8_LD_12_RN_1_RD_6_0.png","C_Dist_500_LN_8_LD_12_RN_4_RD_24_0.png"],["C_Dist_500_LN_1_LD_4_RN_12_RD_16_1.png","C_Dist_500_LN_1_LD_4_RN_9_RD_12_1.png","C_Dist_500_LN_1_LD_9_RN_11_RD_18_1.png","C_Dist_500_LN_10_LD_24_RN_22_RD_24_1.png","C_Dist_500_LN_2_LD_12_RN_10_RD_15_1.png","C_Dist_500_LN_2_LD_12_RN_12_RD_18_1.png","C_Dist_500_LN_2_LD_12_RN_4_RD_6_1.png","C_Dist_500_LN_2_LD_24_RN_7_RD_12_1.png","C_Dist_500_LN_2_LD_5_RN_18_RD_20_1.png","C_Dist_500_LN_2_LD_5_RN_9_RD_10_1.png","C_Dist_500_LN_2_LD_8_RN_12_RD_16_1.png","C_Dist_500_LN_2_LD_8_RN_21_RD_28_1.png","C_Dist_500_LN_3_LD_10_RN_4_RD_5_1.png","C_Dist_500_LN_3_LD_12_RN_15_RD_20_1.png","C_Dist_500_LN_3_LD_30_RN_6_RD_10_1.png","C_Dist_500_LN_3_LD_8_RN_14_RD_16_1.png","C_Dist_500_LN_4_LD_16_RN_15_RD_20_1.png","C_Dist_500_LN_4_LD_24_RN_12_RD_18_1.png","C_Dist_500_LN_5_LD_14_RN_6_RD_7_1.png","C_Dist_500_LN_7_LD_21_RN_20_RD_24_1.png","C_Dist_500_LN_7_LD_28_RN_12_RD_16_1.png","C_Dist_500_LN_7_LD_28_RN_9_RD_12_1.png","C_Dist_500_LN_9_LD_27_RN_20_RD_24_1.png"]],"dist500_I":[["I_Dist_500_LN_2_LD_3_RN_4_RD_24_0.png","I_Dist_500_LN_5_LD_6_RN_6_RD_18_0.png","I_Dist_500_LN_7_LD_8_RN_9_RD_24_0.png"],["I_Dist_500_LN_7_LD_21_RN_5_RD_6_1.png"]],"dist500_S":[["E_Dist_500_LN_6_LD_8_RN_6_RD_24_0.png"],["E_Dist_500_LN_2_LD_12_RN_2_RD_3_1.png","E_Dist_500_LN_6_LD_24_RN_6_RD_8_1.png"]]}},{"start_time":1551899635332,"click_time":1551899637374,"finger_time":1551899636873,"fix_duration":997.4359035701164,"trial":1,"RT":1541,"MT":501,"sideResp":2,"stimulus":[],"xmouse":[793,793,793,793,793,793,793,793,793,793,793,793,793,793,793,793,793,793,793,793,793,793,793,793,793,793,793,793,793,793,793,793,793,793,793,793,793,793,793,793,793,793,793,793,793,793,793,793,793,793,793,793,793,793,793,793,793,793,793,793,793,793,793,793,793,793,793,793,793,793,793,793,793,793,793,797,822,868,889,910,929,950,1021,1074,1102,1117,1139,1145,1148,1150,1150,1152,1156,1158,1159,1159,1159,1159,1159,1159,1159,1154,1150],"ymouse":[520,520,520,520,520,520,520,520,520,520,520,520,520,520,520,520,520,520,520,520,520,520,520,520,520,520,520,520,520,520,520,520,520,520,520,520,520,520,520,520,520,520,520,520,520,520,520,520,520,520,520,520,520,520,520,520,520,520,520,520,520,520,520,520,520,520,520,520,520,520,520,520,520,520,520,519,512,501,496,487,476,462,412,373,354,342,301,286,272,260,252,241,214,200,177,166,156,154,153,149,142,104,79],"timestamp_mouse":[11,22,41,62,82,102,121,141,162,181,202,222,243,261,281,302,321,341,361,382,402,421,441,462,482,502,521,541,562,582,602,623,643,662,681,702,722,741,761,781,802,822,842,862,881,902,922,942,961,981,1001,1022,1041,1062,1082,1101,1121,1142,1161,1182,1202,1221,1241,1261,1282,1302,1322,1341,1363,1382,1402,1421,1441,1462,1482,1503,1521,1541,1562,1581,1602,1622,1641,1661,1681,1701,1722,1741,1762,1782,1801,1822,1841,1862,1882,1902,1923,1941,1962,1982,2003,2024,2041],"xSR":741.5,"ySR":469.95,"xT1":424.9,"yT1":0,"xT2":1058.1,"yT2":0,"toosoon":0,"cond_shown":"Incongruent","ratio_trial":200,"L_num":11,"L_den":20,"R_num":3,"R_den":4,"correct_side":2,"subjID":"PaulaPerilla3","gender":"1","school":"6","age":"12"},{"start_time":1551899639604,"click_time":1551899641614,"finger_time":1551899641053,"fix_duration":1107.1910835835115,"trial":2,"RT":1449,"MT":561,"sideResp":1,"stimulus":[],"xmouse":[797,797,797,797,797,797,797,797,797,797,797,797,797,797,797,797,797,797,797,797,797,797,797,797,797,797,797,797,797,797,797,797,797,797,797,797,797,797,797,797,797,797,797,797,797,797,797,797,797,797,797,797,797,797,797,797,797,797,797,797,797,797,797,797,797,797,797,797,797,797,795,793,787,764,750,742,736,732,727,724,714,706,688,680,676,676,676,674,667,659,653,649,647,633,623,613,605,576,556,527,490],"ymouse":[516,516,516,516,516,516,516,516,516,516,516,516,516,516,516,516,516,516,516,516,516,516,516,516,516,516,516,516,516,516,516,516,516,516,516,516,516,516,516,516,516,516,516,516,516,516,516,516,516,516,516,516,516,516,516,516,516,516,516,516,516,516,516,516,516,516,516,516,516,516,512,495,466,389,355,334,321,313,303,296,277,263,240,231,226,224,224,222,211,199,193,188,186,181,176,171,165,145,132,116,92],"timestamp_mouse":[13,29,62,69,90,111,129,149,170,191,209,230,249,269,290,311,329,349,370,389,409,429,449,469,491,510,529,549,569,589,609,629,649,669,689,710,731,749,769,791,810,829,849,869,890,909,929,949,970,989,1010,1030,1049,1070,1090,1110,1130,1150,1169,1189,1209,1229,1249,1269,1290,1310,1329,1349,1369,1389,1411,1431,1449,1470,1489,1510,1529,1550,1569,1590,1609,1629,1651,1669,1690,1709,1729,1749,1770,1790,1809,1829,1851,1870,1890,1910,1930,1951,1969,1989,2010],"xSR":741.5,"ySR":469.95,"xT1":424.9,"yT1":0,"xT2":1058.1,"yT2":0,"toosoon":0,"cond_shown":"Incongruent","ratio_trial":100,"L_num":3,"L_den":5,"R_num":8,"R_den":16,"correct_side":1,"subjID":"PaulaPerilla3","gender":"1","school":"6","age":"12"},{"start_time":1551899644017,"click_time":1551899645974,"finger_time":1551899645393,"fix_duration":1261.704103282552,"trial":3,"RT":1376,"MT":581,"sideResp":1,"stimulus":[],"xmouse":[785,785,785,785,785,785,785,785,785,785,785,785,785,785,785,785,785,785,785,785,785,785,785,785,785,785,785,785,785,785,785,785,785,785,785,785,785,785,785,785,785,785,785,785,785,785,785,787,787,787,788,788,788,788,788,788,788,788,788,788,788,788,788,788,788,790,792,799,803,808,810,811,814,815,820,820,820,812,800,785,777,772,771,769,759,746,722,707,688,653,633,610,595,582,570,555,529,521],"ymouse":[503,503,503,503,503,503,503,503,503,503,503,503,503,503,503,503,503,503,503,503,503,503,503,503,503,503,503,503,503,503,503,503,503,503,503,503,503,503,503,503,503,503,503,503,503,503,503,490,489,487,486,486,486,486,486,486,486,486,486,486,486,486,486,486,486,481,478,470,466,461,459,456,449,441,416,396,363,296,260,228,217,211,210,210,210,208,195,187,176,157,143,121,108,95,83,70,52,47],"timestamp_mouse":[17,51,56,77,97,116,138,156,177,197,218,237,256,276,297,317,336,358,377,397,417,437,457,478,497,517,537,556,577,597,617,637,658,677,696,717,736,757,777,797,816,837,858,877,897,917,938,957,977,996,1016,1037,1057,1077,1097,1117,1136,1156,1177,1198,1217,1237,1256,1277,1298,1318,1336,1358,1376,1396,1416,1436,1456,1476,1497,1517,1536,1556,1576,1596,1618,1636,1656,1677,1696,1718,1738,1756,1777,1797,1816,1838,1856,1876,1897,1916,1939,1957],"xSR":741.5,"ySR":469.95,"xT1":424.9,"yT1":0,"xT2":1058.1,"yT2":0,"toosoon":0,"cond_shown":"Congruent","ratio_trial":100,"L_num":11,"L_den":22,"R_num":4,"R_den":10,"correct_side":1,"subjID":"PaulaPerilla3","gender":"1","school":"6","age":"12"},{"start_time":1551899647615,"click_time":1551899649013,"finger_time":1551899648355,"fix_duration":620.1989668011985,"trial":4,"RT":740,"MT":658,"sideResp":2,"stimulus":[],"xmouse":[778,778,778,778,778,778,778,778,778,778,778,778,778,778,778,778,778,778,778,778,778,778,778,778,778,780,795,816,822,830,832,832,832,832,837,839,845,856,864,877,888,918,936,964,990,1019,1040,1055,1057,1057,1057,1063,1067,1070,1073,1075,1076,1076,1076,1076,1076,1076,1077,1080,1084,1090,1095,1107,1117,1128],"ymouse":[536,536,536,536,536,536,536,536,536,536,536,536,536,536,536,536,536,536,536,536,536,536,536,536,536,533,524,515,513,509,508,508,508,508,500,498,492,478,470,455,443,406,386,355,323,282,253,232,231,231,231,222,216,209,200,195,192,192,192,192,192,187,184,177,167,154,142,120,108,95],"timestamp_mouse":[19,39,58,79,98,126,138,158,179,199,220,238,259,279,298,319,340,360,379,399,418,438,458,478,498,518,540,559,578,599,618,639,660,678,699,718,739,758,778,799,819,840,858,878,898,920,938,958,978,999,1019,1040,1058,1078,1099,1119,1138,1159,1178,1200,1219,1240,1258,1279,1299,1319,1339,1359,1378,1398],"xSR":741.5,"ySR":469.95,"xT1":424.9,"yT1":0,"xT2":1058.1,"yT2":0,"toosoon":0,"cond_shown":"Congruent","ratio_trial":300,"L_num":1,"L_den":3,"R_num":19,"R_den":30,"correct_side":2,"subjID":"PaulaPerilla3","gender":"1","school":"6","age":"12"},{"start_time":1551899650886,"click_time":1551899652234,"finger_time":1551899651975,"fix_duration":1009.6285474229379,"trial":5,"RT":1089,"MT":259,"sideResp":2,"stimulus":[],"xmouse":[807,807,807,807,807,807,807,807,807,807,807,807,807,807,807,807,807,807,807,807,807,807,807,807,807,807,807,807,807,807,807,807,807,807,807,807,807,807,807,807,807,807,807,807,807,807,807,807,811,821,827,830,833,839,856,871,901,924,956,967,976,983,993,1014,1033,1037,1053,1061],"ymouse":[515,515,515,515,515,515,515,515,515,515,515,515,515,515,515,515,515,515,515,515,515,515,515,515,515,515,515,515,515,515,515,515,515,515,515,515,515,515,515,515,515,515,515,515,515,515,515,515,510,498,491,489,485,480,465,452,422,396,347,329,312,294,265,203,159,146,111,92],"timestamp_mouse":[10,27,47,69,87,107,128,148,169,188,208,227,248,268,287,307,328,349,369,387,407,428,447,469,488,508,528,547,567,587,607,627,647,667,688,707,729,747,768,787,808,827,848,867,888,907,927,948,969,987,1007,1027,1048,1068,1088,1108,1127,1147,1168,1187,1209,1227,1247,1269,1287,1307,1328,1348],"xSR":741.5,"ySR":469.95,"xT1":424.9,"yT1":0,"xT2":1058.1,"yT2":0,"toosoon":0,"cond_shown":"Congruent","ratio_trial":300,"L_num":5,"L_den":25,"R_num":7,"R_den":14,"correct_side":2,"subjID":"PaulaPerilla3","gender":"1","school":"6","age":"12"},{"start_time":1551899653626,"click_time":1551899654874,"finger_time":1551899654314,"fix_duration":250,"trial":6,"RT":688,"MT":560,"sideResp":2,"stimulus":[],"xmouse":[772,772,772,772,772,772,772,772,772,772,772,772,772,772,772,772,772,772,772,772,772,772,772,772,772,772,772,772,772,772,772,773,786,796,810,825,841,869,885,905,915,923,937,941,945,951,957,976,987,1006,1013,1016,1017,1019,1022,1026,1038,1042,1045,1047,1050,1054,1062],"ymouse":[493,493,493,493,493,493,493,493,493,493,493,493,493,493,493,493,493,493,493,493,493,493,493,493,493,493,493,493,493,493,493,493,482,470,458,445,427,386,361,324,303,278,243,229,214,199,187,161,145,125,119,116,116,115,114,113,109,107,105,105,103,99,90],"timestamp_mouse":[9,42,48,68,87,108,127,147,167,188,207,229,248,268,288,307,329,348,367,388,407,428,449,468,487,508,527,549,568,587,608,627,647,667,688,708,728,747,767,787,807,829,847,867,887,907,928,947,967,987,1008,1027,1048,1067,1087,1108,1128,1147,1167,1187,1207,1228,1248],"xSR":741.5,"ySR":469.95,"xT1":424.9,"yT1":0,"xT2":1058.1,"yT2":0,"toosoon":0,"cond_shown":"Incongruent","ratio_trial":300,"L_num":13,"L_den":26,"R_num":12,"R_den":15,"correct_side":2,"subjID":"PaulaPerilla3","gender":"1","school":"6","age":"12"},{"start_time":1551899657133,"click_time":1551899659373,"finger_time":1551899658014,"fix_duration":1337.2044435100215,"trial":7,"RT":881,"MT":1359,"sideResp":1,"stimulus":[],"xmouse":[763,763,763,763,763,763,763,763,763,763,763,763,763,763,763,763,763,763,763,763,763,763,763,763,763,763,763,765,766,766,766,766,766,766,766,766,767,767,768,768,769,771,772,773,776,777,779,779,779,779,779,779,781,783,789,796,805,826,840,855,874,893,923,938,953,960,966,970,978,989,1001,1010,1024,1026,1033,1038,1042,1042,1042,1042,1042,1042,1042,1042,1042,1042,1039,1013,999,987,980,974,951,930,877,828,743,710,670,643,617,588,552,541,537,537,537,537,535,533,530,527,512],"ymouse":[495,495,495,495,495,495,495,495,495,495,495,495,495,495,495,495,495,495,495,495,495,495,495,495,495,495,493,490,487,485,484,484,484,484,484,484,483,483,481,480,479,475,473,472,465,462,458,458,458,458,458,458,454,452,443,433,423,394,378,361,342,322,289,273,253,244,234,225,214,199,187,176,163,160,155,151,146,146,146,146,146,146,146,146,146,146,146,146,146,146,146,146,144,137,121,108,83,74,65,57,50,42,31,30,29,29,29,29,29,29,29,29,32],"timestamp_mouse":[9,20,49,60,81,100,122,140,160,180,200,221,240,261,281,300,321,341,361,381,400,421,441,461,481,500,520,541,561,581,600,620,642,661,682,700,720,740,760,780,801,822,842,861,881,900,922,940,960,981,1000,1021,1040,1060,1081,1101,1120,1140,1160,1181,1200,1221,1240,1260,1280,1300,1322,1340,1361,1380,1400,1421,1440,1460,1480,1500,1522,1540,1561,1581,1601,1621,1640,1661,1681,1700,1722,1740,1760,1781,1801,1821,1841,1860,1881,1901,1922,1941,1962,1981,2001,2020,2040,2061,2081,2100,2120,2140,2160,2180,2201,2221,2240],"xSR":741.5,"ySR":469.95,"xT1":424.9,"yT1":0,"xT2":1058.1,"yT2":0,"toosoon":0,"cond_shown":"Incongruent","ratio_trial":100,"L_num":2,"L_den":4,"R_num":6,"R_den":15,"correct_side":1,"subjID":"PaulaPerilla3","gender":"1","school":"6","age":"12"},{"start_time":1551899661541,"click_time":1551899663735,"finger_time":1551899663154,"fix_duration":1346.0492568930363,"trial":8,"RT":1613,"MT":581,"sideResp":2,"stimulus":[],"xmouse":[822,822,822,822,822,822,822,822,822,822,822,822,822,822,822,822,822,822,822,822,822,822,822,822,822,822,822,822,822,822,822,822,822,822,822,822,822,822,822,822,822,822,822,822,822,822,822,822,822,822,822,822,822,822,822,822,822,822,822,822,822,822,822,822,822,822,822,822,822,822,822,822,822,822,822,820,816,815,814,814,816,824,834,851,859,867,876,885,898,916,946,1031,1066,1097,1105,1106,1106,1106,1106,1108,1108,1108,1108,1108,1108,1108,1108,1108,1108,1096],"ymouse":[518,518,518,518,518,518,518,518,518,518,518,518,518,518,518,518,518,518,518,518,518,518,518,518,518,518,518,518,518,518,518,518,518,518,518,518,518,518,518,518,518,518,518,518,518,518,518,518,518,518,518,518,518,518,518,518,518,518,518,518,518,518,518,518,518,518,518,518,518,518,518,518,518,518,518,515,496,488,478,473,462,453,443,428,420,413,401,389,370,348,318,247,211,171,158,156,156,156,156,153,134,114,112,112,112,112,112,112,110,93],"timestamp_mouse":[13,32,64,72,94,114,132,153,172,192,213,232,253,273,292,313,333,352,372,392,412,434,453,473,493,513,533,552,574,592,612,633,652,673,693,713,733,752,773,793,812,832,853,873,894,913,932,953,972,993,1013,1034,1053,1072,1092,1113,1132,1152,1172,1192,1212,1233,1252,1273,1292,1313,1332,1352,1373,1392,1413,1432,1459,1472,1493,1512,1533,1553,1574,1592,1613,1632,1653,1672,1693,1712,1732,1752,1772,1793,1813,1832,1852,1872,1892,1913,1932,1953,1972,1992,2012,2032,2052,2078,2092,2113,2134,2152,2172,2193],"xSR":741.5,"ySR":469.95,"xT1":424.9,"yT1":0,"xT2":1058.1,"yT2":0,"toosoon":0,"cond_shown":"Congruent","ratio_trial":100,"L_num":12,"L_den":30,"R_num":13,"R_den":26,"correct_side":2,"subjID":"PaulaPerilla3","gender":"1","school":"6","age":"12"},{"start_time":1551899664970,"click_time":1551899666174,"finger_time":1551899665674,"fix_duration":313.4369027852557,"trial":9,"RT":704,"MT":500,"sideResp":1,"stimulus":[],"xmouse":[791,791,791,791,791,791,791,791,791,791,791,791,791,791,791,791,791,791,791,791,791,791,791,791,791,791,791,791,791,791,791,791,791,791,786,770,748,711,676,636,623,616,609,581,569,558,551,547,537,527,527,527,526,526,526,526,526,526,525,519],"ymouse":[485,485,485,485,485,485,485,485,485,485,485,485,485,485,485,485,485,485,485,485,485,485,485,485,485,485,485,485,485,485,485,485,485,485,465,425,374,312,253,191,170,157,147,116,105,96,91,89,86,86,86,86,86,86,86,86,86,86,86,86],"timestamp_mouse":[9,23,65,84,104,124,143,164,183,204,225,243,263,285,304,323,344,363,384,405,424,443,465,484,505,524,545,564,584,603,624,644,663,685,704,723,743,763,784,803,823,843,864,885,903,923,943,964,986,1004,1024,1043,1064,1084,1104,1123,1144,1163,1183,1203],"xSR":741.5,"ySR":469.95,"xT1":424.9,"yT1":0,"xT2":1058.1,"yT2":0,"toosoon":0,"cond_shown":"Incongruent","ratio_trial":300,"L_num":8,"L_den":10,"R_num":9,"R_den":18,"correct_side":1,"subjID":"PaulaPerilla3","gender":"1","school":"6","age":"12"},{"start_time":1551899667872,"click_time":1551899669573,"finger_time":1551899668654,"fix_duration":757.8685853373346,"trial":10,"RT":782,"MT":919,"sideResp":1,"stimulus":[],"xmouse":[795,795,795,795,795,795,795,795,795,795,795,795,795,795,795,795,795,795,795,795,795,795,795,795,795,795,795,795,795,794,794,794,794,794,794,796,798,807,814,824,828,832,837,842,850,872,882,894,898,907,910,913,916,921,931,937,944,952,956,958,958,958,958,958,953,838,803,700,640,596,550,542,540,540,540,539,539,539,539,539,539,539,539,539,537,507],"ymouse":[516,516,516,516,516,516,516,516,516,516,516,516,516,516,516,516,516,516,516,516,516,516,516,516,516,516,516,516,516,517,517,517,517,517,517,516,511,495,482,461,454,446,438,427,416,385,367,343,334,319,313,308,304,297,284,274,260,239,228,214,214,214,214,214,213,194,185,154,137,124,113,113,113,113,113,113,113,113,113,113,113,113,113,113,112,86],"timestamp_mouse":[9,36,41,61,82,102,123,142,162,182,201,221,241,263,282,302,322,341,362,382,401,421,442,461,481,502,521,543,561,582,602,621,642,661,681,701,721,742,761,782,801,822,843,861,882,901,921,941,962,983,1003,1021,1041,1063,1084,1102,1121,1142,1161,1183,1201,1222,1242,1262,1281,1301,1322,1341,1361,1382,1402,1421,1442,1461,1482,1502,1522,1542,1561,1583,1601,1623,1642,1663,1682,1701],"xSR":741.5,"ySR":469.95,"xT1":424.9,"yT1":0,"xT2":1058.1,"yT2":0,"toosoon":0,"cond_shown":"Congruent","ratio_trial":100,"L_num":11,"L_den":22,"R_num":6,"R_den":15,"correct_side":1,"subjID":"PaulaPerilla3","gender":"1","school":"6","age":"12"},{"start_time":1551899672068,"click_time":1551899673156,"finger_time":1551899672613,"fix_duration":1253.292092448606,"trial":11,"RT":545,"MT":543,"sideResp":2,"stimulus":[],"xmouse":[802,802,802,802,802,802,802,802,802,802,802,802,802,802,802,802,802,802,802,802,802,802,802,802,802,801,816,860,896,925,970,982,989,994,997,1002,1005,1011,1014,1017,1017,1017,1017,1020,1020,1024,1027,1031,1033,1037,1039,1043,1050,1064,1100],"ymouse":[555,555,555,555,555,555,555,555,555,555,555,555,555,555,555,555,555,555,555,555,555,555,555,555,555,547,522,486,451,424,364,347,330,313,297,269,260,249,245,240,239,239,239,236,235,229,223,216,212,208,204,197,180,151,72],"timestamp_mouse":[13,39,46,66,85,105,125,146,165,186,206,226,246,265,286,307,325,346,365,385,405,426,445,465,486,505,526,545,566,585,605,625,646,665,687,705,726,745,766,787,805,825,845,865,887,905,926,946,965,986,1005,1026,1046,1065,1088],"xSR":741.5,"ySR":469.95,"xT1":424.9,"yT1":0,"xT2":1058.1,"yT2":0,"toosoon":0,"cond_shown":"Congruent","ratio_trial":200,"L_num":3,"L_den":10,"R_num":11,"R_den":22,"correct_side":2,"subjID":"PaulaPerilla3","gender":"1","school":"6","age":"12"},{"start_time":1551899674583,"click_time":1551899675956,"finger_time":1551899675174,"fix_duration":266.8873918556717,"trial":12,"RT":591,"MT":782,"sideResp":1,"stimulus":[],"xmouse":[775,775,775,775,775,775,775,775,775,775,775,775,775,775,775,775,775,775,775,775,775,775,775,775,775,775,777,778,781,784,785,786,787,780,778,775,774,774,773,773,773,773,773,773,773,773,773,773,769,764,759,757,757,757,757,751,739,722,702,675,669,663,647,632,596,582,563,545,517],"ymouse":[503,503,503,503,503,503,503,503,503,503,503,503,503,503,503,503,503,503,503,503,503,503,503,503,503,499,495,488,479,459,440,430,414,376,363,355,350,348,347,347,346,340,336,319,305,285,263,239,193,175,164,162,162,162,162,160,154,147,138,128,126,124,122,119,113,109,103,98,90],"timestamp_mouse":[10,30,51,70,92,111,130,151,171,190,210,232,251,271,291,310,331,350,372,391,411,431,452,471,490,512,531,551,570,591,611,630,650,672,690,711,730,751,772,790,810,830,851,872,890,910,930,950,972,990,1010,1030,1051,1071,1091,1110,1131,1151,1170,1190,1210,1230,1251,1271,1290,1310,1330,1350,1372],"xSR":741.5,"ySR":469.95,"xT1":424.9,"yT1":0,"xT2":1058.1,"yT2":0,"toosoon":0,"cond_shown":"Incongruent","ratio_trial":200,"L_num":4,"L_den":5,"R_num":6,"R_den":10,"correct_side":1,"subjID":"PaulaPerilla3","gender":"1","school":"6","age":"12"},{"start_time":1551899679627,"click_time":1551899680773,"finger_time":1551899680273,"fix_duration":1090.692761441684,"trial":13,"RT":646,"MT":500,"sideResp":1,"stimulus":[],"xmouse":[794,794,794,794,794,794,794,794,794,794,794,794,794,794,794,794,794,794,794,794,794,794,794,794,794,794,794,794,794,796,799,801,802,800,798,794,791,766,762,743,731,717,715,714,714,714,701,661,631,596,582,570,550,547,545,544,542,518],"ymouse":[518,518,518,518,518,518,518,518,518,518,518,518,518,518,518,518,518,518,518,518,518,518,518,518,518,518,518,518,518,512,497,476,434,416,398,377,353,284,274,226,197,164,160,158,158,158,152,136,122,104,96,87,76,75,75,75,74,67],"timestamp_mouse":[11,27,46,66,86,106,126,146,167,187,206,227,247,266,287,308,326,347,366,387,407,428,446,466,486,506,526,546,566,586,608,626,646,667,686,707,728,746,767,786,806,828,846,867,886,906,927,946,966,987,1007,1026,1046,1067,1087,1106,1128,1146],"xSR":741.5,"ySR":469.95,"xT1":424.9,"yT1":0,"xT2":1058.1,"yT2":0,"toosoon":0,"cond_shown":"Congruent","ratio_trial":200,"L_num":8,"L_den":15,"R_num":7,"R_den":21,"correct_side":1,"subjID":"PaulaPerilla3","gender":"1","school":"6","age":"12"},{"start_time":1551899682709,"click_time":1551899684673,"finger_time":1551899684094,"fix_duration":1034.5309850330907,"trial":14,"RT":1385,"MT":579,"sideResp":2,"stimulus":[],"xmouse":[805,805,805,805,805,805,805,805,805,805,805,805,805,805,805,805,805,805,805,805,805,805,805,805,805,805,805,805,805,810,811,812,812,812,812,812,812,812,812,812,812,812,812,812,812,812,812,812,812,812,812,812,812,812,812,812,812,812,812,812,812,812,812,812,812,817,821,826,837,843,849,857,863,870,880,899,914,929,977,991,1006,1019,1046,1062,1068,1081,1084,1088,1088,1088,1088,1088,1088,1088,1088,1088,1094,1097,1104],"ymouse":[528,528,528,528,528,528,528,528,528,528,528,528,528,528,528,528,528,528,528,528,528,528,528,528,528,528,528,528,528,525,524,523,523,523,523,523,523,523,523,523,523,523,523,523,523,523,523,523,523,523,523,523,523,523,523,523,523,523,523,523,523,523,523,523,523,521,514,507,491,482,475,465,459,452,443,421,402,381,304,284,265,246,210,181,171,146,137,130,130,130,130,130,130,130,130,129,116,110,96],"timestamp_mouse":[13,24,45,65,85,105,124,145,165,185,205,225,246,266,284,305,325,345,366,385,405,424,444,465,484,506,525,545,564,585,604,624,644,664,684,704,725,744,764,784,805,824,845,865,884,904,924,944,964,984,1005,1025,1044,1065,1084,1106,1125,1145,1165,1185,1205,1225,1245,1265,1285,1304,1324,1344,1365,1385,1405,1425,1446,1464,1484,1504,1526,1544,1564,1584,1604,1624,1646,1665,1685,1704,1725,1746,1764,1785,1804,1825,1844,1865,1884,1905,1925,1944,1964],"xSR":741.5,"ySR":469.95,"xT1":424.9,"yT1":0,"xT2":1058.1,"yT2":0,"toosoon":0,"cond_shown":"Incongruent","ratio_trial":200,"L_num":11,"L_den":20,"R_num":3,"R_den":4,"correct_side":2,"subjID":"PaulaPerilla3","gender":"1","school":"6","age":"12"},{"start_time":1551899686959,"click_time":1551899688774,"finger_time":1551899688175,"fix_duration":1262.9543895338952,"trial":15,"RT":1216,"MT":599,"sideResp":1,"stimulus":[],"xmouse":[790,791,791,791,791,791,791,791,791,791,791,791,791,791,791,791,791,791,791,791,791,791,791,791,791,791,791,791,791,791,791,791,791,791,791,791,791,791,791,791,791,791,791,791,791,791,791,791,791,791,791,791,791,791,791,792,792,792,792,792,792,792,792,792,783,774,764,755,741,736,734,727,720,710,680,661,643,624,606,563,547,531,530,530,530,530,530,528,525,501],"ymouse":[487,486,486,486,486,486,486,486,486,486,486,486,486,486,486,486,486,486,486,486,486,486,486,486,486,486,486,486,486,486,486,486,486,486,486,486,486,486,486,486,486,486,486,486,486,486,486,486,486,486,486,486,486,486,486,482,479,476,472,465,462,448,431,407,337,304,272,247,215,200,193,178,167,155,125,111,98,86,76,58,52,46,46,46,46,46,46,46,46,46],"timestamp_mouse":[40,56,76,96,117,137,155,175,197,217,236,255,276,295,315,336,356,376,395,415,436,457,476,496,516,536,555,576,595,616,636,657,676,696,716,736,757,776,796,815,835,855,877,895,915,935,957,977,995,1015,1036,1056,1077,1095,1116,1136,1155,1175,1196,1216,1236,1255,1276,1295,1315,1336,1356,1376,1397,1416,1437,1456,1475,1496,1515,1535,1557,1576,1596,1616,1636,1655,1676,1696,1716,1735,1757,1776,1796,1815],"xSR":741.5,"ySR":469.95,"xT1":424.9,"yT1":0,"xT2":1058.1,"yT2":0,"toosoon":0,"cond_shown":"Incongruent","ratio_trial":200,"L_num":3,"L_den":4,"R_num":11,"R_den":20,"correct_side":1,"subjID":"PaulaPerilla3","gender":"1","school":"6","age":"12"},{"start_time":1551899690380,"click_time":1551899691674,"finger_time":1551899691236,"fix_duration":621.8934151005491,"trial":16,"RT":856,"MT":438,"sideResp":1,"stimulus":[],"xmouse":[797,797,797,797,797,797,797,797,797,797,797,797,797,797,797,797,797,797,797,797,797,797,797,797,797,797,797,797,797,797,800,802,803,803,803,803,803,803,803,803,803,803,800,786,764,750,729,704,661,651,650,650,650,650,650,650,650,650,650,640,633,595,564,536,500],"ymouse":[521,521,521,521,521,521,521,521,521,521,521,521,521,521,521,521,521,521,521,521,521,521,521,521,521,521,521,521,521,521,519,517,516,515,515,514,514,514,514,509,493,470,442,393,316,274,221,167,74,54,52,52,52,52,52,52,52,52,52,52,52,55,59,62,65],"timestamp_mouse":[15,38,54,75,95,115,135,155,176,195,215,235,254,275,295,315,334,355,374,396,414,436,455,475,495,515,534,555,576,596,615,636,654,675,696,715,736,755,774,794,814,836,856,876,894,915,934,955,977,995,1015,1035,1055,1076,1094,1115,1136,1155,1176,1195,1215,1234,1255,1276,1294],"xSR":741.5,"ySR":469.95,"xT1":424.9,"yT1":0,"xT2":1058.1,"yT2":0,"toosoon":0,"cond_shown":"Congruent","ratio_trial":200,"L_num":7,"L_den":21,"R_num":2,"R_den":15,"correct_side":1,"subjID":"PaulaPerilla3","gender":"1","school":"6","age":"12"},{"start_time":1551899693796,"click_time":1551899695256,"finger_time":1551899694516,"fix_duration":998.2484746502172,"trial":17,"RT":720,"MT":740,"sideResp":1,"stimulus":[],"xmouse":[783,783,783,783,783,783,783,783,783,783,783,783,783,783,783,783,783,783,783,783,783,783,783,783,783,783,783,783,783,783,783,783,783,783,777,768,758,746,727,719,711,706,698,691,674,664,655,643,630,598,582,559,547,529,528,528,528,528,518,503,497,485,481,477,476,475,475,475,475,475,475,475,476,480],"ymouse":[510,510,510,510,510,510,510,510,510,510,510,510,510,510,510,510,510,510,510,510,510,510,510,510,510,510,510,510,510,510,510,510,510,510,499,480,457,426,378,355,333,313,286,271,244,233,223,213,203,175,161,141,129,112,111,111,111,111,110,107,107,104,103,103,103,102,102,102,102,102,102,102,101,99],"timestamp_mouse":[6,21,43,59,80,99,118,140,158,179,199,220,239,258,280,300,318,340,360,378,400,418,438,460,480,499,519,539,560,580,598,619,640,660,680,699,720,739,761,778,799,819,839,860,879,899,919,940,960,979,998,1019,1038,1060,1079,1099,1118,1139,1161,1179,1199,1220,1239,1260,1280,1299,1319,1338,1360,1380,1399,1419,1438,1459],"xSR":741.5,"ySR":469.95,"xT1":424.9,"yT1":0,"xT2":1058.1,"yT2":0,"toosoon":0,"cond_shown":"Congruent","ratio_trial":100,"L_num":11,"L_den":22,"R_num":6,"R_den":15,"correct_side":1,"subjID":"PaulaPerilla3","gender":"1","school":"6","age":"12"},{"start_time":1551899696989,"click_time":1551899698375,"finger_time":1551899697956,"fix_duration":830.9820240936792,"trial":18,"RT":967,"MT":419,"sideResp":1,"stimulus":[],"xmouse":[775,775,775,775,775,775,775,775,775,775,775,775,775,775,775,775,775,775,775,775,775,775,775,775,775,775,775,775,775,775,775,775,776,778,779,779,779,779,779,779,779,779,781,781,783,784,784,784,784,783,773,765,756,745,715,694,679,662,639,636,634,632,627,617,584,567,554,543,528,493],"ymouse":[529,529,529,529,529,529,529,529,529,529,529,529,529,529,529,529,529,529,529,529,529,529,529,529,529,529,529,529,529,529,529,529,527,523,520,520,520,520,520,520,520,514,511,508,501,499,494,485,453,434,401,374,341,306,226,187,163,143,117,113,110,110,108,105,95,91,89,87,87,83],"timestamp_mouse":[9,26,46,65,86,106,127,145,165,185,206,225,246,265,287,307,325,346,366,386,407,427,447,465,486,506,527,546,565,586,605,627,646,666,686,707,726,746,767,785,805,825,846,866,886,906,926,945,967,985,1005,1026,1045,1065,1085,1106,1126,1147,1168,1186,1207,1227,1245,1265,1285,1305,1327,1346,1366,1386],"xSR":741.5,"ySR":469.95,"xT1":424.9,"yT1":0,"xT2":1058.1,"yT2":0,"toosoon":0,"cond_shown":"Congruent","ratio_trial":300,"L_num":8,"L_den":16,"R_num":1,"R_den":5,"correct_side":1,"subjID":"PaulaPerilla3","gender":"1","school":"6","age":"12"},{"start_time":1551899700376,"click_time":1551899701655,"finger_time":1551899701156,"fix_duration":1138.0528624022324,"trial":19,"RT":780,"MT":499,"sideResp":2,"stimulus":[],"xmouse":[775,775,775,775,775,775,775,775,775,775,775,775,775,775,775,775,776,776,776,776,776,776,776,776,776,778,779,780,780,780,780,780,780,780,780,780,783,786,792,807,818,823,839,850,860,877,884,893,905,914,940,959,964,975,986,991,995,1001,1008,1016,1033,1048,1057,1064,1067],"ymouse":[516,516,516,516,516,516,516,516,516,516,516,516,516,516,516,516,516,516,516,516,516,516,516,516,516,514,512,511,510,510,510,510,509,509,509,509,502,498,486,459,437,429,403,388,376,354,345,335,321,307,268,245,239,227,217,215,212,208,202,195,161,131,117,104,97],"timestamp_mouse":[1,18,40,58,79,100,118,139,159,180,200,218,239,260,278,300,318,338,360,380,400,418,439,458,480,498,518,540,559,579,600,619,639,658,679,700,719,740,759,780,799,820,839,859,878,898,919,940,960,978,998,1018,1038,1058,1080,1098,1119,1139,1159,1178,1198,1218,1238,1258,1278],"xSR":741.5,"ySR":469.95,"xT1":424.9,"yT1":0,"xT2":1058.1,"yT2":0,"toosoon":0,"cond_shown":"Incongruent","ratio_trial":300,"L_num":13,"L_den":26,"R_num":12,"R_den":15,"correct_side":2,"subjID":"PaulaPerilla3","gender":"1","school":"6","age":"12"},{"start_time":1551899704119,"click_time":1551899705157,"finger_time":1551899704575,"fix_duration":1402.5757824365255,"trial":20,"RT":456,"MT":582,"sideResp":2,"stimulus":[],"xmouse":[769,769,769,769,769,769,769,769,769,769,769,769,769,769,769,769,769,769,769,769,769,774,780,786,793,802,833,855,885,924,961,1021,1034,1042,1050,1054,1069,1082,1092,1102,1109,1112,1113,1113,1113,1113,1113,1113,1114,1116,1121,1126],"ymouse":[491,491,491,491,491,491,491,491,491,491,491,491,491,491,491,491,491,491,491,491,488,479,467,456,445,435,411,394,373,343,315,262,247,235,221,216,199,184,169,157,147,142,140,140,140,140,140,140,136,121,106,82],"timestamp_mouse":[15,39,55,75,97,116,135,155,176,197,215,235,256,275,296,315,336,355,376,395,415,437,456,476,495,515,537,556,575,596,616,638,656,676,696,717,737,755,776,795,816,836,856,875,897,917,937,957,976,996,1016,1038],"xSR":741.5,"ySR":469.95,"xT1":424.9,"yT1":0,"xT2":1058.1,"yT2":0,"toosoon":0,"cond_shown":"Congruent","ratio_trial":300,"L_num":8,"L_den":15,"R_num":10,"R_den":12,"correct_side":2,"subjID":"PaulaPerilla3","gender":"1","school":"6","age":"12"},{"start_time":1551899707064,"click_time":1551899708335,"finger_time":1551899707774,"fix_duration":787.1476725998203,"trial":21,"RT":710,"MT":561,"sideResp":2,"stimulus":[],"xmouse":[781,781,781,781,781,781,781,781,781,781,781,781,781,781,781,781,781,781,781,781,781,781,781,781,781,781,781,781,781,781,781,781,781,782,786,791,796,804,815,852,881,913,933,959,975,998,1006,1019,1028,1055,1068,1076,1079,1079,1079,1079,1079,1079,1079,1079,1079,1079,1080,1085],"ymouse":[497,497,497,497,497,497,497,497,497,497,497,497,497,497,497,497,497,497,497,497,497,497,497,497,497,497,497,497,497,497,497,493,489,484,472,463,449,436,417,364,325,286,249,213,189,163,158,150,145,124,113,106,104,104,104,104,104,104,104,104,104,104,102,95],"timestamp_mouse":[10,48,50,71,91,112,131,151,171,192,212,230,251,271,292,312,330,351,370,392,410,442,451,470,491,511,531,551,570,590,611,631,650,670,692,710,732,750,770,792,810,830,851,871,891,911,930,951,971,992,1010,1030,1051,1071,1091,1112,1131,1152,1171,1191,1211,1231,1251,1271],"xSR":741.5,"ySR":469.95,"xT1":424.9,"yT1":0,"xT2":1058.1,"yT2":0,"toosoon":0,"cond_shown":"Congruent","ratio_trial":300,"L_num":1,"L_den":30,"R_num":8,"R_den":24,"correct_side":2,"subjID":"PaulaPerilla3","gender":"1","school":"6","age":"12"},{"start_time":1551899710306,"click_time":1551899711974,"finger_time":1551899711255,"fix_duration":1290.0013996730693,"trial":22,"RT":949,"MT":719,"sideResp":2,"stimulus":[],"xmouse":[790,790,790,790,790,790,790,790,790,790,790,790,790,790,790,790,790,790,790,790,790,790,790,790,790,790,790,790,790,790,790,790,790,791,791,791,792,792,794,797,801,806,812,815,816,819,822,827,836,840,843,846,848,850,851,851,851,851,851,853,857,863,882,907,915,941,952,960,970,973,977,983,989,999,1000,1008,1011,1017,1029,1038,1048,1057,1077,1085],"ymouse":[530,526,526,526,526,526,526,526,526,526,526,526,526,526,526,526,526,526,526,526,526,526,526,526,526,526,526,526,525,525,525,525,525,523,522,520,519,519,515,510,504,498,487,482,480,475,472,465,455,450,445,442,439,437,435,435,435,435,435,430,425,416,394,376,370,351,343,336,326,322,315,306,295,272,269,254,246,237,212,196,177,158,117,97],"timestamp_mouse":[13,34,49,70,88,109,128,148,168,189,210,229,249,270,288,308,330,350,368,388,409,430,448,470,488,510,530,550,570,589,608,629,649,668,688,709,730,750,770,788,809,830,850,870,889,910,930,949,969,989,1008,1029,1050,1068,1089,1110,1129,1150,1168,1188,1208,1229,1250,1268,1290,1309,1330,1349,1368,1388,1409,1428,1448,1470,1489,1509,1529,1549,1568,1588,1609,1629,1650,1668],"xSR":741.5,"ySR":469.95,"xT1":424.9,"yT1":0,"xT2":1058.1,"yT2":0,"toosoon":0,"cond_shown":"Incongruent","ratio_trial":200,"L_num":6,"L_den":20,"R_num":3,"R_den":6,"correct_side":2,"subjID":"PaulaPerilla3","gender":"1","school":"6","age":"12"},{"start_time":1551899713811,"click_time":1551899714874,"finger_time":1551899714495,"fix_duration":674.3375948219735,"trial":23,"RT":684,"MT":379,"sideResp":2,"stimulus":[],"xmouse":[799,799,799,799,799,799,799,799,799,799,799,799,799,799,799,799,799,799,799,799,799,799,799,799,799,799,799,799,799,799,799,805,812,829,842,849,861,886,903,930,946,961,984,992,998,1003,1008,1024,1037,1053,1078,1095,1109,1125],"ymouse":[537,537,537,537,537,537,537,537,537,537,537,537,537,537,537,537,537,537,537,537,537,537,537,537,537,537,537,537,537,537,537,529,522,507,496,488,472,435,412,375,351,331,304,294,288,281,274,252,233,211,175,150,126,99],"timestamp_mouse":[9,24,45,79,85,103,124,143,163,183,203,223,244,265,285,303,323,345,365,384,405,424,443,464,484,504,525,543,564,584,603,625,644,665,684,703,723,745,763,783,804,824,846,863,885,904,924,945,963,984,1004,1023,1045,1063],"xSR":741.5,"ySR":469.95,"xT1":424.9,"yT1":0,"xT2":1058.1,"yT2":0,"toosoon":0,"cond_shown":"Congruent","ratio_trial":200,"L_num":9,"L_den":30,"R_num":13,"R_den":26,"correct_side":2,"subjID":"PaulaPerilla3","gender":"1","school":"6","age":"12"},{"start_time":1551899716327,"click_time":1551899717395,"finger_time":1551899716854,"fix_duration":250,"trial":24,"RT":527,"MT":541,"sideResp":1,"stimulus":[],"xmouse":[815,815,815,815,815,815,815,815,815,815,815,815,815,815,815,815,815,815,815,815,815,815,815,815,814,814,814,811,807,803,795,782,737,708,693,688,680,674,664,653,639,624,595,580,573,566,549,540,532,530,529,529,527,524],"ymouse":[488,488,488,488,488,488,488,488,488,488,488,488,488,488,488,488,488,488,488,488,488,488,488,488,486,478,469,453,439,420,394,368,296,248,220,199,164,146,130,112,100,92,83,82,82,82,82,81,80,80,80,80,80,80],"timestamp_mouse":[9,28,53,68,87,109,128,149,168,188,208,228,247,268,287,309,329,349,369,389,409,428,447,468,489,507,527,548,568,588,608,628,647,668,687,708,729,749,768,788,808,829,848,867,888,909,930,948,967,987,1008,1029,1047,1068],"xSR":741.5,"ySR":469.95,"xT1":424.9,"yT1":0,"xT2":1058.1,"yT2":0,"toosoon":0,"cond_shown":"Congruent","ratio_trial":300,"L_num":20,"L_den":25,"R_num":9,"R_den":18,"correct_side":1,"subjID":"PaulaPerilla3","gender":"1","school":"6","age":"12"},{"start_time":1551899719394,"click_time":1551899720736,"finger_time":1551899720015,"fix_duration":897.0347534677508,"trial":25,"RT":621,"MT":721,"sideResp":2,"stimulus":[],"xmouse":[785,785,785,786,786,786,786,786,786,786,786,786,786,786,786,786,786,786,786,786,787,788,788,788,789,790,790,791,793,795,797,798,800,800,802,804,806,809,812,828,836,837,843,856,866,878,894,912,929,963,981,989,999,1012,1016,1020,1022,1024,1026,1032,1041,1050,1061,1082,1093,1104,1113,1125],"ymouse":[473,473,473,474,482,486,489,491,493,493,493,493,493,493,493,493,493,493,493,493,493,493,493,493,492,489,488,486,480,476,472,467,466,463,460,456,452,448,442,425,417,416,409,393,384,373,359,345,330,301,289,282,275,265,261,256,252,249,247,238,224,210,196,164,147,128,108,89],"timestamp_mouse":[10,21,40,61,80,101,121,141,161,181,201,222,241,261,281,300,322,342,361,382,402,421,441,462,481,501,522,540,562,582,600,621,640,662,681,702,722,741,761,780,800,820,841,862,881,902,920,940,960,980,1001,1021,1041,1062,1080,1102,1121,1140,1160,1180,1201,1220,1241,1262,1281,1301,1320,1341],"xSR":741.5,"ySR":469.95,"xT1":424.9,"yT1":0,"xT2":1058.1,"yT2":0,"toosoon":0,"cond_shown":"Incongruent","ratio_trial":300,"L_num":4,"L_den":20,"R_num":2,"R_den":4,"correct_side":2,"subjID":"PaulaPerilla3","gender":"1","school":"6","age":"12"},{"start_time":1551899722353,"click_time":1551899724175,"finger_time":1551899723274,"fix_duration":856.2106613898086,"trial":26,"RT":921,"MT":901,"sideResp":2,"stimulus":[],"xmouse":[801,801,801,801,801,801,801,801,801,801,801,801,801,801,801,801,801,801,801,801,801,801,801,801,801,801,801,801,801,801,801,801,801,801,801,801,801,801,801,801,801,801,801,801,801,803,805,806,808,811,823,830,837,847,851,859,861,862,864,868,882,896,900,915,924,939,945,951,956,959,967,971,977,984,991,1000,1017,1025,1033,1039,1043,1045,1046,1046,1046,1052,1053,1053,1053,1053,1056,1080],"ymouse":[490,490,490,490,490,490,490,490,490,490,490,490,490,490,490,490,490,490,490,490,490,490,490,490,490,490,490,490,490,490,490,490,490,490,490,490,490,489,488,486,483,482,481,478,476,471,465,461,457,452,438,431,422,408,401,391,387,384,381,374,354,333,326,305,292,269,261,253,246,240,226,218,209,193,182,167,138,123,113,102,95,91,91,91,90,88,88,88,88,88,88,88],"timestamp_mouse":[9,21,41,62,81,101,122,143,161,182,201,222,241,262,283,302,322,341,361,382,401,422,442,462,482,501,523,541,562,581,602,623,642,661,683,703,721,741,762,782,803,821,841,861,881,902,921,941,963,982,1005,1021,1041,1062,1083,1103,1121,1142,1163,1181,1204,1222,1242,1262,1283,1303,1321,1342,1362,1383,1404,1421,1441,1461,1482,1503,1522,1543,1562,1583,1602,1623,1642,1662,1681,1703,1721,1742,1763,1783,1803,1822],"xSR":741.5,"ySR":469.95,"xT1":424.9,"yT1":0,"xT2":1058.1,"yT2":0,"toosoon":0,"cond_shown":"Incongruent","ratio_trial":300,"L_num":4,"L_den":20,"R_num":2,"R_den":4,"correct_side":2,"subjID":"PaulaPerilla3","gender":"1","school":"6","age":"12"},{"start_time":1551899725593,"click_time":1551899726935,"finger_time":1551899726256,"fix_duration":595.1881585687455,"trial":27,"RT":663,"MT":679,"sideResp":2,"stimulus":[],"xmouse":[775,776,777,777,777,777,777,777,777,777,777,777,777,777,777,777,777,777,777,777,777,777,777,777,777,777,777,777,781,784,787,794,798,810,819,829,841,854,878,889,895,904,926,941,968,980,989,996,1002,1005,1010,1018,1023,1027,1028,1028,1029,1037,1050,1074,1081,1084,1085,1088,1089,1091,1094,1098],"ymouse":[537,537,535,535,529,528,528,528,528,528,528,528,528,528,528,528,528,528,528,528,528,528,528,528,528,528,528,528,518,512,505,495,488,468,457,444,431,416,386,371,359,340,302,278,233,214,199,187,176,170,164,152,147,141,139,139,139,139,139,138,135,132,129,123,117,110,102,93],"timestamp_mouse":[9,22,53,61,81,103,123,142,161,183,201,221,241,263,281,301,323,342,361,381,403,423,443,463,483,502,522,542,561,581,603,622,642,663,682,702,722,741,763,781,802,821,841,862,882,903,923,941,963,982,1001,1021,1042,1063,1083,1103,1123,1142,1163,1181,1201,1222,1241,1263,1281,1303,1323,1342],"xSR":741.5,"ySR":469.95,"xT1":424.9,"yT1":0,"xT2":1058.1,"yT2":0,"toosoon":0,"cond_shown":"Congruent","ratio_trial":100,"L_num":6,"L_den":12,"R_num":15,"R_den":25,"correct_side":2,"subjID":"PaulaPerilla3","gender":"1","school":"6","age":"12"},{"start_time":1551899729116,"click_time":1551899730876,"finger_time":1551899730294,"fix_duration":918.4408339518403,"trial":28,"RT":1178,"MT":582,"sideResp":1,"stimulus":[],"xmouse":[777,777,777,777,777,777,777,777,777,777,777,777,777,777,777,777,777,777,777,777,777,780,781,783,783,783,783,783,783,783,783,783,783,783,783,783,783,783,783,783,783,783,783,783,783,783,783,783,783,783,783,783,783,783,783,783,783,783,783,781,778,768,706,653,591,591,591,591,591,591,591,591,591,591,591,591,591,591,363,369,378,385,387,388,388,393,403,412,438],"ymouse":[515,515,515,515,515,515,515,515,515,515,515,515,515,515,515,515,515,515,515,515,515,513,511,505,504,501,500,497,496,492,490,485,478,476,475,475,475,475,475,475,475,475,475,475,475,475,475,475,475,475,475,475,475,475,475,475,475,475,475,460,448,406,241,133,28,28,28,28,28,28,28,28,28,28,28,28,28,28,3,17,32,41,45,46,46,47,47,47,47],"timestamp_mouse":[1,18,52,59,79,98,119,140,158,178,199,219,239,259,278,300,318,338,359,379,400,418,439,458,479,499,518,539,560,580,600,620,640,658,679,700,718,739,760,779,798,818,839,860,880,899,919,938,960,979,998,1019,1038,1059,1079,1099,1119,1140,1158,1178,1198,1219,1240,1258,1279,1300,1319,1338,1359,1379,1399,1418,1439,1459,1479,1499,1518,1539,1559,1578,1598,1619,1638,1659,1679,1698,1718,1739,1760],"xSR":741.5,"ySR":469.95,"xT1":424.9,"yT1":0,"xT2":1058.1,"yT2":0,"toosoon":0,"cond_shown":"Congruent","ratio_trial":300,"L_num":11,"L_den":22,"R_num":1,"R_den":5,"correct_side":1,"subjID":"PaulaPerilla3","gender":"1","school":"6","age":"12"},{"start_time":1551899732719,"click_time":1551899734774,"finger_time":1551899733396,"fix_duration":862.2469450434992,"trial":29,"RT":677,"MT":1378,"sideResp":2,"stimulus":[],"xmouse":[780,780,780,780,780,780,780,780,780,780,780,780,780,780,780,780,780,780,780,780,780,780,780,780,780,780,780,780,780,780,781,783,797,816,825,833,841,860,867,871,875,879,879,879,879,879,879,879,879,879,879,879,879,879,873,869,867,867,867,867,868,868,868,868,860,858,856,856,856,856,856,863,873,892,901,907,912,914,919,926,936,961,991,1000,1026,1037,1045,1045,1045,1045,1045,1045,1045,1045,1045,1045,1045,1045,1045,1045,1045,1067,1068],"ymouse":[528,528,528,528,528,528,528,528,528,528,528,528,528,528,528,528,528,528,528,528,528,528,528,528,528,528,528,528,528,528,527,517,497,468,452,439,427,400,388,378,370,362,362,362,362,362,362,362,362,362,362,362,362,361,354,349,344,331,325,319,313,306,300,297,284,279,275,271,270,269,269,264,261,254,251,248,243,241,235,225,211,170,118,100,44,22,2,2,2,2,2,2,2,2,2,2,2,2,2,2,2,0,2],"timestamp_mouse":[17,44,56,76,96,115,136,157,177,196,217,235,255,276,297,315,336,357,376,396,416,435,456,476,496,517,537,557,577,596,616,636,657,677,697,717,735,755,776,795,816,837,855,876,895,915,937,956,975,996,1016,1037,1056,1077,1096,1117,1136,1155,1175,1195,1216,1238,1255,1277,1297,1317,1336,1355,1375,1396,1415,1437,1456,1477,1495,1515,1537,1555,1575,1595,1615,1637,1656,1676,1697,1716,1736,1756,1775,1795,1815,1836,1855,1875,1895,1916,1936,1956,1975,1996,2015,2036,2055],"xSR":741.5,"ySR":469.95,"xT1":424.9,"yT1":0,"xT2":1058.1,"yT2":0,"toosoon":0,"cond_shown":"Incongruent","ratio_trial":200,"L_num":1,"L_den":3,"R_num":2,"R_den":15,"correct_side":1,"subjID":"PaulaPerilla3","gender":"1","school":"6","age":"12"},{"start_time":1551899738417,"click_time":1551899740056,"finger_time":1551899739476,"fix_duration":979.5917153465631,"trial":30,"RT":1059,"MT":580,"sideResp":1,"stimulus":[],"xmouse":[793,793,793,793,793,793,793,793,793,793,793,793,793,793,793,793,793,793,793,793,793,793,793,793,793,793,793,793,793,793,793,793,793,793,793,793,793,793,793,793,793,793,793,793,793,793,793,793,793,793,792,790,778,769,762,755,749,749,745,740,737,731,713,699,682,670,657,635,624,617,613,610,605,599,589,573,559,532,523,520,517,514],"ymouse":[503,503,503,503,503,503,503,503,503,503,503,503,503,503,503,503,503,503,503,503,503,503,503,503,503,503,503,503,503,503,503,503,503,503,503,503,503,503,503,503,503,503,503,503,503,502,502,502,502,502,500,490,459,442,426,414,403,399,392,380,372,360,330,310,290,271,254,222,210,193,186,180,174,171,168,160,151,129,119,112,107,95],"timestamp_mouse":[18,39,59,77,97,119,139,158,177,199,218,239,258,277,297,319,337,359,378,397,418,438,458,478,498,517,539,557,577,598,618,637,658,679,699,718,739,757,777,798,818,838,859,877,899,918,938,958,977,999,1018,1037,1059,1078,1098,1119,1140,1157,1178,1198,1217,1239,1257,1278,1298,1317,1337,1357,1378,1399,1417,1437,1457,1478,1499,1518,1537,1557,1578,1598,1617,1639],"xSR":741.5,"ySR":469.95,"xT1":424.9,"yT1":0,"xT2":1058.1,"yT2":0,"toosoon":0,"cond_shown":"Incongruent","ratio_trial":200,"L_num":7,"L_den":10,"R_num":12,"R_den":24,"correct_side":1,"subjID":"PaulaPerilla3","gender":"1","school":"6","age":"12"},{"start_time":1551899741602,"click_time":1551899743035,"finger_time":1551899742456,"fix_duration":685.1695840307026,"trial":31,"RT":854,"MT":579,"sideResp":1,"stimulus":[],"xmouse":[781,781,781,781,781,781,781,781,781,781,781,781,781,781,782,782,784,784,784,784,784,784,784,784,784,784,784,784,784,784,784,785,785,785,785,785,785,785,785,785,785,785,782,777,774,771,768,760,753,748,742,737,731,731,729,725,721,703,692,674,655,639,615,603,595,583,577,570,558,551,537,524],"ymouse":[520,520,520,520,520,520,520,520,520,520,520,520,520,520,521,521,518,518,518,518,518,518,518,518,518,518,518,518,518,518,515,513,510,507,505,504,503,501,497,490,483,472,447,432,419,405,393,367,347,336,321,310,295,291,287,278,270,237,219,189,167,152,130,122,118,112,110,108,105,103,101,99],"timestamp_mouse":[13,44,53,73,93,112,132,152,173,192,214,233,253,273,292,312,332,353,373,393,413,433,453,473,492,514,534,553,573,593,613,633,652,674,694,714,734,753,772,792,813,834,854,872,894,912,932,954,973,993,1013,1032,1053,1072,1093,1112,1133,1154,1172,1193,1212,1232,1254,1272,1293,1315,1332,1354,1373,1393,1413,1433],"xSR":741.5,"ySR":469.95,"xT1":424.9,"yT1":0,"xT2":1058.1,"yT2":0,"toosoon":0,"cond_shown":"Congruent","ratio_trial":300,"L_num":4,"L_den":10,"R_num":1,"R_den":10,"correct_side":1,"subjID":"PaulaPerilla3","gender":"1","school":"6","age":"12"},{"start_time":1551899745194,"click_time":1551899746856,"finger_time":1551899746115,"fix_duration":1117.4104978250225,"trial":32,"RT":921,"MT":741,"sideResp":2,"stimulus":[],"xmouse":[798,798,798,798,798,798,798,798,798,798,798,798,798,798,798,798,798,798,798,798,798,798,798,798,798,798,798,798,798,798,798,798,798,798,798,798,798,798,798,798,798,798,798,798,798,798,800,803,809,824,835,843,853,858,865,868,870,874,885,894,909,921,933,946,950,955,962,972,992,1001,1007,1014,1017,1023,1025,1028,1029,1029,1031,1042,1052,1060,1063,1067],"ymouse":[506,506,506,506,506,506,506,506,506,506,506,506,506,506,506,506,506,506,506,506,506,506,506,506,506,506,506,506,506,506,506,506,506,506,506,506,506,506,506,506,506,505,499,486,478,470,461,454,444,418,399,384,368,357,340,332,327,321,303,289,263,246,229,210,205,199,191,183,157,144,132,117,113,109,108,107,107,107,107,107,106,104,102,97],"timestamp_mouse":[10,21,44,62,81,101,120,140,160,181,200,220,240,260,282,301,321,340,361,382,401,420,440,461,481,500,520,541,562,581,601,620,642,661,681,702,722,741,762,782,800,821,841,861,881,901,921,941,961,981,1001,1021,1041,1062,1080,1100,1120,1141,1162,1181,1202,1222,1241,1262,1280,1300,1321,1340,1363,1381,1401,1420,1441,1462,1480,1501,1521,1541,1560,1580,1601,1621,1641,1662],"xSR":741.5,"ySR":469.95,"xT1":424.9,"yT1":0,"xT2":1058.1,"yT2":0,"toosoon":0,"cond_shown":"Congruent","ratio_trial":100,"L_num":4,"L_den":8,"R_num":6,"R_den":10,"correct_side":2,"subjID":"PaulaPerilla3","gender":"1","school":"6","age":"12"},{"start_time":1551899748901,"click_time":1551899750536,"finger_time":1551899750076,"fix_duration":1284.1835739856142,"trial":33,"RT":1175,"MT":460,"sideResp":2,"stimulus":[],"xmouse":[775,775,775,775,775,775,775,775,775,775,775,775,775,775,775,775,775,775,775,775,775,775,775,775,775,775,775,775,775,775,775,775,775,775,775,775,775,775,775,775,775,775,775,775,775,775,775,775,776,776,777,777,779,779,781,783,785,788,793,797,802,811,832,846,868,882,896,915,926,936,950,965,980,1002,1008,1015,1020,1033,1039,1047,1053,1059],"ymouse":[530,530,530,530,530,530,530,530,530,530,530,530,530,530,530,530,530,530,530,530,530,530,530,530,530,530,530,530,530,530,530,530,530,530,530,530,530,530,530,525,522,518,517,517,517,516,515,514,512,511,509,508,502,499,494,488,483,478,466,458,446,433,399,380,348,330,314,288,277,265,250,235,219,189,175,156,146,128,119,108,96,84],"timestamp_mouse":[14,42,55,76,94,114,135,155,175,196,215,235,255,275,296,314,336,356,374,395,415,436,455,474,495,514,534,555,575,595,616,635,655,676,694,714,734,755,776,794,814,836,854,874,894,915,935,954,974,995,1015,1034,1056,1074,1095,1115,1135,1155,1175,1195,1215,1235,1256,1274,1295,1316,1334,1356,1374,1395,1416,1435,1454,1475,1495,1514,1534,1556,1574,1594,1616,1635],"xSR":741.5,"ySR":469.95,"xT1":424.9,"yT1":0,"xT2":1058.1,"yT2":0,"toosoon":0,"cond_shown":"Congruent","ratio_trial":100,"L_num":7,"L_den":14,"R_num":15,"R_den":25,"correct_side":2,"subjID":"PaulaPerilla3","gender":"1","school":"6","age":"12"},{"start_time":1551899752693,"click_time":1551899754015,"finger_time":1551899753575,"fix_duration":1075.259653462847,"trial":34,"RT":882,"MT":440,"sideResp":1,"stimulus":[],"xmouse":[797,797,797,797,797,797,797,797,797,797,797,797,797,797,797,797,797,797,797,797,797,797,797,797,797,797,797,797,797,797,797,797,797,797,797,796,790,783,777,771,771,771,771,771,769,769,765,761,756,741,735,727,719,702,693,683,675,664,657,643,634,622,608,592,565,551,524],"ymouse":[506,506,506,506,506,506,506,506,506,506,506,506,506,506,506,506,506,506,506,506,506,506,506,506,506,506,506,506,506,506,506,506,506,506,506,506,496,485,476,470,470,470,470,470,461,460,449,436,421,381,363,343,325,286,266,247,230,208,193,168,153,141,129,118,101,94,83],"timestamp_mouse":[12,25,42,62,82,102,122,143,163,182,202,222,242,263,283,302,323,342,363,383,403,424,443,462,483,504,522,543,564,584,603,624,644,662,683,702,723,743,762,784,802,823,843,862,882,902,923,943,963,982,1002,1022,1043,1064,1083,1104,1122,1142,1164,1182,1203,1224,1243,1262,1282,1302,1322],"xSR":741.5,"ySR":469.95,"xT1":424.9,"yT1":0,"xT2":1058.1,"yT2":0,"toosoon":0,"cond_shown":"Incongruent","ratio_trial":300,"L_num":8,"L_den":10,"R_num":14,"R_den":28,"correct_side":1,"subjID":"PaulaPerilla3","gender":"1","school":"6","age":"12"},{"start_time":1551899756154,"click_time":1551899758176,"finger_time":1551899757357,"fix_duration":996.2787823466759,"trial":35,"RT":1203,"MT":819,"sideResp":1,"stimulus":[],"xmouse":[806,806,806,806,806,806,806,806,806,806,806,806,806,806,806,806,806,806,806,806,806,806,806,806,806,806,806,806,806,806,806,806,806,806,806,806,806,806,806,806,806,806,806,806,806,806,806,806,806,806,806,806,806,806,806,806,806,806,806,806,807,805,802,796,792,777,761,748,729,712,696,677,672,672,672,672,669,664,658,652,646,640,636,629,615,595,582,566,550,537,533,532,532,532,532,532,532,532,532,532,528,518],"ymouse":[491,491,491,491,491,491,491,491,491,491,491,491,491,491,491,491,491,491,491,491,491,491,491,491,491,491,491,491,491,491,490,488,487,487,487,486,485,485,485,485,485,485,484,484,484,484,484,484,484,482,481,481,480,480,479,479,478,477,475,473,465,456,446,429,415,371,326,268,205,145,100,55,47,47,47,47,46,46,46,46,46,47,50,52,57,59,59,59,59,60,61,62,62,62,62,62,62,62,62,62,62,62],"timestamp_mouse":[10,30,42,61,83,103,122,142,162,181,202,222,243,262,282,302,323,343,362,382,402,422,442,461,482,503,522,541,561,582,602,621,642,661,682,702,722,742,762,781,803,823,841,862,882,901,922,941,963,981,1003,1021,1041,1062,1082,1101,1122,1141,1162,1181,1203,1221,1242,1261,1281,1303,1322,1341,1362,1381,1401,1421,1441,1462,1482,1502,1521,1541,1562,1582,1601,1621,1642,1662,1681,1703,1721,1741,1761,1781,1802,1822,1842,1862,1883,1901,1921,1941,1962,1982,2003,2022],"xSR":741.5,"ySR":469.95,"xT1":424.9,"yT1":0,"xT2":1058.1,"yT2":0,"toosoon":0,"cond_shown":"Congruent","ratio_trial":200,"L_num":7,"L_den":21,"R_num":2,"R_den":15,"correct_side":1,"subjID":"PaulaPerilla3","gender":"1","school":"6","age":"12"},{"start_time":1551899759608,"click_time":1551899760995,"finger_time":1551899760377,"fix_duration":250,"trial":36,"RT":769,"MT":618,"sideResp":2,"stimulus":[],"xmouse":[754,754,754,754,754,754,754,754,754,754,754,754,754,756,757,757,758,758,758,758,758,758,759,760,761,763,764,769,773,777,779,780,783,787,790,795,799,811,820,847,869,893,931,939,947,952,955,956,966,971,978,981,984,989,993,996,1000,1005,1014,1019,1021,1022,1023,1029,1031,1035,1041,1053,1057,1065],"ymouse":[539,539,539,539,539,539,539,539,539,539,539,539,539,537,536,535,535,534,533,533,533,532,531,530,529,528,528,525,523,521,520,519,515,512,509,505,500,485,468,429,396,361,307,293,281,270,264,256,233,221,208,199,192,182,176,171,165,159,147,140,138,137,136,134,132,128,123,109,103,96],"timestamp_mouse":[12,39,47,68,87,108,129,147,169,188,209,229,249,268,288,308,327,349,368,388,408,428,447,468,487,508,527,549,567,587,608,628,648,667,688,708,728,748,769,789,808,828,849,867,887,908,927,949,967,988,1008,1027,1049,1067,1087,1107,1129,1149,1168,1189,1207,1230,1247,1267,1287,1308,1327,1349,1369,1387],"xSR":741.5,"ySR":469.95,"xT1":424.9,"yT1":0,"xT2":1058.1,"yT2":0,"toosoon":0,"cond_shown":"Incongruent","ratio_trial":300,"L_num":13,"L_den":26,"R_num":12,"R_den":15,"correct_side":2,"subjID":"PaulaPerilla3","gender":"1","school":"6","age":"12"},{"start_time":1551899762198,"click_time":1551899764175,"finger_time":1551899763195,"fix_duration":260.0059390973003,"trial":37,"RT":997,"MT":980,"sideResp":2,"stimulus":[],"xmouse":[785,785,785,785,785,785,785,785,785,785,785,785,785,785,785,785,785,785,785,785,785,785,785,785,785,785,785,785,785,785,785,785,785,785,785,785,785,785,785,785,785,785,785,785,785,785,785,785,785,785,784,784,783,783,782,781,781,777,774,771,768,765,753,746,737,730,722,714,711,709,708,705,701,685,675,663,651,645,645,645,645,645,646,682,702,722,741,755,786,809,861,901,941,996,1012,1023,1030,1054,1070],"ymouse":[497,497,497,497,497,497,497,497,497,497,497,497,497,497,497,497,497,497,497,497,497,497,497,497,495,494,492,491,490,490,490,490,489,486,484,483,483,483,481,478,477,475,473,473,473,473,473,472,470,467,464,462,456,454,451,448,444,431,419,410,401,391,366,351,338,326,314,302,298,294,292,287,283,265,251,238,225,215,215,215,214,214,213,213,213,213,213,213,203,194,173,157,140,118,109,103,100,94,90],"timestamp_mouse":[18,39,58,78,97,118,138,159,178,197,218,237,259,279,297,318,338,358,378,398,419,438,457,478,498,519,538,557,579,598,619,638,659,679,697,719,738,758,779,799,817,837,859,878,897,918,937,957,977,997,1017,1037,1059,1078,1097,1117,1137,1159,1178,1198,1218,1238,1258,1277,1297,1318,1337,1359,1377,1397,1418,1437,1457,1477,1498,1518,1539,1559,1577,1598,1618,1637,1657,1678,1699,1718,1738,1757,1777,1797,1817,1837,1858,1878,1898,1919,1938,1959,1977],"xSR":741.5,"ySR":469.95,"xT1":424.9,"yT1":0,"xT2":1058.1,"yT2":0,"toosoon":0,"cond_shown":"Incongruent","ratio_trial":100,"L_num":6,"L_den":10,"R_num":13,"R_den":26,"correct_side":1,"subjID":"PaulaPerilla3","gender":"1","school":"6","age":"12"},{"start_time":1551899766597,"click_time":1551899768255,"finger_time":1551899767776,"fix_duration":1360.104535480701,"trial":38,"RT":1179,"MT":479,"sideResp":2,"stimulus":[],"xmouse":[755,755,755,755,755,755,755,755,755,755,755,755,756,760,760,760,760,760,760,760,760,760,760,760,760,760,760,760,760,760,760,760,760,760,760,760,760,760,760,760,760,760,760,760,760,760,760,760,760,760,760,760,760,760,760,762,762,766,774,785,794,803,830,846,862,881,898,934,945,968,982,996,1010,1029,1032,1034,1036,1043,1049,1052,1055,1058,1060],"ymouse":[494,494,494,494,494,494,494,494,494,494,494,494,494,494,494,494,494,494,494,494,494,494,494,494,494,494,494,494,494,494,494,494,494,494,494,494,494,494,494,494,494,494,494,494,494,494,494,494,494,494,494,494,494,494,494,491,489,479,461,443,431,421,393,375,359,339,318,274,256,221,198,172,148,119,113,108,104,93,83,77,71,67,66],"timestamp_mouse":[19,43,60,79,98,119,140,159,180,199,218,239,259,279,299,318,339,360,379,398,418,439,458,478,499,519,539,559,579,598,620,639,659,678,699,720,739,758,779,800,819,839,859,880,898,918,939,958,979,1000,1020,1039,1059,1079,1099,1118,1139,1159,1179,1198,1218,1238,1260,1278,1300,1318,1338,1361,1379,1399,1419,1440,1459,1478,1498,1518,1538,1560,1578,1599,1619,1639,1658],"xSR":741.5,"ySR":469.95,"xT1":424.9,"yT1":0,"xT2":1058.1,"yT2":0,"toosoon":0,"cond_shown":"Congruent","ratio_trial":300,"L_num":1,"L_den":5,"R_num":3,"R_den":6,"correct_side":2,"subjID":"PaulaPerilla3","gender":"1","school":"6","age":"12"},{"start_time":1551899769777,"click_time":1551899771276,"finger_time":1551899770975,"fix_duration":358.6404873931323,"trial":39,"RT":1198,"MT":301,"sideResp":2,"stimulus":[],"xmouse":[796,796,796,796,796,796,796,796,796,796,796,796,796,796,796,796,796,796,796,796,796,796,796,796,796,796,796,796,796,796,796,796,796,796,796,796,796,796,796,796,796,796,796,796,796,796,796,796,796,796,796,796,796,796,796,796,796,796,800,806,846,873,915,935,963,972,979,987,996,1007,1027,1035,1050,1057,1061,1064],"ymouse":[493,493,493,493,493,493,493,493,493,493,493,493,493,493,493,493,493,493,493,493,493,493,493,493,493,493,493,493,493,493,493,493,493,493,493,493,493,493,493,493,493,493,493,493,493,493,493,493,493,493,493,493,493,493,493,493,493,493,484,476,405,362,304,278,242,230,220,209,200,184,156,142,120,108,101,97],"timestamp_mouse":[6,20,45,59,79,98,118,140,159,179,199,218,240,258,279,299,318,339,358,380,400,419,439,459,480,498,520,539,560,580,599,618,640,658,678,699,720,738,758,779,798,818,838,858,879,898,918,939,959,980,999,1018,1040,1059,1080,1099,1119,1138,1158,1178,1198,1218,1239,1259,1280,1298,1318,1339,1358,1380,1398,1419,1439,1459,1480,1499],"xSR":741.5,"ySR":469.95,"xT1":424.9,"yT1":0,"xT2":1058.1,"yT2":0,"toosoon":0,"cond_shown":"Incongruent","ratio_trial":300,"L_num":13,"L_den":26,"R_num":12,"R_den":15,"correct_side":2,"subjID":"PaulaPerilla3","gender":"1","school":"6","age":"12"},{"start_time":1551899773149,"click_time":1551899774737,"finger_time":1551899774075,"fix_duration":831.2702800293196,"trial":40,"RT":926,"MT":662,"sideResp":2,"stimulus":[],"xmouse":[779,779,779,779,779,779,779,779,779,779,779,779,779,779,779,779,779,779,779,779,779,779,779,779,779,779,779,779,779,779,779,779,779,779,779,779,779,779,787,794,820,828,832,832,832,837,842,846,852,856,861,871,879,885,891,905,911,919,927,936,943,958,973,983,992,1000,1012,1020,1027,1035,1046,1049,1051,1051,1051,1051,1051,1053,1057,1062],"ymouse":[520,520,520,520,520,520,520,520,520,520,520,520,520,520,520,520,520,520,520,520,520,520,520,520,520,520,520,520,520,520,520,520,520,520,520,520,520,520,516,513,502,498,497,497,497,493,490,487,481,475,462,431,406,386,365,319,298,277,260,245,231,204,178,162,148,133,108,98,87,75,55,50,49,48,48,48,48,48,48,48],"timestamp_mouse":[11,41,53,67,87,106,127,147,167,186,207,228,246,266,286,306,327,346,366,388,406,426,447,467,487,506,527,546,566,586,607,626,647,667,686,706,727,747,766,787,808,828,847,867,887,907,926,947,967,988,1007,1027,1046,1066,1087,1108,1126,1147,1168,1187,1206,1226,1247,1267,1286,1306,1326,1347,1366,1387,1408,1426,1446,1468,1486,1507,1526,1547,1566,1587],"xSR":741.5,"ySR":469.95,"xT1":424.9,"yT1":0,"xT2":1058.1,"yT2":0,"toosoon":0,"cond_shown":"Congruent","ratio_trial":100,"L_num":12,"L_den":30,"R_num":13,"R_den":26,"correct_side":2,"subjID":"PaulaPerilla3","gender":"1","school":"6","age":"12"},{"start_time":1551899781720,"click_time":1551899783175,"finger_time":1551899782715,"fix_duration":1223.124030481768,"trial":41,"RT":995,"MT":460,"sideResp":2,"stimulus":[],"xmouse":[806,806,806,806,806,806,806,806,806,806,806,806,806,806,806,806,806,806,806,806,806,806,806,806,806,806,806,806,806,806,806,806,807,807,807,807,807,807,807,807,807,807,807,807,807,807,807,811,814,825,842,860,889,900,922,933,955,970,984,996,1006,1017,1036,1047,1054,1059,1065,1069,1076,1084,1097,1113,1134],"ymouse":[514,514,514,514,514,514,514,514,514,514,514,514,514,514,514,514,514,514,514,514,514,514,514,514,514,514,514,514,514,514,514,514,514,514,514,514,514,514,514,514,514,514,514,505,496,496,491,483,479,467,455,443,417,405,390,382,363,350,339,326,315,302,275,256,246,239,227,219,205,184,155,117,53],"timestamp_mouse":[15,50,55,75,95,115,135,157,177,196,216,235,256,276,295,316,335,355,375,396,416,437,455,476,497,516,536,556,575,595,616,636,655,676,696,715,735,756,775,796,815,835,856,875,895,916,936,956,976,995,1015,1037,1055,1075,1095,1115,1136,1155,1175,1195,1215,1235,1255,1275,1296,1315,1336,1355,1376,1396,1415,1435,1455],"xSR":741.5,"ySR":469.95,"xT1":424.9,"yT1":0,"xT2":1058.1,"yT2":0,"toosoon":0,"cond_shown":"Incongruent","ratio_trial":100,"L_num":9,"L_den":10,"R_num":20,"R_den":25,"correct_side":1,"subjID":"PaulaPerilla3","gender":"1","school":"6","age":"12"},{"start_time":1551899784827,"click_time":1551899786615,"finger_time":1551899785195,"fix_duration":250,"trial":42,"RT":368,"MT":1420,"sideResp":1,"stimulus":[],"xmouse":[768,768,768,768,768,768,768,768,768,768,768,768,768,768,768,768,769,770,771,772,772,772,772,772,772,772,772,772,772,772,772,772,772,773,773,773,773,774,774,774,774,774,774,774,774,774,774,774,774,774,774,774,774,774,774,774,774,774,774,774,764,748,735,722,709,695,677,668,662,654,650,644,638,628,619,607,581,573,567,560,557,542,535,530,528,526,526,526,526,521],"ymouse":[480,480,480,480,480,480,480,480,480,480,480,480,480,480,478,477,472,470,468,466,465,463,463,463,462,461,460,460,460,460,460,460,460,459,457,457,456,455,455,455,455,455,455,455,455,455,455,455,455,455,455,455,455,455,455,455,455,455,455,450,434,409,394,373,348,308,238,205,181,156,145,132,125,116,110,103,96,94,93,93,92,90,89,89,88,87,87,87,87,87],"timestamp_mouse":[13,46,48,70,88,108,129,148,168,188,210,229,249,269,288,308,329,349,368,388,408,430,448,470,489,508,528,549,570,590,608,630,648,668,688,708,729,748,769,789,809,830,850,868,889,909,929,948,970,989,1009,1030,1049,1068,1090,1108,1130,1148,1169,1189,1209,1230,1248,1269,1289,1308,1330,1349,1368,1389,1408,1430,1449,1469,1488,1509,1530,1548,1569,1589,1610,1629,1649,1669,1688,1709,1728,1749,1768,1788],"xSR":741.5,"ySR":469.95,"xT1":424.9,"yT1":0,"xT2":1058.1,"yT2":0,"toosoon":0,"cond_shown":"Congruent","ratio_trial":300,"L_num":4,"L_den":10,"R_num":1,"R_den":10,"correct_side":1,"subjID":"PaulaPerilla3","gender":"1","school":"6","age":"12"},{"start_time":1551899789327,"click_time":1551899791236,"finger_time":1551899790757,"fix_duration":329.21756820312595,"trial":43,"RT":1430,"MT":479,"sideResp":2,"stimulus":[],"xmouse":[803,803,803,803,803,803,803,803,803,803,803,803,803,803,803,803,803,803,803,803,803,803,803,803,803,803,803,803,803,803,803,803,803,803,803,803,803,803,803,803,803,803,803,803,803,803,803,803,803,803,803,803,803,803,803,803,803,803,803,803,803,803,803,803,803,803,803,803,806,812,818,833,841,852,869,882,920,940,959,975,991,1002,1024,1039,1046,1052,1062,1064,1065,1067,1068,1070,1075,1082,1088,1094],"ymouse":[522,522,522,522,522,522,522,522,522,522,522,522,522,522,522,522,522,522,522,522,522,522,522,522,522,522,522,522,522,522,522,516,514,513,512,512,512,512,512,512,512,512,512,512,512,512,512,512,512,512,512,512,512,512,512,512,512,512,512,512,512,512,512,512,512,512,506,503,497,488,480,458,446,432,406,390,354,340,325,311,298,286,260,243,232,223,202,195,188,181,175,166,141,119,102,85],"timestamp_mouse":[12,33,50,68,88,109,130,149,168,189,208,230,249,268,290,309,329,349,368,390,409,428,448,470,488,508,530,549,568,588,608,629,649,669,690,709,728,750,768,788,808,829,849,870,889,909,930,950,969,988,1008,1029,1048,1070,1088,1109,1129,1150,1168,1188,1208,1230,1248,1269,1288,1309,1329,1348,1369,1388,1409,1430,1448,1469,1490,1509,1530,1548,1568,1588,1609,1630,1648,1669,1689,1708,1730,1748,1769,1788,1809,1828,1848,1869,1890,1909],"xSR":741.5,"ySR":469.95,"xT1":424.9,"yT1":0,"xT2":1058.1,"yT2":0,"toosoon":0,"cond_shown":"Incongruent","ratio_trial":200,"L_num":9,"L_den":15,"R_num":8,"R_den":10,"correct_side":2,"subjID":"PaulaPerilla3","gender":"1","school":"6","age":"12"},{"start_time":1551899794938,"click_time":1551899796496,"finger_time":1551899795975,"fix_duration":1300.5478284994124,"trial":44,"RT":1037,"MT":521,"sideResp":1,"stimulus":[],"xmouse":[784,784,784,784,784,784,784,784,784,784,784,784,784,784,784,784,784,784,784,784,784,784,784,784,784,784,784,784,784,784,784,784,784,784,784,784,784,784,784,784,784,784,784,784,784,784,784,784,783,782,774,769,767,765,764,763,763,761,759,757,750,745,738,726,719,701,694,685,675,664,652,632,616,601,581,541,525,514],"ymouse":[519,519,519,519,519,519,519,519,519,519,519,519,519,519,519,519,519,519,519,519,519,519,519,519,519,519,519,519,519,519,519,519,519,519,519,519,519,519,519,519,519,519,519,519,519,519,519,517,509,500,470,449,442,435,426,414,405,392,377,361,325,307,289,260,241,199,178,160,138,118,97,70,60,54,48,36,32,28],"timestamp_mouse":[18,51,58,78,98,118,137,158,177,198,219,239,258,278,297,319,338,357,377,398,417,438,457,477,498,518,538,557,577,597,619,637,658,677,698,717,739,757,778,797,819,837,858,879,897,918,938,957,978,998,1018,1037,1057,1079,1098,1118,1138,1158,1177,1198,1219,1238,1257,1277,1297,1319,1337,1358,1379,1398,1419,1439,1458,1478,1498,1518,1537,1558],"xSR":741.5,"ySR":469.95,"xT1":424.9,"yT1":0,"xT2":1058.1,"yT2":0,"toosoon":0,"cond_shown":"Congruent","ratio_trial":100,"L_num":8,"L_den":16,"R_num":2,"R_den":5,"correct_side":1,"subjID":"PaulaPerilla3","gender":"1","school":"6","age":"12"},{"start_time":1551899798871,"click_time":1551899800257,"finger_time":1551899799596,"fix_duration":1214.9568952484835,"trial":45,"RT":725,"MT":661,"sideResp":1,"stimulus":[],"xmouse":[759,759,759,759,759,759,759,759,759,759,759,759,759,759,759,759,759,760,761,762,762,762,763,764,764,764,764,764,764,764,764,764,764,764,764,764,764,764,763,759,757,755,750,746,728,716,706,698,696,695,692,689,686,684,675,671,664,659,653,645,620,609,600,589,578,547,543,532,528,520],"ymouse":[486,486,486,486,486,486,486,486,486,486,486,486,486,486,486,486,486,487,487,487,487,486,486,485,485,485,485,485,484,484,484,484,483,481,480,474,467,463,456,443,436,430,421,409,374,356,342,330,327,323,311,304,292,281,253,240,226,219,214,208,194,187,182,174,166,143,139,123,114,97],"timestamp_mouse":[12,35,44,64,85,104,124,144,164,185,205,225,246,264,284,306,325,345,366,384,405,424,444,464,484,505,524,545,565,585,606,625,645,665,685,705,725,744,764,786,804,825,844,864,886,905,924,944,964,985,1004,1025,1045,1064,1087,1104,1124,1145,1165,1184,1205,1224,1244,1266,1284,1305,1324,1344,1365,1386],"xSR":741.5,"ySR":469.95,"xT1":424.9,"yT1":0,"xT2":1058.1,"yT2":0,"toosoon":0,"cond_shown":"Congruent","ratio_trial":200,"L_num":8,"L_den":15,"R_num":7,"R_den":21,"correct_side":1,"subjID":"PaulaPerilla3","gender":"1","school":"6","age":"12"},{"start_time":1551899801967,"click_time":1551899803995,"finger_time":1551899803576,"fix_duration":709.1017521451272,"trial":46,"RT":1609,"MT":419,"sideResp":2,"stimulus":[],"xmouse":[775,775,775,775,775,775,775,775,775,775,775,775,775,775,775,775,775,775,775,775,776,776,776,778,778,779,780,780,781,781,782,782,782,783,783,783,783,783,783,783,783,783,783,783,783,783,783,783,783,783,783,783,783,783,783,783,783,783,783,783,783,783,783,783,783,783,783,783,783,783,783,783,783,783,783,784,786,787,789,797,805,816,840,861,925,961,994,1010,1022,1032,1034,1035,1036,1037,1038,1039,1042,1046,1052,1059,1062,1066],"ymouse":[524,523,523,523,523,522,522,522,522,522,522,522,522,522,522,522,522,522,521,520,519,517,516,514,512,511,509,508,508,506,504,504,504,503,503,503,503,503,503,503,503,503,503,503,503,503,503,503,503,503,503,503,503,503,503,503,503,503,503,503,503,503,503,503,503,503,503,503,503,503,503,503,503,503,502,501,498,495,491,475,459,441,408,381,316,289,268,257,249,231,224,213,204,198,191,176,167,158,143,128,117,99],"timestamp_mouse":[13,40,48,68,89,109,128,148,168,188,209,228,248,269,289,309,330,348,368,390,408,428,449,468,489,509,530,550,569,589,609,630,650,669,689,709,730,748,769,789,808,829,849,868,889,910,928,948,968,988,1009,1029,1048,1069,1089,1110,1129,1148,1169,1189,1209,1228,1248,1268,1290,1309,1330,1348,1368,1389,1408,1429,1450,1468,1488,1508,1529,1548,1570,1589,1609,1629,1650,1670,1689,1708,1729,1749,1769,1790,1808,1828,1849,1868,1888,1909,1929,1949,1969,1991,2008,2028],"xSR":741.5,"ySR":469.95,"xT1":424.9,"yT1":0,"xT2":1058.1,"yT2":0,"toosoon":0,"cond_shown":"Incongruent","ratio_trial":300,"L_num":4,"L_den":20,"R_num":2,"R_den":4,"correct_side":2,"subjID":"PaulaPerilla3","gender":"1","school":"6","age":"12"},{"start_time":1551899805664,"click_time":1551899807496,"finger_time":1551899806835,"fix_duration":885.1647609652969,"trial":47,"RT":1171,"MT":661,"sideResp":1,"stimulus":[],"xmouse":[782,782,782,782,782,782,782,782,782,782,782,783,783,783,784,784,784,784,784,784,784,784,784,784,784,784,784,784,784,785,785,785,785,785,785,785,785,785,785,785,785,785,785,785,785,785,785,785,785,785,785,785,785,785,785,785,785,783,781,779,777,776,770,764,754,733,721,713,706,701,693,682,667,651,636,613,601,595,591,586,583,581,579,575,571,561,560,560,556,536,526,520],"ymouse":[527,526,526,526,526,526,526,526,526,525,525,524,523,522,521,521,521,521,521,521,521,520,520,520,518,518,518,518,517,517,517,517,517,517,517,517,517,517,517,517,517,517,517,517,517,517,517,517,517,517,517,517,517,517,512,506,499,480,467,456,441,431,415,393,369,322,295,283,277,274,272,267,259,246,234,206,185,170,157,132,114,102,84,67,53,35,34,33,33,31,29,28],"timestamp_mouse":[13,41,52,72,92,112,131,153,172,191,211,232,251,271,292,313,331,352,371,392,412,431,452,472,492,512,531,552,572,593,611,633,653,672,692,713,731,752,771,791,813,832,851,872,891,912,933,951,971,992,1011,1031,1052,1072,1092,1111,1131,1152,1171,1193,1211,1231,1252,1271,1293,1312,1333,1351,1371,1393,1412,1432,1451,1472,1493,1512,1532,1553,1572,1592,1611,1632,1651,1671,1691,1712,1732,1752,1772,1793,1811,1832],"xSR":741.5,"ySR":469.95,"xT1":424.9,"yT1":0,"xT2":1058.1,"yT2":0,"toosoon":0,"cond_shown":"Incongruent","ratio_trial":200,"L_num":4,"L_den":6,"R_num":14,"R_den":30,"correct_side":1,"subjID":"PaulaPerilla3","gender":"1","school":"6","age":"12"},{"start_time":1551899809891,"click_time":1551899811277,"finger_time":1551899810596,"fix_duration":1333.3747481342998,"trial":48,"RT":705,"MT":681,"sideResp":2,"stimulus":[],"xmouse":[803,803,803,803,803,803,803,803,803,803,803,803,803,803,803,803,803,803,803,803,803,803,803,803,803,803,803,803,803,803,804,805,807,811,821,834,843,855,883,900,916,933,948,979,992,1011,1023,1034,1054,1063,1070,1078,1088,1096,1105,1107,1107,1107,1107,1107,1107,1108,1109,1110,1111,1111,1112,1112,1112,1112],"ymouse":[493,493,493,493,493,493,493,493,493,493,493,493,493,493,493,493,493,493,493,493,493,493,493,493,493,493,493,493,493,493,491,490,487,485,471,454,438,418,378,359,344,331,321,300,289,272,259,247,226,216,207,195,181,169,156,153,153,153,153,153,146,140,135,123,118,116,113,111,106,97],"timestamp_mouse":[9,25,45,65,86,105,125,145,165,185,204,226,246,266,286,305,324,345,365,386,405,425,444,464,486,506,525,545,566,586,604,625,646,666,686,705,725,744,766,784,805,826,845,866,886,906,924,944,966,984,1006,1024,1046,1066,1086,1105,1125,1146,1165,1185,1205,1225,1245,1267,1284,1305,1324,1345,1366,1385],"xSR":741.5,"ySR":469.95,"xT1":424.9,"yT1":0,"xT2":1058.1,"yT2":0,"toosoon":0,"cond_shown":"Congruent","ratio_trial":200,"L_num":3,"L_den":6,"R_num":14,"R_den":20,"correct_side":2,"subjID":"PaulaPerilla3","gender":"1","school":"6","age":"12"},{"start_time":1551899813231,"click_time":1551899815217,"finger_time":1551899814035,"fix_duration":1071.2851451219296,"trial":49,"RT":804,"MT":1182,"sideResp":1,"stimulus":[],"xmouse":[832,832,832,832,832,832,832,832,831,826,820,810,807,805,805,805,805,805,805,805,805,805,805,805,805,805,805,805,805,805,813,819,824,825,825,825,825,826,827,828,829,830,830,830,831,831,832,832,833,834,834,835,835,836,837,839,848,858,869,888,902,931,944,955,963,973,997,1007,1012,1018,1019,1020,1021,1022,1022,1023,1024,1024,1024,1024,1024,1024,1024,1024,1024,1024,1024,1010,964,913,871,815,788,755,701,647,564,534,529,523],"ymouse":[487,487,487,487,487,487,487,487,487,487,488,489,490,490,490,490,490,490,490,490,490,490,490,490,490,490,490,490,490,489,486,484,480,480,480,480,479,477,475,470,466,463,457,455,452,451,444,440,435,429,426,420,418,414,410,403,381,364,343,308,284,248,236,227,220,214,194,185,176,168,166,165,164,163,162,161,161,161,161,161,161,161,161,161,161,161,160,160,151,137,123,99,88,79,64,48,24,17,16,16],"timestamp_mouse":[11,25,45,66,85,106,125,144,166,185,204,225,245,266,286,305,326,346,366,386,404,426,446,465,485,506,525,546,565,585,605,625,646,664,686,705,726,746,765,786,804,826,845,865,885,905,927,945,964,986,1005,1026,1045,1065,1084,1105,1126,1145,1165,1186,1206,1226,1245,1266,1286,1304,1327,1345,1365,1386,1405,1426,1446,1465,1485,1505,1526,1545,1565,1586,1606,1626,1646,1665,1685,1705,1726,1746,1765,1784,1804,1826,1844,1866,1885,1904,1927,1944,1965,1986],"xSR":741.5,"ySR":469.95,"xT1":424.9,"yT1":0,"xT2":1058.1,"yT2":0,"toosoon":0,"cond_shown":"Congruent","ratio_trial":100,"L_num":2,"L_den":5,"R_num":6,"R_den":12,"correct_side":2,"subjID":"PaulaPerilla3","gender":"1","school":"6","age":"12"},{"start_time":1551899816878,"click_time":1551899818576,"finger_time":1551899818217,"fix_duration":500.82618014601786,"trial":50,"RT":1339,"MT":359,"sideResp":2,"stimulus":[],"xmouse":[796,796,796,796,796,796,796,796,796,796,796,796,796,796,796,796,797,799,800,800,800,801,801,801,801,801,801,801,801,801,801,801,801,801,801,801,801,801,801,801,801,801,801,801,801,801,801,801,801,801,801,801,801,801,802,804,804,804,804,804,804,804,804,806,813,826,847,879,959,988,999,1005,1006,1007,1007,1007,1012,1028,1039,1049,1059,1069,1081,1112],"ymouse":[508,507,507,507,507,507,507,507,507,507,507,507,507,507,507,507,505,499,496,495,494,493,493,492,492,492,492,492,492,492,492,492,492,492,492,492,492,492,492,492,492,492,492,492,492,492,492,492,492,492,492,492,492,492,489,486,485,484,484,484,484,484,484,483,476,467,451,426,347,312,296,283,281,278,278,277,270,245,227,201,178,152,125,50],"timestamp_mouse":[38,58,78,98,118,138,159,179,199,218,238,258,279,298,318,339,357,379,398,418,437,458,479,499,517,539,559,579,599,617,638,658,679,698,718,739,758,778,798,818,838,859,879,898,918,939,958,979,998,1018,1039,1059,1078,1098,1119,1138,1158,1178,1199,1218,1238,1258,1278,1299,1317,1339,1358,1379,1398,1417,1438,1458,1478,1499,1519,1538,1558,1579,1597,1619,1638,1657,1679,1698],"xSR":741.5,"ySR":469.95,"xT1":424.9,"yT1":0,"xT2":1058.1,"yT2":0,"toosoon":0,"cond_shown":"Incongruent","ratio_trial":300,"L_num":4,"L_den":20,"R_num":2,"R_den":4,"correct_side":2,"subjID":"PaulaPerilla3","gender":"1","school":"6","age":"12"},{"start_time":1551899821589,"click_time":1551899823398,"finger_time":1551899822975,"fix_duration":250,"trial":51,"RT":1386,"MT":423,"sideResp":1,"stimulus":[],"xmouse":[778,778,778,778,778,778,778,778,778,778,778,778,778,778,778,778,778,778,778,778,778,778,778,778,778,778,778,778,778,778,778,778,778,778,778,778,778,778,778,778,778,778,778,778,778,778,778,778,778,778,778,778,778,778,778,778,778,778,778,778,778,778,778,778,778,778,778,775,764,747,741,712,697,684,659,647,637,626,609,605,600,597,594,589,586,583,578,572,560,534,519],"ymouse":[502,502,502,502,502,502,502,502,502,502,502,502,502,502,502,502,502,502,502,502,502,502,502,502,502,502,502,502,502,502,502,502,502,502,502,502,502,502,502,502,502,502,502,502,502,502,502,502,502,502,502,502,502,502,502,502,502,502,502,502,502,502,502,502,502,502,502,500,485,466,461,442,430,413,370,343,318,289,230,204,167,143,122,91,79,71,65,62,59,55,52],"timestamp_mouse":[9,27,47,66,88,107,126,148,168,187,208,227,246,268,287,307,326,347,368,387,407,426,448,468,488,507,527,548,567,588,608,628,648,667,687,707,728,748,766,788,807,827,847,867,888,907,927,948,966,988,1007,1028,1047,1068,1088,1107,1127,1146,1167,1188,1208,1226,1247,1268,1287,1308,1327,1347,1367,1386,1407,1428,1447,1467,1487,1507,1527,1547,1567,1587,1608,1627,1647,1668,1687,1708,1727,1747,1767,1788,1808],"xSR":741.5,"ySR":469.95,"xT1":424.9,"yT1":0,"xT2":1058.1,"yT2":0,"toosoon":0,"cond_shown":"Incongruent","ratio_trial":100,"L_num":8,"L_den":16,"R_num":6,"R_den":10,"correct_side":2,"subjID":"PaulaPerilla3","gender":"1","school":"6","age":"12"},{"start_time":1551899824783,"click_time":1551899826858,"finger_time":1551899826077,"fix_duration":485.6500278724152,"trial":52,"RT":1294,"MT":781,"sideResp":1,"stimulus":[],"xmouse":[774,774,774,774,774,774,774,774,774,774,774,774,774,774,774,774,774,774,774,774,774,774,774,774,774,774,774,774,774,774,774,774,774,774,774,774,774,774,774,774,774,774,774,774,774,774,774,774,774,775,775,776,776,776,776,776,776,776,776,777,777,777,777,778,778,778,778,778,777,773,767,763,759,732,724,718,716,714,710,704,702,698,695,691,689,684,677,670,664,651,634,622,609,577,564,555,550,546,543,537,535,532,526,512],"ymouse":[481,481,481,480,480,480,480,480,480,480,480,480,480,480,480,480,480,480,480,480,480,480,480,480,480,480,480,480,480,480,480,480,480,480,480,480,480,480,480,480,480,480,479,478,478,477,477,477,477,476,476,475,475,475,475,475,475,475,474,474,474,473,472,470,468,465,460,456,444,431,408,393,378,329,311,299,293,288,278,268,262,256,251,247,245,241,236,229,224,211,197,189,180,155,143,133,124,118,109,101,97,93,81,64],"timestamp_mouse":[15,47,52,74,94,114,134,154,173,194,213,234,253,273,293,314,333,354,374,394,413,434,454,474,494,514,533,554,573,593,614,634,654,673,693,714,734,754,774,792,813,834,852,872,894,914,934,954,973,992,1014,1033,1053,1074,1093,1113,1133,1154,1174,1192,1214,1234,1252,1273,1294,1313,1334,1353,1374,1393,1414,1433,1454,1474,1493,1513,1533,1554,1574,1593,1613,1634,1653,1673,1692,1713,1734,1753,1774,1793,1814,1833,1853,1874,1893,1914,1933,1954,1975,1993,2013,2034,2053,2074],"xSR":741.5,"ySR":469.95,"xT1":424.9,"yT1":0,"xT2":1058.1,"yT2":0,"toosoon":0,"cond_shown":"Congruent","ratio_trial":100,"L_num":1,"L_den":2,"R_num":18,"R_den":30,"correct_side":2,"subjID":"PaulaPerilla3","gender":"1","school":"6","age":"12"},{"start_time":1551899831312,"click_time":1551899833197,"finger_time":1551899832796,"fix_duration":1315.7128390295486,"trial":53,"RT":1484,"MT":401,"sideResp":1,"stimulus":[],"xmouse":[818,818,818,818,818,818,818,818,818,818,818,818,818,818,818,818,818,818,818,818,818,818,818,818,818,818,818,818,818,818,818,818,818,818,818,818,818,818,818,818,818,818,818,818,818,818,818,818,818,818,818,818,818,818,818,818,818,818,818,818,818,818,818,818,818,818,818,818,818,818,818,818,818,818,816,812,807,801,786,771,764,758,751,749,749,743,736,716,701,680,653,619,570,550,524],"ymouse":[488,488,488,487,487,487,487,487,487,487,487,487,487,487,487,485,484,482,481,481,481,481,481,479,478,478,478,478,477,477,477,477,477,477,477,477,477,477,477,477,477,477,477,477,477,477,477,477,477,477,477,476,476,476,476,476,476,476,476,476,476,476,476,476,476,476,476,476,476,476,476,476,476,473,466,454,436,414,371,338,319,303,290,288,287,285,280,258,237,207,173,133,85,68,52],"timestamp_mouse":[12,24,44,64,85,104,124,144,165,185,204,224,244,264,284,304,325,345,365,383,404,424,444,464,483,505,524,544,565,585,605,624,644,664,684,705,724,743,764,784,804,825,845,865,884,904,924,944,965,984,1004,1024,1045,1064,1084,1105,1125,1144,1164,1185,1205,1224,1244,1265,1285,1304,1325,1344,1363,1385,1404,1423,1445,1465,1484,1503,1524,1543,1565,1584,1603,1625,1645,1664,1684,1705,1724,1745,1763,1784,1804,1824,1846,1864,1884],"xSR":741.5,"ySR":469.95,"xT1":424.9,"yT1":0,"xT2":1058.1,"yT2":0,"toosoon":0,"cond_shown":"Congruent","ratio_trial":300,"L_num":11,"L_den":22,"R_num":1,"R_den":5,"correct_side":1,"subjID":"PaulaPerilla3","gender":"1","school":"6","age":"12"},{"start_time":1551899836015,"click_time":1551899837096,"finger_time":1551899836717,"fix_duration":1475.1666495395539,"trial":54,"RT":702,"MT":379,"sideResp":1,"stimulus":[],"xmouse":[801,801,801,801,801,801,801,801,801,801,801,801,801,801,802,802,