[{"start_time":1551900160399,"click_time":1551900162020,"finger_time":1551900161279,"fix_duration":875.9735378808905,"trial":0,"RT":880,"MT":741,"sideResp":1,"stimulus":"img/750/equaldotanddens/L/14_Ratio_750_L_8_R_6.png","xmouse":[807,807,807,807,807,807,807,807,807,807,807,807,807,807,807,807,807,807,807,806,806,806,806,806,806,806,806,806,806,806,804,804,804,804,804,803,803,803,802,802,798,798,798,798,799,801,806,810,813,818,818,818,817,814,803,792,779,759,736,717,694,685,679,673,670,656,646,631,614,600,584,578,574,572,570,565,558,548,541,517,497,483],"ymouse":[554,554,554,554,554,554,554,554,554,554,554,554,554,554,554,554,554,554,554,554,554,554,554,554,554,554,554,554,554,554,554,554,554,554,554,553,553,553,551,549,528,512,493,473,433,411,384,357,331,295,284,278,273,265,247,236,225,213,201,190,172,159,152,145,141,133,131,129,127,127,127,127,127,126,126,125,123,121,118,108,100,96],"timestamp_mouse":[9,37,39,59,81,100,120,140,160,180,200,220,240,261,280,300,320,339,360,380,399,420,439,459,480,500,519,540,559,580,599,619,640,660,680,700,719,739,761,780,800,819,839,860,880,899,920,939,959,981,999,1021,1039,1059,1081,1099,1120,1140,1160,1180,1199,1219,1240,1260,1280,1299,1319,1340,1361,1380,1399,1419,1440,1459,1481,1500,1519,1540,1559,1582,1599,1620],"xSR":741.5,"ySR":501.8,"xT1":424.9,"yT1":0,"xT2":1058.1,"yT2":0,"toosoon":0,"cond_shown":"equaldotanddens","ratio_trial":750,"smaller_num":"6","larger_num":"8","correct_side":1,"subjID":"paulaperilla3","gender":"1","age":"12","school":"6","test":{"fix_dur":[250,1500],"timestim":300,"targets_dim":[100,100],"targets_relative_coord":[0.3,0.7],"size_stim":[880,420],"start_dim":[100,100],"size_start":[300,300],"size_fix":60,"samplingrate":20,"img_types":["equaldotsize","equaldotanddens","randomdotsizeEA"],"ratios":[250,500,750,900],"rep_conds":9,"nTrials":120,"trials_to_rest":500,"Trials_order":[79,24,114,26,108,23,71,16,106,12,28,10,34,55,48,0,40,85,2,83,88,56,18,66,3,68,75,21,57,118,17,98,44,109,7,74,15,77,20,39,11,32,31,97,58,62,76,100,70,38,111,99,103,30,82,72,110,107,69,115,73,6,61,93,94,35,22,78,51,84,117,8,105,96,59,13,104,25,53,92,45,54,4,113,116,19,47,119,43,29,1,89,5,36,80,50,86,101,81,65,63,52,87,49,90,112,42,60,9,46,41,27,102,64,33,95,14,37,91,67],"cond_shown":["equaldotanddens","equaldotsize","equaldotsize","randomdotsizeEA","equaldotsize","randomdotsizeEA","randomdotsizeEA","equaldotanddens","equaldotanddens","equaldotsize","equaldotanddens","equaldotanddens","equaldotanddens","equaldotanddens","equaldotsize","equaldotsize","equaldotanddens","equaldotanddens","randomdotsizeEA","randomdotsizeEA","equaldotanddens","randomdotsizeEA","equaldotsize","equaldotsize","equaldotsize","randomdotsizeEA","equaldotsize","equaldotsize","equaldotsize","equaldotanddens","randomdotsizeEA","randomdotsizeEA","randomdotsizeEA","equaldotanddens","equaldotanddens","randomdotsizeEA","equaldotsize","randomdotsizeEA","randomdotsizeEA","equaldotsize","randomdotsizeEA","randomdotsizeEA","equaldotanddens","equaldotanddens","equaldotanddens","randomdotsizeEA","equaldotanddens","equaldotanddens","equaldotanddens","randomdotsizeEA","equaldotsize","equaldotsize","equaldotanddens","equaldotsize","equaldotanddens","equaldotsize","randomdotsizeEA","randomdotsizeEA","equaldotsize","equaldotanddens","equaldotanddens","equaldotsize","equaldotanddens","equaldotsize","equaldotanddens","randomdotsizeEA","equaldotanddens","equaldotsize","equaldotsize","equaldotsize","equaldotsize","randomdotsizeEA","equaldotsize","equaldotsize","randomdotsizeEA","equaldotanddens","randomdotsizeEA","equaldotanddens","randomdotsizeEA","randomdotsizeEA","equaldotsize","equaldotsize","equaldotanddens","randomdotsizeEA","randomdotsizeEA","equaldotanddens","randomdotsizeEA","randomdotsizeEA","equaldotanddens","randomdotsizeEA","equaldotanddens","randomdotsizeEA","randomdotsizeEA","equaldotsize","randomdotsizeEA","randomdotsizeEA","randomdotsizeEA","randomdotsizeEA","equaldotsize","randomdotsizeEA","equaldotsize","equaldotanddens","equaldotsize","equaldotanddens","equaldotsize","equaldotanddens","equaldotsize","equaldotsize","equaldotsize","equaldotanddens","randomdotsizeEA","equaldotsize","equaldotsize","equaldotanddens","equaldotsize","randomdotsizeEA","randomdotsizeEA","equaldotanddens","equaldotanddens","equaldotanddens"],"ratio_trial":[750,250,750,250,250,900,900,500,900,250,500,900,900,750,250,250,500,250,250,900,500,750,750,750,500,750,500,900,900,900,500,250,750,250,750,250,500,500,750,500,900,750,750,250,900,250,500,500,900,250,500,500,750,750,900,250,250,900,900,750,250,750,250,900,900,900,900,750,500,250,900,750,900,250,900,250,750,250,500,750,900,750,500,500,750,750,900,900,750,500,250,500,500,250,750,250,250,500,900,500,500,500,500,250,750,500,750,250,900,900,500,500,750,500,900,900,250,250,750,750],"smaller_num":["6","3","6","5","5","18","9","5","18","6","3","18","18","3","5","6","5","2","4","18","6","6","15","6","6","6","4","18","18","9","6","6","3","3","6","4","5","1","18","3","18","15","6","6","18","2","6","1","18","5","6","9","15","3","18","6","3","9","18","6","3","6","6","9","18","18","18","3","1","3","18","3","9","3","9","2","15","3","6","6","18","3","9","2","6","6","9","18","15","9","3","6","4","4","3","2","3","5","18","9","6","9","2","6","15","2","15","3","9","18","3","9","6","10","18","9","3","1","3","6"],"larger_num":["8","12","8","20","20","20","10","10","20","24","6","20","20","4","20","24","10","8","16","20","12","8","20","8","12","8","8","20","20","10","12","24","4","12","8","16","10","2","24","6","20","20","8","24","20","8","12","2","20","20","12","18","20","4","20","24","12","10","20","8","12","8","24","10","20","20","20","4","2","12","20","4","10","12","10","8","20","12","12","8","20","4","18","4","8","8","10","20","20","18","12","12","8","16","4","8","12","10","20","18","12","18","4","24","20","4","20","12","10","20","6","18","8","20","20","10","12","4","4","8"],"correct_side":[1,2,2,2,2,2,1,2,2,2,2,2,1,2,2,2,1,1,1,1,1,2,2,1,1,1,1,2,1,2,1,1,1,1,2,2,1,2,1,2,1,2,2,2,1,1,1,2,1,2,1,1,2,2,1,1,1,2,1,1,2,2,2,2,2,1,1,2,2,1,1,1,1,1,2,2,2,2,1,2,2,1,1,1,1,2,2,2,1,2,1,1,1,1,1,1,2,1,2,1,1,2,1,1,1,1,2,2,2,1,2,2,1,2,1,2,2,2,2,2],"img_shown":["img/750/equaldotanddens/L/14_Ratio_750_L_8_R_6.png","img/250/equaldotsize/R/4_Ratio_250_L_3_R_12.png","img/750/equaldotsize/R/2_Ratio_750_L_6_R_8.png","img/250/randomdotsizeEA/R/12_Ratio_250_L_5_R_20.png","img/250/equaldotsize/R/12_Ratio_250_L_5_R_20.png","img/900/randomdotsizeEA/R/11_Ratio_900_L_18_R_20.png","img/900/randomdotsizeEA/L/1_Ratio_900_L_10_R_9.png","img/500/equaldotanddens/R/14_Ratio_500_L_5_R_10.png","img/900/equaldotanddens/R/11_Ratio_900_L_18_R_20.png","img/250/equaldotsize/R/6_Ratio_250_L_6_R_24.png","img/500/equaldotanddens/R/2_Ratio_500_L_3_R_6.png","img/900/equaldotanddens/R/9_Ratio_900_L_18_R_20.png","img/900/equaldotanddens/L/10_Ratio_900_L_20_R_18.png","img/750/equaldotanddens/R/7_Ratio_750_L_3_R_4.png","img/250/equaldotsize/R/12_Ratio_250_L_5_R_20.png","img/250/equaldotsize/R/6_Ratio_250_L_6_R_24.png","img/500/equaldotanddens/L/7_Ratio_500_L_10_R_5.png","img/250/equaldotanddens/L/1_Ratio_250_L_8_R_2.png","img/250/randomdotsizeEA/L/2_Ratio_250_L_16_R_4.png","img/900/randomdotsizeEA/L/8_Ratio_900_L_20_R_18.png","img/500/equaldotanddens/L/11_Ratio_500_L_12_R_6.png","img/750/randomdotsizeEA/R/2_Ratio_750_L_6_R_8.png","img/750/equaldotsize/R/4_Ratio_750_L_15_R_20.png","img/750/equaldotsize/L/14_Ratio_750_L_8_R_6.png","img/500/equaldotsize/L/11_Ratio_500_L_12_R_6.png","img/750/randomdotsizeEA/L/13_Ratio_750_L_8_R_6.png","img/500/equaldotsize/L/8_Ratio_500_L_8_R_4.png","img/900/equaldotsize/R/9_Ratio_900_L_18_R_20.png","img/900/equaldotsize/L/2_Ratio_900_L_20_R_18.png","img/900/equaldotanddens/R/5_Ratio_900_L_9_R_10.png","img/500/randomdotsizeEA/L/13_Ratio_500_L_12_R_6.png","img/250/randomdotsizeEA/L/5_Ratio_250_L_24_R_6.png","img/750/randomdotsizeEA/L/9_Ratio_750_L_4_R_3.png","img/250/equaldotanddens/L/14_Ratio_250_L_12_R_3.png","img/750/equaldotanddens/R/2_Ratio_750_L_6_R_8.png","img/250/randomdotsizeEA/R/10_Ratio_250_L_4_R_16.png","img/500/equaldotsize/L/7_Ratio_500_L_10_R_5.png","img/500/randomdotsizeEA/R/15_Ratio_500_L_1_R_2.png","img/750/randomdotsizeEA/L/6_Ratio_750_L_24_R_18.png","img/500/equaldotsize/R/2_Ratio_500_L_3_R_6.png","img/900/randomdotsizeEA/L/2_Ratio_900_L_20_R_18.png","img/750/randomdotsizeEA/R/5_Ratio_750_L_15_R_20.png","img/750/equaldotanddens/R/2_Ratio_750_L_6_R_8.png","img/250/equaldotanddens/R/6_Ratio_250_L_6_R_24.png","img/900/equaldotanddens/L/10_Ratio_900_L_20_R_18.png","img/250/randomdotsizeEA/L/1_Ratio_250_L_8_R_2.png","img/500/equaldotanddens/L/13_Ratio_500_L_12_R_6.png","img/500/equaldotanddens/R/12_Ratio_500_L_1_R_2.png","img/900/equaldotanddens/L/10_Ratio_900_L_20_R_18.png","img/250/randomdotsizeEA/R/12_Ratio_250_L_5_R_20.png","img/500/equaldotsize/L/13_Ratio_500_L_12_R_6.png","img/500/equaldotsize/L/4_Ratio_500_L_18_R_9.png","img/750/equaldotanddens/R/4_Ratio_750_L_15_R_20.png","img/750/equaldotsize/R/7_Ratio_750_L_3_R_4.png","img/900/equaldotanddens/L/2_Ratio_900_L_20_R_18.png","img/250/equaldotsize/L/5_Ratio_250_L_24_R_6.png","img/250/randomdotsizeEA/L/14_Ratio_250_L_12_R_3.png","img/900/randomdotsizeEA/R/6_Ratio_900_L_9_R_10.png","img/900/equaldotsize/L/8_Ratio_900_L_20_R_18.png","img/750/equaldotanddens/L/14_Ratio_750_L_8_R_6.png","img/250/equaldotanddens/R/11_Ratio_250_L_3_R_12.png","img/750/equaldotsize/R/2_Ratio_750_L_6_R_8.png","img/250/equaldotanddens/R/6_Ratio_250_L_6_R_24.png","img/900/equaldotsize/R/3_Ratio_900_L_9_R_10.png","img/900/equaldotanddens/R/14_Ratio_900_L_18_R_20.png","img/900/randomdotsizeEA/L/10_Ratio_900_L_20_R_18.png","img/900/equaldotanddens/L/8_Ratio_900_L_20_R_18.png","img/750/equaldotsize/R/12_Ratio_750_L_3_R_4.png","img/500/equaldotsize/R/12_Ratio_500_L_1_R_2.png","img/250/equaldotsize/L/15_Ratio_250_L_12_R_3.png","img/900/equaldotsize/L/2_Ratio_900_L_20_R_18.png","img/750/randomdotsizeEA/L/10_Ratio_750_L_4_R_3.png","img/900/equaldotsize/L/1_Ratio_900_L_10_R_9.png","img/250/equaldotsize/L/15_Ratio_250_L_12_R_3.png","img/900/randomdotsizeEA/R/7_Ratio_900_L_9_R_10.png","img/250/equaldotanddens/R/13_Ratio_250_L_2_R_8.png","img/750/randomdotsizeEA/R/3_Ratio_750_L_15_R_20.png","img/250/equaldotanddens/R/4_Ratio_250_L_3_R_12.png","img/500/randomdotsizeEA/L/11_Ratio_500_L_12_R_6.png","img/750/randomdotsizeEA/R/2_Ratio_750_L_6_R_8.png","img/900/equaldotsize/R/11_Ratio_900_L_18_R_20.png","img/750/equaldotsize/L/8_Ratio_750_L_4_R_3.png","img/500/equaldotanddens/L/4_Ratio_500_L_18_R_9.png","img/500/randomdotsizeEA/L/5_Ratio_500_L_4_R_2.png","img/750/randomdotsizeEA/L/13_Ratio_750_L_8_R_6.png","img/750/equaldotanddens/R/2_Ratio_750_L_6_R_8.png","img/900/randomdotsizeEA/R/7_Ratio_900_L_9_R_10.png","img/900/randomdotsizeEA/R/9_Ratio_900_L_18_R_20.png","img/750/equaldotanddens/L/1_Ratio_750_L_20_R_15.png","img/500/randomdotsizeEA/R/1_Ratio_500_L_9_R_18.png","img/250/equaldotanddens/L/15_Ratio_250_L_12_R_3.png","img/500/randomdotsizeEA/L/13_Ratio_500_L_12_R_6.png","img/500/randomdotsizeEA/L/8_Ratio_500_L_8_R_4.png","img/250/equaldotsize/L/2_Ratio_250_L_16_R_4.png","img/750/randomdotsizeEA/L/8_Ratio_750_L_4_R_3.png","img/250/randomdotsizeEA/L/3_Ratio_250_L_8_R_2.png","img/250/randomdotsizeEA/R/9_Ratio_250_L_3_R_12.png","img/500/randomdotsizeEA/L/7_Ratio_500_L_10_R_5.png","img/900/equaldotsize/R/13_Ratio_900_L_18_R_20.png","img/500/randomdotsizeEA/L/4_Ratio_500_L_18_R_9.png","img/500/equaldotsize/L/13_Ratio_500_L_12_R_6.png","img/500/equaldotanddens/R/1_Ratio_500_L_9_R_18.png","img/500/equaldotsize/L/10_Ratio_500_L_4_R_2.png","img/250/equaldotanddens/L/5_Ratio_250_L_24_R_6.png","img/750/equaldotsize/L/1_Ratio_750_L_20_R_15.png","img/500/equaldotanddens/L/10_Ratio_500_L_4_R_2.png","img/750/equaldotsize/R/5_Ratio_750_L_15_R_20.png","img/250/equaldotsize/R/9_Ratio_250_L_3_R_12.png","img/900/equaldotsize/R/6_Ratio_900_L_9_R_10.png","img/900/equaldotanddens/L/10_Ratio_900_L_20_R_18.png","img/500/randomdotsizeEA/R/2_Ratio_500_L_3_R_6.png","img/500/equaldotsize/R/6_Ratio_500_L_9_R_18.png","img/750/equaldotsize/L/13_Ratio_750_L_8_R_6.png","img/500/equaldotanddens/R/3_Ratio_500_L_10_R_20.png","img/900/equaldotsize/L/2_Ratio_900_L_20_R_18.png","img/900/randomdotsizeEA/R/7_Ratio_900_L_9_R_10.png","img/250/randomdotsizeEA/R/11_Ratio_250_L_3_R_12.png","img/250/equaldotanddens/R/8_Ratio_250_L_1_R_4.png","img/750/equaldotanddens/R/12_Ratio_750_L_3_R_4.png","img/750/equaldotanddens/R/2_Ratio_750_L_6_R_8.png"],"Rat0":[["12_Ratio_0_L_9_R_0.png","13_Ratio_0_L_6_R_0.png","5_Ratio_0_L_2_R_0.png","6_Ratio_0_L_4_R_0.png","8_Ratio_0_L_6_R_0.png"],["1_Ratio_0_L_0_R_17.png","10_Ratio_0_L_0_R_22.png","11_Ratio_0_L_0_R_1.png","14_Ratio_0_L_0_R_24.png","15_Ratio_0_L_0_R_4.png","2_Ratio_0_L_0_R_5.png","3_Ratio_0_L_0_R_17.png","4_Ratio_0_L_0_R_7.png","7_Ratio_0_L_0_R_19.png","9_Ratio_0_L_0_R_15.png"]],"Rat250":[["1_Ratio_250_L_8_R_2.png","14_Ratio_250_L_12_R_3.png","15_Ratio_250_L_12_R_3.png","2_Ratio_250_L_16_R_4.png","3_Ratio_250_L_8_R_2.png","5_Ratio_250_L_24_R_6.png","7_Ratio_250_L_8_R_2.png"],["10_Ratio_250_L_4_R_16.png","11_Ratio_250_L_3_R_12.png","12_Ratio_250_L_5_R_20.png","13_Ratio_250_L_2_R_8.png","4_Ratio_250_L_3_R_12.png","6_Ratio_250_L_6_R_24.png","8_Ratio_250_L_1_R_4.png","9_Ratio_250_L_3_R_12.png"]],"Rat500":[["10_Ratio_500_L_4_R_2.png","11_Ratio_500_L_12_R_6.png","13_Ratio_500_L_12_R_6.png","4_Ratio_500_L_18_R_9.png","5_Ratio_500_L_4_R_2.png","7_Ratio_500_L_10_R_5.png","8_Ratio_500_L_8_R_4.png"],["1_Ratio_500_L_9_R_18.png","12_Ratio_500_L_1_R_2.png","14_Ratio_500_L_5_R_10.png","15_Ratio_500_L_1_R_2.png","2_Ratio_500_L_3_R_6.png","3_Ratio_500_L_10_R_20.png","6_Ratio_500_L_9_R_18.png","9_Ratio_500_L_2_R_4.png"]],"Rat750":[["1_Ratio_750_L_20_R_15.png","10_Ratio_750_L_4_R_3.png","13_Ratio_750_L_8_R_6.png","14_Ratio_750_L_8_R_6.png","6_Ratio_750_L_24_R_18.png","8_Ratio_750_L_4_R_3.png","9_Ratio_750_L_4_R_3.png"],["11_Ratio_750_L_12_R_16.png","12_Ratio_750_L_3_R_4.png","15_Ratio_750_L_9_R_12.png","2_Ratio_750_L_6_R_8.png","3_Ratio_750_L_15_R_20.png","4_Ratio_750_L_15_R_20.png","5_Ratio_750_L_15_R_20.png","7_Ratio_750_L_3_R_4.png"]],"Rat900":[["1_Ratio_900_L_10_R_9.png","10_Ratio_900_L_20_R_18.png","2_Ratio_900_L_20_R_18.png","4_Ratio_900_L_20_R_18.png","8_Ratio_900_L_20_R_18.png"],["11_Ratio_900_L_18_R_20.png","12_Ratio_900_L_18_R_20.png","13_Ratio_900_L_18_R_20.png","14_Ratio_900_L_18_R_20.png","15_Ratio_900_L_9_R_10.png","3_Ratio_900_L_9_R_10.png","5_Ratio_900_L_9_R_10.png","6_Ratio_900_L_9_R_10.png","7_Ratio_900_L_9_R_10.png","9_Ratio_900_L_18_R_20.png"]],"Rat1000":[["10_Ratio_1000_L_16_R_16.png","11_Ratio_1000_L_6_R_6.png","12_Ratio_1000_L_14_R_14.png","13_Ratio_1000_L_20_R_20.png","15_Ratio_1000_L_15_R_15.png","2_Ratio_1000_L_17_R_17.png","4_Ratio_1000_L_9_R_9.png","5_Ratio_1000_L_6_R_6.png","6_Ratio_1000_L_19_R_19.png","8_Ratio_1000_L_14_R_14.png","9_Ratio_1000_L_25_R_25.png"],["1_Ratio_1000_L_1_R_1.png","14_Ratio_1000_L_17_R_17.png","3_Ratio_1000_L_17_R_17.png","7_Ratio_1000_L_6_R_6.png"]]}},{"start_time":1551900164355,"click_time":1551900165019,"finger_time":1551900164918,"fix_duration":1334.3739543705067,"trial":1,"RT":563,"MT":101,"sideResp":2,"stimulus":"img/250/equaldotsize/R/4_Ratio_250_L_3_R_12.png","xmouse":[783,783,783,783,783,783,783,783,783,783,783,783,783,783,783,783,783,783,783,783,783,783,783,783,783,784,786,796,801,804,812,883,955,1070],"ymouse":[503,503,503,503,503,503,503,503,503,503,503,503,503,503,503,503,503,503,503,503,503,503,503,503,503,503,500,471,450,425,391,252,157,21],"timestamp_mouse":[9,23,43,71,83,104,124,143,164,184,203,223,243,264,283,303,325,344,364,384,403,423,443,463,483,504,524,544,563,583,604,625,643,663],"xSR":741.5,"ySR":469.95,"xT1":424.9,"yT1":0,"xT2":1058.1,"yT2":0,"toosoon":0,"cond_shown":"equaldotsize","ratio_trial":250,"smaller_num":"3","larger_num":"12","correct_side":2,"subjID":"paulaperilla3","gender":"1","age":"12","school":"6"},{"start_time":1551900166996,"click_time":1551900168680,"finger_time":1551900167618,"fix_duration":717.7898969519281,"trial":2,"RT":622,"MT":1062,"sideResp":2,"stimulus":"img/750/equaldotsize/R/2_Ratio_750_L_6_R_8.png","xmouse":[807,807,807,807,807,807,807,807,807,807,807,807,807,807,807,807,807,807,807,807,807,809,813,816,818,818,818,818,819,820,820,820,819,807,754,706,659,620,593,575,573,573,571,568,564,557,555,554,553,547,545,545,545,545,545,545,545,545,552,559,589,603,621,634,646,649,652,661,681,762,854,882,882,882,882,882,882,882,882,882,882,882,882,1049,1073],"ymouse":[557,557,557,557,557,557,557,557,557,557,557,557,557,557,557,557,557,557,557,557,534,524,514,506,502,501,501,501,498,493,480,467,446,406,272,192,117,64,34,21,21,21,21,21,21,21,22,25,29,39,41,42,42,42,42,42,44,45,47,47,51,54,56,57,58,58,58,52,45,23,6,3,3,3,3,3,3,3,3,3,3,3,3,12,30],"timestamp_mouse":[11,24,43,65,83,102,122,144,163,182,203,222,243,262,284,303,322,342,363,382,403,422,443,462,483,502,522,543,562,584,603,622,643,664,684,702,723,742,762,784,802,823,843,862,882,902,922,944,962,983,1002,1022,1043,1063,1083,1103,1123,1143,1162,1184,1204,1223,1243,1262,1283,1302,1322,1342,1362,1385,1402,1422,1443,1462,1483,1503,1522,1542,1562,1582,1603,1622,1642,1663,1684],"xSR":741.5,"ySR":469.95,"xT1":424.9,"yT1":0,"xT2":1058.1,"yT2":0,"toosoon":0,"cond_shown":"equaldotsize","ratio_trial":750,"smaller_num":"6","larger_num":"8","correct_side":2,"subjID":"paulaperilla3","gender":"1","age":"12","school":"6"},{"start_time":1551900171112,"click_time":1551900172539,"finger_time":1551900171979,"fix_duration":1211.1683503449508,"trial":3,"RT":867,"MT":560,"sideResp":2,"stimulus":"img/250/randomdotsizeEA/R/12_Ratio_250_L_5_R_20.png","xmouse":[807,807,807,807,807,807,807,807,807,807,807,807,807,807,807,807,807,807,807,807,807,807,807,807,807,808,810,810,811,811,811,811,811,811,811,811,811,811,811,811,811,812,813,814,814,814,814,819,829,872,900,930,949,960,962,962,962,965,971,979,983,989,994,1004,1007,1012,1015,1017,1030,1041,1050,1060],"ymouse":[518,518,518,518,518,518,518,518,518,518,518,518,518,518,518,518,518,518,518,518,518,518,518,518,518,518,516,515,513,512,511,511,510,510,509,509,507,506,502,498,493,485,476,448,423,404,381,347,301,177,110,57,23,7,4,4,4,3,1,0,0,0,0,0,0,0,0,0,0,3,7,14],"timestamp_mouse":[9,26,47,67,86,108,127,147,166,187,206,227,247,266,286,307,326,347,368,386,407,426,447,466,486,507,527,547,567,587,607,627,647,667,686,707,727,746,767,787,808,828,846,867,886,906,927,948,967,987,1007,1028,1046,1066,1086,1107,1128,1147,1167,1186,1207,1226,1247,1268,1286,1308,1326,1346,1368,1386,1406,1427],"xSR":741.5,"ySR":469.95,"xT1":424.9,"yT1":0,"xT2":1058.1,"yT2":0,"toosoon":0,"cond_shown":"randomdotsizeEA","ratio_trial":250,"smaller_num":"5","larger_num":"20","correct_side":2,"subjID":"paulaperilla3","gender":"1","age":"12","school":"6"},{"start_time":1551900176421,"click_time":1551900177318,"finger_time":1551900176880,"fix_duration":1260.4512895029627,"trial":4,"RT":459,"MT":438,"sideResp":2,"stimulus":"img/250/equaldotsize/R/12_Ratio_250_L_5_R_20.png","xmouse":[824,824,824,824,824,824,824,824,824,824,824,824,824,824,825,825,825,825,825,825,825,825,827,833,839,854,874,893,937,969,969,969,969,969,969,969,969,969,969,969,969,969,969,1056,1061],"ymouse":[494,494,494,494,494,494,494,494,494,494,494,494,494,494,493,493,491,490,488,487,485,481,465,450,428,394,336,265,109,2,2,2,2,2,2,2,2,2,2,2,2,2,2,8,17],"timestamp_mouse":[19,38,58,77,97,117,138,158,178,197,217,237,257,278,297,318,339,358,377,397,418,437,458,478,497,517,538,559,579,597,617,638,658,678,697,717,737,758,778,798,818,837,857,877,897],"xSR":741.5,"ySR":469.95,"xT1":424.9,"yT1":0,"xT2":1058.1,"yT2":0,"toosoon":0,"cond_shown":"equaldotsize","ratio_trial":250,"smaller_num":"5","larger_num":"20","correct_side":2,"subjID":"paulaperilla3","gender":"1","age":"12","school":"6"},{"start_time":1551900179050,"click_time":1551900180139,"finger_time":1551900179479,"fix_duration":409.8837437011285,"trial":5,"RT":429,"MT":660,"sideResp":1,"stimulus":"img/900/randomdotsizeEA/R/11_Ratio_900_L_18_R_20.png","xmouse":[780,780,780,780,780,780,780,780,780,780,780,780,780,780,780,780,780,780,783,790,794,795,796,796,796,796,796,796,796,796,796,796,796,796,796,796,794,788,780,771,759,701,655,631,631,631,631,631,631,631,631,631,631,631,431],"ymouse":[490,490,490,490,490,490,490,490,490,490,490,490,490,490,490,490,490,490,487,477,471,468,467,467,467,467,467,467,467,467,466,464,445,431,415,395,353,316,288,260,221,109,41,6,6,6,6,6,6,6,6,6,6,6,2],"timestamp_mouse":[9,28,60,68,89,108,128,149,169,188,209,228,248,269,288,308,330,349,368,389,409,429,449,468,489,509,530,549,568,589,608,629,648,668,690,709,730,748,769,788,808,830,848,868,889,908,929,948,968,989,1009,1030,1048,1069,1089],"xSR":741.5,"ySR":469.95,"xT1":424.9,"yT1":0,"xT2":1058.1,"yT2":0,"toosoon":0,"cond_shown":"randomdotsizeEA","ratio_trial":900,"smaller_num":"18","larger_num":"20","correct_side":2,"subjID":"paulaperilla3","gender":"1","age":"12","school":"6"},{"start_time":1551900182995,"click_time":1551900184040,"finger_time":1551900183580,"fix_duration":674.4332103657025,"trial":6,"RT":585,"MT":460,"sideResp":1,"stimulus":"img/900/randomdotsizeEA/L/1_Ratio_900_L_10_R_9.png","xmouse":[772,772,772,772,772,772,772,772,772,772,772,772,772,772,772,772,772,772,772,772,772,772,772,772,772,772,772,772,770,758,742,730,718,709,698,694,692,689,680,654,647,645,643,639,634,622,616,609,600,588,551,527,519],"ymouse":[519,519,519,519,519,519,519,519,519,519,519,519,519,519,519,519,519,519,519,519,519,519,519,519,519,519,511,504,489,441,389,346,304,272,233,222,216,212,208,200,197,195,192,185,179,159,148,138,126,111,83,68,62],"timestamp_mouse":[13,28,43,64,83,104,124,143,163,183,205,224,245,264,284,303,323,343,364,383,403,425,443,463,483,504,524,544,564,585,603,623,643,664,685,703,723,744,763,785,803,824,843,863,883,903,924,943,964,985,1004,1024,1045],"xSR":741.5,"ySR":469.95,"xT1":424.9,"yT1":0,"xT2":1058.1,"yT2":0,"toosoon":0,"cond_shown":"randomdotsizeEA","ratio_trial":900,"smaller_num":"9","larger_num":"10","correct_side":1,"subjID":"paulaperilla3","gender":"1","age":"12","school":"6"},{"start_time":1551900185834,"click_time":1551900187079,"finger_time":1551900186438,"fix_duration":833.0779770144806,"trial":7,"RT":604,"MT":641,"sideResp":2,"stimulus":"img/500/equaldotanddens/R/14_Ratio_500_L_5_R_10.png","xmouse":[799,799,799,799,799,799,799,799,799,799,799,799,799,799,799,799,799,799,799,799,799,799,799,799,799,799,800,803,821,832,850,877,926,943,951,956,959,960,960,960,960,962,969,974,978,982,984,989,992,995,996,996,999,1002,1008,1014,1019,1034,1044,1049,1056,1064,1074],"ymouse":[536,536,536,536,536,536,536,536,536,536,536,536,536,536,536,536,536,536,536,536,535,535,535,534,531,528,524,519,491,473,440,399,314,276,250,230,221,219,219,218,218,214,205,202,199,196,194,190,183,178,175,172,170,166,159,152,145,133,126,122,117,112,97],"timestamp_mouse":[9,25,44,67,86,106,125,145,164,184,205,226,245,264,284,304,324,345,364,384,405,426,445,465,485,504,524,546,565,585,604,625,646,664,685,704,725,745,764,784,804,824,846,864,884,904,925,944,965,984,1004,1026,1046,1064,1085,1105,1126,1146,1164,1185,1204,1225,1245],"xSR":741.5,"ySR":469.95,"xT1":424.9,"yT1":0,"xT2":1058.1,"yT2":0,"toosoon":0,"cond_shown":"equaldotanddens","ratio_trial":500,"smaller_num":"5","larger_num":"10","correct_side":2,"subjID":"paulaperilla3","gender":"1","age":"12","school":"6"},{"start_time":1551900188769,"click_time":1551900189978,"finger_time":1551900189340,"fix_duration":308.33276290899215,"trial":8,"RT":571,"MT":638,"sideResp":2,"stimulus":"img/900/equaldotanddens/R/11_Ratio_900_L_18_R_20.png","xmouse":[789,789,789,789,789,789,789,789,789,789,789,789,789,789,789,789,789,789,789,789,789,789,789,789,789,789,789,789,789,789,791,800,805,812,819,828,831,833,836,842,865,882,890,898,902,907,915,917,918,920,922,926,932,936,944,973,992,1016,1037,1054,1063],"ymouse":[554,554,554,554,554,554,554,554,554,554,554,554,554,551,550,549,548,547,546,545,543,541,538,534,529,512,500,485,469,450,429,368,343,319,299,278,273,271,269,266,251,237,228,221,215,210,203,202,200,198,198,194,190,187,180,149,123,88,53,24,3],"timestamp_mouse":[9,29,56,70,90,109,129,151,170,189,211,230,250,269,290,311,329,350,370,390,410,430,449,470,489,511,530,549,571,591,609,629,649,670,689,711,729,749,769,790,811,829,850,869,889,909,929,949,969,990,1012,1029,1049,1069,1090,1110,1129,1150,1171,1189,1209],"xSR":741.5,"ySR":469.95,"xT1":424.9,"yT1":0,"xT2":1058.1,"yT2":0,"toosoon":0,"cond_shown":"equaldotanddens","ratio_trial":900,"smaller_num":"18","larger_num":"20","correct_side":2,"subjID":"paulaperilla3","gender":"1","age":"12","school":"6"},{"start_time":1551900191902,"click_time":1551900193059,"finger_time":1551900192479,"fix_duration":961.2663602956196,"trial":9,"RT":577,"MT":580,"sideResp":2,"stimulus":"img/250/equaldotsize/R/6_Ratio_250_L_6_R_24.png","xmouse":[827,827,827,827,827,827,827,826,826,826,826,826,825,825,824,824,824,824,824,824,824,824,824,823,823,823,823,828,836,861,874,886,893,907,914,924,927,930,933,938,942,950,960,982,994,1000,1003,1006,1009,1012,1016,1023,1030,1035,1047,1053,1060,1065],"ymouse":[514,514,514,514,514,514,514,513,513,513,513,513,512,512,510,510,510,510,510,510,509,509,509,508,506,502,496,482,462,402,370,333,308,259,238,215,209,202,197,192,189,185,181,167,158,150,145,141,136,131,127,123,118,113,106,103,100,97],"timestamp_mouse":[17,37,63,77,96,116,136,157,176,196,217,237,257,276,297,316,336,357,377,397,417,436,457,477,497,517,537,557,577,596,617,637,657,677,696,716,736,756,776,797,817,836,857,879,896,916,937,956,978,996,1017,1037,1057,1076,1096,1117,1138,1157],"xSR":741.5,"ySR":469.95,"xT1":424.9,"yT1":0,"xT2":1058.1,"yT2":0,"toosoon":0,"cond_shown":"equaldotsize","ratio_trial":250,"smaller_num":"6","larger_num":"24","correct_side":2,"subjID":"paulaperilla3","gender":"1","age":"12","school":"6"},{"start_time":1551900194384,"click_time":1551900195499,"finger_time":1551900195138,"fix_duration":644.3138104418671,"trial":10,"RT":754,"MT":361,"sideResp":2,"stimulus":"img/500/equaldotanddens/R/2_Ratio_500_L_3_R_6.png","xmouse":[817,817,817,817,817,817,817,817,817,817,817,817,817,817,817,817,817,817,817,817,817,817,817,817,817,817,817,817,817,817,817,817,817,817,817,827,836,850,864,877,897,902,907,913,919,937,949,959,971,994,1010,1020,1031,1042,1063,1071],"ymouse":[532,532,532,532,532,532,532,532,532,532,532,532,532,532,532,532,532,532,532,532,532,532,532,532,532,532,532,532,532,532,532,532,532,529,527,507,489,466,441,418,369,355,341,329,317,287,266,244,224,189,168,159,147,136,106,89],"timestamp_mouse":[14,43,54,74,95,115,134,155,176,194,215,236,255,275,296,314,334,354,374,394,414,435,456,475,495,515,535,555,575,595,616,635,655,674,694,715,734,754,776,796,815,835,855,875,896,915,935,956,974,995,1014,1034,1054,1074,1096,1115],"xSR":741.5,"ySR":469.95,"xT1":424.9,"yT1":0,"xT2":1058.1,"yT2":0,"toosoon":0,"cond_shown":"equaldotanddens","ratio_trial":500,"smaller_num":"3","larger_num":"6","correct_side":2,"subjID":"paulaperilla3","gender":"1","age":"12","school":"6"},{"start_time":1551900196669,"click_time":1551900198158,"finger_time":1551900197418,"fix_duration":588.8574739433473,"trial":11,"RT":749,"MT":740,"sideResp":1,"stimulus":"img/900/equaldotanddens/R/9_Ratio_900_L_18_R_20.png","xmouse":[805,805,805,805,805,805,805,805,805,805,805,805,805,805,805,805,805,805,805,805,805,805,805,805,805,805,805,805,805,805,805,806,806,807,807,807,805,797,786,772,753,725,712,700,689,671,663,662,658,655,649,636,628,619,607,588,583,582,569,549,521,520,520,520,520,520,520,520,520,520,520,520,520,518,514],"ymouse":[554,554,554,554,554,554,554,554,554,554,554,554,554,554,554,554,554,554,554,554,554,554,554,554,554,554,554,554,554,554,551,547,541,532,521,491,473,444,419,389,358,305,283,263,244,212,192,185,173,166,156,134,123,113,105,96,94,94,94,94,101,101,101,101,101,101,101,101,101,101,101,101,101,100,93],"timestamp_mouse":[14,29,49,70,89,109,129,150,169,189,209,229,249,269,290,309,329,349,369,390,410,429,450,469,489,509,529,549,570,589,610,630,649,670,689,710,730,749,770,790,809,829,850,871,891,911,929,950,970,989,1010,1029,1050,1070,1089,1110,1129,1149,1170,1191,1211,1229,1250,1270,1289,1310,1329,1350,1370,1390,1411,1429,1451,1469,1489],"xSR":741.5,"ySR":469.95,"xT1":424.9,"yT1":0,"xT2":1058.1,"yT2":0,"toosoon":0,"cond_shown":"equaldotanddens","ratio_trial":900,"smaller_num":"18","larger_num":"20","correct_side":2,"subjID":"paulaperilla3","gender":"1","age":"12","school":"6"},{"start_time":1551900200018,"click_time":1551900201099,"finger_time":1551900200699,"fix_duration":938.8841383922236,"trial":12,"RT":681,"MT":400,"sideResp":1,"stimulus":"img/900/equaldotanddens/L/10_Ratio_900_L_20_R_18.png","xmouse":[759,759,759,759,759,759,759,759,759,759,759,759,759,759,759,759,759,759,759,759,759,759,759,759,759,759,759,759,759,759,759,759,759,761,762,762,762,762,741,721,684,660,642,602,585,578,574,570,563,548,544,541,538,525,513],"ymouse":[495,495,495,495,495,495,495,495,495,495,495,495,495,495,495,495,495,495,495,495,495,495,495,495,495,495,495,495,495,495,495,495,495,480,465,441,412,378,290,239,164,128,103,62,51,45,42,38,34,31,31,31,32,42,48],"timestamp_mouse":[9,22,48,61,81,101,120,140,161,181,202,222,241,261,282,300,320,341,361,380,401,421,441,461,481,501,521,541,560,582,601,621,640,661,681,701,720,741,762,780,801,820,840,862,880,900,922,940,961,981,1000,1021,1041,1061,1081],"xSR":741.5,"ySR":469.95,"xT1":424.9,"yT1":0,"xT2":1058.1,"yT2":0,"toosoon":0,"cond_shown":"equaldotanddens","ratio_trial":900,"smaller_num":"18","larger_num":"20","correct_side":1,"subjID":"paulaperilla3","gender":"1","age":"12","school":"6"},{"start_time":1551900203489,"click_time":1551900204559,"finger_time":1551900203998,"fix_duration":1207.117087848787,"trial":13,"RT":509,"MT":561,"sideResp":2,"stimulus":"img/750/equaldotanddens/R/7_Ratio_750_L_3_R_4.png","xmouse":[756,756,756,756,756,756,756,756,756,756,756,756,756,756,756,756,756,756,756,756,756,756,756,757,759,761,769,783,830,890,986,1002,1012,1017,1017,1017,1017,1017,1017,1017,1017,1017,1017,1017,1017,1024,1032,1038,1047,1055,1055,1055,1056,1060],"ymouse":[480,480,480,480,480,480,480,480,480,480,480,480,480,480,480,480,480,480,480,480,480,480,480,478,470,460,444,420,371,319,224,188,157,132,108,97,94,93,92,91,91,91,91,90,90,88,85,82,78,75,75,75,75,73],"timestamp_mouse":[9,29,56,70,90,110,130,150,170,189,211,230,251,270,290,309,331,349,369,390,409,429,449,470,490,509,529,549,570,590,609,629,650,669,689,709,729,749,769,791,810,830,849,869,890,910,930,950,970,990,1010,1029,1050,1069],"xSR":741.5,"ySR":469.95,"xT1":424.9,"yT1":0,"xT2":1058.1,"yT2":0,"toosoon":0,"cond_shown":"equaldotanddens","ratio_trial":750,"smaller_num":"3","larger_num":"4","correct_side":2,"subjID":"paulaperilla3","gender":"1","age":"12","school":"6"},{"start_time":1551900206404,"click_time":1551900207758,"finger_time":1551900206939,"fix_duration":1043.5285913917605,"trial":14,"RT":535,"MT":819,"sideResp":2,"stimulus":"img/250/equaldotsize/R/12_Ratio_250_L_5_R_20.png","xmouse":[800,800,800,800,800,800,800,800,800,800,800,800,800,800,800,800,800,800,800,800,800,800,800,800,804,814,825,836,865,888,899,912,922,932,952,961,966,967,967,967,968,968,970,977,981,988,992,995,996,996,998,1005,1008,1016,1020,1024,1026,1027,1028,1032,1035,1037,1040,1046,1054,1055,1058,1061],"ymouse":[505,505,505,505,505,505,505,505,505,505,505,505,505,505,505,505,505,505,505,505,505,505,505,505,502,485,461,435,361,301,269,237,209,173,100,79,69,66,66,66,65,65,65,64,63,63,63,62,62,61,61,58,57,55,53,53,52,51,51,51,51,51,50,50,50,50,50,50],"timestamp_mouse":[21,34,55,75,95,114,134,155,174,194,215,234,254,274,295,314,335,355,375,395,415,435,456,475,494,514,535,555,576,594,614,635,654,674,694,715,734,754,776,794,814,834,854,876,895,914,934,956,975,994,1015,1035,1055,1075,1095,1115,1135,1154,1176,1194,1215,1234,1255,1274,1295,1314,1335,1354],"xSR":741.5,"ySR":469.95,"xT1":424.9,"yT1":0,"xT2":1058.1,"yT2":0,"toosoon":0,"cond_shown":"equaldotsize","ratio_trial":250,"smaller_num":"5","larger_num":"20","correct_side":2,"subjID":"paulaperilla3","gender":"1","age":"12","school":"6"},{"start_time":1551900209772,"click_time":1551900210639,"finger_time":1551900210279,"fix_duration":1052.6924391980194,"trial":15,"RT":507,"MT":360,"sideResp":2,"stimulus":"img/250/equaldotsize/R/6_Ratio_250_L_6_R_24.png","xmouse":[753,754,754,755,757,758,761,763,764,765,766,766,766,766,766,766,766,766,766,766,766,767,771,776,781,793,801,810,823,837,873,892,900,908,915,931,940,950,960,972,988,1035,1053,1069],"ymouse":[501,501,500,500,500,499,499,498,498,497,497,497,497,497,497,497,497,497,497,497,497,496,493,486,479,460,448,435,416,396,347,313,294,275,257,222,201,180,162,142,122,65,47,30],"timestamp_mouse":[13,39,46,66,86,106,127,146,166,187,206,226,246,268,287,306,326,347,366,387,406,426,447,466,487,507,526,546,567,586,607,627,647,667,688,707,726,746,767,786,807,827,847,867],"xSR":741.5,"ySR":469.95,"xT1":424.9,"yT1":0,"xT2":1058.1,"yT2":0,"toosoon":0,"cond_shown":"equaldotsize","ratio_trial":250,"smaller_num":"6","larger_num":"24","correct_side":2,"subjID":"paulaperilla3","gender":"1","age":"12","school":"6"},{"start_time":1551900212359,"click_time":1551900213238,"finger_time":1551900212899,"fix_duration":957.4909751658065,"trial":16,"RT":540,"MT":339,"sideResp":1,"stimulus":"img/500/equaldotanddens/L/7_Ratio_500_L_10_R_5.png","xmouse":[764,764,764,764,764,764,764,764,764,764,764,764,764,764,764,764,764,764,764,764,764,764,764,764,764,764,764,756,741,726,707,680,615,593,579,570,566,565,564,564,564,564,560,539,521],"ymouse":[517,517,517,517,517,517,517,517,517,517,517,517,517,517,517,517,517,517,517,517,517,517,517,517,515,496,479,428,391,358,317,274,167,136,116,104,99,97,96,96,96,96,93,83,77],"timestamp_mouse":[3,26,40,63,81,99,120,140,160,179,199,219,239,259,279,300,319,339,359,379,399,420,439,461,480,499,519,540,560,580,599,619,639,660,679,700,720,740,759,781,800,821,839,859,879],"xSR":741.5,"ySR":469.95,"xT1":424.9,"yT1":0,"xT2":1058.1,"yT2":0,"toosoon":0,"cond_shown":"equaldotanddens","ratio_trial":500,"smaller_num":"5","larger_num":"10","correct_side":1,"subjID":"paulaperilla3","gender":"1","age":"12","school":"6"},{"start_time":1551900214745,"click_time":1551900215679,"finger_time":1551900215279,"fix_duration":685.979854659383,"trial":17,"RT":534,"MT":400,"sideResp":1,"stimulus":"img/250/equaldotanddens/L/1_Ratio_250_L_8_R_2.png","xmouse":[758,758,758,758,758,758,758,758,758,758,758,758,758,758,758,758,758,758,758,758,758,758,758,758,758,754,722,700,678,656,636,618,584,562,552,544,537,537,537,537,537,536,524,514,502,492,485],"ymouse":[498,498,498,498,498,498,498,498,498,498,498,498,498,498,498,498,498,498,498,498,498,498,498,498,495,484,428,391,352,300,257,216,159,132,124,119,118,118,118,118,118,118,116,113,108,104,99],"timestamp_mouse":[13,47,53,74,94,113,135,154,173,194,214,235,254,273,294,314,333,353,374,394,413,434,453,474,495,514,534,553,574,593,615,634,653,674,694,713,734,753,773,793,814,834,853,874,895,915,934],"xSR":741.5,"ySR":469.95,"xT1":424.9,"yT1":0,"xT2":1058.1,"yT2":0,"toosoon":0,"cond_shown":"equaldotanddens","ratio_trial":250,"smaller_num":"2","larger_num":"8","correct_side":1,"subjID":"paulaperilla3","gender":"1","age":"12","school":"6"},{"start_time":1551900216750,"click_time":1551900218080,"finger_time":1551900217518,"fix_duration":250,"trial":18,"RT":768,"MT":562,"sideResp":1,"stimulus":"img/250/randomdotsizeEA/L/2_Ratio_250_L_16_R_4.png","xmouse":[794,794,794,794,794,794,794,794,794,794,794,794,794,794,794,794,794,794,794,794,794,794,794,794,794,794,794,794,794,794,794,794,794,794,794,794,790,788,784,779,776,757,748,740,735,732,730,724,716,709,697,666,641,629,620,613,598,586,574,565,558,552,552,551,545,537,519],"ymouse":[532,532,532,532,532,532,532,532,532,532,532,532,532,532,532,532,532,532,532,532,532,532,532,532,532,532,532,532,532,532,532,532,532,532,530,524,499,479,455,428,400,337,313,289,276,268,263,252,243,232,218,191,174,162,153,141,116,100,82,68,55,45,45,45,45,45,46],"timestamp_mouse":[9,28,61,69,89,108,128,149,169,188,209,229,248,268,289,308,329,350,370,388,409,428,449,469,488,510,529,549,570,589,610,629,649,668,689,710,729,749,768,788,808,830,848,869,888,909,929,948,969,988,1009,1030,1048,1068,1089,1109,1130,1148,1169,1189,1208,1230,1248,1268,1288,1310,1329],"xSR":741.5,"ySR":469.95,"xT1":424.9,"yT1":0,"xT2":1058.1,"yT2":0,"toosoon":0,"cond_shown":"randomdotsizeEA","ratio_trial":250,"smaller_num":"4","larger_num":"16","correct_side":1,"subjID":"paulaperilla3","gender":"1","age":"12","school":"6"},{"start_time":1551900219912,"click_time":1551900221699,"finger_time":1551900220598,"fix_duration":852.5642712083095,"trial":19,"RT":686,"MT":1101,"sideResp":1,"stimulus":"img/900/randomdotsizeEA/L/8_Ratio_900_L_20_R_18.png","xmouse":[789,789,789,789,789,789,789,789,789,789,789,789,789,789,789,789,789,789,789,789,789,789,789,789,789,789,789,789,789,789,789,789,789,789,789,789,789,791,800,805,812,818,822,825,827,829,832,836,842,845,847,848,850,850,850,851,852,853,857,861,865,871,876,882,882,882,881,879,879,871,859,848,839,835,828,814,792,770,745,737,730,720,705,665,634,610,580,544,483,463],"ymouse":[562,562,562,561,559,558,558,557,556,554,553,553,553,553,552,552,552,551,551,551,550,550,548,546,543,542,541,539,533,528,521,512,501,478,459,447,432,418,384,368,354,342,334,331,327,322,317,311,303,299,295,294,291,290,289,287,285,281,265,253,238,217,201,174,163,155,151,149,147,145,143,142,141,141,141,141,141,141,141,140,138,137,135,129,125,121,117,112,101,95],"timestamp_mouse":[10,41,46,67,87,107,126,146,166,188,208,227,247,267,287,306,326,347,368,387,408,427,447,467,487,507,527,546,568,587,607,628,647,667,686,706,727,746,768,786,808,827,847,866,886,906,926,967,969,987,1007,1027,1047,1067,1086,1106,1126,1148,1167,1186,1206,1227,1246,1268,1286,1307,1327,1347,1366,1387,1407,1427,1447,1466,1486,1506,1527,1548,1567,1586,1607,1627,1648,1668,1686,1707,1727,1748,1768,1787],"xSR":741.5,"ySR":469.95,"xT1":424.9,"yT1":0,"xT2":1058.1,"yT2":0,"toosoon":0,"cond_shown":"randomdotsizeEA","ratio_trial":900,"smaller_num":"18","larger_num":"20","correct_side":1,"subjID":"paulaperilla3","gender":"1","age":"12","school":"6"},{"start_time":1551900223864,"click_time":1551900224880,"finger_time":1551900224479,"fix_duration":1244.5548814268438,"trial":20,"RT":615,"MT":401,"sideResp":1,"stimulus":"img/500/equaldotanddens/L/11_Ratio_500_L_12_R_6.png","xmouse":[773,773,773,773,773,773,773,773,773,773,773,773,773,773,773,773,773,773,773,773,773,773,773,773,773,773,773,773,771,768,763,754,745,738,728,713,695,674,656,643,634,624,618,613,608,595,578,566,553,540,515],"ymouse":[534,534,534,534,534,534,534,534,534,534,534,534,534,534,534,534,534,534,534,534,534,534,534,534,534,534,534,531,516,493,466,401,368,345,324,300,281,269,260,250,241,216,200,184,166,127,97,75,61,52,46],"timestamp_mouse":[16,36,66,75,95,115,135,155,176,195,216,234,254,276,295,315,336,355,376,395,415,434,454,475,496,515,535,554,575,595,615,635,655,675,694,716,735,755,776,795,816,835,855,876,896,917,934,955,974,995,1016],"xSR":741.5,"ySR":469.95,"xT1":424.9,"yT1":0,"xT2":1058.1,"yT2":0,"toosoon":0,"cond_shown":"equaldotanddens","ratio_trial":500,"smaller_num":"6","larger_num":"12","correct_side":1,"subjID":"paulaperilla3","gender":"1","age":"12","school":"6"},{"start_time":1551900227180,"click_time":1551900228780,"finger_time":1551900227759,"fix_duration":1479.124496833893,"trial":21,"RT":579,"MT":1021,"sideResp":1,"stimulus":"img/750/randomdotsizeEA/R/2_Ratio_750_L_6_R_8.png","xmouse":[781,781,781,781,781,781,781,781,781,781,781,781,781,781,780,780,780,780,780,780,780,780,780,780,780,780,780,780,780,780,780,780,780,780,780,780,779,777,774,772,766,761,759,754,749,742,738,731,724,714,704,699,696,690,683,662,652,642,634,627,627,627,627,627,627,627,626,620,606,582,565,558,553,550,543,539,535,533,529,523],"ymouse":[525,522,521,520,518,517,515,514,513,512,511,510,509,508,507,507,506,506,506,505,504,502,499,496,487,483,478,473,468,463,446,440,433,424,416,393,379,365,350,335,309,294,286,279,269,258,252,242,232,218,202,194,189,179,167,142,130,120,113,108,108,108,108,108,108,108,108,106,103,100,98,96,95,93,89,87,85,84,82,80],"timestamp_mouse":[19,39,63,79,99,119,139,159,179,199,220,240,258,279,299,318,339,358,379,400,419,438,459,479,499,519,538,560,579,598,618,638,659,679,698,718,739,759,780,799,820,839,858,879,898,918,939,960,979,1000,1020,1038,1059,1080,1100,1118,1138,1159,1179,1200,1219,1239,1260,1279,1299,1320,1338,1360,1379,1400,1419,1439,1459,1478,1500,1519,1538,1559,1579,1600],"xSR":741.5,"ySR":469.95,"xT1":424.9,"yT1":0,"xT2":1058.1,"yT2":0,"toosoon":0,"cond_shown":"randomdotsizeEA","ratio_trial":750,"smaller_num":"6","larger_num":"8","correct_side":2,"subjID":"paulaperilla3","gender":"1","age":"12","school":"6"},{"start_time":1551900231002,"click_time":1551900232059,"finger_time":1551900231638,"fix_duration":1321.6235943983302,"trial":22,"RT":636,"MT":421,"sideResp":2,"stimulus":"img/750/equaldotsize/R/4_Ratio_750_L_15_R_20.png","xmouse":[767,767,767,767,767,767,767,767,767,767,767,767,767,767,767,767,767,767,767,767,767,767,767,767,767,767,767,767,767,770,776,781,790,799,816,824,832,841,878,921,950,971,984,995,998,1002,1017,1032,1054,1056,1056,1056,1061],"ymouse":[519,519,519,519,519,519,519,519,519,519,519,519,519,519,519,519,519,519,519,519,519,519,519,519,519,519,519,519,513,490,472,453,431,410,379,366,352,333,270,210,173,150,135,122,119,117,112,107,100,99,98,98,98],"timestamp_mouse":[17,36,56,77,97,117,138,157,178,197,216,237,258,278,297,318,337,357,377,397,417,437,457,477,496,518,536,557,577,598,616,636,657,676,697,717,737,756,779,796,817,836,857,878,896,916,938,958,978,997,1016,1038,1057],"xSR":741.5,"ySR":469.95,"xT1":424.9,"yT1":0,"xT2":1058.1,"yT2":0,"toosoon":0,"cond_shown":"equaldotsize","ratio_trial":750,"smaller_num":"15","larger_num":"20","correct_side":2,"subjID":"paulaperilla3","gender":"1","age":"12","school":"6"},{"start_time":1551900235366,"click_time":1551900236880,"finger_time":1551900236099,"fix_duration":906.6225779997259,"trial":23,"RT":733,"MT":781,"sideResp":2,"stimulus":"img/750/equaldotsize/L/14_Ratio_750_L_8_R_6.png","xmouse":[806,806,806,806,806,806,806,806,806,806,806,806,806,806,806,806,806,806,806,806,806,806,806,806,806,806,806,806,806,806,806,806,806,805,807,818,848,867,884,897,915,923,935,943,949,955,957,958,960,963,968,1000,1019,1034,1042,1045,1045,1045,1045,1045,1045,1045,1045,1046,1046,1053,1069,1078,1086,1094,1099,1099,1099,1099,1099,1100],"ymouse":[508,508,508,508,508,508,508,508,508,508,508,508,508,508,508,508,508,508,508,508,508,508,508,508,508,508,508,508,508,508,508,508,508,505,496,475,416,382,350,328,298,289,277,270,265,259,258,256,255,250,243,193,162,137,120,111,110,110,110,110,110,110,110,110,110,109,107,105,104,102,101,101,101,101,100,87],"timestamp_mouse":[13,34,53,79,93,113,133,153,173,194,213,233,252,274,293,314,332,353,374,394,413,433,454,473,494,513,533,552,574,594,613,634,652,673,693,713,733,753,773,793,814,833,853,873,893,914,932,953,974,993,1014,1033,1052,1072,1094,1114,1133,1152,1173,1192,1214,1234,1254,1274,1292,1314,1332,1353,1374,1393,1414,1432,1452,1473,1493,1514],"xSR":741.5,"ySR":469.95,"xT1":424.9,"yT1":0,"xT2":1058.1,"yT2":0,"toosoon":0,"cond_shown":"equaldotsize","ratio_trial":750,"smaller_num":"6","larger_num":"8","correct_side":1,"subjID":"paulaperilla3","gender":"1","age":"12","school":"6"},{"start_time":1551900240077,"click_time":1551900241581,"finger_time":1551900240699,"fix_duration":936.074231312983,"trial":24,"RT":622,"MT":882,"sideResp":1,"stimulus":"img/500/equaldotsize/L/11_Ratio_500_L_12_R_6.png","xmouse":[773,773,773,773,773,773,773,773,773,773,773,773,773,773,773,773,773,773,773,773,773,773,773,773,773,773,773,773,773,773,773,759,749,735,727,715,710,708,703,686,682,673,668,667,667,667,667,667,667,666,666,665,640,594,553,501,482,482,482,482,482,482,482,482,482,482,482,482,482,482,482,484,477,466,463,463],"ymouse":[495,495,495,495,495,495,495,495,495,495,495,495,495,495,495,495,495,495,495,495,495,495,495,495,495,495,495,495,495,495,491,458,436,402,372,332,317,310,299,261,250,230,209,196,188,180,179,179,179,178,178,178,184,197,209,223,230,230,230,230,230,230,230,230,230,230,230,230,230,230,230,220,206,176,139,74],"timestamp_mouse":[10,22,43,74,82,102,122,143,162,182,203,222,242,261,283,302,322,342,363,382,402,423,441,462,482,503,521,543,561,582,602,622,643,663,682,703,722,742,763,793,803,822,842,862,883,903,921,942,961,981,1002,1022,1041,1062,1082,1102,1123,1143,1163,1181,1203,1221,1242,1262,1281,1303,1323,1342,1362,1381,1406,1421,1441,1462,1482,1503],"xSR":741.5,"ySR":469.95,"xT1":424.9,"yT1":0,"xT2":1058.1,"yT2":0,"toosoon":0,"cond_shown":"equaldotsize","ratio_trial":500,"smaller_num":"6","larger_num":"12","correct_side":1,"subjID":"paulaperilla3","gender":"1","age":"12","school":"6"},{"start_time":1551900243473,"click_time":1551900244860,"finger_time":1551900244380,"fix_duration":311.0246949184372,"trial":25,"RT":907,"MT":480,"sideResp":1,"stimulus":"img/750/randomdotsizeEA/L/13_Ratio_750_L_8_R_6.png","xmouse":[822,822,822,822,822,822,822,822,822,822,822,822,822,822,822,822,822,822,822,822,822,822,822,822,822,822,822,822,822,822,822,822,822,822,822,822,822,822,822,822,822,822,822,822,822,814,804,793,780,767,735,717,694,674,657,639,636,635,635,635,634,631,627,622,615,600,552,539,528,518],"ymouse":[486,486,486,486,486,486,486,486,486,486,486,486,486,486,486,486,486,486,486,486,486,486,486,486,485,485,485,485,485,485,485,485,485,485,485,485,485,485,485,485,485,485,485,480,477,463,447,432,412,390,325,282,231,183,142,100,92,89,89,89,88,88,88,88,88,88,88,89,89,89],"timestamp_mouse":[10,25,47,67,87,105,127,145,167,187,206,226,246,266,286,306,325,346,367,386,405,425,446,466,486,507,527,546,567,587,605,626,647,665,686,707,725,747,766,787,805,826,847,866,887,907,925,947,966,986,1007,1026,1046,1065,1086,1108,1125,1146,1165,1185,1207,1226,1246,1267,1286,1305,1325,1346,1366,1387],"xSR":741.5,"ySR":469.95,"xT1":424.9,"yT1":0,"xT2":1058.1,"yT2":0,"toosoon":0,"cond_shown":"randomdotsizeEA","ratio_trial":750,"smaller_num":"6","larger_num":"8","correct_side":1,"subjID":"paulaperilla3","gender":"1","age":"12","school":"6"},{"start_time":1551900246031,"click_time":1551900247219,"finger_time":1551900246759,"fix_duration":250,"trial":26,"RT":728,"MT":460,"sideResp":1,"stimulus":"img/500/equaldotsize/L/8_Ratio_500_L_8_R_4.png","xmouse":[824,824,824,824,824,824,824,824,824,824,824,824,824,824,824,824,824,824,824,824,824,824,824,824,824,824,824,824,824,824,824,824,824,824,821,818,812,797,774,763,753,744,732,726,721,715,707,688,667,651,631,613,581,569,558,551,546,533,514,498],"ymouse":[474,474,474,474,474,474,474,474,474,474,474,474,474,474,474,474,474,474,474,474,474,474,474,474,474,474,474,474,474,474,474,474,474,474,474,474,467,446,404,380,358,337,304,289,279,267,255,227,205,187,169,153,128,120,115,113,111,108,102,98],"timestamp_mouse":[10,41,48,69,88,108,129,148,167,189,207,228,249,268,288,307,328,348,368,388,408,428,447,468,488,509,529,548,569,588,609,627,647,668,689,709,728,748,768,788,808,828,848,868,887,908,928,949,967,988,1007,1028,1049,1068,1087,1108,1129,1149,1167,1188],"xSR":741.5,"ySR":469.95,"xT1":424.9,"yT1":0,"xT2":1058.1,"yT2":0,"toosoon":0,"cond_shown":"equaldotsize","ratio_trial":500,"smaller_num":"4","larger_num":"8","correct_side":1,"subjID":"paulaperilla3","gender":"1","age":"12","school":"6"},{"start_time":1551900248676,"click_time":1551900249819,"finger_time":1551900249379,"fix_duration":433.55411495443076,"trial":27,"RT":703,"MT":440,"sideResp":2,"stimulus":"img/900/equaldotsize/R/9_Ratio_900_L_18_R_20.png","xmouse":[767,767,767,767,767,767,767,767,767,767,767,767,767,767,767,767,767,767,767,767,767,767,767,767,767,767,767,767,767,767,767,767,767,770,773,790,808,823,845,867,917,939,957,971,982,993,998,1001,1005,1009,1015,1017,1021,1027,1033,1044,1054,1059],"ymouse":[486,486,486,486,486,486,486,486,486,486,486,486,486,486,486,486,486,486,486,486,486,486,486,486,486,486,486,486,486,486,486,486,486,482,475,435,395,360,321,279,189,149,118,98,83,70,66,64,61,59,57,56,56,56,56,55,54,53],"timestamp_mouse":[9,23,43,67,82,103,122,143,164,183,203,222,244,264,284,303,322,343,363,384,404,423,443,464,484,504,524,542,562,582,603,623,644,663,683,703,722,743,763,784,804,823,843,862,882,904,923,943,963,982,1004,1023,1043,1063,1084,1104,1123,1142],"xSR":741.5,"ySR":469.95,"xT1":424.9,"yT1":0,"xT2":1058.1,"yT2":0,"toosoon":0,"cond_shown":"equaldotsize","ratio_trial":900,"smaller_num":"18","larger_num":"20","correct_side":2,"subjID":"paulaperilla3","gender":"1","age":"12","school":"6"},{"start_time":1551900250911,"click_time":1551900252019,"finger_time":1551900251698,"fix_duration":250,"trial":28,"RT":787,"MT":321,"sideResp":1,"stimulus":"img/900/equaldotsize/L/2_Ratio_900_L_20_R_18.png","xmouse":[814,814,814,814,814,814,814,814,814,814,814,814,814,814,814,814,814,814,814,814,814,814,814,814,814,814,814,814,814,814,814,814,814,814,814,814,814,811,809,796,784,774,766,756,731,725,720,715,710,691,677,658,629,597,530,519],"ymouse":[513,513,513,513,513,513,513,513,513,513,513,513,513,513,513,513,513,513,513,513,513,513,513,513,513,513,513,513,513,513,513,513,513,513,513,513,513,506,501,458,429,396,366,335,270,254,241,230,220,194,178,158,133,105,49,39],"timestamp_mouse":[9,29,48,69,89,108,127,149,167,187,208,229,247,269,289,309,328,349,369,388,408,428,447,469,488,508,527,547,567,589,609,629,649,668,688,709,729,747,768,787,807,827,849,868,888,908,927,949,968,988,1009,1028,1048,1069,1089,1108],"xSR":741.5,"ySR":469.95,"xT1":424.9,"yT1":0,"xT2":1058.1,"yT2":0,"toosoon":0,"cond_shown":"equaldotsize","ratio_trial":900,"smaller_num":"18","larger_num":"20","correct_side":1,"subjID":"paulaperilla3","gender":"1","age":"12","school":"6"},{"start_time":1551900253628,"click_time":1551900254740,"finger_time":1551900254358,"fix_duration":266.70069358163306,"trial":29,"RT":730,"MT":382,"sideResp":2,"stimulus":"img/900/equaldotanddens/R/5_Ratio_900_L_9_R_10.png","xmouse":[786,786,786,786,786,786,786,786,786,786,786,786,786,786,786,786,786,786,786,786,786,786,786,786,786,786,786,786,786,786,786,786,786,786,786,787,790,793,805,824,845,868,888,919,931,939,945,959,976,988,1002,1017,1043,1052,1058,1062],"ymouse":[489,489,489,489,489,489,489,489,489,489,489,489,489,489,489,489,489,489,489,489,489,489,489,489,489,489,489,489,489,489,489,489,489,489,485,480,467,456,422,387,356,325,297,249,229,213,199,170,143,127,111,95,73,64,58,53],"timestamp_mouse":[14,45,51,71,90,111,131,150,172,190,210,231,250,272,292,311,331,350,371,392,411,431,451,471,492,511,530,551,572,592,611,631,652,671,690,710,730,752,772,791,811,831,851,870,890,911,931,952,971,991,1010,1031,1052,1071,1091,1112],"xSR":741.5,"ySR":469.95,"xT1":424.9,"yT1":0,"xT2":1058.1,"yT2":0,"toosoon":0,"cond_shown":"equaldotanddens","ratio_trial":900,"smaller_num":"9","larger_num":"10","correct_side":2,"subjID":"paulaperilla3","gender":"1","age":"12","school":"6"},{"start_time":1551900256042,"click_time":1551900257439,"finger_time":1551900256859,"fix_duration":560.5393888586656,"trial":30,"RT":817,"MT":580,"sideResp":1,"stimulus":"img/500/randomdotsizeEA/L/13_Ratio_500_L_12_R_6.png","xmouse":[820,820,820,820,820,820,820,820,820,820,820,820,820,820,820,820,820,820,820,820,820,820,820,820,820,820,820,820,820,820,820,820,820,818,817,814,811,803,796,792,788,783,775,773,772,771,771,770,769,768,765,758,752,746,735,716,661,619,602,594,589,588,588,586,583,576,555,541,531,522],"ymouse":[523,523,523,523,523,523,523,523,523,523,523,523,523,523,523,523,523,523,523,523,523,523,523,523,523,523,523,523,523,523,523,523,523,522,521,515,510,497,481,474,464,457,442,437,434,433,431,429,426,424,419,400,386,367,338,295,183,111,80,65,59,58,58,57,57,56,54,53,53,53],"timestamp_mouse":[18,39,57,77,97,117,137,157,176,196,216,236,256,276,296,316,336,356,376,396,416,437,458,477,497,517,536,556,577,597,618,637,657,677,698,717,737,757,777,797,817,837,857,877,897,916,938,956,977,998,1017,1038,1057,1077,1098,1117,1138,1156,1177,1197,1218,1237,1257,1277,1297,1318,1337,1356,1377,1397],"xSR":741.5,"ySR":469.95,"xT1":424.9,"yT1":0,"xT2":1058.1,"yT2":0,"toosoon":0,"cond_shown":"randomdotsizeEA","ratio_trial":500,"smaller_num":"6","larger_num":"12","correct_side":1,"subjID":"paulaperilla3","gender":"1","age":"12","school":"6"},{"start_time":1551900258833,"click_time":1551900259999,"finger_time":1551900259479,"fix_duration":311.0871216457727,"trial":31,"RT":646,"MT":520,"sideResp":1,"stimulus":"img/250/randomdotsizeEA/L/5_Ratio_250_L_24_R_6.png","xmouse":[779,779,779,779,779,779,779,779,779,779,779,779,779,779,779,779,779,779,779,779,779,779,779,779,779,779,780,780,780,780,780,780,780,780,780,778,773,760,745,735,721,704,678,666,656,649,640,632,608,594,579,569,563,562,556,543,525,488,481],"ymouse":[487,487,487,487,487,487,487,487,487,487,487,487,487,487,487,487,487,487,487,487,487,487,487,487,487,487,485,481,477,475,472,470,465,451,438,421,399,356,318,295,269,244,208,194,183,174,166,160,150,146,143,140,138,136,133,127,118,100,95],"timestamp_mouse":[10,26,45,65,87,107,125,145,166,186,207,227,245,265,287,306,326,345,366,386,407,425,446,465,487,507,527,547,567,585,606,626,646,666,686,706,726,747,765,785,805,827,847,865,886,905,926,946,967,986,1006,1027,1047,1066,1086,1106,1126,1145,1166],"xSR":741.5,"ySR":469.95,"xT1":424.9,"yT1":0,"xT2":1058.1,"yT2":0,"toosoon":0,"cond_shown":"randomdotsizeEA","ratio_trial":250,"smaller_num":"6","larger_num":"24","correct_side":1,"subjID":"paulaperilla3","gender":"1","age":"12","school":"6"},{"start_time":1551900261876,"click_time":1551900263299,"finger_time":1551900262699,"fix_duration":954.5205442837523,"trial":32,"RT":823,"MT":600,"sideResp":1,"stimulus":"img/750/randomdotsizeEA/L/9_Ratio_750_L_4_R_3.png","xmouse":[770,770,770,770,770,770,770,770,770,770,770,770,770,770,770,770,770,770,770,770,770,770,770,770,770,770,770,770,770,770,770,770,770,770,770,770,771,772,774,775,776,777,779,780,781,782,785,787,790,793,798,800,803,805,805,806,806,806,801,795,789,778,772,767,763,756,735,724,711,692,655,516],"ymouse":[489,489,489,489,489,489,489,489,489,489,489,489,489,489,489,489,489,489,489,489,489,489,489,489,489,489,489,489,489,489,489,489,489,489,489,489,488,484,480,476,472,466,462,458,456,449,441,434,422,411,383,368,353,335,317,279,251,231,212,192,174,146,137,131,127,123,115,110,107,100,90,49],"timestamp_mouse":[9,22,50,62,84,104,124,142,163,184,202,223,244,264,283,303,322,344,364,382,403,423,442,462,483,503,522,544,563,584,603,624,642,664,684,704,723,743,762,783,803,823,842,863,882,904,923,943,964,983,1003,1023,1044,1062,1083,1104,1123,1142,1163,1183,1203,1223,1242,1262,1282,1303,1324,1343,1363,1384,1403,1423],"xSR":741.5,"ySR":469.95,"xT1":424.9,"yT1":0,"xT2":1058.1,"yT2":0,"toosoon":0,"cond_shown":"randomdotsizeEA","ratio_trial":750,"smaller_num":"3","larger_num":"4","correct_side":1,"subjID":"paulaperilla3","gender":"1","age":"12","school":"6"},{"start_time":1551900264879,"click_time":1551900266000,"finger_time":1551900265600,"fix_duration":758.040742029801,"trial":33,"RT":721,"MT":400,"sideResp":1,"stimulus":"img/250/equaldotanddens/L/14_Ratio_250_L_12_R_3.png","xmouse":[811,811,811,811,811,811,811,811,811,811,811,811,811,811,811,811,811,811,811,811,811,811,811,811,811,811,811,811,811,811,811,811,811,811,811,800,772,758,748,740,727,724,720,712,697,669,640,621,606,594,573,566,559,552,541,528,482],"ymouse":[530,530,530,530,530,530,530,530,530,530,530,530,530,530,530,530,530,530,530,530,530,530,530,530,530,530,530,530,530,530,530,530,530,530,527,497,447,421,399,378,349,343,338,333,328,317,295,275,249,220,167,147,127,113,98,83,65],"timestamp_mouse":[9,20,49,60,80,99,119,140,161,181,200,221,240,260,280,300,319,339,360,381,400,420,439,459,479,499,520,539,561,580,601,619,640,661,679,701,721,740,761,779,801,820,839,861,881,901,919,940,960,980,1001,1020,1040,1061,1080,1099,1121],"xSR":741.5,"ySR":469.95,"xT1":424.9,"yT1":0,"xT2":1058.1,"yT2":0,"toosoon":0,"cond_shown":"equaldotanddens","ratio_trial":250,"smaller_num":"3","larger_num":"12","correct_side":1,"subjID":"paulaperilla3","gender":"1","age":"12","school":"6"},{"start_time":1551900268241,"click_time":1551900269279,"finger_time":1551900268899,"fix_duration":1459.559772139641,"trial":34,"RT":658,"MT":380,"sideResp":2,"stimulus":"img/750/equaldotanddens/R/2_Ratio_750_L_6_R_8.png","xmouse":[778,779,779,779,779,779,779,779,779,779,779,779,779,779,779,779,779,779,779,779,779,779,779,779,779,779,779,779,779,781,784,792,813,829,850,870,894,945,957,966,973,987,993,999,1008,1017,1028,1033,1036,1040,1047,1083],"ymouse":[528,527,527,527,527,527,527,527,527,527,527,527,527,527,527,527,527,527,527,527,527,527,527,527,527,527,527,527,527,525,521,506,462,429,388,351,309,221,201,189,177,158,150,140,128,115,98,92,90,88,84,68],"timestamp_mouse":[18,52,58,78,98,118,137,159,178,198,218,237,258,277,297,319,338,359,378,399,418,439,458,479,497,518,539,558,579,599,617,638,658,678,698,717,739,757,777,798,818,838,858,879,898,918,939,957,978,998,1018,1038],"xSR":741.5,"ySR":469.95,"xT1":424.9,"yT1":0,"xT2":1058.1,"yT2":0,"toosoon":0,"cond_shown":"equaldotanddens","ratio_trial":750,"smaller_num":"6","larger_num":"8","correct_side":2,"subjID":"paulaperilla3","gender":"1","age":"12","school":"6"},{"start_time":1551900271420,"click_time":1551900272499,"finger_time":1551900272099,"fix_duration":961.2743605054656,"trial":35,"RT":679,"MT":400,"sideResp":2,"stimulus":"img/250/randomdotsizeEA/R/10_Ratio_250_L_4_R_16.png","xmouse":[807,807,807,807,807,807,807,807,807,807,807,807,807,807,807,807,807,807,807,807,807,807,807,807,807,807,807,807,807,807,807,807,819,826,840,853,866,880,892,895,896,898,908,914,919,925,935,951,966,978,995,1016,1038,1063],"ymouse":[547,547,547,547,547,547,547,547,547,547,547,547,547,547,547,547,547,547,547,547,547,547,547,547,547,547,547,547,547,547,540,532,492,461,417,371,327,297,268,264,263,260,252,247,242,237,230,215,199,182,156,121,82,21],"timestamp_mouse":[19,50,59,80,100,119,140,159,178,200,220,239,260,279,299,319,340,359,379,398,418,439,459,479,500,518,538,558,579,598,620,639,659,679,700,719,738,758,779,799,819,838,860,879,900,920,939,960,979,999,1019,1038,1059,1079],"xSR":741.5,"ySR":469.95,"xT1":424.9,"yT1":0,"xT2":1058.1,"yT2":0,"toosoon":0,"cond_shown":"randomdotsizeEA","ratio_trial":250,"smaller_num":"4","larger_num":"16","correct_side":2,"subjID":"paulaperilla3","gender":"1","age":"12","school":"6"},{"start_time":1551900274260,"click_time":1551900275319,"finger_time":1551900274850,"fix_duration":680.9919764180524,"trial":36,"RT":590,"MT":469,"sideResp":1,"stimulus":"img/500/equaldotsize/L/7_Ratio_500_L_10_R_5.png","xmouse":[803,803,803,803,803,803,803,803,803,803,803,803,803,803,803,803,803,803,803,803,803,803,803,803,803,803,800,797,792,786,773,767,759,750,741,724,715,712,707,699,691,674,666,657,651,636,622,610,595,582,550,533,520],"ymouse":[498,498,498,498,498,498,498,498,498,498,498,498,498,498,498,498,498,498,498,498,498,498,498,498,498,498,485,474,458,438,392,367,343,316,292,253,233,226,218,211,201,181,168,155,146,128,116,108,99,91,74,66,62],"timestamp_mouse":[20,47,60,79,98,118,140,159,180,199,219,239,260,279,300,318,340,360,379,398,418,440,460,479,499,519,539,558,590,600,620,639,660,679,699,720,738,759,779,799,820,839,859,879,899,920,939,959,978,999,1020,1039,1059],"xSR":741.5,"ySR":469.95,"xT1":424.9,"yT1":0,"xT2":1058.1,"yT2":0,"toosoon":0,"cond_shown":"equaldotsize","ratio_trial":500,"smaller_num":"5","larger_num":"10","correct_side":1,"subjID":"paulaperilla3","gender":"1","age":"12","school":"6"},{"start_time":1551900276496,"click_time":1551900277659,"finger_time":1551900277179,"fix_duration":334.417088756093,"trial":37,"RT":683,"MT":480,"sideResp":2,"stimulus":"img/500/randomdotsizeEA/R/15_Ratio_500_L_1_R_2.png","xmouse":[776,776,776,776,776,776,776,776,776,776,776,776,776,776,776,776,776,776,776,776,776,776,776,776,776,776,776,776,776,776,776,779,781,784,787,795,802,810,820,844,857,871,887,901,935,957,971,983,993,1006,1014,1018,1024,1031,1048,1059,1064,1067,1068],"ymouse":[489,489,489,489,489,489,489,489,489,489,489,489,489,489,489,489,489,489,489,489,489,489,489,489,489,489,489,489,489,489,489,485,479,473,466,450,442,430,417,385,369,352,335,319,280,247,226,208,192,173,165,160,153,146,125,112,105,100,97],"timestamp_mouse":[9,23,42,72,84,104,124,142,162,184,202,223,244,264,284,303,323,343,362,384,403,423,442,462,482,503,523,543,564,582,603,623,643,663,683,704,723,743,764,783,803,824,843,863,884,903,923,942,964,984,1003,1023,1043,1062,1084,1102,1123,1143,1163],"xSR":741.5,"ySR":469.95,"xT1":424.9,"yT1":0,"xT2":1058.1,"yT2":0,"toosoon":0,"cond_shown":"randomdotsizeEA","ratio_trial":500,"smaller_num":"1","larger_num":"2","correct_side":2,"subjID":"paulaperilla3","gender":"1","age":"12","school":"6"},{"start_time":1551900279685,"click_time":1551900280780,"finger_time":1551900280379,"fix_duration":1065.2081916676177,"trial":38,"RT":694,"MT":401,"sideResp":1,"stimulus":"img/750/randomdotsizeEA/L/6_Ratio_750_L_24_R_18.png","xmouse":[805,805,805,805,805,805,805,805,805,805,805,805,805,805,805,805,805,805,805,805,805,805,805,805,805,805,805,805,805,805,805,804,804,804,804,784,773,763,758,748,728,716,705,694,667,650,643,638,637,635,625,608,576,535,452],"ymouse":[509,509,509,509,509,509,509,509,509,509,509,509,509,509,509,509,509,509,509,509,509,509,509,509,509,509,509,509,509,509,509,507,499,484,449,372,327,266,223,182,129,108,92,74,41,23,18,15,15,15,16,24,36,55,92],"timestamp_mouse":[13,33,54,75,94,113,135,154,175,195,215,234,253,275,294,314,334,353,373,395,415,433,454,475,495,514,534,555,575,595,613,633,655,674,694,715,734,753,774,795,814,834,854,874,894,913,934,954,974,994,1014,1035,1055,1074,1095],"xSR":741.5,"ySR":469.95,"xT1":424.9,"yT1":0,"xT2":1058.1,"yT2":0,"toosoon":0,"cond_shown":"randomdotsizeEA","ratio_trial":750,"smaller_num":"18","larger_num":"24","correct_side":1,"subjID":"paulaperilla3","gender":"1","age":"12","school":"6"},{"start_time":1551900283360,"click_time":1551900284039,"finger_time":1551900283920,"fix_duration":1357.1710143770306,"trial":39,"RT":560,"MT":119,"sideResp":2,"stimulus":"img/500/equaldotsize/R/2_Ratio_500_L_3_R_6.png","xmouse":[764,764,764,764,764,764,764,764,764,764,764,764,764,764,764,764,764,764,764,764,764,764,764,764,764,764,766,778,792,817,856,902,1017,1048,1059],"ymouse":[500,500,500,500,500,500,500,500,500,500,500,500,500,500,500,500,500,500,500,500,500,500,500,500,500,500,500,484,461,421,366,301,142,100,78],"timestamp_mouse":[2,24,42,58,78,99,118,139,158,179,200,219,239,259,279,299,320,339,359,378,400,419,439,458,479,499,520,539,560,580,598,619,638,659,679],"xSR":741.5,"ySR":469.95,"xT1":424.9,"yT1":0,"xT2":1058.1,"yT2":0,"toosoon":0,"cond_shown":"equaldotsize","ratio_trial":500,"smaller_num":"3","larger_num":"6","correct_side":2,"subjID":"paulaperilla3","gender":"1","age":"12","school":"6"},{"start_time":1551900286226,"click_time":1551900287218,"finger_time":1551900286799,"fix_duration":1106.2871096209708,"trial":40,"RT":573,"MT":419,"sideResp":1,"stimulus":"img/900/randomdotsizeEA/L/2_Ratio_900_L_20_R_18.png","xmouse":[793,793,793,793,793,793,793,793,793,793,793,793,793,793,793,793,793,793,793,793,793,793,793,793,793,793,792,791,788,784,778,772,751,738,714,688,659,630,593,593,593,593,593,593,593,593,593,593,593,513],"ymouse":[481,481,481,481,481,481,481,481,481,481,481,481,481,481,481,481,481,481,481,481,481,481,481,481,481,481,478,472,455,438,419,393,327,281,222,167,107,61,0,0,0,0,0,0,0,0,0,0,0,14],"timestamp_mouse":[13,41,53,73,94,113,134,153,174,192,214,234,253,274,293,312,334,353,373,394,414,433,454,473,493,512,534,553,573,593,613,634,654,673,694,713,734,752,773,793,812,833,854,873,893,913,933,953,973,992],"xSR":741.5,"ySR":469.95,"xT1":424.9,"yT1":0,"xT2":1058.1,"yT2":0,"toosoon":0,"cond_shown":"randomdotsizeEA","ratio_trial":900,"smaller_num":"18","larger_num":"20","correct_side":1,"subjID":"paulaperilla3","gender":"1","age":"12","school":"6"},{"start_time":1551900288793,"click_time":1551900290580,"finger_time":1551900289539,"fix_duration":752.277348561306,"trial":41,"RT":746,"MT":1041,"sideResp":1,"stimulus":"img/750/randomdotsizeEA/R/5_Ratio_750_L_15_R_20.png","xmouse":[802,802,802,802,802,802,802,802,802,802,802,802,802,802,802,802,802,802,802,802,802,802,802,802,802,802,802,802,802,802,802,802,802,802,802,797,777,736,675,625,561,548,548,548,548,548,548,548,548,548,548,548,548,548,548,548,548,548,548,548,548,548,551,551,553,553,553,553,553,553,553,554,554,554,554,554,554,554,554,554,554,554,554,554,554,554,554,551,547,520],"ymouse":[530,530,530,530,530,530,530,530,530,530,530,530,530,530,530,530,530,530,530,530,530,530,530,530,530,530,530,530,530,530,530,530,530,530,530,520,481,407,325,254,154,127,121,121,121,121,121,121,121,121,121,121,121,121,121,121,121,121,121,121,121,120,121,122,123,123,123,123,123,123,123,123,123,124,124,124,124,124,124,124,124,124,124,124,124,124,124,120,118,95],"timestamp_mouse":[9,25,46,65,86,105,127,147,166,186,207,226,247,266,285,305,326,347,365,386,406,425,446,467,487,506,527,547,567,585,606,626,647,667,686,705,725,746,766,785,806,826,846,867,887,906,926,945,965,987,1006,1025,1047,1066,1085,1107,1126,1147,1165,1186,1206,1226,1247,1266,1286,1305,1326,1346,1365,1387,1406,1425,1445,1466,1487,1507,1526,1547,1567,1586,1606,1625,1646,1666,1687,1707,1727,1746,1767,1787],"xSR":741.5,"ySR":469.95,"xT1":424.9,"yT1":0,"xT2":1058.1,"yT2":0,"toosoon":0,"cond_shown":"randomdotsizeEA","ratio_trial":750,"smaller_num":"15","larger_num":"20","correct_side":2,"subjID":"paulaperilla3","gender":"1","age":"12","school":"6"},{"start_time":1551900291990,"click_time":1551900292699,"finger_time":1551900292560,"fix_duration":250,"trial":42,"RT":570,"MT":139,"sideResp":2,"stimulus":"img/750/equaldotanddens/R/2_Ratio_750_L_6_R_8.png","xmouse":[778,778,778,778,778,778,778,778,778,778,778,778,778,778,778,778,778,778,778,778,778,778,778,778,778,779,783,792,806,856,912,948,982,1015,1058,1067],"ymouse":[489,489,489,489,489,489,489,489,489,489,489,489,489,489,489,489,489,489,489,489,489,489,489,489,489,489,489,479,464,403,335,280,222,163,76,52],"timestamp_mouse":[12,40,49,69,88,110,130,149,168,190,210,229,250,268,290,309,329,349,369,389,410,429,448,469,489,509,529,549,570,590,609,629,650,669,690,709],"xSR":741.5,"ySR":469.95,"xT1":424.9,"yT1":0,"xT2":1058.1,"yT2":0,"toosoon":0,"cond_shown":"equaldotanddens","ratio_trial":750,"smaller_num":"6","larger_num":"8","correct_side":2,"subjID":"paulaperilla3","gender":"1","age":"12","school":"6"},{"start_time":1551900294509,"click_time":1551900295599,"finger_time":1551900295079,"fix_duration":790.3579696440905,"trial":43,"RT":570,"MT":520,"sideResp":2,"stimulus":"img/250/equaldotanddens/R/6_Ratio_250_L_6_R_24.png","xmouse":[805,802,799,796,795,794,794,792,792,792,792,792,792,792,792,792,792,792,792,792,792,792,792,792,792,799,812,827,853,861,868,877,889,914,930,937,944,951,966,976,985,999,1012,1033,1038,1038,1038,1038,1038,1038,1038,1039,1041,1051,1059],"ymouse":[493,493,493,493,493,493,493,493,493,493,493,493,493,493,493,493,493,493,493,493,493,493,493,493,493,491,483,470,429,406,383,360,337,300,275,258,242,225,190,172,153,131,110,73,64,63,63,63,63,63,63,63,62,61,59],"timestamp_mouse":[11,31,51,74,90,110,129,149,171,191,210,230,251,270,290,309,330,350,370,389,411,431,451,471,490,510,530,550,570,589,609,631,649,671,689,710,730,750,771,790,810,830,851,870,889,910,930,950,970,991,1010,1030,1049,1071,1090],"xSR":741.5,"ySR":469.95,"xT1":424.9,"yT1":0,"xT2":1058.1,"yT2":0,"toosoon":0,"cond_shown":"equaldotanddens","ratio_trial":250,"smaller_num":"6","larger_num":"24","correct_side":2,"subjID":"paulaperilla3","gender":"1","age":"12","school":"6"},{"start_time":1551900297463,"click_time":1551900298459,"finger_time":1551900298079,"fix_duration":963.9705832003842,"trial":44,"RT":616,"MT":380,"sideResp":1,"stimulus":"img/900/equaldotanddens/L/10_Ratio_900_L_20_R_18.png","xmouse":[797,797,797,797,797,797,797,797,797,797,797,797,797,797,797,797,797,797,797,797,797,797,797,797,797,797,797,797,795,794,784,780,775,771,764,755,753,750,746,740,715,703,690,672,655,615,580,553,533,517],"ymouse":[491,491,491,491,491,491,491,491,491,491,491,491,491,491,491,491,491,491,491,491,491,491,491,491,491,491,491,491,490,483,446,423,397,373,350,318,309,305,300,294,280,271,260,242,223,166,107,66,38,15],"timestamp_mouse":[21,46,56,75,96,115,137,156,177,196,215,237,255,275,296,317,336,357,376,396,416,436,456,476,496,516,537,555,576,597,616,636,656,676,696,718,736,756,777,796,816,836,856,876,896,917,936,956,977,996],"xSR":741.5,"ySR":469.95,"xT1":424.9,"yT1":0,"xT2":1058.1,"yT2":0,"toosoon":0,"cond_shown":"equaldotanddens","ratio_trial":900,"smaller_num":"18","larger_num":"20","correct_side":1,"subjID":"paulaperilla3","gender":"1","age":"12","school":"6"},{"start_time":1551900300979,"click_time":1551900301999,"finger_time":1551900301579,"fix_duration":1497.326171439421,"trial":45,"RT":600,"MT":420,"sideResp":1,"stimulus":"img/250/randomdotsizeEA/L/1_Ratio_250_L_8_R_2.png","xmouse":[764,764,764,764,764,764,764,764,764,764,764,764,764,764,764,764,764,764,764,764,763,763,763,763,763,763,763,762,760,757,745,729,722,716,711,707,706,703,698,691,663,624,600,581,571,554,546,540,534,529,526,524],"ymouse":[537,537,537,537,537,537,537,537,537,537,537,537,537,537,537,537,537,537,537,537,537,537,537,537,537,537,537,535,528,508,446,389,362,342,328,313,309,304,295,283,241,184,146,116,96,69,59,52,49,47,47,47],"timestamp_mouse":[1,19,41,64,79,99,121,139,159,179,200,221,240,261,279,300,321,341,359,379,400,420,439,459,479,499,520,539,561,580,600,619,639,661,681,701,720,740,760,780,801,819,840,861,881,900,919,940,960,981,1001,1020],"xSR":741.5,"ySR":469.95,"xT1":424.9,"yT1":0,"xT2":1058.1,"yT2":0,"toosoon":0,"cond_shown":"randomdotsizeEA","ratio_trial":250,"smaller_num":"2","larger_num":"8","correct_side":1,"subjID":"paulaperilla3","gender":"1","age":"12","school":"6"},{"start_time":1551900303541,"click_time":1551900304479,"finger_time":1551900304199,"fix_duration":760.6302836501344,"trial":46,"RT":658,"MT":280,"sideResp":1,"stimulus":"img/500/equaldotanddens/L/13_Ratio_500_L_12_R_6.png","xmouse":[768,768,768,768,768,768,768,768,768,768,768,768,768,768,768,768,768,768,768,768,768,768,768,768,768,768,768,768,768,769,770,770,770,770,766,763,753,748,741,732,716,657,613,586,563,543,524],"ymouse":[521,521,521,521,521,521,521,521,521,521,521,521,521,521,521,521,521,521,521,521,521,521,521,521,521,521,521,521,521,518,511,483,455,431,404,379,334,319,303,288,270,226,188,160,131,105,82],"timestamp_mouse":[18,38,59,79,98,118,138,157,179,199,218,239,258,277,297,318,338,357,377,398,419,438,458,478,499,518,537,558,578,598,618,638,658,678,698,718,738,758,779,798,817,839,858,878,899,918,938],"xSR":741.5,"ySR":469.95,"xT1":424.9,"yT1":0,"xT2":1058.1,"yT2":0,"toosoon":0,"cond_shown":"equaldotanddens","ratio_trial":500,"smaller_num":"6","larger_num":"12","correct_side":1,"subjID":"paulaperilla3","gender":"1","age":"12","school":"6"},{"start_time":1551900305453,"click_time":1551900306480,"finger_time":1551900306099,"fix_duration":250,"trial":47,"RT":646,"MT":381,"sideResp":2,"stimulus":"img/500/equaldotanddens/R/12_Ratio_500_L_1_R_2.png","xmouse":[782,782,782,782,782,782,782,782,782,782,782,782,782,782,782,782,782,782,782,782,782,782,782,782,782,782,782,782,782,782,786,824,867,917,965,1010,1057,1075,1084,1088,1092,1099,1101,1103,1105,1106,1106,1106,1107,1107,1108,1110],"ymouse":[534,534,534,534,534,534,534,534,534,534,534,534,534,534,534,534,534,534,534,534,534,534,534,534,534,534,534,534,534,534,532,494,455,406,354,300,230,197,183,175,167,151,141,134,127,121,117,114,113,112,108,99],"timestamp_mouse":[6,35,47,66,85,106,126,145,165,186,207,227,246,266,286,307,326,347,365,386,406,425,447,466,487,506,526,546,566,586,606,626,646,666,687,706,727,746,766,786,807,826,846,866,886,907,926,946,967,987,1006,1027],"xSR":741.5,"ySR":469.95,"xT1":424.9,"yT1":0,"xT2":1058.1,"yT2":0,"toosoon":0,"cond_shown":"equaldotanddens","ratio_trial":500,"smaller_num":"1","larger_num":"2","correct_side":2,"subjID":"paulaperilla3","gender":"1","age":"12","school":"6"},{"start_time":1551900307531,"click_time":1551900308499,"finger_time":1551900308139,"fix_duration":250,"trial":48,"RT":608,"MT":360,"sideResp":1,"stimulus":"img/900/equaldotanddens/L/10_Ratio_900_L_20_R_18.png","xmouse":[826,826,826,826,826,826,826,826,826,826,826,826,826,826,826,826,826,826,826,826,826,826,826,826,826,826,825,817,811,804,792,777,763,711,691,677,667,650,646,643,641,638,623,605,590,572,552,531,491],"ymouse":[530,530,530,530,530,530,530,530,530,530,530,530,530,530,530,530,530,530,530,530,530,530,530,530,530,530,530,518,503,485,458,423,384,262,218,186,162,131,125,121,119,116,112,106,99,91,82,73,51],"timestamp_mouse":[10,33,48,69,88,108,128,149,169,189,207,229,248,269,289,309,328,349,368,389,408,428,449,469,489,508,528,548,568,588,608,628,648,669,688,708,729,748,767,787,808,827,848,868,888,908,928,949,968],"xSR":741.5,"ySR":469.95,"xT1":424.9,"yT1":0,"xT2":1058.1,"yT2":0,"toosoon":0,"cond_shown":"equaldotanddens","ratio_trial":900,"smaller_num":"18","larger_num":"20","correct_side":1,"subjID":"paulaperilla3","gender":"1","age":"12","school":"6"},{"start_time":1551900311058,"click_time":1551900312239,"finger_time":1551900311739,"fix_duration":296.1116896102195,"trial":49,"RT":681,"MT":500,"sideResp":2,"stimulus":"img/250/randomdotsizeEA/R/12_Ratio_250_L_5_R_20.png","xmouse":[781,781,781,781,781,781,781,781,781,781,781,781,781,781,781,781,781,781,781,781,781,781,781,781,781,781,781,781,781,781,781,781,787,793,806,825,846,879,887,892,896,898,903,909,917,928,953,975,988,1000,1009,1016,1032,1040,1046,1049,1056,1058,1058,1059],"ymouse":[521,521,521,521,521,521,521,521,521,521,521,521,521,521,521,521,521,521,521,521,521,521,521,521,521,521,521,521,521,521,521,521,500,475,440,394,345,273,259,251,244,242,238,234,228,219,196,177,168,159,153,146,135,130,126,123,115,110,104,98],"timestamp_mouse":[11,35,41,61,81,102,122,142,160,182,202,221,241,262,280,301,321,341,360,381,401,421,442,461,480,502,522,542,561,580,601,622,641,662,681,701,721,742,761,781,801,820,841,861,882,901,921,941,960,980,1001,1021,1041,1061,1082,1101,1122,1141,1160,1181],"xSR":741.5,"ySR":469.95,"xT1":424.9,"yT1":0,"xT2":1058.1,"yT2":0,"toosoon":0,"cond_shown":"randomdotsizeEA","ratio_trial":250,"smaller_num":"5","larger_num":"20","correct_side":2,"subjID":"paulaperilla3","gender":"1","age":"12","school":"6"},{"start_time":1551900313954,"click_time":1551900314798,"finger_time":1551900314460,"fix_duration":773.7252319467148,"trial":50,"RT":506,"MT":338,"sideResp":1,"stimulus":"img/500/equaldotsize/L/13_Ratio_500_L_12_R_6.png","xmouse":[794,794,794,794,794,794,794,794,794,794,794,794,794,794,794,794,794,794,794,794,794,794,794,794,791,786,756,733,717,711,706,701,700,699,699,697,680,663,642,617,585,526,498],"ymouse":[500,500,500,500,500,500,500,500,500,500,500,500,500,500,500,500,500,500,500,500,500,500,500,499,477,451,343,289,249,224,208,191,189,188,187,186,177,169,154,137,109,58,34],"timestamp_mouse":[11,25,44,66,86,104,126,146,164,184,205,225,244,265,285,304,326,344,366,385,405,426,445,464,486,506,525,545,566,585,605,626,644,665,686,705,725,744,765,785,805,826,844],"xSR":741.5,"ySR":469.95,"xT1":424.9,"yT1":0,"xT2":1058.1,"yT2":0,"toosoon":0,"cond_shown":"equaldotsize","ratio_trial":500,"smaller_num":"6","larger_num":"12","correct_side":1,"subjID":"paulaperilla3","gender":"1","age":"12","school":"6"},{"start_time":1551900317171,"click_time":1551900318059,"finger_time":1551900317718,"fix_duration":1425.781179556363,"trial":51,"RT":547,"MT":341,"sideResp":1,"stimulus":"img/500/equaldotsize/L/4_Ratio_500_L_18_R_9.png","xmouse":[771,771,771,771,771,771,771,771,771,771,771,771,771,771,771,771,771,771,771,771,771,771,771,771,771,771,767,760,749,736,695,680,666,654,644,632,629,619,605,591,576,563,551,533,502],"ymouse":[491,491,491,491,491,491,491,492,492,492,492,492,492,492,492,492,492,492,492,492,492,492,492,492,492,492,473,450,418,386,288,253,224,204,189,176,175,172,168,164,157,146,134,117,93],"timestamp_mouse":[11,31,47,68,88,108,128,147,169,188,209,228,249,268,287,308,329,348,368,389,408,428,447,467,489,509,528,547,569,588,610,627,648,668,688,708,727,748,769,787,809,828,847,867,888],"xSR":741.5,"ySR":469.95,"xT1":424.9,"yT1":0,"xT2":1058.1,"yT2":0,"toosoon":0,"cond_shown":"equaldotsize","ratio_trial":500,"smaller_num":"9","larger_num":"18","correct_side":1,"subjID":"paulaperilla3","gender":"1","age":"12","school":"6"},{"start_time":1551900321432,"click_time":1551900322598,"finger_time":1551900322079,"fix_duration":1110.1194179306624,"trial":52,"RT":647,"MT":519,"sideResp":2,"stimulus":"img/750/equaldotanddens/R/4_Ratio_750_L_15_R_20.png","xmouse":[789,789,789,789,788,787,786,786,786,786,786,786,785,785,785,785,785,785,785,783,783,782,782,782,782,782,782,782,781,782,790,804,820,849,861,873,888,911,921,928,933,939,958,969,982,992,1001,1011,1021,1021,1023,1025,1037,1041,1044,1046,1048,1058,1077],"ymouse":[521,521,521,521,521,521,521,521,521,521,521,521,521,521,521,521,521,521,521,521,521,521,521,521,521,521,521,521,520,515,495,471,442,383,354,332,313,287,276,268,261,253,234,222,209,194,181,168,152,151,149,146,137,134,130,128,126,113,93],"timestamp_mouse":[10,40,46,67,88,107,128,147,168,186,206,227,248,267,287,308,327,346,367,387,408,426,447,468,486,507,528,546,566,587,608,627,647,667,687,707,727,749,767,787,806,827,848,867,887,907,927,947,968,987,1006,1026,1048,1067,1087,1108,1127,1148,1166],"xSR":741.5,"ySR":469.95,"xT1":424.9,"yT1":0,"xT2":1058.1,"yT2":0,"toosoon":0,"cond_shown":"equaldotanddens","ratio_trial":750,"smaller_num":"15","larger_num":"20","correct_side":2,"subjID":"paulaperilla3","gender":"1","age":"12","school":"6"},{"start_time":1551900324902,"click_time":1551900325919,"finger_time":1551900325479,"fix_duration":1421.7558063635422,"trial":53,"RT":577,"MT":440,"sideResp":2,"stimulus":"img/750/equaldotsize/R/7_Ratio_750_L_3_R_4.png","xmouse":[821,821,821,821,821,821,821,821,821,821,821,821,821,821,821,821,821,821,821,821,821,821,821,821,821,820,826,834,842,874,887,902,911,931,952,976,1004,1027,1037,1043,1043,1043,1043,1043,1043,1043,1044,1050,1066,1075,1081],"ymouse":[524,524,524,524,524,524,524,524,524,524,524,524,524,524,524,524,524,524,524,524,524,524,524,524,524,516,499,471,442,366,336,312,295,266,238,206,172,145,129,121,121,121,121,121,121,121,121,118,108,101,97],"timestamp_mouse":[24,36,57,77,96,116,137,156,176,197,218,236,256,277,298,317,338,357,376,397,417,437,457,478,496,517,537,557,577,597,617,638,658,678,696,717,736,757,777,796,816,836,857,877,898,917,937,956,977,997,1017],"xSR":741.5,"ySR":469.95,"xT1":424.9,"yT1":0,"xT2":1058.1,"yT2":0,"toosoon":0,"cond_shown":"equaldotsize","ratio_trial":750,"smaller_num":"3","larger_num":"4","correct_side":2,"subjID":"paulaperilla3","gender":"1","age":"12","school":"6"},{"start_time":1551900331260,"click_time":1551900332899,"finger_time":1551900331979,"fix_duration":439.73348771728837,"trial":54,"RT":719,"MT":920,"sideResp":1,"stimulus":"img/900/equaldotanddens/L/2_Ratio_900_L_20_R_18.png","xmouse":[800,800,800,800,799,799,799,799,799,798,798,798,798,798,798,797,797,797,797,797,797,797,797,797,797,797,797,797,797,797,797,797,794,788,778,767,755,728,720,713,706,699,680,674,670,667,655,616,573,549,540,538,538,538,538,537,536,536,536,536,535,532,522,511,508,508,508,508,508,508,508,508,508,508,508,508,503,493,485,475,466,461,461],"ymouse":[529,529,529,529,529,529,529,529,529,529,529,529,529,529,529,529,529,529,529,529,529,529,529,529,529,529,529,529,529,529,529,529,525,512,498,478,455,406,388,371,356,337,304,291,284,275,254,227,208,194,185,182,181,181,181,179,178,177,177,176,176,176,193,237,244,244,244,244,244,244,244,244,244,244,244,244,229,201,179,156,132,100,88],"timestamp_mouse":[1,18,51,59,80,100,119,139,160,179,198,219,240,260,278,299,320,340,360,379,399,419,439,459,479,500,520,538,560,580,600,620,639,660,679,698,719,740,759,780,800,820,839,859,880,899,919,939,959,978,1000,1019,1039,1060,1079,1100,1120,1139,1158,1178,1198,1220,1239,1259,1279,1299,1319,1339,1360,1379,1399,1418,1438,1459,1478,1499,1519,1539,1559,1580,1600,1620,1639],"xSR":741.5,"ySR":469.95,"xT1":424.9,"yT1":0,"xT2":1058.1,"yT2":0,"toosoon":0,"cond_shown":"equaldotanddens","ratio_trial":900,"smaller_num":"18","larger_num":"20","correct_side":1,"subjID":"paulaperilla3","gender":"1","age":"12","school":"6"},{"start_time":1551900334681,"click_time":1551900335899,"finger_time":1551900335360,"fix_duration":661.4271113729308,"trial":55,"RT":679,"MT":539,"sideResp":1,"stimulus":"img/250/equaldotsize/L/5_Ratio_250_L_24_R_6.png","xmouse":[791,791,791,791,791,791,791,791,791,791,791,791,791,791,791,791,791,791,791,791,791,791,791,791,791,791,791,791,791,791,791,785,778,753,692,660,649,640,634,624,624,624,624,624,624,624,624,624,624,624,624,623,620,617,607,595,587,574,560,547,524],"ymouse":[514,514,514,514,514,514,514,514,514,514,514,514,514,514,514,514,514,514,514,514,514,514,514,514,514,514,514,514,514,514,514,500,485,443,339,281,255,236,220,203,203,203,203,203,203,203,203,203,203,203,203,200,196,191,178,164,153,138,122,106,80],"timestamp_mouse":[18,39,61,79,98,117,138,159,178,198,219,239,257,278,299,318,338,359,377,398,418,438,459,479,497,517,539,559,579,597,619,638,658,679,699,717,738,758,777,799,818,839,859,879,898,919,939,958,978,998,1018,1038,1058,1078,1099,1117,1138,1158,1179,1198,1217],"xSR":741.5,"ySR":469.95,"xT1":424.9,"yT1":0,"xT2":1058.1,"yT2":0,"toosoon":0,"cond_shown":"equaldotsize","ratio_trial":250,"smaller_num":"6","larger_num":"24","correct_side":1,"subjID":"paulaperilla3","gender":"1","age":"12","school":"6"},{"start_time":1551900340833,"click_time":1551900342039,"finger_time":1551900341600,"fix_duration":1333.7480744619857,"trial":56,"RT":767,"MT":439,"sideResp":1,"stimulus":"img/250/randomdotsizeEA/L/14_Ratio_250_L_12_R_3.png","xmouse":[785,785,785,785,785,785,785,785,785,785,785,785,785,785,785,785,785,785,785,785,785,785,785,785,785,785,785,785,785,785,785,785,785,785,785,785,785,781,700,643,562,562,518,507,501,498,495,493,484,482,482,481,481,481,481,481,481,481,482,482,483],"ymouse":[516,516,516,516,516,516,516,516,516,516,516,516,516,516,516,516,516,516,516,516,516,516,516,516,516,516,516,516,516,516,516,516,516,516,516,516,516,506,394,334,250,250,192,172,160,155,151,148,138,135,134,132,131,125,121,116,112,106,102,100,97],"timestamp_mouse":[10,26,62,67,87,107,125,146,167,194,206,226,246,266,286,306,325,346,366,386,407,427,446,466,487,506,526,547,567,587,606,625,647,667,686,707,727,746,767,786,815,826,847,866,886,905,926,947,966,986,1007,1026,1046,1066,1086,1106,1126,1147,1166,1186,1206],"xSR":741.5,"ySR":469.95,"xT1":424.9,"yT1":0,"xT2":1058.1,"yT2":0,"toosoon":0,"cond_shown":"randomdotsizeEA","ratio_trial":250,"smaller_num":"3","larger_num":"12","correct_side":1,"subjID":"paulaperilla3","gender":"1","age":"12","school":"6"},{"start_time":1551900343032,"click_time":1551900344139,"finger_time":1551900343640,"fix_duration":250,"trial":57,"RT":608,"MT":499,"sideResp":1,"stimulus":"img/900/randomdotsizeEA/R/6_Ratio_900_L_9_R_10.png","xmouse":[759,759,759,759,759,759,759,759,759,759,759,759,759,759,759,759,759,759,759,759,759,759,759,759,759,759,759,759,759,756,753,749,726,714,699,687,673,645,622,608,593,580,563,555,547,537,528,513,512,510,508,507,504,503,502,502],"ymouse":[519,519,519,519,519,519,519,519,519,519,519,519,519,519,519,519,519,519,519,519,519,519,519,519,519,519,519,516,498,478,453,423,338,300,267,245,222,195,181,175,169,164,155,150,145,140,137,128,126,123,118,114,106,104,100,98],"timestamp_mouse":[7,27,52,67,88,107,128,148,168,188,207,228,248,267,288,308,327,348,368,388,406,426,448,467,487,508,528,547,568,587,608,627,648,667,687,708,728,748,766,787,807,827,848,866,888,907,926,948,968,987,1008,1027,1048,1067,1087,1107],"xSR":741.5,"ySR":469.95,"xT1":424.9,"yT1":0,"xT2":1058.1,"yT2":0,"toosoon":0,"cond_shown":"randomdotsizeEA","ratio_trial":900,"smaller_num":"9","larger_num":"10","correct_side":2,"subjID":"paulaperilla3","gender":"1","age":"12","school":"6"},{"start_time":1551900346211,"click_time":1551900347099,"finger_time":1551900346780,"fix_duration":1349.06871744839,"trial":58,"RT":569,"MT":319,"sideResp":2,"stimulus":"img/900/equaldotsize/L/8_Ratio_900_L_20_R_18.png","xmouse":[808,808,808,808,808,808,808,808,808,808,808,808,808,808,808,808,808,808,808,808,808,808,808,808,809,813,820,831,880,905,928,947,969,983,984,985,987,990,1002,1011,1015,1023,1032,1042,1063],"ymouse":[549,549,549,549,549,549,549,549,549,549,549,549,549,549,549,549,548,547,546,546,545,544,543,541,537,528,511,486,369,312,259,215,171,146,144,143,142,138,126,119,115,109,102,96,83],"timestamp_mouse":[10,27,48,69,87,108,128,148,168,188,209,228,249,269,289,308,328,349,368,388,408,428,448,468,488,508,528,547,569,588,608,628,649,669,688,708,728,749,768,787,809,829,848,869,888],"xSR":741.5,"ySR":469.95,"xT1":424.9,"yT1":0,"xT2":1058.1,"yT2":0,"toosoon":0,"cond_shown":"equaldotsize","ratio_trial":900,"smaller_num":"18","larger_num":"20","correct_side":1,"subjID":"paulaperilla3","gender":"1","age":"12","school":"6"},{"start_time":1551900348072,"click_time":1551900349400,"finger_time":1551900348520,"fix_duration":250,"trial":59,"RT":448,"MT":880,"sideResp":1,"stimulus":"img/750/equaldotanddens/L/14_Ratio_750_L_8_R_6.png","xmouse":[778,778,778,778,778,778,778,778,778,778,778,778,778,778,778,778,778,778,778,778,777,772,765,760,755,742,735,728,720,711,685,673,664,653,641,606,565,542,527,524,524,524,524,524,524,524,524,528,532,532,537,537,538,538,538,538,538,538,538,539,542,545,549,551,551,551,519],"ymouse":[542,542,542,542,542,542,542,542,542,542,542,542,542,542,542,542,542,542,542,542,514,481,439,404,368,313,277,256,234,214,182,174,169,163,158,143,131,124,120,119,119,119,119,119,119,119,119,119,119,119,119,119,119,119,119,119,119,119,119,119,117,114,111,108,107,106,86],"timestamp_mouse":[10,38,47,67,88,107,128,147,167,188,208,228,247,268,287,307,328,347,367,387,407,427,448,467,487,508,527,548,567,588,608,627,647,668,688,708,727,747,767,788,807,827,847,868,887,907,928,947,967,987,1008,1027,1047,1068,1088,1107,1127,1148,1167,1188,1208,1227,1247,1268,1288,1308,1327],"xSR":741.5,"ySR":469.95,"xT1":424.9,"yT1":0,"xT2":1058.1,"yT2":0,"toosoon":0,"cond_shown":"equaldotanddens","ratio_trial":750,"smaller_num":"6","larger_num":"8","correct_side":1,"subjID":"paulaperilla3","gender":"1","age":"12","school":"6"},{"start_time":1551900351190,"click_time":1551900351879,"finger_time":1551900351599,"fix_duration":889.0379301343057,"trial":60,"RT":409,"MT":280,"sideResp":2,"stimulus":"img/250/equaldotanddens/R/11_Ratio_250_L_3_R_12.png","xmouse":[772,773,773,773,773,773,774,774,774,774,774,774,776,779,786,790,794,797,801,805,829,842,860,889,970,1010,1029,1036,1037,1037,1039,1045,1051,1057,1062],"ymouse":[525,525,525,525,525,525,525,525,525,525,525,525,523,518,505,497,492,485,478,471,429,403,367,312,166,99,65,54,53,53,51,49,47,44,43],"timestamp_mouse":[14,29,56,69,89,109,129,149,170,189,209,229,249,270,289,309,329,349,370,389,409,429,449,469,490,509,529,550,569,590,610,629,650,670,689],"xSR":741.5,"ySR":469.95,"xT1":424.9,"yT1":0,"xT2":1058.1,"yT2":0,"toosoon":0,"cond_shown":"equaldotanddens","ratio_trial":250,"smaller_num":"3","larger_num":"12","correct_side":2,"subjID":"paulaperilla3","gender":"1","age":"12","school":"6"},{"start_time":1551900353204,"click_time":1551900354599,"finger_time":1551900353879,"fix_duration":623.0002600863025,"trial":61,"RT":675,"MT":720,"sideResp":2,"stimulus":"img/750/equaldotsize/R/2_Ratio_750_L_6_R_8.png","xmouse":[835,835,835,835,835,835,835,835,835,835,835,835,835,835,834,833,833,832,831,830,830,830,830,830,830,830,830,829,827,824,821,818,816,814,813,813,816,823,844,871,894,928,964,1007,1013,1014,1014,1014,1018,1027,1033,1035,1039,1050,1056,1059,1061,1063,1063,1063,1063,1063,1063,1064,1065,1066,1066,1069,1073,1079],"ymouse":[538,538,538,538,538,538,538,538,538,538,538,539,539,539,538,538,536,535,534,533,533,533,532,532,532,531,530,529,523,512,501,488,474,462,441,432,419,401,364,327,296,256,213,165,160,160,160,160,157,151,147,144,142,135,133,131,130,129,129,129,129,128,128,127,122,120,117,112,102,91],"timestamp_mouse":[16,40,56,75,95,115,135,155,175,195,215,236,255,276,295,315,336,356,375,395,415,435,455,475,495,516,535,555,575,596,615,636,655,675,695,716,736,755,776,795,815,835,855,876,895,915,936,956,976,995,1016,1036,1055,1076,1095,1116,1136,1155,1176,1196,1215,1235,1254,1276,1296,1315,1336,1355,1376,1395],"xSR":741.5,"ySR":469.95,"xT1":424.9,"yT1":0,"xT2":1058.1,"yT2":0,"toosoon":0,"cond_shown":"equaldotsize","ratio_trial":750,"smaller_num":"6","larger_num":"8","correct_side":2,"subjID":"paulaperilla3","gender":"1","age":"12","school":"6"},{"start_time":1551900357054,"click_time":1551900357699,"finger_time":1551900357579,"fix_duration":1452.382214049257,"trial":62,"RT":525,"MT":120,"sideResp":2,"stimulus":"img/250/equaldotanddens/R/6_Ratio_250_L_6_R_24.png","xmouse":[825,825,825,825,825,825,825,825,825,825,825,825,825,824,824,824,823,822,822,822,822,822,822,822,822,826,867,904,956,984,1011,1037,1081],"ymouse":[539,539,539,539,539,539,539,539,539,539,539,539,539,539,539,539,539,539,539,539,539,539,538,538,536,518,454,401,320,265,206,156,77],"timestamp_mouse":[13,26,45,66,86,105,125,146,165,186,206,226,246,266,286,305,325,346,365,386,405,425,444,465,486,506,525,545,565,586,605,625,644],"xSR":741.5,"ySR":469.95,"xT1":424.9,"yT1":0,"xT2":1058.1,"yT2":0,"toosoon":0,"cond_shown":"equaldotanddens","ratio_trial":250,"smaller_num":"6","larger_num":"24","correct_side":2,"subjID":"paulaperilla3","gender":"1","age":"12","school":"6"},{"start_time":1551900358631,"click_time":1551900360119,"finger_time":1551900359519,"fix_duration":250,"trial":63,"RT":888,"MT":600,"sideResp":1,"stimulus":"img/900/equaldotsize/R/3_Ratio_900_L_9_R_10.png","xmouse":[796,796,796,796,796,796,796,796,796,796,796,796,796,796,796,796,796,796,796,796,796,796,798,799,800,801,801,802,802,802,802,802,802,802,802,802,802,802,802,802,802,801,794,784,769,748,729,704,691,688,685,683,681,680,679,677,665,632,606,591,574,557,523,518,517,517,517,517,516,516,516,516,516,514,511],"ymouse":[560,560,560,560,560,560,560,560,560,560,560,560,560,560,560,560,560,560,560,560,560,557,549,546,542,540,538,535,535,535,535,535,535,535,535,535,535,535,535,534,530,524,501,478,448,406,365,303,242,219,200,186,178,174,173,172,166,155,148,144,141,136,127,125,125,125,125,125,124,124,122,118,109,104,99],"timestamp_mouse":[9,29,49,68,89,109,128,148,169,188,209,229,249,268,288,308,327,348,369,389,408,428,449,468,489,509,528,548,569,589,609,628,649,668,689,709,729,748,769,788,808,829,848,868,888,909,928,949,968,988,1008,1028,1048,1068,1088,1108,1128,1149,1168,1188,1209,1228,1249,1268,1288,1308,1329,1348,1369,1388,1408,1428,1448,1469,1488],"xSR":741.5,"ySR":469.95,"xT1":424.9,"yT1":0,"xT2":1058.1,"yT2":0,"toosoon":0,"cond_shown":"equaldotsize","ratio_trial":900,"smaller_num":"9","larger_num":"10","correct_side":2,"subjID":"paulaperilla3","gender":"1","age":"12","school":"6"},{"start_time":1551900361659,"click_time":1551900362560,"finger_time":1551900362120,"fix_duration":497.01985829700936,"trial":64,"RT":461,"MT":440,"sideResp":2,"stimulus":"img/900/equaldotanddens/R/14_Ratio_900_L_18_R_20.png","xmouse":[802,802,802,802,802,802,802,802,802,802,802,802,802,802,802,802,802,802,802,802,802,803,808,817,834,859,915,948,959,965,967,968,972,977,982,987,993,998,1001,1004,1010,1027,1036,1046,1057,1066],"ymouse":[506,506,506,506,506,506,506,506,506,506,506,506,506,506,506,506,506,506,506,506,506,505,485,459,416,355,225,151,125,113,109,108,104,99,94,90,84,80,79,78,76,72,69,68,66,65],"timestamp_mouse":[9,20,42,60,81,100,120,141,161,180,200,221,240,261,280,300,321,341,361,381,401,420,440,461,480,500,521,540,561,581,600,620,640,660,680,700,721,740,760,780,801,821,840,860,880,901],"xSR":741.5,"ySR":469.95,"xT1":424.9,"yT1":0,"xT2":1058.1,"yT2":0,"toosoon":0,"cond_shown":"equaldotanddens","ratio_trial":900,"smaller_num":"18","larger_num":"20","correct_side":2,"subjID":"paulaperilla3","gender":"1","age":"12","school":"6"},{"start_time":1551900365743,"click_time":1551900366980,"finger_time":1551900366379,"fix_duration":1022.4620613941291,"trial":65,"RT":636,"MT":601,"sideResp":1,"stimulus":"img/900/randomdotsizeEA/L/10_Ratio_900_L_20_R_18.png","xmouse":[778,778,778,778,778,778,778,778,778,778,778,778,778,778,778,778,778,778,778,778,778,778,778,778,778,778,778,778,778,775,774,759,735,715,696,687,681,681,681,681,680,673,660,650,640,631,600,584,574,570,567,564,562,559,554,548,541,540,538,536,531,523],"ymouse":[516,516,516,516,516,516,516,516,516,516,516,516,516,516,516,516,516,516,516,516,516,516,516,516,516,516,516,516,516,514,508,458,369,301,236,199,181,179,179,179,177,170,163,158,155,154,144,139,136,134,132,130,129,128,126,124,118,116,113,107,98,90],"timestamp_mouse":[16,40,57,76,97,116,137,156,176,197,217,235,257,276,297,316,336,356,377,396,416,436,457,477,496,517,536,556,577,596,617,636,656,676,697,716,737,755,776,796,816,838,856,876,896,917,937,956,976,997,1016,1036,1057,1076,1097,1116,1137,1156,1176,1197,1217,1237],"xSR":741.5,"ySR":469.95,"xT1":424.9,"yT1":0,"xT2":1058.1,"yT2":0,"toosoon":0,"cond_shown":"randomdotsizeEA","ratio_trial":900,"smaller_num":"18","larger_num":"20","correct_side":1,"subjID":"paulaperilla3","gender":"1","age":"12","school":"6"},{"start_time":1551900369093,"click_time":1551900370299,"finger_time":1551900369819,"fix_duration":930.2175364564695,"trial":66,"RT":726,"MT":480,"sideResp":1,"stimulus":"img/900/equaldotanddens/L/8_Ratio_900_L_20_R_18.png","xmouse":[783,783,783,783,783,783,783,783,783,783,783,783,783,783,783,783,783,783,783,783,783,783,783,783,783,783,783,783,783,783,783,783,783,783,782,777,772,757,742,714,701,690,683,675,667,662,659,653,643,613,599,588,577,571,566,565,565,563,558,526,510],"ymouse":[510,510,510,510,510,510,510,510,510,510,510,510,510,511,511,511,511,511,511,511,511,511,511,511,511,511,511,511,511,511,511,511,511,511,510,470,440,391,334,229,185,151,128,112,99,92,87,79,71,60,56,52,50,50,49,49,49,49,49,52,55],"timestamp_mouse":[9,27,46,66,85,106,126,146,166,186,207,227,247,266,287,305,327,346,367,386,407,426,447,467,486,506,527,547,566,586,607,627,646,666,686,707,726,746,766,787,806,826,846,866,887,906,926,947,967,986,1005,1026,1046,1067,1087,1107,1127,1147,1166,1186,1206],"xSR":741.5,"ySR":469.95,"xT1":424.9,"yT1":0,"xT2":1058.1,"yT2":0,"toosoon":0,"cond_shown":"equaldotanddens","ratio_trial":900,"smaller_num":"18","larger_num":"20","correct_side":1,"subjID":"paulaperilla3","gender":"1","age":"12","school":"6"},{"start_time":1551900371418,"click_time":1551900372519,"finger_time":1551900372139,"fix_duration":296.8674322498426,"trial":67,"RT":721,"MT":380,"sideResp":2,"stimulus":"img/750/equaldotsize/R/12_Ratio_750_L_3_R_4.png","xmouse":[811,811,811,811,811,811,811,811,811,811,811,811,811,811,811,811,811,811,811,811,811,811,811,811,811,811,811,811,811,811,811,811,811,811,811,813,819,828,851,871,887,904,925,967,988,1005,1019,1028,1038,1041,1043,1045,1047,1052,1055,1060],"ymouse":[493,493,493,493,493,493,493,493,493,493,493,493,493,493,493,493,493,493,493,493,493,493,493,493,493,493,493,493,493,493,493,493,493,493,486,477,463,447,408,373,344,315,278,199,165,143,124,111,96,91,89,86,83,77,74,69],"timestamp_mouse":[9,21,41,62,81,101,122,141,161,182,201,221,242,261,282,300,321,341,361,381,402,422,442,461,482,501,521,541,562,581,602,622,642,662,681,701,721,742,762,781,801,822,842,862,881,901,921,942,963,982,1001,1021,1041,1061,1081,1101],"xSR":741.5,"ySR":469.95,"xT1":424.9,"yT1":0,"xT2":1058.1,"yT2":0,"toosoon":0,"cond_shown":"equaldotsize","ratio_trial":750,"smaller_num":"3","larger_num":"4","correct_side":2,"subjID":"paulaperilla3","gender":"1","age":"12","school":"6"},{"start_time":1551900377884,"click_time":1551900378799,"finger_time":1551900378479,"fix_duration":484.5156827770819,"trial":68,"RT":595,"MT":320,"sideResp":2,"stimulus":"img/500/equaldotsize/R/12_Ratio_500_L_1_R_2.png","xmouse":[776,776,776,776,776,776,776,776,776,776,776,776,776,776,776,776,776,776,776,776,776,776,776,776,776,776,776,777,784,826,859,893,925,940,945,946,950,960,975,993,1002,1010,1015,1026,1093,1150],"ymouse":[502,502,502,502,502,502,502,502,502,502,502,502,502,502,502,502,502,502,502,502,502,502,502,502,502,502,502,501,497,460,429,395,360,341,333,331,327,319,310,296,286,275,265,245,149,53],"timestamp_mouse":[16,46,55,76,96,115,136,155,175,195,215,236,255,276,295,316,335,355,376,395,416,436,455,476,495,515,536,555,575,595,615,635,655,675,696,716,735,756,775,796,814,835,855,875,896,914],"xSR":741.5,"ySR":469.95,"xT1":424.9,"yT1":0,"xT2":1058.1,"yT2":0,"toosoon":0,"cond_shown":"equaldotsize","ratio_trial":500,"smaller_num":"1","larger_num":"2","correct_side":2,"subjID":"paulaperilla3","gender":"1","age":"12","school":"6"},{"start_time":1551900381147,"click_time":1551900382180,"finger_time":1551900381720,"fix_duration":1266.8438715997927,"trial":69,"RT":573,"MT":460,"sideResp":1,"stimulus":"img/250/equaldotsize/L/15_Ratio_250_L_12_R_3.png","xmouse":[792,792,792,792,792,792,792,792,792,792,792,792,792,792,792,792,792,792,792,792,792,792,792,792,792,792,785,765,733,693,640,490,424,413,405,403,401,398,398,398,397,397,397,397,397,397,397,397,398,407,419,441],"ymouse":[508,508,508,508,508,508,508,508,508,508,508,508,508,508,508,508,508,508,508,508,508,508,508,508,508,508,500,479,445,404,340,168,93,72,44,34,23,9,7,6,5,4,4,4,4,4,4,4,8,23,39,67],"timestamp_mouse":[13,32,62,73,93,112,131,152,173,193,212,232,252,273,293,313,332,353,373,392,412,432,452,472,493,513,533,552,573,592,613,633,651,672,693,712,732,753,773,792,811,833,852,872,893,913,932,952,972,992,1012,1033],"xSR":741.5,"ySR":469.95,"xT1":424.9,"yT1":0,"xT2":1058.1,"yT2":0,"toosoon":0,"cond_shown":"equaldotsize","ratio_trial":250,"smaller_num":"3","larger_num":"12","correct_side":1,"subjID":"paulaperilla3","gender":"1","age":"12","school":"6"},{"start_time":1551900383331,"click_time":1551900384019,"finger_time":1551900383879,"fix_duration":250,"trial":70,"RT":548,"MT":140,"sideResp":2,"stimulus":"img/900/equaldotsize/L/2_Ratio_900_L_20_R_18.png","xmouse":[798,798,798,798,798,798,798,798,798,798,798,798,798,798,798,798,798,798,798,798,798,798,798,799,802,807,818,847,864,894,928,963,1012,1055,1069],"ymouse":[530,530,530,530,530,530,530,530,530,530,530,530,530,530,530,530,530,530,530,530,530,530,530,526,521,512,497,457,431,390,343,291,218,125,95],"timestamp_mouse":[13,36,48,69,89,109,128,149,168,189,209,228,248,269,288,308,329,348,369,389,409,428,448,468,488,509,528,548,568,588,608,628,649,669,688],"xSR":741.5,"ySR":469.95,"xT1":424.9,"yT1":0,"xT2":1058.1,"yT2":0,"toosoon":0,"cond_shown":"equaldotsize","ratio_trial":900,"smaller_num":"18","larger_num":"20","correct_side":1,"subjID":"paulaperilla3","gender":"1","age":"12","school":"6"},{"start_time":1551900386065,"click_time":1551900387400,"finger_time":1551900386579,"fix_duration":1064.556846758851,"trial":71,"RT":514,"MT":821,"sideResp":1,"stimulus":"img/750/randomdotsizeEA/L/10_Ratio_750_L_4_R_3.png","xmouse":[754,754,754,754,754,754,754,754,754,754,754,754,754,754,754,754,754,754,754,754,754,754,756,759,767,782,787,790,791,793,796,797,799,800,801,804,811,817,821,824,827,830,831,832,832,832,830,820,805,780,755,711,700,693,689,683,667,650,633,621,606,602,597,588,572,538,518],"ymouse":[510,510,510,510,510,510,509,509,509,509,509,509,509,509,509,509,509,509,509,509,509,509,505,495,477,453,445,437,434,432,429,426,425,423,422,418,411,404,398,395,392,386,384,381,378,369,353,335,311,279,250,198,186,176,171,161,152,144,139,134,130,128,125,122,114,101,91],"timestamp_mouse":[15,43,54,75,94,115,135,155,174,194,214,234,255,275,294,314,334,355,375,394,415,434,454,475,495,514,534,554,575,594,614,634,654,675,695,715,735,754,774,795,814,834,854,873,894,914,934,954,975,994,1014,1034,1054,1075,1094,1115,1134,1154,1173,1194,1214,1234,1254,1274,1294,1315,1335],"xSR":741.5,"ySR":469.95,"xT1":424.9,"yT1":0,"xT2":1058.1,"yT2":0,"toosoon":0,"cond_shown":"randomdotsizeEA","ratio_trial":750,"smaller_num":"3","larger_num":"4","correct_side":1,"subjID":"paulaperilla3","gender":"1","age":"12","school":"6"},{"start_time":1551900389151,"click_time":1551900390119,"finger_time":1551900389679,"fix_duration":250,"trial":72,"RT":528,"MT":440,"sideResp":1,"stimulus":"img/900/equaldotsize/L/1_Ratio_900_L_10_R_9.png","xmouse":[798,798,798,798,798,798,798,798,798,79