[{"start_time":1551794859646,"click_time":1551794860877,"finger_time":1551794860577,"fix_duration":564.7647862676766,"trial":0,"RT":931,"MT":300,"sideResp":1,"stimulus":"img/250/equaldotanddens/L/2_Ratio_250_L_16_R_4.png","xmouse":[794,794,794,794,794,794,794,794,794,794,794,794,794,794,794,794,794,794,794,794,794,794,794,794,794,794,794,794,794,794,794,794,794,794,794,794,794,793,793,791,790,786,781,774,764,752,727,714,696,684,670,641,627,619,613,607,590,577,560,541,529,513],"ymouse":[547,547,547,547,547,547,547,547,547,547,547,547,547,547,547,547,547,547,547,547,547,547,547,547,547,547,547,547,547,547,547,547,547,547,547,547,547,547,547,545,543,535,528,516,497,479,435,413,384,363,339,294,275,261,250,238,208,187,164,136,120,96],"timestamp_mouse":[11,45,51,71,91,111,131,152,172,192,211,232,251,273,293,311,332,353,371,392,412,432,451,472,492,512,531,552,571,593,613,632,652,671,691,711,731,751,771,791,812,831,851,872,892,911,931,952,971,991,1011,1031,1051,1071,1091,1112,1131,1151,1171,1191,1211,1231],"xSR":741.5,"ySR":501.8,"xT1":424.9,"yT1":0,"xT2":1058.1,"yT2":0,"toosoon":0,"cond_shown":"equaldotanddens","ratio_trial":250,"smaller_num":"4","larger_num":"16","correct_side":1,"subjID":"paulasofiacastellanoscastro","gender":"1","age":"11","school":"6","test":{"fix_dur":[250,1500],"timestim":300,"targets_dim":[100,100],"targets_relative_coord":[0.3,0.7],"size_stim":[880,420],"start_dim":[100,100],"size_start":[300,300],"size_fix":60,"samplingrate":20,"img_types":["equaldotsize","equaldotanddens","randomdotsizeEA"],"ratios":[250,500,750,900],"rep_conds":9,"nTrials":120,"trials_to_rest":500,"Trials_order":[109,80,89,18,62,115,87,19,34,113,45,68,46,35,73,93,22,82,25,41,16,84,112,12,118,29,79,70,10,44,49,2,27,8,9,75,102,110,43,96,104,14,20,24,101,85,65,52,91,13,54,117,92,32,76,95,31,11,38,60,63,6,15,105,83,23,116,37,94,86,30,119,53,97,78,58,98,67,40,64,47,111,51,88,5,81,1,55,17,99,77,21,7,4,61,100,48,71,42,56,3,59,103,107,0,90,50,114,36,106,69,66,39,72,33,26,28,74,57,108],"cond_shown":["equaldotanddens","randomdotsizeEA","randomdotsizeEA","equaldotsize","randomdotsizeEA","equaldotanddens","equaldotsize","equaldotanddens","equaldotanddens","randomdotsizeEA","equaldotsize","randomdotsizeEA","equaldotanddens","randomdotsizeEA","equaldotanddens","equaldotsize","equaldotanddens","equaldotanddens","equaldotanddens","randomdotsizeEA","equaldotanddens","equaldotsize","equaldotanddens","equaldotsize","equaldotanddens","randomdotsizeEA","equaldotanddens","equaldotanddens","equaldotanddens","randomdotsizeEA","equaldotanddens","randomdotsizeEA","equaldotsize","randomdotsizeEA","equaldotsize","equaldotsize","equaldotsize","randomdotsizeEA","equaldotanddens","equaldotsize","randomdotsizeEA","randomdotsizeEA","randomdotsizeEA","equaldotsize","randomdotsizeEA","equaldotanddens","randomdotsizeEA","equaldotanddens","equaldotanddens","equaldotanddens","equaldotsize","equaldotsize","randomdotsizeEA","randomdotsizeEA","equaldotanddens","randomdotsizeEA","equaldotanddens","randomdotsizeEA","randomdotsizeEA","equaldotsize","equaldotsize","equaldotsize","equaldotsize","equaldotsize","randomdotsizeEA","randomdotsizeEA","randomdotsizeEA","equaldotanddens","equaldotanddens","randomdotsizeEA","equaldotsize","randomdotsizeEA","randomdotsizeEA","equaldotanddens","equaldotsize","equaldotanddens","randomdotsizeEA","equaldotanddens","equaldotanddens","equaldotanddens","randomdotsizeEA","equaldotsize","equaldotsize","equaldotanddens","randomdotsizeEA","equaldotsize","equaldotanddens","equaldotanddens","randomdotsizeEA","equaldotsize","randomdotsizeEA","equaldotsize","equaldotanddens","equaldotanddens","equaldotanddens","equaldotanddens","equaldotsize","randomdotsizeEA","equaldotsize","randomdotsizeEA","equaldotsize","randomdotsizeEA","equaldotanddens","randomdotsizeEA","equaldotsize","equaldotsize","randomdotsizeEA","equaldotsize","equaldotsize","equaldotanddens","equaldotsize","equaldotsize","equaldotsize","equaldotsize","equaldotsize","randomdotsizeEA","equaldotanddens","randomdotsizeEA","equaldotsize","equaldotsize"],"ratio_trial":[250,750,500,750,250,750,500,750,900,500,900,750,900,900,250,900,900,900,250,500,500,250,500,250,900,500,750,900,900,750,250,250,500,750,900,500,750,250,750,250,750,250,750,250,500,250,500,500,750,250,750,900,750,750,500,900,750,900,250,250,500,750,500,900,900,900,750,250,900,250,750,900,500,250,750,900,250,750,500,500,900,500,500,500,500,900,250,750,500,500,500,900,750,500,250,500,250,900,750,750,500,900,750,900,250,750,250,750,250,900,900,750,500,250,900,250,500,250,900,250],"smaller_num":["4","3","6","3","3","12","1","15","18","9","18","12","18","18","2","18","18","9","6","3","9","3","3","3","18","3","15","18","18","3","2","2","5","6","18","4","3","6","3","6","18","2","15","3","9","2","3","6","6","4","3","9","15","15","2","9","3","18","3","2","9","12","4","18","9","9","3","3","18","2","3","18","10","3","15","18","3","6","4","6","9","5","5","1","6","18","3","15","2","9","5","18","15","4","2","9","1","18","15","6","2","18","3","18","2","3","3","3","6","18","18","15","9","6","18","3","5","3","18","2"],"larger_num":["16","4","12","4","12","16","2","20","20","18","20","16","20","20","8","20","20","10","24","6","18","12","6","12","20","6","20","20","20","4","8","8","10","8","20","8","4","24","4","24","24","8","20","12","18","8","6","12","8","16","4","10","20","20","4","10","4","20","12","8","18","16","8","20","10","10","4","12","20","8","4","20","20","12","20","20","12","8","8","12","10","10","10","2","12","20","12","20","4","18","10","20","20","8","8","18","4","20","20","8","4","20","4","20","8","4","12","4","24","20","20","20","18","24","20","12","10","12","20","8"],"correct_side":[1,1,1,1,2,2,2,1,2,2,1,2,1,2,2,1,2,2,1,2,1,1,2,2,1,2,2,2,1,1,1,1,2,1,2,1,2,1,1,1,1,1,2,2,1,1,2,1,2,2,2,1,2,1,1,2,1,1,2,2,2,2,1,1,2,1,1,2,1,1,2,1,2,2,2,2,1,2,1,1,2,2,1,2,1,1,2,2,1,2,1,2,1,1,1,2,2,1,2,1,1,1,1,2,1,1,1,1,2,1,1,1,2,1,1,2,2,2,2,1],"img_shown":["img/250/equaldotanddens/L/2_Ratio_250_L_16_R_4.png","img/750/randomdotsizeEA/L/9_Ratio_750_L_4_R_3.png","img/500/randomdotsizeEA/L/13_Ratio_500_L_12_R_6.png","img/750/equaldotsize/L/8_Ratio_750_L_4_R_3.png","img/250/randomdotsizeEA/R/9_Ratio_250_L_3_R_12.png","img/750/equaldotanddens/R/11_Ratio_750_L_12_R_16.png","img/500/equaldotsize/R/15_Ratio_500_L_1_R_2.png","img/750/equaldotanddens/L/1_Ratio_750_L_20_R_15.png","img/900/equaldotanddens/R/14_Ratio_900_L_18_R_20.png","img/500/randomdotsizeEA/R/6_Ratio_500_L_9_R_18.png","img/900/equaldotsize/L/8_Ratio_900_L_20_R_18.png","img/750/randomdotsizeEA/R/11_Ratio_750_L_12_R_16.png","img/900/equaldotanddens/L/2_Ratio_900_L_20_R_18.png","img/900/randomdotsizeEA/R/14_Ratio_900_L_18_R_20.png","img/250/equaldotanddens/R/13_Ratio_250_L_2_R_8.png","img/900/equaldotsize/L/10_Ratio_900_L_20_R_18.png","img/900/equaldotanddens/R/14_Ratio_900_L_18_R_20.png","img/900/equaldotanddens/R/15_Ratio_900_L_9_R_10.png","img/250/equaldotanddens/L/5_Ratio_250_L_24_R_6.png","img/500/randomdotsizeEA/R/2_Ratio_500_L_3_R_6.png","img/500/equaldotanddens/L/4_Ratio_500_L_18_R_9.png","img/250/equaldotsize/L/14_Ratio_250_L_12_R_3.png","img/500/equaldotanddens/R/2_Ratio_500_L_3_R_6.png","img/250/equaldotsize/R/9_Ratio_250_L_3_R_12.png","img/900/equaldotanddens/L/10_Ratio_900_L_20_R_18.png","img/500/randomdotsizeEA/R/2_Ratio_500_L_3_R_6.png","img/750/equaldotanddens/R/4_Ratio_750_L_15_R_20.png","img/900/equaldotanddens/R/11_Ratio_900_L_18_R_20.png","img/900/equaldotanddens/L/10_Ratio_900_L_20_R_18.png","img/750/randomdotsizeEA/L/10_Ratio_750_L_4_R_3.png","img/250/equaldotanddens/L/7_Ratio_250_L_8_R_2.png","img/250/randomdotsizeEA/L/7_Ratio_250_L_8_R_2.png","img/500/equaldotsize/R/14_Ratio_500_L_5_R_10.png","img/750/randomdotsizeEA/L/14_Ratio_750_L_8_R_6.png","img/900/equaldotsize/R/13_Ratio_900_L_18_R_20.png","img/500/equaldotsize/L/8_Ratio_500_L_8_R_4.png","img/750/equaldotsize/R/7_Ratio_750_L_3_R_4.png","img/250/randomdotsizeEA/L/5_Ratio_250_L_24_R_6.png","img/750/equaldotanddens/L/9_Ratio_750_L_4_R_3.png","img/250/equaldotsize/L/5_Ratio_250_L_24_R_6.png","img/750/randomdotsizeEA/L/6_Ratio_750_L_24_R_18.png","img/250/randomdotsizeEA/L/7_Ratio_250_L_8_R_2.png","img/750/randomdotsizeEA/R/5_Ratio_750_L_15_R_20.png","img/250/equaldotsize/R/4_Ratio_250_L_3_R_12.png","img/500/randomdotsizeEA/L/4_Ratio_500_L_18_R_9.png","img/250/equaldotanddens/L/3_Ratio_250_L_8_R_2.png","img/500/randomdotsizeEA/R/2_Ratio_500_L_3_R_6.png","img/500/equaldotanddens/L/13_Ratio_500_L_12_R_6.png","img/750/equaldotanddens/R/2_Ratio_750_L_6_R_8.png","img/250/equaldotanddens/R/10_Ratio_250_L_4_R_16.png","img/750/equaldotsize/R/12_Ratio_750_L_3_R_4.png","img/900/equaldotsize/L/1_Ratio_900_L_10_R_9.png","img/750/randomdotsizeEA/R/4_Ratio_750_L_15_R_20.png","img/750/randomdotsizeEA/L/1_Ratio_750_L_20_R_15.png","img/500/equaldotanddens/L/10_Ratio_500_L_4_R_2.png","img/900/randomdotsizeEA/R/15_Ratio_900_L_9_R_10.png","img/750/equaldotanddens/L/8_Ratio_750_L_4_R_3.png","img/900/randomdotsizeEA/L/8_Ratio_900_L_20_R_18.png","img/250/randomdotsizeEA/R/9_Ratio_250_L_3_R_12.png","img/250/equaldotsize/R/13_Ratio_250_L_2_R_8.png","img/500/equaldotsize/R/1_Ratio_500_L_9_R_18.png","img/750/equaldotsize/R/11_Ratio_750_L_12_R_16.png","img/500/equaldotsize/L/8_Ratio_500_L_8_R_4.png","img/900/equaldotsize/L/10_Ratio_900_L_20_R_18.png","img/900/randomdotsizeEA/R/15_Ratio_900_L_9_R_10.png","img/900/randomdotsizeEA/L/1_Ratio_900_L_10_R_9.png","img/750/randomdotsizeEA/L/9_Ratio_750_L_4_R_3.png","img/250/equaldotanddens/R/11_Ratio_250_L_3_R_12.png","img/900/equaldotanddens/L/4_Ratio_900_L_20_R_18.png","img/250/randomdotsizeEA/L/1_Ratio_250_L_8_R_2.png","img/750/equaldotsize/R/7_Ratio_750_L_3_R_4.png","img/900/randomdotsizeEA/L/4_Ratio_900_L_20_R_18.png","img/500/randomdotsizeEA/R/3_Ratio_500_L_10_R_20.png","img/250/equaldotanddens/R/11_Ratio_250_L_3_R_12.png","img/750/equaldotsize/R/3_Ratio_750_L_15_R_20.png","img/900/equaldotanddens/R/11_Ratio_900_L_18_R_20.png","img/250/randomdotsizeEA/L/14_Ratio_250_L_12_R_3.png","img/750/equaldotanddens/R/2_Ratio_750_L_6_R_8.png","img/500/equaldotanddens/L/8_Ratio_500_L_8_R_4.png","img/500/equaldotanddens/L/13_Ratio_500_L_12_R_6.png","img/900/randomdotsizeEA/R/3_Ratio_900_L_9_R_10.png","img/500/equaldotsize/R/14_Ratio_500_L_5_R_10.png","img/500/equaldotsize/L/7_Ratio_500_L_10_R_5.png","img/500/equaldotanddens/R/15_Ratio_500_L_1_R_2.png","img/500/randomdotsizeEA/L/13_Ratio_500_L_12_R_6.png","img/900/equaldotsize/L/10_Ratio_900_L_20_R_18.png","img/250/equaldotanddens/R/4_Ratio_250_L_3_R_12.png","img/750/equaldotanddens/R/5_Ratio_750_L_15_R_20.png","img/500/randomdotsizeEA/L/5_Ratio_500_L_4_R_2.png","img/500/equaldotsize/R/6_Ratio_500_L_9_R_18.png","img/500/randomdotsizeEA/L/7_Ratio_500_L_10_R_5.png","img/900/equaldotsize/R/14_Ratio_900_L_18_R_20.png","img/750/equaldotanddens/L/1_Ratio_750_L_20_R_15.png","img/500/equaldotanddens/L/8_Ratio_500_L_8_R_4.png","img/250/equaldotanddens/L/7_Ratio_250_L_8_R_2.png","img/500/equaldotanddens/R/6_Ratio_500_L_9_R_18.png","img/250/equaldotsize/R/8_Ratio_250_L_1_R_4.png","img/900/randomdotsizeEA/L/2_Ratio_900_L_20_R_18.png","img/750/equaldotsize/R/3_Ratio_750_L_15_R_20.png","img/750/randomdotsizeEA/L/14_Ratio_750_L_8_R_6.png","img/500/equaldotsize/L/5_Ratio_500_L_4_R_2.png","img/900/randomdotsizeEA/L/4_Ratio_900_L_20_R_18.png","img/750/equaldotanddens/L/8_Ratio_750_L_4_R_3.png","img/900/randomdotsizeEA/R/11_Ratio_900_L_18_R_20.png","img/250/equaldotsize/L/1_Ratio_250_L_8_R_2.png","img/750/equaldotsize/L/8_Ratio_750_L_4_R_3.png","img/250/randomdotsizeEA/L/14_Ratio_250_L_12_R_3.png","img/750/equaldotsize/L/8_Ratio_750_L_4_R_3.png","img/250/equaldotsize/R/6_Ratio_250_L_6_R_24.png","img/900/equaldotanddens/L/2_Ratio_900_L_20_R_18.png","img/900/equaldotsize/L/10_Ratio_900_L_20_R_18.png","img/750/equaldotsize/L/1_Ratio_750_L_20_R_15.png","img/500/equaldotsize/R/1_Ratio_500_L_9_R_18.png","img/250/equaldotsize/L/5_Ratio_250_L_24_R_6.png","img/900/equaldotsize/L/4_Ratio_900_L_20_R_18.png","img/250/randomdotsizeEA/R/4_Ratio_250_L_3_R_12.png","img/500/equaldotanddens/R/14_Ratio_500_L_5_R_10.png","img/250/randomdotsizeEA/R/11_Ratio_250_L_3_R_12.png","img/900/equaldotsize/R/12_Ratio_900_L_18_R_20.png","img/250/equaldotsize/L/7_Ratio_250_L_8_R_2.png"],"Rat0":[["12_Ratio_0_L_9_R_0.png","13_Ratio_0_L_6_R_0.png","5_Ratio_0_L_2_R_0.png","6_Ratio_0_L_4_R_0.png","8_Ratio_0_L_6_R_0.png"],["1_Ratio_0_L_0_R_17.png","10_Ratio_0_L_0_R_22.png","11_Ratio_0_L_0_R_1.png","14_Ratio_0_L_0_R_24.png","15_Ratio_0_L_0_R_4.png","2_Ratio_0_L_0_R_5.png","3_Ratio_0_L_0_R_17.png","4_Ratio_0_L_0_R_7.png","7_Ratio_0_L_0_R_19.png","9_Ratio_0_L_0_R_15.png"]],"Rat250":[["1_Ratio_250_L_8_R_2.png","14_Ratio_250_L_12_R_3.png","15_Ratio_250_L_12_R_3.png","2_Ratio_250_L_16_R_4.png","3_Ratio_250_L_8_R_2.png","5_Ratio_250_L_24_R_6.png","7_Ratio_250_L_8_R_2.png"],["10_Ratio_250_L_4_R_16.png","11_Ratio_250_L_3_R_12.png","12_Ratio_250_L_5_R_20.png","13_Ratio_250_L_2_R_8.png","4_Ratio_250_L_3_R_12.png","6_Ratio_250_L_6_R_24.png","8_Ratio_250_L_1_R_4.png","9_Ratio_250_L_3_R_12.png"]],"Rat500":[["10_Ratio_500_L_4_R_2.png","11_Ratio_500_L_12_R_6.png","13_Ratio_500_L_12_R_6.png","4_Ratio_500_L_18_R_9.png","5_Ratio_500_L_4_R_2.png","7_Ratio_500_L_10_R_5.png","8_Ratio_500_L_8_R_4.png"],["1_Ratio_500_L_9_R_18.png","12_Ratio_500_L_1_R_2.png","14_Ratio_500_L_5_R_10.png","15_Ratio_500_L_1_R_2.png","2_Ratio_500_L_3_R_6.png","3_Ratio_500_L_10_R_20.png","6_Ratio_500_L_9_R_18.png","9_Ratio_500_L_2_R_4.png"]],"Rat750":[["1_Ratio_750_L_20_R_15.png","10_Ratio_750_L_4_R_3.png","13_Ratio_750_L_8_R_6.png","14_Ratio_750_L_8_R_6.png","6_Ratio_750_L_24_R_18.png","8_Ratio_750_L_4_R_3.png","9_Ratio_750_L_4_R_3.png"],["11_Ratio_750_L_12_R_16.png","12_Ratio_750_L_3_R_4.png","15_Ratio_750_L_9_R_12.png","2_Ratio_750_L_6_R_8.png","3_Ratio_750_L_15_R_20.png","4_Ratio_750_L_15_R_20.png","5_Ratio_750_L_15_R_20.png","7_Ratio_750_L_3_R_4.png"]],"Rat900":[["1_Ratio_900_L_10_R_9.png","10_Ratio_900_L_20_R_18.png","2_Ratio_900_L_20_R_18.png","4_Ratio_900_L_20_R_18.png","8_Ratio_900_L_20_R_18.png"],["11_Ratio_900_L_18_R_20.png","12_Ratio_900_L_18_R_20.png","13_Ratio_900_L_18_R_20.png","14_Ratio_900_L_18_R_20.png","15_Ratio_900_L_9_R_10.png","3_Ratio_900_L_9_R_10.png","5_Ratio_900_L_9_R_10.png","6_Ratio_900_L_9_R_10.png","7_Ratio_900_L_9_R_10.png","9_Ratio_900_L_18_R_20.png"]],"Rat1000":[["10_Ratio_1000_L_16_R_16.png","11_Ratio_1000_L_6_R_6.png","12_Ratio_1000_L_14_R_14.png","13_Ratio_1000_L_20_R_20.png","15_Ratio_1000_L_15_R_15.png","2_Ratio_1000_L_17_R_17.png","4_Ratio_1000_L_9_R_9.png","5_Ratio_1000_L_6_R_6.png","6_Ratio_1000_L_19_R_19.png","8_Ratio_1000_L_14_R_14.png","9_Ratio_1000_L_25_R_25.png"],["1_Ratio_1000_L_1_R_1.png","14_Ratio_1000_L_17_R_17.png","3_Ratio_1000_L_17_R_17.png","7_Ratio_1000_L_6_R_6.png"]]}},{"start_time":1551794863101,"click_time":1551794865779,"finger_time":1551794865237,"fix_duration":1021.6114176400429,"trial":1,"RT":2136,"MT":542,"sideResp":1,"stimulus":"img/750/randomdotsizeEA/L/9_Ratio_750_L_4_R_3.png","xmouse":[810,810,810,810,810,810,810,810,810,810,810,810,810,810,810,810,810,810,810,810,810,810,810,810,810,810,810,810,810,810,810,810,810,810,810,810,810,810,810,810,810,810,810,810,810,810,810,810,810,810,810,810,810,810,810,810,810,810,809,807,807,806,806,806,806,806,806,805,800,799,795,794,794,794,794,793,792,792,792,792,792,792,792,792,792,792,792,792,792,792,792,792,792,792,792,792,792,792,792,792,792,792,792,789,780,773,765,758,741,730,715,700,689,680,667,665,663,662,657,652,644,636,626,600,589,577,568,561,549,545,541,535,525,507],"ymouse":[522,522,522,522,522,522,522,522,522,522,522,522,522,522,522,522,522,522,522,522,522,522,522,522,522,522,522,522,522,522,522,522,522,522,522,522,522,522,522,522,522,522,522,522,522,522,522,522,522,522,522,522,522,522,522,522,522,522,522,522,521,521,521,521,521,521,520,520,517,516,514,514,514,514,513,512,510,509,508,508,508,508,508,508,508,508,508,508,508,508,508,508,508,508,508,508,508,506,505,505,504,503,501,492,481,476,468,453,396,350,281,236,213,201,184,182,180,179,173,168,162,156,148,131,124,116,110,103,93,91,87,82,74,62],"timestamp_mouse":[16,40,56,76,98,117,137,158,176,197,216,236,256,276,296,316,337,358,376,398,416,437,457,477,496,516,536,557,577,597,617,636,656,676,697,716,736,757,776,796,816,837,857,877,896,916,937,958,976,997,1017,1037,1057,1077,1097,1117,1137,1158,1177,1196,1216,1236,1257,1277,1298,1316,1336,1357,1376,1396,1417,1436,1457,1478,1497,1516,1537,1556,1576,1597,1616,1638,1656,1676,1698,1717,1736,1758,1776,1797,1818,1837,1858,1876,1896,1916,1937,1956,1978,1996,2016,2036,2057,2076,2096,2116,2136,2157,2177,2196,2218,2237,2258,2276,2296,2316,2337,2357,2377,2396,2416,2436,2456,2478,2496,2516,2537,2556,2577,2596,2616,2636,2656,2678],"xSR":741.5,"ySR":469.95,"xT1":424.9,"yT1":0,"xT2":1058.1,"yT2":0,"toosoon":0,"cond_shown":"randomdotsizeEA","ratio_trial":750,"smaller_num":"3","larger_num":"4","correct_side":1,"subjID":"paulasofiacastellanoscastro","gender":"1","age":"11","school":"6"},{"start_time":1551794867070,"click_time":1551794868597,"finger_time":1551794867917,"fix_duration":250,"trial":2,"RT":847,"MT":680,"sideResp":2,"stimulus":"img/500/randomdotsizeEA/L/13_Ratio_500_L_12_R_6.png","xmouse":[789,789,789,789,789,789,789,789,789,789,789,789,789,789,789,789,789,789,789,789,789,789,789,789,789,789,789,789,789,789,789,789,789,789,789,789,789,789,789,789,798,825,845,865,866,868,871,872,877,885,898,937,961,980,996,1009,1021,1030,1038,1046,1057,1073,1079,1085,1089,1093,1098,1100,1100,1101,1102,1102,1102,1102,1102,1102,1102],"ymouse":[508,508,508,508,508,508,508,508,508,508,508,508,508,508,508,508,508,508,508,508,508,508,508,508,508,508,508,508,508,508,508,508,508,508,508,508,508,508,508,508,502,483,468,453,451,441,426,417,405,392,377,355,345,337,327,315,291,277,262,250,233,204,191,174,165,154,138,128,122,117,111,103,101,101,101,101,97],"timestamp_mouse":[14,41,47,67,87,107,128,147,168,187,208,227,248,267,288,309,328,347,367,388,409,428,447,468,487,507,528,547,567,587,609,628,648,669,687,709,728,748,768,787,807,827,847,867,888,908,928,947,967,988,1007,1027,1048,1067,1087,1107,1127,1147,1167,1187,1208,1227,1248,1267,1288,1307,1327,1347,1367,1388,1407,1427,1448,1467,1488,1507,1527],"xSR":741.5,"ySR":469.95,"xT1":424.9,"yT1":0,"xT2":1058.1,"yT2":0,"toosoon":0,"cond_shown":"randomdotsizeEA","ratio_trial":500,"smaller_num":"6","larger_num":"12","correct_side":1,"subjID":"paulasofiacastellanoscastro","gender":"1","age":"11","school":"6"},{"start_time":1551794870255,"click_time":1551794871537,"finger_time":1551794871017,"fix_duration":756.7018110179915,"trial":3,"RT":762,"MT":520,"sideResp":1,"stimulus":"img/750/equaldotsize/L/8_Ratio_750_L_4_R_3.png","xmouse":[802,804,804,804,804,804,804,805,805,805,805,805,805,805,805,805,805,805,805,805,805,805,805,805,805,805,805,805,805,805,805,805,805,804,804,802,801,760,710,655,587,518,421,401,399,397,394,383,372,361,349,339,333,333,333,333,333,333,333,333,334,337,363,401,434],"ymouse":[520,520,520,520,520,520,520,520,520,520,520,520,520,520,520,520,520,520,520,520,520,520,520,520,520,520,520,520,520,520,520,520,520,520,519,519,519,488,448,386,308,227,131,111,109,106,100,80,61,45,27,14,6,6,6,6,5,5,5,4,4,5,20,44,60],"timestamp_mouse":[2,23,42,63,82,102,122,143,162,182,202,222,243,262,283,302,322,344,363,382,404,422,442,462,482,502,522,542,563,582,603,622,644,662,682,702,722,742,762,783,802,822,842,863,882,902,923,943,962,983,1002,1023,1043,1062,1084,1104,1122,1143,1162,1182,1202,1223,1243,1262,1282],"xSR":741.5,"ySR":469.95,"xT1":424.9,"yT1":0,"xT2":1058.1,"yT2":0,"toosoon":0,"cond_shown":"equaldotsize","ratio_trial":750,"smaller_num":"3","larger_num":"4","correct_side":1,"subjID":"paulasofiacastellanoscastro","gender":"1","age":"11","school":"6"},{"start_time":1551794873370,"click_time":1551794874617,"finger_time":1551794874278,"fix_duration":832.9072804992111,"trial":4,"RT":908,"MT":339,"sideResp":2,"stimulus":"img/250/randomdotsizeEA/R/9_Ratio_250_L_3_R_12.png","xmouse":[804,804,804,804,804,804,804,804,804,804,802,801,798,798,798,797,797,797,797,797,797,797,797,797,797,797,797,797,797,797,797,797,797,797,797,797,797,797,797,797,797,797,797,799,802,811,821,836,843,851,860,871,904,918,930,944,971,983,999,1013,1029,1046,1077],"ymouse":[511,511,511,511,511,511,511,511,511,511,511,513,519,520,522,523,524,524,524,524,524,524,524,524,524,524,524,524,524,524,524,524,524,524,524,524,524,524,524,524,524,524,524,514,495,438,386,363,354,345,335,319,284,270,257,240,201,184,165,149,131,117,95],"timestamp_mouse":[10,34,47,67,87,107,128,147,167,188,207,227,247,268,287,307,327,347,369,387,407,427,447,468,487,507,527,549,567,587,607,628,647,667,687,707,727,748,768,787,807,827,847,868,887,907,928,947,968,987,1007,1027,1047,1067,1088,1107,1129,1147,1167,1188,1208,1227,1247],"xSR":741.5,"ySR":469.95,"xT1":424.9,"yT1":0,"xT2":1058.1,"yT2":0,"toosoon":0,"cond_shown":"randomdotsizeEA","ratio_trial":250,"smaller_num":"3","larger_num":"12","correct_side":2,"subjID":"paulasofiacastellanoscastro","gender":"1","age":"11","school":"6"},{"start_time":1551794875692,"click_time":1551794876998,"finger_time":1551794876599,"fix_duration":253.78527794195438,"trial":5,"RT":907,"MT":399,"sideResp":2,"stimulus":"img/750/equaldotanddens/R/11_Ratio_750_L_12_R_16.png","xmouse":[759,759,759,759,759,759,759,759,759,759,759,759,759,759,759,759,759,759,759,759,759,759,759,759,759,759,759,759,759,760,760,760,760,760,760,760,760,761,762,763,767,772,777,788,803,877,929,968,999,1024,1028,1030,1031,1033,1036,1039,1048,1049,1051,1051,1052,1056,1060,1067,1076,1085],"ymouse":[517,517,517,517,517,517,517,517,517,517,517,517,517,517,517,517,517,517,517,517,517,517,517,517,517,517,517,517,517,516,515,515,515,515,515,515,515,515,515,515,515,513,510,504,493,429,381,337,300,260,247,232,225,221,210,199,171,160,150,149,146,138,130,118,103,87],"timestamp_mouse":[8,38,45,65,86,106,125,145,167,185,205,226,245,266,285,305,325,345,365,385,407,425,446,465,485,505,527,545,565,585,606,627,645,666,685,706,726,746,765,785,805,827,845,866,885,907,925,946,965,985,1006,1026,1045,1065,1086,1105,1125,1146,1165,1185,1205,1225,1245,1266,1285,1305],"xSR":741.5,"ySR":469.95,"xT1":424.9,"yT1":0,"xT2":1058.1,"yT2":0,"toosoon":0,"cond_shown":"equaldotanddens","ratio_trial":750,"smaller_num":"12","larger_num":"16","correct_side":2,"subjID":"paulasofiacastellanoscastro","gender":"1","age":"11","school":"6"},{"start_time":1551794878951,"click_time":1551794880198,"finger_time":1551794879857,"fix_duration":933.5639882830906,"trial":6,"RT":906,"MT":341,"sideResp":2,"stimulus":"img/500/equaldotsize/R/15_Ratio_500_L_1_R_2.png","xmouse":[785,785,785,785,785,785,785,785,785,785,785,785,785,785,785,785,785,785,785,785,785,785,785,785,785,785,785,785,785,785,785,785,785,785,785,785,785,785,785,785,785,785,787,797,803,806,818,841,908,946,973,991,1000,1006,1018,1024,1029,1035,1047,1051,1055,1057,1059],"ymouse":[500,500,500,500,500,500,500,500,500,500,500,500,500,500,500,500,500,500,500,500,500,500,500,500,500,500,500,500,500,500,500,500,500,500,500,500,500,500,500,500,500,500,500,490,473,458,433,402,317,272,229,192,164,142,109,99,90,83,69,64,59,57,55],"timestamp_mouse":[8,35,46,67,86,106,126,148,167,187,206,227,246,267,286,307,327,347,367,386,407,427,448,467,486,506,526,547,567,587,607,627,646,667,686,708,727,747,767,786,808,826,846,866,887,906,927,946,967,986,1007,1027,1046,1066,1086,1106,1126,1146,1166,1187,1207,1226,1247],"xSR":741.5,"ySR":469.95,"xT1":424.9,"yT1":0,"xT2":1058.1,"yT2":0,"toosoon":0,"cond_shown":"equaldotsize","ratio_trial":500,"smaller_num":"1","larger_num":"2","correct_side":2,"subjID":"paulasofiacastellanoscastro","gender":"1","age":"11","school":"6"},{"start_time":1551794882111,"click_time":1551794883158,"finger_time":1551794882878,"fix_duration":851.8132828578364,"trial":7,"RT":767,"MT":280,"sideResp":1,"stimulus":"img/750/equaldotanddens/L/1_Ratio_750_L_20_R_15.png","xmouse":[786,786,787,787,787,787,787,788,788,788,788,789,789,789,789,790,790,790,790,790,790,790,790,790,790,790,790,790,790,790,790,790,790,790,788,785,764,747,732,719,703,697,690,678,665,632,618,602,588,575,542,518,491],"ymouse":[539,539,538,537,536,535,534,531,530,528,525,511,506,504,503,502,502,502,502,502,502,502,502,502,502,502,502,502,502,502,502,502,502,502,502,502,496,488,481,473,462,458,452,442,429,386,360,327,290,246,159,123,93],"timestamp_mouse":[19,38,47,66,86,106,128,146,167,186,206,226,246,266,286,306,327,346,366,387,406,426,446,468,486,507,526,547,566,586,607,627,647,666,686,707,726,746,767,786,807,826,848,867,886,907,926,947,966,987,1007,1026,1047],"xSR":741.5,"ySR":469.95,"xT1":424.9,"yT1":0,"xT2":1058.1,"yT2":0,"toosoon":0,"cond_shown":"equaldotanddens","ratio_trial":750,"smaller_num":"15","larger_num":"20","correct_side":1,"subjID":"paulasofiacastellanoscastro","gender":"1","age":"11","school":"6"},{"start_time":1551794884504,"click_time":1551794885818,"finger_time":1551794885357,"fix_duration":406.3232471875462,"trial":8,"RT":853,"MT":461,"sideResp":2,"stimulus":"img/900/equaldotanddens/R/14_Ratio_900_L_18_R_20.png","xmouse":[779,779,779,779,779,779,779,779,779,779,779,779,779,779,779,779,779,779,779,779,779,779,779,779,779,779,779,779,779,779,779,779,779,779,779,779,781,783,786,792,795,800,805,812,822,848,888,907,930,952,965,978,982,986,991,994,1002,1005,1008,1011,1013,1021,1025,1035,1041,1066],"ymouse":[501,501,501,501,501,502,504,504,504,504,504,504,504,504,504,504,504,504,504,504,504,504,504,504,504,504,504,504,504,504,504,504,504,504,504,504,503,501,497,493,489,475,462,445,423,383,329,303,272,242,221,189,177,166,151,143,132,127,124,122,120,111,108,101,97,88],"timestamp_mouse":[14,40,53,74,93,113,133,154,174,193,213,234,254,274,294,314,334,354,373,393,413,433,453,474,493,514,534,553,575,594,615,633,653,673,695,714,733,753,774,794,814,833,853,874,893,913,933,953,973,993,1014,1033,1054,1073,1094,1113,1133,1153,1173,1194,1213,1234,1254,1273,1295,1314],"xSR":741.5,"ySR":469.95,"xT1":424.9,"yT1":0,"xT2":1058.1,"yT2":0,"toosoon":0,"cond_shown":"equaldotanddens","ratio_trial":900,"smaller_num":"18","larger_num":"20","correct_side":2,"subjID":"paulasofiacastellanoscastro","gender":"1","age":"11","school":"6"},{"start_time":1551794888825,"click_time":1551794890318,"finger_time":1551794889857,"fix_duration":726.5157932223062,"trial":9,"RT":1032,"MT":461,"sideResp":2,"stimulus":"img/500/randomdotsizeEA/R/6_Ratio_500_L_9_R_18.png","xmouse":[805,805,805,805,806,806,806,806,806,806,806,806,806,806,806,806,806,806,806,806,806,806,806,806,806,806,806,806,806,806,806,806,806,806,806,806,806,806,806,806,803,800,797,795,794,794,794,794,794,794,803,811,821,832,847,881,905,917,928,937,947,972,983,992,1002,1017,1028,1034,1041,1047,1060,1065,1069,1074,1078],"ymouse":[516,516,516,516,517,517,517,517,517,517,517,517,517,517,517,517,517,517,517,517,517,517,517,517,517,517,517,517,516,515,515,515,515,515,515,515,515,515,515,515,515,515,515,514,513,513,513,513,513,507,487,468,445,421,398,359,342,333,324,314,301,262,244,227,210,180,160,151,144,134,117,110,106,101,97],"timestamp_mouse":[12,33,52,72,93,112,133,152,173,194,212,232,254,272,293,313,333,353,373,394,414,433,454,472,492,512,534,552,573,593,614,633,654,672,692,713,733,753,772,792,812,832,852,874,892,912,932,954,973,992,1012,1032,1053,1072,1093,1113,1132,1152,1174,1193,1212,1232,1252,1273,1293,1313,1332,1352,1374,1393,1413,1432,1452,1472,1492],"xSR":741.5,"ySR":469.95,"xT1":424.9,"yT1":0,"xT2":1058.1,"yT2":0,"toosoon":0,"cond_shown":"randomdotsizeEA","ratio_trial":500,"smaller_num":"9","larger_num":"18","correct_side":2,"subjID":"paulasofiacastellanoscastro","gender":"1","age":"11","school":"6"},{"start_time":1551794891609,"click_time":1551794893417,"finger_time":1551794893077,"fix_duration":250,"trial":10,"RT":1468,"MT":340,"sideResp":1,"stimulus":"img/900/equaldotsize/L/8_Ratio_900_L_20_R_18.png","xmouse":[800,800,800,800,800,800,800,800,800,800,800,800,800,800,800,800,800,800,800,800,800,800,800,800,800,800,800,800,800,800,800,800,800,800,800,800,800,803,806,808,810,813,819,820,821,821,821,821,821,821,821,821,821,821,817,812,806,789,786,786,786,786,786,786,786,786,786,786,786,786,786,784,771,748,704,624,566,499,487,479,473,468,462,457,453,452,452,452,452,452,454],"ymouse":[506,506,506,506,506,506,506,506,506,506,506,506,506,506,506,506,506,506,506,506,506,506,506,506,506,506,506,506,506,506,506,506,506,506,506,506,506,504,502,500,499,493,480,476,473,472,472,472,472,472,472,472,472,472,472,473,475,482,484,484,484,484,484,484,484,484,484,484,484,484,484,484,471,443,392,299,241,165,154,145,139,134,126,121,116,115,114,114,112,105,93],"timestamp_mouse":[9,43,49,69,89,109,128,148,168,189,210,229,248,269,288,309,329,349,368,389,408,429,449,469,489,508,528,549,569,589,608,628,649,669,688,709,728,749,768,788,808,828,848,868,888,910,930,949,970,989,1009,1028,1048,1068,1088,1110,1129,1148,1168,1188,1208,1230,1249,1268,1289,1310,1329,1349,1370,1389,1408,1430,1448,1468,1488,1509,1528,1548,1568,1588,1609,1628,1648,1670,1689,1708,1729,1748,1768,1788,1808],"xSR":741.5,"ySR":469.95,"xT1":424.9,"yT1":0,"xT2":1058.1,"yT2":0,"toosoon":0,"cond_shown":"equaldotsize","ratio_trial":900,"smaller_num":"18","larger_num":"20","correct_side":1,"subjID":"paulasofiacastellanoscastro","gender":"1","age":"11","school":"6"},{"start_time":1551794895888,"click_time":1551794896937,"finger_time":1551794896657,"fix_duration":1328.830278950468,"trial":11,"RT":769,"MT":280,"sideResp":2,"stimulus":"img/750/randomdotsizeEA/R/11_Ratio_750_L_12_R_16.png","xmouse":[794,794,794,794,794,794,794,794,794,794,794,794,794,794,794,794,793,791,790,790,790,790,790,790,790,790,790,790,790,790,790,790,790,790,790,793,798,805,819,823,826,828,830,837,844,852,865,880,922,981,1024,1050,1071],"ymouse":[522,522,522,522,522,522,522,522,522,522,522,523,523,523,524,524,524,524,525,525,525,525,525,525,525,525,525,525,525,525,525,525,525,525,524,517,500,476,425,409,388,375,365,340,329,314,296,278,234,184,148,120,98],"timestamp_mouse":[9,34,49,70,91,109,129,150,169,190,209,229,251,270,290,309,329,349,369,389,409,430,449,469,489,509,530,549,569,591,609,630,649,669,689,710,729,750,769,790,809,830,850,869,889,910,930,950,969,990,1010,1029,1049],"xSR":741.5,"ySR":469.95,"xT1":424.9,"yT1":0,"xT2":1058.1,"yT2":0,"toosoon":0,"cond_shown":"randomdotsizeEA","ratio_trial":750,"smaller_num":"12","larger_num":"16","correct_side":2,"subjID":"paulasofiacastellanoscastro","gender":"1","age":"11","school":"6"},{"start_time":1551794898209,"click_time":1551794899677,"finger_time":1551794899199,"fix_duration":250,"trial":12,"RT":990,"MT":478,"sideResp":1,"stimulus":"img/900/equaldotanddens/L/2_Ratio_900_L_20_R_18.png","xmouse":[805,805,805,805,805,805,805,805,805,805,805,805,805,805,805,805,805,805,805,805,805,805,805,805,805,805,805,805,805,805,805,805,805,805,805,805,805,805,805,805,805,805,805,805,805,805,800,794,761,744,729,721,710,704,698,688,679,651,640,627,614,605,578,568,558,548,540,533,528,527,526,522,514,507],"ymouse":[503,503,503,503,503,503,503,503,503,503,503,503,503,503,503,503,503,503,503,503,503,503,503,503,503,503,503,503,503,503,503,503,503,503,503,503,503,503,503,503,503,503,503,503,503,503,500,497,476,465,455,448,440,434,425,408,386,322,295,273,253,241,208,197,185,172,165,158,151,149,145,135,105,82],"timestamp_mouse":[11,35,49,70,88,109,128,148,168,188,210,228,249,270,289,308,329,350,368,388,408,429,448,469,489,508,529,548,570,588,610,629,648,670,689,708,730,748,770,789,809,830,848,868,889,909,928,948,968,990,1009,1029,1049,1068,1088,1109,1129,1149,1168,1188,1209,1229,1249,1268,1288,1309,1328,1349,1368,1388,1408,1428,1449,1468],"xSR":741.5,"ySR":469.95,"xT1":424.9,"yT1":0,"xT2":1058.1,"yT2":0,"toosoon":0,"cond_shown":"equaldotanddens","ratio_trial":900,"smaller_num":"18","larger_num":"20","correct_side":1,"subjID":"paulasofiacastellanoscastro","gender":"1","age":"11","school":"6"},{"start_time":1551794902088,"click_time":1551794903198,"finger_time":1551794902857,"fix_duration":1329.1842371286689,"trial":13,"RT":769,"MT":341,"sideResp":2,"stimulus":"img/900/randomdotsizeEA/R/14_Ratio_900_L_18_R_20.png","xmouse":[803,803,803,803,803,803,803,803,803,803,803,803,803,804,807,807,807,807,807,807,807,807,807,807,807,807,807,807,807,807,807,808,810,811,816,822,833,840,850,873,883,892,901,911,934,949,966,989,1001,1021,1026,1032,1036,1042,1054,1060],"ymouse":[541,541,541,541,541,541,541,541,541,541,541,541,542,542,543,543,543,543,543,543,543,543,543,543,543,543,543,543,543,543,543,543,542,541,535,529,518,510,498,465,446,427,410,386,329,296,258,216,194,156,143,132,121,109,92,83],"timestamp_mouse":[9,38,50,69,90,109,129,149,169,189,209,229,249,269,289,309,331,349,371,390,410,431,451,469,490,509,530,551,569,590,610,630,649,669,689,709,729,750,769,789,809,829,849,869,889,909,930,949,970,990,1009,1030,1051,1070,1089,1110],"xSR":741.5,"ySR":469.95,"xT1":424.9,"yT1":0,"xT2":1058.1,"yT2":0,"toosoon":0,"cond_shown":"randomdotsizeEA","ratio_trial":900,"smaller_num":"18","larger_num":"20","correct_side":2,"subjID":"paulasofiacastellanoscastro","gender":"1","age":"11","school":"6"},{"start_time":1551794904600,"click_time":1551794905897,"finger_time":1551794905398,"fix_duration":421.2179715451453,"trial":14,"RT":798,"MT":499,"sideResp":2,"stimulus":"img/250/equaldotanddens/R/13_Ratio_250_L_2_R_8.png","xmouse":[803,803,803,803,803,803,803,802,802,802,802,802,802,802,802,802,802,802,802,802,802,802,802,802,802,802,802,802,802,802,802,802,802,802,802,802,802,804,820,844,868,888,904,933,943,953,965,976,995,1009,1021,1032,1040,1047,1058,1060,1062,1064,1066,1068,1069,1070,1070,1073,1077],"ymouse":[524,524,524,524,524,524,524,524,524,524,524,524,524,524,524,524,524,524,524,524,524,524,524,524,524,524,524,524,524,524,524,524,524,524,524,524,524,525,517,507,496,484,471,439,428,417,398,380,343,319,298,278,261,244,207,191,177,162,140,128,122,117,112,101,93],"timestamp_mouse":[21,42,57,77,99,118,137,157,178,199,217,237,258,277,298,318,337,359,378,399,419,437,458,478,497,517,538,558,578,597,619,637,657,678,698,718,737,758,778,798,817,839,858,877,897,917,938,958,978,997,1017,1037,1057,1077,1097,1117,1137,1159,1177,1198,1217,1238,1257,1277,1297],"xSR":741.5,"ySR":469.95,"xT1":424.9,"yT1":0,"xT2":1058.1,"yT2":0,"toosoon":0,"cond_shown":"equaldotanddens","ratio_trial":250,"smaller_num":"2","larger_num":"8","correct_side":2,"subjID":"paulasofiacastellanoscastro","gender":"1","age":"11","school":"6"},{"start_time":1551794907090,"click_time":1551794908398,"finger_time":1551794907978,"fix_duration":250,"trial":15,"RT":888,"MT":420,"sideResp":1,"stimulus":"img/900/equaldotsize/L/10_Ratio_900_L_20_R_18.png","xmouse":[779,779,779,779,779,779,779,779,779,779,779,779,779,779,779,779,779,779,779,779,779,779,779,779,779,779,779,779,779,779,779,779,779,779,779,779,776,773,768,753,746,744,742,742,737,733,725,712,696,659,635,615,590,570,556,537,531,527,527,525,525,525,525,525,525,524],"ymouse":[515,515,515,515,515,515,515,515,515,515,515,515,515,515,515,515,515,515,515,515,515,515,515,515,515,515,515,515,515,515,515,515,515,515,515,515,515,510,506,495,490,488,486,485,474,469,457,438,417,363,318,270,218,172,137,89,74,63,58,55,55,55,55,55,55,54],"timestamp_mouse":[9,36,47,67,88,108,128,147,167,187,207,227,247,267,287,309,328,348,368,389,407,427,449,467,488,508,528,547,567,588,609,628,647,667,688,707,727,747,768,788,807,828,847,868,888,907,927,948,968,988,1007,1027,1048,1067,1087,1107,1127,1147,1167,1189,1207,1228,1247,1267,1288,1308],"xSR":741.5,"ySR":469.95,"xT1":424.9,"yT1":0,"xT2":1058.1,"yT2":0,"toosoon":0,"cond_shown":"equaldotsize","ratio_trial":900,"smaller_num":"18","larger_num":"20","correct_side":1,"subjID":"paulasofiacastellanoscastro","gender":"1","age":"11","school":"6"},{"start_time":1551794910138,"click_time":1551794911258,"finger_time":1551794910777,"fix_duration":758.2375642042336,"trial":16,"RT":639,"MT":481,"sideResp":2,"stimulus":"img/900/equaldotanddens/R/14_Ratio_900_L_18_R_20.png","xmouse":[807,807,807,807,807,807,807,807,807,807,807,807,807,807,807,807,807,807,807,807,807,807,807,807,806,807,808,809,818,825,832,838,848,863,872,882,890,901,921,930,944,948,958,969,979,988,995,1002,1018,1024,1028,1032,1035,1047,1053,1056,1060],"ymouse":[519,519,519,519,519,519,519,519,519,519,519,519,519,519,519,519,519,519,519,519,519,519,519,519,519,515,514,513,504,499,492,486,467,431,411,392,372,354,308,286,259,252,234,214,202,188,177,165,142,135,130,126,123,112,106,101,97],"timestamp_mouse":[1,20,42,60,80,100,119,140,159,179,200,221,239,260,279,300,319,340,359,379,399,419,439,460,479,499,519,539,560,579,599,621,639,660,679,699,719,739,759,779,799,820,840,859,879,899,919,940,959,980,1000,1019,1040,1060,1079,1100,1120],"xSR":741.5,"ySR":469.95,"xT1":424.9,"yT1":0,"xT2":1058.1,"yT2":0,"toosoon":0,"cond_shown":"equaldotanddens","ratio_trial":900,"smaller_num":"18","larger_num":"20","correct_side":2,"subjID":"paulasofiacastellanoscastro","gender":"1","age":"11","school":"6"},{"start_time":1551794913625,"click_time":1551794914937,"finger_time":1551794914398,"fix_duration":1366.142818624858,"trial":17,"RT":773,"MT":539,"sideResp":2,"stimulus":"img/900/equaldotanddens/R/15_Ratio_900_L_9_R_10.png","xmouse":[768,768,768,768,768,768,768,774,792,798,798,798,798,798,798,798,798,798,798,798,798,798,798,798,798,799,797,795,791,791,791,791,791,791,793,799,803,812,829,838,847,854,862,879,888,902,912,922,932,949,956,965,973,993,1006,1013,1020,1025,1033,1037,1040,1042,1043,1046,1054,1064],"ymouse":[527,527,527,527,527,527,528,531,536,538,538,538,538,538,538,538,538,538,538,538,538,538,538,538,538,538,536,534,530,529,528,527,526,521,516,509,504,487,445,426,408,389,371,325,303,271,251,235,221,196,187,172,157,127,109,98,89,82,74,71,68,67,66,65,63,63],"timestamp_mouse":[12,36,53,73,92,112,132,153,173,193,213,232,252,272,293,314,333,352,373,392,412,433,453,473,492,512,532,553,572,593,612,632,652,672,692,712,732,753,773,792,812,833,852,873,892,912,932,952,972,992,1012,1032,1054,1073,1092,1112,1133,1152,1172,1192,1212,1232,1254,1272,1293,1312],"xSR":741.5,"ySR":469.95,"xT1":424.9,"yT1":0,"xT2":1058.1,"yT2":0,"toosoon":0,"cond_shown":"equaldotanddens","ratio_trial":900,"smaller_num":"9","larger_num":"10","correct_side":2,"subjID":"paulasofiacastellanoscastro","gender":"1","age":"11","school":"6"},{"start_time":1551794918262,"click_time":1551794919617,"finger_time":1551794918958,"fix_duration":861.024533657442,"trial":18,"RT":696,"MT":659,"sideResp":1,"stimulus":"img/250/equaldotanddens/L/5_Ratio_250_L_24_R_6.png","xmouse":[791,791,791,791,791,791,791,791,791,791,791,791,791,791,791,791,791,791,791,791,791,791,791,791,791,791,791,791,791,791,789,788,777,766,752,730,696,611,589,577,572,569,565,558,547,537,532,527,525,524,522,515,514,512,511,510,507,500,494,490,487,486,480,476,473,471,470,463],"ymouse":[514,514,514,514,514,514,514,514,514,514,514,514,514,514,514,514,514,514,514,514,514,514,514,514,514,514,514,514,514,514,514,514,498,480,461,440,407,337,322,311,307,304,300,295,287,278,272,260,255,249,239,210,200,190,182,172,163,147,137,133,129,127,119,112,109,106,103,90],"timestamp_mouse":[16,36,55,77,95,116,137,156,176,195,216,237,256,277,297,316,336,355,375,397,416,436,455,475,496,516,535,556,575,596,616,635,655,675,696,715,735,755,776,796,816,835,855,875,895,916,935,955,975,996,1015,1037,1055,1075,1095,1117,1136,1155,1176,1197,1215,1235,1256,1275,1295,1315,1335,1355],"xSR":741.5,"ySR":469.95,"xT1":424.9,"yT1":0,"xT2":1058.1,"yT2":0,"toosoon":0,"cond_shown":"equaldotanddens","ratio_trial":250,"smaller_num":"6","larger_num":"24","correct_side":1,"subjID":"paulasofiacastellanoscastro","gender":"1","age":"11","school":"6"},{"start_time":1551794921308,"click_time":1551794922657,"finger_time":1551794921979,"fix_duration":548.9951706028427,"trial":19,"RT":671,"MT":678,"sideResp":2,"stimulus":"img/500/randomdotsizeEA/R/2_Ratio_500_L_3_R_6.png","xmouse":[780,780,780,780,780,780,780,780,780,780,780,780,780,780,780,780,780,780,780,780,780,780,780,780,780,780,780,780,780,781,789,793,798,805,813,825,828,833,840,845,859,865,871,876,883,899,909,925,936,948,970,978,983,987,990,993,998,1001,1003,1004,1011,1017,1028,1036,1045,1054,1057,1065],"ymouse":[493,493,493,493,493,493,493,493,493,493,493,493,493,493,493,493,493,493,493,493,493,493,493,493,493,493,493,493,493,492,484,478,470,459,446,426,418,408,392,381,359,348,336,327,315,291,279,257,242,226,198,186,173,162,152,141,133,130,127,125,115,109,102,96,91,84,81,76],"timestamp_mouse":[10,37,50,69,89,109,131,149,169,190,210,229,249,269,289,311,330,349,371,389,409,429,449,469,489,509,530,551,571,590,609,629,649,671,689,709,730,750,769,789,810,829,849,869,889,909,930,949,970,990,1010,1029,1049,1069,1090,1109,1130,1149,1169,1190,1209,1229,1250,1271,1291,1309,1329,1349],"xSR":741.5,"ySR":469.95,"xT1":424.9,"yT1":0,"xT2":1058.1,"yT2":0,"toosoon":0,"cond_shown":"randomdotsizeEA","ratio_trial":500,"smaller_num":"3","larger_num":"6","correct_side":2,"subjID":"paulasofiacastellanoscastro","gender":"1","age":"11","school":"6"},{"start_time":1551794923909,"click_time":1551794925037,"finger_time":1551794924577,"fix_duration":250,"trial":20,"RT":668,"MT":460,"sideResp":1,"stimulus":"img/500/equaldotanddens/L/4_Ratio_500_L_18_R_9.png","xmouse":[768,768,768,768,768,768,768,768,768,768,768,768,768,768,768,768,768,768,768,768,768,768,768,768,768,768,768,768,768,768,763,758,750,741,727,694,660,634,612,597,577,572,568,561,554,539,529,527,526,525,518,514,509,506,503,501,491],"ymouse":[523,523,523,523,523,523,523,523,523,523,523,523,523,523,523,523,523,523,523,523,523,523,523,523,523,523,523,523,523,522,515,507,496,484,468,429,392,369,348,329,298,284,271,254,235,201,185,181,177,170,155,145,135,126,118,112,89],"timestamp_mouse":[10,41,49,68,88,109,129,148,168,189,208,228,248,268,289,308,328,349,368,389,408,428,448,468,488,508,529,548,568,588,608,628,648,668,688,708,728,748,768,788,808,828,849,869,888,909,928,948,969,988,1009,1028,1048,1069,1088,1108,1128],"xSR":741.5,"ySR":469.95,"xT1":424.9,"yT1":0,"xT2":1058.1,"yT2":0,"toosoon":0,"cond_shown":"equaldotanddens","ratio_trial":500,"smaller_num":"9","larger_num":"18","correct_side":1,"subjID":"paulasofiacastellanoscastro","gender":"1","age":"11","school":"6"},{"start_time":1551794926269,"click_time":1551794927577,"finger_time":1551794927117,"fix_duration":250,"trial":21,"RT":848,"MT":460,"sideResp":1,"stimulus":"img/250/equaldotsize/L/14_Ratio_250_L_12_R_3.png","xmouse":[809,809,809,809,809,809,809,808,804,802,800,799,797,797,797,797,797,797,797,797,797,797,797,797,797,797,797,797,797,797,797,797,797,797,797,797,797,797,796,788,778,768,755,731,721,714,708,695,665,647,630,619,608,591,583,576,568,562,548,540,534,526,514,511,506,499],"ymouse":[504,504,504,504,504,504,504,505,505,505,505,506,506,506,506,506,506,506,506,506,506,506,506,506,506,506,506,506,506,506,506,506,506,506,506,506,506,506,506,502,494,484,467,424,407,396,388,375,355,341,326,310,291,257,242,226,206,197,175,166,155,140,117,110,102,95],"timestamp_mouse":[12,42,49,68,88,108,128,148,168,188,208,228,249,269,288,308,329,349,368,388,408,428,448,469,488,509,529,548,568,588,609,629,648,669,688,708,729,748,770,788,809,828,848,868,889,908,929,948,968,988,1008,1028,1048,1068,1089,1109,1128,1149,1168,1188,1208,1229,1249,1268,1289,1308],"xSR":741.5,"ySR":469.95,"xT1":424.9,"yT1":0,"xT2":1058.1,"yT2":0,"toosoon":0,"cond_shown":"equaldotsize","ratio_trial":250,"smaller_num":"3","larger_num":"12","correct_side":1,"subjID":"paulasofiacastellanoscastro","gender":"1","age":"11","school":"6"},{"start_time":1551794928871,"click_time":1551794929837,"finger_time":1551794929518,"fix_duration":351.46504481741846,"trial":22,"RT":647,"MT":319,"sideResp":2,"stimulus":"img/500/equaldotanddens/R/2_Ratio_500_L_3_R_6.png","xmouse":[811,811,811,811,811,811,810,808,806,806,805,805,805,805,805,805,805,805,805,805,805,805,805,805,805,805,805,805,805,809,819,830,842,859,865,873,888,900,924,934,941,950,960,982,996,1014,1039,1054,1075],"ymouse":[513,513,513,513,513,513,513,514,514,514,514,514,514,514,514,514,514,514,514,514,514,514,514,514,514,514,514,514,514,507,492,472,451,412,398,382,357,337,295,277,256,235,216,180,164,150,124,110,86],"timestamp_mouse":[8,39,47,67,86,107,126,146,168,186,207,227,247,266,287,307,328,347,366,387,407,427,447,467,486,508,527,546,566,586,607,627,647,666,687,706,726,747,766,786,806,827,847,867,886,907,926,946,966],"xSR":741.5,"ySR":469.95,"xT1":424.9,"yT1":0,"xT2":1058.1,"yT2":0,"toosoon":0,"cond_shown":"equaldotanddens","ratio_trial":500,"smaller_num":"3","larger_num":"6","correct_side":2,"subjID":"paulasofiacastellanoscastro","gender":"1","age":"11","school":"6"},{"start_time":1551794931947,"click_time":1551794932738,"finger_time":1551794932577,"fix_duration":1308.968593669175,"trial":23,"RT":630,"MT":161,"sideResp":2,"stimulus":"img/250/equaldotsize/R/9_Ratio_250_L_3_R_12.png","xmouse":[792,792,792,792,792,792,792,792,792,792,792,792,792,792,792,792,792,792,792,792,792,792,792,792,792,792,792,792,792,792,826,852,892,939,1013,1038,1066,1083,1099,1122],"ymouse":[539,539,539,539,539,539,539,539,539,539,539,539,539,539,539,539,539,539,539,539,539,539,539,539,539,539,539,539,539,538,515,494,462,417,319,275,224,184,148,95],"timestamp_mouse":[10,37,50,71,90,111,132,151,171,190,210,231,250,271,291,310,330,351,370,390,412,430,450,470,491,511,531,551,571,590,611,630,650,671,691,710,730,751,770,791],"xSR":741.5,"ySR":469.95,"xT1":424.9,"yT1":0,"xT2":1058.1,"yT2":0,"toosoon":0,"cond_shown":"equaldotsize","ratio_trial":250,"smaller_num":"3","larger_num":"12","correct_side":2,"subjID":"paulasofiacastellanoscastro","gender":"1","age":"11","school":"6"},{"start_time":1551794934395,"click_time":1551794935458,"finger_time":1551794935117,"fix_duration":656.1934133460181,"trial":24,"RT":722,"MT":341,"sideResp":1,"stimulus":"img/900/equaldotanddens/L/10_Ratio_900_L_20_R_18.png","xmouse":[785,785,785,785,785,785,785,785,785,785,785,785,785,785,785,785,785,785,785,785,785,785,785,785,783,781,778,772,764,763,763,763,762,756,749,742,733,687,658,635,611,590,558,546,534,524,516,506,505,504,503,503,500,499],"ymouse":[541,541,541,541,540,540,540,540,540,540,540,540,540,540,540,540,540,540,540,540,540,540,540,540,538,537,534,527,519,518,518,518,517,507,494,477,458,381,340,309,273,243,203,189,173,161,150,134,132,127,121,113,100,96],"timestamp_mouse":[8,22,43,62,82,103,122,142,162,182,202,222,243,263,283,302,323,343,362,382,403,424,442,462,482,502,523,542,563,583,603,622,643,662,682,702,722,743,762,782,803,822,844,862,882,903,923,943,962,982,1002,1022,1044,1063],"xSR":741.5,"ySR":469.95,"xT1":424.9,"yT1":0,"xT2":1058.1,"yT2":0,"toosoon":0,"cond_shown":"equaldotanddens","ratio_trial":900,"smaller_num":"18","larger_num":"20","correct_side":1,"subjID":"paulasofiacastellanoscastro","gender":"1","age":"11","school":"6"},{"start_time":1551794937761,"click_time":1551794938738,"finger_time":1551794938457,"fix_duration":1422.260867064112,"trial":25,"RT":696,"MT":281,"sideResp":2,"stimulus":"img/500/randomdotsizeEA/R/2_Ratio_500_L_3_R_6.png","xmouse":[787,787,787,787,787,787,787,787,787,787,787,787,787,787,787,787,787,787,787,787,787,787,787,787,787,787,787,787,787,791,796,802,814,828,852,863,881,893,906,939,963,986,1015,1032,1049,1074,1080,1086,1091],"ymouse":[511,511,511,511,511,511,511,511,511,511,511,511,511,511,511,511,511,511,511,511,511,511,511,511,511,511,511,511,511,512,512,510,506,500,485,475,452,428,401,326,283,243,204,177,156,122,110,100,95],"timestamp_mouse":[16,36,56,76,96,117,136,157,176,197,216,236,258,276,296,317,337,356,377,397,418,436,457,477,496,517,537,556,576,596,616,636,656,677,696,717,736,757,776,796,816,836,856,878,896,916,936,957,977],"xSR":741.5,"ySR":469.95,"xT1":424.9,"yT1":0,"xT2":1058.1,"yT2":0,"toosoon":0,"cond_shown":"randomdotsizeEA","ratio_trial":500,"smaller_num":"3","larger_num":"6","correct_side":2,"subjID":"paulasofiacastellanoscastro","gender":"1","age":"11","school":"6"},{"start_time":1551794940378,"click_time":1551794941279,"finger_time":1551794941057,"fix_duration":718.5786198098479,"trial":26,"RT":679,"MT":222,"sideResp":2,"stimulus":"img/750/equaldotanddens/R/4_Ratio_750_L_15_R_20.png","xmouse":[793,793,793,793,793,793,793,793,793,793,793,793,793,793,793,793,793,793,793,793,793,793,793,793,793,793,793,793,793,797,800,803,807,811,822,838,854,873,897,952,984,1007,1026,1039,1052,1078],"ymouse":[514,514,514,514,514,514,514,514,514,514,514,514,514,514,514,514,514,514,514,514,514,514,514,514,514,514,514,514,514,507,501,495,487,477,451,414,378,340,300,220,183,153,133,117,104,79],"timestamp_mouse":[2,20,45,59,79,101,119,139,159,179,199,219,239,259,280,300,319,341,361,379,399,419,439,460,480,500,520,540,559,579,599,619,639,659,679,699,719,740,759,779,799,819,839,859,880,900],"xSR":741.5,"ySR":469.95,"xT1":424.9,"yT1":0,"xT2":1058.1,"yT2":0,"toosoon":0,"cond_shown":"equaldotanddens","ratio_trial":750,"smaller_num":"15","larger_num":"20","correct_side":2,"subjID":"paulasofiacastellanoscastro","gender":"1","age":"11","school":"6"},{"start_time":1551794943176,"click_time":1551794944858,"finger_time":1551794943897,"fix_duration":937.5588577963438,"trial":27,"RT":721,"MT":961,"sideResp":2,"stimulus":"img/900/equaldotanddens/R/11_Ratio_900_L_18_R_20.png","xmouse":[779,779,779,779,779,779,779,779,779,779,779,779,779,779,779,779,779,779,779,779,779,779,779,779,779,779,779,779,779,779,779,780,782,785,794,802,813,823,829,833,834,834,834,834,834,833,832,832,832,832,832,832,832,832,832,832,831,831,831,831,831,831,833,842,871,884,897,917,941,965,998,1012,1021,1027,1032,1035,1036,1038,1039,1040,1042,1047,1050,1057,1062],"ymouse":[525,525,525,525,525,525,525,525,525,525,525,525,525,525,525,525,525,525,525,525,525,525,525,525,525,525,525,525,525,525,523,520,518,513,495,483,467,450,437,428,420,418,418,416,415,412,411,410,410,410,410,410,410,410,410,410,410,412,412,412,412,413,413,410,388,376,358,329,295,255,184,162,145,133,125,113,110,106,103,101,97,91,87,80,74],"timestamp_mouse":[8,31,42,61,81,101,121,141,163,182,202,221,243,262,281,301,321,341,361,381,402,421,441,461,482,501,521,543,561,581,601,621,641,663,682,701,721,743,762,782,801,821,841,862,881,902,921,941,961,982,1001,1022,1042,1061,1081,1101,1121,1142,1161,1181,1201,1223,1242,1261,1282,1301,1321,1341,1362,1382,1401,1421,1441,1463,1481,1501,1521,1541,1561,1581,1601,1621,1642,1663,1682],"xSR":741.5,"ySR":469.95,"xT1":424.9,"yT1":0,"xT2":1058.1,"yT2":0,"toosoon":0,"cond_shown":"equaldotanddens","ratio_trial":900,"smaller_num":"18","larger_num":"20","correct_side":2,"subjID":"paulasofiacastellanoscastro","gender":"1","age":"11","school":"6"},{"start_time":1551794946575,"click_time":1551794947797,"finger_time":1551794947357,"fix_duration":814.6110747380701,"trial":28,"RT":782,"MT":440,"sideResp":1,"stimulus":"img/900/equaldotanddens/L/10_Ratio_900_L_20_R_18.png","xmouse":[780,780,780,780,780,780,780,780,780,780,780,780,780,779,778,776,775,774,774,774,774,774,774,774,774,774,774,774,773,773,773,773,773,773,772,770,767,764,756,744,701,674,645,610,589,552,540,530,521,514,504,500,496,494,493,490,488,485,485,485,482,475],"ymouse":[527,527,527,527,527,527,527,527,527,527,527,527,527,528,528,528,528,528,528,528,528,528,528,528,528,528,528,528,528,527,526,525,525,524,524,519,513,501,481,458,388,345,310,274,260,235,226,216,206,195,173,163,154,149,146,138,132,129,128,125,113,96],"timestamp_mouse":[10,35,43,63,82,104,122,143,163,183,202,222,243,262,283,303,323,343,362,382,403,422,442,462,482,502,523,543,563,582,602,623,643,663,682,702,722,743,762,782,802,822,843,863,882,903,922,942,963,983,1003,1023,1042,1063,1082,1102,1123,1142,1163,1182,1202,1222],"xSR":741.5,"ySR":469.95,"xT1":424.9,"yT1":0,"xT2":1058.1,"yT2":0,"toosoon":0,"cond_shown":"equaldotanddens","ratio_trial":900,"smaller_num":"18","larger_num":"20","correct_side":1,"subjID":"paulasofiacastellanoscastro","gender":"1","age":"11","school":"6"},{"start_time":1551794949229,"click_time":1551794950457,"finger_time":1551794949957,"fix_duration":369.75003694193873,"trial":29,"RT":728,"MT":500,"sideResp":2,"stimulus":"img/750/randomdotsizeEA/L/10_Ratio_750_L_4_R_3.png","xmouse":[781,781,781,781,781,781,781,781,781,781,781,781,781,781,781,781,781,781,781,781,781,781,781,781,781,781,781,781,784,791,794,798,806,812,818,826,836,856,874,886,906,929,952,984,991,996,1000,1006,1013,1018,1023,1028,1039,1043,1047,1052,1055,1061,1065,1068,1070,1072],"ymouse":[517,517,517,517,517,517,517,517,517,517,517,517,517,517,517,517,517,517,517,517,517,517,517,517,517,517,517,517,517,513,510,507,499,491,481,471,458,429,402,381,353,322,289,244,231,220,214,202,192,185,180,176,165,158,152,145,141,129,116,108,101,94],"timestamp_mouse":[9,30,48,68,89,108,129,149,169,188,209,229,250,269,288,308,329,348,369,389,410,428,448,468,489,509,529,548,569,588,609,629,648,668,689,709,728,749,768,788,810,829,849,868,888,908,928,948,968,988,1009,1028,1048,1068,1088,1109,1128,1149,1168,1188,1210,1228],"xSR":741.5,"ySR":469.95,"xT1":424.9,"yT1":0,"xT2":1058.1,"yT2":0,"toosoon":0,"cond_shown":"randomdotsizeEA","ratio_trial":750,"smaller_num":"3","larger_num":"4","correct_side":1,"subjID":"paulasofiacastellanoscastro","gender":"1","age":"11","school":"6"},{"start_time":1551794951766,"click_time":1551794952658,"finger_time":1551794952358,"fix_duration":347.65712494462764,"trial":30,"RT":592,"MT":300,"sideResp":1,"stimulus":"img/250/equaldotanddens/L/7_Ratio_250_L_8_R_2.png","xmouse":[781,781,781,781,781,781,781,781,781,781,781,781,781,781,781,781,781,781,780,779,779,778,777,776,775,773,766,758,745,726,666,638,613,593,581,567,560,556,550,543,534,515,509,504,499],"ymouse":[529,529,529,529,529,529,529,529,529,529,529,529,529,529,529,529,528,527,526,526,526,525,524,524,522,519,511,505,492,477,424,393,360,321,287,231,212,195,180,166,152,121,110,100,92],"timestamp_mouse":[11,33,52,72,91,111,132,151,171,192,211,231,252,271,292,313,332,352,371,392,423,431,452,472,491,511,531,551,572,592,612,631,651,672,692,712,731,751,772,792,811,831,851,871,892],"xSR":741.5,"ySR":469.95,"xT1":424.9,"yT1":0,"xT2":1058.1,"yT2":0,"toosoon":0,"cond_shown":"equaldotanddens","ratio_trial":250,"smaller_num":"2","larger_num":"8","correct_side":1,"subjID":"paulasofiacastellanoscastro","gender":"1","age":"11","school":"6"},{"start_time":1551794955183,"click_time":1551794956337,"finger_time":1551794955959,"fix_duration":1483.5394575471125,"trial":31,"RT":776,"MT":378,"sideResp":1,"stimulus":"img/250/randomdotsizeEA/L/7_Ratio_250_L_8_R_2.png","xmouse":[795,795,795,795,795,795,795,795,795,795,795,795,795,795,795,795,795,795,795,795,795,795,795,795,795,795,795,795,795,795,795,795,794,793,785,764,755,751,742,737,722,708,689,661,629,586,577,567,562,556,544,539,534,530,529,528,526,516],"ymouse":[530,530,530,530,531,531,531,531,531,531,531,531,531,531,531,531,531,531,531,531,531,531,531,531,531,531,531,531,531,531,531,531,526,524,515,496,488,483,465,448,401,362,319,269,222,172,157,143,134,126,110,105,99,94,93,92,90,84],"timestamp_mouse":[16,39,55,74,94,115,135,155,176,195,215,234,255,276,295,315,334,355,376,395,416,434,455,475,494,514,534,554,574,595,614,634,654,674,695,714,735,754,776,795,814,834,854,874,895,914,935,954,974,994,1014,1034,1054,1074,1094,1114,1134,1154],"xSR":741.5,"ySR":469.95,"xT1":424.9,"yT1":0,"xT2":1058.1,"yT2":0,"toosoon":0,"cond_shown":"randomdotsizeEA","ratio_trial":250,"smaller_num":"2","larger_num":"8","correct_side":1,"subjID":"paulasofiacastellanoscastro","gender":"1","age":"11","school":"6"},{"start_time":1551794958001,"click_time":1551794959177,"finger_time":1551794958777,"fix_duration":843.289426682696,"trial":32,"RT":776,"MT":400,"sideResp":2,"stimulus":"img/500/equaldotsize/R/14_Ratio_500_L_5_R_10.png","xmouse":[794,794,794,794,794,794,794,794,794,794,794,794,794,794,794,794,794,794,794,794,794,794,794,794,794,794,794,794,794,794,794,794,794,796,798,804,811,822,837,872,888,900,908,915,930,943,953,965,979,1004,1017,1029,1040,1049,1078,1085,1092,1094,1096],"ymouse":[527,527,527,527,527,527,527,527,527,527,527,527,527,527,527,527,527,527,527,527,527,527,527,527,527,527,527,527,527,527,527,526,525,523,521,508,495,471,436,341,301,275,262,252,235,225,218,207,197,181,174,168,161,153,126,116,107,101,97],"timestamp_mouse":[22,45,57,76,96,116,136,158,176,197,217,236,257,277,297,317,336,357,377,396,417,436,457,477,496,518,536,556,576,597,616,636,657,678,696,717,736,756,776,797,816,836,857,877,896,916,936,956,976,996,1016,1036,1057,1076,1097,1116,1136,1156,1176],"xSR":741.5,"ySR":469.95,"xT1":424.9,"yT1":0,"xT2":1058.1,"yT2":0,"toosoon":0,"cond_shown":"equaldotsize","ratio_trial":500,"smaller_num":"5","larger_num":"10","correct_side":2,"subjID":"paulasofiacastellanoscastro","gender":"1","age":"11","school":"6"},{"start_time":1551794960469,"click_time":1551794962198,"finger_time":1551794961797,"fix_duration":470.429086991328,"trial":33,"RT":1328,"MT":401,"sideResp":1,"stimulus":"img/750/randomdotsizeEA/L/14_Ratio_750_L_8_R_6.png","xmouse":[769,769,769,769,769,769,769,769,769,769,769,769,769,769,769,769,769,769,769,769,769,769,769,769,769,768,766,765,765,765,765,765,765,765,763,761,758,754,752,750,748,745,744,744,744,744,744,744,744,744,744,744,744,744,744,744,744,744,744,744,744,744,744,744,743,742,734,686,656,634,621,611,598,588,577,567,558,547,537,524,498,489,463,458,456,454,450],"ymouse":[518,518,518,518,518,518,518,518,518,518,518,518,518,518,518,518,518,518,518,518,518,518,518,518,518,515,512,512,512,512,512,512,512,512,512,512,511,507,505,503,499,495,494,493,493,493,493,493,493,493,493,493,493,493,493,493,493,493,493,493,493,493,493,493,488,481,462,387,350,325,309,291,261,245,229,216,206,191,180,168,145,138,116,112,108,103,97],"timestamp_mouse":[10,32,48,68,88,108,128,148,168,188,208,228,248,268,288,309,328,349,369,388,408,428,448,469,489,508,529,548,568,589,608,628,648,668,689,708,728,748,768,789,809,828,849,869,888,908,928,948,969,990,1009,1028,1048,1069,1088,1109,1129,1148,1168,1189,1210,1228,1248,1269,1289,1308,1328,1348,1369,1388,1409,1428,1448,1468,1488,1508,1528,1548,1568,1589,1609,1628,1648,1668,1690,1708,1729],"xSR":741.5,"ySR":469.95,"xT1":424.9,"yT1":0,"xT2":1058.1,"yT2":0,"toosoon":0,"cond_shown":"randomdotsizeEA","ratio_trial":750,"smaller_num":"6","larger_num":"8","correct_side":1,"subjID":"paulasofiacastellanoscastro","gender":"1","age":"11","school":"6"},{"start_time":1551794963869,"click_time":1551794965117,"finger_time":1551794964617,"fix_duration":691.535472162637,"trial":34,"RT":748,"MT":500,"sideResp":2,"stimulus":"img/900/equaldotsize/R/13_Ratio_900_L_18_R_20.png","xmouse":[781,781,781,781,781,781,781,781,781,781,781,781,782,785,787,787,787,787,787,787,787,787,787,787,788,788,788,788,788,788,788,788,790,791,795,800,811,843,863,880,893,900,914,920,925,930,937,955,964,970,979,983,999,1007,1017,1025,1031,1037,1041,1047,1052,1056,1061],"ymouse":[527,527,527,527,527,527,527,527,527,527,527,527,527,527,527,527,527,527,527,527,527,527,527,527,527,527,525,523,522,521,521,520,517,513,506,499,487,453,431,408,380,364,331,317,305,295,278,245,232,220,200,184,149,136,122,114,108,101,95,86,81,77,73],"timestamp_mouse":[10,29,64,69,89,109,128,149,169,188,209,228,249,268,290,309,329,348,368,388,408,428,448,468,488,508,529,548,568,589,608,628,648,668,688,709,728,748,768,790,809,828,848,868,888,908,930,948,968,988,1009,1029,1048,1068,1088,1108,1130,1148,1168,1188,1208,1229,1248],"xSR":741.5,"ySR":469.95,"xT1":424.9,"yT1":0,"xT2":1058.1,"yT2":0,"toosoon":0,"cond_shown":"equaldotsize","ratio_trial":900,"smaller_num":"18","larger_num":"20","correct_side":2,"subjID":"paulasofiacastellanoscastro","gender":"1","age":"11","school":"6"},{"start_time":1551794967223,"click_time":1551794968337,"finger_time":1551794967878,"fix_duration":1143.5556821990062,"trial":35,"RT":655,"MT":459,"sideResp":1,"stimulus":"img/500/equaldotsize/L/8_Ratio_500_L_8_R_4.png","xmouse":[775,775,775,775,775,775,775,775,775,775,775,775,775,775,775,775,775,775,775,775,775,775,775,775,775,775,775,775,774,771,759,748,741,738,736,731,726,720,711,685,663,648,632,618,592,584,582,580,576,574,558,550,541,533,522,496],"ymouse":[523,523,525,525,525,525,525,525,525,525,525,525,525,525,525,525,525,525,525,525,525,525,525,525,525,525,525,525,523,518,504,488,472,458,442,403,374,333,298,252,228,220,211,205,192,187,186,184,180,176,155,145,134,124,112,88],"timestamp_mouse":[31,34,55,74,94,115,135,154,175,194,214,235,255,274,295,316,336,354,374,394,414,435,454,474,494,514,534,554,574,594,615,634,655,674,694,714,735,755,774,795,814,834,855,874,895,914,935,954,975,994,1015,1034,1055,1074,1094,1114],"xSR":741.5,"ySR":469.95,"xT1":424.9,"yT1":0,"xT2":1058.1,"yT2":0,"toosoon":0,"cond_shown":"equaldotsize","ratio_trial":500,"smaller_num":"4","larger_num":"8","correct_side":1,"subjID":"paulasofiacastellanoscastro","gender":"1","age":"11","school":"6"},{"start_time":1551794970678,"click_time":1551794971677,"finger_time":1551794971278,"fix_duration":1458.4116883025397,"trial":36,"RT":600,"MT":399,"sideResp":2,"stimulus":"img/750/equaldotsize/R/7_Ratio_750_L_3_R_4.png","xmouse":[786,786,786,786,786,786,786,786,786,786,786,786,786,786,786,786,786,786,786,786,786,786,786,786,786,787,794,801,824,835,849,867,892,949,974,996,1024,1033,1041,1046,1052,1058,1065,1077,1082,1085,1087,1088,1091,1092,1094],"ymouse":[522,522,522,522,522,522,522,522,522,522,522,522,522,522,522,522,522,522,522,522,522,522,522,522,522,521,513,506,483,471,456,437,410,345,315,286,246,228,203,193,182,171,161,145,137,133,127,121,112,106,98],"timestamp_mouse":[0,19,39,59,80,100,119,139,161,179,199,220,239,265,280,300,320,340,359,379,400,420,439,459,479,499,520,539,560,579,600,620,639,660,679,700,719,740,760,779,799,819,839,860,879,900,919,940,959,980,999],"xSR":741.5,"ySR":469.95,"xT1":424.9,"yT1":0,"xT2":1058.1,"yT2":0,"toosoon":0,"cond_shown":"equaldotsize","ratio_trial":750,"smaller_num":"3","larger_num":"4","correct_side":2,"subjID":"paulasofiacastellanoscastro","gender":"1","age":"11","school":"6"},{"start_time":1551794973170,"click_time":1551794974357,"finger_time":1551794973958,"fix_duration":551.5194651127002,"trial":37,"RT":788,"MT":399,"sideResp":1,"stimulus":"img/250/randomdotsizeEA/L/5_Ratio_250_L_24_R_6.png","xmouse":[771,771,771,771,771,771,771,771,771,771,771,771,771,771,771,771,771,771,771,771,771,771,771,771,771,771,771,771,771,771,771,771,771,771,773,774,775,776,776,772,757,743,726,709,671,659,644,630,614,586,577,574,572,569,566,562,555,547,526,514],"ymouse":[522,522,522,522,522,522,522,522,522,522,522,522,522,522,522,522,522,522,522,522,522,522,522,522,522,522,522,522,522,522,522,522,522,522,520,516,508,500,478,464,438,417,391,360,292,271,252,234,222,196,186,177,172,158,149,142,131,121,105,98],"timestamp_mouse":[10,31,47,67,87,108,128,147,168,187,207,227,247,267,287,309,327,347,368,388,407,427,447,467,487,507,527,547,568,587,607,627,647,669,687,708,727,748,767,788,807,829,848,867,887,907,927,947,967,987,1008,1028,1047,1067,1087,1107,1128,1147,1167,1187],"xSR":741.5,"ySR":469.95,"xT1":424.9,"yT1":0,"xT2":1058.1,"yT2":0,"toosoon":0,"cond_shown":"randomdotsizeEA","ratio_trial":250,"smaller_num":"6","larger_num":"24","correct_side":1,"subjID":"paulasofiacastellanoscastro","gender":"1","age":"11","school":"6"},{"start_time":1551794976733,"click_time":1551794977677,"finger_time":1551794977437,"fix_duration":1295.9413797936302,"trial":38,"RT":704,"MT":240,"sideResp":2,"stimulus":"img/750/equaldotanddens/L/9_Ratio_750_L_4_R_3.png","xmouse":[808,808,808,807,801,788,783,781,781,781,781,781,781,781,781,781,781,781,781,781,781,781,781,781,781,781,781,781,781,781,781,781,781,794,815,838,888,910,926,943,976,989,1001,1016,1033,1050,1079,1092],"ymouse":[514,514,514,513,512,511,509,509,509,509,509,509,509,509,509,509,509,509,509,509,509,509,509,509,509,509,509,509,509,509,509,508,506,498,485,467,409,376,341,305,235,213,194,174,155,136,107,93],"timestamp_mouse":[9,37,44,64,84,104,124,144,164,185,205,225,244,264,284,304,325,345,364,384,404,424,444,464,484,504,524,544,565,585,604,624,644,664,684,704,724,744,765,785,805,824,845,864,885,905,924,944],"xSR":741.5,"ySR":469.95,"xT1":424.9,"yT1":0,"xT2":1058.1,"yT2":0,"toosoon":0,"cond_shown":"equaldotanddens","ratio_trial":750,"smaller_num":"3","larger_num":"4","correct_side":1,"subjID":"paulasofiacastellanoscastro","gender":"1","age":"11","school":"6"},{"start_time":1551794979221,"click_time":1551794980197,"finger_time":1551794979857,"fix_duration":763.4131917325625,"trial":39,"RT":636,"MT":340,"sideResp":1,"stimulus":"img/250/equaldotsize/L/5_Ratio_250_L_24_R_6.png","xmouse":[783,783,783,783,783,783,783,783,783,783,783,783,783,783,783,783,783,783,783,783,783,783,783,783,783,783,783,783,780,774,761,716,684,657,628,585,569,552,536,520,496,486,480,476,474,471,465,463,461],"ymouse":[522,522,522,522,522,522,522,522,522,522,522,522,522,522,522,522,522,522,522,522,522,522,522,522,522,522,522,522,522,522,516,486,462,439,413,365,346,325,303,281,239,219,200,182,166,146,122,111,98],"timestamp_mouse":[17,36,56,76,96,117,137,156,176,196,216,236,257,278,296,316,336,358,376,397,418,437,457,476,496,516,536,556,577,596,617,636,656,677,696,717,736,756,778,796,818,836,856,876,897,917,937,956,976],"xSR":741.5,"ySR":469.95,"xT1":424.9,"yT1":0,"xT2":1058.1,"yT2":0,"toosoon":0,"cond_shown":"equaldotsize","ratio_trial":250,"smaller_num":"6","larger_num":"24","correct_side":1,"subjID":"paulasofiacastellanoscastro","gender":"1","age":"11","school":"6"},{"start_time":1551794981833,"click_time":1551794983338,"finger_time":1551794982977,"fix_duration":854.2003883145914,"trial":40,"RT":1144,"MT":361,"sideResp":1,"stimulus":"img/750/randomdotsizeEA/L/6_Ratio_750_L_24_R_18.png","xmouse":[792,792,792,792,792,792,792,792,792,792,792,792,792,792,792,792,792,792,792,792,792,792,792,792,792,792,792,792,792,792,792,792,795,799,801,803,804,804,805,806,807,808,809,811,812,812,812,812,812,812,812,812,812,812,812,810,784,763,734,705,686,672,670,667,664,657,635,617,596,579,564,533,515,490,471,454],"ymouse":[518,518,518,518,518,518,518,518,518,518,518,518,518,518,518,518,518,518,518,518,518,518,518,518,518,518,518,518,518,518,518,518,518,517,516,516,514,514,514,513,512,510,509,508,507,506,506,506,506,506,506,506,506,506,504,500,478,462,442,420,401,370,357,342,333,321,288,266,242,223,204,167,147,120,101,85],"timestamp_mouse":[10,41,45,65,85,105,125,144,165,184,204,224,245,264,284,305,324,344,365,384,404,425,445,465,486,504,524,544,564,585,604,625,645,664,685,704,724,744,764,784,805,824,846,865,884,904,924,944,965,984,1006,1025,1045,1065,1085,1104,1124,1144,1164,1184,1206,1224,1244,1264,1284,1304,1324,1344,1364,1385,1404,1425,1444,1464,1486,1505],"xSR":741.5,"ySR":469.95,"xT1":424.9,"yT1":0,"xT2":1058.1,"yT2":0,"toosoon":0,"cond_shown":"randomdotsizeEA","ratio_trial":750,"smaller_num":"18","larger_num":"24","correct_side":1,"subjID":"paulasofiacastellanoscastro","gender":"1","age":"11","school":"6"},{"start_time":1551794985083,"click_time":1551794986159,"finger_time":1551794985838,"fix_duration":844.697269381777,"trial":41,"RT":755,"MT":321,"sideResp":1,"stimulus":"img/250/randomdotsizeEA/L/7_Ratio_250_L_8_R_2.png","xmouse":[798,798,798,798,798,798,798,798,798,798,798,798,798,798,798,798,798,798,798,798,798,798,798,798,798,798,798,798,798,798,798,798,798,798,790,776,755,734,720,717,717,716,711,677,650,623,601,586,575,556,546,535,527,520],"ymouse":[526,526,526,526,526,526,526,526,526,526,526,526,526,526,526,526,526,526,526,526,526,526,526,526,526,526,526,526,526,526,526,526,526,525,514,502,487,474,466,464,464,463,450,366,303,256,219,196,178,138,121,103,89,79],"timestamp_mouse":[14,39,54,74,95,114,135,155,175,195,214,234,254,274,294,315,335,354,374,395,416,436,455,474,496,515,535,555,575,594,615,635,655,675,694,716,735,755,774,796,814,835,856,875,894,914,934,954,975,994,1014,1035,1054,1075],"xSR":741.5,"ySR":469.95,"xT1":424.9,"yT1":0,"xT2":1058.1,"yT2":0,"toosoon":0,"cond_shown":"randomdotsizeEA","ratio_trial":250,"smaller_num":"2","larger_num":"8","correct_side":1,"subjID":"paulasofiacastellanoscastro","gender":"1","age":"11","school":"6"},{"start_time":1551794987490,"click_time":1551794988858,"finger_time":1551794988377,"fix_duration":250,"trial":42,"RT":887,"MT":481,"sideResp":2,"stimulus":"img/750/randomdotsizeEA/R/5_Ratio_750_L_15_R_20.png","xmouse":[812,812,812,812,812,812,812,812,812,812,812,812,812,812,812,812,812,812,812,812,812,812,812,812,812,812,812,812,812,812,812,812,812,812,812,812,812,812,812,812,812,812,815,825,860,880,898,916,957,968,976,984,988,992,995,995,995,998,1000,1007,1011,1014,1021,1026,1044,1056,1064,1071,1079],"ymouse":[519,519,519,519,519,519,519,519,519,519,519,519,519,519,519,519,519,519,519,519,519,519,519,519,519,519,519,519,519,519,519,519,519,519,519,519,519,519,519,519,519,514,509,499,456,430,405,382,315,291,267,243,227,212,185,172,164,151,144,134,131,128,124,122,114,109,105,101,96],"timestamp_mouse":[10,36,48,68,87,108,128,149,167,187,207,227,248,268,287,308,328,349,368,388,409,427,448,467,488,508,528,548,567,587,607,629,647,668,688,707,728,748,768,788,807,828,848,867,887,907,928,947,969,987,1007,1027,1048,1067,1087,1107,1128,1149,1167,1188,1207,1227,1247,1269,1287,1307,1327,1348,1367],"xSR":741.5,"ySR":469.95,"xT1":424.9,"yT1":0,"xT2":1058.1,"yT2":0,"toosoon":0,"cond_shown":"randomdotsizeEA","ratio_trial":750,"smaller_num":"15","larger_num":"20","correct_side":2,"subjID":"paulasofiacastellanoscastro","gender":"1","age":"11","school":"6"},{"start_time":1551794990189,"click_time":1551794991439,"finger_time":1551794990877,"fix_duration":250,"trial":43,"RT":688,"MT":562,"sideResp":2,"stimulus":"img/250/equaldotsize/R/4_Ratio_250_L_3_R_12.png","xmouse":[775,775,775,775,775,775,775,775,775,775,775,775,775,775,775,775,775,775,775,775,775,775,775,775,775,775,775,776,778,786,792,807,815,825,843,858,883,913,945,979,989,992,994,997,1004,1006,1010,1011,1013,1019,1021,1024,1027,1030,1037,1040,1045,1048,1052,1059,1062,1068,1074],"ymouse":[529,529,529,529,529,529,529,529,529,529,529,529,529,529,529,529,529,529,529,529,529,529,529,529,529,529,529,529,529,526,523,512,505,494,455,421,374,330,296,269,257,253,249,244,234,229,221,215,208,193,188,178,172,167,154,149,142,136,131,119,113,104,96],"timestamp_mouse":[9,34,50,69,88,109,128,148,169,188,208,228,249,268,289,309,330,349,369,388,409,430,448,469,489,508,529,548,570,588,608,628,648,669,688,708,728,748,768,789,808,828,849,869,888,908,928,948,969,988,1008,1028,1049,1068,1088,1109,1128,1148,1168,1188,1208,1228,1249],"xSR":741.5,"ySR":469.95,"xT1":424.9,"yT1":0,"xT2":1058.1,"yT2":0,"toosoon":0,"cond_shown":"equaldotsize","ratio_trial":250,"smaller_num":"3","larger_num":"12","correct_side":2,"subjID":"paulasofiacastellanoscastro","gender":"1","age":"11","school":"6"},{"start_time":1551794993046,"click_time":1551794994277,"finger_time":1551794993837,"fix_duration":668.2488411088963,"trial":44,"RT":791,"MT":440,"sideResp":1,"stimulus":"img/500/randomdotsizeEA/L/4_Ratio_500_L_18_R_9.png","xmouse":[803,803,803,803,803,803,803,803,803,803,803,803,803,803,803,803,803,803,803,803,803,803,803,803,803,803,803,803,803,803,803,803,803,803,803,803,803,803,797,773,744,675,652,642,639,638,634,628,620,613,608,606,604,602,597,590,570,554,545,535,526,516],"ymouse":[516,516,516,516,516,516,516,516,516,516,516,516,516,516,516,516,516,516,516,516,516,516,516,516,516,516,516,516,516,516,516,516,516,516,516,516,516,516,504,457,406,329,313,305,300,295,269,232,204,182,173,168,164,161,154,145,126,112,105,99,92,86],"timestamp_mouse":[11,34,52,72,92,112,131,153,171,191,212,231,251,271,292,312,332,351,372,391,412,431,453,471,492,513,532,553,571,592,613,631,652,672,692,712,731,752,771,791,811,833,851,872,891,911,932,951,971,992,1011,1031,1051,1072,1091,1111,1132,1151,1172,1191,1211,1231],"xSR":741.5,"ySR":469.95,"xT1":424.9,"yT1":0,"xT2":1058.1,"yT2":0,"toosoon":0,"cond_shown":"randomdotsizeEA","ratio_trial":500,"smaller_num":"9","larger_num":"18","correct_side":1,"subjID":"paulasofiacastellanoscastro","gender":"1","age":"11","school":"6"},{"start_time":1551794995626,"click_time":1551794996458,"finger_time":1551794996178,"fix_duration":448.6488355943956,"trial":45,"RT":552,"MT":280,"sideResp":1,"stimulus":"img/250/equaldotanddens/L/3_Ratio_250_L_8_R_2.png","xmouse":[773,773,772,772,772,772,772,772,772,772,772,772,772,772,772,772,772,772,772,772,772,772,772,772,769,765,754,713,701,692,685,678,653,628,597,564,516,491,473,468,461,454],"ymouse":[519,519,520,521,521,521,522,522,522,522,522,522,522,522,522,522,522,522,522,522,522,522,522,522,521,516,504,470,460,450,437,422,359,316,272,237,189,167,141,128,111,94],"timestamp_mouse":[12,33,53,71,92,113,131,153,172,193,212,231,251,271,292,313,332,352,371,392,412,431,452,471,492,512,531,552,571,591,611,632,652,671,692,712,731,752,771,791,812,832],"xSR":741.5,"ySR":469.95,"xT1":424.9,"yT1":0,"xT2":1058.1,"yT2":0,"toosoon":0,"cond_shown":"equaldotanddens","ratio_trial":250,"smaller_num":"2","larger_num":"8","correct_side":1,"subjID":"paulasofiacastellanoscastro","gender":"1","age":"11","school":"6"},{"start_time":1551794999641,"click_time":1551795000577,"finger_time":1551795000297,"fix_duration":842.8510005649483,"trial":46,"RT":656,"MT":280,"sideResp":2,"stimulus":"img/500/randomdotsizeEA/R/2_Ratio_500_L_3_R_6.png","xmouse":[776,776,776,776,776,776,776,776,776,776,776,776,776,776,776,776,776,776,776,776,776,777,777,777,777,777,777,776,776,776,778,783,801,834,867,914,974,1077,1106,1120,1120,1120,1125,1131,1138,1141,1143],"ymouse":[512,512,512,512,512,512,512,512,512,512,512,512,512,512,512,512,512,512,512,512,512,512,512,510,509,507,506,504,502,499,497,487,454,399,350,293,237,157,140,133,133,133,127,118,109,101,96],"timestamp_mouse":[16,38,58,76,96,116,137,156,176,197,216,236,256,277,296,317,336,356,376,397,416,437,456,477,496,516,536,556,576,596,616,637,656,676,696,716,737,757,776,796,816,836,857,876,896,917,936],"xSR":741.5,"ySR":469.95,"xT1":424.9,"yT1":0,"xT2":1058.1,"yT2":0,"toosoon":0,"cond_shown":"randomdotsizeEA","ratio_trial":500,"smaller_num":"3","larger_num":"6","correct_side":2,"subjID":"paulasofiacastellanoscastro","gender":"1","age":"11","school":"6"},{"start_time":1551795002092,"click_time":1551795003097,"finger_time":1551795002578,"fix_duration":552.3130571832014,"trial":47,"RT":486,"MT":519,"sideResp":1,"stimulus":"img/500/equaldotanddens/L/13_Ratio_500_L_12_R_6.png","xmouse":[785,785,785,785,785,785,785,785,785,785,785,785,785,785,785,785,785,785,785,785,785,783,779,775,769,754,748,741,733,722,709,672,659,647,638,623,614,605,597,585,566,555,549,543,538,534,532,531,527,518,505],"ymouse":[524,524,524,524,524,524,524,524,524,524,524,524,524,524,524,524,524,524,524,524,524,517,502,485,467,428,414,398,380,360,337,277,256,236,218,186,176,167,162,153,139,132,127,122,119,116,115,114,111,103,91],"timestamp_mouse":[10,36,45,67,86,105,125,147,165,186,207,225,245,265,285,305,325,345,366,386,406,425,445,466,486,506,525,546,566,586,605,626,645,666,685,706,725,745,765,786,806,825,846,865,886,906,925,945,966,986,1005],"xSR":741.5,"ySR":469.95,"xT1":424.9,"yT1":0,"xT2":1058.1,"yT2":0,"toosoon":0,"cond_shown":"equaldotanddens","ratio_trial":500,"smaller_num":"6","larger_num":"12","correct_side":1,"subjID":"paulasofiacastellanoscastro","gender":"1","age":"11","school":"6"},{"start_time":1551795004369,"click_time":1551795005437,"finger_time":1551795004997,"fix_duration":250,"trial":48,"RT":628,"MT":440,"sideResp":2,"stimulus":"img/750/equaldotanddens/R/2_Ratio_750_L_6_R_8.png","xmouse":[801,801,801,801,801,801,801,801,801,801,801,801,801,801,801,801,801,801,801,801,801,801,801,801,800,800,801,807,813,824,836,849,875,891,902,917,945,983,998,1011,1020,1027,1038,1045,1052,1061,1085,1092,1098,1102,1104,1109,1123,1128],"ymouse":[503,503,503,503,503,503,503,503,503,503,503,503,503,503,503,503,503,503,503,503,503,503,503,503,503,502,500,494,488,479,470,459,429,411,394,374,335,285,267,251,238,228,208,197,186,176,152,147,143,140,137,131,102,86],"timestamp_mouse":[10,37,49,68,88,108,129,148,168,189,208,228,250,268,288,309,328,348,369,388,408,429,449,468,488,508,528,548,568,588,609,628,648,669,689,708,728,748,768,788,809,828,848,868,889,908,930,948,968,988,1008,1029,1048,1068],"xSR":741.5,"ySR":469.95,"xT1":424.9,"yT1":0,"xT2":1058.1,"yT2":0,"toosoon":0,"cond_shown":"equaldotanddens","ratio_trial":750,"smaller_num":"6","larger_num":"8","correct_side":2,"subjID":"paulasofiacastellanoscastro","gender":"1","age":"11","school":"6"},{"start_time":1551795006648,"click_time":1551795007617,"finger_time":1551795007237,"fix_duration":270.0207492140222,"trial":49,"RT":589,"MT":380,"sideResp":2,"stimulus":"img/250/equaldotanddens/R/10_Ratio_250_L_4_R_16.png","xmouse":[757,757,758,759,760,762,763,764,765,765,766,766,766,766,766,766,767,767,767,767,768,769,770,771,772,774,776,779,797,816,837,866,879,902,912,924,937,954,995,1015,1029,1046,1053,1061,1065,1068,1071,1073,1077],"ymouse":[528,528,527,527,526,525,524,524,523,523,522,521,521,521,521,521,521,521,521,521,520,516,514,510,509,506,503,499,478,459,435,395,373,327,304,284,263,242,202,188,175,158,150,137,131,125,119,113,98],"timestamp_mouse":[10,31,49,69,89,109,129,149,169,189,209,229,249,271,289,310,329,349,369,389,409,429,450,469,489,509,530,549,570,589,610,629,649,669,689,709,729,750,770,790,810,830,849,869,889,910,930,949,969],"xSR":741.5,"ySR":469.95,"xT1":424.9,"yT1":0,"xT2":1058.1,"yT2":0,"toosoon":0,"cond_shown":"equaldotanddens","ratio_trial":250,"smaller_num":"4","larger_num":"16","correct_side":2,"subjID":"paulasofiacastellanoscastro","gender":"1","age":"11","school":"6"},{"start_time":1551795008730,"click_time":1551795010318,"finger_time":1551795010017,"fix_duration":250,"trial":50,"RT":1287,"MT":301,"sideResp":2,"stimulus":"img/750/equaldotsize/R/12_Ratio_750_L_3_R_4.png","xmouse":[758,759,759,760,761,761,761,762,762,764,765,765,765,765,765,765,765,765,765,766,767,767,769,769,770,771,773,773,775,776,776,776,776,776,776,776,776,774,773,773,773,773,773,773,773,773,773,773,773,773,773,773,773,773,773,773,773,773,773,785,790,793,797,806,820,871,885,900,917,936,982,1005,1019,1031,1063,1086,1101,1112,1116,1120],"ymouse":[545,545,545,544,543,543,543,542,542,540,539,538,537,537,537,537,537,537,536,531,527,524,520,518,515,511,507,503,500,495,495,495,495,495,495,495,495,495,496,496,496,496,496,496,496,496,496,496,496,496,496,496,496,496,496,496,496,496,496,496,496,495,491,478,454,368,348,334,324,313,288,275,263,252,204,162,139,119,105,90],"timestamp_mouse":[10,39,48,68,88,107,127,147,168,187,207,228,248,268,288,307,327,347,367,387,407,427,448,467,487,508,527,548,567,587,608,628,647,668,687,708,727,748,767,788,808,828,848,868,888,907,928,948,967,987,1007,1027,1049,1068,1087,1109,1127,1147,1167,1187,1207,1227,1247,1268,1287,1308,1327,1347,1367,1387,1407,1428,1448,1467,1487,1507,1527,1547,1567,1588],"xSR":741.5,"ySR":469.95,"xT1":424.9,"yT1":0,"xT2":1058.1,"yT2":0,"toosoon":0,"cond_shown":"equaldotsize","ratio_trial":750,"smaller_num":"3","larger_num":"4","correct_side":2,"subjID":"paulasofiacastellanoscastro","gender":"1","age":"11","school":"6"},{"start_time":1551795012335,"click_time":1551795013278,"finger_time":1551795012977,"fix_duration":895.6589097122317,"trial":51,"RT":642,"MT":301,"sideResp":1,"stimulus":"img/900/equaldotsize/L/1_Ratio_900_L_10_R_9.png","xmouse":[781,781,781,781,781,781,781,781,781,781,782,782,782,782,782,782,782,782,782,782,782,782,782,782,782,782,782,782,782,782,781,764,739,705,649,637,625,611,593,555,533,512,496,483,471,455,445,437],"ymouse":[499,499,499,499,499,499,499,499,499,499,498,498,498,498,498,498,498,498,498,498,498,498,498,498,498,498,498,498,498,498,494,484,470,449,403,386,369,346,316,264,240,220,205,187,162,126,110,95],"timestamp_mouse":[11,30,43,63,83,102,122,142,162,182,202,224,243,263,283,302,322,342,363,383,402,422,442,462,483,502,523,543,563,583,602,622,642,663,684,702,722,742,762,783,802,822,842,862,882,902,922,943],"xSR":741.5,"ySR":469.95,"xT1":424.9,"yT1":0,"xT2":1058.1,"yT2":0,"toosoon":0,"cond_shown":"equaldotsize","ratio_trial":900,"smaller_num":"9","larger_num":"10","correct_side":1,"subjID":"paulasofiacastellanoscastro","gender":"1","age":"11","school":"6"},{"start_time":1551795015423,"click_time":1551795016938,"finger_time":1551795016318,"fix_duration":1285.8832530238367,"trial":52,"RT":895,"MT":620,"sideResp":1,"stimulus":"img/750/randomdotsizeEA/R/4_Ratio_750_L_15_R_20.png","xmouse":[799,799,799,800,800,800,800,800,800,800,800,800,800,800,800,800,800,800,800,800,800,800,800,800,800,800,800,800,800,800,800,800,800,800,800,800,800,800,800,801,804,809,818,831,851,855,858,860,860,860,860,860,860,860,860,857,849,840,829,799,784,767,753,740,714,696,678,647,628,596,582,568,554,537,497],"ymouse":[511,511,511,511,511,511,511,511,511,511,511,511,511,511,511,511,511,511,511,511,511,511,511,510,509,508,508,508,508,508,508,508,508,508,508,508,506,504,503,499,497,491,481,464,428,414,404,396,394,393,393,393,393,393,393,393,391,390,387,377,372,365,356,344,308,286,264,234,217,182,166,150,135,122,99],"timestamp_mouse":[35,55,74,94,115,134,154,175,194,216,235,254,275,294,314,334,355,375,396,414,434,455,475,494,514,534,555,576,595,615,636,655,674,696,714,734,754,775,795,814,834,854,874,895,915,935,955,974,995,1015,1034,1055,1074,1095,1115,1134,1154,1174,1195,1214,1234,1255,1274,1295,1314,1335,1356,1374,1395,1414,1434,1455,1476,1494,1515],"xSR":741.5,"ySR":469.95,"xT1":424.9,"yT1":0,"xT2":1058.1,"yT2":0,"toosoon":0,"cond_shown":"randomdotsizeEA","ratio_trial":750,"smaller_num":"15","larger_num":"20","correct_side":2,"subjID":"paulasofiacastellanoscastro","gender":"1","age":"11","school":"6"},{"start_time":1551795018070,"click_time":1551795019057,"finger_time":1551795018777,"fix_duration":250,"trial":53,"RT":707,"MT":280,"sideResp":1,"stimulus":"img/750/randomdotsizeEA/L/1_Ratio_750_L_20_R_15.png","xmouse":[782,783,783,783,783,783,784,784,784,784,784,784,784,784,784,784,784,784,784,784,784,784,784,784,784,784,784,784,784,784,784,784,784,771,763,737,721,711,701,700,696,691,681,651,631,601,580,565,534,520],"ymouse":[546,546,546,546,546,546,545,545,545,545,545,545,545,545,545,545,545,545,545,545,545,545,545,545,545,545,545,545,545,545,545,545,545,532,527,507,493,477,448,425,398,368,332,255,218,165,131,102,59,41],"timestamp_mouse":[21,38,48,67,87,107,127,147,168,187,208,227,247,268,287,308,329,348,367,389,408,428,447,468,488,509,527,548,567,587,608,628,648,668,688,707,727,747,767,787,808,828,848,868,889,907,927,948,967,987],"xSR":741.5,"ySR":469.95,"xT1":424.9,"yT1":0,"xT2":1058.1,"yT2":0,"toosoon":0,"cond_shown":"randomdotsizeEA","ratio_trial":750,"smaller_num":"15","larger_num":"20","correct_side":1,"subjID":"paulasofiacastellanoscastro","gender":"1","age":"11","school":"6"},{"start_time":1551795020558,"click_time":1551795021398,"finger_time":1551795021257,"fix_duration":458.97687119539455,"trial":54,"RT":699,"MT":141,"sideResp":1,"stimulus":"img/500/equaldotanddens/L/10_Ratio_500_L_4_R_2.png","xmouse":[785,785,785,785,785,785,785,785,785,785,785,785,785,785,785,785,785,785,785,785,785,785,785,785,785,785,785,785,785,777,772,765,758,754,739,726,707,680,657,582,549,519],"ymouse":[507,507,507,507,507,507,507,507,507,507,507,507,507,507,507,507,507,507,507,507,507,507,507,507,507,507,507,507,507,501,497,493,486,481,452,431,397,352,295,167,132,99],"timestamp_mouse":[33,39,60,80,99,119,140,160,180,200,220,239,259,279,299,319,340,359,379,399,419,439,460,479,500,519,541,560,579,599,619,639,659,679,699,720,739,760,780,800,819,839],"xSR":741.5,"ySR":469.95,"xT1":424.9,"yT1":0,"xT2":1058.1,"yT2":0,"toosoon":0,"cond_shown":"equaldotanddens","ratio_trial":500,"smaller_num":"2","larger_num":"4","correct_side":1,"subjID":"paulasofiacastellanoscastro","gender":"1","age":"11","school":"6"},{"start_time":1551795023092,"click_time":1551795023937,"finger_time":1551795023757,"fix_duration":473.0596337581001,"trial":55,"RT":665,"MT":180,"sideResp":2,"stimulus":"img/900/randomdotsizeEA/R/15_Ratio_900_L_9_R_10.png","xmouse":[800,800,800,800,800,800,800,800,800,799,799,799,799,799,799,799,799,799,799,799,799,799,799,799,799,799,799,799,800,802,804,809,815,831,843,857,876,898,945,979,1022,1072,1097],"ymouse":[531,530,530,530,530,530,530,529,528,528,528,528,528,528,528,528,528,528,528,528,528,528,528,528,527,526,525,522,521,518,514,506,497,463,436,401,360,323,260,220,169,111,84],"timestamp_mouse":[9,26,45,66,86,106,125,146,166,187,205,226,246,265,286,306,325,347,365,386,406,425,445,466,485,506,525,546,566,587,606,626,646,665,686,705,726,746,765,786,805,826,845],"xSR":741.5,"ySR":469.95,"xT1":424.9,"yT1":0,"xT2":1058.1,"yT2":0,"toosoon":0,"cond_shown":"randomdotsizeEA","ratio_trial":900,"smaller_num":"9","larger_num":"10","correct_side":2,"subjID":"paulasofiacastellanoscastro","gender":"1","age":"11","school":"6"},{"start_time":1551795025516,"click_time":1551795026638,"finger_time":1551795026197,"fix_duration":376.4198488842337,"trial":56,"RT":681,"MT":441,"sideResp":1,"stimulus":"img/750/equaldotanddens/L/8_Ratio_750_L_4_R_3.png","xmouse":[786,786,786,786,786,786,786,786,786,786,786,786,786,786,786,786,786,786,786,786,786,786,786,786,786,786,786,786,784,783,780,778,766,752,736,715,697,689,689,689,689,687,678,667,657,648,640,620,603,591,579,567,545,537,532,527,523],"ymouse":[504,504,504,504,504,504,504,504,504,504,504,504,504,504,504,504,504,504,504,504,504,504,504,504,504,504,504,504,504,504,504,502,489,478,464,448,431,418,409,402,393,378,337,314,290,268,246,199,165,146,130,118,100,96,92,90,88],"timestamp_mouse":[9,22,43,62,82,102,121,141,163,181,201,222,242,262,281,301,323,341,362,381,402,421,442,462,482,503,521,541,563,581,601,621,641,661,681,701,723,741,762,781,802,821,842,861,882,901,922,942,961,981,1001,1021,1041,1061,1081,1102,1121],"xSR":741.5,"ySR":469.95,"xT1":424.9,"yT1":0,"xT2":1058.1,"yT2":0,"toosoon":0,"cond_shown":"equaldotanddens","ratio_trial":750,"smaller_num":"3","larger_num":"4","correct_side":1,"subjID":"paulasofiacastellanoscastro","gender":"1","age":"11","school":"6"},{"start_time":1551795029062,"click_time":1551795030377,"finger_time":1551795029878,"fix_duration":1362.997943611881,"trial":57,"RT":816,"MT":499,"sideResp":2,"stimulus":"img/900/randomdotsizeEA/L/8_Ratio_900_L_20_R_18.png","xmouse":[795,795,795,795,795,795,795,795,795,795,795,795,795,795,795,795,795,795,795,795,795,795,795,795,795,795,795,795,795,795,795,795,795,795,795,795,796,799,815,839,861,869,872,874,875,885,896,906,918,936,965,981,997,1011,1022,1041,1048,1052,1054,1054,1054,1054,1054,1055,1055,1061],"ymouse":[522,522,522,522,522,522,522,522,522,522,522,522,522,522,522,522,522,522,522,522,522,522,522,522,522,522,522,522,522,522,522,522,522,522,522,522,522,521,514,501,477,456,435,410,385,341,325,314,303,290,266,250,233,222,210,183,167,154,143,121,114,108,105,101,97,85],"timestamp_mouse":[31,36,56,75,96,117,136,155,175,195,216,235,255,276,296,316,336,356,375,396,416,437,455,476,495,515,537,556,575,596,615,636,656,676,696,716,736,756,776,796,816,836,856,876,897,915,936,956,977,996,1017,1036,1055,1075,1095,1115,1136,1157,1176,1196,1215,1236,1255,1275,1295,1315],"xSR":741.5,"ySR":469.95,"xT1":424.9,"yT1":0,"xT2":1058.1,"yT2":0,"toosoon":0,"cond_shown":"randomdotsizeEA","ratio_trial":900,"smaller_num":"18","larger_num":"20","correct_side":1,"subjID":"paulasofiacastellanoscastro","gender":"1","age":"11","school":"6"},{"start_time":1551795032108,"click_time":1551795033177,"finger_time":1551795032798,"fix_duration":750.3513977989595,"trial":58,"RT":690,"MT":379,"sideResp":2,"stimulus":"img/250/randomdotsizeEA/R/9_Ratio_250_L_3_R_12.png","xmouse":[778,778,778,778,778,778,778,778,778,778,778,778,778,778,778,778,778,778,778,778,778,778,778,778,777,777,775,775,775,775,775,777,785,829,850,869,877,883,893,901,908,918,928,944,954,969,999,1020,1061,1073,1080,1086,1093,1107],"ymouse":[523,523,523,523,523,523,523,523,523,523,523,523,523,523,523,523,523,523,523,523,523,523,523,523,521,520,518,517,517,517,515,514,512,499,491,479,470,456,408,382,358,333,308,268,247,225,189,167,134,126,120,115,108,84],"timestamp_mouse":[10,32,50,69,89,110,129,149,171,190,211,230,249,271,290,310,330,350,369,389,411,430,450,471,489,510,530,549,570,589,609,630,649,670,690,710,730,751,769,789,810,830,850,869,889,910,930,950,970,989,1010,1029,1050,1069],"xSR":741.5,"ySR":469.95,"xT1":424.9,"yT1":0,"xT2":1058.1,"yT2":0,"toosoon":0,"cond_shown":"randomdotsizeEA","ratio_trial":250,"smaller_num":"3","larger_num":"12","correct_side":2,"subjID":"paulasofiacastellanoscastro","gender":"1","age":"11","school":"6"},{"start_time":1551795034390,"click_time":1551795035418,"finger_time":1551795035139,"fix_duration":250,"trial":59,"RT":749,"MT":279,"sideResp":2,"stimulus":"img/250/equaldotsize/R/13_Ratio_250_L_2_R_8.png","xmouse":[806,806,805,805,804,804,804,804,804,804,804,804,804,804,804,804,804,804,804,804,804,803,803,803,803,803,802,802,802,802,802,803,804,805,810,817,828,849,879,992,1037,1085,1101,1111,1116,1120,1120,1122,1124,1128,1131,1131],"ymouse":[517,517,517,517,517,517,517,517,517,517,517,517,517,517,517,517,517,517,517,517,517,517,517,517,516,516,516,515,514,514,513,511,510,509,502,495,482,461,436,349,313,270,251,234,221,197,185,171,158,126,106,98],"timestamp_mouse":[10,34,47,69,89,108,128,147,168,189,207,228,249,268,287,307,328,349,368,389,407,428,448,467,488,508,528,547,567,588,608,627,648,669,688,708,728,749,769,787,807,827,849,867,888,908,928,948,967,987,1008,1028],"xSR":741.5,"ySR":469.95,"xT1":424.9,"yT1":0,"xT2":1058.1,"yT2":0,"toosoon":0,"cond_shown":"equaldotsize","ratio_trial":250,"smaller_num":"2","larger_num":"8","correct_side":2,"subjID":"paulasofiacastellanoscastro","gender":"1","age":"11","school":"6"},{"start_time":1551795037670,"click_time":1551795038579,"finger_time":1551795038339,"fix_duration":1210.9405390137767,"trial":60,"RT":669,"MT":240,"sideResp":2,"stimulus":"img/500/equaldotsize/R/1_Ratio_500_L_9_R_18.png","xmouse":[802,802,802,802,802,802,802,802,802,802,802,802,802,802,802,802,802,802,802,802,802,802,802,802,801,801,801,802,804,807,814,828,834,843,851,888,916,947,986,1022,1061,1071,1079,1085,1092,1120],"ymouse":[532,532,532,532,532,532,532,532,532,532,532,532,532,532,532,532,532,532,532,532,532,532,532,532,532,532,530,529,527,525,520,506,495,482,466,410,371,329,279,238,190,177,162,148,131,80],"timestamp_mouse":[9,41,48,69,89,107,128,148,168,189,208,228,248,269,288,308,328,347,369,388,408,428,447,468,487,508,527,548,568,589,608,628,648,669,688,709,727,747,768,787,808,827,848,869,889,909],"xSR":741.5,"ySR":469.95,"xT1":424.9,"yT1":0,"xT2":1058.1,"yT2":0,"toosoon":0,"cond_shown":"equaldotsize","ratio_trial":500,"smaller_num":"9","larger_num":"18","correct_side":2,"subjID":"paulasofiacastellanoscastro","gender":"1","age":"11","school":"6"},{"start_time":1551795040257,"click_time":1551795041357,"finger_time":1551795040898,"fix_duration":598.7072638379128,"trial":61,"RT":641,"MT":459,"sideResp":2,"stimulus":"img/750/equaldotsize/R/11_Ratio_750_L_12_R_16.png","xmouse":[768,769,769,769,769,769,769,769,769,769,769,769,769,769,769,769,769,769,770,771,772,773,776,776,777,778,779,781,783,786,790,798,822,847,881,931,952,969,971,973,976,980,994,1006,1020,1033,1045,1056,1062,1068,1076,1082,1091,1093,1094,1094],"ymouse":[515,515,516,516,516,516,516,516,516,516,516,516,516,516,516,516,516,516,517,517,517,516,515,515,515,513,512,511,508,506,500,492,463,434,394,336,311,280,270,263,259,254,245,238,229,220,209,195,186,176,161,148,121,114,105,99],"timestamp_mouse":[1,29,42,61,80,100,120,140,160,180,202,220,240,260,281,301,322,341,360,380,401,420,440,461,481,501,520,541,561,580,601,620,641,661,680,700,721,741,761,780,802,821,841,861,882,902,921,940,960,982,1000,1021,1040,1061,1080,1100],"xSR":741.5,"ySR":469.95,"xT1":424.9,"yT1":0,"xT2":1058.1,"yT2":0,"toosoon":0,"cond_shown":"equaldotsize","ratio_trial":750,"smaller_num":"12","larger_num":"16","correct_side":2,"subjID":"paulasofiacastellanoscastro","gender":"1","age":"11","school":"6"},{"start_time":1551795042512,"click_time":1551795043658,"finger_time":1551795043198,"fix_duration":294.72516858679353,"trial":62,"RT":686,"MT":460,"sideResp":1,"stimulus":"img/500/equaldotsize/L/8_Ratio_500_L_8_R_4.png","xmouse":[768,770,770,771,771,771,771,771,771,771,771,771,771,771,771,771,771,771,771,771,771,771,771,771,771,771,771,771,771,771,772,770,759,750,720,706,690,677,667,658,640,624,615,609,598,595,593,591,586,574,560,554,552,548,544,528,518,508],"ymouse":[531,532,532,532,532,532,532,532,532,532,532,532,532,532,532,532,532,532,532,532,532,532,532,532,532,532,532,532,532,532,528,526,509,490,416,377,344,318,303,290,265,242,226,210,193,189,187,183,178,165,153,148,146,143,140,122,109,98],"timestamp_mouse":[11,34,46,66,85,106,126,145,166,186,205,227,246,266,285,306,325,345,366,385,407,425,445,467,486,505,526,545,567,585,606,625,646,667,686,706,726,746,766,785,807,826,845,865,886,906,925,946,965,985,1005,1025,1046,1065,1085,1105,1126,1146],"xSR":741.5,"ySR":469.95,"xT1":424.9,"yT1":0,"xT2":1058.1,"yT2":0,"toosoon":0,"cond_shown":"equaldotsize","ratio_trial":500,"smaller_num":"4","larger_num":"8","correct_side":1,"subjID":"paulasofiacastellanoscastro","gender":"1","age":"11","school":"6"},{"start_time":1551795045908,"click_time":1551795047477,"finger_time":1551795046537,"fix_duration":1229.7020892728772,"trial":63,"RT":629,"MT":940,"sideResp":1,"stimulus":"img/900/equaldotsize/L/10_Ratio_900_L_20_R_18.png","xmouse":[792,792,792,792,792,792,792,792,792,792,792,792,792,792,792,792,792,792,792,792,792,792,793,794,797,802,804,806,807,810,816,818,820,821,823,826,831,841,857,874,926,941,949,953,954,954,954,954,954,954,954,950,941,927,893,871,849,825,781,703,673,646,623,594,560,511,497,490,489,489,486,484,484,484,484,484,487,492,497],"ymouse":[518,518,518,518,518,518,518,518,518,518,518,518,518,518,518,518,518,518,518,518,518,518,517,516,511,505,502,498,494,488,474,469,467,466,463,462,461,458,451,443,409,395,382,370,359,358,358,358,358,358,358,357,357,357,359,361,362,362,353,320,307,291,279,261,243,220,212,208,207,207,198,189,178,164,149,135,128,114,97],"timestamp_mouse":[19,39,50,69,89,110,131,149,170,190,209,229,250,270,290,309,331,350,381,390,410,431,450,470,490,510,531,550,571,589,610,629,651,670,690,709,730,751,770,790,809,830,851,870,891,909,930,951,970,989,1009,1030,1050,1071,1091,1110,1129,1150,1170,1191,1210,1230,1249,1269,1290,1309,1330,1350,1370,1390,1410,1430,1451,1471,1490,1509,1529,1549,1569],"xSR":741.5,"ySR":469.95,"xT1":424.9,"yT1":0,"xT2":1058.1,"yT2":0,"toosoon":0,"cond_shown":"equaldotsize","ratio_trial":900,"smaller_num":"18","larger_num":"20","correct_side":1,"subjID":"paulasofiacastellanoscastro","gender":"1","age":"11","school":"6"},{"start_time":1551795049152,"click_time":1551795050018,"finger_time":1551795049758,"fix_duration":792.7178252795993,"trial":64,"RT":606,"MT":260,"sideResp":2,"stimulus":"img/900/randomdotsizeEA/R/15_Ratio_900_L_9_R_10.png","xmouse":[806,806,806,806,806,806,806,806,806,806,806,806,806,806,806,806,806,806,806,806,806,806,806,806,806,806,808,812,826,833,842,852,864,896,909,924,953,976,1014,1024,1036,1044,1052,1062],"ymouse":[523,523,523,523,523,523,523,523,523,523,523,523,523,523,523,523,523,523,523,523,523,523,523,523,523,519,512,506,488,477,465,450,433,389,370,345,295,250,173,148,123,103,90,74],"timestamp_mouse":[10,33,46,65,86,106,127,146,165,185,207,227,246,265,286,306,326,346,366,385,406,425,447,466,485,506,527,546,565,586,606,626,646,666,687,705,725,746,765,786,806,825,845,866],"xSR":741.5,"ySR":469.95,"xT1":424.9,"yT1":0,"xT2":1058.1,"yT2":0,"toosoon":0,"cond_shown":"randomdotsizeEA","ratio_trial":900,"smaller_num":"9","larger_num":"10","correct_side":2,"subjID":"paulasofiacastellanoscastro","gender":"1","age":"11","school":"6"},{"start_time":1551795052331,"click_time":1551795053458,"finger_time":1551795053017,"fix_duration":1431.0775343264472,"trial":65,"RT":686,"MT":441,"sideResp":1,"stimulus":"img/900/randomdotsizeEA/L/1_Ratio_900_L_10_R_9.png","xmouse":[802,802,802,802,802,802,802,802,802,800,799,799,798,798,798,798,797,795,793,792,792,792,792,792,792,792,792,792,792,792,787,780,771,759,737,718,702,688,676,650,636,626,619,611,605,587,576,563,549,521,512,510,510,510,510,506,504],"ymouse":[505,505,505,505,505,505,505,505,505,505,505,505,505,505,505,505,505,505,505,506,506,506,506,506,506,506,506,506,506,506,505,501,495,485,453,419,392,366,339,286,264,250,237,226,218,195,181,168,152,124,118,116,116,116,116,106,94],"timestamp_mouse":[10,33,47,67,88,108,126,148,168,187,207,228,248,267,287,307,327,346,367,387,407,427,448,467,487,506,526,548,567,586,606,627,647,666,686,707,727,748,768,787,807,826,848,867,887,906,927,947,967,986,1006,1028,1047,1066,1087,1108,1127],"xSR":741.5,"ySR":469.95,"xT1":424.9,"yT1":0,"xT2":1058.1,"yT2":0,"toosoon":0,"cond_shown":"randomdotsizeEA","ratio_trial":900,"smaller_num":"9","larger_num":"10","correct_side":1,"subjID":"paulasofiacastellanoscastro","gender":"1","age":"11","school":"6"},{"start_time":1551795055959,"click_time":1551795058118,"finger_time":1551795056779,"fix_duration":1320.1465435944167,"trial":66,"RT":820,"MT":1339,"sideResp":2,"stimulus":"img/750/randomdotsizeEA/L/9_Ratio_750_L_4_R_3.png","xmouse":[788,788,788,788,788,788,788,788,788,788,788,788,788,788,788,788,788,788,788,788,788,788,788,788,788,788,788,788,786,785,784,783,783,783,783,783,783,785,802,817,833,849,864,906,918,929,936,941,950,951,952,952,952,952,952,952,952,952,952,952,949,936,923,900,894,891,888,886,886,886,886,886,886,886,886,886,886,886,886,886,886,886,886,889,891,895,896,896,896,896,896,896,896,896,896,898,900,907,943,971,995,1019,1031,1044,1051,1058,1067,1076],"ymouse":[517,517,517,517,517,517,517,517,517,517,517,517,517,517,517,517,517,517,517,517,517,517,517,517,517,517,517,517,515,513,512,511,510,510,510,508,506,502,488,477,464,448,426,330,284,248,223,207,185,181,180,179,179,179,179,179,179,179,179,179,179,183,186,193,195,197,197,199,199,199,199,199,199,199,199,199,199,199,199,199,199,199,199,200,201,201,201,201,201,201,201,201,201,201,201,201,201,201,191,180,169,154,145,132,124,115,104,95],"timestamp_mouse":[18,42,59,78,99,119,138,158,178,199,220,238,258,280,298,318,340,358,378,400,419,439,459,478,499,520,539,559,578,600,618,638,660,679,699,719,740,759,779,798,820,838,859,878,899,920,939,958,978,998,1020,1038,1059,1079,1099,1119,1138,1160,1179,1199,1218,1239,1259,1280,1298,1318,1338,1359,1379,1398,1418,1440,1459,1480,1498,1520,1538,1559,1580,1599,1618,1638,1659,1679,1699,1720,1739,1760,1780,1799,1819,1838,1859,1878,1899,1918,1938,1959,1979,1999,2019,2039,2059,2079,2099,2120,2140,2159],"xSR":741.5,"ySR":469.95,"xT1":424.9,"yT1":0,"xT2":1058.1,"yT2":0,"toosoon":0,"cond_shown":"randomdotsizeEA","ratio_trial":750,"smaller_num":"3","larger_num":"4","correct_side":1,"subjID":"paulasofiacastellanoscastro","gender":"1","age":"11","school":"6"},{"start_time":1551795059602,"click_time":1551795060798,"finger_time":1551795060277,"fix_duration":482.50799381931563,"trial":67,"RT":675,"MT":521,"sideResp":2,"stimulus":"img/250/equaldotanddens/R/11_Ratio_250_L_3_R_12.png","xmouse":[818,815,804,798,796,796,796,796,796,796,796,796,796,796,796,796,796,796,796,796,796,796,796,796,796,796,796,795,795,800,813,837,841,843,843,844,848,860,864,877,890,901,922,929,932,937,944,962,974,980,985,992,998,1005,1013,1022,1040,1047,1058,1066],"ymouse":[527,527,527,527,527,527,527,527,527,527,527,527,527,527,527,527,527,527,527,527,527,527,527,527,527,527,527,527,526,520,508,483,475,469,462,455,429,404,398,379,363,349,329,322,318,311,298,262,232,215,200,174,162,152,142,132,115,107,96,89],"timestamp_mouse":[15,35,56,76,96,115,136,156,175,195,216,236,257,275,296,316,336,355,376,396,417,435,457,476,495,517,535,556,576,595,616,636,655,675,697,716,736,755,775,795,816,836,855,876,896,916,936,957,976,997,1017,1036,1056,1076,1096,1116,1136,1156,1176,1196],"xSR":741.5,"ySR":469.95,"xT1":424.9,"yT1":0,"xT2":1058.1,"yT2":0,"toosoon":0,"cond_shown":"equaldotanddens","ratio_trial":250,"smaller_num":"3","larger_num":"12","correct_side":2,"subjID":"paulasofiacastellanoscastro","gender":"1","age":"11","school":"6"},{"start_time":1551795061830,"click_time":1551795062757,"finger_time":1551795062437,"fix_duration":250,"trial":68,"RT":607,"MT":320,"sideResp":1,"stimulus":"img/900/equaldotanddens/L/4_Ratio_900_L_20_R_18.png","xmouse":[771,771,771,777,778,778,779,779,779,779,779,779,779,779,779,779,785,790,793,795,795,795,795,795,795,792,783,774,767,758,748,723,709,690,670,641,631,627,623,618,605,590,574,556,538,489,463],"ymouse":[533,533,533,533,533,533,533,533,533,533,533,533,533,533,533,533,532,531,530,530,530,530,530,530,530,526,519,511,5