[{"start_time":1551793947354,"click_time":1551793949608,"finger_time":1551793949187,"fix_duration":961.8542632806405,"trial":0,"RT":1833,"MT":421,"sideResp":2,"stimulus":[],"xmouse":[781,781,781,781,781,781,781,781,781,781,781,781,781,781,781,781,781,781,781,781,781,781,781,781,781,781,781,781,781,781,781,781,780,780,780,779,779,779,779,779,779,779,779,779,776,774,770,769,769,769,769,769,769,769,769,769,769,769,769,769,769,769,769,769,769,769,769,769,769,769,769,769,771,771,771,771,771,771,772,772,772,773,775,776,777,778,780,781,782,786,800,865,898,928,948,961,988,999,1014,1029,1045,1060,1064,1066,1068,1070,1072,1074,1074,1076,1076,1079,1083],"ymouse":[550,550,550,550,550,550,550,550,550,550,550,550,550,550,550,550,550,550,550,550,550,550,550,550,550,550,550,550,550,550,550,550,550,550,550,550,550,550,550,550,550,550,550,550,548,546,541,540,540,540,540,540,540,540,540,540,540,540,540,540,540,540,540,540,540,540,540,540,540,540,539,539,538,538,538,538,538,538,538,538,538,538,538,538,538,537,531,528,523,517,495,431,408,390,378,364,317,298,278,259,239,213,200,187,172,159,136,127,121,116,111,103,98],"timestamp_mouse":[13,41,54,73,93,112,134,153,173,194,213,234,254,273,293,312,333,353,373,393,413,434,453,472,493,513,534,553,573,593,614,633,654,673,693,713,732,754,773,794,813,833,853,872,893,913,933,954,974,994,1014,1034,1053,1073,1093,1112,1133,1153,1173,1193,1213,1233,1253,1273,1292,1314,1333,1353,1373,1393,1414,1434,1453,1472,1493,1512,1533,1552,1573,1593,1613,1633,1653,1673,1693,1713,1732,1753,1773,1794,1813,1833,1853,1873,1893,1914,1933,1953,1973,1993,2014,2034,2053,2073,2093,2112,2133,2154,2172,2193,2213,2233,2253],"xSR":741.5,"ySR":501.8,"xT1":424.9,"yT1":0,"xT2":1058.1,"yT2":0,"toosoon":0,"cond_shown":"Congruent","ratio_trial":200,"L_num":3,"L_den":10,"R_num":14,"R_den":28,"correct_side":2,"subjID":"paulasofiacastellanoscastro26","gender":"6","age":"11","school":"No_school","test":{"fix_dur":[250,1500],"timestim":1000,"targets_dim":[100,100],"targets_relative_coord":[0.3,0.7],"size_stim":[880,420],"start_dim":[100,100],"size_start":[300,300],"size_fix":60,"samplingrate":20,"img_types":["Congruent","Incongruent"],"ratios":[100,200,300],"rep_conds":19,"nTrials":120,"trials_to_rest":500,"Trials_order":[62,55,23,31,56,113,92,5,16,8,42,109,72,53,88,77,119,86,4,17,70,112,100,36,58,54,87,94,82,7,9,38,35,12,37,91,49,6,81,63,98,26,83,14,18,61,79,65,33,116,27,30,93,3,24,51,47,43,19,64,46,50,59,28,99,25,111,110,103,13,95,74,76,41,15,102,108,84,67,104,89,69,106,105,1,10,68,57,2,22,32,21,118,39,40,34,115,11,78,48,29,0,71,80,85,52,75,90,117,60,97,20,66,96,101,107,45,44,73,114],"cond_shown":["Congruent","Incongruent","Incongruent","Incongruent","Congruent","Incongruent","Congruent","Incongruent","Congruent","Congruent","Congruent","Incongruent","Congruent","Incongruent","Congruent","Incongruent","Incongruent","Congruent","Congruent","Incongruent","Congruent","Congruent","Congruent","Congruent","Congruent","Congruent","Incongruent","Congruent","Congruent","Incongruent","Incongruent","Congruent","Incongruent","Congruent","Incongruent","Incongruent","Incongruent","Congruent","Incongruent","Incongruent","Congruent","Congruent","Incongruent","Congruent","Congruent","Incongruent","Incongruent","Incongruent","Incongruent","Congruent","Incongruent","Congruent","Incongruent","Incongruent","Congruent","Incongruent","Incongruent","Incongruent","Incongruent","Congruent","Congruent","Congruent","Incongruent","Congruent","Incongruent","Incongruent","Incongruent","Congruent","Incongruent","Incongruent","Incongruent","Congruent","Congruent","Incongruent","Incongruent","Congruent","Congruent","Congruent","Incongruent","Congruent","Incongruent","Incongruent","Congruent","Incongruent","Incongruent","Congruent","Congruent","Incongruent","Congruent","Congruent","Congruent","Incongruent","Congruent","Incongruent","Congruent","Congruent","Incongruent","Incongruent","Congruent","Congruent","Incongruent","Congruent","Incongruent","Congruent","Incongruent","Congruent","Incongruent","Congruent","Incongruent","Congruent","Incongruent","Congruent","Congruent","Congruent","Incongruent","Incongruent","Incongruent","Congruent","Incongruent","Congruent"],"ratio_trial":[200,100,300,100,200,300,200,300,300,200,100,100,100,300,300,300,300,200,300,300,300,300,300,100,300,100,200,300,300,100,200,200,300,100,100,100,100,100,200,200,200,200,300,200,100,100,100,300,200,200,200,100,200,200,100,200,300,100,100,300,300,200,300,300,200,100,200,200,100,100,300,200,300,300,200,100,100,100,100,200,300,200,300,200,100,300,200,200,200,300,200,200,300,200,300,300,100,300,100,100,300,100,300,200,100,300,200,100,200,100,100,200,100,100,300,300,200,200,100,100],"left_num":[3,13,8,12,3,13,7,13,20,3,4,8,6,3,3,8,13,3,4,4,1,24,2,10,7,10,3,3,5,12,7,5,4,1,8,10,9,11,7,3,1,7,7,14,11,9,4,13,14,4,4,2,9,6,2,3,7,2,3,20,1,9,13,1,7,6,14,7,3,4,4,12,11,4,7,11,6,8,13,8,4,6,12,4,10,1,14,4,3,8,13,7,12,4,1,11,12,4,1,2,4,7,13,3,9,4,1,15,1,9,1,16,9,1,4,7,7,9,1,6],"right_num":[14,12,9,2,14,12,2,12,9,11,15,6,5,4,2,9,12,11,13,2,19,2,12,3,20,3,11,11,6,9,12,14,2,3,6,9,6,4,12,1,21,2,8,6,4,14,8,12,12,3,1,6,8,3,11,1,8,6,11,14,3,13,12,7,12,3,6,2,7,8,8,6,2,8,8,6,5,2,6,2,2,3,2,6,8,6,6,14,14,10,14,4,2,14,8,2,9,6,3,11,2,9,12,11,20,2,3,13,2,8,8,12,8,3,2,8,6,13,8,5],"left_den":[10,26,10,30,6,26,21,26,25,10,10,16,20,6,6,10,26,10,20,20,3,30,10,25,14,25,4,12,25,24,10,10,20,2,16,25,18,22,10,10,2,21,10,28,22,15,8,26,30,8,30,5,15,20,5,10,10,4,5,25,5,30,26,20,10,12,30,21,9,8,5,20,22,5,10,22,20,16,26,15,20,20,24,5,25,5,28,6,6,15,26,15,24,6,30,22,24,5,2,5,20,14,26,10,10,5,2,25,3,15,2,20,15,2,20,10,15,30,2,20],"right_den":[28,20,18,4,20,15,15,15,18,22,30,10,25,20,10,18,15,22,26,4,30,4,24,10,25,10,20,20,12,15,24,20,4,5,10,18,10,10,24,2,30,15,20,20,10,28,20,15,18,10,3,12,10,6,22,2,20,15,22,28,6,26,15,20,24,5,9,15,30,20,16,15,10,16,16,15,25,5,10,6,4,6,10,10,16,12,20,30,20,12,20,6,10,30,24,10,15,12,5,22,4,15,15,22,25,4,10,26,15,16,20,20,16,5,4,20,9,26,20,25],"correct_side":[2,2,1,2,2,2,1,2,1,2,2,2,1,1,1,1,2,2,2,2,2,1,2,1,2,1,1,2,2,2,1,2,2,2,2,2,2,1,1,2,2,1,1,1,1,1,1,2,2,1,2,2,2,2,2,2,1,1,1,1,2,2,2,2,1,2,2,1,1,1,1,1,1,1,1,1,1,1,2,1,2,2,1,1,2,2,1,1,2,2,2,2,1,1,2,1,2,1,2,2,2,2,2,2,1,1,1,1,1,1,1,1,1,2,2,1,2,2,1,1],"img_shown":["img2/200/Congruent/R/C_Dist_200_LN_3_LD_10_RN_14_RD_28_1.png","img2/100/Incongruent/R/I_Dist_100_LN_13_LD_26_RN_12_RD_20_1.png","img2/300/Incongruent/L/I_Dist_300_LN_8_LD_10_RN_9_RD_18_0.png","img2/100/Incongruent/R/I_Dist_100_LN_12_LD_30_RN_2_RD_4_1.png","img2/200/Congruent/R/C_Dist_200_LN_3_LD_6_RN_14_RD_20_1.png","img2/300/Incongruent/R/I_Dist_300_LN_13_LD_26_RN_12_RD_15_1.png","img2/200/Congruent/L/C_Dist_200_LN_7_LD_21_RN_2_RD_15_0.png","img2/300/Incongruent/R/I_Dist_300_LN_13_LD_26_RN_12_RD_15_1.png","img2/300/Congruent/L/C_Dist_300_LN_20_LD_25_RN_9_RD_18_0.png","img2/200/Congruent/R/C_Dist_200_LN_3_LD_10_RN_11_RD_22_1.png","img2/100/Congruent/R/C_Dist_100_LN_4_LD_10_RN_15_RD_30_1.png","img2/100/Incongruent/R/I_Dist_100_LN_8_LD_16_RN_6_RD_10_1.png","img2/100/Congruent/L/C_Dist_100_LN_6_LD_20_RN_5_RD_25_0.png","img2/300/Incongruent/L/I_Dist_300_LN_3_LD_6_RN_4_RD_20_0.png","img2/300/Congruent/L/C_Dist_300_LN_3_LD_6_RN_2_RD_10_0.png","img2/300/Incongruent/L/I_Dist_300_LN_8_LD_10_RN_9_RD_18_0.png","img2/300/Incongruent/R/I_Dist_300_LN_13_LD_26_RN_12_RD_15_1.png","img2/200/Congruent/R/C_Dist_200_LN_3_LD_10_RN_11_RD_22_1.png","img2/300/Congruent/R/C_Dist_300_LN_4_LD_20_RN_13_RD_26_1.png","img2/300/Incongruent/R/I_Dist_300_LN_4_LD_20_RN_2_RD_4_1.png","img2/300/Congruent/R/C_Dist_300_LN_1_LD_3_RN_19_RD_30_1.png","img2/300/Congruent/L/C_Dist_300_LN_24_LD_30_RN_2_RD_4_0.png","img2/300/Congruent/R/C_Dist_300_LN_2_LD_10_RN_12_RD_24_1.png","img2/100/Congruent/L/C_Dist_100_LN_10_LD_25_RN_3_RD_10_0.png","img2/300/Congruent/R/C_Dist_300_LN_7_LD_14_RN_20_RD_25_1.png","img2/100/Congruent/L/C_Dist_100_LN_10_LD_25_RN_3_RD_10_0.png","img2/200/Incongruent/L/I_Dist_200_LN_3_LD_4_RN_11_RD_20_0.png","img2/300/Congruent/R/C_Dist_300_LN_3_LD_12_RN_11_RD_20_1.png","img2/300/Congruent/R/C_Dist_300_LN_5_LD_25_RN_6_RD_12_1.png","img2/100/Incongruent/R/I_Dist_100_LN_12_LD_24_RN_9_RD_15_1.png","img2/200/Incongruent/L/I_Dist_200_LN_7_LD_10_RN_12_RD_24_0.png","img2/200/Congruent/R/C_Dist_200_LN_5_LD_10_RN_14_RD_20_1.png","img2/300/Incongruent/R/I_Dist_300_LN_4_LD_20_RN_2_RD_4_1.png","img2/100/Congruent/R/C_Dist_100_LN_1_LD_2_RN_3_RD_5_1.png","img2/100/Incongruent/R/I_Dist_100_LN_8_LD_16_RN_6_RD_10_1.png","img2/100/Incongruent/R/I_Dist_100_LN_10_LD_25_RN_9_RD_18_1.png","img2/100/Incongruent/R/I_Dist_100_LN_9_LD_18_RN_6_RD_10_1.png","img2/100/Congruent/L/C_Dist_100_LN_11_LD_22_RN_4_RD_10_0.png","img2/200/Incongruent/L/I_Dist_200_LN_7_LD_10_RN_12_RD_24_0.png","img2/200/Incongruent/R/I_Dist_200_LN_3_LD_10_RN_1_RD_2_1.png","img2/200/Congruent/R/C_Dist_200_LN_1_LD_2_RN_21_RD_30_1.png","img2/200/Congruent/L/C_Dist_200_LN_7_LD_21_RN_2_RD_15_0.png","img2/300/Incongruent/L/I_Dist_300_LN_7_LD_10_RN_8_RD_20_0.png","img2/200/Congruent/L/C_Dist_200_LN_14_LD_28_RN_6_RD_20_0.png","img2/100/Congruent/L/C_Dist_100_LN_11_LD_22_RN_4_RD_10_0.png","img2/100/Incongruent/L/I_Dist_100_LN_9_LD_15_RN_14_RD_28_0.png","img2/100/Incongruent/L/I_Dist_100_LN_4_LD_8_RN_8_RD_20_0.png","img2/300/Incongruent/R/I_Dist_300_LN_13_LD_26_RN_12_RD_15_1.png","img2/200/Incongruent/R/I_Dist_200_LN_14_LD_30_RN_12_RD_18_1.png","img2/200/Congruent/L/C_Dist_200_LN_4_LD_8_RN_3_RD_10_0.png","img2/200/Incongruent/R/I_Dist_200_LN_4_LD_30_RN_1_RD_3_1.png","img2/100/Congruent/R/C_Dist_100_LN_2_LD_5_RN_6_RD_12_1.png","img2/200/Incongruent/R/I_Dist_200_LN_9_LD_15_RN_8_RD_10_1.png","img2/200/Incongruent/R/I_Dist_200_LN_6_LD_20_RN_3_RD_6_1.png","img2/100/Congruent/R/C_Dist_100_LN_2_LD_5_RN_11_RD_22_1.png","img2/200/Incongruent/R/I_Dist_200_LN_3_LD_10_RN_1_RD_2_1.png","img2/300/Incongruent/L/I_Dist_300_LN_7_LD_10_RN_8_RD_20_0.png","img2/100/Incongruent/L/I_Dist_100_LN_2_LD_4_RN_6_RD_15_0.png","img2/100/Incongruent/L/I_Dist_100_LN_3_LD_5_RN_11_RD_22_0.png","img2/300/Congruent/L/C_Dist_300_LN_20_LD_25_RN_14_RD_28_0.png","img2/300/Congruent/R/C_Dist_300_LN_1_LD_5_RN_3_RD_6_1.png","img2/200/Congruent/R/C_Dist_200_LN_9_LD_30_RN_13_RD_26_1.png","img2/300/Incongruent/R/I_Dist_300_LN_13_LD_26_RN_12_RD_15_1.png","img2/300/Congruent/R/C_Dist_300_LN_1_LD_20_RN_7_RD_20_1.png","img2/200/Incongruent/L/I_Dist_200_LN_7_LD_10_RN_12_RD_24_0.png","img2/100/Incongruent/R/I_Dist_100_LN_6_LD_12_RN_3_RD_5_1.png","img2/200/Incongruent/R/I_Dist_200_LN_14_LD_30_RN_6_RD_9_1.png","img2/200/Congruent/L/C_Dist_200_LN_7_LD_21_RN_2_RD_15_0.png","img2/100/Incongruent/L/I_Dist_100_LN_3_LD_9_RN_7_RD_30_0.png","img2/100/Incongruent/L/I_Dist_100_LN_4_LD_8_RN_8_RD_20_0.png","img2/300/Incongruent/L/I_Dist_300_LN_4_LD_5_RN_8_RD_16_0.png","img2/200/Congruent/L/C_Dist_200_LN_12_LD_20_RN_6_RD_15_0.png","img2/300/Congruent/L/C_Dist_300_LN_11_LD_22_RN_2_RD_10_0.png","img2/300/Incongruent/L/I_Dist_300_LN_4_LD_5_RN_8_RD_16_0.png","img2/200/Incongruent/L/I_Dist_200_LN_7_LD_10_RN_8_RD_16_0.png","img2/100/Congruent/L/C_Dist_100_LN_11_LD_22_RN_6_RD_15_0.png","img2/100/Congruent/L/C_Dist_100_LN_6_LD_20_RN_5_RD_25_0.png","img2/100/Congruent/L/C_Dist_100_LN_8_LD_16_RN_2_RD_5_0.png","img2/100/Incongruent/R/I_Dist_100_LN_13_LD_26_RN_6_RD_10_1.png","img2/200/Congruent/L/C_Dist_200_LN_8_LD_15_RN_2_RD_6_0.png","img2/300/Incongruent/R/I_Dist_300_LN_4_LD_20_RN_2_RD_4_1.png","img2/200/Incongruent/R/I_Dist_200_LN_6_LD_20_RN_3_RD_6_1.png","img2/300/Congruent/L/C_Dist_300_LN_12_LD_24_RN_2_RD_10_0.png","img2/200/Incongruent/L/I_Dist_200_LN_4_LD_5_RN_6_RD_10_0.png","img2/100/Incongruent/R/I_Dist_100_LN_10_LD_25_RN_8_RD_16_1.png","img2/300/Congruent/R/C_Dist_300_LN_1_LD_5_RN_6_RD_12_1.png","img2/200/Congruent/L/C_Dist_200_LN_14_LD_28_RN_6_RD_20_0.png","img2/200/Incongruent/L/I_Dist_200_LN_4_LD_6_RN_14_RD_30_0.png","img2/200/Congruent/R/C_Dist_200_LN_3_LD_6_RN_14_RD_20_1.png","img2/300/Congruent/R/C_Dist_300_LN_8_LD_15_RN_10_RD_12_1.png","img2/200/Congruent/R/C_Dist_200_LN_13_LD_26_RN_14_RD_20_1.png","img2/200/Incongruent/R/I_Dist_200_LN_7_LD_15_RN_4_RD_6_1.png","img2/300/Congruent/L/C_Dist_300_LN_12_LD_24_RN_2_RD_10_0.png","img2/200/Incongruent/L/I_Dist_200_LN_4_LD_6_RN_14_RD_30_0.png","img2/300/Congruent/R/C_Dist_300_LN_1_LD_30_RN_8_RD_24_1.png","img2/300/Congruent/L/C_Dist_300_LN_11_LD_22_RN_2_RD_10_0.png","img2/100/Incongruent/R/I_Dist_100_LN_12_LD_24_RN_9_RD_15_1.png","img2/300/Incongruent/L/I_Dist_300_LN_4_LD_5_RN_6_RD_12_0.png","img2/100/Congruent/R/C_Dist_100_LN_1_LD_2_RN_3_RD_5_1.png","img2/100/Congruent/R/C_Dist_100_LN_2_LD_5_RN_11_RD_22_1.png","img2/300/Incongruent/R/I_Dist_300_LN_4_LD_20_RN_2_RD_4_1.png","img2/100/Congruent/R/C_Dist_100_LN_7_LD_14_RN_9_RD_15_1.png","img2/300/Incongruent/R/I_Dist_300_LN_13_LD_26_RN_12_RD_15_1.png","img2/200/Congruent/R/C_Dist_200_LN_3_LD_10_RN_11_RD_22_1.png","img2/100/Incongruent/L/I_Dist_100_LN_9_LD_10_RN_20_RD_25_0.png","img2/300/Congruent/L/C_Dist_300_LN_4_LD_5_RN_2_RD_4_0.png","img2/200/Incongruent/L/I_Dist_200_LN_1_LD_2_RN_3_RD_10_0.png","img2/100/Congruent/L/C_Dist_100_LN_15_LD_25_RN_13_RD_26_0.png","img2/200/Incongruent/L/I_Dist_200_LN_1_LD_3_RN_2_RD_15_0.png","img2/100/Congruent/L/C_Dist_100_LN_9_LD_15_RN_8_RD_16_0.png","img2/100/Incongruent/L/I_Dist_100_LN_1_LD_2_RN_8_RD_20_0.png","img2/200/Congruent/L/C_Dist_200_LN_16_LD_20_RN_12_RD_20_0.png","img2/100/Congruent/L/C_Dist_100_LN_9_LD_15_RN_8_RD_16_0.png","img2/100/Congruent/R/C_Dist_100_LN_1_LD_2_RN_3_RD_5_1.png","img2/300/Incongruent/R/I_Dist_300_LN_4_LD_20_RN_2_RD_4_1.png","img2/300/Incongruent/L/I_Dist_300_LN_7_LD_10_RN_8_RD_20_0.png","img2/200/Incongruent/R/I_Dist_200_LN_7_LD_15_RN_6_RD_9_1.png","img2/200/Congruent/R/C_Dist_200_LN_9_LD_30_RN_13_RD_26_1.png","img2/100/Incongruent/L/I_Dist_100_LN_1_LD_2_RN_8_RD_20_0.png","img2/100/Congruent/L/C_Dist_100_LN_6_LD_20_RN_5_RD_25_0.png"],"dist100_C":[["C_Dist_100_LN_10_LD_25_RN_3_RD_10_0.png","C_Dist_100_LN_11_LD_22_RN_4_RD_10_0.png","C_Dist_100_LN_11_LD_22_RN_6_RD_15_0.png","C_Dist_100_LN_15_LD_25_RN_13_RD_26_0.png","C_Dist_100_LN_3_LD_6_RN_2_RD_5_0.png","C_Dist_100_LN_6_LD_20_RN_5_RD_25_0.png","C_Dist_100_LN_8_LD_16_RN_2_RD_5_0.png","C_Dist_100_LN_9_LD_15_RN_8_RD_16_0.png"],["C_Dist_100_LN_1_LD_2_RN_18_RD_30_1.png","C_Dist_100_LN_1_LD_2_RN_3_RD_5_1.png","C_Dist_100_LN_12_LD_30_RN_13_RD_26_1.png","C_Dist_100_LN_2_LD_5_RN_11_RD_22_1.png","C_Dist_100_LN_2_LD_5_RN_6_RD_12_1.png","C_Dist_100_LN_3_LD_20_RN_4_RD_16_1.png","C_Dist_100_LN_4_LD_10_RN_15_RD_30_1.png","C_Dist_100_LN_4_LD_8_RN_6_RD_10_1.png","C_Dist_100_LN_6_LD_12_RN_15_RD_25_1.png","C_Dist_100_LN_7_LD_14_RN_15_RD_25_1.png","C_Dist_100_LN_7_LD_14_RN_9_RD_15_1.png"]],"dist100_I":[["I_Dist_100_LN_1_LD_2_RN_8_RD_20_0.png","I_Dist_100_LN_2_LD_4_RN_6_RD_15_0.png","I_Dist_100_LN_2_LD_4_RN_8_RD_20_0.png","I_Dist_100_LN_3_LD_5_RN_11_RD_22_0.png","I_Dist_100_LN_3_LD_5_RN_8_RD_16_0.png","I_Dist_100_LN_3_LD_6_RN_4_RD_10_0.png","I_Dist_100_LN_3_LD_9_RN_7_RD_30_0.png","I_Dist_100_LN_4_LD_8_RN_8_RD_20_0.png","I_Dist_100_LN_6_LD_10_RN_11_RD_22_0.png","I_Dist_100_LN_6_LD_10_RN_13_RD_26_0.png","I_Dist_100_LN_6_LD_10_RN_7_RD_14_0.png","I_Dist_100_LN_9_LD_10_RN_20_RD_25_0.png","I_Dist_100_LN_9_LD_15_RN_13_RD_26_0.png","I_Dist_100_LN_9_LD_15_RN_14_RD_28_0.png"],["I_Dist_100_LN_10_LD_25_RN_8_RD_16_1.png","I_Dist_100_LN_10_LD_25_RN_9_RD_18_1.png","I_Dist_100_LN_11_LD_22_RN_9_RD_15_1.png","I_Dist_100_LN_12_LD_24_RN_9_RD_15_1.png","I_Dist_100_LN_12_LD_30_RN_2_RD_4_1.png","I_Dist_100_LN_13_LD_26_RN_12_RD_20_1.png","I_Dist_100_LN_13_LD_26_RN_6_RD_10_1.png","I_Dist_100_LN_17_LD_30_RN_10_RD_15_1.png","I_Dist_100_LN_6_LD_12_RN_3_RD_5_1.png","I_Dist_100_LN_8_LD_16_RN_6_RD_10_1.png","I_Dist_100_LN_8_LD_20_RN_1_RD_2_1.png","I_Dist_100_LN_9_LD_18_RN_6_RD_10_1.png"]],"dist100_S":[["E_Dist_100_LN_2_LD_12_RN_2_RD_30_0.png","E_Dist_100_LN_6_LD_10_RN_6_RD_12_0.png"],["E_Dist_100_LN_6_LD_12_RN_6_RD_10_1.png"]],"dist200_C":[["C_Dist_200_LN_11_LD_22_RN_3_RD_10_0.png","C_Dist_200_LN_12_LD_15_RN_6_RD_10_0.png","C_Dist_200_LN_12_LD_20_RN_6_RD_15_0.png","C_Dist_200_LN_14_LD_28_RN_6_RD_20_0.png","C_Dist_200_LN_15_LD_25_RN_4_RD_10_0.png","C_Dist_200_LN_16_LD_20_RN_12_RD_20_0.png","C_Dist_200_LN_16_LD_30_RN_9_RD_27_0.png","C_Dist_200_LN_20_LD_25_RN_9_RD_15_0.png","C_Dist_200_LN_21_LD_30_RN_2_RD_4_0.png","C_Dist_200_LN_4_LD_10_RN_3_RD_15_0.png","C_Dist_200_LN_4_LD_8_RN_3_RD_10_0.png","C_Dist_200_LN_6_LD_15_RN_3_RD_15_0.png","C_Dist_200_LN_7_LD_21_RN_2_RD_15_0.png","C_Dist_200_LN_8_LD_15_RN_2_RD_6_0.png","C_Dist_200_LN_8_LD_15_RN_3_RD_9_0.png","C_Dist_200_LN_8_LD_15_RN_7_RD_21_0.png","C_Dist_200_LN_9_LD_20_RN_4_RD_16_0.png"],["C_Dist_200_LN_1_LD_2_RN_21_RD_30_1.png","C_Dist_200_LN_13_LD_26_RN_14_RD_20_1.png","C_Dist_200_LN_3_LD_10_RN_11_RD_22_1.png","C_Dist_200_LN_3_LD_10_RN_14_RD_28_1.png","C_Dist_200_LN_3_LD_10_RN_7_RD_14_1.png","C_Dist_200_LN_3_LD_12_RN_9_RD_20_1.png","C_Dist_200_LN_3_LD_6_RN_14_RD_20_1.png","C_Dist_200_LN_5_LD_10_RN_14_RD_20_1.png","C_Dist_200_LN_6_LD_12_RN_7_RD_10_1.png","C_Dist_200_LN_6_LD_20_RN_11_RD_22_1.png","C_Dist_200_LN_7_LD_15_RN_18_RD_27_1.png","C_Dist_200_LN_9_LD_30_RN_13_RD_26_1.png"]],"dist200_I":[["I_Dist_200_LN_1_LD_2_RN_3_RD_10_0.png","I_Dist_200_LN_1_LD_3_RN_2_RD_15_0.png","I_Dist_200_LN_3_LD_4_RN_11_RD_20_0.png","I_Dist_200_LN_4_LD_5_RN_6_RD_10_0.png","I_Dist_200_LN_4_LD_6_RN_14_RD_30_0.png","I_Dist_200_LN_7_LD_10_RN_12_RD_24_0.png","I_Dist_200_LN_7_LD_10_RN_14_RD_28_0.png","I_Dist_200_LN_7_LD_10_RN_8_RD_16_0.png"],["I_Dist_200_LN_11_LD_20_RN_3_RD_4_1.png","I_Dist_200_LN_14_LD_30_RN_12_RD_18_1.png","I_Dist_200_LN_14_LD_30_RN_6_RD_9_1.png","I_Dist_200_LN_3_LD_10_RN_1_RD_2_1.png","I_Dist_200_LN_4_LD_30_RN_1_RD_3_1.png","I_Dist_200_LN_6_LD_20_RN_3_RD_6_1.png","I_Dist_200_LN_7_LD_15_RN_4_RD_6_1.png","I_Dist_200_LN_7_LD_15_RN_6_RD_9_1.png","I_Dist_200_LN_9_LD_15_RN_8_RD_10_1.png"]],"dist200_S":[["E_Dist_200_LN_3_LD_6_RN_3_RD_10_0.png"],["E_Dist_200_LN_3_LD_10_RN_3_RD_6_1.png"]],"dist300_C":[["C_Dist_300_LN_11_LD_22_RN_1_RD_5_0.png","C_Dist_300_LN_11_LD_22_RN_2_RD_10_0.png","C_Dist_300_LN_11_LD_22_RN_4_RD_20_0.png","C_Dist_300_LN_12_LD_24_RN_2_RD_10_0.png","C_Dist_300_LN_18_LD_20_RN_9_RD_15_0.png","C_Dist_300_LN_20_LD_25_RN_13_RD_26_0.png","C_Dist_300_LN_20_LD_25_RN_14_RD_28_0.png","C_Dist_300_LN_20_LD_25_RN_5_RD_10_0.png","C_Dist_300_LN_20_LD_25_RN_8_RD_16_0.png","C_Dist_300_LN_20_LD_25_RN_9_RD_18_0.png","C_Dist_300_LN_24_LD_30_RN_2_RD_4_0.png","C_Dist_300_LN_24_LD_30_RN_8_RD_16_0.png","C_Dist_300_LN_3_LD_6_RN_2_RD_10_0.png","C_Dist_300_LN_4_LD_10_RN_1_RD_10_0.png","C_Dist_300_LN_4_LD_5_RN_2_RD_4_0.png","C_Dist_300_LN_8_LD_16_RN_1_RD_5_0.png","C_Dist_300_LN_9_LD_10_RN_3_RD_5_0.png"],["C_Dist_300_LN_1_LD_20_RN_7_RD_20_1.png","C_Dist_300_LN_1_LD_3_RN_19_RD_30_1.png","C_Dist_300_LN_1_LD_30_RN_8_RD_24_1.png","C_Dist_300_LN_1_LD_5_RN_11_RD_22_1.png","C_Dist_300_LN_1_LD_5_RN_3_RD_6_1.png","C_Dist_300_LN_1_LD_5_RN_6_RD_12_1.png","C_Dist_300_LN_2_LD_10_RN_12_RD_24_1.png","C_Dist_300_LN_2_LD_20_RN_10_RD_25_1.png","C_Dist_300_LN_3_LD_12_RN_11_RD_20_1.png","C_Dist_300_LN_3_LD_6_RN_4_RD_5_1.png","C_Dist_300_LN_4_LD_20_RN_13_RD_26_1.png","C_Dist_300_LN_5_LD_25_RN_6_RD_12_1.png","C_Dist_300_LN_5_LD_25_RN_7_RD_14_1.png","C_Dist_300_LN_7_LD_14_RN_20_RD_25_1.png","C_Dist_300_LN_8_LD_15_RN_10_RD_12_1.png"]],"dist300_I":[["I_Dist_300_LN_1_LD_2_RN_2_RD_10_0.png","I_Dist_300_LN_1_LD_2_RN_3_RD_15_0.png","I_Dist_300_LN_2_LD_4_RN_6_RD_30_0.png","I_Dist_300_LN_3_LD_6_RN_4_RD_20_0.png","I_Dist_300_LN_4_LD_5_RN_6_RD_12_0.png","I_Dist_300_LN_4_LD_5_RN_8_RD_16_0.png","I_Dist_300_LN_7_LD_10_RN_8_RD_20_0.png","I_Dist_300_LN_8_LD_10_RN_14_RD_28_0.png","I_Dist_300_LN_8_LD_10_RN_9_RD_18_0.png"],["I_Dist_300_LN_13_LD_26_RN_12_RD_15_1.png","I_Dist_300_LN_4_LD_20_RN_2_RD_4_1.png"]],"dist300_S":[["E_Dist_300_LN_9_LD_12_RN_9_RD_20_0.png"],["E_Dist_300_LN_18_LD_30_RN_18_RD_20_1.png","E_Dist_300_LN_3_LD_10_RN_3_RD_5_1.png","E_Dist_300_LN_9_LD_20_RN_9_RD_12_1.png"]],"dist500_C":[["C_Dist_500_LN_10_LD_13_RN_7_RD_26_0.png","C_Dist_500_LN_10_LD_15_RN_4_RD_24_0.png","C_Dist_500_LN_12_LD_16_RN_3_RD_12_0.png","C_Dist_500_LN_12_LD_18_RN_4_RD_24_0.png","C_Dist_500_LN_15_LD_18_RN_5_RD_15_0.png","C_Dist_500_LN_15_LD_20_RN_1_RD_4_0.png","C_Dist_500_LN_18_LD_27_RN_1_RD_6_0.png","C_Dist_500_LN_20_LD_24_RN_1_RD_3_0.png","C_Dist_500_LN_20_LD_24_RN_3_RD_9_0.png","C_Dist_500_LN_20_LD_24_RN_7_RD_21_0.png","C_Dist_500_LN_20_LD_28_RN_3_RD_14_0.png","C_Dist_500_LN_21_LD_28_RN_6_RD_24_0.png","C_Dist_500_LN_22_LD_28_RN_2_RD_7_0.png","C_Dist_500_LN_25_LD_30_RN_9_RD_27_0.png","C_Dist_500_LN_4_LD_6_RN_1_RD_6_0.png","C_Dist_500_LN_5_LD_6_RN_2_RD_6_0.png","C_Dist_500_LN_6_LD_9_RN_1_RD_6_0.png","C_Dist_500_LN_7_LD_10_RN_1_RD_5_0.png","C_Dist_500_LN_8_LD_12_RN_1_RD_6_0.png","C_Dist_500_LN_8_LD_12_RN_4_RD_24_0.png"],["C_Dist_500_LN_1_LD_4_RN_12_RD_16_1.png","C_Dist_500_LN_1_LD_4_RN_9_RD_12_1.png","C_Dist_500_LN_1_LD_9_RN_11_RD_18_1.png","C_Dist_500_LN_10_LD_24_RN_22_RD_24_1.png","C_Dist_500_LN_2_LD_12_RN_10_RD_15_1.png","C_Dist_500_LN_2_LD_12_RN_12_RD_18_1.png","C_Dist_500_LN_2_LD_12_RN_4_RD_6_1.png","C_Dist_500_LN_2_LD_24_RN_7_RD_12_1.png","C_Dist_500_LN_2_LD_5_RN_18_RD_20_1.png","C_Dist_500_LN_2_LD_5_RN_9_RD_10_1.png","C_Dist_500_LN_2_LD_8_RN_12_RD_16_1.png","C_Dist_500_LN_2_LD_8_RN_21_RD_28_1.png","C_Dist_500_LN_3_LD_10_RN_4_RD_5_1.png","C_Dist_500_LN_3_LD_12_RN_15_RD_20_1.png","C_Dist_500_LN_3_LD_30_RN_6_RD_10_1.png","C_Dist_500_LN_3_LD_8_RN_14_RD_16_1.png","C_Dist_500_LN_4_LD_16_RN_15_RD_20_1.png","C_Dist_500_LN_4_LD_24_RN_12_RD_18_1.png","C_Dist_500_LN_5_LD_14_RN_6_RD_7_1.png","C_Dist_500_LN_7_LD_21_RN_20_RD_24_1.png","C_Dist_500_LN_7_LD_28_RN_12_RD_16_1.png","C_Dist_500_LN_7_LD_28_RN_9_RD_12_1.png","C_Dist_500_LN_9_LD_27_RN_20_RD_24_1.png"]],"dist500_I":[["I_Dist_500_LN_2_LD_3_RN_4_RD_24_0.png","I_Dist_500_LN_5_LD_6_RN_6_RD_18_0.png","I_Dist_500_LN_7_LD_8_RN_9_RD_24_0.png"],["I_Dist_500_LN_7_LD_21_RN_5_RD_6_1.png"]],"dist500_S":[["E_Dist_500_LN_6_LD_8_RN_6_RD_24_0.png"],["E_Dist_500_LN_2_LD_12_RN_2_RD_3_1.png","E_Dist_500_LN_6_LD_24_RN_6_RD_8_1.png"]]}},{"start_time":1551793951881,"click_time":1551793954727,"finger_time":1551793953748,"fix_duration":733.2774137201448,"trial":1,"RT":1867,"MT":979,"sideResp":1,"stimulus":[],"xmouse":[786,786,786,786,786,786,786,786,786,786,786,786,786,786,786,786,786,786,786,786,786,786,786,786,786,786,786,786,786,786,786,786,786,786,786,786,786,786,786,786,786,786,786,786,786,786,786,786,786,786,786,786,786,786,786,786,786,786,786,786,786,786,786,786,786,786,786,786,786,786,786,786,786,786,786,786,786,786,786,786,786,786,786,786,786,786,786,786,786,786,786,785,779,768,759,740,732,727,721,716,706,701,698,696,692,689,680,671,666,660,651,639,634,633,633,633,633,633,633,633,633,633,633,633,633,633,633,633,631,630,627,616,609,597,590,583,563,553,547,542,538,525,517],"ymouse":[511,511,511,511,511,511,511,511,511,511,511,511,511,511,511,511,511,511,511,511,511,511,511,511,511,511,511,511,511,511,511,511,511,511,511,511,511,511,511,511,511,511,511,511,511,511,511,511,511,511,511,511,511,511,511,511,511,511,511,511,511,511,511,511,511,511,511,511,511,511,511,511,511,511,511,511,511,511,511,511,511,511,511,511,511,511,511,511,511,509,507,497,484,466,441,385,349,326,308,289,262,253,245,240,233,228,213,199,193,186,178,167,164,162,162,162,162,162,162,162,163,163,163,163,163,163,163,163,162,161,160,155,153,148,145,142,131,124,118,110,100,79,68],"timestamp_mouse":[11,38,47,67,85,106,126,146,166,186,205,227,245,266,287,306,326,347,367,386,406,426,446,467,485,506,526,545,567,587,606,626,647,666,686,706,726,747,766,786,805,827,847,867,886,906,927,947,967,985,1007,1026,1047,1066,1086,1106,1127,1145,1167,1186,1206,1227,1246,1266,1287,1306,1326,1347,1366,1386,1406,1426,1447,1466,1487,1505,1527,1547,1567,1587,1607,1626,1647,1667,1687,1707,1727,1747,1767,1787,1806,1826,1846,1867,1887,1907,1926,1946,1965,1987,2007,2026,2046,2066,2086,2105,2125,2147,2166,2187,2207,2226,2245,2265,2286,2306,2326,2346,2366,2386,2407,2427,2446,2467,2486,2506,2526,2547,2567,2586,2607,2626,2646,2667,2686,2706,2726,2747,2767,2787,2806,2826,2845],"xSR":741.5,"ySR":469.95,"xT1":424.9,"yT1":0,"xT2":1058.1,"yT2":0,"toosoon":0,"cond_shown":"Incongruent","ratio_trial":100,"L_num":13,"L_den":26,"R_num":12,"R_den":20,"correct_side":2,"subjID":"paulasofiacastellanoscastro26","gender":"6","school":"No_school","age":"11"},{"start_time":1551793959268,"click_time":1551793967267,"finger_time":1551793965027,"fix_duration":1438.3898953053424,"trial":2,"RT":5759,"MT":2240,"sideResp":1,"stimulus":[],"xmouse":[800,800,800,800,800,800,800,800,800,800,800,800,800,800,800,800,800,800,800,800,800,800,800,800,800,800,800,800,800,800,800,800,800,800,800,800,800,800,800,800,800,800,800,800,800,800,800,800,800,800,800,800,800,800,800,800,800,800,800,800,800,800,800,800,800,800,800,800,800,800,800,800,800,800,800,800,800,800,800,800,800,800,800,800,800,800,800,800,800,800,800,800,800,800,800,800,800,800,800,800,800,800,800,800,800,800,800,800,800,800,800,800,800,800,800,800,800,800,800,800,800,800,800,800,800,800,800,800,800,799,798,798,795,794,794,794,794,794,794,794,794,794,794,794,794,794,794,794,794,794,794,794,794,794,794,794,794,794,794,794,794,794,794,794,794,794,794,794,794,794,793,793,793,793,793,793,793,793,793,793,793,793,793,793,793,793,793,793,793,793,793,793,793,793,793,793,793,793,793,793,793,793,793,793,793,793,793,793,793,793,791,790,787,787,789,789,789,789,789,789,789,791,794,797,797,797,797,797,797,797,798,798,798,798,797,795,795,795,795,795,795,795,795,795,795,795,795,795,795,795,795,795,795,795,795,795,795,795,795,795,795,795,795,795,795,795,795,795,795,795,795,795,795,795,795,795,795,795,795,795,795,795,795,795,795,795,796,798,809,828,853,888,932,1020,1033,1042,1049,1054,1062,1063,1065,1066,1068,1069,1071,1073,1077,1081,1090,1092,1093,1094,1094,1094,1094,1094,1094,1094,1094,1094,1094,1094,1094,1094,1094,1094,1094,1094,1094,1094,1094,1094,1094,1094,1094,1094,1094,1094,1094,1094,1094,1094,1094,1094,1094,1094,1094,1094,1094,1094,1094,1094,1094,1094,1094,1090,1071,1036,966,947,929,905,872,782,762,750,745,744,735,731,725,718,705,689,679,673,668,663,653,647,642,636,631,627,623,619,612,601,591,590,589,589,587,582,580,575,569,561,542,534,524],"ymouse":[513,513,513,513,513,513,513,513,513,513,513,513,513,513,513,513,512,511,511,511,511,511,511,511,511,511,511,511,511,511,511,511,511,511,511,511,511,511,511,511,511,511,511,511,511,511,511,511,511,511,511,511,511,511,511,511,511,511,511,511,511,511,511,511,511,511,511,511,511,511,511,511,511,511,511,511,511,511,511,511,511,511,511,511,511,511,511,511,511,511,511,511,511,511,511,511,511,511,511,511,511,511,511,511,511,511,511,511,511,511,511,511,511,511,511,511,511,511,511,511,511,511,511,511,511,511,511,511,509,506,506,504,500,499,499,499,499,499,499,499,499,499,499,499,499,499,499,499,499,499,499,499,499,499,499,499,499,499,499,499,499,499,499,499,499,499,499,499,499,499,498,498,498,498,498,498,498,498,498,498,498,498,498,498,498,498,498,498,498,498,498,498,498,498,498,498,498,498,498,498,498,498,498,498,498,498,498,498,498,498,497,496,487,482,481,481,481,481,481,481,481,481,481,481,481,481,481,481,481,481,481,481,481,483,485,488,488,488,488,488,488,488,488,488,488,488,488,488,488,488,488,488,488,489,489,489,489,489,489,489,489,489,489,489,489,489,489,489,489,489,489,489,488,488,488,488,488,488,488,488,488,488,488,488,488,486,484,482,469,456,442,423,401,359,349,334,317,305,286,280,276,272,267,254,248,239,230,222,204,200,197,194,194,194,194,194,194,194,194,194,194,194,194,194,194,194,194,194,194,194,194,194,194,194,194,194,194,194,194,193,193,193,193,193,193,193,193,193,193,193,193,193,193,193,193,193,189,183,164,159,156,153,147,138,136,134,134,133,133,133,133,133,133,132,130,127,127,126,124,123,122,121,120,118,118,117,116,114,110,110,108,107,104,99,97,94,90,86,75,71,68],"timestamp_mouse":[1,19,39,60,79,99,119,138,159,180,198,228,239,260,279,299,319,339,360,378,399,419,440,459,480,500,519,539,560,580,599,620,640,659,680,699,719,739,760,780,800,820,839,859,879,899,919,939,958,979,999,1020,1039,1059,1079,1099,1119,1138,1160,1179,1199,1219,1239,1260,1280,1299,1320,1339,1359,1380,1399,1419,1439,1459,1480,1498,1520,1540,1560,1579,1599,1620,1639,1659,1680,1699,1719,1740,1760,1780,1799,1819,1839,1860,1880,1899,1920,1939,1959,1980,1999,2020,2040,2060,2079,2100,2119,2139,2160,2180,2199,2219,2239,2260,2279,2300,2319,2340,2359,2378,2400,2420,2439,2459,2480,2500,2518,2540,2560,2580,2599,2620,2640,2659,2680,2700,2719,2740,2760,2780,2800,2819,2840,2859,2879,2900,2919,2938,2959,2980,3000,3020,3039,3060,3079,3099,3119,3138,3159,3180,3198,3220,3239,3260,3279,3299,3320,3340,3358,3380,3398,3419,3439,3459,3479,3500,3518,3540,3560,3580,3600,3619,3638,3659,3679,3699,3719,3739,3759,3779,3800,3820,3840,3858,3879,3899,3918,3940,3959,3979,4000,4019,4039,4059,4080,4099,4120,4138,4160,4179,4199,4219,4240,4260,4279,4300,4319,4339,4359,4380,4398,4420,4439,4460,4479,4498,4519,4540,4560,4579,4599,4620,4638,4659,4679,4699,4719,4739,4759,4778,4800,4819,4839,4859,4880,4900,4920,4940,4960,4980,4998,5018,5039,5059,5078,5099,5120,5139,5159,5179,5198,5220,5239,5260,5280,5299,5319,5339,5359,5378,5399,5418,5439,5460,5479,5498,5519,5539,5559,5585,5600,5620,5640,5660,5679,5699,5720,5739,5759,5779,5799,5819,5840,5859,5879,5900,5919,5939,5959,5979,5999,6019,6040,6059,6079,6099,6119,6140,6159,6178,6199,6219,6240,6259,6279,6299,6318,6340,6359,6379,6400,6420,6440,6459,6479,6500,6520,6540,6559,6580,6599,6619,6639,6659,6680,6699,6719,6740,6760,6778,6799,6820,6838,6860,6879,6899,6920,6939,6959,6979,6998,7019,7039,7060,7079,7099,7120,7140,7159,7180,7199,7219,7239,7258,7279,7299,7319,7340,7359,7380,7399,7419,7439,7459,7479,7499,7519,7539,7559,7579,7599,7619,7638,7659,7679,7699,7719,7739,7760,7778,7799,7819,7839,7859,7879,7899,7920,7938,7959,7978,7999],"xSR":741.5,"ySR":469.95,"xT1":424.9,"yT1":0,"xT2":1058.1,"yT2":0,"toosoon":0,"cond_shown":"Incongruent","ratio_trial":300,"L_num":8,"L_den":10,"R_num":9,"R_den":18,"correct_side":1,"subjID":"paulasofiacastellanoscastro26","gender":"6","school":"No_school","age":"11"},{"start_time":1551793970263,"click_time":1551793972368,"finger_time":1551793971987,"fix_duration":1214.569307878175,"trial":3,"RT":1724,"MT":381,"sideResp":1,"stimulus":[],"xmouse":[785,785,785,785,785,785,785,785,785,785,785,785,785,785,785,785,785,785,785,785,785,785,785,785,785,785,785,785,785,785,785,785,785,785,785,785,785,786,786,786,786,786,786,786,786,786,786,786,786,786,786,786,786,786,786,786,786,786,786,786,786,786,786,786,786,786,786,786,786,786,786,786,786,786,786,786,786,786,786,786,785,782,778,774,758,750,742,736,732,719,706,692,677,660,630,622,617,613,607,582,568,557,546,539,525,516],"ymouse":[507,507,507,507,507,507,507,507,507,507,507,507,507,507,507,507,507,507,507,507,507,507,507,507,507,507,507,507,507,507,507,507,507,507,507,507,507,507,507,507,507,507,507,507,507,507,507,507,507,507,507,507,507,507,507,507,507,507,507,507,507,507,507,507,507,507,507,507,507,507,507,507,507,507,507,507,507,507,507,505,504,503,500,496,483,475,469,463,458,434,407,384,358,329,285,271,257,244,230,191,171,156,141,132,110,99],"timestamp_mouse":[9,24,44,65,85,104,124,144,165,183,204,225,245,264,285,304,324,344,365,384,404,424,444,464,485,505,525,544,564,585,605,624,643,665,685,704,725,744,764,784,805,824,844,865,884,905,925,944,965,984,1003,1025,1044,1064,1084,1103,1123,1145,1165,1184,1203,1225,1244,1263,1285,1305,1324,1344,1364,1385,1405,1424,1443,1464,1485,1503,1524,1544,1564,1583,1605,1625,1644,1664,1684,1704,1724,1745,1764,1784,1803,1824,1844,1865,1884,1905,1923,1945,1964,1984,2005,2024,2044,2065,2083,2105],"xSR":741.5,"ySR":469.95,"xT1":424.9,"yT1":0,"xT2":1058.1,"yT2":0,"toosoon":0,"cond_shown":"Incongruent","ratio_trial":100,"L_num":12,"L_den":30,"R_num":2,"R_den":4,"correct_side":2,"subjID":"paulasofiacastellanoscastro26","gender":"6","school":"No_school","age":"11"},{"start_time":1551793974832,"click_time":1551793977148,"finger_time":1551793976667,"fix_duration":944.222618173066,"trial":4,"RT":1835,"MT":481,"sideResp":2,"stimulus":[],"xmouse":[794,794,794,794,793,791,791,791,791,791,791,791,791,791,791,789,788,786,786,786,786,786,787,787,788,789,789,789,789,789,789,789,789,789,789,789,789,789,789,789,789,789,790,791,791,791,791,791,791,791,791,791,791,791,791,791,791,791,791,791,792,793,793,793,793,793,794,795,795,796,797,797,797,797,797,797,797,797,798,799,799,801,801,801,801,802,804,806,808,812,818,845,864,886,906,951,973,998,1012,1025,1036,1037,1039,1040,1040,1040,1040,1042,1043,1044,1047,1049,1052,1056,1057,1059],"ymouse":[508,508,508,508,511,514,514,514,514,514,515,515,515,515,517,522,526,529,529,529,529,529,529,529,529,528,527,527,527,527,527,527,527,527,527,527,527,527,527,527,527,527,527,526,526,526,526,526,526,526,526,526,526,526,526,526,526,526,526,526,525,524,524,524,524,524,524,523,523,523,522,522,522,522,522,522,522,522,522,521,521,520,520,520,520,519,517,515,511,505,496,470,451,430,413,379,362,339,316,282,246,234,223,216,210,193,185,175,168,157,136,124,114,103,95,88],"timestamp_mouse":[16,36,54,75,95,115,135,155,175,194,216,235,256,276,295,315,336,355,376,394,416,436,455,476,495,514,535,555,575,595,615,636,656,675,696,715,736,756,776,795,815,836,855,874,895,915,935,956,976,995,1016,1035,1056,1074,1096,1115,1135,1154,1175,1195,1216,1236,1255,1275,1296,1314,1335,1355,1376,1395,1416,1435,1455,1475,1496,1515,1535,1555,1575,1596,1615,1635,1655,1675,1695,1715,1734,1755,1775,1795,1814,1835,1855,1876,1895,1915,1935,1955,1975,1995,2015,2035,2055,2075,2096,2115,2136,2156,2176,2195,2215,2234,2256,2275,2296,2316],"xSR":741.5,"ySR":469.95,"xT1":424.9,"yT1":0,"xT2":1058.1,"yT2":0,"toosoon":0,"cond_shown":"Congruent","ratio_trial":200,"L_num":3,"L_den":6,"R_num":14,"R_den":20,"correct_side":2,"subjID":"paulasofiacastellanoscastro26","gender":"6","school":"No_school","age":"11"},{"start_time":1551793978839,"click_time":1551793981348,"finger_time":1551793980488,"fix_duration":250,"trial":5,"RT":1649,"MT":860,"sideResp":2,"stimulus":[],"xmouse":[786,786,786,786,786,786,786,786,786,786,786,786,786,785,785,785,785,785,785,785,785,785,785,785,785,785,785,785,785,785,785,785,785,785,785,785,785,785,785,785,785,785,785,785,785,785,785,785,785,785,785,785,785,785,785,785,785,785,785,785,785,785,785,785,785,785,785,785,788,792,795,798,798,798,799,799,801,803,803,804,805,806,809,810,814,819,833,838,840,842,844,863,876,891,903,913,926,937,943,945,946,955,961,968,978,987,1005,1013,1018,1024,1029,1036,1038,1041,1045,1053,1056,1057,1060,1061,1063,1065,1065,1067,1068,1070],"ymouse":[502,502,502,502,502,502,502,502,502,502,502,502,502,502,502,502,501,501,501,501,501,501,501,501,501,501,501,501,501,501,501,501,501,501,501,501,501,501,501,501,501,501,501,501,501,501,501,501,501,501,501,501,501,501,501,501,501,501,501,501,501,501,501,501,500,499,499,496,493,490,488,486,485,485,484,484,480,477,476,474,473,471,467,465,459,452,436,428,424,421,418,397,387,375,366,359,347,337,331,329,328,318,313,306,296,287,261,250,242,234,223,206,199,191,182,164,155,148,142,136,130,118,112,108,104,97],"timestamp_mouse":[11,41,49,69,89,108,127,149,167,189,207,227,248,268,288,308,328,347,369,388,408,428,448,469,488,509,528,548,568,589,607,629,647,668,689,707,729,749,768,788,809,828,848,869,889,907,928,948,968,988,1007,1029,1048,1069,1089,1109,1128,1148,1169,1188,1208,1229,1248,1268,1288,1307,1328,1349,1368,1388,1408,1428,1448,1468,1488,1508,1529,1548,1569,1588,1609,1627,1649,1668,1689,1708,1728,1748,1768,1789,1809,1827,1848,1868,1888,1909,1928,1948,1968,1989,2008,2028,2048,2068,2088,2107,2127,2148,2168,2188,2208,2228,2248,2268,2288,2309,2327,2348,2368,2388,2408,2428,2448,2468,2488,2508],"xSR":741.5,"ySR":469.95,"xT1":424.9,"yT1":0,"xT2":1058.1,"yT2":0,"toosoon":0,"cond_shown":"Incongruent","ratio_trial":300,"L_num":13,"L_den":26,"R_num":12,"R_den":15,"correct_side":2,"subjID":"paulasofiacastellanoscastro26","gender":"6","school":"No_school","age":"11"},{"start_time":1551793982893,"click_time":1551793984807,"finger_time":1551793984367,"fix_duration":304.3167710431207,"trial":6,"RT":1474,"MT":440,"sideResp":1,"stimulus":[],"xmouse":[792,792,792,792,792,792,792,792,792,792,792,792,792,792,792,792,792,792,792,792,792,792,792,792,792,792,792,792,792,792,792,792,792,792,792,792,792,792,792,792,792,792,792,792,792,792,792,792,792,792,792,792,792,792,792,792,792,792,792,792,792,792,792,792,792,792,792,792,792,792,792,792,792,776,760,743,726,710,698,676,669,660,649,637,630,620,611,604,593,586,579,569,557,538,527,520],"ymouse":[528,528,528,528,528,528,528,528,528,528,528,528,528,528,528,528,528,528,528,528,528,528,528,528,528,528,528,528,528,528,528,528,528,528,528,528,528,528,528,528,528,528,528,528,528,528,528,528,528,528,528,528,528,528,528,528,528,528,528,528,528,528,528,528,528,528,528,528,528,526,524,522,512,433,393,361,336,314,296,265,253,241,218,194,181,169,159,151,137,128,118,108,98,84,78,74],"timestamp_mouse":[15,40,54,74,94,114,135,154,174,194,215,235,254,274,294,314,334,354,374,394,414,434,455,475,493,515,533,554,573,594,614,634,654,674,695,714,734,754,774,795,815,833,855,873,894,915,934,954,974,994,1014,1034,1055,1074,1094,1114,1135,1155,1174,1194,1214,1235,1253,1275,1295,1314,1333,1354,1375,1395,1415,1435,1454,1474,1494,1514,1534,1554,1574,1594,1614,1634,1654,1674,1695,1713,1734,1754,1775,1794,1814,1834,1854,1874,1893,1914],"xSR":741.5,"ySR":469.95,"xT1":424.9,"yT1":0,"xT2":1058.1,"yT2":0,"toosoon":0,"cond_shown":"Congruent","ratio_trial":200,"L_num":7,"L_den":21,"R_num":2,"R_den":15,"correct_side":1,"subjID":"paulasofiacastellanoscastro26","gender":"6","school":"No_school","age":"11"},{"start_time":1551793987185,"click_time":1551793989187,"finger_time":1551793988808,"fix_duration":1096.8744693128274,"trial":7,"RT":1623,"MT":379,"sideResp":2,"stimulus":[],"xmouse":[804,804,804,804,804,804,804,804,804,804,804,804,804,804,804,804,804,804,804,804,804,804,801,800,798,798,798,798,798,798,798,798,798,798,798,798,798,798,798,798,798,798,798,798,798,798,798,798,798,798,798,798,798,798,798,798,798,798,798,798,798,798,798,798,798,798,798,798,798,798,798,798,798,798,799,810,817,821,823,824,827,839,858,878,898,925,944,955,965,977,1007,1026,1048,1071,1091,1113,1118,1119,1120,1121,1122],"ymouse":[516,516,516,516,516,516,516,516,516,516,516,516,516,516,516,516,516,516,516,516,516,516,514,514,513,513,513,513,513,513,513,513,513,513,513,513,513,513,513,513,513,513,513,513,513,513,513,513,513,513,513,513,513,513,513,513,513,513,513,513,513,513,513,513,513,513,513,513,513,513,513,513,513,511,509,502,497,494,492,490,482,466,445,421,401,374,356,346,332,316,277,256,231,204,180,141,121,113,107,103,95],"timestamp_mouse":[11,32,43,61,82,103,123,143,162,181,202,222,243,263,281,303,322,342,362,382,402,423,443,463,482,502,522,543,562,582,603,622,643,661,682,703,723,743,761,782,801,823,842,863,883,901,922,942,962,983,1002,1022,1043,1062,1082,1103,1122,1142,1161,1181,1202,1223,1243,1262,1282,1303,1322,1343,1363,1381,1403,1423,1442,1461,1482,1503,1521,1543,1562,1582,1602,1623,1643,1661,1683,1702,1723,1742,1763,1783,1802,1822,1843,1861,1883,1902,1923,1942,1962,1981,2002],"xSR":741.5,"ySR":469.95,"xT1":424.9,"yT1":0,"xT2":1058.1,"yT2":0,"toosoon":0,"cond_shown":"Incongruent","ratio_trial":300,"L_num":13,"L_den":26,"R_num":12,"R_den":15,"correct_side":2,"subjID":"paulasofiacastellanoscastro26","gender":"6","school":"No_school","age":"11"},{"start_time":1551793991294,"click_time":1551793993407,"finger_time":1551793992587,"fix_duration":725.1677423182723,"trial":8,"RT":1293,"MT":820,"sideResp":1,"stimulus":[],"xmouse":[780,780,780,780,780,780,780,780,780,780,780,780,780,780,780,780,780,780,780,780,780,780,780,780,780,780,780,780,780,780,780,780,780,780,780,780,780,780,780,780,780,780,780,780,780,780,780,780,780,780,780,776,772,768,762,759,759,757,753,750,750,750,748,746,737,730,723,717,717,712,706,702,699,697,692,691,691,691,691,686,683,675,665,656,640,635,632,626,623,612,606,601,597,593,590,583,578,575,569,565,564,563,558,549,532,511],"ymouse":[532,532,532,532,532,532,532,532,532,532,532,532,532,532,532,532,532,532,532,532,532,532,532,532,532,532,532,532,532,532,532,532,532,532,532,532,532,532,532,532,532,532,532,532,532,532,532,532,532,532,532,526,521,515,505,503,501,499,496,491,491,491,489,488,479,473,469,464,464,459,449,444,438,433,410,396,381,363,345,304,288,267,245,223,185,175,168,157,153,137,130,122,116,111,107,98,94,92,90,88,88,88,86,85,83,80],"timestamp_mouse":[13,42,53,73,93,113,133,154,173,194,213,233,252,274,292,314,333,353,373,394,413,434,454,472,493,513,533,553,573,593,614,634,654,674,693,712,734,753,774,794,812,833,853,874,893,913,933,953,973,993,1012,1033,1053,1073,1093,1113,1133,1153,1174,1193,1214,1234,1253,1274,1293,1313,1333,1353,1374,1393,1414,1433,1454,1473,1493,1514,1533,1553,1573,1593,1613,1633,1653,1673,1693,1712,1733,1753,1773,1793,1812,1833,1853,1873,1893,1913,1933,1954,1973,1993,2013,2033,2053,2073,2093,2113],"xSR":741.5,"ySR":469.95,"xT1":424.9,"yT1":0,"xT2":1058.1,"yT2":0,"toosoon":0,"cond_shown":"Congruent","ratio_trial":300,"L_num":20,"L_den":25,"R_num":9,"R_den":18,"correct_side":1,"subjID":"paulasofiacastellanoscastro26","gender":"6","school":"No_school","age":"11"},{"start_time":1551793995138,"click_time":1551793997288,"finger_time":1551793996828,"fix_duration":250,"trial":9,"RT":1690,"MT":460,"sideResp":2,"stimulus":[],"xmouse":[791,791,791,791,791,791,791,791,791,791,791,791,791,791,791,791,791,791,791,791,791,791,791,791,791,791,791,791,791,791,791,791,791,791,791,791,791,791,791,791,791,791,791,791,791,791,791,791,791,791,791,791,791,791,792,792,792,792,792,792,792,792,792,792,792,792,792,792,792,792,792,792,792,792,792,792,792,792,792,793,797,799,828,838,862,878,899,923,964,983,989,992,993,995,996,998,998,998,1001,1006,1012,1017,1025,1039,1051,1064,1076,1091],"ymouse":[508,508,508,508,508,508,508,508,508,508,508,508,508,508,508,508,508,508,508,508,508,508,508,508,508,508,508,508,508,508,508,508,508,508,508,508,508,508,508,508,508,508,508,508,508,508,508,508,508,508,508,508,508,508,508,508,508,508,508,508,508,508,508,508,508,508,508,508,508,508,508,508,508,508,508,508,508,508,508,508,505,503,490,485,472,456,421,384,315,283,266,255,248,241,238,229,223,218,199,187,175,163,152,134,122,112,103,92],"timestamp_mouse":[10,37,50,69,90,108,130,149,169,189,209,229,249,269,288,309,329,349,368,390,409,429,450,469,489,508,529,549,569,589,608,629,649,668,689,709,729,749,769,790,810,828,849,869,890,909,928,949,968,989,1009,1030,1049,1070,1089,1109,1129,1149,1169,1190,1210,1228,1250,1270,1290,1309,1329,1348,1369,1390,1410,1430,1449,1470,1489,1510,1528,1550,1569,1589,1609,1630,1650,1669,1690,1710,1730,1749,1769,1789,1810,1829,1850,1869,1890,1908,1929,1949,1970,1990,2009,2029,2049,2070,2088,2108,2129,2150],"xSR":741.5,"ySR":469.95,"xT1":424.9,"yT1":0,"xT2":1058.1,"yT2":0,"toosoon":0,"cond_shown":"Congruent","ratio_trial":200,"L_num":3,"L_den":10,"R_num":11,"R_den":22,"correct_side":2,"subjID":"paulasofiacastellanoscastro26","gender":"6","school":"No_school","age":"11"},{"start_time":1551793999710,"click_time":1551794001628,"finger_time":1551794001308,"fix_duration":1120.7134450692374,"trial":10,"RT":1598,"MT":320,"sideResp":2,"stimulus":[],"xmouse":[783,783,783,783,783,783,783,783,783,783,783,783,783,783,783,783,783,783,783,783,783,783,783,783,783,783,783,783,783,783,783,783,783,783,783,783,783,783,783,783,783,783,783,783,783,783,783,783,783,783,783,783,783,783,783,783,783,783,783,783,783,783,783,783,783,783,783,783,783,783,783,783,785,786,802,806,814,823,836,870,901,922,940,953,987,1015,1049,1070,1084,1099,1102,1103,1105,1105,1105,1105],"ymouse":[514,514,514,514,514,514,514,514,514,514,514,514,514,514,514,514,514,514,514,514,514,514,514,514,514,514,514,514,514,514,514,514,514,514,514,514,514,514,514,514,514,514,514,514,514,514,514,514,514,514,514,514,514,514,514,514,514,514,514,514,514,514,514,514,514,514,514,514,514,514,514,514,514,513,503,499,494,485,471,436,413,398,385,374,333,299,259,229,205,171,156,146,135,123,108,98],"timestamp_mouse":[34,38,58,77,97,118,138,158,177,199,217,237,259,277,298,318,338,359,377,399,418,438,458,477,498,517,539,557,577,598,617,639,658,678,697,718,737,757,779,797,819,837,858,878,897,918,937,957,979,998,1019,1037,1057,1078,1099,1118,1138,1157,1177,1199,1218,1238,1258,1277,1298,1317,1338,1358,1378,1398,1418,1438,1458,1477,1498,1517,1537,1557,1577,1598,1618,1637,1658,1679,1697,1718,1738,1758,1777,1799,1817,1837,1858,1879,1897,1917],"xSR":741.5,"ySR":469.95,"xT1":424.9,"yT1":0,"xT2":1058.1,"yT2":0,"toosoon":0,"cond_shown":"Congruent","ratio_trial":100,"L_num":4,"L_den":10,"R_num":15,"R_den":30,"correct_side":2,"subjID":"paulasofiacastellanoscastro26","gender":"6","school":"No_school","age":"11"},{"start_time":1551794004256,"click_time":1551794006928,"finger_time":1551794006087,"fix_duration":1187.458708067972,"trial":11,"RT":1831,"MT":841,"sideResp":1,"stimulus":[],"xmouse":[768,768,768,768,768,768,768,768,768,769,769,769,769,769,769,769,769,769,769,769,769,769,769,769,769,769,769,769,769,769,769,769,769,769,769,769,769,769,769,769,769,769,769,769,769,769,769,769,769,769,769,769,769,769,769,769,769,769,769,769,769,769,769,769,769,769,769,769,769,769,769,769,769,770,770,770,770,770,770,770,770,770,770,770,770,770,770,771,771,770,768,764,762,758,758,758,758,758,758,758,758,758,757,755,754,752,750,748,740,737,730,723,715,694,687,678,668,659,640,633,623,612,601,575,563,555,549,546,545,545,544,542,538,518],"ymouse":[506,506,506,506,506,506,506,506,506,505,505,505,505,505,505,505,505,505,505,505,505,505,505,505,505,505,505,505,505,505,505,505,505,505,505,505,505,505,505,505,505,505,505,505,505,505,505,505,505,505,505,505,505,505,505,505,505,505,505,505,505,505,505,505,505,505,505,505,505,505,505,505,505,505,505,505,505,505,505,505,505,505,505,505,505,505,505,505,499,488,474,465,459,451,450,450,450,450,450,450,450,450,449,446,445,442,439,436,426,420,411,398,383,340,324,303,280,255,209,192,175,158,143,118,110,105,101,99,98,98,97,96,95,88],"timestamp_mouse":[11,36,52,72,92,112,133,152,171,193,211,231,253,271,291,311,332,351,372,391,412,432,452,471,491,512,531,551,573,591,611,632,652,671,692,711,732,751,772,792,812,833,851,873,891,938,938,951,972,992,1013,1033,1051,1072,1092,1113,1131,1151,1172,1191,1212,1232,1252,1273,1292,1311,1331,1353,1371,1392,1412,1432,1452,1473,1491,1512,1533,1553,1572,1593,1612,1631,1651,1672,1692,1713,1732,1752,1772,1793,1813,1831,1852,1872,1892,1912,1933,1951,1971,1992,2012,2031,2051,2071,2092,2111,2131,2151,2171,2192,2212,2232,2252,2271,2292,2311,2331,2352,2371,2392,2412,2432,2452,2472,2491,2512,2532,2551,2572,2592,2611,2631,2651,2672],"xSR":741.5,"ySR":469.95,"xT1":424.9,"yT1":0,"xT2":1058.1,"yT2":0,"toosoon":0,"cond_shown":"Incongruent","ratio_trial":100,"L_num":8,"L_den":16,"R_num":6,"R_den":10,"correct_side":2,"subjID":"paulasofiacastellanoscastro26","gender":"6","school":"No_school","age":"11"},{"start_time":1551794008581,"click_time":1551794010587,"finger_time":1551794010288,"fix_duration":250,"trial":12,"RT":1707,"MT":299,"sideResp":2,"stimulus":[],"xmouse":[812,812,812,811,811,811,810,810,810,810,810,810,810,810,810,810,810,810,810,810,810,810,810,810,810,810,810,810,810,810,810,810,810,810,810,810,810,810,810,810,810,810,810,810,810,810,810,810,810,810,810,810,810,810,810,810,810,810,810,810,810,810,810,810,810,810,810,810,810,810,810,810,810,810,810,810,811,812,816,819,822,825,828,829,833,851,863,948,967,979,988,999,1019,1029,1039,1049,1058,1071,1074,1079,1081],"ymouse":[516,516,516,516,516,516,516,516,516,516,516,516,516,516,516,516,516,516,516,516,516,516,516,516,516,516,516,516,516,516,516,516,516,516,516,516,516,516,516,516,516,516,516,516,516,516,516,516,516,516,516,516,516,516,516,516,516,516,516,516,516,516,516,516,516,516,516,516,516,516,516,516,516,516,515,515,515,515,512,510,507,505,503,503,497,478,465,392,373,357,341,322,279,255,230,208,186,141,124,107,94],"timestamp_mouse":[10,34,46,67,86,107,127,146,167,186,207,227,248,267,287,308,327,347,367,387,408,428,446,466,488,508,527,547,567,588,607,627,646,666,687,706,727,746,767,787,807,828,847,867,887,908,927,947,967,987,1007,1028,1047,1067,1087,1108,1126,1147,1167,1187,1208,1226,1247,1267,1287,1307,1326,1347,1367,1387,1408,1428,1448,1467,1487,1506,1527,1548,1566,1587,1606,1626,1647,1667,1686,1707,1728,1747,1766,1787,1808,1828,1846,1866,1886,1907,1926,1946,1966,1987,2006],"xSR":741.5,"ySR":469.95,"xT1":424.9,"yT1":0,"xT2":1058.1,"yT2":0,"toosoon":0,"cond_shown":"Congruent","ratio_trial":100,"L_num":6,"L_den":20,"R_num":5,"R_den":25,"correct_side":1,"subjID":"paulasofiacastellanoscastro26","gender":"6","school":"No_school","age":"11"},{"start_time":1551794012160,"click_time":1551794013948,"finger_time":1551794012427,"fix_duration":250,"trial":13,"RT":267,"MT":1521,"sideResp":2,"stimulus":[],"xmouse":[771,771,771,771,771,771,771,771,770,763,754,747,742,740,740,740,739,739,739,739,739,739,739,739,739,739,739,739,739,739,739,739,739,739,739,739,739,739,739,742,746,747,748,749,749,749,750,751,751,752,752,752,752,753,753,754,754,754,754,754,754,754,755,755,755,756,757,759,761,768,772,776,778,783,807,823,835,842,858,880,914,952,982,1027,1043,1063,1076,1088,1097,1109],"ymouse":[517,517,517,517,517,517,517,517,517,515,512,510,508,507,507,507,506,506,506,506,506,506,506,506,506,506,506,506,506,506,506,506,506,506,506,506,506,506,506,506,509,510,512,512,512,513,514,516,517,519,519,520,521,521,525,526,527,528,529,529,529,529,530,530,530,530,531,531,531,531,531,530,529,524,500,484,466,450,419,385,338,295,269,230,210,179,157,136,119,95],"timestamp_mouse":[8,32,47,68,87,107,129,149,167,189,207,227,249,267,287,308,328,348,368,387,408,428,448,469,487,508,528,548,568,587,607,628,648,669,688,708,727,748,768,787,809,828,849,867,888,908,927,948,968,987,1007,1027,1049,1069,1088,1108,1128,1147,1168,1188,1207,1228,1248,1267,1289,1307,1328,1348,1369,1387,1408,1429,1449,1469,1488,1508,1528,1548,1569,1588,1607,1629,1649,1669,1688,1707,1727,1748,1767,1787],"xSR":741.5,"ySR":469.95,"xT1":424.9,"yT1":0,"xT2":1058.1,"yT2":0,"toosoon":0,"cond_shown":"Incongruent","ratio_trial":300,"L_num":3,"L_den":6,"R_num":4,"R_den":20,"correct_side":1,"subjID":"paulasofiacastellanoscastro26","gender":"6","school":"No_school","age":"11"},{"start_time":1551794016496,"click_time":1551794018708,"finger_time":1551794018189,"fix_duration":486.1445402250376,"trial":14,"RT":1693,"MT":519,"sideResp":1,"stimulus":[],"xmouse":[801,801,801,801,801,801,801,801,801,801,801,801,801,801,801,801,801,801,801,801,801,801,801,801,801,801,801,801,801,801,801,801,801,801,801,801,801,801,801,801,801,801,801,801,801,801,801,801,801,801,801,801,801,801,801,801,801,801,801,801,801,801,801,801,801,801,801,800,800,800,800,800,800,800,800,800,800,800,800,800,800,800,794,789,784,780,774,767,760,751,743,734,708,695,682,664,659,647,642,636,628,615,603,591,586,581,565,545,533,527,524],"ymouse":[504,504,504,504,504,504,504,504,504,504,504,504,504,504,504,504,504,504,504,504,504,504,504,504,504,504,504,504,504,504,504,504,504,504,504,504,504,504,504,504,504,504,504,504,504,504,504,504,504,504,504,504,504,504,504,504,504,504,504,504,504,504,504,504,504,504,504,504,504,504,504,504,504,504,504,504,504,503,503,502,500,499,489,477,464,450,429,395,374,355,338,322,288,272,259,239,233,219,213,207,198,187,177,162,154,147,128,105,94,86,80],"timestamp_mouse":[11,33,51,71,92,113,131,151,171,193,212,232,251,271,293,311,331,351,372,392,411,432,453,473,492,511,532,551,572,591,612,631,651,671,692,712,731,751,771,791,812,831,851,871,892,911,931,951,971,991,1012,1031,1052,1072,1092,1112,1131,1152,1172,1191,1211,1232,1252,1273,1292,1311,1333,1352,1372,1393,1411,1431,1452,1472,1492,1512,1533,1552,1573,1591,1612,1632,1651,1672,1693,1713,1732,1752,1771,1791,1813,1832,1852,1872,1891,1912,1932,1952,1971,1991,2011,2032,2051,2072,2092,2112,2131,2151,2171,2191,2211],"xSR":741.5,"ySR":469.95,"xT1":424.9,"yT1":0,"xT2":1058.1,"yT2":0,"toosoon":0,"cond_shown":"Congruent","ratio_trial":300,"L_num":3,"L_den":6,"R_num":2,"R_den":10,"correct_side":1,"subjID":"paulasofiacastellanoscastro26","gender":"6","school":"No_school","age":"11"},{"start_time":1551794021780,"click_time":1551794025509,"finger_time":1551794024309,"fix_duration":992.0502240673027,"trial":15,"RT":2529,"MT":1200,"sideResp":2,"stimulus":[],"xmouse":[800,800,800,800,800,800,800,800,800,800,800,800,800,800,800,800,800,800,800,800,800,800,800,800,800,800,800,800,800,800,800,800,800,800,800,800,800,800,800,800,800,800,800,800,800,800,800,800,800,800,800,800,800,800,800,800,800,800,800,800,800,800,800,800,800,800,800,800,800,802,803,803,803,803,804,804,804,804,804,804,804,804,804,804,804,804,804,804,804,804,804,804,804,804,804,804,804,804,804,804,804,804,804,804,804,804,804,805,806,807,807,807,808,808,808,808,808,808,809,809,809,810,810,810,810,810,811,811,811,811,811,811,811,811,811,811,811,811,811,811,811,811,811,811,811,812,812,813,814,814,814,815,815,816,819,820,821,824,830,843,853,859,862,869,890,907,923,938,950,967,975,983,988,992,1009,1016,1021,1028,1037,1046,1048,1049,1051,1051,1054,1059,1062],"ymouse":[487,487,487,487,487,487,487,487,487,487,487,487,487,487,487,487,487,487,487,487,487,487,487,487,487,487,487,487,487,487,487,487,487,487,487,487,487,487,487,487,487,487,487,487,487,487,487,487,487,487,487,487,487,487,487,487,487,487,487,487,487,487,487,487,487,487,487,487,485,483,482,482,482,482,481,481,481,481,481,481,481,481,481,481,481,481,481,481,481,481,481,480,480,480,480,480,480,480,480,480,480,480,480,480,480,480,480,479,477,476,476,476,475,475,475,475,474,474,474,472,471,471,471,471,471,471,469,469,469,469,469,469,469,469,469,469,469,469,469,469,469,469,469,469,469,468,467,466,465,463,463,462,460,459,451,450,448,444,436,415,400,389,383,370,336,312,290,272,257,234,223,212,204,198,178,169,164,154,141,125,122,119,115,115,110,103,98],"timestamp_mouse":[10,33,47,69,87,108,127,149,168,187,208,228,249,268,290,308,328,347,368,389,409,428,448,469,487,509,528,548,568,588,608,628,649,668,689,709,728,749,768,789,807,828,847,868,889,908,928,948,968,987,1007,1029,1049,1068,1089,1107,1127,1148,1169,1188,1208,1229,1248,1268,1288,1309,1327,1349,1367,1389,1407,1427,1448,1468,1488,1508,1528,1548,1568,1588,1609,1627,1647,1667,1687,1709,1729,1747,1769,1787,1809,1828,1847,1868,1887,1909,1927,1947,1968,1987,2008,2028,2047,2067,2087,2107,2128,2147,2168,2189,2207,2227,2247,2269,2288,2307,2328,2348,2367,2388,2409,2428,2449,2467,2487,2507,2529,2548,2568,2588,2607,2627,2647,2667,2688,2708,2727,2748,2767,2787,2808,2828,2849,2867,2887,2907,2927,2948,2969,2987,3007,3028,3048,3068,3087,3107,3128,3148,3167,3188,3207,3227,3247,3267,3287,3308,3328,3348,3367,3387,3408,3427,3448,3469,3488,3508,3528,3548,3567,3587,3607,3628,3649,3668,3687,3708,3728],"xSR":741.5,"ySR":469.95,"xT1":424.9,"yT1":0,"xT2":1058.1,"yT2":0,"toosoon":0,"cond_shown":"Incongruent","ratio_trial":300,"L_num":8,"L_den":10,"R_num":9,"R_den":18,"correct_side":1,"subjID":"paulasofiacastellanoscastro26","gender":"6","school":"No_school","age":"11"},{"start_time":1551794027916,"click_time":1551794029987,"finger_time":1551794029549,"fix_duration":507.4996369481029,"trial":16,"RT":1633,"MT":438,"sideResp":1,"stimulus":[],"xmouse":[784,784,784,784,784,784,784,784,784,784,784,784,784,784,784,784,784,784,784,784,784,784,784,783,783,783,783,783,783,783,783,783,783,783,783,783,783,783,783,783,783,783,783,783,783,783,783,783,783,783,783,783,783,783,783,783,783,783,783,783,783,783,783,783,783,783,782,782,782,782,782,782,782,782,782,782,782,782,782,779,777,763,748,706,687,674,667,661,647,638,635,626,615,608,603,601,601,598,597,595,575,558,533,523],"ymouse":[506,506,506,506,506,506,506,506,506,506,506,506,506,506,506,506,506,506,506,506,506,506,506,506,506,506,506,506,506,506,506,506,506,506,506,506,506,506,506,506,506,506,506,506,506,506,506,506,506,506,506,506,506,506,506,506,506,506,506,506,506,506,506,506,506,506,506,506,506,506,506,506,505,505,505,505,504,503,500,493,487,462,429,348,316,281,264,250,220,197,189,165,132,116,104,98,95,89,89,87,78,74,68,67],"timestamp_mouse":[12,35,53,71,93,113,131,151,173,191,212,231,253,273,291,311,333,351,371,393,413,432,451,472,492,512,531,551,573,593,611,633,651,672,693,711,732,753,771,791,812,831,853,873,893,912,931,952,973,991,1012,1032,1052,1071,1091,1112,1132,1151,1172,1192,1212,1232,1251,1272,1291,1311,1332,1351,1372,1392,1412,1431,1452,1471,1491,1512,1531,1553,1571,1592,1613,1633,1652,1671,1691,1711,1731,1753,1771,1791,1813,1832,1852,1871,1892,1911,1931,1953,1971,1992,2011,2031,2053,2071],"xSR":741.5,"ySR":469.95,"xT1":424.9,"yT1":0,"xT2":1058.1,"yT2":0,"toosoon":0,"cond_shown":"Incongruent","ratio_trial":300,"L_num":13,"L_den":26,"R_num":12,"R_den":15,"correct_side":2,"subjID":"paulasofiacastellanoscastro26","gender":"6","school":"No_school","age":"11"},{"start_time":1551794032581,"click_time":1551794034429,"finger_time":1551794034008,"fix_duration":991.0861265131374,"trial":17,"RT":1427,"MT":421,"sideResp":2,"stimulus":[],"xmouse":[783,783,783,783,783,784,784,784,784,784,784,784,784,784,784,784,784,784,784,784,784,784,784,784,784,784,784,784,784,784,784,784,784,784,784,785,786,786,786,786,786,786,786,786,786,786,786,786,786,786,788,788,788,789,790,791,792,793,793,794,794,794,794,794,794,798,801,808,812,820,836,846,858,869,886,931,944,955,969,984,1012,1027,1041,1051,1060,1078,1090,1099,1108,1116,1124,1126,1128],"ymouse":[529,529,529,529,529,529,529,529,529,529,529,529,529,529,529,529,529,529,529,529,529,529,529,529,529,529,529,529,529,529,529,529,529,529,529,529,529,529,529,529,529,529,529,529,529,529,529,529,529,529,529,529,529,528,528,527,527,526,525,525,525,525,525,525,524,520,514,507,502,493,476,466,457,448,436,401,391,381,367,351,323,305,288,275,257,224,202,183,162,141,112,103,92],"timestamp_mouse":[10,37,46,67,86,108,127,147,167,186,208,226,248,268,286,308,326,347,368,386,406,426,447,467,487,507,526,548,567,588,607,627,647,667,688,706,728,748,768,786,808,826,848,866,886,907,926,946,967,986,1007,1026,1048,1067,1087,1106,1127,1147,1166,1187,1206,1226,1248,1268,1286,1306,1326,1347,1366,1387,1407,1427,1448,1468,1488,1506,1526,1546,1568,1587,1608,1628,1647,1666,1687,1707,1726,1747,1766,1787,1807,1826,1848],"xSR":741.5,"ySR":469.95,"xT1":424.9,"yT1":0,"xT2":1058.1,"yT2":0,"toosoon":0,"cond_shown":"Congruent","ratio_trial":200,"L_num":3,"L_den":10,"R_num":11,"R_den":22,"correct_side":2,"subjID":"paulasofiacastellanoscastro26","gender":"6","school":"No_school","age":"11"},{"start_time":1551794036726,"click_time":1551794038628,"finger_time":1551794038167,"fix_duration":1037.2837735871833,"trial":18,"RT":1441,"MT":461,"sideResp":2,"stimulus":[],"xmouse":[760,760,760,760,761,761,761,761,761,761,761,761,761,761,761,761,761,761,761,761,761,761,761,761,761,761,761,761,761,761,761,761,761,761,761,761,761,761,761,761,761,761,761,761,761,761,761,761,761,761,761,761,761,761,761,761,761,761,761,761,762,762,763,764,766,767,769,771,785,793,800,807,811,815,833,844,862,874,886,910,926,942,958,973,1001,1023,1029,1043,1054,1057,1063,1065,1069,1087,1101,1127],"ymouse":[512,512,512,512,512,512,512,512,512,512,512,512,512,512,512,512,512,512,512,512,512,512,512,512,512,512,512,512,512,512,512,512,512,512,512,512,512,512,512,512,512,512,512,512,512,512,512,512,512,512,512,512,512,512,512,512,512,512,512,512,511,511,510,509,507,506,504,502,492,487,481,471,461,444,384,356,321,301,285,254,236,217,200,182,157,145,143,136,133,131,129,127,124,113,104,81],"timestamp_mouse":[9,22,42,62,81,101,122,141,162,181,201,221,241,263,281,303,323,342,362,382,402,422,441,462,481,503,522,541,561,583,601,621,643,661,681,701,722,741,762,781,802,823,842,861,882,902,921,941,961,982,1001,1021,1043,1063,1082,1101,1123,1141,1162,1182,1202,1222,1243,1261,1282,1302,1323,1341,1362,1381,1403,1422,1441,1462,1482,1502,1521,1541,1562,1581,1601,1621,1641,1661,1683,1703,1723,1743,1762,1782,1801,1822,1841,1863,1882,1902],"xSR":741.5,"ySR":469.95,"xT1":424.9,"yT1":0,"xT2":1058.1,"yT2":0,"toosoon":0,"cond_shown":"Congruent","ratio_trial":300,"L_num":4,"L_den":20,"R_num":13,"R_den":26,"correct_side":2,"subjID":"paulasofiacastellanoscastro26","gender":"6","school":"No_school","age":"11"},{"start_time":1551794041437,"click_time":1551794043207,"finger_time":1551794042527,"fix_duration":1467.0896322370031,"trial":19,"RT":1090,"MT":680,"sideResp":1,"stimulus":[],"xmouse":[756,756,756,756,756,756,756,756,757,758,759,759,759,759,759,759,759,759,759,759,759,759,759,759,759,759,759,759,759,759,759,759,759,759,759,759,759,759,759,759,759,759,759,759,759,759,760,760,762,762,762,762,762,761,760,759,757,751,715,706,698,695,692,685,680,672,663,657,646,642,638,635,633,630,629,627,625,623,618,617,615,604,586,564,560,556,551,537,498],"ymouse":[511,511,511,511,511,511,511,511,511,510,510,510,510,510,510,510,510,510,510,510,510,510,510,510,510,510,510,510,510,510,510,510,510,510,510,510,510,510,510,510,510,510,510,510,510,510,509,508,495,490,485,480,476,471,469,467,462,448,397,379,363,353,343,315,295,275,254,233,175,143,117,95,83,76,75,72,71,70,67,67,67,67,64,62,61,61,61,61,57],"timestamp_mouse":[11,34,52,72,91,110,131,151,171,190,211,230,251,270,292,310,331,351,372,390,410,431,450,472,491,511,531,551,570,592,610,631,650,672,690,711,731,751,770,792,811,831,851,870,891,911,931,950,970,990,1010,1030,1050,1070,1090,1118,1130,1150,1170,1191,1211,1231,1251,1270,1290,1311,1332,1350,1370,1391,1411,1430,1451,1470,1492,1510,1531,1550,1570,1591,1611,1630,1651,1670,1691,1711,1732,1750,1770],"xSR":741.5,"ySR":469.95,"xT1":424.9,"yT1":0,"xT2":1058.1,"yT2":0,"toosoon":0,"cond_shown":"Incongruent","ratio_trial":300,"L_num":4,"L_den":20,"R_num":2,"R_den":4,"correct_side":2,"subjID":"paulasofiacastellanoscastro26","gender":"6","school":"No_school","age":"11"},{"start_time":1551794045195,"click_time":1551794047848,"finger_time":1551794047349,"fix_duration":386.1161718446589,"trial":20,"RT":2154,"MT":499,"sideResp":1,"stimulus":[],"xmouse":[773,773,773,773,773,773,773,773,774,774,774,774,774,774,774,774,774,774,774,774,776,776,776,776,776,776,776,776,776,776,776,776,776,776,776,776,776,776,776,776,776,776,776,776,776,776,776,776,776,776,776,776,776,776,776,776,776,776,776,776,776,776,776,776,776,776,776,776,776,776,776,776,777,777,777,777,777,778,778,779,779,779,780,780,780,780,780,780,780,780,780,780,780,780,780,780,780,780,780,780,780,780,780,780,780,779,775,767,759,747,724,716,709,700,692,686,673,667,654,640,627,608,605,604,604,600,557,549,531,526,526,526,519],"ymouse":[500,500,500,500,500,500,500,500,500,500,500,500,500,500,500,500,500,500,500,500,500,500,500,500,500,500,500,500,500,500,500,500,500,500,500,500,500,500,500,500,500,500,500,500,500,500,500,500,500,500,500,500,500,500,500,500,500,500,500,500,500,500,500,500,500,500,500,500,500,500,500,500,499,499,499,499,499,498,498,498,497,497,497,497,497,497,497,497,497,497,497,497,497,497,497,497,497,497,497,497,497,497,497,496,495,486,473,454,433,401,357,327,286,253,226,200,156,141,115,97,83,62,59,59,59,57,45,43,38,37,37,37,39],"timestamp_mouse":[13,35,54,72,93,113,132,153,173,192,212,233,252,272,294,313,332,352,373,393,414,433,454,474,494,514,532,553,572,592,612,633,652,674,692,714,733,752,774,792,812,833,852,873,893,912,934,952,972,993,1013,1033,1052,1074,1093,1112,1133,1153,1174,1192,1212,1234,1252,1272,1293,1312,1332,1353,1372,1393,1414,1433,1454,1472,1494,1513,1533,1553,1573,1594,1614,1632,1654,1674,1693,1712,1734,1752,1774,1793,1813,1834,1853,1872,1894,1913,1933,1952,1973,1993,2013,2032,2052,2072,2094,2113,2132,2154,2173,2193,2213,2232,2253,2273,2293,2312,2332,2352,2373,2392,2414,2432,2453,2472,2493,2512,2533,2553,2572,2592,2614,2633,2652],"xSR":741.5,"ySR":469.95,"xT1":424.9,"yT1":0,"xT2":1058.1,"yT2":0,"toosoon":0,"cond_shown":"Congruent","ratio_trial":300,"L_num":1,"L_den":3,"R_num":19,"R_den":30,"correct_side":2,"subjID":"paulasofiacastellanoscastro26","gender":"6","school":"No_school","age":"11"},{"start_time":1551794049599,"click_time":1551794051568,"finger_time":1551794051089,"fix_duration":250,"trial":21,"RT":1490,"MT":479,"sideResp":1,"stimulus":[],"xmouse":[792,792,792,792,792,792,792,792,792,792,792,792,792,792,792,792,792,792,792,792,792,792,792,792,792,792,792,792,792,792,792,792,792,792,792,792,792,792,792,792,792,792,792,792,792,792,792,792,792,792,792,792,792,792,792,792,792,792,792,792,792,792,792,792,792,792,792,792,792,792,792,789,783,775,766,762,754,750,744,735,722,693,675,659,646,633,607,590,577,567,557,546,543,541,540,539,538,532,518],"ymouse":[507,507,507,507,507,507,507,507,507,507,507,507,507,507,507,507,507,507,507,507,507,507,507,507,507,507,507,507,507,507,507,507,507,507,507,507,507,507,507,507,507,507,507,507,507,507,507,507,507,507,507,507,507,507,507,507,507,507,507,507,507,507,507,507,507,507,507,507,507,507,507,502,488,473,452,445,422,412,395,376,353,299,267,241,222,205,175,158,143,131,120,110,107,105,105,104,102,99,90],"timestamp_mouse":[8,42,48,70,88,110,129,150,169,189,208,229,250,268,289,310,328,348,369,390,409,430,448,469,490,508,528,549,568,588,610,628,648,669,688,709,729,749,769,789,809,830,849,869,890,910,928,949,970,989,1009,1030,1048,1069,1089,1108,1130,1148,1170,1188,1209,1228,1248,1270,1288,1308,1330,1348,1370,1388,1408,1441,1450,1470,1490,1509,1529,1549,1569,1588,1609,1629,1648,1668,1690,1710,1728,1749,1768,1788,1809,1828,1848,1869,1888,1908,1929,1948,1969],"xSR":741.5,"ySR":469.95,"xT1":424.9,"yT1":0,"xT2":1058.1,"yT2":0,"toosoon":0,"cond_shown":"Congruent","ratio_trial":300,"L_num":24,"L_den":30,"R_num":2,"R_den":4,"correct_side":1,"subjID":"paulasofiacastellanoscastro26","gender":"6","school":"No_school","age":"11"},{"start_time":1551794054552,"click_time":1551794056749,"finger_time":1551794055988,"fix_duration":1482.654802166026,"trial":22,"RT":1436,"MT":761,"sideResp":2,"stimulus":[],"xmouse":[803,803,803,803,803,803,803,803,803,803,803,803,803,803,803,801,799,791,783,776,775,775,775,775,775,775,775,775,775,775,775,775,775,775,775,775,775,775,775,775,775,775,775,775,775,775,775,775,775,775,775,775,775,775,775,775,777,780,783,783,784,784,785,785,786,786,789,789,792,810,828,847,869,944,979,1009,1045,1064,1074,1092,1099,1107,1116,1130,1138,1141,1142,1142,1142,1142,1142,1141,1139,1138,1135,1132,1128,1126,1125,1123,1123,1123,1123,1123,1123,1123,1122,1122,1121,1121],"ymouse":[500,500,500,500,500,500,500,500,500,500,500,500,500,500,500,499,498,495,491,488,488,488,488,488,488,488,488,488,488,488,488,488,488,488,488,488,488,487,487,487,487,487,487,487,487,487,487,487,487,487,487,487,487,487,487,487,487,489,496,498,500,501,502,502,502,502,502,501,500,491,484,474,464,432,417,405,389,378,371,356,347,332,316,282,248,224,203,192,187,179,175,171,167,162,153,147,139,133,129,124,123,123,123,119,116,110,105,104,100,97],"timestamp_mouse":[17,48,57,76,96,116,135,155,175,195,217,236,256,276,295,316,336,356,375,396,416,436,456,475,495,515,535,556,577,595,617,636,656,676,696,717,737,755,777,797,815,835,857,875,895,917,935,955,976,995,1015,1037,1057,1076,1095,1116,1135,1156,1176,1196,1216,1235,1255,1276,1296,1317,1336,1355,1376,1396,1416,1436,1455,1477,1495,1516,1535,1557,1575,1596,1616,1637,1656,1676,1696,1715,1736,1756,1777,1796,1816,1835,1855,1875,1895,1916,1935,1956,1977,1996,2016,2035,2056,2077,2095,2117,2136,2155,2177,2197],"xSR":741.5,"ySR":469.95,"xT1":424.9,"yT1":0,"xT2":1058.1,"yT2":0,"toosoon":0,"cond_shown":"Congruent","ratio_trial":300,"L_num":2,"L_den":10,"R_num":12,"R_den":24,"correct_side":2,"subjID":"paulasofiacastellanoscastro26","gender":"6","school":"No_school","age":"11"},{"start_time":1551794058460,"click_time":1551794060488,"finger_time":1551794059948,"fix_duration":250,"trial":23,"RT":1488,"MT":540,"sideResp":1,"stimulus":[],"xmouse":[802,802,801,801,800,800,800,800,800,800,800,800,800,800,800,800,800,800,800,800,800,800,800,800,800,800,800,801,802,802,802,802,802,802,802,802,802,802,802,802,802,802,802,802,802,802,802,802,802,802,802,802,802,802,802,802,802,802,802,802,802,802,802,802,802,802,802,802,802,802,802,802,798,783,753,743,736,733,729,716,705,696,685,674,656,645,634,619,602,565,549,537,522,507,492,487,482,478,475,469,466,462],"ymouse":[506,506,506,506,506,506,506,506,506,506,506,506,506,506,506,506,506,506,506,506,506,506,506,506,506,506,506,505,505,504,504,504,504,504,504,504,504,504,504,504,504,504,504,504,504,504,504,504,504,504,504,504,504,504,504,504,504,504,504,504,504,504,504,504,504,504,504,504,504,504,504,501,495,477,439,419,403,393,386,357,340,324,308,295,273,259,250,240,228,201,190,182,174,165,155,151,145,138,132,113,107,99],"timestamp_mouse":[11,34,48,68,89,107,129,148,167,189,208,228,249,267,287,308,327,349,368,389,408,427,449,467,487,507,528,547,568,588,607,627,648,667,689,707,727,749,769,787,808,827,848,867,889,908,928,947,968,987,1008,1028,1048,1068,1088,1108,1128,1148,1167,1188,1207,1227,1247,1267,1287,1307,1327,1347,1367,1387,1407,1428,1447,1467,1488,1507,1529,1549,1568,1587,1607,1628,1649,1668,1688,1708,1727,1748,1769,1787,1807,1835,1848,1869,1888,1907,1927,1948,1968,1987,2007,2028],"xSR":741.5,"ySR":469.95,"xT1":424.9,"yT1":0,"xT2":1058.1,"yT2":0,"toosoon":0,"cond_shown":"Congruent","ratio_trial":100,"L_num":10,"L_den":25,"R_num":3,"R_den":10,"correct_side":1,"subjID":"paulasofiacastellanoscastro26","gender":"6","school":"No_school","age":"11"},{"start_time":1551794062039,"click_time":1551794064188,"finger_time":1551794063807,"fix_duration":250,"trial":24,"RT":1768,"MT":381,"sideResp":2,"stimulus":[],"xmouse":[798,798,798,798,798,798,798,798,798,798,798,798,798,798,798,798,798,798,798,798,798,798,798,798,798,798,798,798,798,798,798,798,798,798,798,798,798,798,798,798,798,798,798,798,798,798,798,798,798,798,798,798,798,798,798,798,798,798,798,798,798,798,798,798,798,798,798,798,798,798,798,798,798,798,798,798,798,798,798,798,798,798,799,799,800,802,816,829,855,870,893,901,911,918,925,939,949,959,974,985,994,1010,1020,1030,1040,1049,1064,1072],"ymouse":[511,511,511,511,511,511,511,511,511,511,511,511,511,511,511,511,511,511,511,511,511,511,511,511,511,511,511,511,511,511,511,511,511,511,511,511,511,511,511,511,511,511,511,511,511,511,511,511,511,511,511,511,511,511,511,511,511,511,511,511,511,511,511,511,511,511,511,511,511,511,511,511,511,511,511,511,511,511,510,510,510,510,509,509,508,507,497,488,470,458,436,421,402,381,364,324,306,287,260,242,226,191,174,161,146,130,105,92],"timestamp_mouse":[8,46,48,70,88,110,130,149,168,189,208,229,248,269,290,310,329,349,369,389,409,430,449,469,490,510,529,548,568,590,609,628,649,670,689,708,729,749,768,788,809,828,848,870,889,908,929,948,969,989,1010,1029,1049,1070,1088,1109,1129,1150,1169,1189,1210,1228,1250,1268,1289,1310,1330,1349,1369,1388,1409,1430,1450,1469,1489,1509,1528,1550,1569,1589,1608,1630,1649,1670,1689,1708,1730,1749,1768,1789,1809,1828,1848,1869,1889,1909,1929,1949,1968,1989,2010,2029,2049,2069,2089,2108,2130,2149],"xSR":741.5,"ySR":469.95,"xT1":424.9,"yT1":0,"xT2":1058.1,"yT2":0,"toosoon":0,"cond_shown":"Congruent","ratio_trial":300,"L_num":7,"L_den":14,"R_num":20,"R_den":25,"correct_side":2,"subjID":"paulasofiacastellanoscastro26","gender":"6","school":"No_school","age":"11"},{"start_time":1551794065721,"click_time":1551794069448,"finger_time":1551794069327,"fix_duration":250,"trial":25,"RT":3606,"MT":121,"sideResp":1,"stimulus":[],"xmouse":[789,789,789,789,789,789,789,789,789,789,789,789,789,789,789,789,789,789,789,789,789,789,789,789,789,789,789,789,789,789,789,789,789,789,789,789,789,789,789,789,789,789,789,789,789,789,789,789,789,789,789,789,789,789,789,789,789,789,789,789,789,789,789,789,789,789,789,790,790,790,790,790,790,790,790,790,790,790,790,790,790,790,790,790,790,790,790,790,790,790,790,790,790,790,790,790,790,790,790,790,790,790,790,790,790,790,790,790,790,790,790,790,790,790,790,790,790,790,790,790,790,790,790,790,790,790,790,790,790,790,790,790,790,790,790,790,790,790,790,790,790,790,790,790,790,790,790,790,790,790,790,790,790,790,790,790,790,790,790,790,791,794,796,796,796,796,796,796,796,796,796,796,796,796,794,793,788,774,769,763,757,748,688,644,591,527,483],"ymouse":[498,498,498,498,498,498,498,498,498,498,498,498,498,498,498,498,498,498,498,498,498,498,498,498,498,498,498,498,498,498,498,498,498,498,498,498,498,498,498,498,498,498,498,498,498,498,498,498,498,498,498,498,498,498,498,498,498,498,498,498,498,498,498,498,498,498,498,498,498,497,497,497,497,497,497,497,497,497,497,497,497,497,497,497,497,497,497,497,497,497,497,497,497,497,497,497,497,497,497,497,497,497,497,497,497,497,497,497,497,497,497,497,497,497,497,497,497,497,497,497,497,497,497,497,497,497,497,497,497,497,497,497,497,497,497,497,497,497,497,497,497,497,497,497,497,497,497,497,497,497,497,497,497,497,497,497,497,497,497,497,497,496,494,494,494,494,494,494,494,494,494,494,494,494,494,494,493,488,484,478,464,439,271,204,142,87,48],"timestamp_mouse":[10,31,47,66,87,108,127,146,166,187,207,228,247,266,286,307,326,347,366,388,406,427,446,467,486,507,526,547,568,587,608,626,648,667,686,708,726,746,767,788,807,826,848,867,887,907,927,946,966,988,1007,1027,1046,1067,1086,1107,1127,1147,1167,1188,1206,1228,1248,1266,1286,1306,1328,1346,1366,1388,1407,1427,1446,1466,1487,1506,1526,1547,1566,1587,1606,1626,1647,1668,1687,1707,1727,1746,1766,1788,1806,1827,1848,1866,1888,1907,1926,1948,1966,1986,2007,2027,2046,2067,2087,2107,2127,2146,2167,2186,2207,2226,2248,2266,2288,2306,2327,2348,2368,2387,2407,2427,2446,2466,2488,2506,2526,2548,2566,2586,2607,2627,2646,2668,2686,2707,2727,2746,2766,2786,2807,2828,2847,2866,2887,2906,2927,2946,2968,2986,3008,3027,3048,3066,3087,3108,3127,3148,3166,3187,3206,3227,3247,3267,3288,3308,3327,3346,3366,3388,3408,3426,3447,3466,3486,3507,3527,3547,3567,3586,3606,3627,3646,3667,3687,3707,3727],"xSR":741.5,"ySR":469.95,"xT1":424.9,"yT1":0,"xT2":1058.1,"yT2":0,"toosoon":0,"cond_shown":"Congruent","ratio_trial":100,"L_num":10,"L_den":25,"R_num":3,"R_den":10,"correct_side":1,"subjID":"paulasofiacastellanoscastro26","gender":"6","school":"No_school","age":"11"},{"start_time":1551794071599,"click_time":1551794073569,"finger_time":1551794073089,"fix_duration":669.1749348022003,"trial":26,"RT":1490,"MT":480,"sideResp":2,"stimulus":[],"xmouse":[809,809,809,809,809,809,809,809,809,809,809,809,809,809,809,809,809,809,809,809,809,809,809,809,809,809,809,809,809,809,809,809,809,809,809,809,809,809,809,809,809,809,809,809,809,809,809,809,809,809,810,811,811,811,811,811,811,811,811,811,811,811,811,811,811,811,811,811,811,811,813,816,823,833,851,862,867,879,886,910,922,936,948,970,980,989,996,1004,1010,1018,1021,1026,1031,1041,1043,1044,1048,1053,1060],"ymouse":[531,531,531,531,531,531,531,531,531,531,531,531,531,531,531,531,531,531,531,531,531,531,531,531,531,531,531,531,531,531,531,531,531,531,531,531,531,531,531,531,531,531,531,531,531,531,531,531,531,531,531,530,530,530,530,530,530,530,530,530,530,530,530,530,530,530,530,530,530,529,527,522,515,507,489,473,464,437,419,375,353,331,310,271,253,229,213,198,184,163,150,140,129,113,109,106,99,92,85],"timestamp_mouse":[10,36,49,69,88,108,130,148,169,189,210,230,249,269,289,310,328,348,369,390,408,429,449,468,488,510,528,550,569,588,610,630,648,669,688,710,728,750,769,790,809,829,849,868,889,909,929,948,969,988,1009,1028,1048,1069,1088,1109,1129,1149,1169,1189,1208,1229,1249,1269,1290,1308,1330,1348,1368,1389,1410,1428,1448,1469,1490,1509,1529,1549,1569,1588,1609,1629,1650,1669,1688,1710,1729,1749,1770,1789,1808,1828,1849,1870,1888,1909,1928,1949,1970],"xSR":741.5,"ySR":469.95,"xT1":424.9,"yT1":0,"xT2":1058.1,"yT2":0,"toosoon":0,"cond_shown":"Incongruent","ratio_trial":200,"L_num":3,"L_den":4,"R_num":11,"R_den":20,"correct_side":1,"subjID":"paulasofiacastellanoscastro26","gender":"6","school":"No_school","age":"11"},{"start_time":1551794076683,"click_time":1551794079067,"finger_time":1551794078688,"fix_duration":1454.7505085755254,"trial":27,"RT":2005,"MT":379,"sideResp":2,"stimulus":[],"xmouse":[793,793,793,793,793,793,793,793,793,793,793,793,793,793,793,793,793,793,793,793,793,793,793,793,793,793,793,793,793,793,793,793,793,793,793,793,794,794,794,794,794,795,795,795,795,795,795,795,795,795,795,795,795,795,795,795,795,795,795,795,795,795,795,795,795,795,795,795,795,795,795,795,795,795,795,795,795,795,795,795,795,795,795,795,795,795,795,795,795,795,796,798,799,799,799,799,799,799,803,807,832,844,858,866,879,916,936,961,987,993,1010,1011,1011,1012,1015,1039,1047,1050,1053,1063],"ymouse":[523,523,523,523,523,523,523,523,523,523,523,523,523,523,523,523,523,523,523,523,523,523,523,523,523,523,523,523,523,523,523,523,523,523,523,519,516,514,513,512,510,509,509,509,509,509,509,509,509,509,509,509,509,509,509,509,509,509,509,509,509,509,509,509,509,509,509,509,509,509,509,508,508,508,507,507,507,507,507,507,507,507,507,507,507,507,507,507,507,507,506,504,503,503,503,503,503,503,497,493,444,416,379,346,308,224,175,131,85,74,47,45,45,43,42,35,34,33,33,33],"timestamp_mouse":[10,36,44,64,84,105,125,145,166,185,205,224,246,266,285,304,325,345,364,385,404,425,446,464,485,506,525,545,565,585,604,625,644,664,685,704,725,745,765,785,805,824,846,864,885,905,924,946,966,985,1005,1025,1046,1064,1084,1105,1124,1144,1164,1185,1204,1225,1245,1265,1285,1305,1324,1344,1365,1385,1404,1425,1445,1465,1485,1509,1525,1545,1565,1585,1605,1625,1645,1666,1685,1704,1726,1746,1765,1786,1805,1824,1845,1864,1884,1905,1925,1945,1964,1986,2005,2025,2044,2065,2085,2105,2125,2144,2164,2185,2205,2226,2245,2264,2284,2306,2325,2345,2364,2384],"xSR":741.5,"ySR":469.95,"xT1":424.9,"yT1":0,"xT2":1058.1,"yT2":0,"toosoon":0,"cond_shown":"Congruent","ratio_trial":300,"L_num":3,"L_den":12,"R_num":11,"R_den":20,"correct_side":2,"subjID":"paulasofiacastellanoscastro26","gender":"6","school":"No_school","age":"11"},{"start_time":1551794081355,"click_time":1551794083569,"finger_time":1551794083108,"fix_duration":966.1558595691062,"trial":28,"RT":1753,"MT":461,"sideResp":1,"stimulus":[],"xmouse":[805,805,805,805,805,805,805,805,805,805,805,805,805,805,805,805,805,805,805,805,805,805,805,805,805,805,805,805,805,805,805,805,805,805,805,805,805,805,806,806,806,806,806,806,806,806,806,806,806,806,806,807,807,807,807,808,808,808,808,809,809,809,809,809,809,809,809,809,809,809,809,809,809,809,810,810,810,810,810,810,810,810,810,808,800,794,789,784,782,781,780,777,770,761,754,748,727,712,694,674,657,641,614,590,579,569,558,527,514,502,492],"ymouse":[509,509,509,509,509,509,509,509,509,509,509,509,509,509,509,509,509,509,509,509,509,509,509,509,509,509,509,509,509,509,509,509,509,509,508,508,508,508,507,507,507,507,507,507,507,507,507,507,507,507,507,506,506,506,506,506,506,506,506,505,505,505,505,505,505,505,505,505,505,505,505,505,505,505,505,505,505,505,505,505,505,505,505,498,491,481,470,455,448,441,434,425,411,396,384,377,358,348,334,319,304,288,251,219,199,184,167,132,116,101,88],"timestamp_mouse":[14,32,66,73,92,112,133,152,173,192,214,233,252,272,293,312,334,353,372,393,414,432,454,474,492,513,532,553,574,592,612,633,652,674,693,713,733,752,773,793,814,833,852,873,894,912,932,954,972,992,1012,1033,1052,1072,1092,1112,1133,1152,1174,1193,1212,1233,1252,1274,1292,1313,1333,1352,1372,1393,1412,1433,1454,1473,1493,1514,1533,1553,1573,1593,1614,1632,1654,1673,1693,1713,1732,1753,1773,1792,1812,1833,1853,1872,1892,1913,1934,1952,1974,1992,2014,2032,2053,2072,2092,2112,2133,2152,2172,2193,2213],"xSR":741.5,"ySR":469.95,"xT1":424.9,"yT1":0,"xT2":1058.1,"yT2":0,"toosoon":0,"cond_shown":"Congruent","ratio_trial":300,"L_num":5,"L_den":25,"R_num":6,"R_den":12,"correct_side":2,"subjID":"paulasofiacastellanoscastro26","gender":"6","school":"No_school","age":"11"},{"start_time":1551794085450,"click_time":1551794087207,"finger_time":1551794086828,"fix_duration":441.65398350648064,"trial":29,"RT":1378,"MT":379,"sideResp":1,"stimulus":[],"xmouse":[789,789,788,786,784,780,778,776,775,775,775,775,775,775,775,775,776,776,776,776,776,776,776,778,778,778,778,778,778,779,781,782,782,782,782,782,782,784,785,786,786,786,786,786,786,786,786,786,786,786,786,786,786,786,786,786,786,786,786,786,786,786,786,786,786,784,777,751,740,729,720,708,687,673,661,647,636,604,591,577,565,555,530,517,508,500,491,478],"ymouse":[503,504,507,509,512,514,515,517,518,518,518,518,518,518,518,518,518,518,518,518,518,518,518,518,518,518,518,518,518,517,516,516,516,516,516,516,516,515,514,513,513,513,513,513,513,513,513,513,513,513,513,513,513,513,513,513,513,513,513,513,513,513,513,513,509,507,501,476,457,430,399,356,294,273,257,241,229,198,186,176,168,160,140,133,128,122,114,99],"timestamp_mouse":[18,39,57,77,98,118,138,159,177,199,217,238,259,279,298,317,338,357,378,397,418,438,459,477,498,518,538,557,578,599,617,637,658,678,697,719,737,757,778,797,819,838,859,879,897,919,937,958,978,997,1017,1038,1058,1077,1098,1119,1139,1157,1177,1198,1218,1239,1258,1277,1298,1318,1339,1357,1378,1398,1418,1437,1457,1479,1498,1518,1539,1557,1578,1597,1618,1637,1658,1678,1697,1718,1739,1757],"xSR":741.5,"ySR":469.95,"xT1":424.9,"yT1":0,"xT2":1058.1,"yT2":0,"toosoon":0,"cond_shown":"Incongruent","ratio_trial":100,"L_num":12,"L_den":24,"R_num":9,"R_den":15,"correct_side":2,"subjID":"paulasofiacastellanoscastro26","gender":"6","school":"No_school","age":"11"},{"start_time":1551794089455,"click_time":1551794092068,"finger_time":1551794091208,"fix_duration":524.2364492613317,"trial":30,"RT":1753,"MT":860,"sideResp":2,"stimulus":[],"xmouse":[820,820,820,820,820,820,820,820,820,820,820,820,820,820,820,820,820,820,820,820,820,820,820,820,820,820,820,820,820,820,820,820,820,820,820,820,820,820,820,820,820,820,820,820,820,820,820,820,820,820,820,820,820,820,820,820,820,820,820,820,820,820,820,820,820,820,820,820,820,820,820,820,819,814,813,810,809,807,805,804,803,803,803,803,803,803,807,821,829,834,839,842,845,847,847,847,847,847,848,850,854,861,887,891,891,891,891,891,891,891,891,891,891,891,891,891,891,891,894,899,910,924,973,1018,1030,1058,1070,1090,1100,1108,1113],"ymouse":[553,553,553,554,554,554,554,554,554,554,554,554,554,554,554,554,554,554,554,554,554,554,554,554,554,554,554,554,554,554,554,554,554,554,554,554,554,554,554,554,554,554,554,554,554,554,554,554,554,554,554,554,554,554,554,554,554,554,554,554,554,554,554,554,554,554,554,554,554,554,554,554,554,547,546,543,540,538,534,532,531,529,526,522,517,507,491,448,427,409,394,380,365,349,346,346,346,346,345,341,337,329,305,301,301,301,301,301,301,301,301,301,301,301,301,301,301,301,297,291,283,274,241,212,199,169,154,126,111,100,91],"timestamp_mouse":[12,42,53,74,92,112,132,153,172,193,213,233,254,274,293,312,333,352,373,393,412,434,453,473,494,513,532,552,574,593,613,632,652,673,693,713,734,753,772,793,812,834,853,874,893,912,932,953,973,993,1013,1033,1052,1073,1092,1113,1133,1153,1173,1194,1212,1232,1253,1273,1293,1314,1333,1352,1373,1394,1414,1432,1452,1473,1492,1512,1534,1552,1573,1593,1614,1634,1653,1672,1693,1714,1732,1753,1772,1793,1814,1834,1852,1872,1892,1914,1933,1954,1972,1994,2014,2032,2053,2073,2093,2113,2133,2153,2172,2193,2214,2233,2253,2273,2293,2313,2333,2352,2372,2393,2413,2432,2454,2473,2493,2512,2532,2554,2572,2593,2612],"xSR":741.5,"ySR":469.95,"xT1":424.9,"yT1":0,"xT2":1058.1,"yT2":0,"toosoon":0,"cond_shown":"Incongruent","ratio_trial":200,"L_num":7,"L_den":10,"R_num":12,"R_den":24,"correct_side":1,"subjID":"paulasofiacastellanoscastro26","gender":"6","school":"No_school","age":"11"},{"start_time":1551794093699,"click_time":1551794095488,"finger_time":1551794095328,"fix_duration":250,"trial":31,"RT":1629,"MT":160,"sideResp":2,"stimulus":[],"xmouse":[750,750,751,752,754,754,754,754,754,754,755,755,755,755,755,755,755,755,755,755,755,755,755,755,755,755,755,755,755,755,755,755,755,755,755,755,755,755,755,755,755,755,755,755,755,755,755,755,755,755,755,755,755,755,755,755,755,755,755,755,755,755,755,755,755,755,755,755,755,755,755,761,763,765,769,771,773,774,775,775,776,797,812,829,850,879,916,994,1043,1086],"ymouse":[507,504,503,501,500,500,500,500,500,500,500,500,500,500,500,500,500,500,500,500,500,500,500,500,500,500,500,500,500,500,500,500,500,500,500,500,500,500,500,500,500,500,500,500,500,500,500,500,500,500,500,500,500,500,500,500,500,500,500,500,500,500,500,500,500,500,500,500,500,500,499,492,491,489,487,485,485,485,484,484,483,463,448,426,396,355,296,157,79,19],"timestamp_mouse":[9,28,49,69,89,109,128,149,169,188,208,229,248,268,289,310,329,349,368,388,410,429,448,470,489,508,529,548,570,588,610,628,649,668,690,709,729,748,770,788,808,829,849,870,888,908,929,949,969,988,1008,1029,1048,1069,1089,1108,1129,1148,1169,1189,1208,1229,1250,1268,1288,1309,1329,1348,1370,1390,1409,1429,1448,1468,1488,1509,1529,1549,1570,1589,1609,1629,1649,1670,1689,1709,1728,1748,1768,1788],"xSR":741.5,"ySR":469.95,"xT1":424.9,"yT1":0,"xT2":1058.1,"yT2":0,"toosoon":0,"cond_shown":"Congruent","ratio_trial":200,"L_num":5,"L_den":10,"R_num":14,"R_den":20,"correct_side":2,"subjID":"paulasofiacastellanoscastro26","gender":"6","school":"No_school","age":"11"},{"start_time":1551794097861,"click_time":1551794100369,"finger_time":1551794099848,"fix_duration":1211.476313543863,"trial":32,"RT":1987,"MT":521,"sideResp":1,"stimulus":[],"xmouse":[793,793,793,793,793,793,793,793,793,793,793,793,793,793,793,793,793,793,793,793,793,793,793,793,793,793,793,793,793,793,793,793,793,793,793,793,793,793,793,793,793,793,793,793,793,793,793,793,793,793,793,793,793,793,793,793,793,793,793,793,793,793,793,793,793,793,793,793,793,793,793,793,793,793,793,793,793,793,793,793,793,793,793,793,793,793,793,793,793,793,793,793,793,793,793,787,778,763,753,734,730,722,714,704,681,669,659,653,637,621,609,598,589,564,552,538,532,527,524,513,499,492,484,477,475,472],"ymouse":[524,524,524,524,524,524,524,524,524,524,524,524,524,524,524,524,524,524,524,524,524,524,524,524,524,524,524,524,524,524,524,524,524,524,524,524,524,524,524,524,524,524,524,524,524,524,524,524,524,524,524,524,524,524,524,524,524,524,524,524,524,524,524,524,524,524,524,524,524,524,524,524,524,524,524,524,524,524,524,524,524,524,524,524,524,524,524,524,524,524,524,524,524,524,523,519,514,506,499,483,475,460,443,420,372,349,325,310,283,265,255,246,238,219,211,201,195,191,188,174,156,142,128,109,100,92],"timestamp_mouse":[10,35,48,66,86,107,128,146,167,186,207,226,246,268,287,307,327,347,367,388,407,426,448,468,487,508,527,547,567,588,607,626,648,667,688,706,726,747,767,787,806,828,846,867,886,908,928,946,967,986,1007,1027,1048,1067,1087,1108,1128,1148,1167,1188,1208,1226,1246,1267,1288,1306,1326,1348,1367,1388,1407,1427,1448,1467,1488,1508,1526,1546,1567,1587,1608,1628,1646,1667,1687,1708,1728,1746,1768,1787,1807,1826,1846,1868,1887,1906,1928,1948,1966,1987,2007,2026,2046,2066,2086,2107,2127,2147,2169,2188,2206,2226,2247,2267,2286,2308,2327,2346,2367,2386,2406,2427,2446,2468,2487,2507],"xSR":741.5,"ySR":469.95,"xT1":424.9,"yT1":0,"xT2":1058.1,"yT2":0,"toosoon":0,"cond_shown":"Incongruent","ratio_trial":300,"L_num":4,"L_den":20,"R_num":2,"R_den":4,"correct_side":2,"subjID":"paulasofiacastellanoscastro26","gender":"6","school":"No_school","age":"11"},{"start_time":1551794103116,"click_time":1551794105288,"finger_time":1551794103468,"fix_duration":1327.371085405314,"trial":33,"RT":352,"MT":1820,"sideResp":2,"stimulus":[],"xmouse":[824,825,825,825,825,825,825,825,825,825,825,825,825,825,825,825,828,829,830,830,830,832,835,836,837,838,838,838,838,838,838,838,838,838,838,838,838,838,838,838,838,838,838,838,837,832,824,823,822,820,820,816,814,811,808,807,804,804,804,804,804,804,803,801,799,799,798,797,796,796,796,796,796,795,795,799,856,902,919,927,938,977,995,1007,1011,1012,1015,1016,1016,1017,1018,1025,1029,1034,1036,1036,1036,1036,1036,1036,1037,1039,1042,1044,1045,1045,1050,1054,1059],"ymouse":[478,477,477,477,477,477,477,477,477,477,477,477,477,477,475,474,470,469,468,468,468,466,464,463,463,462,462,462,462,462,462,462,462,462,462,462,462,462,462,462,462,462,462,462,466,474,494,499,503,507,512,520,525,530,533,536,539,539,539,539,539,539,539,539,538,538,537,537,536,536,536,536,536,534,524,516,434,375,344,320,287,200,168,150,141,139,131,129,129,127,126,120,117,115,113,113,113,113,113,113,112,110,107,106,105,104,99,95,92],"timestamp_mouse":[11,31,61,71,91,111,131,152,172,193,213,231,252,272,292,312,332,352,371,392,413,432,451,472,492,513,532,552,573,592,611,631,652,672,691,712,733,752,773,791,813,832,852,871,891,911,931,953,972,992,1013,1032,1051,1072,1092,1112,1132,1152,1172,1193,1212,1232,1252,1272,1291,1313,1332,1352,1372,1393,1411,1433,1451,1471,1493,1512,1532,1552,1572,1592,1613,1632,1652,1672,1693,1711,1731,1751,1771,1792,1811,1832,1852,1872,1891,1912,1932,1953,1972,1991,2011,2031,2051,2072,2092,2112,2131,2151,2172],"xSR":741.5,"ySR":469.95,"xT1":424.9,"yT1":0,"xT2":1058.1,"yT2":0,"toosoon":0,"cond_shown":"Congruent","ratio_trial":100,"L_num":1,"L_den":2,"R_num":3,"R_den":5,"correct_side":2,"subjID":"paulasofiacastellanoscastro26","gender":"6","school":"No_school","age":"11"},{"start_time":1551794106999,"click_time":1551794109807,"finger_time":1551794109368,"fix_duration":250,"trial":34,"RT":2369,"MT":439,"sideResp":2,"stimulus":[],"xmouse":[790,790,790,790,790,790,790,790,790,790,790,790,790,790,790,790,790,790,790,790,790,790,790,790,790,790,790,790,790,790,790,790,790,790,790,790,790,790,790,790,790,790,790,790,790,790,790,790,790,790,790,790,790,790,790,790,790,790,790,790,790,790,790,790,790,790,790,790,790,790,790,790,790,790,790,790,790,790,791,793,794,794,795,796,797,797,799,799,800,801,801,802,802,802,802,802,802,802,802,802,802,800,798,794,793,792,792,791,791,790,790,790,790,790,790,790,790,790,798,824,837,847,858,876,886,900,911,936,945,958,966,977,988,1008,1019,1026,1031,1036,1046,1052,1063],"ymouse":[527,527,527,527,527,527,527,527,527,527,527,527,527,527,527,527,527,527,526,525,525,524,524,524,524,524,524,524,524,524,524,524,524,524,524,524,524,524,524,524,524,524,524,524,524,524,524,524,524,524,524,524,524,524,524,524,524,524,524,524,524,524,524,524,524,524,524,524,524,524,524,524,524,524,524,524,524,524,523,520,517,516,514,512,510,507,505,504,501,499,498,498,497,497,496,495,495,495,495,494,491,489,487,482,481,481,480,480,478,478,478,478,478,478,478,477,475,473,453,415,396,379,361,325,303,281,261,223,210,191,182,168,159,146,140,136,133,129,119,113,99],"timestamp_mouse":[21,39,49,68,89,109,129,148,170,190,209,229,248,268,290,309,329,349,369,389,409,429,449,468,488,509,528,548,568,588,609,630,648,668,689,708,729,749,768,789,809,830,848,869,889,909,930,949,970,989,1009,1028,1049,1070,1089,1110,1129,1149,1170,1188,1208,1230,1248,1270,1288,1309,1330,1349,1368,1389,1408,1430,1448,1469,1490,1508,1529,1548,1569,1590,1609,1629,1650,1668,1688,1709,1728,1749,1768,1790,1809,1828,1849,1869,1888,1909,1928,1948,1968,1989,2008,2029,2049,2068,2089,2109,2128,2148,2169,2190,2210,2228,2248,2268,2288,2309,2328,2348,2369,2389,2409,2428,2448,2468,2488,2509,2529,2550,2569,2588,2608,2629,2648,2668,2688,2709,2728,2750,2769,2789,2808],"xSR":741.5,"ySR":469.95,"xT1":424.9,"yT1":0,"xT2":1058.1,"yT2":0,"toosoon":0,"cond_shown":"Incongruent","ratio_trial":100,"L_num":8,"L_den":16,"R_num":6,"R_den":10,"correct_side":2,"subjID":"paulasofiacastellanoscastro26","gender":"6","school":"No_school","age":"11"},{"start_time":1551794112206,"click_time":1551794114367,"finger_time":1551794113768,"fix_duration":1157.292215667668,"trial":35,"RT":1562,"MT":599,"sideResp":2,"stimulus":[],"xmouse":[793,793,793,793,793,793,793,793,793,793,793,793,793,793,793,793,793,793,793,793,793,793,793,793,793,793,793,793,792,792,792,792,792,792,792,792,792,792,792,792,792,792,792,792,792,792,792,791,791,791,791,791,791,791,791,791,791,791,791,791,791,791,791,791,791,791,792,792,793,793,795,795,796,798,799,801,803,811,827,833,839,846,856,887,917,954,998,1041,1093,1103,1111,1114,1121,1137,1141,1145,1145,1145,1140,1137,1135,1133,1132,1130,1130,1130,1130,1130,1123],"ymouse":[513,513,513,513,513,513,513,513,513,513,513,513,513,513,513,513,513,513,513,513,513,513,513,513,513,513,513,513,513,513,513,513,513,513,513,513,513,513,513,513,513,513,513,513,512,510,508,507,507,507,507,507,507,507,507,507,507,507,506,505,505,504,504,504,503,501,500,499,498,497,496,494,493,490,490,488,486,480,469,465,461,456,449,431,412,388,369,349,321,312,303,289,265,221,202,185,172,168,158,154,151,147,145,141,140,139,133,130,97],"timestamp_mouse":[8,22,42,62,83,101,122,142,161,182,201,223,242,261,282,302,322,343,362,381,403,421,441,462,483,502,522,542,561,583,603,622,642,663,681,702,722,743,762,782,802,823,842,862,881,901,923,943,962,982,1002,1022,1043,1061,1082,1102,1122,1142,1163,1182,1202,1222,1242,1262,1281,1302,1321,1342,1362,1381,1402,1422,1441,1462,1482,1502,1521,1543,1562,1582,1601,1622,1641,1662,1683,1702,1723,1743,1761,1781,1802,1822,1841,1862,1881,1901,1922,1942,1961,1982,2001,2023,2042,2062,2081,2102,2121,2142,2161],"xSR":741.5,"ySR":469.95,"xT1":424.9,"yT1":0,"xT2":1058.1,"yT2":0,"toosoon":0,"cond_shown":"Incongruent","ratio_trial":100,"L_num":10,"L_den":25,"R_num":9,"R_den":18,"correct_side":2,"subjID":"paulasofiacastellanoscastro26","gender":"6","school":"No_school","age":"11"},{"start_time":1551794117009,"click_time":1551794120289,"finger_time":1551794118048,"fix_duration":1319.3861547146007,"trial":36,"RT":1039,"MT":2241,"sideResp":1,"stimulus":[],"xmouse":[777,777,777,777,777,777,777,777,777,777,777,777,777,777,777,777,777,777,777,777,777,777,777,777,777,777,777,777,777,777,777,777,777,777,777,777,777,778,778,778,778,776,774,774,774,774,774,774,773,771,768,765,764,762,761,761,761,761,761,761,761,761,761,754,749,747,746,745,745,745,745,745,745,745,745,745,745,745,745,745,745,745,745,745,745,745,745,744,741,739,739,739,739,738,732,723,707,694,680,676,674,674,674,674,674,674,674,674,674,674,674,674,674,674,674,674,674,674,674,673,670,669,667,666,666,666,666,666,665,663,657,653,648,640,636,632,629,625,619,617,616,616,615,612,608,600,588,577,556,550,546,545,544,542,542,542,541,541,538,535,533,531,526,513],"ymouse":[508,508,508,508,508,508,508,508,507,507,507,507,507,507,507,507,507,507,507,507,507,507,507,507,507,507,507,507,507,507,507,507,507,507,507,507,507,504,502,498,494,491,485,485,485,485,485,485,482,478,474,469,465,461,460,460,460,460,460,460,460,459,457,452,447,446,444,444,444,444,444,444,444,444,444,444,444,444,444,444,444,444,444,444,444,444,442,441,436,435,434,433,433,429,417,395,365,343,318,310,307,307,307,307,307,307,307,307,307,307,307,307,307,307,307,307,307,307,307,306,303,301,298,297,297,297,297,297,295,293,287,283,278,272,268,266,262,258,252,251,249,249,248,243,237,221,200,182,153,147,142,141,139,136,135,135,134,133,130,127,124,121,113,91],"timestamp_mouse":[19,43,59,80,98,120,140,159,179,199,218,239,258,280,300,319,338,360,379,398,419,440,458,480,499,519,538,558,579,599,620,639,660,679,698,719,739,759,779,799,820,838,860,879,898,918,940,958,978,998,1019,1039,1059,1079,1099,1120,1139,1158,1178,1199,1219,1238,1258,1279,1300,1318,1340,1360,1379,1398,1418,1440,1460,1479,1499,1520,1541,1560,1581,1600,1619,1639,1661,1680,1700,1721,1740,1761,1781,1801,1820,1841,1860,1880,1899,1920,1941,1960,1981,2001,2021,2040,2059,2080,2100,2120,2141,2159,2179,2199,2220,2241,2261,2280,2301,2320,2340,2359,2379,2400,2420,2440,2460,2480,2500,2521,2540,2561,2580,2599,2621,2641,2660,2680,2700,2720,2740,2760,2780,2801,2821,2839,2861,2880,2901,2921,2940,2959,2979,3001,3021,3040,3060,3079,3100,3119,3140,3161,3180,3200,3220,3241,3260,3280],"xSR":741.5,"ySR":469.95,"xT1":424.9,"yT1":0,"xT2":1058.1,"yT2":0,"toosoon":0,"cond_shown":"Incongruent","ratio_trial":100,"L_num":9,"L_den":18,"R_num":6,"R_den":10,"correct_side":2,"subjID":"paulasofiacastellanoscastro26","gender":"6","school":"No_school","age":"11"},{"start_time":1551794122180,"click_time":1551794123889,"finger_time":1551794123028,"fix_duration":250,"trial":37,"RT":848,"MT":861,"sideResp":1,"stimulus":[],"xmouse":[832,832,833,833,833,833,833,833,833,833,833,833,833,833,833,833,833,833,833,833,833,833,833,833,833,833,833,833,833,833,833,833,834,834,834,835,835,837,839,840,840,840,842,843,844,844,844,844,845,846,846,846,846,846,847,849,849,849,849,849,849,849,849,849,849,846,838,827,816,805,784,773,755,745,690,611,589,573,564,555,546,542,539,533,525,520],"ymouse":[518,519,520,520,520,520,520,520,521,521,521,521,521,521,521,521,521,521,521,521,521,521,521,521,521,521,521,521,521,521,521,521,521,521,521,521,521,519,518,518,518,518,518,516,516,516,515,515,514,514,514,514,514,514,513,507,504,501,500,500,500,500,500,499,498,491,484,477,471,462,445,435,404,386,288,180,141,114,95,83,71,68,65,60,55,51],"timestamp_mouse":[16,29,57,69,88,109,129,150,169,189,209,230,249,269,288,309,329,348,369,389,410,430,449,469,489,508,530,549,570,589,609,629,648,669,689,709,730,750,770,788,810,830,848,870,889,909,928,949,969,989,1011,1029,1048,1068,1089,1109,1129,1149,1169,1189,1210,1230,1249,1268,1290,1309,1329,1349,1369,1389,1409,1428,1448,1470,1490,1509,1529,1549,1568,1590,1609,1629,1650,1669,1689,1709],"xSR":741.5,"ySR":469.95,"xT1":424.9,"yT1":0,"xT2":1058.1,"yT2":0,"toosoon":0,"cond_shown":"Congruent","ratio_trial":100,"L_num":11,"L_den":22,"R_num":4,"R_den":10,"correct_side":1,"subjID":"paulasofiacastellanoscastro26","gender":"6","school":"No_school","age":"11"},{"start_time":1551794126045,"click_time":1551794127509,"finger_time":1551794127030,"fix_duration":1035.9870205195155,"trial":38,"RT":985,"MT":479,"sideResp":2,"stimulus":[],"xmouse":[776,776,776,776,776,776,776,776,776,776,776,776,776,776,776,776,776,776,776,776,776,776,776,776,776,776,775,775,775,775,775,775,775,775,775,777,779,783,804,805,805,805,805,805,805,806,807,811,816,822,830,838,855,867,878,891,906,947,974,1008,1021,1028,1031,1033,1035,1037,1040,1044,1052,1052,1054,1055,1059,1068],"ymouse":[523,523,523,523,523,523,523,523,523,523,523,523,523,523,523,523,523,523,523,523,523,523,523,523,523,523,521,520,512,509,509,509,509,509,509,505,504,499,484,484,484,484,484,484,484,483,483,478,471,466,458,453,438,427,417,406,392,330,282,222,199,181,169,161,154,150,144,133,116,115,113,110,104,92],"timestamp_mouse":[3,36,44,65,84,104,125,144,164,183,204,224,245,264,285,305,325,345,364,384,403,425,444,464,485,505,524,544,564,585,605,623,645,665,684,704,724,744,764,784,804,824,844,865,884,904,925,945,964,985,1005,1025,1045,1064,1085,1104,1125,1145,1163,1184,1204,1224,1244,1264,1284,1304,1323,1344,1364,1384,1404,1424,1444,1464],"xSR":741.5,"ySR":469.95,"xT1":424.9,"yT1":0,"xT2":1058.1,"yT2":0,"toosoon":0,"cond_shown":"Incongruent","ratio_trial":200,"L_num":7,"L_den":10,"R_num":12,"R_den":24,"correct_side":1,"subjID":"paulasofiacastellanoscastro26","gender":"6","school":"No_school","age":"11"},{"start_time":1551794129262,"click_time":1551794132269,"finger_time":1551794131729,"fix_duration":551.8196069672233,"trial":39,"RT":2467,"MT":540,"sideResp":2,"stimulus":[],"xmouse":[774,774,774,774,775,775,775,777,778,778,778,778,778,778,778,779,779,779,779,779,779,779,779,779,779,779,779,779,779,779,779,779,779,779,779,779,779,779,779,779,779,779,779,779,779,779,779,779,779,777,774,771,770,770,770,770,770,770,770,770,770,770,770,770,770,770,770,770,770,770,770,770,770,770,770,770,770,770,770,770,770,770,770,770,770,770,770,770,770,770,770,770,770,770,770,770,770,770,770,770,770,770,770,770,770,770,770,770,770,770,770,770,773,778,781,782,782,782,782,782,785,788,806,821,836,848,861,901,936,966,991,1001,1007,1011,1012,1012,1012,1015,1017,1020,1023,1026,1029,1033,1040,1052,1056,1066,1068,1068,1070],"ymouse":[509,509,509,509,508,508,508,506,505,505,505,505,505,505,505,504,504,504,504,504,504,504,504,504,504,504,504,504,504,504,504,504,504,504,504,504,504,504,504,504,504,504,504,504,504,504,504,504,504,499,496,493,493,493,493,493,493,493,493,493,493,493,493,493,493,493,493,493,493,493,493,493,493,493,493,493,493,493,493,493,493,493,493,493,493,493,493,493,493,493,493,492,492,492,492,492,492,492,492,492,492,492,492,492,492,492,492,492,492,492,491,490,488,486,485,485,485,485,485,485,483,482,475,469,463,457,447,382,324,278,240,221,209,194,190,190,190,184,179,174,169,166,159,154,143,124,118,105,103,101,98],"timestamp_mouse":[10,32,48,67,87,107,127,147,167,188,207,227,247,268,287,306,327,346,367,386,406,427,447,468,487,508,526,547,567,587,608,627,648,666,688,708,727,747,768,787,807,827,847,867,887,908,927,947,967,987,1008,1027,1046,1068,1087,1108,1127,1148,1167,1186,1207,1227,1247,1266,1288,1308,1327,1347,1367,1387,1408,1428,1447,1467,1488,1508,1527,1547,1566,1586,1608,1627,1648,1666,1687,1706,1727,1748,1768,1787,1807,1828,1848,1867,1888,1907,1927,1946,1968,1987,2008,2028,2047,2067,2088,2108,2128,2148,2166,2186,2207,2227,2247,2267,2288,2306,2328,2347,2367,2387,2408,2427,2447,2467,2487,2508,2527,2547,2567,2587,2608,262